"withinblocktrial","block","block_repetition","rt","resp","cor","cresp","conf_press","cj","rtconf","coherence","slow_trial","manipulation","sub","age","gender","handedness","X","batch","check1","check2","check3","check4"
0,4,1,1.20014149999997,"['n']",1,"right","['0']",6,0.617424000000028,0.4,0,"FastFast",1,18,"Woman","Right",NA,1,TRUE,TRUE,TRUE,TRUE
1,4,1,1.16601170000013,"['c']",0,"right","['9']",5,0.584120399999847,0.1,0,"FastFast",1,18,"Woman","Right",NA,1,TRUE,TRUE,TRUE,TRUE
2,4,1,1.16677659999982,"['c']",1,"left","['0']",6,0.283779300000106,0.1,0,"FastFast",1,18,"Woman","Right",NA,1,TRUE,TRUE,TRUE,TRUE
3,4,1,1.58403410000005,"['n']",0,"left","['0']",6,0.333655199999839,0.1,0,"FastFast",1,18,"Woman","Right",NA,1,TRUE,TRUE,TRUE,TRUE
4,4,1,1.00013149999995,"['n']",1,"right","['0']",6,0.43386559999999,0.2,0,"FastFast",1,18,"Woman","Right",NA,1,TRUE,TRUE,TRUE,TRUE
5,4,1,0.95092180000006,"['c']",1,"left","['0']",6,0.300432400000091,0.1,0,"FastFast",1,18,"Woman","Right",NA,1,TRUE,TRUE,TRUE,TRUE
6,4,1,0.750804500000186,"['c']",1,"left","['0']",6,0.250036900000168,0.4,0,"FastFast",1,18,"Woman","Right",NA,1,TRUE,TRUE,TRUE,TRUE
7,4,1,1.21632820000013,"['n']",1,"right","['9']",5,0.633841300000086,0.1,0,"FastFast",1,18,"Woman","Right",NA,1,TRUE,TRUE,TRUE,TRUE
8,4,1,0.950210299999981,"['n']",1,"right","['0']",6,0.283946399999877,0.2,0,"FastFast",1,18,"Woman","Right",NA,1,TRUE,TRUE,TRUE,TRUE
9,4,1,0.867056599999842,"['c']",0,"right","['0']",6,0.26773500000013,0.1,0,"FastFast",1,18,"Woman","Right",NA,1,TRUE,TRUE,TRUE,TRUE
10,4,1,0.650234899999987,"['c']",1,"left","['0']",6,0.283729900000026,0.4,0,"FastFast",1,18,"Woman","Right",NA,1,TRUE,TRUE,TRUE,TRUE
11,4,1,1.24938299999985,"['n']",1,"right","['9']",5,0.40031369999997,0.1,0,"FastFast",1,18,"Woman","Right",NA,1,TRUE,TRUE,TRUE,TRUE
12,4,1,1.16696130000014,"['n']",1,"right","['0']",6,0.533578100000113,0.4,0,"FastFast",1,18,"Woman","Right",NA,1,TRUE,TRUE,TRUE,TRUE
13,4,1,1.18368439999995,"['c']",0,"right","['9']",5,0.567137400000092,0.1,0,"FastFast",1,18,"Woman","Right",NA,1,TRUE,TRUE,TRUE,TRUE
14,4,1,0.867119200000161,"['c']",1,"left","['0']",6,0.217047700000194,0.2,0,"FastFast",1,18,"Woman","Right",NA,1,TRUE,TRUE,TRUE,TRUE
15,4,1,0.71775330000014,"['c']",1,"left","['0']",6,0.200634799999989,0.2,0,"FastFast",1,18,"Woman","Right",NA,1,TRUE,TRUE,TRUE,TRUE
16,4,1,0.716690799999924,"['c']",1,"left","['0']",6,0.317042399999991,0.1,0,"FastFast",1,18,"Woman","Right",NA,1,TRUE,TRUE,TRUE,TRUE
17,4,1,1.08353220000004,"['n']",1,"right","['0']",6,0.266988500000025,0.2,0,"FastFast",1,18,"Woman","Right",NA,1,TRUE,TRUE,TRUE,TRUE
18,4,1,0.866558000000168,"['c']",1,"left","['0']",6,0.217292799999996,0.2,0,"FastFast",1,18,"Woman","Right",NA,1,TRUE,TRUE,TRUE,TRUE
19,4,1,1.06715829999985,"['n']",1,"right","['0']",6,0.317089099999976,0.2,0,"FastFast",1,18,"Woman","Right",NA,1,TRUE,TRUE,TRUE,TRUE
20,4,1,0.966965200000004,"['c']",1,"left","['0']",6,0.183783699999822,0.1,0,"FastFast",1,18,"Woman","Right",NA,1,TRUE,TRUE,TRUE,TRUE
21,4,1,1.56724450000002,"['n']",1,"right","['1']",1,0.816892699999926,0.1,0,"FastFast",1,18,"Woman","Right",NA,1,TRUE,TRUE,TRUE,TRUE
22,4,1,1.00008819999994,"['c']",0,"right","['0']",6,0.267087400000037,0.1,0,"FastFast",1,18,"Woman","Right",NA,1,TRUE,TRUE,TRUE,TRUE
23,4,1,0.767213399999946,"['c']",1,"left","['0']",6,0.25038440000003,0.1,0,"FastFast",1,18,"Woman","Right",NA,1,TRUE,TRUE,TRUE,TRUE
24,4,1,0.43309690000001,"['n']",1,"right","['0']",6,0.233917999999903,0.4,0,"FastFast",1,18,"Woman","Right",NA,1,TRUE,TRUE,TRUE,TRUE
25,4,1,0.666832800000066,"['c']",1,"left","['0']",6,0.167125799999894,0.4,0,"FastFast",1,18,"Woman","Right",NA,1,TRUE,TRUE,TRUE,TRUE
26,4,1,0.516448600000103,"['c']",1,"left","['0']",6,0.183804000000009,0.2,0,"FastFast",1,18,"Woman","Right",NA,1,TRUE,TRUE,TRUE,TRUE
27,4,1,0.633905200000072,"['c']",1,"left","['0']",6,0.167198899999903,0.2,0,"FastFast",1,18,"Woman","Right",NA,1,TRUE,TRUE,TRUE,TRUE
28,4,1,0.76691320000009,"['c']",1,"left","['0']",6,0.13411740000015,0.2,0,"FastFast",1,18,"Woman","Right",NA,1,TRUE,TRUE,TRUE,TRUE
29,4,1,0.950225700000146,"['n']",1,"right","['0']",6,0.217226900000014,0.2,0,"FastFast",1,18,"Woman","Right",NA,1,TRUE,TRUE,TRUE,TRUE
30,4,1,2.28378369999996,"['c']",0,"right","['2']",2,0.483635199999981,0.1,0,"FastFast",1,18,"Woman","Right",NA,1,TRUE,TRUE,TRUE,TRUE
31,4,1,0.733398299999863,"['c']",1,"left","['0']",6,0.500532799999974,0.2,0,"FastFast",1,18,"Woman","Right",NA,1,TRUE,TRUE,TRUE,TRUE
32,4,1,0.866614100000106,"['c']",1,"left","['0']",6,0.217015700000047,0.4,0,"FastFast",1,18,"Woman","Right",NA,1,TRUE,TRUE,TRUE,TRUE
33,4,1,0.915740099999994,"['n']",1,"right","['0']",6,0.283742699999948,0.4,0,"FastFast",1,18,"Woman","Right",NA,1,TRUE,TRUE,TRUE,TRUE
34,4,1,0.549113199999965,"['c']",1,"left","['0']",6,0.250692200000003,0.1,0,"FastFast",1,18,"Woman","Right",NA,1,TRUE,TRUE,TRUE,TRUE
35,4,1,0.866625499999827,"['n']",1,"right","['0']",6,0.283870100000058,0.4,0,"FastFast",1,18,"Woman","Right",NA,1,TRUE,TRUE,TRUE,TRUE
36,4,1,0.666598199999953,"['c']",1,"left","['0']",6,0.200467500000059,0.2,0,"FastFast",1,18,"Woman","Right",NA,1,TRUE,TRUE,TRUE,TRUE
37,4,1,0.633380999999872,"['c']",1,"left","['0']",6,0.250444100000095,0.2,0,"FastFast",1,18,"Woman","Right",NA,1,TRUE,TRUE,TRUE,TRUE
38,4,1,0.583935399999973,"['c']",1,"left","['0']",6,0.200302700000066,0.4,0,"FastFast",1,18,"Woman","Right",NA,1,TRUE,TRUE,TRUE,TRUE
39,4,1,0.61726920000001,"['c']",1,"left","['0']",6,0.200975499999913,0.2,0,"FastFast",1,18,"Woman","Right",NA,1,TRUE,TRUE,TRUE,TRUE
40,4,1,0.833388000000014,"['n']",1,"right","['0']",6,0.233934999999974,0.2,0,"FastFast",1,18,"Woman","Right",NA,1,TRUE,TRUE,TRUE,TRUE
41,4,1,1.28406459999997,"['n']",1,"right","['0']",6,0.216885999999931,0.4,0,"FastFast",1,18,"Woman","Right",NA,1,TRUE,TRUE,TRUE,TRUE
42,4,1,1.36635000000001,"['c']",0,"right","['2']",2,0.950579999999945,0.4,0,"FastFast",1,18,"Woman","Right",NA,1,TRUE,TRUE,TRUE,TRUE
43,4,1,1.21599309999988,"['n']",1,"right","['2']",2,0.583971900000051,0.1,0,"FastFast",1,18,"Woman","Right",NA,1,TRUE,TRUE,TRUE,TRUE
44,4,1,1.63438960000008,"['n']",1,"right","['3']",3,0.95040670000003,0.2,0,"FastFast",1,18,"Woman","Right",NA,1,TRUE,TRUE,TRUE,TRUE
45,4,1,0.783378699999957,"['n']",1,"right","['0']",6,0.317245800000137,0.4,0,"FastFast",1,18,"Woman","Right",NA,1,TRUE,TRUE,TRUE,TRUE
46,4,1,0.58290020000004,"['c']",1,"left","['0']",6,0.233617100000174,0.1,0,"FastFast",1,18,"Woman","Right",NA,1,TRUE,TRUE,TRUE,TRUE
47,4,1,0.767570599999999,"['c']",1,"left","['0']",6,0.216999900000019,0.2,0,"FastFast",1,18,"Woman","Right",NA,1,TRUE,TRUE,TRUE,TRUE
48,4,1,0.534176200000047,"['c']",1,"left","['0']",6,0.217179299999998,0.4,0,"FastFast",1,18,"Woman","Right",NA,1,TRUE,TRUE,TRUE,TRUE
49,4,1,0.81693509999991,"['c']",1,"left","['0']",6,0.333875099999887,0.4,0,"FastFast",1,18,"Woman","Right",NA,1,TRUE,TRUE,TRUE,TRUE
50,4,1,0.817123200000196,"['n']",1,"right","['0']",6,0.200363200000083,0.4,0,"FastFast",1,18,"Woman","Right",NA,1,TRUE,TRUE,TRUE,TRUE
51,4,1,0.651055600000063,"['c']",0,"right","['0']",6,0.167276799999854,0.1,0,"FastFast",1,18,"Woman","Right",NA,1,TRUE,TRUE,TRUE,TRUE
52,4,1,0.684607400000004,"['n']",1,"right","['0']",6,0.200362300000052,0.4,0,"FastFast",1,18,"Woman","Right",NA,1,TRUE,TRUE,TRUE,TRUE
53,4,1,0.567015399999946,"['c']",0,"right","['0']",6,0.200607099999843,0.2,0,"FastFast",1,18,"Woman","Right",NA,1,TRUE,TRUE,TRUE,TRUE
54,4,1,0.500253899999962,"['c']",1,"left","['0']",6,0.200423900000033,0.4,0,"FastFast",1,18,"Woman","Right",NA,1,TRUE,TRUE,TRUE,TRUE
55,4,1,0.600284900000133,"['c']",1,"left","['0']",6,0.15041159999987,0.4,0,"FastFast",1,18,"Woman","Right",NA,1,TRUE,TRUE,TRUE,TRUE
56,4,1,0.85059810000007,"['n']",1,"right","['0']",6,0.217262899999923,0.2,0,"FastFast",1,18,"Woman","Right",NA,1,TRUE,TRUE,TRUE,TRUE
57,4,1,0.634441200000083,"['c']",1,"left","['0']",6,0.20054029999983,0.1,0,"FastFast",1,18,"Woman","Right",NA,1,TRUE,TRUE,TRUE,TRUE
58,4,1,0.516839499999833,"['c']",0,"right","['0']",6,0.150728000000072,0.1,0,"FastFast",1,18,"Woman","Right",NA,1,TRUE,TRUE,TRUE,TRUE
59,4,1,0.449463400000013,"['c']",1,"left","['0']",6,0.150630099999944,0.4,0,"FastFast",1,18,"Woman","Right",NA,1,TRUE,TRUE,TRUE,TRUE
0,5,1,2.56754760000013,"['c']",1,"left","['0']",6,0.250354799999968,0.1,0,"AccFast",1,18,"Woman","Right",NA,1,TRUE,TRUE,TRUE,TRUE
1,5,1,1.70015479999984,"['c']",1,"left","['0']",6,0.100541400000111,0.4,0,"AccFast",1,18,"Woman","Right",NA,1,TRUE,TRUE,TRUE,TRUE
2,5,1,1.80003799999986,"['c']",1,"left","['9']",5,0.56726679999997,0.1,0,"AccFast",1,18,"Woman","Right",NA,1,TRUE,TRUE,TRUE,TRUE
3,5,1,2.71745099999998,"['n']",1,"right","['8']",4,0.617376400000012,0.2,0,"AccFast",1,18,"Woman","Right",NA,1,TRUE,TRUE,TRUE,TRUE
4,5,1,1.71686190000014,"['c']",0,"right","['3']",3,0.983883900000137,0.1,0,"AccFast",1,18,"Woman","Right",NA,1,TRUE,TRUE,TRUE,TRUE
5,5,1,1.40111210000009,"['n']",1,"right","['8']",4,0.566925900000115,0.1,0,"AccFast",1,18,"Woman","Right",NA,1,TRUE,TRUE,TRUE,TRUE
6,5,1,1.04982810000001,"['c']",1,"left","['0']",6,0.183850200000052,0.2,0,"AccFast",1,18,"Woman","Right",NA,1,TRUE,TRUE,TRUE,TRUE
7,5,1,1.48377949999986,"['c']",1,"left","['0']",6,0.267532699999947,0.4,0,"AccFast",1,18,"Woman","Right",NA,1,TRUE,TRUE,TRUE,TRUE
8,5,1,4.00026989999992,"['c']",0,"right","['1']",1,0.417431199999783,0.1,0,"AccFast",1,18,"Woman","Right",NA,1,TRUE,TRUE,TRUE,TRUE
9,5,1,2.61660600000005,"['c']",0,"right","['3']",3,0.833908900000097,0.2,0,"AccFast",1,18,"Woman","Right",NA,1,TRUE,TRUE,TRUE,TRUE
10,5,1,3.18421069999999,"['c']",1,"left","['3']",3,0.583862599999975,0.1,0,"AccFast",1,18,"Woman","Right",NA,1,TRUE,TRUE,TRUE,TRUE
11,5,1,1.58394110000017,"['n']",1,"right","['8']",4,0.484255999999959,0.2,0,"AccFast",1,18,"Woman","Right",NA,1,TRUE,TRUE,TRUE,TRUE
12,5,1,1.38374299999987,"['c']",1,"left","['0']",6,0.833900200000016,0.4,0,"AccFast",1,18,"Woman","Right",NA,1,TRUE,TRUE,TRUE,TRUE
13,5,1,2.0162836999998,"['n']",1,"right","['9']",5,0.283838199999991,0.2,0,"AccFast",1,18,"Woman","Right",NA,1,TRUE,TRUE,TRUE,TRUE
14,5,1,1.2336292,"['n']",1,"right","['0']",6,0.633585100000118,0.4,0,"AccFast",1,18,"Woman","Right",NA,1,TRUE,TRUE,TRUE,TRUE
15,5,1,1.10081250000007,"['c']",1,"left","['0']",6,0.283835199999885,0.4,0,"AccFast",1,18,"Woman","Right",NA,1,TRUE,TRUE,TRUE,TRUE
16,5,1,4.18271819999995,"['n']",0,"left","['8']",4,0.400570699999889,0.1,0,"AccFast",1,18,"Woman","Right",NA,1,TRUE,TRUE,TRUE,TRUE
17,5,1,1.43379679999998,"['n']",1,"right","['0']",6,0.217215300000134,0.4,0,"AccFast",1,18,"Woman","Right",NA,1,TRUE,TRUE,TRUE,TRUE
18,5,1,1.48382469999979,"['c']",1,"left","['0']",6,0.217029799999864,0.4,0,"AccFast",1,18,"Woman","Right",NA,1,TRUE,TRUE,TRUE,TRUE
19,5,1,2.25049119999994,"['c']",1,"left","['8']",4,0.6003611000001,0.2,0,"AccFast",1,18,"Woman","Right",NA,1,TRUE,TRUE,TRUE,TRUE
20,5,1,2.78328379999994,"['n']",1,"right","['1']",1,0.317318500000056,0.2,0,"AccFast",1,18,"Woman","Right",NA,1,TRUE,TRUE,TRUE,TRUE
21,5,1,1.48338239999998,"['c']",1,"left","['0']",6,0.367152099999885,0.4,0,"AccFast",1,18,"Woman","Right",NA,1,TRUE,TRUE,TRUE,TRUE
23,5,1,1.65075019999995,"['n']",1,"right","['3']",3,1.56720800000016,0.1,0,"AccFast",1,18,"Woman","Right",NA,1,TRUE,TRUE,TRUE,TRUE
24,5,1,1.66682779999996,"['n']",1,"right","['9']",5,0.683957200000123,0.4,0,"AccFast",1,18,"Woman","Right",NA,1,TRUE,TRUE,TRUE,TRUE
25,5,1,1.61700939999992,"['c']",1,"left","['0']",6,0.400309500000049,0.2,0,"AccFast",1,18,"Woman","Right",NA,1,TRUE,TRUE,TRUE,TRUE
26,5,1,4.2509207999999,"['c']",1,"left","['2']",2,0.733951899999965,0.1,0,"AccFast",1,18,"Woman","Right",NA,1,TRUE,TRUE,TRUE,TRUE
27,5,1,0.967204699999911,"['n']",1,"right","['0']",6,0.300630799999908,0.4,0,"AccFast",1,18,"Woman","Right",NA,1,TRUE,TRUE,TRUE,TRUE
28,5,1,0.900110599999834,"['c']",1,"left","['0']",6,0.167154900000014,0.4,0,"AccFast",1,18,"Woman","Right",NA,1,TRUE,TRUE,TRUE,TRUE
29,5,1,1.18335990000014,"['n']",1,"right","['0']",6,0.167346100000032,0.2,0,"AccFast",1,18,"Woman","Right",NA,1,TRUE,TRUE,TRUE,TRUE
30,5,1,2.36604890000012,"['n']",1,"right","['8']",4,0.650488300000006,0.2,0,"AccFast",1,18,"Woman","Right",NA,1,TRUE,TRUE,TRUE,TRUE
31,5,1,2.58350689999997,"['c']",1,"left","['2']",2,0.600710199999867,0.1,0,"AccFast",1,18,"Woman","Right",NA,1,TRUE,TRUE,TRUE,TRUE
32,5,1,0.749977000000172,"['n']",1,"right","['0']",6,0.234282699999994,0.4,0,"AccFast",1,18,"Woman","Right",NA,1,TRUE,TRUE,TRUE,TRUE
33,5,1,2.46656510000003,"['c']",0,"right","['8']",4,1.1504225000001,0.2,0,"AccFast",1,18,"Woman","Right",NA,1,TRUE,TRUE,TRUE,TRUE
34,5,1,0.749311000000034,"['n']",1,"right","['0']",6,0.367210300000124,0.4,0,"AccFast",1,18,"Woman","Right",NA,1,TRUE,TRUE,TRUE,TRUE
35,5,1,0.917177100000117,"['c']",1,"left","['0']",6,0.55072210000003,0.2,0,"AccFast",1,18,"Woman","Right",NA,1,TRUE,TRUE,TRUE,TRUE
36,5,1,2.08273829999985,"['n']",0,"left","['8']",4,1.35053420000008,0.1,0,"AccFast",1,18,"Woman","Right",NA,1,TRUE,TRUE,TRUE,TRUE
37,5,1,1.01598990000002,"['n']",1,"right","['0']",6,0.183796099999881,0.2,0,"AccFast",1,18,"Woman","Right",NA,1,TRUE,TRUE,TRUE,TRUE
38,5,1,0.766689099999894,"['n']",1,"right","['0']",6,0.217195200000106,0.4,0,"AccFast",1,18,"Woman","Right",NA,1,TRUE,TRUE,TRUE,TRUE
39,5,1,0.850167700000156,"['c']",1,"left","['0']",6,0.150727700000061,0.2,0,"AccFast",1,18,"Woman","Right",NA,1,TRUE,TRUE,TRUE,TRUE
40,5,1,1.26615349999997,"['c']",1,"left","['0']",6,0.167144000000008,0.2,0,"AccFast",1,18,"Woman","Right",NA,1,TRUE,TRUE,TRUE,TRUE
41,5,1,1.23374660000013,"['c']",1,"left","['3']",3,2.16710699999999,0.1,0,"AccFast",1,18,"Woman","Right",NA,1,TRUE,TRUE,TRUE,TRUE
42,5,1,0.801113900000018,"['c']",1,"left","['0']",6,0.133646100000078,0.4,0,"AccFast",1,18,"Woman","Right",NA,1,TRUE,TRUE,TRUE,TRUE
43,5,1,1.30020660000014,"['c']",0,"right","['0']",6,0.200451500000099,0.1,0,"AccFast",1,18,"Woman","Right",NA,1,TRUE,TRUE,TRUE,TRUE
44,5,1,0.801194500000065,"['c']",1,"left","['0']",6,0.167249200000015,0.2,0,"AccFast",1,18,"Woman","Right",NA,1,TRUE,TRUE,TRUE,TRUE
45,5,1,0.900286199999982,"['n']",1,"right","['0']",6,0.200604900000144,0.4,0,"AccFast",1,18,"Woman","Right",NA,1,TRUE,TRUE,TRUE,TRUE
46,5,1,0.583434399999987,"['c']",1,"left","['0']",6,0.200201800000059,0.1,0,"AccFast",1,18,"Woman","Right",NA,1,TRUE,TRUE,TRUE,TRUE
47,5,1,0.966661499999873,"['n']",1,"right","['0']",6,0.200189500000079,0.2,0,"AccFast",1,18,"Woman","Right",NA,1,TRUE,TRUE,TRUE,TRUE
48,5,1,0.465895900000078,"['c']",1,"left","['0']",6,0.217488899999807,0.4,0,"AccFast",1,18,"Woman","Right",NA,1,TRUE,TRUE,TRUE,TRUE
49,5,1,0.816986499999985,"['n']",1,"right","['0']",6,0.217038699999875,0.4,0,"AccFast",1,18,"Woman","Right",NA,1,TRUE,TRUE,TRUE,TRUE
50,5,1,1.2335415,"['c']",0,"right","['9']",5,0.617090599999983,0.1,0,"AccFast",1,18,"Woman","Right",NA,1,TRUE,TRUE,TRUE,TRUE
51,5,1,0.633142300000145,"['c']",1,"left","['0']",6,0.217182999999977,0.4,0,"AccFast",1,18,"Woman","Right",NA,1,TRUE,TRUE,TRUE,TRUE
52,5,1,0.716630399999985,"['c']",1,"left","['0']",6,0.167242699999861,0.2,0,"AccFast",1,18,"Woman","Right",NA,1,TRUE,TRUE,TRUE,TRUE
53,5,1,1.65074630000004,"['c']",1,"left","['8']",4,0.984072200000128,0.1,0,"AccFast",1,18,"Woman","Right",NA,1,TRUE,TRUE,TRUE,TRUE
54,5,1,1.7836734,"['c']",0,"right","['3']",3,0.450501300000042,0.1,0,"AccFast",1,18,"Woman","Right",NA,1,TRUE,TRUE,TRUE,TRUE
55,5,1,1.14977019999992,"['c']",1,"left","['0']",6,0.350574099999903,0.4,0,"AccFast",1,18,"Woman","Right",NA,1,TRUE,TRUE,TRUE,TRUE
56,5,1,0.833497000000079,"['c']",0,"right","['0']",6,0.183815199999799,0.1,0,"AccFast",1,18,"Woman","Right",NA,1,TRUE,TRUE,TRUE,TRUE
57,5,1,2.11570660000007,"['n']",1,"right","['8']",4,1.15036329999998,0.2,0,"AccFast",1,18,"Woman","Right",NA,1,TRUE,TRUE,TRUE,TRUE
58,5,1,2.33355719999986,"['n']",1,"right","['3']",3,0.617505800000117,0.2,0,"AccFast",1,18,"Woman","Right",NA,1,TRUE,TRUE,TRUE,TRUE
59,5,1,0.999420299999883,"['c']",1,"left","['0']",6,0.200516800000059,0.1,0,"AccFast",1,18,"Woman","Right",NA,1,TRUE,TRUE,TRUE,TRUE
0,6,1,1.81623160000004,"['c']",1,"left","['0']",6,0.36716750000005,0.2,0,"AccAcc",1,18,"Woman","Right",NA,1,TRUE,TRUE,TRUE,TRUE
1,6,1,1.56634829999985,"['c']",0,"right","['0']",6,0.433839600000056,0.1,0,"AccAcc",1,18,"Woman","Right",NA,1,TRUE,TRUE,TRUE,TRUE
2,6,1,2.99945300000013,"['n']",1,"right","['0']",6,0.400506799999903,0.4,0,"AccAcc",1,18,"Woman","Right",NA,1,TRUE,TRUE,TRUE,TRUE
3,6,1,1.53308300000003,"['n']",1,"right","['9']",5,1.10051899999985,0.2,0,"AccAcc",1,18,"Woman","Right",NA,1,TRUE,TRUE,TRUE,TRUE
4,6,1,1.04931609999994,"['c']",1,"left","['0']",6,0.73385559999997,0.1,0,"AccAcc",1,18,"Woman","Right",NA,1,TRUE,TRUE,TRUE,TRUE
5,6,1,1.43293879999987,"['c']",1,"left","['0']",6,0.283895399999892,0.2,0,"AccAcc",1,18,"Woman","Right",NA,1,TRUE,TRUE,TRUE,TRUE
6,6,1,1.0991441000001,"['n']",1,"right","['0']",6,0.3837853,0.4,0,"AccAcc",1,18,"Woman","Right",NA,1,TRUE,TRUE,TRUE,TRUE
7,6,1,1.31624349999993,"['n']",1,"right","['0']",6,0.450618500000019,0.2,0,"AccAcc",1,18,"Woman","Right",NA,1,TRUE,TRUE,TRUE,TRUE
8,6,1,0.932301099999904,"['c']",1,"left","['0']",6,0.46715949999998,0.2,0,"AccAcc",1,18,"Woman","Right",NA,1,TRUE,TRUE,TRUE,TRUE
9,6,1,0.982213300000012,"['n']",1,"right","['0']",6,0.300546499999882,0.4,0,"AccAcc",1,18,"Woman","Right",NA,1,TRUE,TRUE,TRUE,TRUE
10,6,1,1.19979610000019,"['c']",1,"left","['0']",6,0.517138800000112,0.4,0,"AccAcc",1,18,"Woman","Right",NA,1,TRUE,TRUE,TRUE,TRUE
11,6,1,1.63349790000007,"['n']",1,"right","['0']",6,0.334417599999824,0.2,0,"AccAcc",1,18,"Woman","Right",NA,1,TRUE,TRUE,TRUE,TRUE
12,6,1,0.832385700000032,"['n']",1,"right","['0']",6,0.317175500000076,0.4,0,"AccAcc",1,18,"Woman","Right",NA,1,TRUE,TRUE,TRUE,TRUE
13,6,1,0.950266200000215,"['n']",1,"right","['0']",6,0.367232800000011,0.4,0,"AccAcc",1,18,"Woman","Right",NA,1,TRUE,TRUE,TRUE,TRUE
14,6,1,1.43325550000009,"['n']",1,"right","['0']",6,0.850490399999899,0.2,0,"AccAcc",1,18,"Woman","Right",NA,1,TRUE,TRUE,TRUE,TRUE
15,6,1,1.28275830000007,"['c']",1,"left","['0']",6,0.250426500000003,0.4,0,"AccAcc",1,18,"Woman","Right",NA,1,TRUE,TRUE,TRUE,TRUE
16,6,1,1.18200390000015,"['n']",1,"right","['0']",6,0.350571299999956,0.1,0,"AccAcc",1,18,"Woman","Right",NA,1,TRUE,TRUE,TRUE,TRUE
17,6,1,0.999501900000041,"['n']",1,"right","['0']",6,0.333835199999839,0.2,0,"AccAcc",1,18,"Woman","Right",NA,1,TRUE,TRUE,TRUE,TRUE
18,6,1,1.11644960000012,"['n']",1,"right","['0']",6,0.400514500000099,0.1,0,"AccAcc",1,18,"Woman","Right",NA,1,TRUE,TRUE,TRUE,TRUE
19,6,1,1.48308580000003,"['n']",0,"left","['8']",4,1.13387349999994,0.1,0,"AccAcc",1,18,"Woman","Right",NA,1,TRUE,TRUE,TRUE,TRUE
20,6,1,1.46638039999993,"['c']",1,"left","['0']",6,0.400493800000049,0.4,0,"AccAcc",1,18,"Woman","Right",NA,1,TRUE,TRUE,TRUE,TRUE
21,6,1,1.23293280000007,"['n']",1,"right","['9']",5,0.467102299999851,0.1,0,"AccAcc",1,18,"Woman","Right",NA,1,TRUE,TRUE,TRUE,TRUE
22,6,1,0.732664200000045,"['n']",1,"right","['0']",6,0.45045970000001,0.4,0,"AccAcc",1,18,"Woman","Right",NA,1,TRUE,TRUE,TRUE,TRUE
23,6,1,1.68224699999996,"['c']",1,"left","['0']",6,0.283840099999907,0.1,0,"AccAcc",1,18,"Woman","Right",NA,1,TRUE,TRUE,TRUE,TRUE
24,6,1,0.965982100000019,"['n']",1,"right","['0']",6,0.883918400000084,0.1,0,"AccAcc",1,18,"Woman","Right",NA,1,TRUE,TRUE,TRUE,TRUE
25,6,1,1.0995598999998,"['n']",1,"right","['9']",5,0.467116699999906,0.2,0,"AccAcc",1,18,"Woman","Right",NA,1,TRUE,TRUE,TRUE,TRUE
26,6,1,0.732522100000097,"['c']",1,"left","['0']",6,1.65054579999992,0.4,0,"AccAcc",1,18,"Woman","Right",NA,1,TRUE,TRUE,TRUE,TRUE
27,6,1,1.11597889999985,"['n']",1,"right","['0']",6,0.767191099999991,0.1,0,"AccAcc",1,18,"Woman","Right",NA,1,TRUE,TRUE,TRUE,TRUE
28,6,1,3.98319910000009,"['c']",1,"left","['3']",3,1.36718459999997,0.1,0,"AccAcc",1,18,"Woman","Right",NA,1,TRUE,TRUE,TRUE,TRUE
29,6,1,1.01543130000005,"['n']",1,"right","['0']",6,0.733895200000006,0.2,0,"AccAcc",1,18,"Woman","Right",NA,1,TRUE,TRUE,TRUE,TRUE
30,6,1,0.698884599999928,"['c']",1,"left","['0']",6,0.233734700000014,0.4,0,"AccAcc",1,18,"Woman","Right",NA,1,TRUE,TRUE,TRUE,TRUE
31,6,1,2.01500479999982,"['c']",1,"left","['3']",3,1.06722260000015,0.1,0,"AccAcc",1,18,"Woman","Right",NA,1,TRUE,TRUE,TRUE,TRUE
32,6,1,1.83360400000015,"['n']",1,"right","['0']",6,0.58386859999996,0.1,0,"AccAcc",1,18,"Woman","Right",NA,1,TRUE,TRUE,TRUE,TRUE
33,6,1,2.15009770000006,"['n']",1,"right","['3']",3,1.28390530000001,0.1,0,"AccAcc",1,18,"Woman","Right",NA,1,TRUE,TRUE,TRUE,TRUE
34,6,1,3.11631279999983,"['c']",0,"right","['2']",2,1.08390420000001,0.1,0,"AccAcc",1,18,"Woman","Right",NA,1,TRUE,TRUE,TRUE,TRUE
35,6,1,1.13281449999999,"['c']",1,"left","['0']",6,0.233860399999912,0.4,0,"AccAcc",1,18,"Woman","Right",NA,1,TRUE,TRUE,TRUE,TRUE
36,6,1,2.54954399999997,"['n']",1,"right","['0']",6,0.767193899999938,0.4,0,"AccAcc",1,18,"Woman","Right",NA,1,TRUE,TRUE,TRUE,TRUE
37,6,1,2.5485113000002,"['c']",1,"left","['2']",2,0.717268300000114,0.2,0,"AccAcc",1,18,"Woman","Right",NA,1,TRUE,TRUE,TRUE,TRUE
38,6,1,1.29979060000005,"['n']",1,"right","['0']",6,0.500519499999882,0.4,0,"AccAcc",1,18,"Woman","Right",NA,1,TRUE,TRUE,TRUE,TRUE
39,6,1,3.76610529999994,"['c']",0,"right","['2']",2,0.700546900000063,0.2,0,"AccAcc",1,18,"Woman","Right",NA,1,TRUE,TRUE,TRUE,TRUE
40,6,1,3.09962070000006,"['n']",0,"left","['2']",2,0.583814099999927,0.1,0,"AccAcc",1,18,"Woman","Right",NA,1,TRUE,TRUE,TRUE,TRUE
41,6,1,3.63291619999995,"['n']",0,"left","['1']",1,0.500801799999863,0.2,0,"AccAcc",1,18,"Woman","Right",NA,1,TRUE,TRUE,TRUE,TRUE
42,6,1,1.09909589999984,"['n']",1,"right","['0']",6,0.267288800000188,0.4,0,"AccAcc",1,18,"Woman","Right",NA,1,TRUE,TRUE,TRUE,TRUE
43,6,1,1.15002079999999,"['c']",1,"left","['0']",6,0.75047840000002,0.4,0,"AccAcc",1,18,"Woman","Right",NA,1,TRUE,TRUE,TRUE,TRUE
44,6,1,2.08276109999997,"['n']",1,"right","['3']",3,1.23389539999994,0.1,0,"AccAcc",1,18,"Woman","Right",NA,1,TRUE,TRUE,TRUE,TRUE
45,6,1,3.58286739999994,"['c']",1,"left","['2']",2,0.70036499999992,0.1,0,"AccAcc",1,18,"Woman","Right",NA,1,TRUE,TRUE,TRUE,TRUE
46,6,1,3.05055849999985,"['c']",0,"right","['2']",2,0.767207100000178,0.1,0,"AccAcc",1,18,"Woman","Right",NA,1,TRUE,TRUE,TRUE,TRUE
47,6,1,1.66617280000014,"['c']",1,"left","['2']",2,0.600611699999945,0.2,0,"AccAcc",1,18,"Woman","Right",NA,1,TRUE,TRUE,TRUE,TRUE
48,6,1,1.09874500000001,"['c']",0,"right","['1']",1,0.31721379999999,0.2,0,"AccAcc",1,18,"Woman","Right",NA,1,TRUE,TRUE,TRUE,TRUE
49,6,1,1.21629819999998,"['c']",1,"left","['0']",6,0.283513900000116,0.2,0,"AccAcc",1,18,"Woman","Right",NA,1,TRUE,TRUE,TRUE,TRUE
50,6,1,1.63304259999995,"['c']",1,"left","['0']",6,0.284122999999909,0.4,0,"AccAcc",1,18,"Woman","Right",NA,1,TRUE,TRUE,TRUE,TRUE
51,6,1,4.71627239999998,"['c']",0,"right","['3']",3,0.700572800000145,0.1,0,"AccAcc",1,18,"Woman","Right",NA,1,TRUE,TRUE,TRUE,TRUE
52,6,1,1.29882569999995,"['c']",1,"left","['0']",6,0.233884799999942,0.4,0,"AccAcc",1,18,"Woman","Right",NA,1,TRUE,TRUE,TRUE,TRUE
53,6,1,2.46619559999999,"['c']",1,"left","['0']",6,0.150429999999915,0.4,0,"AccAcc",1,18,"Woman","Right",NA,1,TRUE,TRUE,TRUE,TRUE
54,6,1,3.0993246999999,"['n']",0,"left","['2']",2,0.63421459999995,0.1,0,"AccAcc",1,18,"Woman","Right",NA,1,TRUE,TRUE,TRUE,TRUE
55,6,1,1.55005830000005,"['c']",1,"left","['8']",4,1.28371119999997,0.2,0,"AccAcc",1,18,"Woman","Right",NA,1,TRUE,TRUE,TRUE,TRUE
56,6,1,0.916397399999823,"['c']",1,"left","['0']",6,0.283922500000017,0.4,0,"AccAcc",1,18,"Woman","Right",NA,1,TRUE,TRUE,TRUE,TRUE
57,6,1,1.36620310000012,"['c']",1,"left","['0']",6,0.417172800000117,0.2,0,"AccAcc",1,18,"Woman","Right",NA,1,TRUE,TRUE,TRUE,TRUE
58,6,1,1.08258009999986,"['c']",1,"left","['0']",6,0.283830200000011,0.2,0,"AccAcc",1,18,"Woman","Right",NA,1,TRUE,TRUE,TRUE,TRUE
59,6,1,3.39954360000002,"['c']",1,"left","['8']",4,1.08377589999986,0.2,0,"AccAcc",1,18,"Woman","Right",NA,1,TRUE,TRUE,TRUE,TRUE
0,7,1,0.833124399999861,"['c']",1,"left","['0']",6,2.30058809999991,0.4,0,"FastAcc",1,18,"Woman","Right",NA,1,TRUE,TRUE,TRUE,TRUE
1,7,1,0.599985199999992,"['c']",1,"left","['0']",6,0.283977299999833,0.1,0,"FastAcc",1,18,"Woman","Right",NA,1,TRUE,TRUE,TRUE,TRUE
2,7,1,0.915551300000061,"['n']",1,"right","['0']",6,0.400632999999971,0.4,0,"FastAcc",1,18,"Woman","Right",NA,1,TRUE,TRUE,TRUE,TRUE
3,7,1,2.48346609999999,"['c']",0,"right","['2']",2,0.683844600000157,0.1,0,"FastAcc",1,18,"Woman","Right",NA,1,TRUE,TRUE,TRUE,TRUE
4,7,1,0.865357499999845,"['n']",1,"right","['2']",2,1.20110009999985,0.1,0,"FastAcc",1,18,"Woman","Right",NA,1,TRUE,TRUE,TRUE,TRUE
5,7,1,0.948772700000063,"['c']",1,"left","['0']",6,0.250702199999978,0.4,0,"FastAcc",1,18,"Woman","Right",NA,1,TRUE,TRUE,TRUE,TRUE
6,7,1,0.682074199999988,"['n']",1,"right","['8']",4,0.883827200000042,0.2,0,"FastAcc",1,18,"Woman","Right",NA,1,TRUE,TRUE,TRUE,TRUE
7,7,1,0.682975500000111,"['c']",1,"left","['9']",5,0.850545600000032,0.4,0,"FastAcc",1,18,"Woman","Right",NA,1,TRUE,TRUE,TRUE,TRUE
8,7,1,0.665499100000034,"['c']",1,"left","['0']",6,1.2004644000001,0.4,0,"FastAcc",1,18,"Woman","Right",NA,1,TRUE,TRUE,TRUE,TRUE
9,7,1,0.983347999999978,"['n']",1,"right","['0']",6,0.317113899999867,0.1,0,"FastAcc",1,18,"Woman","Right",NA,1,TRUE,TRUE,TRUE,TRUE
10,7,1,0.599546099999998,"['c']",1,"left","['0']",6,0.484173600000076,0.4,0,"FastAcc",1,18,"Woman","Right",NA,1,TRUE,TRUE,TRUE,TRUE
11,7,1,1.38178910000011,"['n']",0,"left","['8']",4,1.33390039999995,0.1,0,"FastAcc",1,18,"Woman","Right",NA,1,TRUE,TRUE,TRUE,TRUE
12,7,1,0.816334500000039,"['n']",1,"right","['9']",5,0.80053050000015,0.2,0,"FastAcc",1,18,"Woman","Right",NA,1,TRUE,TRUE,TRUE,TRUE
13,7,1,0.866323699999839,"['c']",1,"left","['0']",6,0.950559399999975,0.2,0,"FastAcc",1,18,"Woman","Right",NA,1,TRUE,TRUE,TRUE,TRUE
14,7,1,0.550258200000144,"['n']",1,"right","['0']",6,0.384003399999983,0.1,0,"FastAcc",1,18,"Woman","Right",NA,1,TRUE,TRUE,TRUE,TRUE
15,7,1,0.73345479999989,"['n']",1,"right","['0']",6,0.800486600000113,0.4,0,"FastAcc",1,18,"Woman","Right",NA,1,TRUE,TRUE,TRUE,TRUE
16,7,1,1.69984260000001,"['n']",1,"right","['0']",6,0.400413600000093,0.2,0,"FastAcc",1,18,"Woman","Right",NA,1,TRUE,TRUE,TRUE,TRUE
17,7,1,0.649594399999842,"['n']",1,"right","['0']",6,0.283851700000014,0.2,0,"FastAcc",1,18,"Woman","Right",NA,1,TRUE,TRUE,TRUE,TRUE
18,7,1,0.598746099999971,"['n']",1,"right","['0']",6,0.300548200000094,0.2,0,"FastAcc",1,18,"Woman","Right",NA,1,TRUE,TRUE,TRUE,TRUE
19,7,1,0.783163300000069,"['n']",1,"right","['0']",6,0.450688200000059,0.2,0,"FastAcc",1,18,"Woman","Right",NA,1,TRUE,TRUE,TRUE,TRUE
20,7,1,0.717160500000091,"['n']",1,"right","['0']",6,0.5671233999999,0.4,0,"FastAcc",1,18,"Woman","Right",NA,1,TRUE,TRUE,TRUE,TRUE
21,7,1,0.766634999999951,"['n']",1,"right","['0']",6,0.350505399999975,0.4,0,"FastAcc",1,18,"Woman","Right",NA,1,TRUE,TRUE,TRUE,TRUE
22,7,1,0.599799400000165,"['c']",1,"left","['0']",6,0.483919600000036,0.4,0,"FastAcc",1,18,"Woman","Right",NA,1,TRUE,TRUE,TRUE,TRUE
23,7,1,1.23297869999988,"['n']",1,"right","['9']",5,0.783820099999957,0.1,0,"FastAcc",1,18,"Woman","Right",NA,1,TRUE,TRUE,TRUE,TRUE
24,7,1,1.96643949999998,"['n']",0,"left","['8']",4,0.950588799999878,0.1,0,"FastAcc",1,18,"Woman","Right",NA,1,TRUE,TRUE,TRUE,TRUE
25,7,1,2.20059659999993,"['n']",0,"left","['3']",3,1.01699559999997,0.2,0,"FastAcc",1,18,"Woman","Right",NA,1,TRUE,TRUE,TRUE,TRUE
26,7,1,0.833013900000196,"['n']",1,"right","['3']",3,0.700460300000032,0.2,0,"FastAcc",1,18,"Woman","Right",NA,1,TRUE,TRUE,TRUE,TRUE
27,7,1,0.865427599999975,"['n']",1,"right","['0']",6,0.233932099999947,0.2,0,"FastAcc",1,18,"Woman","Right",NA,1,TRUE,TRUE,TRUE,TRUE
28,7,1,1.63261750000015,"['n']",1,"right","['0']",6,0.867232999999942,0.1,0,"FastAcc",1,18,"Woman","Right",NA,1,TRUE,TRUE,TRUE,TRUE
29,7,1,0.933912899999996,"['n']",1,"right","['0']",6,0.550495200000114,0.4,0,"FastAcc",1,18,"Woman","Right",NA,1,TRUE,TRUE,TRUE,TRUE
30,7,1,1.29999810000004,"['n']",1,"right","['0']",6,1.01695549999999,0.1,0,"FastAcc",1,18,"Woman","Right",NA,1,TRUE,TRUE,TRUE,TRUE
31,7,1,0.932250899999872,"['n']",0,"left","['0']",6,0.750577599999815,0.1,0,"FastAcc",1,18,"Woman","Right",NA,1,TRUE,TRUE,TRUE,TRUE
32,7,1,1.56639160000009,"['c']",1,"left","['8']",4,1.85039219999999,0.2,0,"FastAcc",1,18,"Woman","Right",NA,1,TRUE,TRUE,TRUE,TRUE
33,7,1,1.94901989999994,"['c']",1,"left","['8']",4,1.1673844999998,0.4,0,"FastAcc",1,18,"Woman","Right",NA,1,TRUE,TRUE,TRUE,TRUE
34,7,1,1.09940729999994,"['n']",1,"right","['9']",5,1.38380839999991,0.1,0,"FastAcc",1,18,"Woman","Right",NA,1,TRUE,TRUE,TRUE,TRUE
35,7,1,3.21549579999987,"['c']",1,"left","['3']",3,2.68388950000008,0.2,0,"FastAcc",1,18,"Woman","Right",NA,1,TRUE,TRUE,TRUE,TRUE
36,7,1,1.06538610000007,"['n']",1,"right","['0']",6,0.733918099999983,0.4,0,"FastAcc",1,18,"Woman","Right",NA,1,TRUE,TRUE,TRUE,TRUE
37,7,1,1.60020240000017,"['c']",1,"left","['8']",4,1.06697719999988,0.1,0,"FastAcc",1,18,"Woman","Right",NA,1,TRUE,TRUE,TRUE,TRUE
38,7,1,1.59955680000007,"['c']",1,"left","['8']",4,2.60058479999998,0.1,0,"FastAcc",1,18,"Woman","Right",NA,1,TRUE,TRUE,TRUE,TRUE
39,7,1,0.749601900000016,"['n']",0,"left","['9']",5,0.900566400000116,0.1,0,"FastAcc",1,18,"Woman","Right",NA,1,TRUE,TRUE,TRUE,TRUE
40,7,1,2.29942410000012,"['n']",1,"right","['8']",4,1.58380979999993,0.1,0,"FastAcc",1,18,"Woman","Right",NA,1,TRUE,TRUE,TRUE,TRUE
41,7,1,0.567238300000099,"['c']",1,"left","['0']",6,0.633868999999777,0.4,0,"FastAcc",1,18,"Woman","Right",NA,1,TRUE,TRUE,TRUE,TRUE
42,7,1,0.63213020000012,"['n']",1,"right","['0']",6,0.33384550000028,0.4,0,"FastAcc",1,18,"Woman","Right",NA,1,TRUE,TRUE,TRUE,TRUE
43,7,1,0.566257699999824,"['c']",1,"left","['0']",6,0.283863499999825,0.4,0,"FastAcc",1,18,"Woman","Right",NA,1,TRUE,TRUE,TRUE,TRUE
44,7,1,1.14960939999992,"['n']",1,"right","['0']",6,0.284003000000212,0.2,0,"FastAcc",1,18,"Woman","Right",NA,1,TRUE,TRUE,TRUE,TRUE
45,7,1,2.91527059999999,"['n']",1,"right","['8']",4,2.10037430000011,0.2,0,"FastAcc",1,18,"Woman","Right",NA,1,TRUE,TRUE,TRUE,TRUE
46,7,1,0.516170700000202,"['c']",1,"left","['0']",6,0.317126500000086,0.2,0,"FastAcc",1,18,"Woman","Right",NA,1,TRUE,TRUE,TRUE,TRUE
47,7,1,0.532260899999983,"['c']",1,"left","['0']",6,0.217203799999879,0.4,0,"FastAcc",1,18,"Woman","Right",NA,1,TRUE,TRUE,TRUE,TRUE
48,7,1,1.88200800000004,"['c']",1,"left","['0']",6,0.167011199999706,0.2,0,"FastAcc",1,18,"Woman","Right",NA,1,TRUE,TRUE,TRUE,TRUE
49,7,1,1.9325272000001,"['c']",1,"left","['3']",3,1.35065720000011,0.4,0,"FastAcc",1,18,"Woman","Right",NA,1,TRUE,TRUE,TRUE,TRUE
50,7,1,0.632841200000257,"['c']",1,"left","['9']",5,1.83377260000043,0.4,0,"FastAcc",1,18,"Woman","Right",NA,1,TRUE,TRUE,TRUE,TRUE
51,7,1,0.648946000000251,"['c']",1,"left","['0']",6,0.3670603999999,0.2,0,"FastAcc",1,18,"Woman","Right",NA,1,TRUE,TRUE,TRUE,TRUE
52,7,1,1.14954960000023,"['n']",1,"right","['0']",6,0.367188400000032,0.2,0,"FastAcc",1,18,"Woman","Right",NA,1,TRUE,TRUE,TRUE,TRUE
53,7,1,0.849874,"['c']",1,"left","['0']",6,0.35042650000014,0.2,0,"FastAcc",1,18,"Woman","Right",NA,1,TRUE,TRUE,TRUE,TRUE
54,7,1,1.4328188999998,"['c']",1,"left","['0']",6,0.333752799999729,0.1,0,"FastAcc",1,18,"Woman","Right",NA,1,TRUE,TRUE,TRUE,TRUE
55,7,1,1.26547180000034,"['c']",0,"right","['9']",5,0.833832799999982,0.1,0,"FastAcc",1,18,"Woman","Right",NA,1,TRUE,TRUE,TRUE,TRUE
56,7,1,1.66635730000007,"['n']",1,"right","['2']",2,0.634046899999703,0.1,0,"FastAcc",1,18,"Woman","Right",NA,1,TRUE,TRUE,TRUE,TRUE
57,7,1,1.71539170000005,"['n']",1,"right","['3']",3,0.933914499999901,0.2,0,"FastAcc",1,18,"Woman","Right",NA,1,TRUE,TRUE,TRUE,TRUE
58,7,1,2.3835097000001,"['c']",1,"left","['3']",3,1.30052330000035,0.1,0,"FastAcc",1,18,"Woman","Right",NA,1,TRUE,TRUE,TRUE,TRUE
59,7,1,2.03289720000021,"['c']",1,"left","['9']",5,0.450504700000238,0.4,0,"FastAcc",1,18,"Woman","Right",NA,1,TRUE,TRUE,TRUE,TRUE
0,8,1,0.998998900000061,"['n']",1,"right","['9']",5,0.53401520000034,0.2,0,"FastFast",1,18,"Woman","Right",NA,1,TRUE,TRUE,TRUE,TRUE
1,8,1,0.89952889999995,"['n']",1,"right","['9']",5,0.350668500000211,0.2,0,"FastFast",1,18,"Woman","Right",NA,1,TRUE,TRUE,TRUE,TRUE
2,8,1,1.61630580000019,"['c']",0,"right","['1']",1,1.10046990000001,0.1,0,"FastFast",1,18,"Woman","Right",NA,1,TRUE,TRUE,TRUE,TRUE
3,8,1,2.09938509999984,"['n']",0,"left","['2']",2,0.367209300000013,0.1,0,"FastFast",1,18,"Woman","Right",NA,1,TRUE,TRUE,TRUE,TRUE
4,8,1,1.23323110000001,"['n']",1,"right","['0']",6,0.983907499999987,0.2,0,"FastFast",1,18,"Woman","Right",NA,1,TRUE,TRUE,TRUE,TRUE
5,8,1,1.29935250000017,"['n']",1,"right","['8']",4,0.433759500000178,0.1,0,"FastFast",1,18,"Woman","Right",NA,1,TRUE,TRUE,TRUE,TRUE
6,8,1,1.0994082000002,"['n']",1,"right","['2']",2,0.950549600000159,0.1,0,"FastFast",1,18,"Woman","Right",NA,1,TRUE,TRUE,TRUE,TRUE
7,8,1,1.33343409999998,"['c']",0,"right","['2']",2,0.483493200000339,0.1,0,"FastFast",1,18,"Woman","Right",NA,1,TRUE,TRUE,TRUE,TRUE
8,8,1,1.06704639999998,"['n']",0,"left","['9']",5,0.484054300000025,0.1,0,"FastFast",1,18,"Woman","Right",NA,1,TRUE,TRUE,TRUE,TRUE
9,8,1,1.23306580000008,"['c']",1,"left","['0']",6,0.333928900000046,0.4,0,"FastFast",1,18,"Woman","Right",NA,1,TRUE,TRUE,TRUE,TRUE
10,8,1,1.03264630000012,"['n']",1,"right","['2']",2,0.450445899999977,0.1,0,"FastFast",1,18,"Woman","Right",NA,1,TRUE,TRUE,TRUE,TRUE
11,8,1,0.782823600000029,"['c']",1,"left","['9']",5,0.300370699999803,0.2,0,"FastFast",1,18,"Woman","Right",NA,1,TRUE,TRUE,TRUE,TRUE
12,8,1,1.71629530000018,"['n']",0,"left","['9']",5,0.367089699999724,0.2,0,"FastFast",1,18,"Woman","Right",NA,1,TRUE,TRUE,TRUE,TRUE
13,8,1,1.1492917999999,"['n']",1,"right","['0']",6,0.250399600000037,0.2,0,"FastFast",1,18,"Woman","Right",NA,1,TRUE,TRUE,TRUE,TRUE
14,8,1,1.68252489999986,"['n']",1,"right","['0']",6,0.917317400000229,0.4,0,"FastFast",1,18,"Woman","Right",NA,1,TRUE,TRUE,TRUE,TRUE
15,8,1,1.11578970000028,"['n']",1,"right","['0']",6,0.217289600000186,0.4,0,"FastFast",1,18,"Woman","Right",NA,1,TRUE,TRUE,TRUE,TRUE
16,8,1,1.11633029999985,"['c']",1,"left","['0']",6,1.30079240000032,0.4,0,"FastFast",1,18,"Woman","Right",NA,1,TRUE,TRUE,TRUE,TRUE
17,8,1,0.982792199999949,"['n']",1,"right","['0']",6,0.183763500000168,0.4,0,"FastFast",1,18,"Woman","Right",NA,1,TRUE,TRUE,TRUE,TRUE
18,8,1,1.04970309999999,"['n']",1,"right","['0']",6,0.267176000000291,0.2,0,"FastFast",1,18,"Woman","Right",NA,1,TRUE,TRUE,TRUE,TRUE
19,8,1,0.683033099999648,"['c']",1,"left","['0']",6,0.317268199999944,0.2,0,"FastFast",1,18,"Woman","Right",NA,1,TRUE,TRUE,TRUE,TRUE
20,8,1,0.966702400000031,"['c']",0,"right","['1']",1,0.98392610000019,0.2,0,"FastFast",1,18,"Woman","Right",NA,1,TRUE,TRUE,TRUE,TRUE
21,8,1,0.899530099999993,"['c']",1,"left","['0']",6,0.233741399999872,0.4,0,"FastFast",1,18,"Woman","Right",NA,1,TRUE,TRUE,TRUE,TRUE
22,8,1,0.64943459999995,"['c']",1,"left","['0']",6,0.21708979999994,0.4,0,"FastFast",1,18,"Woman","Right",NA,1,TRUE,TRUE,TRUE,TRUE
23,8,1,0.533055399999739,"['c']",1,"left","['0']",6,0.233787099999972,0.4,0,"FastFast",1,18,"Woman","Right",NA,1,TRUE,TRUE,TRUE,TRUE
24,8,1,0.61634580000009,"['n']",1,"right","['0']",6,0.383804999999938,0.4,0,"FastFast",1,18,"Woman","Right",NA,1,TRUE,TRUE,TRUE,TRUE
25,8,1,0.733802600000217,"['c']",1,"left","['0']",6,0.333926300000257,0.2,0,"FastFast",1,18,"Woman","Right",NA,1,TRUE,TRUE,TRUE,TRUE
26,8,1,0.648824899999909,"['c']",1,"left","['0']",6,0.200445699999818,0.2,0,"FastFast",1,18,"Woman","Right",NA,1,TRUE,TRUE,TRUE,TRUE
27,8,1,0.616173599999911,"['c']",1,"left","['0']",6,0.150517699999909,0.4,0,"FastFast",1,18,"Woman","Right",NA,1,TRUE,TRUE,TRUE,TRUE
28,8,1,0.866233800000373,"['n']",1,"right","['0']",6,0.200454799999989,0.2,0,"FastFast",1,18,"Woman","Right",NA,1,TRUE,TRUE,TRUE,TRUE
29,8,1,0.665241499999865,"['c']",0,"right","['0']",6,0.250509999999849,0.1,0,"FastFast",1,18,"Woman","Right",NA,1,TRUE,TRUE,TRUE,TRUE
30,8,1,2.38364320000028,"['c']",0,"right","['2']",2,0.617218500000035,0.2,0,"FastFast",1,18,"Woman","Right",NA,1,TRUE,TRUE,TRUE,TRUE
31,8,1,0.916288500000064,"['c']",1,"left","['0']",6,0.150632599999881,0.2,0,"FastFast",1,18,"Woman","Right",NA,1,TRUE,TRUE,TRUE,TRUE
32,8,1,0.533520000000408,"['c']",1,"left","['0']",6,0.167000200000075,0.4,0,"FastFast",1,18,"Woman","Right",NA,1,TRUE,TRUE,TRUE,TRUE
33,8,1,0.733809000000292,"['c']",0,"right","['0']",6,0.150415700000394,0.1,0,"FastFast",1,18,"Woman","Right",NA,1,TRUE,TRUE,TRUE,TRUE
34,8,1,1.04949240000042,"['n']",1,"right","['2']",2,0.634014100000059,0.1,0,"FastFast",1,18,"Woman","Right",NA,1,TRUE,TRUE,TRUE,TRUE
35,8,1,1.21593529999973,"['c']",0,"right","['3']",3,0.783735900000011,0.4,0,"FastFast",1,18,"Woman","Right",NA,1,TRUE,TRUE,TRUE,TRUE
36,8,1,0.815548399999898,"['c']",1,"left","['8']",4,0.617257700000209,0.1,0,"FastFast",1,18,"Woman","Right",NA,1,TRUE,TRUE,TRUE,TRUE
37,8,1,0.849941800000124,"['c']",1,"left","['0']",6,0.284044399999857,0.2,0,"FastFast",1,18,"Woman","Right",NA,1,TRUE,TRUE,TRUE,TRUE
38,8,1,0.666164700000081,"['c']",1,"left","['0']",6,0.233881799999835,0.4,0,"FastFast",1,18,"Woman","Right",NA,1,TRUE,TRUE,TRUE,TRUE
39,8,1,0.816348699999708,"['c']",1,"left","['0']",6,0.567217100000107,0.2,0,"FastFast",1,18,"Woman","Right",NA,1,TRUE,TRUE,TRUE,TRUE
40,8,1,0.799028100000214,"['n']",1,"right","['0']",6,0.317261200000303,0.2,0,"FastFast",1,18,"Woman","Right",NA,1,TRUE,TRUE,TRUE,TRUE
41,8,1,0.649520200000097,"['c']",1,"left","['0']",6,0.200490100000025,0.4,0,"FastFast",1,18,"Woman","Right",NA,1,TRUE,TRUE,TRUE,TRUE
42,8,1,0.732929600000261,"['n']",1,"right","['0']",6,0.283779599999889,0.4,0,"FastFast",1,18,"Woman","Right",NA,1,TRUE,TRUE,TRUE,TRUE
43,8,1,0.649703400000362,"['c']",1,"left","['0']",6,0.634124900000188,0.1,0,"FastFast",1,18,"Woman","Right",NA,1,TRUE,TRUE,TRUE,TRUE
44,8,1,2.14929579999989,"['n']",1,"right","['3']",3,0.550546700000268,0.1,0,"FastFast",1,18,"Woman","Right",NA,1,TRUE,TRUE,TRUE,TRUE
45,8,1,0.8162655000001,"['c']",1,"left","['0']",6,0.383962399999746,0.4,0,"FastFast",1,18,"Woman","Right",NA,1,TRUE,TRUE,TRUE,TRUE
46,8,1,1.36613279999983,"['n']",1,"right","['2']",2,0.466988399999991,0.1,0,"FastFast",1,18,"Woman","Right",NA,1,TRUE,TRUE,TRUE,TRUE
47,8,1,0.782258299999739,"['c']",1,"left","['9']",5,0.467184300000099,0.1,0,"FastFast",1,18,"Woman","Right",NA,1,TRUE,TRUE,TRUE,TRUE
48,8,1,0.699504000000161,"['n']",1,"right","['0']",6,0.300582200000008,0.4,0,"FastFast",1,18,"Woman","Right",NA,1,TRUE,TRUE,TRUE,TRUE
49,8,1,0.632238700000016,"['c']",1,"left","['0']",6,0.183837400000357,0.2,0,"FastFast",1,18,"Woman","Right",NA,1,TRUE,TRUE,TRUE,TRUE
50,8,1,1.14977259999978,"['n']",1,"right","['3']",3,1.08380529999977,0.2,0,"FastFast",1,18,"Woman","Right",NA,1,TRUE,TRUE,TRUE,TRUE
51,8,1,0.682296299999962,"['c']",1,"left","['9']",5,0.517187699999795,0.1,0,"FastFast",1,18,"Woman","Right",NA,1,TRUE,TRUE,TRUE,TRUE
52,8,1,2.28342100000009,"['n']",0,"left","['1']",1,0.383832600000005,0.1,0,"FastFast",1,18,"Woman","Right",NA,1,TRUE,TRUE,TRUE,TRUE
53,8,1,1.01653810000016,"['c']",1,"left","['2']",2,0.317270999999892,0.1,0,"FastFast",1,18,"Woman","Right",NA,1,TRUE,TRUE,TRUE,TRUE
54,8,1,1.48230860000012,"['c']",1,"left","['0']",6,0.500486599999931,0.1,0,"FastFast",1,18,"Woman","Right",NA,1,TRUE,TRUE,TRUE,TRUE
55,8,1,0.93282679999993,"['n']",1,"right","['0']",6,0.317042899999706,0.4,0,"FastFast",1,18,"Woman","Right",NA,1,TRUE,TRUE,TRUE,TRUE
56,8,1,0.683272399999623,"['c']",1,"left","['0']",6,0.233887599999889,0.4,0,"FastFast",1,18,"Woman","Right",NA,1,TRUE,TRUE,TRUE,TRUE
57,8,1,1.51596849999987,"['n']",1,"right","['8']",4,0.633690599999682,0.2,0,"FastFast",1,18,"Woman","Right",NA,1,TRUE,TRUE,TRUE,TRUE
58,8,1,0.865442700000131,"['c']",1,"left","['9']",5,1.28339770000002,0.1,0,"FastFast",1,18,"Woman","Right",NA,1,TRUE,TRUE,TRUE,TRUE
59,8,1,0.865503099999842,"['n']",1,"right","['0']",6,0.21655039999996,0.4,0,"FastFast",1,18,"Woman","Right",NA,1,TRUE,TRUE,TRUE,TRUE
0,9,1,0.932919800000036,"['n']",1,"right","['0']",6,1.68421820000003,0.1,0,"AccFast",1,18,"Woman","Right",NA,1,TRUE,TRUE,TRUE,TRUE
1,9,1,2.23291980000022,"['c']",0,"right","['3']",3,1.01724719999993,0.1,0,"AccFast",1,18,"Woman","Right",NA,1,TRUE,TRUE,TRUE,TRUE
2,9,1,2.21548889999985,"['n']",0,"left","['1']",1,0.250523199999861,0.1,0,"AccFast",1,18,"Woman","Right",NA,1,TRUE,TRUE,TRUE,TRUE
3,9,1,0.949101199999859,"['c']",1,"left","['8']",4,0.584054200000082,0.2,0,"AccFast",1,18,"Woman","Right",NA,1,TRUE,TRUE,TRUE,TRUE
4,9,1,0.832820200000242,"['n']",1,"right","['0']",6,0.417164899999989,0.4,0,"AccFast",1,18,"Woman","Right",NA,1,TRUE,TRUE,TRUE,TRUE
5,9,1,1.21642400000019,"['c']",0,"right","['3']",3,0.583764499999688,0.1,0,"AccFast",1,18,"Woman","Right",NA,1,TRUE,TRUE,TRUE,TRUE
6,9,1,2.39947220000022,"['n']",1,"right","['0']",6,0.800355100000161,0.1,0,"AccFast",1,18,"Woman","Right",NA,1,TRUE,TRUE,TRUE,TRUE
7,9,1,0.633400800000345,"['c']",1,"left","['0']",6,0.283852600000046,0.4,0,"AccFast",1,18,"Woman","Right",NA,1,TRUE,TRUE,TRUE,TRUE
8,9,1,0.715497400000004,"['n']",1,"right","['9']",5,0.483769499999653,0.2,0,"AccFast",1,18,"Woman","Right",NA,1,TRUE,TRUE,TRUE,TRUE
9,9,1,0.732625300000109,"['c']",1,"left","['9']",5,0.367178599999988,0.1,0,"AccFast",1,18,"Woman","Right",NA,1,TRUE,TRUE,TRUE,TRUE
10,9,1,1.36559519999992,"['c']",1,"left","['0']",6,0.233851899999991,0.1,0,"AccFast",1,18,"Woman","Right",NA,1,TRUE,TRUE,TRUE,TRUE
11,9,1,1.96579239999983,"['n']",1,"right","['2']",2,0.83321930000011,0.1,0,"AccFast",1,18,"Woman","Right",NA,1,TRUE,TRUE,TRUE,TRUE
12,9,1,0.648252500000126,"['c']",1,"left","['9']",5,0.700511600000027,0.4,0,"AccFast",1,18,"Woman","Right",NA,1,TRUE,TRUE,TRUE,TRUE
13,9,1,2.46721840000009,"['c']",0,"right","['2']",2,0.584027800000058,0.1,0,"AccFast",1,18,"Woman","Right",NA,1,TRUE,TRUE,TRUE,TRUE
14,9,1,1.08230939999976,"['c']",1,"left","['0']",6,0.599995399999898,0.2,0,"AccFast",1,18,"Woman","Right",NA,1,TRUE,TRUE,TRUE,TRUE
15,9,1,1.76618959999996,"['n']",1,"right","['0']",6,0.433953400000064,0.4,0,"AccFast",1,18,"Woman","Right",NA,1,TRUE,TRUE,TRUE,TRUE
16,9,1,0.899190199999794,"['c']",0,"right","['8']",4,0.583845100000417,0.2,0,"AccFast",1,18,"Woman","Right",NA,1,TRUE,TRUE,TRUE,TRUE
17,9,1,0.866369500000019,"['n']",1,"right","['0']",6,0.483899999999721,0.4,0,"AccFast",1,18,"Woman","Right",NA,1,TRUE,TRUE,TRUE,TRUE
18,9,1,0.599347299999863,"['c']",1,"left","['0']",6,0.2669606999998,0.1,0,"AccFast",1,18,"Woman","Right",NA,1,TRUE,TRUE,TRUE,TRUE
19,9,1,1.04960219999975,"['c']",0,"right","['0']",6,0.267123099999935,0.2,0,"AccFast",1,18,"Woman","Right",NA,1,TRUE,TRUE,TRUE,TRUE
20,9,1,0.899572400000125,"['n']",1,"right","['0']",6,0.383816100000331,0.2,0,"AccFast",1,18,"Woman","Right",NA,1,TRUE,TRUE,TRUE,TRUE
21,9,1,0.54947250000032,"['c']",1,"left","['0']",6,0.200460000000021,0.4,0,"AccFast",1,18,"Woman","Right",NA,1,TRUE,TRUE,TRUE,TRUE
22,9,1,1.1997836999999,"['n']",1,"right","['0']",6,0.233790299999782,0.4,0,"AccFast",1,18,"Woman","Right",NA,1,TRUE,TRUE,TRUE,TRUE
23,9,1,0.966355999999905,"['c']",1,"left","['0']",6,0.267192399999658,0.4,0,"AccFast",1,18,"Woman","Right",NA,1,TRUE,TRUE,TRUE,TRUE
24,9,1,0.81562920000033,"['n']",1,"right","['0']",6,0.200591000000259,0.4,0,"AccFast",1,18,"Woman","Right",NA,1,TRUE,TRUE,TRUE,TRUE
25,9,1,0.866951100000279,"['n']",1,"right","['0']",6,0.200520099999721,0.4,0,"AccFast",1,18,"Woman","Right",NA,1,TRUE,TRUE,TRUE,TRUE
26,9,1,0.616206099999999,"['n']",1,"right","['0']",6,0.267153700000108,0.4,0,"AccFast",1,18,"Woman","Right",NA,1,TRUE,TRUE,TRUE,TRUE
27,9,1,0.666561999999885,"['c']",1,"left","['0']",6,0.300828200000069,0.2,0,"AccFast",1,18,"Woman","Right",NA,1,TRUE,TRUE,TRUE,TRUE
28,9,1,1.5662397000001,"['c']",0,"right","['2']",2,0.766881600000033,0.1,0,"AccFast",1,18,"Woman","Right",NA,1,TRUE,TRUE,TRUE,TRUE
29,9,1,0.682761000000028,"['c']",1,"left","['0']",6,0.983899899999869,0.2,0,"AccFast",1,18,"Woman","Right",NA,1,TRUE,TRUE,TRUE,TRUE
30,9,1,0.866540699999859,"['n']",1,"right","['0']",6,0.33359130000008,0.4,0,"AccFast",1,18,"Woman","Right",NA,1,TRUE,TRUE,TRUE,TRUE
31,9,1,1.01737820000017,"['c']",1,"left","['0']",6,0.33394270000008,0.4,0,"AccFast",1,18,"Woman","Right",NA,1,TRUE,TRUE,TRUE,TRUE
32,9,1,1.71684329999971,"['n']",1,"right","['0']",6,0.367134000000078,0.4,0,"AccFast",1,18,"Woman","Right",NA,1,TRUE,TRUE,TRUE,TRUE
33,9,1,1.59951329999967,"['c']",0,"right","['3']",3,0.917189100000087,0.1,0,"AccFast",1,18,"Woman","Right",NA,1,TRUE,TRUE,TRUE,TRUE
34,9,1,0.632774800000334,"['c']",1,"left","['9']",5,0.900548999999955,0.2,0,"AccFast",1,18,"Woman","Right",NA,1,TRUE,TRUE,TRUE,TRUE
35,9,1,1.31652600000007,"['n']",1,"right","['3']",3,1.0838805999997,0.1,0,"AccFast",1,18,"Woman","Right",NA,1,TRUE,TRUE,TRUE,TRUE
36,9,1,1.68311119999998,"['c']",1,"left","['0']",6,0.21727809999993,0.4,0,"AccFast",1,18,"Woman","Right",NA,1,TRUE,TRUE,TRUE,TRUE
37,9,1,1.19937640000035,"['c']",1,"left","['0']",6,0.167137100000218,0.2,0,"AccFast",1,18,"Woman","Right",NA,1,TRUE,TRUE,TRUE,TRUE
38,9,1,0.932846400000017,"['n']",1,"right","['0']",6,0.15049369999997,0.2,0,"AccFast",1,18,"Woman","Right",NA,1,TRUE,TRUE,TRUE,TRUE
39,9,1,0.73318590000008,"['c']",1,"left","['0']",6,0.10048659999984,0.2,0,"AccFast",1,18,"Woman","Right",NA,1,TRUE,TRUE,TRUE,TRUE
40,9,1,0.799222999999984,"['c']",1,"left","['0']",6,0.150500100000045,0.2,0,"AccFast",1,18,"Woman","Right",NA,1,TRUE,TRUE,TRUE,TRUE
41,9,1,0.932205199999771,"['c']",1,"left","['0']",6,0.117168900000252,0.2,0,"AccFast",1,18,"Woman","Right",NA,1,TRUE,TRUE,TRUE,TRUE
42,9,1,1.41563720000022,"['c']",1,"left","['0']",6,0.133876099999725,0.1,0,"AccFast",1,18,"Woman","Right",NA,1,TRUE,TRUE,TRUE,TRUE
43,9,1,0.632611900000029,"['c']",1,"left","['0']",6,0.150536099999954,0.2,0,"AccFast",1,18,"Woman","Right",NA,1,TRUE,TRUE,TRUE,TRUE
44,9,1,0.566384299999754,"['c']",1,"left","['0']",6,0.133759300000293,0.1,0,"AccFast",1,18,"Woman","Right",NA,1,TRUE,TRUE,TRUE,TRUE
45,9,1,0.632872399999997,"['c']",0,"right","['0']",6,0.150506699999823,0.1,0,"AccFast",1,18,"Woman","Right",NA,1,TRUE,TRUE,TRUE,TRUE
46,9,1,0.632863100000122,"['c']",1,"left","['0']",6,0.183856099999957,0.2,0,"AccFast",1,18,"Woman","Right",NA,1,TRUE,TRUE,TRUE,TRUE
47,9,1,0.816208599999754,"['n']",1,"right","['0']",6,0.200463199999831,0.4,0,"AccFast",1,18,"Woman","Right",NA,1,TRUE,TRUE,TRUE,TRUE
48,9,1,0.648986299999706,"['c']",1,"left","['0']",6,0.150495299999875,0.2,0,"AccFast",1,18,"Woman","Right",NA,1,TRUE,TRUE,TRUE,TRUE
49,9,1,1.98187989999997,"['n']",0,"left","['2']",2,0.600817600000028,0.1,0,"AccFast",1,18,"Woman","Right",NA,1,TRUE,TRUE,TRUE,TRUE
50,9,1,1.66635210000004,"['n']",1,"right","['8']",4,0.90053510000007,0.2,0,"AccFast",1,18,"Woman","Right",NA,1,TRUE,TRUE,TRUE,TRUE
51,9,1,0.598584899999878,"['c']",1,"left","['8']",4,0.700660099999823,0.2,0,"AccFast",1,18,"Woman","Right",NA,1,TRUE,TRUE,TRUE,TRUE
52,9,1,1.0324741999998,"['c']",1,"left","['0']",6,0.450387500000033,0.4,0,"AccFast",1,18,"Woman","Right",NA,1,TRUE,TRUE,TRUE,TRUE
53,9,1,1.23360430000002,"['c']",1,"left","['0']",6,0.250435500000094,0.4,0,"AccFast",1,18,"Woman","Right",NA,1,TRUE,TRUE,TRUE,TRUE
54,9,1,1.79928539999992,"['n']",1,"right","['2']",2,0.767280600000049,0.1,0,"AccFast",1,18,"Woman","Right",NA,1,TRUE,TRUE,TRUE,TRUE
55,9,1,0.899629999999888,"['n']",1,"right","['9']",5,1.01708159999998,0.2,0,"AccFast",1,18,"Woman","Right",NA,1,TRUE,TRUE,TRUE,TRUE
56,9,1,0.86588010000014,"['c']",1,"left","['0']",6,0.667213100000026,0.1,0,"AccFast",1,18,"Woman","Right",NA,1,TRUE,TRUE,TRUE,TRUE
57,9,1,1.0162921000001,"['c']",1,"left","['0']",6,0.517200400000092,0.4,0,"AccFast",1,18,"Woman","Right",NA,1,TRUE,TRUE,TRUE,TRUE
58,9,1,1.13280770000028,"['n']",1,"right","['0']",6,0.300479300000006,0.4,0,"AccFast",1,18,"Woman","Right",NA,1,TRUE,TRUE,TRUE,TRUE
59,9,1,1.49927079999998,"['c']",0,"right","['2']",2,1.23388389999991,0.1,0,"AccFast",1,18,"Woman","Right",NA,1,TRUE,TRUE,TRUE,TRUE
0,10,1,1.13266279999971,"['c']",1,"left","['0']",6,1.00046489999977,0.4,0,"AccAcc",1,18,"Woman","Right",NA,1,TRUE,TRUE,TRUE,TRUE
1,10,1,1.14950999999974,"['c']",1,"left","['9']",5,1.13401070000009,0.4,0,"AccAcc",1,18,"Woman","Right",NA,1,TRUE,TRUE,TRUE,TRUE
2,10,1,1.19938610000008,"['n']",1,"right","['0']",6,0.767205999999987,0.4,0,"AccAcc",1,18,"Woman","Right",NA,1,TRUE,TRUE,TRUE,TRUE
3,10,1,1.88296130000026,"['n']",1,"right","['9']",5,0.867205000000013,0.4,0,"AccAcc",1,18,"Woman","Right",NA,1,TRUE,TRUE,TRUE,TRUE
4,10,1,1.58286719999978,"['c']",1,"left","['0']",6,1.35092020000002,0.1,0,"AccAcc",1,18,"Woman","Right",NA,1,TRUE,TRUE,TRUE,TRUE
5,10,1,1.16588159999992,"['n']",1,"right","['0']",6,0.750407999999879,0.4,0,"AccAcc",1,18,"Woman","Right",NA,1,TRUE,TRUE,TRUE,TRUE
6,10,1,2.04953619999969,"['c']",0,"right","['2']",2,1.61722969999983,0.1,0,"AccAcc",1,18,"Woman","Right",NA,1,TRUE,TRUE,TRUE,TRUE
7,10,1,3.0992339999998,"['c']",0,"right","['2']",2,1.36729209999976,0.1,0,"AccAcc",1,18,"Woman","Right",NA,1,TRUE,TRUE,TRUE,TRUE
8,10,1,0.982359500000257,"['c']",1,"left","['0']",6,0.867214200000035,0.4,0,"AccAcc",1,18,"Woman","Right",NA,1,TRUE,TRUE,TRUE,TRUE
9,10,1,3.06576180000002,"['n']",0,"left","['8']",4,0.633836799999699,0.2,0,"AccAcc",1,18,"Woman","Right",NA,1,TRUE,TRUE,TRUE,TRUE
10,10,1,2.79939469999999,"['c']",1,"left","['2']",2,0.517231899999842,0.1,0,"AccAcc",1,18,"Woman","Right",NA,1,TRUE,TRUE,TRUE,TRUE
11,10,1,0.882925500000056,"['n']",1,"right","['0']",6,0.300552100000004,0.4,0,"AccAcc",1,18,"Woman","Right",NA,1,TRUE,TRUE,TRUE,TRUE
12,10,1,1.05051860000003,"['n']",1,"right","['0']",6,0.400458600000093,0.4,0,"AccAcc",1,18,"Woman","Right",NA,1,TRUE,TRUE,TRUE,TRUE
13,10,1,1.51596530000006,"['c']",1,"left","['8']",4,0.850473899999997,0.2,0,"AccAcc",1,18,"Woman","Right",NA,1,TRUE,TRUE,TRUE,TRUE
14,10,1,0.949861299999611,"['n']",1,"right","['0']",6,0.433782700000393,0.1,0,"AccAcc",1,18,"Woman","Right",NA,1,TRUE,TRUE,TRUE,TRUE
15,10,1,0.783582999999908,"['c']",1,"left","['0']",6,0.683789300000171,0.4,0,"AccAcc",1,18,"Woman","Right",NA,1,TRUE,TRUE,TRUE,TRUE
16,10,1,0.749966300000324,"['n']",1,"right","['0']",6,0.450509399999646,0.4,0,"AccAcc",1,18,"Woman","Right",NA,1,TRUE,TRUE,TRUE,TRUE
17,10,1,1.51640120000002,"['c']",1,"left","['0']",6,0.833785299999818,0.2,0,"AccAcc",1,18,"Woman","Right",NA,1,TRUE,TRUE,TRUE,TRUE
18,10,1,1.09961300000032,"['c']",1,"left","['9']",5,0.850484499999766,0.2,0,"AccAcc",1,18,"Woman","Right",NA,1,TRUE,TRUE,TRUE,TRUE
19,10,1,0.799528699999883,"['n']",0,"left","['9']",5,0.800613399999747,0.1,0,"AccAcc",1,18,"Woman","Right",NA,1,TRUE,TRUE,TRUE,TRUE
20,10,1,0.716263100000106,"['c']",1,"left","['0']",6,1.0172035999999,0.4,0,"AccAcc",1,18,"Woman","Right",NA,1,TRUE,TRUE,TRUE,TRUE
21,10,1,0.966188899999906,"['n']",1,"right","['0']",6,1.06724460000032,0.1,0,"AccAcc",1,18,"Woman","Right",NA,1,TRUE,TRUE,TRUE,TRUE
22,10,1,1.46626719999995,"['n']",1,"right","['9']",5,1.13361690000011,0.1,0,"AccAcc",1,18,"Woman","Right",NA,1,TRUE,TRUE,TRUE,TRUE
23,10,1,2.08310630000005,"['n']",0,"left","['9']",5,0.433495400000083,0.1,0,"AccAcc",1,18,"Woman","Right",NA,1,TRUE,TRUE,TRUE,TRUE
24,10,1,1.1825017000001,"['c']",0,"right","['3']",3,1.56745520000004,0.4,0,"AccAcc",1,18,"Woman","Right",NA,1,TRUE,TRUE,TRUE,TRUE
25,10,1,0.983715899999879,"['c']",1,"left","['8']",4,1.18391740000015,0.1,0,"AccAcc",1,18,"Woman","Right",NA,1,TRUE,TRUE,TRUE,TRUE
26,10,1,1.49977040000022,"['n']",1,"right","['0']",6,0.467004399999951,0.4,0,"AccAcc",1,18,"Woman","Right",NA,1,TRUE,TRUE,TRUE,TRUE
27,10,1,1.24948600000016,"['n']",1,"right","['0']",6,0.433919999999944,0.1,0,"AccAcc",1,18,"Woman","Right",NA,1,TRUE,TRUE,TRUE,TRUE
28,10,1,0.649277399999846,"['c']",1,"left","['0']",6,0.333798899999692,0.4,0,"AccAcc",1,18,"Woman","Right",NA,1,TRUE,TRUE,TRUE,TRUE
29,10,1,1.21566800000028,"['c']",1,"left","['0']",6,0.467232799999692,0.2,0,"AccAcc",1,18,"Woman","Right",NA,1,TRUE,TRUE,TRUE,TRUE
30,10,1,1.39870289999999,"['c']",0,"right","['3']",3,1.05054449999989,0.1,0,"AccAcc",1,18,"Woman","Right",NA,1,TRUE,TRUE,TRUE,TRUE
31,10,1,0.916105600000265,"['n']",1,"right","['8']",4,0.967264599999908,0.2,0,"AccAcc",1,18,"Woman","Right",NA,1,TRUE,TRUE,TRUE,TRUE
32,10,1,1.61635809999962,"['c']",1,"left","['8']",4,0.433211300000039,0.2,0,"AccAcc",1,18,"Woman","Right",NA,1,TRUE,TRUE,TRUE,TRUE
33,10,1,1.0495504999999,"['n']",1,"right","['9']",5,0.667280799999844,0.1,0,"AccAcc",1,18,"Woman","Right",NA,1,TRUE,TRUE,TRUE,TRUE
34,10,1,1.06623029999992,"['c']",1,"left","['9']",5,0.517172700000174,0.2,0,"AccAcc",1,18,"Woman","Right",NA,1,TRUE,TRUE,TRUE,TRUE
35,10,1,1.79970529999991,"['n']",0,"left","['8']",4,1.6338495,0.1,0,"AccAcc",1,18,"Woman","Right",NA,1,TRUE,TRUE,TRUE,TRUE
36,10,1,1.64966470000036,"['n']",1,"right","['0']",6,0.483763100000033,0.2,0,"AccAcc",1,18,"Woman","Right",NA,1,TRUE,TRUE,TRUE,TRUE
37,10,1,0.849735000000237,"['c']",1,"left","['0']",6,1.06722209999998,0.4,0,"AccAcc",1,18,"Woman","Right",NA,1,TRUE,TRUE,TRUE,TRUE
38,10,1,0.982503999999608,"['n']",1,"right","['0']",6,0.483830799999851,0.2,0,"AccAcc",1,18,"Woman","Right",NA,1,TRUE,TRUE,TRUE,TRUE
39,10,1,0.749652999999853,"['n']",1,"right","['0']",6,0.450510199999826,0.2,0,"AccAcc",1,18,"Woman","Right",NA,1,TRUE,TRUE,TRUE,TRUE
40,10,1,1.23341030000029,"['n']",0,"left","['0']",6,0.417057399999976,0.1,0,"AccAcc",1,18,"Woman","Right",NA,1,TRUE,TRUE,TRUE,TRUE
41,10,1,2.9996458999999,"['n']",1,"right","['3']",3,0.98381580000023,0.1,0,"AccAcc",1,18,"Woman","Right",NA,1,TRUE,TRUE,TRUE,TRUE
42,10,1,1.06582170000001,"['n']",0,"left","['3']",3,0.533809200000178,0.1,0,"AccAcc",1,18,"Woman","Right",NA,1,TRUE,TRUE,TRUE,TRUE
43,10,1,1.18249990000004,"['c']",1,"left","['9']",5,1.90040989999989,0.2,0,"AccAcc",1,18,"Woman","Right",NA,1,TRUE,TRUE,TRUE,TRUE
44,10,1,1.01732379999976,"['c']",1,"left","['9']",5,0.466811000000234,0.2,0,"AccAcc",1,18,"Woman","Right",NA,1,TRUE,TRUE,TRUE,TRUE
45,10,1,1.00000550000004,"['n']",1,"right","['0']",6,0.299852600000122,0.4,0,"AccAcc",1,18,"Woman","Right",NA,1,TRUE,TRUE,TRUE,TRUE
46,10,1,0.982796399999643,"['c']",1,"left","['9']",5,1.11715229999982,0.1,0,"AccAcc",1,18,"Woman","Right",NA,1,TRUE,TRUE,TRUE,TRUE
47,10,1,0.61616019999974,"['c']",1,"left","['9']",5,0.433867199999895,0.2,0,"AccAcc",1,18,"Woman","Right",NA,1,TRUE,TRUE,TRUE,TRUE
48,10,1,1.08251540000037,"['n']",0,"left","['0']",6,0.416910900000403,0.1,0,"AccAcc",1,18,"Woman","Right",NA,1,TRUE,TRUE,TRUE,TRUE
49,10,1,0.733277399999679,"['n']",1,"right","['0']",6,0.383839900000112,0.4,0,"AccAcc",1,18,"Woman","Right",NA,1,TRUE,TRUE,TRUE,TRUE
50,10,1,0.717027099999996,"['c']",1,"left","['9']",5,0.733918300000369,0.1,0,"AccAcc",1,18,"Woman","Right",NA,1,TRUE,TRUE,TRUE,TRUE
51,10,1,0.816993899999943,"['n']",1,"right","['0']",6,0.333794600000147,0.2,0,"AccAcc",1,18,"Woman","Right",NA,1,TRUE,TRUE,TRUE,TRUE
52,10,1,0.582939200000055,"['c']",1,"left","['0']",6,0.633763299999828,0.4,0,"AccAcc",1,18,"Woman","Right",NA,1,TRUE,TRUE,TRUE,TRUE
53,10,1,0.66596060000029,"['n']",1,"right","['0']",6,0.317171600000165,0.2,0,"AccAcc",1,18,"Woman","Right",NA,1,TRUE,TRUE,TRUE,TRUE
54,10,1,0.816256000000067,"['n']",1,"right","['0']",6,0.250104299999748,0.2,0,"AccAcc",1,18,"Woman","Right",NA,1,TRUE,TRUE,TRUE,TRUE
55,10,1,0.59948009999971,"['c']",1,"left","['0']",6,0.350444199999856,0.2,0,"AccAcc",1,18,"Woman","Right",NA,1,TRUE,TRUE,TRUE,TRUE
56,10,1,0.75056799999993,"['n']",1,"right","['0']",6,0.316990700000133,0.4,0,"AccAcc",1,18,"Woman","Right",NA,1,TRUE,TRUE,TRUE,TRUE
57,10,1,0.783248100000037,"['n']",1,"right","['0']",6,0.267304500000137,0.2,0,"AccAcc",1,18,"Woman","Right",NA,1,TRUE,TRUE,TRUE,TRUE
58,10,1,0.732873099999779,"['n']",1,"right","['0']",6,0.417131199999858,0.2,0,"AccAcc",1,18,"Woman","Right",NA,1,TRUE,TRUE,TRUE,TRUE
59,10,1,0.916417899999942,"['n']",1,"right","['0']",6,1.28385009999965,0.4,0,"AccAcc",1,18,"Woman","Right",NA,1,TRUE,TRUE,TRUE,TRUE
0,11,1,0.649291299999732,"['n']",1,"right","['0']",6,1.15052199999991,0.1,0,"FastAcc",1,18,"Woman","Right",NA,1,TRUE,TRUE,TRUE,TRUE
1,11,1,0.850472199999786,"['n']",1,"right","['0']",6,0.817273500000283,0.2,0,"FastAcc",1,18,"Woman","Right",NA,1,TRUE,TRUE,TRUE,TRUE
2,11,1,0.616276499999913,"['n']",1,"right","['0']",6,0.500720900000033,0.4,0,"FastAcc",1,18,"Woman","Right",NA,1,TRUE,TRUE,TRUE,TRUE
3,11,1,0.682854099999986,"['n']",1,"right","['0']",6,0.500154299999849,0.4,0,"FastAcc",1,18,"Woman","Right",NA,1,TRUE,TRUE,TRUE,TRUE
4,11,1,0.633722999999918,"['n']",1,"right","['0']",6,0.517629500000112,0.4,0,"FastAcc",1,18,"Woman","Right",NA,1,TRUE,TRUE,TRUE,TRUE
5,11,1,0.616645600000084,"['n']",1,"right","['0']",6,0.467207900000176,0.4,0,"FastAcc",1,18,"Woman","Right",NA,1,TRUE,TRUE,TRUE,TRUE
6,11,1,0.632547400000021,"['n']",1,"right","['0']",6,0.467117700000017,0.4,0,"FastAcc",1,18,"Woman","Right",NA,1,TRUE,TRUE,TRUE,TRUE
7,11,1,0.682518199999777,"['c']",1,"left","['0']",6,0.483772000000044,0.4,0,"FastAcc",1,18,"Woman","Right",NA,1,TRUE,TRUE,TRUE,TRUE
8,11,1,0.633146800000304,"['n']",1,"right","['0']",6,0.417340200000126,0.4,0,"FastAcc",1,18,"Woman","Right",NA,1,TRUE,TRUE,TRUE,TRUE
9,11,1,0.733536399999593,"['n']",1,"right","['0']",6,0.484027499999684,0.2,0,"FastAcc",1,18,"Woman","Right",NA,1,TRUE,TRUE,TRUE,TRUE
10,11,1,0.799567999999908,"['c']",1,"left","['0']",6,0.550518100000318,0.2,0,"FastAcc",1,18,"Woman","Right",NA,1,TRUE,TRUE,TRUE,TRUE
11,11,1,0.899668099999872,"['n']",1,"right","['0']",6,0.450795899999775,0.2,0,"FastAcc",1,18,"Woman","Right",NA,1,TRUE,TRUE,TRUE,TRUE
12,11,1,2.56693240000004,"['n']",1,"right","['0']",6,0.384162599999854,0.2,0,"FastAcc",1,18,"Woman","Right",NA,1,TRUE,TRUE,TRUE,TRUE
13,11,1,2.53218849999985,"['n']",0,"left","['8']",4,1.06744639999988,0.1,0,"FastAcc",1,18,"Woman","Right",NA,1,TRUE,TRUE,TRUE,TRUE
14,11,1,0.699682800000119,"['c']",1,"left","['0']",6,0.366780199999994,0.4,0,"FastAcc",1,18,"Woman","Right",NA,1,TRUE,TRUE,TRUE,TRUE
15,11,1,0.84950149999986,"['c']",1,"left","['9']",5,0.567306499999631,0.1,0,"FastAcc",1,18,"Woman","Right",NA,1,TRUE,TRUE,TRUE,TRUE
16,11,1,1.44953729999997,"['c']",1,"left","['8']",4,0.734064400000079,0.2,0,"FastAcc",1,18,"Woman","Right",NA,1,TRUE,TRUE,TRUE,TRUE
17,11,1,1.96561539999993,"['c']",1,"left","['3']",3,1.06721779999998,0.1,0,"FastAcc",1,18,"Woman","Right",NA,1,TRUE,TRUE,TRUE,TRUE
18,11,1,0.666218400000162,"['c']",1,"left","['9']",5,0.700546399999894,0.4,0,"FastAcc",1,18,"Woman","Right",NA,1,TRUE,TRUE,TRUE,TRUE
19,11,1,0.499172299999827,"['c']",1,"left","['9']",5,0.600610700000288,0.4,0,"FastAcc",1,18,"Woman","Right",NA,1,TRUE,TRUE,TRUE,TRUE
20,11,1,0.89922979999983,"['n']",1,"right","['0']",6,0.517267400000037,0.1,0,"FastAcc",1,18,"Woman","Right",NA,1,TRUE,TRUE,TRUE,TRUE
21,11,1,0.716327699999965,"['c']",1,"left","['0']",6,0.46717979999994,0.2,0,"FastAcc",1,18,"Woman","Right",NA,1,TRUE,TRUE,TRUE,TRUE
22,11,1,0.732644100000016,"['n']",1,"right","['0']",6,0.483755799999926,0.4,0,"FastAcc",1,18,"Woman","Right",NA,1,TRUE,TRUE,TRUE,TRUE
23,11,1,0.833343300000251,"['n']",1,"right","['0']",6,0.567096499999934,0.2,0,"FastAcc",1,18,"Woman","Right",NA,1,TRUE,TRUE,TRUE,TRUE
24,11,1,0.999333499999921,"['c']",1,"left","['0']",6,0.617297300000246,0.2,0,"FastAcc",1,18,"Woman","Right",NA,1,TRUE,TRUE,TRUE,TRUE
25,11,1,0.699117500000284,"['n']",1,"right","['0']",6,0.517211899999893,0.4,0,"FastAcc",1,18,"Woman","Right",NA,1,TRUE,TRUE,TRUE,TRUE
26,11,1,1.19922919999999,"['c']",1,"left","['9']",5,0.667015600000013,0.1,0,"FastAcc",1,18,"Woman","Right",NA,1,TRUE,TRUE,TRUE,TRUE
27,11,1,0.532642299999679,"['c']",1,"left","['9']",5,0.46714510000038,0.2,0,"FastAcc",1,18,"Woman","Right",NA,1,TRUE,TRUE,TRUE,TRUE
28,11,1,1.05014149999988,"['n']",1,"right","['0']",6,0.450391200000013,0.1,0,"FastAcc",1,18,"Woman","Right",NA,1,TRUE,TRUE,TRUE,TRUE
29,11,1,1.81626030000007,"['n']",1,"right","['0']",6,0.467115900000408,0.1,0,"FastAcc",1,18,"Woman","Right",NA,1,TRUE,TRUE,TRUE,TRUE
30,11,1,1.06741680000005,"['c']",1,"left","['0']",6,0.666991399999915,0.4,0,"FastAcc",1,18,"Woman","Right",NA,1,TRUE,TRUE,TRUE,TRUE
31,11,1,0.882564800000182,"['n']",1,"right","['3']",3,0.683838300000389,0.1,0,"FastAcc",1,18,"Woman","Right",NA,1,TRUE,TRUE,TRUE,TRUE
32,11,1,1.88246180000033,"['n']",0,"left","['9']",5,0.617403199999899,0.1,0,"FastAcc",1,18,"Woman","Right",NA,1,TRUE,TRUE,TRUE,TRUE
33,11,1,0.715808399999787,"['c']",1,"left","['9']",5,0.417047100000218,0.2,0,"FastAcc",1,18,"Woman","Right",NA,1,TRUE,TRUE,TRUE,TRUE
34,11,1,1.16627509999989,"['c']",0,"right","['3']",3,1.56724299999996,0.1,0,"FastAcc",1,18,"Woman","Right",NA,1,TRUE,TRUE,TRUE,TRUE
35,11,1,0.883171699999821,"['n']",1,"right","['9']",5,0.567187399999966,0.2,0,"FastAcc",1,18,"Woman","Right",NA,1,TRUE,TRUE,TRUE,TRUE
36,11,1,0.682646499999919,"['c']",1,"left","['9']",5,0.533578200000193,0.1,0,"FastAcc",1,18,"Woman","Right",NA,1,TRUE,TRUE,TRUE,TRUE
37,11,1,0.649780100000044,"['c']",1,"left","['0']",6,0.283789999999954,0.4,0,"FastAcc",1,18,"Woman","Right",NA,1,TRUE,TRUE,TRUE,TRUE
38,11,1,1.1833345,"['c']",1,"left","['0']",6,0.250459299999875,0.4,0,"FastAcc",1,18,"Woman","Right",NA,1,TRUE,TRUE,TRUE,TRUE
39,11,1,1.0158921000002,"['c']",1,"left","['0']",6,0.233854399999927,0.2,0,"FastAcc",1,18,"Woman","Right",NA,1,TRUE,TRUE,TRUE,TRUE
40,11,1,1.41618920000019,"['c']",1,"left","['8']",4,1.76724699999977,0.2,0,"FastAcc",1,18,"Woman","Right",NA,1,TRUE,TRUE,TRUE,TRUE
41,11,1,1.24919069999987,"['n']",1,"right","['9']",5,1.53381099999979,0.1,0,"FastAcc",1,18,"Woman","Right",NA,1,TRUE,TRUE,TRUE,TRUE
42,11,1,1.64971940000032,"['c']",0,"right","['9']",5,0.683839499999976,0.2,0,"FastAcc",1,18,"Woman","Right",NA,1,TRUE,TRUE,TRUE,TRUE
43,11,1,2.08274349999965,"['c']",1,"left","['0']",6,0.433889399999771,0.2,0,"FastAcc",1,18,"Woman","Right",NA,1,TRUE,TRUE,TRUE,TRUE
44,11,1,0.982670899999903,"['n']",1,"right","['9']",5,0.417012799999611,0.2,0,"FastAcc",1,18,"Woman","Right",NA,1,TRUE,TRUE,TRUE,TRUE
45,11,1,0.566985500000101,"['c']",1,"left","['0']",6,0.283845199999632,0.4,0,"FastAcc",1,18,"Woman","Right",NA,1,TRUE,TRUE,TRUE,TRUE
46,11,1,1.94999499999994,"['n']",1,"right","['0']",6,0.316447900000185,0.1,0,"FastAcc",1,18,"Woman","Right",NA,1,TRUE,TRUE,TRUE,TRUE
47,11,1,1.41627139999991,"['n']",1,"right","['0']",6,0.567209199999979,0.2,0,"FastAcc",1,18,"Woman","Right",NA,1,TRUE,TRUE,TRUE,TRUE
48,11,1,1.61645850000014,"['n']",1,"right","['9']",5,0.683745799999997,0.2,0,"FastAcc",1,18,"Woman","Right",NA,1,TRUE,TRUE,TRUE,TRUE
49,11,1,0.516430900000159,"['c']",1,"left","['9']",5,0.450521599999774,0.1,0,"FastAcc",1,18,"Woman","Right",NA,1,TRUE,TRUE,TRUE,TRUE
50,11,1,0.515819799999917,"['c']",1,"left","['9']",5,0.467315900000358,0.4,0,"FastAcc",1,18,"Woman","Right",NA,1,TRUE,TRUE,TRUE,TRUE
51,11,1,0.700281099999756,"['n']",1,"right","['0']",6,0.333864900000208,0.4,0,"FastAcc",1,18,"Woman","Right",NA,1,TRUE,TRUE,TRUE,TRUE
52,11,1,1.23307120000027,"['n']",1,"right","['8']",4,0.550597199999629,0.1,0,"FastAcc",1,18,"Woman","Right",NA,1,TRUE,TRUE,TRUE,TRUE
53,11,1,0.949365599999965,"['c']",1,"left","['3']",3,0.88389989999996,0.2,0,"FastAcc",1,18,"Woman","Right",NA,1,TRUE,TRUE,TRUE,TRUE
54,11,1,1.01661819999981,"['n']",1,"right","['8']",4,0.651092099999914,0.4,0,"FastAcc",1,18,"Woman","Right",NA,1,TRUE,TRUE,TRUE,TRUE
55,11,1,1.29914959999996,"['c']",1,"left","['9']",5,0.4170909999998,0.1,0,"FastAcc",1,18,"Woman","Right",NA,1,TRUE,TRUE,TRUE,TRUE
56,11,1,0.599421500000062,"['c']",1,"left","['0']",6,0.267044100000021,0.1,0,"FastAcc",1,18,"Woman","Right",NA,1,TRUE,TRUE,TRUE,TRUE
57,11,1,1.51620820000016,"['n']",0,"left","['8']",4,0.650454800000261,0.1,0,"FastAcc",1,18,"Woman","Right",NA,1,TRUE,TRUE,TRUE,TRUE
58,11,1,0.582715300000018,"['c']",1,"left","['0']",6,0.400660799999969,0.4,0,"FastAcc",1,18,"Woman","Right",NA,1,TRUE,TRUE,TRUE,TRUE
59,11,1,1.26636269999972,"['n']",1,"right","['9']",5,0.500646399999823,0.1,0,"FastAcc",1,18,"Woman","Right",NA,1,TRUE,TRUE,TRUE,TRUE
0,12,1,1.13280470000018,"['c']",1,"left","['0']",6,0.167194699999982,0.4,0,"FastFast",1,18,"Woman","Right",NA,1,TRUE,TRUE,TRUE,TRUE
1,12,1,0.732626200000141,"['n']",1,"right","['0']",6,0.250659499999983,0.2,0,"FastFast",1,18,"Woman","Right",NA,1,TRUE,TRUE,TRUE,TRUE
2,12,1,0.699885999999879,"['n']",1,"right","['0']",6,0.233825300000262,0.2,0,"FastFast",1,18,"Woman","Right",NA,1,TRUE,TRUE,TRUE,TRUE
3,12,1,0.482889700000214,"['c']",1,"left","['0']",6,0.217297499999859,0.4,0,"FastFast",1,18,"Woman","Right",NA,1,TRUE,TRUE,TRUE,TRUE
4,12,1,0.782932099999925,"['c']",1,"left","['0']",6,0.367139500000121,0.1,0,"FastFast",1,18,"Woman","Right",NA,1,TRUE,TRUE,TRUE,TRUE
5,12,1,0.699981699999626,"['n']",1,"right","['0']",6,0.300005600000077,0.2,0,"FastFast",1,18,"Woman","Right",NA,1,TRUE,TRUE,TRUE,TRUE
6,12,1,0.666138899999623,"['n']",1,"right","['0']",6,0.317120700000032,0.2,0,"FastFast",1,18,"Woman","Right",NA,1,TRUE,TRUE,TRUE,TRUE
7,12,1,1.46595600000001,"['n']",1,"right","['3']",3,0.483803199999784,0.1,0,"FastFast",1,18,"Woman","Right",NA,1,TRUE,TRUE,TRUE,TRUE
8,12,1,0.982627399999728,"['n']",1,"right","['3']",3,0.350631599999815,0.1,0,"FastFast",1,18,"Woman","Right",NA,1,TRUE,TRUE,TRUE,TRUE
9,12,1,0.916229299999941,"['n']",0,"left","['8']",4,0.217164700000012,0.1,0,"FastFast",1,18,"Woman","Right",NA,1,TRUE,TRUE,TRUE,TRUE
10,12,1,1.46635070000002,"['c']",1,"left","['1']",1,0.217150099999799,0.1,0,"FastFast",1,18,"Woman","Right",NA,1,TRUE,TRUE,TRUE,TRUE
11,12,1,1.78306550000025,"['c']",1,"left","['2']",2,0.367012499999873,0.2,0,"FastFast",1,18,"Woman","Right",NA,1,TRUE,TRUE,TRUE,TRUE
12,12,1,0.88278309999987,"['c']",1,"left","['9']",5,0.550608699999884,0.4,0,"FastFast",1,18,"Woman","Right",NA,1,TRUE,TRUE,TRUE,TRUE
13,12,1,0.76609819999976,"['n']",1,"right","['9']",5,0.333773299999848,0.2,0,"FastFast",1,18,"Woman","Right",NA,1,TRUE,TRUE,TRUE,TRUE
14,12,1,3.04959380000037,"['n']",1,"right","['1']",1,1.06722409999975,0.1,0,"FastFast",1,18,"Woman","Right",NA,1,TRUE,TRUE,TRUE,TRUE
15,12,1,0.899514100000033,"['n']",1,"right","['0']",6,0.317124799999874,0.4,0,"FastFast",1,18,"Woman","Right",NA,1,TRUE,TRUE,TRUE,TRUE
16,12,1,0.816209899999649,"['n']",1,"right","['0']",6,0.55048110000007,0.2,0,"FastFast",1,18,"Woman","Right",NA,1,TRUE,TRUE,TRUE,TRUE
17,12,1,0.699557399999776,"['n']",1,"right","['0']",6,0.300574899999901,0.4,0,"FastFast",1,18,"Woman","Right",NA,1,TRUE,TRUE,TRUE,TRUE
18,12,1,1.34959939999999,"['c']",1,"left","['8']",4,0.767126700000063,0.1,0,"FastFast",1,18,"Woman","Right",NA,1,TRUE,TRUE,TRUE,TRUE
19,12,1,0.566015800000059,"['c']",1,"left","['8']",4,0.317222500000298,0.2,0,"FastFast",1,18,"Woman","Right",NA,1,TRUE,TRUE,TRUE,TRUE
20,12,1,1.26567909999994,"['n']",1,"right","['0']",6,0.267180900000312,0.1,0,"FastFast",1,18,"Woman","Right",NA,1,TRUE,TRUE,TRUE,TRUE
21,12,1,0.616144199999781,"['c']",1,"left","['3']",3,0.950593000000026,0.4,0,"FastFast",1,18,"Woman","Right",NA,1,TRUE,TRUE,TRUE,TRUE
22,12,1,1.08303950000027,"['n']",1,"right","['0']",6,0.167201600000226,0.4,0,"FastFast",1,18,"Woman","Right",NA,1,TRUE,TRUE,TRUE,TRUE
23,12,1,1.36603560000003,"['c']",1,"left","['3']",3,0.700551500000074,0.1,0,"FastFast",1,18,"Woman","Right",NA,1,TRUE,TRUE,TRUE,TRUE
24,12,1,0.766445100000055,"['c']",1,"left","['3']",3,0.767295999999988,0.2,0,"FastFast",1,18,"Woman","Right",NA,1,TRUE,TRUE,TRUE,TRUE
25,12,1,1.18239589999985,"['c']",1,"left","['0']",6,0.200571999999738,0.4,0,"FastFast",1,18,"Woman","Right",NA,1,TRUE,TRUE,TRUE,TRUE
26,12,1,2.0329643,"['n']",1,"right","['2']",2,1.38409150000007,0.1,0,"FastFast",1,18,"Woman","Right",NA,1,TRUE,TRUE,TRUE,TRUE
27,12,1,0.765926900000068,"['n']",1,"right","['0']",6,0.283793900000092,0.2,0,"FastFast",1,18,"Woman","Right",NA,1,TRUE,TRUE,TRUE,TRUE
28,12,1,0.984204200000022,"['n']",1,"right","['9']",5,0.550342399999863,0.2,0,"FastFast",1,18,"Woman","Right",NA,1,TRUE,TRUE,TRUE,TRUE
29,12,1,2.19976709999992,"['n']",1,"right","['2']",2,0.333900399999948,0.1,0,"FastFast",1,18,"Woman","Right",NA,1,TRUE,TRUE,TRUE,TRUE
30,12,1,1.76620719999983,"['c']",1,"left","['1']",1,0.633893700000044,0.1,0,"FastFast",1,18,"Woman","Right",NA,1,TRUE,TRUE,TRUE,TRUE
31,12,1,2.01606379999976,"['n']",1,"right","['1']",1,0.3004234,0.1,0,"FastFast",1,18,"Woman","Right",NA,1,TRUE,TRUE,TRUE,TRUE
32,12,1,1.08299110000007,"['n']",1,"right","['9']",5,0.667160800000147,0.4,0,"FastFast",1,18,"Woman","Right",NA,1,TRUE,TRUE,TRUE,TRUE
33,12,1,1.58304129999988,"['c']",0,"right","['2']",2,0.417264000000159,0.2,0,"FastFast",1,18,"Woman","Right",NA,1,TRUE,TRUE,TRUE,TRUE
34,12,1,0.832767200000035,"['n']",1,"right","['9']",5,0.48383049999984,0.2,0,"FastFast",1,18,"Woman","Right",NA,1,TRUE,TRUE,TRUE,TRUE
35,12,1,1.21643840000024,"['c']",1,"left","['0']",6,0.233873199999834,0.4,0,"FastFast",1,18,"Woman","Right",NA,1,TRUE,TRUE,TRUE,TRUE
36,12,1,2.59969300000012,"['c']",1,"left","['2']",2,0.400496600000224,0.1,0,"FastFast",1,18,"Woman","Right",NA,1,TRUE,TRUE,TRUE,TRUE
37,12,1,1.24955009999985,"['c']",1,"left","['9']",5,0.383855500000209,0.1,0,"FastFast",1,18,"Woman","Right",NA,1,TRUE,TRUE,TRUE,TRUE
38,12,1,0.899512399999821,"['n']",1,"right","['0']",6,0.217082899999696,0.4,0,"FastFast",1,18,"Woman","Right",NA,1,TRUE,TRUE,TRUE,TRUE
39,12,1,0.682569100000364,"['c']",1,"left","['0']",6,0.267090700000153,0.4,0,"FastFast",1,18,"Woman","Right",NA,1,TRUE,TRUE,TRUE,TRUE
40,12,1,1.31612840000025,"['c']",1,"left","['2']",2,0.550510300000042,0.1,0,"FastFast",1,18,"Woman","Right",NA,1,TRUE,TRUE,TRUE,TRUE
41,12,1,0.699303200000031,"['c']",1,"left","['8']",4,1.333212,0.2,0,"FastFast",1,18,"Woman","Right",NA,1,TRUE,TRUE,TRUE,TRUE
42,12,1,0.716166899999735,"['n']",1,"right","['0']",6,0.234015500000169,0.4,0,"FastFast",1,18,"Woman","Right",NA,1,TRUE,TRUE,TRUE,TRUE
43,12,1,0.983042900000328,"['c']",1,"left","['0']",6,0.850602699999854,0.1,0,"FastFast",1,18,"Woman","Right",NA,1,TRUE,TRUE,TRUE,TRUE
44,12,1,1.56620109999994,"['c']",1,"left","['8']",4,0.700601699999879,0.2,0,"FastFast",1,18,"Woman","Right",NA,1,TRUE,TRUE,TRUE,TRUE
45,12,1,0.69913409999981,"['n']",1,"right","['0']",6,0.650511399999687,0.4,0,"FastFast",1,18,"Woman","Right",NA,1,TRUE,TRUE,TRUE,TRUE
46,12,1,1.31715810000014,"['n']",1,"right","['8']",4,0.750935000000027,0.2,0,"FastFast",1,18,"Woman","Right",NA,1,TRUE,TRUE,TRUE,TRUE
47,12,1,0.915543399999933,"['c']",1,"left","['9']",5,0.283744699999716,0.2,0,"FastFast",1,18,"Woman","Right",NA,1,TRUE,TRUE,TRUE,TRUE
48,12,1,1.36627550000003,"['c']",0,"right","['8']",4,0.383803400000033,0.1,0,"FastFast",1,18,"Woman","Right",NA,1,TRUE,TRUE,TRUE,TRUE
49,12,1,1.24952359999997,"['c']",1,"left","['8']",4,0.833901900000001,0.2,0,"FastFast",1,18,"Woman","Right",NA,1,TRUE,TRUE,TRUE,TRUE
50,12,1,0.816281299999901,"['c']",1,"left","['9']",5,0.550625399999717,0.4,0,"FastFast",1,18,"Woman","Right",NA,1,TRUE,TRUE,TRUE,TRUE
51,12,1,0.666370299999926,"['c']",1,"left","['0']",6,0.183821099999932,0.4,0,"FastFast",1,18,"Woman","Right",NA,1,TRUE,TRUE,TRUE,TRUE
52,12,1,1.46678790000033,"['c']",1,"left","['9']",5,0.250729500000034,0.1,0,"FastFast",1,18,"Woman","Right",NA,1,TRUE,TRUE,TRUE,TRUE
53,12,1,0.499468500000148,"['n']",1,"right","['9']",5,0.300580900000114,0.2,0,"FastFast",1,18,"Woman","Right",NA,1,TRUE,TRUE,TRUE,TRUE
54,12,1,0.899335999999948,"['c']",0,"right","['9']",5,0.167121799999677,0.1,0,"FastFast",1,18,"Woman","Right",NA,1,TRUE,TRUE,TRUE,TRUE
55,12,1,1.19955530000016,"['c']",1,"left","['0']",6,0.183872999999949,0.4,0,"FastFast",1,18,"Woman","Right",NA,1,TRUE,TRUE,TRUE,TRUE
56,12,1,0.750361899999916,"['n']",1,"right","['0']",6,0.266492000000198,0.4,0,"FastFast",1,18,"Woman","Right",NA,1,TRUE,TRUE,TRUE,TRUE
57,12,1,0.633052399999997,"['c']",1,"left","['0']",6,0.23376189999999,0.2,0,"FastFast",1,18,"Woman","Right",NA,1,TRUE,TRUE,TRUE,TRUE
58,12,1,0.599380099999962,"['n']",1,"right","['0']",6,0.233758000000307,0.4,0,"FastFast",1,18,"Woman","Right",NA,1,TRUE,TRUE,TRUE,TRUE
59,12,1,0.883458899999823,"['c']",1,"left","['0']",6,0.217197299999953,0.4,0,"FastFast",1,18,"Woman","Right",NA,1,TRUE,TRUE,TRUE,TRUE
0,13,1,0.899559400000271,"['n']",1,"right","['0']",6,0.600545700000112,0.4,0,"AccFast",1,18,"Woman","Right",NA,1,TRUE,TRUE,TRUE,TRUE
1,13,1,0.783762800000204,"['c']",1,"left","['0']",6,0.333826200000203,0.1,0,"AccFast",1,18,"Woman","Right",NA,1,TRUE,TRUE,TRUE,TRUE
2,13,1,0.866120199999841,"['c']",1,"left","['0']",6,0.18382500000007,0.1,0,"AccFast",1,18,"Woman","Right",NA,1,TRUE,TRUE,TRUE,TRUE
3,13,1,0.633540100000118,"['c']",1,"left","['0']",6,0.350518100000045,0.4,0,"AccFast",1,18,"Woman","Right",NA,1,TRUE,TRUE,TRUE,TRUE
4,13,1,0.750351499999852,"['c']",1,"left","['0']",6,0.150503899999876,0.1,0,"AccFast",1,18,"Woman","Right",NA,1,TRUE,TRUE,TRUE,TRUE
5,13,1,0.815936400000282,"['n']",1,"right","['0']",6,0.167200200000025,0.4,0,"AccFast",1,18,"Woman","Right",NA,1,TRUE,TRUE,TRUE,TRUE
6,13,1,0.550310399999944,"['c']",1,"left","['0']",6,0.18378789999997,0.4,0,"AccFast",1,18,"Woman","Right",NA,1,TRUE,TRUE,TRUE,TRUE
7,13,1,0.71692320000011,"['n']",1,"right","['0']",6,0.200583800000004,0.4,0,"AccFast",1,18,"Woman","Right",NA,1,TRUE,TRUE,TRUE,TRUE
8,13,1,0.516071600000032,"['c']",1,"left","['0']",6,0.16723520000005,0.2,0,"AccFast",1,18,"Woman","Right",NA,1,TRUE,TRUE,TRUE,TRUE
9,13,1,0.666169699999955,"['n']",1,"right","['0']",6,0.167168399999809,0.2,0,"AccFast",1,18,"Woman","Right",NA,1,TRUE,TRUE,TRUE,TRUE
10,13,1,0.849530300000424,"['c']",1,"left","['0']",6,0.15049480000016,0.4,0,"AccFast",1,18,"Woman","Right",NA,1,TRUE,TRUE,TRUE,TRUE
11,13,1,0.482963200000086,"['n']",1,"right","['0']",6,0.183831100000134,0.4,0,"AccFast",1,18,"Woman","Right",NA,1,TRUE,TRUE,TRUE,TRUE
12,13,1,0.416426499999943,"['c']",0,"right","['1']",1,0.217092299999877,0.1,0,"AccFast",1,18,"Woman","Right",NA,1,TRUE,TRUE,TRUE,TRUE
13,13,1,1.08291789999976,"['c']",1,"left","['0']",6,0.450499500000205,0.1,0,"AccFast",1,18,"Woman","Right",NA,1,TRUE,TRUE,TRUE,TRUE
14,13,1,0.516602700000021,"['c']",1,"left","['0']",6,0.133996000000025,0.1,0,"AccFast",1,18,"Woman","Right",NA,1,TRUE,TRUE,TRUE,TRUE
15,13,1,0.982718599999771,"['n']",1,"right","['8']",4,0.517101299999922,0.1,0,"AccFast",1,18,"Woman","Right",NA,1,TRUE,TRUE,TRUE,TRUE
16,13,1,1.98282569999992,"['c']",1,"left","['3']",3,0.983845299999757,0.1,0,"AccFast",1,18,"Woman","Right",NA,1,TRUE,TRUE,TRUE,TRUE
17,13,1,0.883049399999891,"['c']",1,"left","['9']",5,0.283827300000212,0.2,0,"AccFast",1,18,"Woman","Right",NA,1,TRUE,TRUE,TRUE,TRUE
18,13,1,1.84941980000031,"['c']",0,"right","['2']",2,0.41733480000039,0.1,0,"AccFast",1,18,"Woman","Right",NA,1,TRUE,TRUE,TRUE,TRUE
19,13,1,0.916553300000032,"['n']",1,"right","['9']",5,0.434062600000289,0.2,0,"AccFast",1,18,"Woman","Right",NA,1,TRUE,TRUE,TRUE,TRUE
20,13,1,1.01616729999978,"['n']",1,"right","['0']",6,0.183935000000019,0.4,0,"AccFast",1,18,"Woman","Right",NA,1,TRUE,TRUE,TRUE,TRUE
21,13,1,1.49938960000009,"['n']",1,"right","['0']",6,0.150635899999997,0.4,0,"AccFast",1,18,"Woman","Right",NA,1,TRUE,TRUE,TRUE,TRUE
22,13,1,1.11628250000012,"['n']",1,"right","['9']",5,0.400530999999773,0.2,0,"AccFast",1,18,"Woman","Right",NA,1,TRUE,TRUE,TRUE,TRUE
23,13,1,1.04967070000021,"['n']",1,"right","['9']",5,0.233893199999784,0.1,0,"AccFast",1,18,"Woman","Right",NA,1,TRUE,TRUE,TRUE,TRUE
24,13,1,0.916829499999949,"['n']",1,"right","['8']",4,0.667164299999968,0.2,0,"AccFast",1,18,"Woman","Right",NA,1,TRUE,TRUE,TRUE,TRUE
25,13,1,1.21610890000011,"['c']",1,"left","['0']",6,0.517049300000053,0.2,0,"AccFast",1,18,"Woman","Right",NA,1,TRUE,TRUE,TRUE,TRUE
26,13,1,0.683606000000054,"['c']",1,"left","['0']",6,0.133984399999918,0.2,0,"AccFast",1,18,"Woman","Right",NA,1,TRUE,TRUE,TRUE,TRUE
27,13,1,0.799613299999692,"['n']",1,"right","['0']",6,0.183757199999945,0.4,0,"AccFast",1,18,"Woman","Right",NA,1,TRUE,TRUE,TRUE,TRUE
28,13,1,0.6989851000003,"['n']",1,"right","['0']",6,0.150490699999864,0.4,0,"AccFast",1,18,"Woman","Right",NA,1,TRUE,TRUE,TRUE,TRUE
29,13,1,0.933063899999979,"['n']",1,"right","['0']",6,0.200519200000144,0.2,0,"AccFast",1,18,"Woman","Right",NA,1,TRUE,TRUE,TRUE,TRUE
30,13,1,0.832991499999935,"['n']",1,"right","['0']",6,0.183914500000355,0.2,0,"AccFast",1,18,"Woman","Right",NA,1,TRUE,TRUE,TRUE,TRUE
31,13,1,0.650318299999981,"['c']",1,"left","['0']",6,0.200549099999989,0.4,0,"AccFast",1,18,"Woman","Right",NA,1,TRUE,TRUE,TRUE,TRUE
32,13,1,0.999505799999952,"['n']",1,"right","['0']",6,0.167159000000083,0.4,0,"AccFast",1,18,"Woman","Right",NA,1,TRUE,TRUE,TRUE,TRUE
33,13,1,0.549615699999777,"['c']",1,"left","['0']",6,0.167154700000083,0.2,0,"AccFast",1,18,"Woman","Right",NA,1,TRUE,TRUE,TRUE,TRUE
34,13,1,0.716279300000224,"['n']",1,"right","['0']",6,0.20065730000033,0.2,0,"AccFast",1,18,"Woman","Right",NA,1,TRUE,TRUE,TRUE,TRUE
35,13,1,1.59961359999988,"['c']",1,"left","['0']",6,0.133859600000051,0.1,0,"AccFast",1,18,"Woman","Right",NA,1,TRUE,TRUE,TRUE,TRUE
36,13,1,0.799514700000145,"['n']",1,"right","['0']",6,0.233791300000121,0.4,0,"AccFast",1,18,"Woman","Right",NA,1,TRUE,TRUE,TRUE,TRUE
37,13,1,0.766363900000215,"['n']",1,"right","['0']",6,0.150509500000226,0.2,0,"AccFast",1,18,"Woman","Right",NA,1,TRUE,TRUE,TRUE,TRUE
38,13,1,1.14932799999997,"['n']",1,"right","['9']",5,0.267059999999674,0.1,0,"AccFast",1,18,"Woman","Right",NA,1,TRUE,TRUE,TRUE,TRUE
39,13,1,0.982674700000189,"['c']",1,"left","['9']",5,0.317216100000223,0.2,0,"AccFast",1,18,"Woman","Right",NA,1,TRUE,TRUE,TRUE,TRUE
40,13,1,0.932922799999687,"['n']",1,"right","['0']",6,0.216866900000241,0.1,0,"AccFast",1,18,"Woman","Right",NA,1,TRUE,TRUE,TRUE,TRUE
41,13,1,2.0161407999999,"['n']",0,"left","['2']",2,0.433759800000189,0.1,0,"AccFast",1,18,"Woman","Right",NA,1,TRUE,TRUE,TRUE,TRUE
42,13,1,1.48270039999989,"['n']",1,"right","['9']",5,0.36724890000005,0.1,0,"AccFast",1,18,"Woman","Right",NA,1,TRUE,TRUE,TRUE,TRUE
43,13,1,0.733399900000222,"['c']",1,"left","['0']",6,0.200467900000149,0.4,0,"AccFast",1,18,"Woman","Right",NA,1,TRUE,TRUE,TRUE,TRUE
44,13,1,1.06629840000005,"['n']",0,"left","['0']",6,0.150671800000055,0.1,0,"AccFast",1,18,"Woman","Right",NA,1,TRUE,TRUE,TRUE,TRUE
45,13,1,0.649927400000252,"['c']",1,"left","['0']",6,0.183882100000119,0.4,0,"AccFast",1,18,"Woman","Right",NA,1,TRUE,TRUE,TRUE,TRUE
46,13,1,1.31629569999996,"['c']",1,"left","['0']",6,0.333903700000064,0.4,0,"AccFast",1,18,"Woman","Right",NA,1,TRUE,TRUE,TRUE,TRUE
47,13,1,1.84960090000004,"['n']",0,"left","['3']",3,1.10059069999988,0.2,0,"AccFast",1,18,"Woman","Right",NA,1,TRUE,TRUE,TRUE,TRUE
48,13,1,0.750158800000008,"['c']",1,"left","['8']",4,0.650449000000208,0.2,0,"AccFast",1,18,"Woman","Right",NA,1,TRUE,TRUE,TRUE,TRUE
49,13,1,0.666155700000218,"['c']",1,"left","['0']",6,0.533836600000086,0.4,0,"AccFast",1,18,"Woman","Right",NA,1,TRUE,TRUE,TRUE,TRUE
50,13,1,0.799773799999912,"['n']",1,"right","['0']",6,0.15046540000003,0.2,0,"AccFast",1,18,"Woman","Right",NA,1,TRUE,TRUE,TRUE,TRUE
51,13,1,1.31625769999982,"['c']",1,"left","['9']",5,0.833915300000172,0.2,0,"AccFast",1,18,"Woman","Right",NA,1,TRUE,TRUE,TRUE,TRUE
52,13,1,0.74952710000025,"['c']",1,"left","['0']",6,0.183772299999873,0.4,0,"AccFast",1,18,"Woman","Right",NA,1,TRUE,TRUE,TRUE,TRUE
53,13,1,0.750302500000089,"['n']",1,"right","['9']",5,0.83388019999984,0.1,0,"AccFast",1,18,"Woman","Right",NA,1,TRUE,TRUE,TRUE,TRUE
54,13,1,0.84940749999987,"['n']",1,"right","['9']",5,0.334021499999835,0.2,0,"AccFast",1,18,"Woman","Right",NA,1,TRUE,TRUE,TRUE,TRUE
55,13,1,0.732865499999662,"['c']",1,"left","['0']",6,0.167174499999874,0.1,0,"AccFast",1,18,"Woman","Right",NA,1,TRUE,TRUE,TRUE,TRUE
56,13,1,0.682889400000022,"['c']",1,"left","['0']",6,0.16723809999985,0.4,0,"AccFast",1,18,"Woman","Right",NA,1,TRUE,TRUE,TRUE,TRUE
57,13,1,1.45005450000008,"['n']",1,"right","['8']",4,0.583794000000125,0.1,0,"AccFast",1,18,"Woman","Right",NA,1,TRUE,TRUE,TRUE,TRUE
58,13,1,1.29952630000025,"['c']",1,"left","['9']",5,0.28373240000019,0.2,0,"AccFast",1,18,"Woman","Right",NA,1,TRUE,TRUE,TRUE,TRUE
59,13,1,1.66626970000016,"['n']",1,"right","['9']",5,0.78384670000014,0.1,0,"AccFast",1,18,"Woman","Right",NA,1,TRUE,TRUE,TRUE,TRUE
0,14,1,1.24974629999997,"['c']",1,"left","['3']",3,1.23401909999984,0.1,0,"AccAcc",1,18,"Woman","Right",NA,1,TRUE,TRUE,TRUE,TRUE
1,14,1,1.18361300000015,"['n']",1,"right","['9']",5,0.550926199999594,0.1,0,"AccAcc",1,18,"Woman","Right",NA,1,TRUE,TRUE,TRUE,TRUE
2,14,1,1.16648130000021,"['c']",1,"left","['9']",5,0.450544300000274,0.2,0,"AccAcc",1,18,"Woman","Right",NA,1,TRUE,TRUE,TRUE,TRUE
3,14,1,2.1329254000002,"['c']",1,"left","['2']",2,0.583671600000343,0.2,0,"AccAcc",1,18,"Woman","Right",NA,1,TRUE,TRUE,TRUE,TRUE
4,14,1,1.08258559999967,"['n']",1,"right","['0']",6,0.63405019999982,0.1,0,"AccAcc",1,18,"Woman","Right",NA,1,TRUE,TRUE,TRUE,TRUE
5,14,1,2.83367009999984,"['n']",1,"right","['0']",6,0.767382799999723,0.2,0,"AccAcc",1,18,"Woman","Right",NA,1,TRUE,TRUE,TRUE,TRUE
6,14,1,2.96628209999972,"['c']",1,"left","['1']",1,0.48368309999978,0.1,0,"AccAcc",1,18,"Woman","Right",NA,1,TRUE,TRUE,TRUE,TRUE
7,14,1,1.1156947999998,"['c']",1,"left","['0']",6,0.567145900000014,0.4,0,"AccAcc",1,18,"Woman","Right",NA,1,TRUE,TRUE,TRUE,TRUE
8,14,1,1.16573909999988,"['c']",1,"left","['9']",5,0.550561500000185,0.2,0,"AccAcc",1,18,"Woman","Right",NA,1,TRUE,TRUE,TRUE,TRUE
9,14,1,1.28275919999987,"['n']",1,"right","['0']",6,0.36712579999994,0.1,0,"AccAcc",1,18,"Woman","Right",NA,1,TRUE,TRUE,TRUE,TRUE
10,14,1,1.43370289999984,"['c']",1,"left","['0']",6,0.483813700000155,0.2,0,"AccAcc",1,18,"Woman","Right",NA,1,TRUE,TRUE,TRUE,TRUE
11,14,1,0.884097000000111,"['c']",1,"left","['0']",6,0.250534300000254,0.2,0,"AccAcc",1,18,"Woman","Right",NA,1,TRUE,TRUE,TRUE,TRUE
12,14,1,1.31636479999997,"['n']",1,"right","['0']",6,0.25043340000002,0.1,0,"AccAcc",1,18,"Woman","Right",NA,1,TRUE,TRUE,TRUE,TRUE
13,14,1,0.749471900000117,"['n']",1,"right","['0']",6,0.233759300000202,0.4,0,"AccAcc",1,18,"Woman","Right",NA,1,TRUE,TRUE,TRUE,TRUE
14,14,1,0.64962850000029,"['c']",1,"left","['0']",6,0.200593300000037,0.4,0,"AccAcc",1,18,"Woman","Right",NA,1,TRUE,TRUE,TRUE,TRUE
15,14,1,1.26636719999988,"['c']",1,"left","['0']",6,0.450523699999849,0.2,0,"AccAcc",1,18,"Woman","Right",NA,1,TRUE,TRUE,TRUE,TRUE
16,14,1,0.83287029999974,"['c']",1,"left","['0']",6,0.267140099999779,0.1,0,"AccAcc",1,18,"Woman","Right",NA,1,TRUE,TRUE,TRUE,TRUE
17,14,1,0.699547100000018,"['c']",1,"left","['0']",6,0.250161899999966,0.2,0,"AccAcc",1,18,"Woman","Right",NA,1,TRUE,TRUE,TRUE,TRUE
18,14,1,0.666372900000169,"['c']",1,"left","['0']",6,0.333832999999686,0.1,0,"AccAcc",1,18,"Woman","Right",NA,1,TRUE,TRUE,TRUE,TRUE
19,14,1,0.732458899999983,"['n']",1,"right","['0']",6,0.250655499999993,0.4,0,"AccAcc",1,18,"Woman","Right",NA,1,TRUE,TRUE,TRUE,TRUE
20,14,1,0.716366799999832,"['c']",1,"left","['0']",6,0.383779600000253,0.2,0,"AccAcc",1,18,"Woman","Right",NA,1,TRUE,TRUE,TRUE,TRUE
21,14,1,0.499646400000074,"['c']",1,"left","['0']",6,0.250454900000022,0.4,0,"AccAcc",1,18,"Woman","Right",NA,1,TRUE,TRUE,TRUE,TRUE
22,14,1,0.866507300000194,"['n']",1,"right","['0']",6,0.267095300000165,0.4,0,"AccAcc",1,18,"Woman","Right",NA,1,TRUE,TRUE,TRUE,TRUE
23,14,1,1.06619670000009,"['n']",1,"right","['0']",6,0.433710300000257,0.2,0,"AccAcc",1,18,"Woman","Right",NA,1,TRUE,TRUE,TRUE,TRUE
24,14,1,1.19943259999991,"['c']",1,"left","['0']",6,0.433979199999612,0.1,0,"AccAcc",1,18,"Woman","Right",NA,1,TRUE,TRUE,TRUE,TRUE
25,14,1,0.81610819999969,"['c']",1,"left","['0']",6,0.467303500000071,0.4,0,"AccAcc",1,18,"Woman","Right",NA,1,TRUE,TRUE,TRUE,TRUE
26,14,1,1.16679330000034,"['n']",1,"right","['0']",6,0.433863199999905,0.2,0,"AccAcc",1,18,"Woman","Right",NA,1,TRUE,TRUE,TRUE,TRUE
27,14,1,1.74968609999996,"['c']",1,"left","['2']",2,0.900558899999851,0.1,0,"AccAcc",1,18,"Woman","Right",NA,1,TRUE,TRUE,TRUE,TRUE
28,14,1,0.916349999999966,"['n']",1,"right","['9']",5,0.933077900000171,0.4,0,"AccAcc",1,18,"Woman","Right",NA,1,TRUE,TRUE,TRUE,TRUE
29,14,1,0.633857199999966,"['c']",1,"left","['0']",6,0.267235599999822,0.4,0,"AccAcc",1,18,"Woman","Right",NA,1,TRUE,TRUE,TRUE,TRUE
30,14,1,0.933200299999953,"['n']",1,"right","['0']",6,0.383921799999825,0.2,0,"AccAcc",1,18,"Woman","Right",NA,1,TRUE,TRUE,TRUE,TRUE
31,14,1,1.89963840000019,"['n']",1,"right","['8']",4,0.500613000000158,0.1,0,"AccAcc",1,18,"Woman","Right",NA,1,TRUE,TRUE,TRUE,TRUE
32,14,1,1.33254239999997,"['n']",1,"right","['8']",4,0.683711300000141,0.2,0,"AccAcc",1,18,"Woman","Right",NA,1,TRUE,TRUE,TRUE,TRUE
33,14,1,1.13469599999962,"['c']",1,"left","['8']",4,0.533628800000315,0.1,0,"AccAcc",1,18,"Woman","Right",NA,1,TRUE,TRUE,TRUE,TRUE
34,14,1,1.2163671999997,"['n']",1,"right","['0']",6,0.283798999999817,0.2,0,"AccAcc",1,18,"Woman","Right",NA,1,TRUE,TRUE,TRUE,TRUE
35,14,1,1.81626630000028,"['c']",0,"right","['2']",2,0.483795200000259,0.1,0,"AccAcc",1,18,"Woman","Right",NA,1,TRUE,TRUE,TRUE,TRUE
36,14,1,2.06651479999982,"['c']",1,"left","['2']",2,0.56711949999999,0.1,0,"AccAcc",1,18,"Woman","Right",NA,1,TRUE,TRUE,TRUE,TRUE
37,14,1,1.08287610000025,"['c']",1,"left","['0']",6,0.367094299999735,0.4,0,"AccAcc",1,18,"Woman","Right",NA,1,TRUE,TRUE,TRUE,TRUE
38,14,1,0.566422200000034,"['c']",1,"left","['0']",6,0.18372700000009,0.4,0,"AccAcc",1,18,"Woman","Right",NA,1,TRUE,TRUE,TRUE,TRUE
39,14,1,1.99991050000017,"['n']",0,"left","['2']",2,0.417365399999653,0.1,0,"AccAcc",1,18,"Woman","Right",NA,1,TRUE,TRUE,TRUE,TRUE
40,14,1,1.53320059999987,"['c']",1,"left","['0']",6,0.300520900000265,0.4,0,"AccAcc",1,18,"Woman","Right",NA,1,TRUE,TRUE,TRUE,TRUE
41,14,1,2.35012959999995,"['n']",1,"right","['0']",6,0.300428799999736,0.2,0,"AccAcc",1,18,"Woman","Right",NA,1,TRUE,TRUE,TRUE,TRUE
42,14,1,1.06609079999998,"['n']",1,"right","['0']",6,0.350451999999677,0.4,0,"AccAcc",1,18,"Woman","Right",NA,1,TRUE,TRUE,TRUE,TRUE
43,14,1,1.23321150000038,"['n']",1,"right","['9']",5,0.4505908000001,0.2,0,"AccAcc",1,18,"Woman","Right",NA,1,TRUE,TRUE,TRUE,TRUE
44,14,1,2.13299589999997,"['n']",1,"right","['9']",5,0.817164799999773,0.4,0,"AccAcc",1,18,"Woman","Right",NA,1,TRUE,TRUE,TRUE,TRUE
45,14,1,0.949611099999856,"['c']",1,"left","['0']",6,0.683952800000043,0.4,0,"AccAcc",1,18,"Woman","Right",NA,1,TRUE,TRUE,TRUE,TRUE
46,14,1,0.849626199999875,"['n']",1,"right","['0']",6,0.484058300000015,0.2,0,"AccAcc",1,18,"Woman","Right",NA,1,TRUE,TRUE,TRUE,TRUE
47,14,1,0.799180199999682,"['n']",1,"right","['0']",6,0.550488999999743,0.2,0,"AccAcc",1,18,"Woman","Right",NA,1,TRUE,TRUE,TRUE,TRUE
48,14,1,1.29963940000016,"['c']",1,"left","['0']",6,0.267104000000018,0.1,0,"AccAcc",1,18,"Woman","Right",NA,1,TRUE,TRUE,TRUE,TRUE
49,14,1,0.866228899999896,"['n']",1,"right","['0']",6,0.417232899999817,0.4,0,"AccAcc",1,18,"Woman","Right",NA,1,TRUE,TRUE,TRUE,TRUE
50,14,1,0.750018700000055,"['n']",1,"right","['0']",6,0.383737999999994,0.4,0,"AccAcc",1,18,"Woman","Right",NA,1,TRUE,TRUE,TRUE,TRUE
51,14,1,1.69980459999988,"['c']",0,"right","['2']",2,0.333984300000338,0.1,0,"AccAcc",1,18,"Woman","Right",NA,1,TRUE,TRUE,TRUE,TRUE
52,14,1,1.21604839999964,"['n']",1,"right","['0']",6,0.734149500000058,0.4,0,"AccAcc",1,18,"Woman","Right",NA,1,TRUE,TRUE,TRUE,TRUE
53,14,1,1.79989959999966,"['c']",1,"left","['0']",6,0.517188899999837,0.2,0,"AccAcc",1,18,"Woman","Right",NA,1,TRUE,TRUE,TRUE,TRUE
54,14,1,1.56627220000018,"['c']",1,"left","['8']",4,0.817199200000232,0.4,0,"AccAcc",1,18,"Woman","Right",NA,1,TRUE,TRUE,TRUE,TRUE
55,14,1,1.66620109999985,"['n']",1,"right","['8']",4,0.483797700000196,0.1,0,"AccAcc",1,18,"Woman","Right",NA,1,TRUE,TRUE,TRUE,TRUE
56,14,1,0.749581600000056,"['c']",1,"left","['9']",5,0.417239799999606,0.2,0,"AccAcc",1,18,"Woman","Right",NA,1,TRUE,TRUE,TRUE,TRUE
57,14,1,1.04960680000022,"['n']",1,"right","['0']",6,0.484069399999953,0.4,0,"AccAcc",1,18,"Woman","Right",NA,1,TRUE,TRUE,TRUE,TRUE
58,14,1,1.11610990000008,"['c']",0,"right","['8']",4,0.900433899999825,0.1,0,"AccAcc",1,18,"Woman","Right",NA,1,TRUE,TRUE,TRUE,TRUE
59,14,1,0.966054999999869,"['n']",1,"right","['8']",4,0.617157300000144,0.1,0,"AccAcc",1,18,"Woman","Right",NA,1,TRUE,TRUE,TRUE,TRUE
0,15,1,2.21615320000001,"['c']",1,"left","['0']",6,1.08409940000001,0.2,0,"FastAcc",1,18,"Woman","Right",NA,1,TRUE,TRUE,TRUE,TRUE
1,15,1,1.00000180000006,"['c']",0,"right","['2']",2,0.533955200000037,0.1,0,"FastAcc",1,18,"Woman","Right",NA,1,TRUE,TRUE,TRUE,TRUE
2,15,1,1.29926840000007,"['c']",0,"right","['2']",2,0.483657299999777,0.1,0,"FastAcc",1,18,"Woman","Right",NA,1,TRUE,TRUE,TRUE,TRUE
3,15,1,0.59943420000036,"['c']",1,"left","['2']",2,0.783878799999911,0.1,0,"FastAcc",1,18,"Woman","Right",NA,1,TRUE,TRUE,TRUE,TRUE
4,15,1,0.582635499999924,"['n']",1,"right","['9']",5,1.60074069999973,0.2,0,"FastAcc",1,18,"Woman","Right",NA,1,TRUE,TRUE,TRUE,TRUE
5,15,1,0.999844099999791,"['n']",1,"right","['0']",6,0.283752900000309,0.1,0,"FastAcc",1,18,"Woman","Right",NA,1,TRUE,TRUE,TRUE,TRUE
6,15,1,1.73294440000018,"['n']",1,"right","['9']",5,0.367125599999781,0.2,0,"FastAcc",1,18,"Woman","Right",NA,1,TRUE,TRUE,TRUE,TRUE
7,15,1,0.799569399999655,"['n']",1,"right","['9']",5,0.28389449999986,0.4,0,"FastAcc",1,18,"Woman","Right",NA,1,TRUE,TRUE,TRUE,TRUE
8,15,1,0.716451200000392,"['c']",1,"left","['9']",5,0.250428399999691,0.1,0,"FastAcc",1,18,"Woman","Right",NA,1,TRUE,TRUE,TRUE,TRUE
9,15,1,0.966734800000268,"['n']",1,"right","['9']",5,0.267391500000031,0.1,0,"FastAcc",1,18,"Woman","Right",NA,1,TRUE,TRUE,TRUE,TRUE
10,15,1,1.54911420000008,"['n']",1,"right","['0']",6,0.400535000000218,0.2,0,"FastAcc",1,18,"Woman","Right",NA,1,TRUE,TRUE,TRUE,TRUE
11,15,1,0.799267500000042,"['c']",1,"left","['0']",6,0.250603999999839,0.2,0,"FastAcc",1,18,"Woman","Right",NA,1,TRUE,TRUE,TRUE,TRUE
12,15,1,0.899616899999728,"['c']",1,"left","['0']",6,0.150606700000026,0.2,0,"FastAcc",1,18,"Woman","Right",NA,1,TRUE,TRUE,TRUE,TRUE
13,15,1,0.799581299999772,"['c']",1,"left","['0']",6,0.0841462000003048,0.4,0,"FastAcc",1,18,"Woman","Right",NA,1,TRUE,TRUE,TRUE,TRUE
14,15,1,0.683329999999842,"['c']",1,"left","['0']",6,0.150495599999886,0.1,0,"FastAcc",1,18,"Woman","Right",NA,1,TRUE,TRUE,TRUE,TRUE
15,15,1,0.766237700000147,"['n']",1,"right","['0']",6,0.183649099999911,0.2,0,"FastAcc",1,18,"Woman","Right",NA,1,TRUE,TRUE,TRUE,TRUE
16,15,1,0.531789300000128,"['c']",1,"left","['0']",6,0.150553899999977,0.2,0,"FastAcc",1,18,"Woman","Right",NA,1,TRUE,TRUE,TRUE,TRUE
17,15,1,1.64944090000017,"['c']",0,"right","['9']",5,0.217147000000296,0.2,0,"FastAcc",1,18,"Woman","Right",NA,1,TRUE,TRUE,TRUE,TRUE
18,15,1,0.732716800000162,"['c']",1,"left","['0']",6,0.267172100000153,0.4,0,"FastAcc",1,18,"Woman","Right",NA,1,TRUE,TRUE,TRUE,TRUE
19,15,1,1.44983970000021,"['n']",1,"right","['2']",2,0.717163899999832,0.1,0,"FastAcc",1,18,"Woman","Right",NA,1,TRUE,TRUE,TRUE,TRUE
20,15,1,1.13319790000014,"['n']",1,"right","['9']",5,0.650516400000015,0.2,0,"FastAcc",1,18,"Woman","Right",NA,1,TRUE,TRUE,TRUE,TRUE
21,15,1,1.1330366000002,"['c']",0,"right","['3']",3,0.70036970000001,0.1,0,"FastAcc",1,18,"Woman","Right",NA,1,TRUE,TRUE,TRUE,TRUE
22,15,1,1.01642189999984,"['c']",1,"left","['9']",5,0.583860100000038,0.1,0,"FastAcc",1,18,"Woman","Right",NA,1,TRUE,TRUE,TRUE,TRUE
23,15,1,1.18288110000003,"['n']",1,"right","['0']",6,0.233829899999819,0.4,0,"FastAcc",1,18,"Woman","Right",NA,1,TRUE,TRUE,TRUE,TRUE
24,15,1,0.816297200000008,"['n']",1,"right","['0']",6,0.200436799999807,0.4,0,"FastAcc",1,18,"Woman","Right",NA,1,TRUE,TRUE,TRUE,TRUE
25,15,1,0.983009600000059,"['c']",1,"left","['0']",6,0.234010099999978,0.1,0,"FastAcc",1,18,"Woman","Right",NA,1,TRUE,TRUE,TRUE,TRUE
26,15,1,1.41631719999987,"['c']",1,"left","['9']",5,0.484017099999619,0.2,0,"FastAcc",1,18,"Woman","Right",NA,1,TRUE,TRUE,TRUE,TRUE
27,15,1,1.06606000000011,"['n']",1,"right","['0']",6,1.1505474999999,0.4,0,"FastAcc",1,18,"Woman","Right",NA,1,TRUE,TRUE,TRUE,TRUE
28,15,1,1.06666369999994,"['c']",1,"left","['0']",6,0.233588200000213,0.1,0,"FastAcc",1,18,"Woman","Right",NA,1,TRUE,TRUE,TRUE,TRUE
29,15,1,1.11600390000012,"['n']",1,"right","['0']",6,0.20067489999974,0.2,0,"FastAcc",1,18,"Woman","Right",NA,1,TRUE,TRUE,TRUE,TRUE
30,15,1,0.59961899999962,"['c']",1,"left","['0']",6,0.233741099999861,0.2,0,"FastAcc",1,18,"Woman","Right",NA,1,TRUE,TRUE,TRUE,TRUE
31,15,1,0.783067299999857,"['c']",1,"left","['0']",6,0.200498100000004,0.4,0,"FastAcc",1,18,"Woman","Right",NA,1,TRUE,TRUE,TRUE,TRUE
32,15,1,0.682750399999804,"['c']",1,"left","['0']",6,0.250509999999849,0.4,0,"FastAcc",1,18,"Woman","Right",NA,1,TRUE,TRUE,TRUE,TRUE
33,15,1,0.883538600000065,"['c']",1,"left","['0']",6,0.150502599999982,0.4,0,"FastAcc",1,18,"Woman","Right",NA,1,TRUE,TRUE,TRUE,TRUE
34,15,1,1.01580090000016,"['n']",1,"right","['0']",6,0.933732199999668,0.4,0,"FastAcc",1,18,"Woman","Right",NA,1,TRUE,TRUE,TRUE,TRUE
35,15,1,1.44956440000033,"['c']",0,"right","['2']",2,0.367141700000047,0.2,0,"FastAcc",1,18,"Woman","Right",NA,1,TRUE,TRUE,TRUE,TRUE
36,15,1,0.749679400000332,"['c']",1,"left","['0']",6,0.46726099999978,0.2,0,"FastAcc",1,18,"Woman","Right",NA,1,TRUE,TRUE,TRUE,TRUE
37,15,1,0.66582789999984,"['c']",1,"left","['0']",6,0.3839167000001,0.4,0,"FastAcc",1,18,"Woman","Right",NA,1,TRUE,TRUE,TRUE,TRUE
38,15,1,0.549611099999765,"['n']",1,"right","['0']",6,0.467182899999898,0.4,0,"FastAcc",1,18,"Woman","Right",NA,1,TRUE,TRUE,TRUE,TRUE
39,15,1,0.484249599999657,"['c']",1,"left","['0']",6,0.550678799999787,0.4,0,"FastAcc",1,18,"Woman","Right",NA,1,TRUE,TRUE,TRUE,TRUE
40,15,1,0.516504299999724,"['c']",1,"left","['0']",6,0.167037700000037,0.2,0,"FastAcc",1,18,"Woman","Right",NA,1,TRUE,TRUE,TRUE,TRUE
41,15,1,0.566649600000346,"['n']",1,"right","['0']",6,0.450396000000183,0.4,0,"FastAcc",1,18,"Woman","Right",NA,1,TRUE,TRUE,TRUE,TRUE
42,15,1,0.867094400000042,"['n']",1,"right","['0']",6,0.300297300000238,0.4,0,"FastAcc",1,18,"Woman","Right",NA,1,TRUE,TRUE,TRUE,TRUE
43,15,1,0.783570999999938,"['c']",1,"left","['0']",6,0.416859500000101,0.2,0,"FastAcc",1,18,"Woman","Right",NA,1,TRUE,TRUE,TRUE,TRUE
44,15,1,0.666234799999984,"['c']",1,"left","['0']",6,0.283820900000137,0.4,0,"FastAcc",1,18,"Woman","Right",NA,1,TRUE,TRUE,TRUE,TRUE
45,15,1,1.35000370000034,"['n']",1,"right","['2']",2,0.517269899999974,0.1,0,"FastAcc",1,18,"Woman","Right",NA,1,TRUE,TRUE,TRUE,TRUE
46,15,1,0.566817400000218,"['n']",1,"right","['0']",6,0.484049299999697,0.4,0,"FastAcc",1,18,"Woman","Right",NA,1,TRUE,TRUE,TRUE,TRUE
47,15,1,1.29987489999985,"['n']",1,"right","['9']",5,0.600642400000197,0.4,0,"FastAcc",1,18,"Woman","Right",NA,1,TRUE,TRUE,TRUE,TRUE
48,15,1,1.24994319999996,"['c']",0,"right","['3']",3,1.0338311999999,0.1,0,"FastAcc",1,18,"Woman","Right",NA,1,TRUE,TRUE,TRUE,TRUE
49,15,1,0.966226699999879,"['c']",1,"left","['0']",6,0.21732959999963,0.4,0,"FastAcc",1,18,"Woman","Right",NA,1,TRUE,TRUE,TRUE,TRUE
50,15,1,1.41728369999964,"['n']",0,"left","['2']",2,0.900502299999971,0.1,0,"FastAcc",1,18,"Woman","Right",NA,1,TRUE,TRUE,TRUE,TRUE
51,15,1,1.18369400000029,"['c']",1,"left","['8']",4,0.800549900000078,0.1,0,"FastAcc",1,18,"Woman","Right",NA,1,TRUE,TRUE,TRUE,TRUE
52,15,1,1.11722569999984,"['n']",1,"right","['0']",6,0.450438200000008,0.4,0,"FastAcc",1,18,"Woman","Right",NA,1,TRUE,TRUE,TRUE,TRUE
53,15,1,1.08347430000003,"['c']",1,"left","['9']",5,0.733963599999697,0.1,0,"FastAcc",1,18,"Woman","Right",NA,1,TRUE,TRUE,TRUE,TRUE
54,15,1,0.866768399999728,"['n']",1,"right","['9']",5,0.58399210000016,0.2,0,"FastAcc",1,18,"Woman","Right",NA,1,TRUE,TRUE,TRUE,TRUE
55,15,1,1.23335750000024,"['c']",1,"left","['9']",5,0.700528899999881,0.1,0,"FastAcc",1,18,"Woman","Right",NA,1,TRUE,TRUE,TRUE,TRUE
56,15,1,1.36593919999996,"['n']",1,"right","['0']",6,0.617148700000143,0.2,0,"FastAcc",1,18,"Woman","Right",NA,1,TRUE,TRUE,TRUE,TRUE
57,15,1,1.63260270000001,"['c']",1,"left","['1']",1,0.450505899999825,0.1,0,"FastAcc",1,18,"Woman","Right",NA,1,TRUE,TRUE,TRUE,TRUE
58,15,1,2.14987870000004,"['n']",0,"left","['2']",2,0.717111099999784,0.1,0,"FastAcc",1,18,"Woman","Right",NA,1,TRUE,TRUE,TRUE,TRUE
59,15,1,2.08316460000015,"['c']",0,"right","['1']",1,0.567253300000175,0.2,0,"FastAcc",1,18,"Woman","Right",NA,1,TRUE,TRUE,TRUE,TRUE
0,4,1,1.15022150000004,"['n']",0,"left","['9']",2,2.88419860000067,0.1,0,"FastFast",2,17,"Woman","Right",NA,16,TRUE,TRUE,TRUE,TRUE
1,4,1,1.24986830000034,"['c']",1,"left","['2']",5,1.20113309999942,0.1,0,"FastFast",2,17,"Woman","Right",NA,16,TRUE,TRUE,TRUE,TRUE
2,4,1,1.28329759999997,"['c']",1,"left","['2']",5,0.550580000000082,0.4,0,"FastFast",2,17,"Woman","Right",NA,16,TRUE,TRUE,TRUE,TRUE
3,4,1,0.900226800000382,"['n']",1,"right","['9']",2,0.800645199999963,0.2,0,"FastFast",2,17,"Woman","Right",NA,16,TRUE,TRUE,TRUE,TRUE
4,4,1,1.06677089999994,"['n']",1,"right","['2']",5,0.601585699999305,0.4,0,"FastFast",2,17,"Woman","Right",NA,16,TRUE,TRUE,TRUE,TRUE
5,4,1,0.966536199999609,"['c']",1,"left","['3']",4,1.03386189999947,0.1,0,"FastFast",2,17,"Woman","Right",NA,16,TRUE,TRUE,TRUE,TRUE
6,4,1,0.934181900000112,"['n']",1,"right","['2']",5,1.45006589999957,0.2,0,"FastFast",2,17,"Woman","Right",NA,16,TRUE,TRUE,TRUE,TRUE
7,4,1,2.10081739999987,"['c']",1,"left","['3']",4,1.88397559999976,0.1,0,"FastFast",2,17,"Woman","Right",NA,16,TRUE,TRUE,TRUE,TRUE
8,4,1,1.41648979999991,"['c']",1,"left","['1']",6,0.817918499999905,0.4,0,"FastFast",2,17,"Woman","Right",NA,16,TRUE,TRUE,TRUE,TRUE
9,4,1,2.01712150000003,"['c']",1,"left","['3']",4,1.31712080000034,0.2,0,"FastFast",2,17,"Woman","Right",NA,16,TRUE,TRUE,TRUE,TRUE
10,4,1,2.23266340000009,"['n']",0,"left","['9']",2,1.46764879999955,0.1,0,"FastFast",2,17,"Woman","Right",NA,16,TRUE,TRUE,TRUE,TRUE
11,4,1,1.58348070000011,"['n']",0,"left","['9']",2,1.11716220000017,0.1,0,"FastFast",2,17,"Woman","Right",NA,16,TRUE,TRUE,TRUE,TRUE
12,4,1,1.53296399999999,"['n']",1,"right","['1']",6,0.90098240000043,0.4,0,"FastFast",2,17,"Woman","Right",NA,16,TRUE,TRUE,TRUE,TRUE
13,4,1,1.31645860000026,"['n']",1,"right","['2']",5,1.08381800000006,0.1,0,"FastFast",2,17,"Woman","Right",NA,16,TRUE,TRUE,TRUE,TRUE
14,4,1,1.03363259999969,"['c']",1,"left","['1']",6,0.500365500000044,0.4,0,"FastFast",2,17,"Woman","Right",NA,16,TRUE,TRUE,TRUE,TRUE
15,4,1,1.23459670000011,"['n']",0,"left","['9']",2,1.71692549999989,0.4,0,"FastFast",2,17,"Woman","Right",NA,16,TRUE,TRUE,TRUE,TRUE
16,4,1,0.732919900000525,"['n']",1,"right","['1']",6,1.15059979999933,0.2,0,"FastFast",2,17,"Woman","Right",NA,16,TRUE,TRUE,TRUE,TRUE
17,4,1,0.899323499999809,"['n']",1,"right","['1']",6,0.500920100000258,0.4,0,"FastFast",2,17,"Woman","Right",NA,16,TRUE,TRUE,TRUE,TRUE
18,4,1,0.767260300000089,"['n']",1,"right","['1']",6,0.801231299999927,0.4,0,"FastFast",2,17,"Woman","Right",NA,16,TRUE,TRUE,TRUE,TRUE
19,4,1,1.8005677000001,"['n']",0,"left","['9']",2,1.46731670000008,0.2,0,"FastFast",2,17,"Woman","Right",NA,16,TRUE,TRUE,TRUE,TRUE
20,4,1,1.40044359999956,"['c']",1,"left","['2']",5,1.31736169999931,0.2,0,"FastFast",2,17,"Woman","Right",NA,16,TRUE,TRUE,TRUE,TRUE
21,4,1,1.16632339999978,"['n']",0,"left","['9']",2,1.26661749999948,0.2,0,"FastFast",2,17,"Woman","Right",NA,16,TRUE,TRUE,TRUE,TRUE
22,4,1,0.617318199999318,"['n']",1,"right","['1']",6,0.784276500000487,0.2,0,"FastFast",2,17,"Woman","Right",NA,16,TRUE,TRUE,TRUE,TRUE
23,4,1,0.716937000000144,"['n']",1,"right","['1']",6,0.500146200000017,0.4,0,"FastFast",2,17,"Woman","Right",NA,16,TRUE,TRUE,TRUE,TRUE
24,4,1,0.600014000000556,"['n']",1,"right","['1']",6,0.434201099999882,0.4,0,"FastFast",2,17,"Woman","Right",NA,16,TRUE,TRUE,TRUE,TRUE
25,4,1,0.866796700000123,"['c']",0,"right","['3']",4,1.43410619999941,0.1,0,"FastFast",2,17,"Woman","Right",NA,16,TRUE,TRUE,TRUE,TRUE
26,4,1,0.699589699999706,"['c']",1,"left","['2']",5,0.767516400000204,0.4,0,"FastFast",2,17,"Woman","Right",NA,16,TRUE,TRUE,TRUE,TRUE
27,4,1,0.93351580000035,"['n']",0,"left","['9']",2,1.18400890000066,0.1,0,"FastFast",2,17,"Woman","Right",NA,16,TRUE,TRUE,TRUE,TRUE
28,4,1,0.783464499999354,"['n']",1,"right","['2']",5,0.834390699999858,0.1,0,"FastFast",2,17,"Woman","Right",NA,16,TRUE,TRUE,TRUE,TRUE
29,4,1,0.683237399999598,"['n']",1,"right","['2']",5,1.51734370000031,0.2,0,"FastFast",2,17,"Woman","Right",NA,16,TRUE,TRUE,TRUE,TRUE
30,4,1,0.76655109999956,"['n']",1,"right","['1']",6,0.583789199999956,0.4,0,"FastFast",2,17,"Woman","Right",NA,16,TRUE,TRUE,TRUE,TRUE
31,4,1,0.783515300000545,"['n']",1,"right","['9']",2,0.933812599999328,0.1,0,"FastFast",2,17,"Woman","Right",NA,16,TRUE,TRUE,TRUE,TRUE
32,4,1,0.750576099999307,"['n']",1,"right","['2']",5,0.783622300000388,0.2,0,"FastFast",2,17,"Woman","Right",NA,16,TRUE,TRUE,TRUE,TRUE
33,4,1,0.93387999999868,"['n']",0,"left","['9']",2,0.684101299999384,0.1,0,"FastFast",2,17,"Woman","Right",NA,16,TRUE,TRUE,TRUE,TRUE
34,4,1,1.14995420000014,"['n']",0,"left","['9']",2,0.684058799999548,0.1,0,"FastFast",2,17,"Woman","Right",NA,16,TRUE,TRUE,TRUE,TRUE
35,4,1,1.03325749999931,"['c']",1,"left","['2']",5,1.4674116999995,0.2,0,"FastFast",2,17,"Woman","Right",NA,16,TRUE,TRUE,TRUE,TRUE
36,4,1,0.817962400000397,"['c']",1,"left","['9']",2,0.951095599999462,0.1,0,"FastFast",2,17,"Woman","Right",NA,16,TRUE,TRUE,TRUE,TRUE
