withinblocktrial,block,block_repetition,rt,resp,cor,cresp,conf_press,cj,rtconf,coherence,metacognition,slow_trial,manipulation,sub,age,gender,handedness,
0,1,1,1.1009658000002673,['n'],0,left,none,-99,-99,0.5,-99,0,none,22,18,Man,Right,
1,1,1,1.0673796999999468,['n'],1,right,none,-99,-99,0.5,-99,0,none,22,18,Man,Right,
2,1,1,1.3843048999997336,['c'],1,left,none,-99,-99,0.5,-99,0,none,22,18,Man,Right,
3,1,1,1.9827024000005622,['n'],0,left,none,-99,-99,0.5,-99,0,none,22,18,Man,Right,
4,1,1,1.3015515000006417,['n'],1,right,none,-99,-99,0.5,-99,0,none,22,18,Man,Right,
5,1,1,0.883588100000452,['n'],0,left,none,-99,-99,0.5,-99,0,none,22,18,Man,Right,
6,1,1,1.5176578999999037,['c'],0,right,none,-99,-99,0.5,-99,0,none,22,18,Man,Right,
7,1,1,2.5175116000000344,['c'],1,left,none,-99,-99,0.5,-99,0,none,22,18,Man,Right,
8,1,1,1.699880299999677,['n'],0,left,none,-99,-99,0.5,-99,0,none,22,18,Man,Right,
9,1,1,1.166846600000099,['n'],1,right,none,-99,-99,0.5,-99,0,none,22,18,Man,Right,
10,1,1,1.6504324999996243,['n'],1,right,none,-99,-99,0.5,-99,0,none,22,18,Man,Right,
11,1,1,1.299497899999551,['c'],1,left,none,-99,-99,0.5,-99,0,none,22,18,Man,Right,
12,1,1,1.0163596000002144,['n'],1,right,none,-99,-99,0.5,-99,0,none,22,18,Man,Right,
13,1,1,1.1001881000001958,['c'],1,left,none,-99,-99,0.5,-99,0,none,22,18,Man,Right,
14,1,1,1.3338474000001952,['n'],1,right,none,-99,-99,0.5,-99,0,none,22,18,Man,Right,
15,1,1,0.9494283000003634,['n'],0,left,none,-99,-99,0.5,-99,0,none,22,18,Man,Right,
16,1,1,1.0346175000004223,['n'],1,right,none,-99,-99,0.5,-99,0,none,22,18,Man,Right,
17,1,1,1.2498396999999386,['c'],1,left,none,-99,-99,0.5,-99,0,none,22,18,Man,Right,
18,1,1,0.8014764999998079,['n'],0,left,none,-99,-99,0.5,-99,0,none,22,18,Man,Right,
19,1,1,0.8335699999997814,['c'],0,right,none,-99,-99,0.5,-99,0,none,22,18,Man,Right,
20,1,1,0.36684520000017073,['n'],1,right,none,-99,-99,0.5,-99,0,none,22,18,Man,Right,
21,1,1,1.2848610999999437,['n'],1,right,none,-99,-99,0.5,-99,0,none,22,18,Man,Right,
22,1,1,1.6330453000000489,['n'],1,right,none,-99,-99,0.5,-99,0,none,22,18,Man,Right,
23,1,1,1.0508059000003414,['c'],1,left,none,-99,-99,0.5,-99,0,none,22,18,Man,Right,
0,1,2,1.617429899999479,['c'],1,left,none,-99,-99,0.5,-99,0,none,22,18,Man,Right,
1,1,2,0.749982799999998,['c'],1,left,none,-99,-99,0.5,-99,0,none,22,18,Man,Right,
2,1,2,0.7179418999994596,['c'],1,left,none,-99,-99,0.5,-99,0,none,22,18,Man,Right,
3,1,2,0.5338191000000734,['n'],1,right,none,-99,-99,0.5,-99,0,none,22,18,Man,Right,
4,1,2,0.5999550999995336,['c'],1,left,none,-99,-99,0.5,-99,0,none,22,18,Man,Right,
5,1,2,0.9008942999998908,['n'],0,left,none,-99,-99,0.5,-99,0,none,22,18,Man,Right,
6,1,2,0.8337006000001566,['n'],1,right,none,-99,-99,0.5,-99,0,none,22,18,Man,Right,
7,1,2,0.9329836000006253,['c'],1,left,none,-99,-99,0.5,-99,0,none,22,18,Man,Right,
8,1,2,0.6999643999997716,['n'],1,right,none,-99,-99,0.5,-99,0,none,22,18,Man,Right,
9,1,2,0.9326396999995268,['c'],1,left,none,-99,-99,0.5,-99,0,none,22,18,Man,Right,
10,1,2,0.7671226999991632,['n'],1,right,none,-99,-99,0.5,-99,0,none,22,18,Man,Right,
11,1,2,1.5166300999999294,['c'],0,right,none,-99,-99,0.5,-99,0,none,22,18,Man,Right,
12,1,2,0.6679067000004579,['n'],0,left,none,-99,-99,0.5,-99,0,none,22,18,Man,Right,
13,1,2,0.7843171000004077,['n'],1,right,none,-99,-99,0.5,-99,0,none,22,18,Man,Right,
14,1,2,0.8995141999994303,['n'],0,left,none,-99,-99,0.5,-99,0,none,22,18,Man,Right,
15,1,2,0.7004114000001209,['c'],1,left,none,-99,-99,0.5,-99,0,none,22,18,Man,Right,
16,1,2,0.8333804000003511,['n'],1,right,none,-99,-99,0.5,-99,0,none,22,18,Man,Right,
17,1,2,0.8670436000002155,['c'],1,left,none,-99,-99,0.5,-99,0,none,22,18,Man,Right,
18,1,2,0.6492600000001403,['n'],1,right,none,-99,-99,0.5,-99,0,none,22,18,Man,Right,
19,1,2,0.8164353999991363,['n'],1,right,none,-99,-99,0.5,-99,0,none,22,18,Man,Right,
20,1,2,0.7672504000001936,['n'],1,right,none,-99,-99,0.5,-99,0,none,22,18,Man,Right,
21,1,2,0.8503741000004084,['n'],0,left,none,-99,-99,0.5,-99,0,none,22,18,Man,Right,
22,1,2,0.6676502999998775,['n'],1,right,none,-99,-99,0.5,-99,0,none,22,18,Man,Right,
23,1,2,1.0168932999995377,['c'],0,right,none,-99,-99,0.5,-99,0,none,22,18,Man,Right,
0,1,3,0.7510144000007131,['n'],1,right,none,-99,-99,0.5,-99,0,none,22,18,Man,Right,
1,1,3,0.817510000000766,['n'],1,right,none,-99,-99,0.5,-99,0,none,22,18,Man,Right,
2,1,3,0.6172030999996423,['c'],1,left,none,-99,-99,0.5,-99,0,none,22,18,Man,Right,
3,1,3,0.5340851000000839,['n'],0,left,none,-99,-99,0.5,-99,0,none,22,18,Man,Right,
4,1,3,0.6674536000000444,['n'],0,left,none,-99,-99,0.5,-99,0,none,22,18,Man,Right,
5,1,3,0.9668096999994304,['n'],0,left,none,-99,-99,0.5,-99,0,none,22,18,Man,Right,
6,1,3,0.4682954999998401,['c'],1,left,none,-99,-99,0.5,-99,0,none,22,18,Man,Right,
7,1,3,0.5333590999998705,['n'],1,right,none,-99,-99,0.5,-99,0,none,22,18,Man,Right,
8,1,3,0.5826984000004813,['n'],1,right,none,-99,-99,0.5,-99,0,none,22,18,Man,Right,
9,1,3,1.0836863000004087,['c'],1,left,none,-99,-99,0.5,-99,0,none,22,18,Man,Right,
10,1,3,0.733572400000412,['n'],1,right,none,-99,-99,0.5,-99,0,none,22,18,Man,Right,
11,1,3,0.8327985000005356,['n'],1,right,none,-99,-99,0.5,-99,0,none,22,18,Man,Right,
12,1,3,0.7167817999998078,['n'],0,left,none,-99,-99,0.5,-99,0,none,22,18,Man,Right,
13,1,3,0.7173878000003242,['n'],1,right,none,-99,-99,0.5,-99,0,none,22,18,Man,Right,
14,1,3,0.5337588000002143,['c'],1,left,none,-99,-99,0.5,-99,0,none,22,18,Man,Right,
15,1,3,0.5003907000000254,['n'],1,right,none,-99,-99,0.5,-99,0,none,22,18,Man,Right,
16,1,3,1.117266500000369,['c'],1,left,none,-99,-99,0.5,-99,0,none,22,18,Man,Right,
17,1,3,0.5173852999996598,['n'],0,left,none,-99,-99,0.5,-99,0,none,22,18,Man,Right,
18,1,3,0.5504899000006844,['n'],1,right,none,-99,-99,0.5,-99,0,none,22,18,Man,Right,
19,1,3,0.6176101000000926,['n'],1,right,none,-99,-99,0.5,-99,0,none,22,18,Man,Right,
20,1,3,0.5513175999994928,['n'],1,right,none,-99,-99,0.5,-99,0,none,22,18,Man,Right,
21,1,3,0.40001109999957407,['n'],0,left,none,-99,-99,0.5,-99,0,none,22,18,Man,Right,
22,1,3,0.6008646000000226,['n'],0,left,none,-99,-99,0.5,-99,0,none,22,18,Man,Right,
23,1,3,0.6680661000000327,['n'],1,right,none,-99,-99,0.5,-99,0,none,22,18,Man,Right,
0,1,4,0.7013299999998708,['n'],0,left,none,-99,-99,0.5,-99,0,none,22,18,Man,Right,
1,1,4,0.6173804000000018,['n'],0,left,none,-99,-99,0.5,-99,0,none,22,18,Man,Right,
2,1,4,0.44987550000041665,['c'],1,left,none,-99,-99,0.5,-99,0,none,22,18,Man,Right,
3,1,4,1.1671666000002006,['c'],1,left,none,-99,-99,0.5,-99,0,none,22,18,Man,Right,
4,1,4,0.7655039000001125,['c'],0,right,none,-99,-99,0.5,-99,0,none,22,18,Man,Right,
5,1,4,0.4169141000002128,['n'],0,left,none,-99,-99,0.5,-99,0,none,22,18,Man,Right,
6,1,4,0.4827666000001045,['n'],1,right,none,-99,-99,0.5,-99,0,none,22,18,Man,Right,
7,1,4,0.7184086999995998,['n'],1,right,none,-99,-99,0.5,-99,0,none,22,18,Man,Right,
8,1,4,0.7506515999994008,['n'],1,right,none,-99,-99,0.5,-99,0,none,22,18,Man,Right,
9,1,4,0.5831005000000005,['n'],0,left,none,-99,-99,0.5,-99,0,none,22,18,Man,Right,
10,1,4,0.800330799999756,['c'],1,left,none,-99,-99,0.5,-99,0,none,22,18,Man,Right,
11,1,4,0.6506787999996959,['n'],0,left,none,-99,-99,0.5,-99,0,none,22,18,Man,Right,
12,1,4,0.7495085999998992,['n'],1,right,none,-99,-99,0.5,-99,0,none,22,18,Man,Right,
13,1,4,1.1338136000003942,['n'],0,left,none,-99,-99,0.5,-99,0,none,22,18,Man,Right,
14,1,4,0.6002043999997113,['n'],1,right,none,-99,-99,0.5,-99,0,none,22,18,Man,Right,
15,1,4,0.8003606000002037,['c'],1,left,none,-99,-99,0.5,-99,0,none,22,18,Man,Right,
16,1,4,0.8841409999995449,['n'],1,right,none,-99,-99,0.5,-99,0,none,22,18,Man,Right,
17,1,4,1.1345602999999755,['c'],0,right,none,-99,-99,0.5,-99,0,none,22,18,Man,Right,
18,1,4,0.33212279999952443,['n'],0,left,none,-99,-99,0.5,-99,0,none,22,18,Man,Right,
19,1,4,0.7342540999998164,['n'],1,right,none,-99,-99,0.5,-99,0,none,22,18,Man,Right,
20,1,4,0.7001092000000426,['n'],1,right,none,-99,-99,0.5,-99,0,none,22,18,Man,Right,
21,1,4,0.6665243999996164,['n'],1,right,none,-99,-99,0.5,-99,0,none,22,18,Man,Right,
22,1,4,0.9676462000006723,['n'],1,right,none,-99,-99,0.5,-99,0,none,22,18,Man,Right,
23,1,4,0.8332313000000795,['n'],0,left,none,-99,-99,0.5,-99,0,none,22,18,Man,Right,
0,1,5,0.5684301999999661,['n'],0,left,none,-99,-99,0.5,-99,0,none,22,18,Man,Right,
1,1,5,0.7163280999993731,['n'],0,left,none,-99,-99,0.5,-99,0,none,22,18,Man,Right,
2,1,5,0.6491185999993832,['n'],0,left,none,-99,-99,0.5,-99,0,none,22,18,Man,Right,
3,1,5,0.7007434999995894,['n'],1,right,none,-99,-99,0.5,-99,0,none,22,18,Man,Right,
4,1,5,0.7833750999998301,['n'],0,left,none,-99,-99,0.5,-99,0,none,22,18,Man,Right,
5,1,5,0.700445800000125,['n'],1,right,none,-99,-99,0.5,-99,0,none,22,18,Man,Right,
6,1,5,0.8684198999999353,['n'],1,right,none,-99,-99,0.5,-99,0,none,22,18,Man,Right,
7,1,5,0.7163788999996541,['c'],1,left,none,-99,-99,0.5,-99,0,none,22,18,Man,Right,
8,1,5,0.6175598999998329,['n'],1,right,none,-99,-99,0.5,-99,0,none,22,18,Man,Right,
9,1,5,1.0337294999999358,['n'],0,left,none,-99,-99,0.5,-99,0,none,22,18,Man,Right,
10,1,5,1.033822300000793,['n'],0,left,none,-99,-99,0.5,-99,0,none,22,18,Man,Right,
11,1,5,0.43407440000009956,['c'],0,right,none,-99,-99,0.5,-99,0,none,22,18,Man,Right,
12,1,5,0.9330799999997907,['n'],0,left,none,-99,-99,0.5,-99,0,none,22,18,Man,Right,
13,1,5,0.5673808000001372,['n'],1,right,none,-99,-99,0.5,-99,0,none,22,18,Man,Right,
14,1,5,1.2343565000001036,['c'],1,left,none,-99,-99,0.5,-99,0,none,22,18,Man,Right,
15,1,5,1.2676425999998173,['n'],0,left,none,-99,-99,0.5,-99,0,none,22,18,Man,Right,
16,1,5,1.4506678000007014,['c'],1,left,none,-99,-99,0.5,-99,0,none,22,18,Man,Right,
17,1,5,1.3832635999997365,['c'],1,left,none,-99,-99,0.5,-99,0,none,22,18,Man,Right,
18,1,5,0.9005067999996754,['n'],1,right,none,-99,-99,0.5,-99,0,none,22,18,Man,Right,
19,1,5,0.8330367999997179,['n'],1,right,none,-99,-99,0.5,-99,0,none,22,18,Man,Right,
20,1,5,0.8014438000000155,['n'],1,right,none,-99,-99,0.5,-99,0,none,22,18,Man,Right,
21,1,5,1.433640799999921,['n'],1,right,none,-99,-99,0.5,-99,0,none,22,18,Man,Right,
22,1,5,0.7342881000004127,['n'],1,right,none,-99,-99,0.5,-99,0,none,22,18,Man,Right,
23,1,5,0.7675678999994489,['n'],1,right,none,-99,-99,0.5,-99,0,none,22,18,Man,Right,
0,1,6,0.6672469999994064,['n'],1,right,none,-99,-99,0.5,-99,0,none,22,18,Man,Right,
1,1,6,0.5842897000002267,['c'],1,left,none,-99,-99,0.5,-99,0,none,22,18,Man,Right,
2,1,6,0.6323964000002888,['n'],1,right,none,-99,-99,0.5,-99,0,none,22,18,Man,Right,
3,1,6,0.8005567999998675,['n'],1,right,none,-99,-99,0.5,-99,0,none,22,18,Man,Right,
4,1,6,0.6177548999994542,['c'],1,left,none,-99,-99,0.5,-99,0,none,22,18,Man,Right,
5,1,6,0.8324915000002875,['c'],1,left,none,-99,-99,0.5,-99,0,none,22,18,Man,Right,
6,1,6,0.783585299999686,['c'],1,left,none,-99,-99,0.5,-99,0,none,22,18,Man,Right,
7,1,6,0.9005337999997209,['c'],1,left,none,-99,-99,0.5,-99,0,none,22,18,Man,Right,
8,1,6,0.7167560999996567,['c'],1,left,none,-99,-99,0.5,-99,0,none,22,18,Man,Right,
9,1,6,0.6682555000006687,['c'],1,left,none,-99,-99,0.5,-99,0,none,22,18,Man,Right,
10,1,6,0.7003203999993275,['c'],1,left,none,-99,-99,0.5,-99,0,none,22,18,Man,Right,
11,1,6,0.5510365000000093,['c'],1,left,none,-99,-99,0.5,-99,0,none,22,18,Man,Right,
12,1,6,0.800879200000054,['n'],1,right,none,-99,-99,0.5,-99,0,none,22,18,Man,Right,
13,1,6,0.5842065000006187,['n'],1,right,none,-99,-99,0.5,-99,0,none,22,18,Man,Right,
14,1,6,0.684406699999272,['n'],1,right,none,-99,-99,0.5,-99,0,none,22,18,Man,Right,
15,1,6,0.5844222000005175,['n'],1,right,none,-99,-99,0.5,-99,0,none,22,18,Man,Right,
16,1,6,0.6827054999994289,['c'],1,left,none,-99,-99,0.5,-99,0,none,22,18,Man,Right,
17,1,6,0.7496341000005486,['n'],1,right,none,-99,-99,0.5,-99,0,none,22,18,Man,Right,
18,1,6,0.6172422999998162,['n'],1,right,none,-99,-99,0.5,-99,0,none,22,18,Man,Right,
19,1,6,1.848877800000082,['c'],1,left,none,-99,-99,0.5,-99,0,none,22,18,Man,Right,
20,1,6,0.533306100000118,['n'],1,right,none,-99,-99,0.5,-99,0,none,22,18,Man,Right,
21,1,6,0.917438100000254,['c'],0,right,none,-99,-99,0.5,-99,0,none,22,18,Man,Right,
22,1,6,0.7175086999995983,['n'],1,right,none,-99,-99,0.5,-99,0,none,22,18,Man,Right,
23,1,6,0.8331848000007085,['n'],0,left,none,-99,-99,0.5,-99,0,none,22,18,Man,Right,
0,2,1,1.0345115999998598,['n'],0,left,none,-99,-99,0.2,-99,0,none,22,18,Man,Right,
1,2,1,1.03404909999972,['c'],1,left,none,-99,-99,0.1,-99,0,none,22,18,Man,Right,
2,2,1,1.4009366000000227,['c'],1,left,none,-99,-99,0.2,-99,0,none,22,18,Man,Right,
3,2,1,0.5839820000001055,['n'],1,right,none,-99,-99,0.4,-99,0,none,22,18,Man,Right,
4,2,1,0.6844925999994302,['c'],1,left,none,-99,-99,0.4,-99,0,none,22,18,Man,Right,
5,2,1,0.3837038000001485,['n'],1,right,none,-99,-99,0.2,-99,0,none,22,18,Man,Right,
6,2,1,0.7495318000001134,['n'],1,right,none,-99,-99,0.4,-99,0,none,22,18,Man,Right,
7,2,1,0.6003637000003437,['n'],1,right,none,-99,-99,0.2,-99,0,none,22,18,Man,Right,
8,2,1,0.6499289000003046,['n'],1,right,none,-99,-99,0.4,-99,0,none,22,18,Man,Right,
9,2,1,1.1334796000001006,['c'],0,right,none,-99,-99,0.1,-99,0,none,22,18,Man,Right,
10,2,1,0.3509228000002622,['n'],1,right,none,-99,-99,0.4,-99,0,none,22,18,Man,Right,
11,2,1,0.2507909000005384,['n'],0,left,none,-99,-99,0.1,-99,0,none,22,18,Man,Right,
12,2,1,0.7170698999998422,['n'],0,left,none,-99,-99,0.1,-99,0,none,22,18,Man,Right,
13,2,1,0.6492437000006248,['n'],1,right,none,-99,-99,0.1,-99,0,none,22,18,Man,Right,
14,2,1,0.9337654999999359,['c'],0,right,none,-99,-99,0.2,-99,0,none,22,18,Man,Right,
15,2,1,0.4338600999999471,['n'],1,right,none,-99,-99,0.2,-99,0,none,22,18,Man,Right,
16,2,1,0.8008914000001823,['n'],0,left,none,-99,-99,0.2,-99,0,none,22,18,Man,Right,
17,2,1,0.632365899999968,['c'],1,left,none,-99,-99,0.1,-99,0,none,22,18,Man,Right,
18,2,1,0.8180323000005956,['n'],0,left,none,-99,-99,0.4,-99,0,none,22,18,Man,Right,
19,2,1,0.5499811999998201,['c'],1,left,none,-99,-99,0.4,-99,0,none,22,18,Man,Right,
20,2,1,0.7330682000001616,['n'],0,left,none,-99,-99,0.4,-99,0,none,22,18,Man,Right,
21,2,1,0.3173098999996,['n'],1,right,none,-99,-99,0.1,-99,0,none,22,18,Man,Right,
22,2,1,0.7325296000008166,['n'],0,left,none,-99,-99,0.2,-99,0,none,22,18,Man,Right,
23,2,1,0.4995761999998649,['n'],1,right,none,-99,-99,0.1,-99,0,none,22,18,Man,Right,
0,3,1,2.584176999999727,['n'],0,left,['u'],0,0.8723533000002135,0.1,1,0,none,22,18,Man,Right,
1,3,1,1.3504699999994045,['n'],1,right,['u'],0,0.8541878000005454,0.4,0,0,none,22,18,Man,Right,
2,3,1,1.9845977000004495,['n'],1,right,['u'],0,0.3632353000002695,0.2,0,0,none,22,18,Man,Right,
3,3,1,2.050301999999647,['c'],1,left,['u'],0,0.6884765000004336,0.1,0,0,none,22,18,Man,Right,
4,3,1,1.6853602000001047,['n'],1,right,['e'],1,0.37613390000024083,0.1,1,0,none,22,18,Man,Right,
5,3,1,3.568760199999815,['n'],1,right,['e'],1,0.5782822999999553,0.4,1,0,none,22,18,Man,Right,
6,3,1,2.1833009000001766,['c'],1,left,['u'],0,0.5540214000002379,0.2,0,0,none,22,18,Man,Right,
7,3,1,3.0169510000005175,['c'],1,left,['u'],0,0.5141309999999066,0.1,0,0,none,22,18,Man,Right,
8,3,1,1.534679899999901,['n'],1,right,['e'],1,0.6299413999995522,0.2,1,0,none,22,18,Man,Right,
9,3,1,1.2170030999996015,['n'],1,right,['e'],1,0.49844819999998435,0.4,1,0,none,22,18,Man,Right,
10,3,1,1.384476899999754,['n'],1,right,['e'],1,0.34940519999963726,0.4,1,0,none,22,18,Man,Right,
11,3,1,1.5000797000002422,['c'],1,left,['u'],0,0.618145899999945,0.4,0,0,none,22,18,Man,Right,
12,3,1,3.0003968999999415,['n'],0,left,['u'],0,0.20733000000018365,0.1,1,0,none,22,18,Man,Right,
13,3,1,1.6165891000000556,['c'],1,left,['e'],1,2.605461600000126,0.4,1,0,none,22,18,Man,Right,
14,3,1,1.5339403999996648,['n'],1,right,['e'],1,0.7825824999999895,0.2,1,0,none,22,18,Man,Right,
15,3,1,1.333854099999371,['c'],1,left,['e'],1,0.3840146000002278,0.4,1,0,none,22,18,Man,Right,
16,3,1,2.0013013999996474,['n'],1,right,['u'],0,0.4070336999993742,0.2,0,0,none,22,18,Man,Right,
17,3,1,2.051103400000102,['c'],1,left,['e'],1,0.7156138000000283,0.2,1,0,none,22,18,Man,Right,
18,3,1,1.5000986999993984,['c'],1,left,['e'],1,0.29765649999990273,0.4,1,0,none,22,18,Man,Right,
19,3,1,1.6172096999998757,['n'],0,left,['u'],0,0.32270949999929144,0.1,1,0,none,22,18,Man,Right,
20,3,1,1.533731099999386,['n'],1,right,['u'],0,0.31954769999993005,0.2,0,0,none,22,18,Man,Right,
21,3,1,1.267899500000567,['n'],1,right,['u'],0,0.3271490000006452,0.1,0,0,none,22,18,Man,Right,
22,3,1,1.2845415000001594,['n'],1,right,['u'],0,0.3162035000004835,0.2,0,0,none,22,18,Man,Right,
23,3,1,2.8327102000002924,['c'],1,left,['u'],0,0.3251897000000099,0.1,0,0,none,22,18,Man,Right,
0,4,1,3.600638099999742,['c'],1,left,['u'],0,1.9132174000005762,0.1,0,0,AccAcc,22,18,Man,Right,
1,4,1,2.6824894000001223,['n'],1,right,['e'],1,1.253139800000099,0.1,1,0,AccAcc,22,18,Man,Right,
2,4,1,4.56494179999936,['n'],1,right,['u'],0,0.6544490999995105,0.2,0,0,AccAcc,22,18,Man,Right,
3,4,1,4.41700739999942,['c'],1,left,['u'],0,0.5179810999998153,0.1,0,0,AccAcc,22,18,Man,Right,
4,4,1,1.1510881000003792,['n'],1,right,['e'],1,0.4535341000000699,0.2,1,0,AccAcc,22,18,Man,Right,
5,4,1,3.3504204000000755,['c'],1,left,['u'],0,0.6081905999999435,0.1,0,0,AccAcc,22,18,Man,Right,
6,4,1,2.5508725999998205,['c'],1,left,['u'],0,0.3410305999996126,0.1,0,0,AccAcc,22,18,Man,Right,
7,4,1,2.5680468999998993,['c'],1,left,['e'],1,0.5802444999999352,0.4,1,0,AccAcc,22,18,Man,Right,
8,4,1,3.434392900000603,['c'],1,left,['e'],1,0.7252097000000504,0.2,1,0,AccAcc,22,18,Man,Right,
9,4,1,2.567691599999307,['c'],1,left,['u'],0,0.7241134999994756,0.1,0,0,AccAcc,22,18,Man,Right,
10,4,1,3.4327728000007482,['n'],1,right,['u'],0,0.4976007999994181,0.1,0,0,AccAcc,22,18,Man,Right,
11,4,1,3.134370100000524,['n'],1,right,['e'],1,0.5471212000002197,0.2,1,0,AccAcc,22,18,Man,Right,
12,4,1,2.7003852999996525,['n'],1,right,['e'],1,0.33849430000009306,0.2,1,0,AccAcc,22,18,Man,Right,
13,4,1,2.0169678000002023,['c'],1,left,['e'],1,0.3749313999996957,0.4,1,0,AccAcc,22,18,Man,Right,
14,4,1,0.9006945999999516,['n'],1,right,['e'],1,0.2947549999998955,0.2,1,0,AccAcc,22,18,Man,Right,
15,4,1,0.901406500000121,['c'],1,left,['e'],1,0.2978130000001329,0.4,1,0,AccAcc,22,18,Man,Right,
16,4,1,1.7508203000006688,['c'],1,left,['u'],0,0.2822071999999025,0.1,0,0,AccAcc,22,18,Man,Right,
17,4,1,1.3341326999998273,['n'],1,right,['e'],1,0.37965879999956087,0.2,1,0,AccAcc,22,18,Man,Right,
18,4,1,1.7992541000003257,['n'],1,right,['u'],0,0.4393043000000034,0.2,0,0,AccAcc,22,18,Man,Right,
19,4,1,1.217833700000483,['n'],1,right,['u'],0,0.18342810000012832,0.1,0,0,AccAcc,22,18,Man,Right,
20,4,1,1.5508294999999634,['c'],1,left,['u'],0,0.32397669999954815,0.2,0,0,AccAcc,22,18,Man,Right,
21,4,1,1.7176659000006111,['c'],1,left,['u'],0,0.22971090000010008,0.1,0,0,AccAcc,22,18,Man,Right,
22,4,1,2.8838831000002756,['n'],1,right,['e'],1,0.5551599999998871,0.4,1,0,AccAcc,22,18,Man,Right,
23,4,1,1.383449500000097,['c'],1,left,['u'],0,1.008208199999899,0.2,0,0,AccAcc,22,18,Man,Right,
24,4,1,2.666946100000132,['n'],1,right,['e'],1,0.4645788999996512,0.2,1,0,AccAcc,22,18,Man,Right,
25,4,1,0.8337517999998454,['c'],1,left,['e'],1,0.2541515000002619,0.4,1,0,AccAcc,22,18,Man,Right,
26,4,1,0.7837752999994336,['n'],1,right,['u'],0,0.23168919999989157,0.2,0,0,AccAcc,22,18,Man,Right,
27,4,1,1.1178392000001622,['c'],1,left,['e'],1,0.41935730000022886,0.2,1,0,AccAcc,22,18,Man,Right,
28,4,1,2.3510034000000815,['c'],1,left,['u'],0,0.24807229999987612,0.2,0,0,AccAcc,22,18,Man,Right,
29,4,1,1.1345291999996334,['n'],1,right,['e'],1,0.17814199999975244,0.2,1,0,AccAcc,22,18,Man,Right,
30,4,1,1.1669880999997986,['n'],1,right,['e'],1,0.2392386000001352,0.4,1,0,AccAcc,22,18,Man,Right,
31,4,1,3.834180599999854,['n'],1,right,['e'],1,0.5270690999996077,0.4,1,0,AccAcc,22,18,Man,Right,
32,4,1,1.5677131000002191,['c'],1,left,['u'],0,0.4781062000001839,0.1,0,0,AccAcc,22,18,Man,Right,
33,4,1,1.8503979000006439,['n'],1,right,['u'],0,0.21189589999994496,0.1,0,0,AccAcc,22,18,Man,Right,
34,4,1,1.6345866000001479,['n'],1,right,['e'],1,0.46029210000051535,0.4,1,0,AccAcc,22,18,Man,Right,
35,4,1,2.4331867999999304,['c'],1,left,['e'],1,0.7953583999997136,0.2,1,0,AccAcc,22,18,Man,Right,
36,4,1,1.684200900000178,['c'],1,left,['u'],0,0.2826585000002524,0.1,0,0,AccAcc,22,18,Man,Right,
37,4,1,1.5346869000004517,['n'],1,right,['e'],1,0.30818530000033206,0.4,1,0,AccAcc,22,18,Man,Right,
38,4,1,1.0341579000005368,['c'],1,left,['e'],1,0.32121809999989637,0.4,1,0,AccAcc,22,18,Man,Right,
39,4,1,1.03404909999972,['c'],1,left,['e'],1,0.22195680000004359,0.1,1,0,AccAcc,22,18,Man,Right,
40,4,1,0.8010657000004358,['n'],1,right,['e'],1,0.3270674000004874,0.4,1,0,AccAcc,22,18,Man,Right,
41,4,1,0.8010022999997091,['c'],1,left,['e'],1,0.23657639999964886,0.2,1,0,AccAcc,22,18,Man,Right,
42,4,1,0.851024900000084,['n'],1,right,['e'],1,0.2916099000003669,0.1,1,0,AccAcc,22,18,Man,Right,
43,4,1,0.6844191999998657,['n'],1,right,['e'],1,0.28733699999975215,0.4,1,0,AccAcc,22,18,Man,Right,
44,4,1,0.7509030000001076,['c'],1,left,['e'],1,0.28041880000000674,0.2,1,0,AccAcc,22,18,Man,Right,
45,4,1,3.43487180000011,['n'],1,right,['u'],0,0.37417009999990114,0.1,0,0,AccAcc,22,18,Man,Right,
46,4,1,3.567591199999697,['c'],1,left,['e'],1,0.7794713000002957,0.4,1,0,AccAcc,22,18,Man,Right,
47,4,1,1.5165578999994977,['n'],1,right,['e'],1,0.3703185000003941,0.4,1,0,AccAcc,22,18,Man,Right,
48,4,1,1.216389000000163,['n'],1,right,['e'],1,0.21405250000043452,0.4,1,0,AccAcc,22,18,Man,Right,
49,4,1,1.2006938000004084,['n'],1,right,['e'],1,0.2548765999999887,0.4,1,0,AccAcc,22,18,Man,Right,
50,4,1,1.0841018999999505,['c'],1,left,['e'],1,0.18740449999950215,0.4,1,0,AccAcc,22,18,Man,Right,
51,4,1,0.7325362000001405,['n'],1,right,['e'],1,0.154160299999603,0.4,1,0,AccAcc,22,18,Man,Right,
52,4,1,0.7506531999997605,['c'],1,left,['e'],1,0.15169890000015585,0.2,1,0,AccAcc,22,18,Man,Right,
53,4,1,2.13413219999984,['n'],0,left,['e'],1,0.3183507000003374,0.1,0,0,AccAcc,22,18,Man,Right,
54,4,1,1.0170152999999118,['n'],0,left,['e'],1,0.17233430000032968,0.1,0,0,AccAcc,22,18,Man,Right,
55,4,1,5.015780199999426,x,-99,right,none,-99,-99,0.1,-99,1,AccAcc,22,18,Man,Right,
56,4,1,0.9998322000001281,['n'],1,right,['e'],1,0.4570631999995385,0.2,1,0,AccAcc,22,18,Man,Right,
57,4,1,1.0177771000007851,['c'],1,left,['e'],1,0.4652170000008482,0.4,1,0,AccAcc,22,18,Man,Right,
58,4,1,1.6338340000002063,['n'],0,left,['u'],0,0.44772370000009687,0.1,1,0,AccAcc,22,18,Man,Right,
59,4,1,1.4334257000000434,['n'],1,right,['e'],1,1.094641199999387,0.4,1,0,AccAcc,22,18,Man,Right,
0,5,1,0.9008183999994799,['n'],0,left,['e'],1,0.35376889999952255,0.2,0,0,FastAcc,22,18,Man,Right,
1,5,1,0.9007947000000058,['n'],0,left,['e'],1,0.20955200000025798,0.1,0,0,FastAcc,22,18,Man,Right,
2,5,1,0.7173982000003889,['n'],1,right,['e'],1,0.09578479999981937,0.2,1,0,FastAcc,22,18,Man,Right,
3,5,1,0.6838713999995889,['c'],1,left,['e'],1,0.1300563000004331,0.1,1,0,FastAcc,22,18,Man,Right,
4,5,1,0.7513257999999041,['n'],1,right,['e'],1,0.43296770000051765,0.4,1,0,FastAcc,22,18,Man,Right,
5,5,1,0.9498742999994647,['c'],1,left,['e'],1,0.1888147999998182,0.4,1,0,FastAcc,22,18,Man,Right,
6,5,1,0.9834610999996585,['n'],0,left,['u'],0,0.2716792000001078,0.4,1,0,FastAcc,22,18,Man,Right,
7,5,1,0.8995545999996466,['n'],1,right,['e'],1,0.4998017999996591,0.4,1,0,FastAcc,22,18,Man,Right,
8,5,1,0.8008924000005209,['c'],1,left,['u'],0,0.417546399999992,0.1,0,0,FastAcc,22,18,Man,Right,
9,5,1,1.8840962000003856,['c'],1,left,['u'],0,0.7280381000000489,0.2,0,0,FastAcc,22,18,Man,Right,
10,5,1,1.1002976999998282,['c'],1,left,['u'],0,0.3697697999996308,0.2,0,0,FastAcc,22,18,Man,Right,
11,5,1,0.7338858000002801,['n'],1,right,['e'],1,0.2171184999997422,0.1,1,0,FastAcc,22,18,Man,Right,
12,5,1,1.401269300000422,['n'],0,left,['e'],1,0.6336322000006476,0.2,0,0,FastAcc,22,18,Man,Right,
13,5,1,1.0833628000000317,['c'],1,left,['e'],1,0.2316619000002902,0.1,1,0,FastAcc,22,18,Man,Right,
14,5,1,0.5677515999996103,['n'],1,right,['e'],1,0.1378501999997752,0.2,1,0,FastAcc,22,18,Man,Right,
15,5,1,0.9836378999998487,['n'],1,right,['e'],1,0.1275922000004357,0.2,1,0,FastAcc,22,18,Man,Right,
16,5,1,1.0340548000003764,['n'],1,right,['e'],1,0.14724280000064027,0.2,1,0,FastAcc,22,18,Man,Right,
17,5,1,0.8340926000000763,['c'],1,left,['e'],1,0.14245949999985896,0.4,1,0,FastAcc,22,18,Man,Right,
18,5,1,0.8676677999992535,['n'],1,right,['e'],1,0.15251119999993534,0.2,1,0,FastAcc,22,18,Man,Right,
19,5,1,0.7670023999999103,['n'],1,right,['e'],1,0.11878479999995761,0.4,1,0,FastAcc,22,18,Man,Right,
20,5,1,1.3834888000001229,['n'],0,left,['u'],0,0.10886769999979151,0.1,1,0,FastAcc,22,18,Man,Right,
21,5,1,0.8003600000001825,['n'],0,left,['u'],0,0.122693999999683,0.1,1,0,FastAcc,22,18,Man,Right,
22,5,1,0.9827594000007593,['n'],1,right,['e'],1,0.14646999999968102,0.2,1,0,FastAcc,22,18,Man,Right,
23,5,1,0.6669558000003235,['n'],1,right,['e'],1,0.14787969999997586,0.1,1,0,FastAcc,22,18,Man,Right,
24,5,1,1.233314899999641,['n'],1,right,['u'],0,0.17477799999960553,0.1,0,0,FastAcc,22,18,Man,Right,
25,5,1,0.9997346999998626,['n'],0,left,['u'],0,0.13041009999960806,0.1,1,0,FastAcc,22,18,Man,Right,
26,5,1,1.7500645999998596,['n'],0,left,['u'],0,0.3131459999995059,0.2,1,0,FastAcc,22,18,Man,Right,
27,5,1,0.8162262999994709,['n'],0,left,['u'],0,0.0944283999997424,0.2,1,0,FastAcc,22,18,Man,Right,
28,5,1,0.683714400000099,['n'],1,right,['e'],1,0.3859463999997388,0.4,1,0,FastAcc,22,18,Man,Right,
29,5,1,0.7512856000003012,['n'],0,left,['e'],1,0.15008280000074592,0.2,0,0,FastAcc,22,18,Man,Right,
30,5,1,1.0169482999999673,['n'],1,right,['e'],1,0.5374801999996635,0.4,1,0,FastAcc,22,18,Man,Right,
31,5,1,0.9329645999996501,['n'],1,right,['e'],1,0.2575526999999056,0.2,1,0,FastAcc,22,18,Man,Right,
32,5,1,1.4830876000005446,['c'],1,left,['u'],0,0.9742838000001939,0.4,0,0,FastAcc,22,18,Man,Right,
33,5,1,0.6997316000006322,['n'],1,right,['e'],1,0.17387349999989965,0.2,1,0,FastAcc,22,18,Man,Right,
34,5,1,1.150532800000292,['n'],1,right,['e'],1,0.5076510999997481,0.4,1,0,FastAcc,22,18,Man,Right,
35,5,1,0.6668091000001368,['n'],0,left,['e'],1,0.09498030000031576,0.4,0,0,FastAcc,22,18,Man,Right,
36,5,1,1.2173633000002155,['n'],0,left,['u'],0,0.1098732000000382,0.1,1,0,FastAcc,22,18,Man,Right,
37,5,1,1.083761400000185,['n'],1,right,['u'],0,0.06435380000039004,0.1,0,0,FastAcc,22,18,Man,Right,
38,5,1,2.9007583999991766,['c'],1,left,['e'],1,0.15606669999942824,0.4,1,0,FastAcc,22,18,Man,Right,
39,5,1,1.134074900000087,['c'],1,left,['u'],0,0.2029445999996824,0.2,0,0,FastAcc,22,18,Man,Right,
40,5,1,1.151122100000066,['c'],1,left,['e'],1,0.13529660000040167,0.4,1,0,FastAcc,22,18,Man,Right,
41,5,1,1.1835178999999698,['n'],1,right,['e'],1,0.13349339999967924,0.1,1,0,FastAcc,22,18,Man,Right,
42,5,1,1.9675656999997955,['c'],1,left,['u'],0,0.0837031000000934,0.1,0,0,FastAcc,22,18,Man,Right,
43,5,1,0.8670870999994804,['n'],1,right,['e'],1,0.11152469999979076,0.4,1,0,FastAcc,22,18,Man,Right,
44,5,1,1.2163735000003726,['n'],1,right,['e'],1,0.1584778999995251,0.4,1,0,FastAcc,22,18,Man,Right,
45,5,1,1.499052600000141,['n'],0,left,['u'],0,0.12687540000024455,0.1,1,0,FastAcc,22,18,Man,Right,
46,5,1,2.6335290999995777,['c'],1,left,['e'],1,0.24283890000060637,0.4,1,0,FastAcc,22,18,Man,Right,
47,5,1,0.5681494999998904,['n'],1,right,['u'],0,0.11631829999987531,0.1,0,0,FastAcc,22,18,Man,Right,
48,5,1,0.36781209999935527,['c'],0,right,['u'],0,0.0834285999999338,0.1,1,0,FastAcc,22,18,Man,Right,
49,5,1,0.4177276000000347,['n'],0,left,['e'],1,0.20960910000030708,0.1,0,0,FastAcc,22,18,Man,Right,
50,5,1,0.31654249999974127,['c'],0,right,['u'],0,0.17545479999989766,0.2,1,0,FastAcc,22,18,Man,Right,
51,5,1,0.550109099999645,['n'],0,left,['e'],1,0.14910349999991013,0.4,0,0,FastAcc,22,18,Man,Right,
52,5,1,0.31691370000044117,['c'],0,right,['u'],0,0.14867820000017673,0.2,1,0,FastAcc,22,18,Man,Right,
53,5,1,0.2512117999995098,['n'],1,right,['e'],1,0.21435249999922235,0.1,1,0,FastAcc,22,18,Man,Right,
54,5,1,0.33358449999923323,['c'],1,left,['e'],1,0.27462820000073407,0.4,1,0,FastAcc,22,18,Man,Right,
55,5,1,0.317656100000022,['n'],1,right,['e'],1,0.31747119999999995,0.1,1,0,FastAcc,22,18,Man,Right,
56,5,1,0.5332378000002791,['c'],0,right,['u'],0,0.20631049999974493,0.4,1,0,FastAcc,22,18,Man,Right,
57,5,1,0.6672013999996125,['n'],0,left,['e'],1,0.2535230000003139,0.2,0,0,FastAcc,22,18,Man,Right,
58,5,1,0.7007590000002892,['n'],1,right,['u'],0,0.2978440999995655,0.2,0,0,FastAcc,22,18,Man,Right,
59,5,1,0.5683546000000206,['c'],0,right,['e'],1,0.21727989999999409,0.4,0,0,FastAcc,22,18,Man,Right,
0,6,1,0.8674902000002476,['c'],0,right,['u'],0,0.11835220000011759,0.2,1,0,FastFast,22,18,Man,Right,
1,6,1,0.2834101999997074,['c'],1,left,['u'],0,0.12049790000037319,0.2,0,0,FastFast,22,18,Man,Right,
2,6,1,0.38309660000049917,['n'],0,left,['u'],0,0.15053160000024945,0.4,1,0,FastFast,22,18,Man,Right,
3,6,1,0.25109900000006746,['c'],1,left,['e'],1,0.15274419999968813,0.1,1,0,FastFast,22,18,Man,Right,
4,6,1,0.26751969999986613,['n'],1,right,['u'],0,0.12229879999995319,0.4,0,0,FastFast,22,18,Man,Right,
5,6,1,0.5838557999995828,['c'],1,left,['e'],1,0.1283845999996629,0.2,1,0,FastFast,22,18,Man,Right,
6,6,1,0.5011888999997609,['n'],1,right,['e'],1,0.24992499999916618,0.1,1,0,FastFast,22,18,Man,Right,
7,6,1,0.766657999999552,['c'],1,left,['u'],0,0.1639604000001782,0.1,0,0,FastFast,22,18,Man,Right,
8,6,1,0.45041570000012143,['n'],1,right,['e'],1,0.1896725000005972,0.4,1,0,FastFast,22,18,Man,Right,
9,6,1,0.7010383999995611,['c'],1,left,['u'],0,0.18804329999966285,0.1,0,0,FastFast,22,18,Man,Right,
10,6,1,0.966233199999806,['n'],1,right,['e'],1,0.24147960000027524,0.2,1,0,FastFast,22,18,Man,Right,
11,6,1,1.4837045000003855,['c'],1,left,['u'],0,0.12619139999969775,0.2,0,0,FastFast,22,18,Man,Right,
12,6,1,0.9500570999998672,['c'],1,left,['e'],1,0.15008660000057716,0.4,1,0,FastFast,22,18,Man,Right,
13,6,1,0.8670500999996875,['n'],1,right,['e'],1,0.14313430000038352,0.1,1,0,FastFast,22,18,Man,Right,
14,6,1,0.6335538000002998,['n'],1,right,['e'],1,0.16276180000022578,0.4,1,0,FastFast,22,18,Man,Right,
15,6,1,0.634234899999683,['c'],0,right,['u'],0,0.19685069999923144,0.1,1,0,FastFast,22,18,Man,Right,
16,6,1,0.6835437999998248,['c'],0,right,['u'],0,0.13203969999995024,0.1,1,0,FastFast,22,18,Man,Right,
17,6,1,0.7179550999999265,['n'],1,right,['e'],1,0.2602759999999762,0.2,1,0,FastFast,22,18,Man,Right,
18,6,1,1.0670655000003535,['c'],1,left,['e'],1,0.12982339999962278,0.4,1,0,FastFast,22,18,Man,Right,
19,6,1,0.8157945000002655,['c'],1,left,['e'],1,0.07931300000018382,0.4,1,0,FastFast,22,18,Man,Right,
20,6,1,0.6676300999997693,['c'],1,left,['u'],0,0.6592306000002282,0.2,0,0,FastFast,22,18,Man,Right,
21,6,1,0.9334036000000197,['n'],1,right,['e'],1,0.19914439999956812,0.1,1,0,FastFast,22,18,Man,Right,
22,6,1,0.7499342000000979,['c'],1,left,['u'],0,0.19466780000038852,0.2,0,0,FastFast,22,18,Man,Right,
23,6,1,1.0675830999998652,['c'],1,left,['u'],0,0.2585745999995197,0.1,0,0,FastFast,22,18,Man,Right,
24,6,1,0.9158746000002793,['n'],1,right,['e'],1,0.1668099999997139,0.4,1,0,FastFast,22,18,Man,Right,
25,6,1,0.8319344999999885,['c'],1,left,['e'],1,0.14561739999953716,0.4,1,0,FastFast,22,18,Man,Right,
26,6,1,0.7656317999999374,['c'],1,left,['e'],1,0.1279661999997188,0.4,1,0,FastFast,22,18,Man,Right,
27,6,1,0.8665952999999718,['n'],1,right,['e'],1,0.17087640000045212,0.4,1,0,FastFast,22,18,Man,Right,
28,6,1,0.6002463000004354,['n'],1,right,['e'],1,0.173482299999705,0.4,1,0,FastFast,22,18,Man,Right,
29,6,1,0.9338599000002432,['n'],0,left,['e'],1,0.18023569999968458,0.1,0,0,FastFast,22,18,Man,Right,
30,6,1,0.6507945999992444,['n'],1,right,['e'],1,0.1644901999998183,0.1,1,0,FastFast,22,18,Man,Right,
31,6,1,0.9177488000004814,['n'],1,right,['e'],1,0.1554004999998142,0.2,1,0,FastFast,22,18,Man,Right,
32,6,1,0.7175426000003426,['n'],0,left,['e'],1,0.1394906000004994,0.1,0,0,FastFast,22,18,Man,Right,
33,6,1,0.883236399999987,['n'],0,left,['e'],1,0.16519630000038887,0.4,0,0,FastFast,22,18,Man,Right,
34,6,1,1.1164042000000336,['c'],1,left,['u'],0,0.22861839999950462,0.2,0,0,FastFast,22,18,Man,Right,
35,6,1,1.0670109000002412,['n'],1,right,['e'],1,0.19574660000034783,0.2,1,0,FastFast,22,18,Man,Right,
36,6,1,0.7171380999998291,['n'],1,right,['e'],1,0.09712969999964116,0.4,1,0,FastFast,22,18,Man,Right,
37,6,1,0.8334316999998919,['c'],1,left,['u'],0,0.14233520000016142,0.2,0,0,FastFast,22,18,Man,Right,
38,6,1,1.0498638999997638,['c'],1,left,['e'],1,0.19387840000035794,0.4,1,0,FastFast,22,18,Man,Right,
39,6,1,0.7494142999994438,['n'],1,right,['u'],0,0.1107467000001634,0.1,0,0,FastFast,22,18,Man,Right,
40,6,1,0.5338517999998658,['c'],0,right,['e'],1,0.0871010999999271,0.2,0,0,FastFast,22,18,Man,Right,
41,6,1,0.3172786000004635,['n'],1,right,['u'],0,0.13792499999999563,0.1,0,0,FastFast,22,18,Man,Right,
42,6,1,0.3832956000005652,['c'],0,right,['u'],0,0.23149689999991097,0.4,1,0,FastFast,22,18,Man,Right,
43,6,1,0.849003399999674,['c'],0,right,['u'],0,0.1743333000003986,0.2,1,0,FastFast,22,18,Man,Right,
44,6,1,0.4158842000006189,['n'],1,right,['e'],1,0.18491590000030556,0.4,1,0,FastFast,22,18,Man,Right,
45,6,1,1.0006536000000779,['c'],1,left,['e'],1,0.23510839999926247,0.2,1,0,FastFast,22,18,Man,Right,
46,6,1,0.5501592000000528,['n'],1,right,['e'],1,0.15850219999992987,0.2,1,0,FastFast,22,18,Man,Right,
47,6,1,0.6497152000001734,['c'],1,left,['e'],1,0.20932839999932185,0.2,1,0,FastFast,22,18,Man,Right,
48,6,1,0.9164296999997532,['n'],0,left,['e'],1,0.47056330000032176,0.1,0,0,FastFast,22,18,Man,Right,
49,6,1,0.8008993000003102,['n'],1,right,['e'],1,0.13373349999983475,0.1,1,0,FastFast,22,18,Man,Right,
50,6,1,0.9162186000003203,['n'],0,left,['e'],1,0.12693710000075953,0.2,0,0,FastFast,22,18,Man,Right,
51,6,1,0.7173103999994055,['n'],1,right,['e'],1,0.19085769999946933,0.1,1,0,FastFast,22,18,Man,Right,
52,6,1,0.8689894999997705,['c'],1,left,['e'],1,0.16710710000006657,0.2,1,0,FastFast,22,18,Man,Right,
53,6,1,0.8505245000005743,['c'],1,left,['e'],1,0.17769289999978355,0.4,1,0,FastFast,22,18,Man,Right,
54,6,1,0.7168556000005992,['n'],1,right,['e'],1,0.30339339999954973,0.2,1,0,FastFast,22,18,Man,Right,
55,6,1,1.2177911999997377,['n'],0,left,['e'],1,0.18245180000030814,0.4,0,0,FastFast,22,18,Man,Right,
56,6,1,0.9663250000003245,['n'],0,left,['e'],1,0.13759200000004057,0.1,0,0,FastFast,22,18,Man,Right,
57,6,1,0.8836854999999559,['n'],1,right,['e'],1,0.1472436000003654,0.1,1,0,FastFast,22,18,Man,Right,
58,6,1,1.0665784000002532,['n'],1,right,['e'],1,0.13387390000025334,0.4,1,0,FastFast,22,18,Man,Right,
59,6,1,0.8330271000004359,['n'],0,left,['u'],0,0.16154679999999644,0.1,1,0,FastFast,22,18,Man,Right,
0,7,1,0.8851471000007223,['n'],1,right,['e'],1,0.2971993000001021,0.1,1,0,AccFast,22,18,Man,Right,
1,7,1,0.6163758000002417,['n'],1,right,['e'],1,0.16791069999999308,0.2,1,0,AccFast,22,18,Man,Right,
2,7,1,0.700468600000022,['n'],0,left,['e'],1,0.1983313000000635,0.1,0,0,AccFast,22,18,Man,Right,
3,7,1,0.8006047000008039,['c'],1,left,['e'],1,0.2565779999995357,0.1,1,0,AccFast,22,18,Man,Right,
4,7,1,0.8177472000006674,['c'],1,left,['u'],0,0.23215030000028491,0.2,0,0,AccFast,22,18,Man,Right,
5,7,1,0.816903299999467,['c'],0,right,['u'],0,0.24103979999927105,0.1,1,0,AccFast,22,18,Man,Right,
6,7,1,0.7838698999994449,['c'],1,left,['e'],1,0.23426459999973304,0.4,1,0,AccFast,22,18,Man,Right,
7,7,1,0.5173950999997032,['n'],1,right,['e'],1,0.6384335000002466,0.4,1,0,AccFast,22,18,Man,Right,
8,7,1,0.9002360999993471,['n'],1,right,['e'],1,0.1952512999996543,0.2,1,0,AccFast,22,18,Man,Right,
9,7,1,3.301014700000451,['c'],0,right,['u'],0,0.1061293000002479,0.2,1,0,AccFast,22,18,Man,Right,
10,7,1,1.0663577999994232,['c'],1,left,['e'],1,0.11102780000055645,0.4,1,0,AccFast,22,18,Man,Right,
11,7,1,0.7675187000004371,['n'],1,right,['e'],1,0.14113829999951122,0.4,1,0,AccFast,22,18,Man,Right,
12,7,1,1.1012491000001319,['n'],1,right,['e'],1,0.09323500000027707,0.1,1,0,AccFast,22,18,Man,Right,
13,7,1,0.7659440000006725,['n'],1,right,['e'],1,0.14165779999984807,0.1,1,0,AccFast,22,18,Man,Right,
14,7,1,0.8010260000000926,['n'],1,right,['e'],1,0.12250959999983024,0.4,1,0,AccFast,22,18,Man,Right,
15,7,1,0.9181480999995983,['n'],1,right,['e'],1,0.1474523999995654,0.4,1,0,AccFast,22,18,Man,Right,
16,7,1,1.0343118999999206,['n'],1,right,['e'],1,0.1503733999998076,0.2,1,0,AccFast,22,18,Man,Right,
17,7,1,1.7000267000003078,['c'],1,left,['u'],0,0.11136589999932767,0.2,0,0,AccFast,22,18,Man,Right,
18,7,1,0.8505513999998584,['n'],1,right,['e'],1,0.20417769999949087,0.2,1,0,AccFast,22,18,Man,Right,
19,7,1,0.8497038999994402,['n'],0,left,['e'],1,0.11539489999995567,0.2,0,0,AccFast,22,18,Man,Right,
20,7,1,0.7673875999998927,['c'],0,right,['u'],0,0.626254599999811,0.2,1,0,AccFast,22,18,Man,Right,
21,7,1,0.8506894000001921,['n'],0,left,['u'],0,0.4905436999997619,0.1,1,0,AccFast,22,18,Man,Right,
22,7,1,0.5519776999999522,['c'],1,left,['e'],1,0.16271060000053694,0.4,1,0,AccFast,22,18,Man,Right,
23,7,1,0.8513017000004766,['n'],1,right,['u'],0,0.22121550000065326,0.1,0,0,AccFast,22,18,Man,Right,
24,7,1,0.6674357000001692,['n'],0,left,['u'],0,0.17153529999995953,0.2,1,0,AccFast,22,18,Man,Right,
25,7,1,0.9509410999999091,['c'],1,left,['u'],0,0.1292697999997472,0.1,0,0,AccFast,22,18,Man,Right,
26,7,1,0.9501101000005292,['n'],1,right,['e'],1,0.13597120000031282,0.4,1,0,AccFast,22,18,Man,Right,
27,7,1,0.5673723999998401,['n'],0,left,['e'],1,0.11065320000034262,0.2,0,0,AccFast,22,18,Man,Right,
28,7,1,0.38271530000019993,['c'],0,right,['u'],0,0.17309890000069572,0.4,1,0,AccFast,22,18,Man,Right,
29,7,1,1.3502645999997185,['n'],1,right,['u'],0,0.30724150000060035,0.1,0,0,AccFast,22,18,Man,Right,
30,7,1,0.950452299999597,['c'],1,left,['e'],1,0.32285049999973126,0.4,1,0,AccFast,22,18,Man,Right,
31,7,1,1.1164717000001474,['c'],1,left,['u'],0,0.07669450000048528,0.2,0,0,AccFast,22,18,Man,Right,
32,7,1,0.7158590999997614,['n'],1,right,['e'],1,0.1268478000001778,0.1,1,0,AccFast,22,18,Man,Right,
33,7,1,1.3332666000005702,['c'],0,right,['u'],0,0.11924249999992753,0.1,1,0,AccFast,22,18,Man,Right,
34,7,1,0.7344360999995843,['c'],1,left,['u'],0,0.10274499999923137,0.1,0,0,AccFast,22,18,Man,Right,
35,7,1,0.7677834999994957,['c'],1,left,['u'],0,0.15127080000002024,0.4,0,0,AccFast,22,18,Man,Right,
36,7,1,0.534202799999548,['n'],1,right,['e'],1,0.3172758000000613,0.2,1,0,AccFast,22,18,Man,Right,
37,7,1,0.7671778000003542,['c'],1,left,['u'],0,0.13282340000023396,0.1,0,0,AccFast,22,18,Man,Right,
38,7,1,1.68484989999979,['c'],1,left,['e'],1,0.20586099999945873,0.4,1,0,AccFast,22,18,Man,Right,
39,7,1,0.8512241000007634,['c'],1,left,['u'],0,0.10230570000021544,0.1,0,0,AccFast,22,18,Man,Right,
40,7,1,1.0334525000007488,['n'],1,right,['e'],1,0.1391193999997995,0.4,1,0,AccFast,22,18,Man,Right,
41,7,1,0.3167388000001665,['c'],1,left,['u'],0,0.20404030000008788,0.2,0,0,AccFast,22,18,Man,Right,
42,7,1,0.5672693000005893,['n'],0,left,['e'],1,0.14299949999985984,0.4,0,0,AccFast,22,18,Man,Right,
43,7,1,0.7163766999992731,['n'],1,right,['u'],0,0.16036540000004607,0.4,0,0,AccFast,22,18,Man,Right,
44,7,1,0.21888050000052317,['c'],0,right,['u'],0,0.1149174000001949,0.1,1,0,AccFast,22,18,Man,Right,
45,7,1,0.40004880000014964,['n'],0,left,['e'],1,0.1288155000002007,0.4,0,0,AccFast,22,18,Man,Right,
46,7,1,0.9343595999998797,['n'],0,left,['e'],1,0.12057350000031875,0.4,0,0,AccFast,22,18,Man,Right,
47,7,1,0.6674253999999564,['n'],1,right,['e'],1,0.14015509999990172,0.2,1,0,AccFast,22,18,Man,Right,
48,7,1,0.30158709999977873,['c'],1,left,['u'],0,0.10904529999970691,0.1,0,0,AccFast,22,18,Man,Right,
49,7,1,0.851365700000315,['c'],0,right,['u'],0,0.1047128000000157,0.4,1,0,AccFast,22,18,Man,Right,
50,7,1,0.7509362000000692,['n'],1,right,['e'],1,0.2970851000000039,0.2,1,0,AccFast,22,18,Man,Right,
51,7,1,1.0678876000001765,['n'],0,left,['e'],1,0.8046307000004163,0.1,0,0,AccFast,22,18,Man,Right,
52,7,1,0.8344966000004206,['c'],1,left,['e'],1,0.1495535000003656,0.4,1,0,AccFast,22,18,Man,Right,
53,7,1,1.1008330000004207,['n'],0,left,['u'],0,0.3097983000006934,0.1,1,0,AccFast,22,18,Man,Right,
54,7,1,0.7508112000004985,['c'],1,left,['e'],1,0.3347502999995413,0.4,1,0,AccFast,22,18,Man,Right,
55,7,1,0.46680000000014843,['n'],0,left,['e'],1,0.5444550000001982,0.2,0,0,AccFast,22,18,Man,Right,
56,7,1,1.066882899999655,['c'],0,right,['e'],1,0.13089270000000397,0.2,0,0,AccFast,22,18,Man,Right,
57,7,1,0.833036500000162,['c'],1,left,['e'],1,0.7503597000004447,0.2,1,0,AccFast,22,18,Man,Right,
58,7,1,2.0835344000006444,['c'],0,right,['u'],0,0.2234665000005407,0.1,1,0,AccFast,22,18,Man,Right,
59,7,1,0.8990871000005427,['c'],0,right,['e'],1,0.1980412000002616,0.2,0,0,AccFast,22,18,Man,Right,
0,8,1,1.1343164999998407,['n'],1,right,['e'],1,0.13632099999995262,0.1,1,0,AccAcc,22,18,Man,Right,
1,8,1,1.3844655000002604,['n'],1,right,['e'],1,0.28610180000032415,0.4,1,0,AccAcc,22,18,Man,Right,
2,8,1,0.7343560999997862,['c'],1,left,['e'],1,0.27993160000005446,0.4,1,0,AccAcc,22,18,Man,Right,
3,8,1,0.667117099999814,['n'],1,right,['e'],1,0.21184449999964272,0.2,1,0,AccAcc,22,18,Man,Right,
4,8,1,0.8999932000006083,['c'],1,left,['e'],1,0.20141010000043025,0.2,1,0,AccAcc,22,18,Man,Right,
5,8,1,2.0324855999997453,['n'],1,right,['e'],1,0.962848600000143,0.4,1,0,AccAcc,22,18,Man,Right,
6,8,1,4.250564299999496,['n'],0,left,['e'],1,0.16565209999953368,0.2,0,0,AccAcc,22,18,Man,Right,
7,8,1,0.35051409999960015,['c'],0,right,['u'],0,0.14672459999928833,0.2,1,0,AccAcc,22,18,Man,Right,
8,8,1,1.0177605999997468,['n'],1,right,['e'],1,0.4218600999993214,0.4,1,0,AccAcc,22,18,Man,Right,
9,8,1,0.9163011000000552,['c'],1,left,['u'],0,0.22791239999969548,0.1,0,0,AccAcc,22,18,Man,Right,
10,8,1,1.2332823000006101,['n'],1,right,['e'],1,0.31568520000018907,0.4,1,0,AccAcc,22,18,Man,Right,
11,8,1,1.6010482000001502,['n'],1,right,['e'],1,0.11301019999973505,0.1,1,0,AccAcc,22,18,Man,Right,
12,8,1,0.8345349999999598,['c'],1,left,['u'],0,0.14230009999937465,0.1,0,0,AccAcc,22,18,Man,Right,
13,8,1,1.0345981999998912,['c'],0,right,['u'],0,0.16067870000006224,0.4,1,0,AccAcc,22,18,Man,Right,
14,8,1,1.6674583000003622,['c'],0,right,['u'],0,0.20310599999993428,0.2,1,0,AccAcc,22,18,Man,Right,
15,8,1,0.8346864000004643,['n'],1,right,['e'],1,0.1793141000007381,0.4,1,0,AccAcc,22,18,Man,Right,
16,8,1,0.8169683000005534,['n'],1,right,['e'],1,0.20599109999966458,0.4,1,0,AccAcc,22,18,Man,Right,
17,8,1,0.7177533999993102,['n'],1,right,['e'],1,0.13914719999957015,0.1,1,0,AccAcc,22,18,Man,Right,
18,8,1,1.0506188999997903,['c'],1,left,['e'],1,0.3029087000004438,0.2,1,0,AccAcc,22,18,Man,Right,
19,8,1,1.3340029999999388,['c'],1,left,['e'],1,0.1272464999992735,0.1,1,0,AccAcc,22,18,Man,Right,
20,8,1,0.8846171000004688,['n'],1,right,['e'],1,0.169369999999617,0.4,1,0,AccAcc,22,18,Man,Right,
21,8,1,1.3171222999999372,['n'],1,right,['e'],1,0.1611086000002615,0.2,1,0,AccAcc,22,18,Man,Right,
22,8,1,0.9177154999997583,['c'],1,left,['e'],1,0.2479366999996273,0.4,1,0,AccAcc,22,18,Man,Right,
23,8,1,0.9839239000002635,['c'],1,left,['e'],1,0.13749769999958517,0.4,1,0,AccAcc,22,18,Man,Right,
24,8,1,0.46877519999998185,"['n', 'c']",0,left,"['u', 'e']",0,0.21139530000073137,0.1,1,0,AccAcc,22,18,Man,Right,
25,8,1,0.3163334999999279,['c'],1,left,['e'],1,0.2900018000000273,0.4,1,0,AccAcc,22,18,Man,Right,
26,8,1,0.5671910000000935,['c'],1,left,['u'],0,0.338275999999496,0.4,0,0,AccAcc,22,18,Man,Right,
27,8,1,1.2666432999994868,['c'],0,right,['u'],0,0.27586500000052183,0.1,1,0,AccAcc,22,18,Man,Right,
28,8,1,0.6180156999998871,['n'],0,left,['e'],1,0.3867869999994582,0.2,0,0,AccAcc,22,18,Man,Right,
29,8,1,0.6011418000007325,['n'],0,left,['e'],1,0.2692400000005364,0.4,0,0,AccAcc,22,18,Man,Right,
30,8,1,0.6008986000006189,['c'],0,right,['u'],0,0.10907289999977365,0.4,1,0,AccAcc,22,18,Man,Right,
31,8,1,0.5841339999997217,['n'],0,left,['e'],1,0.17970249999962107,0.1,0,0,AccAcc,22,18,Man,Right,
32,8,1,0.7013600000000224,['c'],0,right,['u'],0,0.13081469999997353,0.2,1,0,AccAcc,22,18,Man,Right,
33,8,1,0.4670110000006389,['n'],1,right,['u'],0,0.15701630000057776,0.4,0,0,AccAcc,22,18,Man,Right,
34,8,1,0.7342098999997688,['n'],0,left,['e'],1,0.18835570000010193,0.1,0,0,AccAcc,22,18,Man,Right,
35,8,1,0.818151399999806,['n'],0,left,['e'],1,0.16610080000009475,0.1,0,0,AccAcc,22,18,Man,Right,
36,8,1,0.5510303999999451,['n'],1,right,['e'],1,0.1397225000000617,0.2,1,0,AccAcc,22,18,Man,Right,
37,8,1,1.0505309999998644,['n'],0,left,['e'],1,0.19055500000013126,0.2,0,0,AccAcc,22,18,Man,Right,
38,8,1,0.6014847999995254,['c'],1,left,['u'],0,0.8335165999997116,0.4,0,0,AccAcc,22,18,Man,Right,
39,8,1,0.7667148999998972,['n'],0,left,['e'],1,0.14779790000011417,0.2,0,0,AccAcc,22,18,Man,Right,
40,8,1,0.967391599999246,['c'],0,right,['u'],0,0.08979790000012144,0.2,1,0,AccAcc,22,18,Man,Right,
41,8,1,0.5846784000004845,['n'],1,right,['e'],1,0.12905039999986911,0.1,1,0,AccAcc,22,18,Man,Right,
42,8,1,1.5663813000001028,['n'],1,right,['u'],0,0.15946720000010828,0.4,0,0,AccAcc,22,18,Man,Right,
43,8,1,1.2008488999999827,['c'],1,left,['e'],1,0.2039468000002671,0.2,1,0,AccAcc,22,18,Man,Right,
44,8,1,0.6347739000002548,['n'],0,left,['e'],1,0.1727221000001009,0.2,0,0,AccAcc,22,18,Man,Right,
45,8,1,0.6844923999997263,['n'],0,left,['e'],1,0.15693559999999707,0.1,0,0,AccAcc,22,18,Man,Right,
46,8,1,0.6330032000005303,['n'],1,right,['e'],1,0.16021250000085274,0.2,1,0,AccAcc,22,18,Man,Right,
47,8,1,1.601102699999501,['c'],1,left,['u'],0,0.15596319999986008,0.1,0,0,AccAcc,22,18,Man,Right,
48,8,1,0.6676330999998754,['n'],1,right,['e'],1,0.17373829999996815,0.2,1,0,AccAcc,22,18,Man,Right,
49,8,1,1.1009261999997761,['n'],1,right,['e'],1,0.12526730000081443,0.1,1,0,AccAcc,22,18,Man,Right,
50,8,1,0.9005392999997639,['n'],1,right,['e'],1,0.13518569999996544,0.2,1,0,AccAcc,22,18,Man,Right,
51,8,1,1.6174295000000711,['n'],1,right,['e'],1,0.13140049999947223,0.4,1,0,AccAcc,22,18,Man,Right,
52,8,1,1.4176251999997476,['c'],1,left,['e'],1,0.35973439999997936,0.2,1,0,AccAcc,22,18,Man,Right,
53,8,1,0.7511251000005359,['n'],0,left,['e'],1,0.15784340000027441,0.2,0,0,AccAcc,22,18,Man,Right,
54,8,1,0.866175000000112,['n'],1,right,['e'],1,0.10473679999995511,0.1,1,0,AccAcc,22,18,Man,Right,
55,8,1,1.1183020999997098,['c'],1,left,['e'],1,0.08902190000026167,0.1,1,0,AccAcc,22,18,Man,Right,
56,8,1,1.1500513999999384,['n'],1,right,['e'],1,0.13798680000036256,0.4,1,0,AccAcc,22,18,Man,Right,
57,8,1,1.0843817999993917,['c'],1,left,['e'],1,0.12379779999992024,0.1,1,0,AccAcc,22,18,Man,Right,
58,8,1,0.9347260000004098,['c'],1,left,['e'],1,0.1319376999999804,0.1,1,0,AccAcc,22,18,Man,Right,
59,8,1,0.8013210999997682,['n'],0,left,['e'],1,0.12849720000031084,0.1,0,0,AccAcc,22,18,Man,Right,
0,9,1,2.016106399999444,['n'],0,left,['e'],1,0.10591269999986253,0.1,0,0,FastAcc,22,18,Man,Right,
1,9,1,0.3173503999996683,['c'],0,right,['u'],0,0.09162609999930282,0.2,1,0,FastAcc,22,18,Man,Right,
2,9,1,0.29946819999986474,['n'],1,right,['e'],1,0.030252999999902386,0.4,1,0,FastAcc,22,18,Man,Right,
3,9,1,0.5337606000002779,['c'],0,right,['u'],0,0.05775229999926523,0.2,1,0,FastAcc,22,18,Man,Right,
4,9,1,0.26699360000020533,['n'],1,right,['e'],1,0.7990755999999237,0.4,1,0,FastAcc,22,18,Man,Right,
5,9,1,0.31665090000024065,['c'],0,right,['u'],0,0.08512849999988248,0.2,1,0,FastAcc,22,18,Man,Right,
6,9,1,0.3171883000004527,['n'],0,left,['e'],1,0.13494360000004235,0.4,0,0,FastAcc,22,18,Man,Right,
7,9,1,0.13345420000041486,['c'],1,left,['e'],1,0.12649929999952292,0.4,1,0,FastAcc,22,18,Man,Right,
8,9,1,0.34969569999975647,['n'],0,left,['e'],1,0.15825070000028063,0.4,0,0,FastAcc,22,18,Man,Right,
9,9,1,0.2511455999992904,['n'],0,left,['e'],1,0.14457560000028025,0.2,0,0,FastAcc,22,18,Man,Right,
10,9,1,0.23381380000046192,['n'],1,right,['e'],1,0.3400343999992401,0.1,1,0,FastAcc,22,18,Man,Right,
11,9,1,0.31686160000026575,['n'],0,left,['e'],1,0.1562301000003572,0.4,0,0,FastAcc,22,18,Man,Right,
12,9,1,0.2502730000005613,['c'],0,right,['u'],0,0.12636639999982435,0.2,1,0,FastAcc,22,18,Man,Right,
13,9,1,0.28406449999965844,['c'],1,left,['u'],0,0.11238149999917368,0.2,0,0,FastAcc,22,18,Man,Right,
14,9,1,0.2666057999995246,['c'],1,left,['e'],1,0.11610950000067533,0.1,1,0,FastAcc,22,18,Man,Right,
15,9,1,0.3171786000002612,['n'],0,left,['u'],0,0.18088390000048093,0.4,1,0,FastAcc,22,18,Man,Right,
16,9,1,0.3498270999998567,['n'],1,right,['u'],0,0.19387000000006083,0.1,0,0,FastAcc,22,18,Man,Right,
17,9,1,0.3167306000004828,['n'],1,right,['e'],1,0.19224920000033308,0.2,1,0,FastAcc,22,18,Man,Right,
18,9,1,0.38362210000013874,['n'],0,left,['e'],1,0.13972050000029412,0.4,0,0,FastAcc,22,18,Man,Right,
19,9,1,0.2514643000004071,['n'],0,left,['e'],1,0.17353780000030383,0.4,0,0,FastAcc,22,18,Man,Right,
20,9,1,0.25143519999983255,['n'],1,right,['e'],1,0.1760389999999461,0.2,1,0,FastAcc,22,18,Man,Right,
21,9,1,0.18397100000038336,['n'],1,right,['u'],0,0.16333670000040001,0.2,0,0,FastAcc,22,18,Man,Right,
22,9,1,0.09966420000000653,['c'],1,left,['u'],0,0.13973230000010517,0.1,0,0,FastAcc,22,18,Man,Right,
23,9,1,0.28401320000011765,['c'],0,right,['u'],0,0.14144840000062686,0.4,1,0,FastAcc,22,18,Man,Right,
24,9,1,0.2992468000002191,['n'],0,left,['u'],0,0.14251860000058514,0.1,1,0,FastAcc,22,18,Man,Right,
25,9,1,0.1829821000001175,['n'],0,left,['u'],0,0.17940509999971255,0.4,1,0,FastAcc,22,18,Man,Right,
26,9,1,0.6664634999997361,['n'],0,left,['u'],0,0.10018109999964508,0.4,1,0,FastAcc,22,18,Man,Right,
27,9,1,0.2661090999999942,['n'],1,right,['e'],1,0.18342529999972612,0.4,1,0,FastAcc,22,18,Man,Right,
28,9,1,0.2838648999995712,['c'],0,right,['e'],1,0.1349755000001096,0.2,0,0,FastAcc,22,18,Man,Right,
29,9,1,0.3854360999994242,['c'],0,right,['e'],1,0.22815480000008392,0.2,0,0,FastAcc,22,18,Man,Right,
30,9,1,0.36797050000041054,['n'],1,right,['e'],1,0.43037619999995513,0.1,1,0,FastAcc,22,18,Man,Right,
31,9,1,0.4178828000003705,['c'],0,right,['e'],1,0.20668790000036097,0.4,0,0,FastAcc,22,18,Man,Right,
32,9,1,0.45100209999964136,['n'],1,right,['u'],0,0.15104350000001432,0.1,0,0,FastAcc,22,18,Man,Right,
33,9,1,0.13419919999978447,['n'],0,left,['u'],0,0.1737515999993775,0.1,1,0,FastAcc,22,18,Man,Right,
34,9,1,0.0845486999996865,['c'],1,left,['u'],0,0.10199259999990318,0.4,0,0,FastAcc,22,18,Man,Right,
35,9,1,0.23439430000053108,['c'],1,left,['e'],1,0.09093969999958063,0.1,1,0,FastAcc,22,18,Man,Right,
36,9,1,0.0676605999997264,['n'],1,right,['u'],0,0.16718109999965236,0.1,0,0,FastAcc,22,18,Man,Right,
37,9,1,0.5338222000000314,['n'],0,left,['u'],0,0.23718659999940428,0.2,1,0,FastAcc,22,18,Man,Right,
38,9,1,0.5346286000003602,['c'],0,right,['u'],0,0.11275360000036017,0.2,1,0,FastAcc,22,18,Man,Right,
39,9,1,0.36697210000056657,['c'],0,right,['u'],0,0.11176489999979822,0.4,1,0,FastAcc,22,18,Man,Right,
40,9,1,0.46802589999970223,['n'],1,right,['e'],1,0.18713239999942743,0.2,1,0,FastAcc,22,18,Man,Right,
41,9,1,0.2511651000004349,['n'],0,left,['e'],1,0.22012830000039685,0.2,0,0,FastAcc,22,18,Man,Right,
42,9,1,0.7999648000004527,['c'],1,left,['u'],0,0.11817160000009608,0.1,0,0,FastAcc,22,18,Man,Right,
43,9,1,0.33356689999982336,['n'],0,left,['e'],1,0.1342279000000417,0.1,0,0,FastAcc,22,18,Man,Right,
44,9,1,0.06781540000065434,['c'],0,right,['u'],0,0.08017800000015995,0.2,1,0,FastAcc,22,18,Man,Right,
45,9,1,0.19973399999980757,['n'],0,left,['e'],1,0.11926339999990887,0.1,0,0,FastAcc,22,18,Man,Right,
46,9,1,0.0676235999999335,['c'],0,right,['u'],0,0.17781680000007327,0.4,1,0,FastAcc,22,18,Man,Right,
47,9,1,0.35040359999948123,['n'],0,left,['e'],1,0.36753500000031636,0.2,0,0,FastAcc,22,18,Man,Right,
48,9,1,0.44993000000067696,['c'],0,right,['u'],0,0.24093420000008337,0.1,1,0,FastAcc,22,18,Man,Right,
49,9,1,0.283735500000148,['c'],0,right,['u'],0,0.09470109999983833,0.1,1,0,FastAcc,22,18,Man,Right,
50,9,1,0.2679507000002559,['n'],1,right,['e'],1,0.09939680000024964,0.4,1,0,FastAcc,22,18,Man,Right,
51,9,1,0.2844452999997884,['n'],1,right,['e'],1,0.19807070000024396,0.1,1,0,FastAcc,22,18,Man,Right,
52,9,1,0.30110160000003816,['c'],1,left,['u'],0,0.09968939999998838,0.2,0,0,FastAcc,22,18,Man,Right,
53,9,1,0.3508375999999771,['c'],1,left,['u'],0,0.08413500000006024,0.2,0,0,FastAcc,22,18,Man,Right,
54,9,1,0.31657429999995657,['n'],1,right,['e'],1,0.2948531999991246,0.1,1,0,FastAcc,22,18,Man,Right,
55,9,1,0.4846819000003961,['n'],1,right,['e'],1,0.1697853000005125,0.4,1,0,FastAcc,22,18,Man,Right,
56,9,1,0.5501260000000912,['n'],0,left,['e'],1,0.2239705000001777,0.1,0,0,FastAcc,22,18,Man,Right,
57,9,1,0.2668416000005891,['n'],0,left,['e'],1,0.17485649999980524,0.1,0,0,FastAcc,22,18,Man,Right,
58,9,1,0.3341632000001482,['n'],0,left,['e'],1,0.17263790000015433,0.2,0,0,FastAcc,22,18,Man,Right,
59,9,1,0.0845619000001534,['n'],0,left,['e'],1,0.22870770000008633,0.4,0,0,FastAcc,22,18,Man,Right,
0,10,1,0.6011062999996284,['n'],0,left,['u'],0,0.2969365999997535,0.4,1,0,FastFast,22,18,Man,Right,
1,10,1,0.28298520000043936,['n'],1,right,['e'],1,0.14849940000021888,0.4,1,0,FastFast,22,18,Man,Right,
2,10,1,0.26787439999952767,['n'],0,left,['e'],1,0.1493491000001086,0.4,0,0,FastFast,22,18,Man,Right,
3,10,1,0.31784929999957967,['n'],0,left,['e'],1,0.13292999999976018,0.1,0,0,FastFast,22,18,Man,Right,
4,10,1,0.25110810000023776,['n'],0,left,['e'],1,0.15180929999951331,0.4,0,0,FastFast,22,18,Man,Right,
5,10,1,0.2829338000001371,['n'],1,right,['e'],1,0.32971360000010463,0.1,1,0,FastFast,22,18,Man,Right,
6,10,1,0.3330070000001797,['n'],1,right,['e'],1,0.08152760000029957,0.1,1,0,FastFast,22,18,Man,Right,
7,10,1,0.151072299999214,['n'],1,right,['e'],1,0.07343409999975847,0.1,1,0,FastFast,22,18,Man,Right,
8,10,1,0.25208870000005845,['n'],1,right,['e'],1,1.086631699999998,0.4,1,0,FastFast,22,18,Man,Right,
9,10,1,0.2337214999997741,['n'],0,left,['e'],1,0.20558540000001813,0.2,0,0,FastFast,22,18,Man,Right,
10,10,1,0.23370559999966645,['n'],1,right,['e'],1,0.17340370000056282,0.2,1,0,FastFast,22,18,Man,Right,
11,10,1,0.23358490000009624,['n'],1,right,['e'],1,0.11126520000016171,0.4,1,0,FastFast,22,18,Man,Right,
12,10,1,0.18293230000017502,['n'],0,left,['e'],1,0.18325699999968492,0.1,0,0,FastFast,22,18,Man,Right,
13,10,1,0.049778699999478704,['n'],1,right,['e'],1,0.1601289000000179,0.1,1,0,FastFast,22,18,Man,Right,
14,10,1,0.19864250000046013,['n'],0,left,['e'],1,0.21230930000001536,0.1,0,0,FastFast,22,18,Man,Right,
15,10,1,0.5508473999998387,['n'],0,left,['e'],1,0.15236629999981233,0.2,0,0,FastFast,22,18,Man,Right,
16,10,1,0.24964920000002166,['n'],1,right,['e'],1,0.18664159999934782,0.4,1,0,FastFast,22,18,Man,Right,
17,10,1,0.25050889999965875,['n'],1,right,['e'],1,0.17074380000030942,0.4,1,0,FastFast,22,18,Man,Right,
18,10,1,0.4327746999997544,['n'],1,right,['e'],1,0.18153830000028393,0.1,1,0,FastFast,22,18,Man,Right,
19,10,1,0.31692719999955443,['n'],0,left,['e'],1,0.14748099999997066,0.4,0,0,FastFast,22,18,Man,Right,
20,10,1,0.2677246000002924,['n'],0,left,['e'],1,0.1808323000004748,0.2,0,0,FastFast,22,18,Man,Right,
21,10,1,0.1834657999997944,['n'],1,right,['e'],1,0.18503180000061548,0.1,1,0,FastFast,22,18,Man,Right,
22,10,1,0.2672753000006196,['n'],0,left,['e'],1,0.16827699999976176,0.2,0,0,FastFast,22,18,Man,Right,
23,10,1,0.33535759999995207,['n'],1,right,['e'],1,0.18229249999967578,0.4,1,0,FastFast,22,18,Man,Right,
24,10,1,0.41778380000050674,['n'],1,right,['e'],1,0.1605718999999226,0.4,1,0,FastFast,22,18,Man,Right,
25,10,1,0.26722760000029666,['n'],0,left,['e'],1,0.14668059999985417,0.4,0,0,FastFast,22,18,Man,Right,
26,10,1,0.26656589999947755,['n'],1,right,['e'],1,0.14891160000024684,0.2,1,0,FastFast,22,18,Man,Right,
27,10,1,0.34872079999968264,['n'],1,right,['e'],1,0.16322330000002694,0.2,1,0,FastFast,22,18,Man,Right,
28,10,1,0.30239419999998063,['n'],1,right,['e'],1,0.17833390000032523,0.2,1,0,FastFast,22,18,Man,Right,
29,10,1,0.38319680000040535,['n'],1,right,['e'],1,0.14219110000067303,0.2,1,0,FastFast,22,18,Man,Right,
30,10,1,0.38399740000022575,['n'],1,right,['e'],1,0.15532640000037645,0.2,1,0,FastFast,22,18,Man,Right,
31,10,1,0.6501295000007303,['n'],0,left,['e'],1,0.17465240000001359,0.1,0,0,FastFast,22,18,Man,Right,
32,10,1,0.25022900000021764,['n'],0,left,['e'],1,0.17566470000019763,0.4,0,0,FastFast,22,18,Man,Right,
33,10,1,0.30130839999947057,['n'],0,left,['e'],1,0.1750785000003816,0.1,0,0,FastFast,22,18,Man,Right,
34,10,1,0.3171189000004233,['n'],1,right,['e'],1,0.15871079999942594,0.2,1,0,FastFast,22,18,Man,Right,
35,10,1,0.30079729999943083,['n'],1,right,['e'],1,0.2868988999998692,0.1,1,0,FastFast,22,18,Man,Right,
36,10,1,0.6683917000000292,['n'],0,left,['e'],1,0.17020880000018224,0.2,0,0,FastFast,22,18,Man,Right,
37,10,1,0.41769639999984065,['n'],0,left,['e'],1,0.18093529999987368,0.2,0,0,FastFast,22,18,Man,Right,
38,10,1,0.26687589999983174,['n'],1,right,['e'],1,0.13362150000011752,0.1,1,0,FastFast,22,18,Man,Right,
39,10,1,0.2505240999998932,['n'],1,right,['e'],1,0.13616210000054707,0.4,1,0,FastFast,22,18,Man,Right,
40,10,1,0.41856909999933123,['n'],1,right,['e'],1,0.16419039999982488,0.2,1,0,FastFast,22,18,Man,Right,
41,10,1,0.23474609999993845,['n'],1,right,['e'],1,0.11841170000025159,0.4,1,0,FastFast,22,18,Man,Right,
42,10,1,0.48516810000000987,['n'],0,left,['e'],1,0.17753650000031485,0.2,0,0,FastFast,22,18,Man,Right,
43,10,1,0.28413540000019566,['n'],0,left,['e'],1,0.16094470000007277,0.4,0,0,FastFast,22,18,Man,Right,
44,10,1,0.26765330000034737,['n'],0,left,['e'],1,0.11442799999986164,0.2,0,0,FastFast,22,18,Man,Right,
45,10,1,0.7496839999994336,['n'],0,left,['e'],1,0.13040529999943828,0.2,0,0,FastFast,22,18,Man,Right,
46,10,1,0.18396389999998064,['n'],0,left,['e'],1,0.08906320000005508,0.2,0,0,FastFast,22,18,Man,Right,
47,10,1,0.35253799999918556,['n'],1,right,['e'],1,0.12071649999961664,0.4,1,0,FastFast,22,18,Man,Right,
48,10,1,0.43377520000012737,['n'],0,left,['e'],1,0.3247919000004913,0.4,0,0,FastFast,22,18,Man,Right,
49,10,1,0.5844045000003462,['n'],0,left,['e'],1,0.09891400000014983,0.4,0,0,FastFast,22,18,Man,Right,
50,10,1,0.3514611000000514,['n'],0,left,['e'],1,0.1791284999999334,0.1,0,0,FastFast,22,18,Man,Right,
51,10,1,0.3505282000005536,['n'],0,left,['e'],1,0.17708089999996446,0.1,0,0,FastFast,22,18,Man,Right,
52,10,1,0.45124180000038905,['n'],1,right,['e'],1,0.15343250000023545,0.1,1,0,FastFast,22,18,Man,Right,
53,10,1,0.5499141000000236,['n'],1,right,['e'],1,0.1922975999996197,0.1,1,0,FastFast,22,18,Man,Right,
54,10,1,0.317238599999655,['n'],0,left,['e'],1,0.17393710000033025,0.4,0,0,FastFast,22,18,Man,Right,
55,10,1,0.31702990000030695,['n'],1,right,['e'],1,0.18925269999999728,0.2,1,0,FastFast,22,18,Man,Right,
56,10,1,0.3010548000002018,['n'],0,left,['e'],1,0.1877500999999029,0.2,0,0,FastFast,22,18,Man,Right,
57,10,1,0.2842750999998316,['n'],0,left,['e'],1,0.17117270000017015,0.1,0,0,FastFast,22,18,Man,Right,
58,10,1,0.30100470000070345,['n'],0,left,['e'],1,0.13900499999999738,0.1,0,0,FastFast,22,18,Man,Right,
59,10,1,0.3522127000005639,['n'],1,right,['e'],1,0.1856594999999288,0.1,1,0,FastFast,22,18,Man,Right,
0,11,1,0.3505292999998346,['n'],0,left,['e'],1,0.12553319999915402,0.2,0,0,AccFast,22,18,Man,Right,
1,11,1,0.25169889999961015,['n'],1,right,['e'],1,0.11284149999937654,0.1,1,0,AccFast,22,18,Man,Right,
2,11,1,0.25085910000052536,['n'],0,left,['e'],1,0.19633339999927557,0.2,0,0,AccFast,22,18,Man,Right,
3,11,1,0.20077430000037566,['n'],0,left,['e'],1,0.18242019999979675,0.4,0,0,AccFast,22,18,Man,Right,
4,11,1,0.16808420000052138,['n'],1,right,['e'],1,0.12271310000051017,0.4,1,0,AccFast,22,18,Man,Right,
5,11,1,0.5342902000002141,['n'],0,left,['e'],1,0.09892880000006699,0.1,0,0,AccFast,22,18,Man,Right,
6,11,1,0.25070009999944887,['n'],1,right,['e'],1,0.11942940000062663,0.2,1,0,AccFast,22,18,Man,Right,
7,11,1,0.2015118999997867,['n'],0,left,['e'],1,0.1564768999996886,0.1,0,0,AccFast,22,18,Man,Right,
8,11,1,0.25133980000009615,['n'],0,left,['e'],1,0.22279700000035518,0.2,0,0,AccFast,22,18,Man,Right,
9,11,1,0.517483299999185,['n'],0,left,['e'],1,0.16375189999962458,0.4,0,0,AccFast,22,18,Man,Right,
10,11,1,0.25054809999983263,['n'],1,right,['e'],1,0.18163189999995666,0.4,1,0,AccFast,22,18,Man,Right,
11,11,1,0.25069770000027347,['n'],1,right,['e'],1,0.19825739999942016,0.2,1,0,AccFast,22,18,Man,Right,
12,11,1,0.2508735000001252,['n'],0,left,['e'],1,0.1664256000003661,0.1,0,0,AccFast,22,18,Man,Right,
13,11,1,0.19958889999998064,['n'],1,right,['e'],1,0.21847299999990355,0.2,1,0,AccFast,22,18,Man,Right,
14,11,1,0.23403380000036123,['n'],0,left,['e'],1,0.18631570000070496,0.1,0,0,AccFast,22,18,Man,Right,
15,11,1,0.3341336000003139,['n'],0,left,['e'],1,0.15232370000012452,0.4,0,0,AccFast,22,18,Man,Right,
16,11,1,0.4004400000003443,['n'],0,left,['e'],1,0.18000469999969937,0.1,0,0,AccFast,22,18,Man,Right,
17,11,1,0.28408610000042245,['n'],0,left,['e'],1,0.1476596000002246,0.1,0,0,AccFast,22,18,Man,Right,
18,11,1,0.3675370999999359,['n'],1,right,['e'],1,0.19332279999980528,0.2,1,0,AccFast,22,18,Man,Right,
19,11,1,0.4676548000006733,['n'],1,right,['e'],1,0.2014576000001398,0.2,1,0,AccFast,22,18,Man,Right,
20,11,1,0.3345850999994582,['n'],1,right,['e'],1,0.19857330000013462,0.2,1,0,AccFast,22,18,Man,Right,
21,11,1,0.2845297000003484,['n'],1,right,['e'],1,0.13341220000074827,0.1,1,0,AccFast,22,18,Man,Right,
22,11,1,0.5342048000002251,['n'],1,right,['e'],1,0.1244286999999531,0.4,1,0,AccFast,22,18,Man,Right,
23,11,1,0.6327455999999074,['n'],0,left,['e'],1,0.13001140000051237,0.4,0,0,AccFast,22,18,Man,Right,
24,11,1,0.3346480000000156,['n'],1,right,['e'],1,0.12861310000062076,0.1,1,0,AccFast,22,18,Man,Right,
25,11,1,0.4169981999993979,['n'],1,right,['e'],1,0.12460329999976238,0.2,1,0,AccFast,22,18,Man,Right,
26,11,1,0.3341012999999293,['n'],1,right,['e'],1,0.18883010000081413,0.1,1,0,AccFast,22,18,Man,Right,
27,11,1,0.30081719999998313,['n'],0,left,['e'],1,0.15558899999996356,0.2,0,0,AccFast,22,18,Man,Right,
28,11,1,0.2844913999997516,['n'],1,right,['e'],1,0.15653029999975843,0.4,1,0,AccFast,22,18,Man,Right,
29,11,1,0.2846278999995775,['n'],1,right,['e'],1,0.10972519999995711,0.2,1,0,AccFast,22,18,Man,Right,
30,11,1,0.3171205999997255,['n'],0,left,['e'],1,0.1428688999994847,0.2,0,0,AccFast,22,18,Man,Right,
31,11,1,0.3000015000006897,['n'],1,right,['e'],1,0.1277975000002698,0.4,1,0,AccFast,22,18,Man,Right,
32,11,1,0.2510516000002099,['n'],1,right,['e'],1,0.13140719999955763,0.4,1,0,AccFast,22,18,Man,Right,
33,11,1,0.30110249999961525,['n'],0,left,['e'],1,0.11624810000012076,0.2,0,0,AccFast,22,18,Man,Right,
34,11,1,0.26788720000058674,['n'],1,right,['e'],1,0.15122450000035315,0.4,1,0,AccFast,22,18,Man,Right,
35,11,1,0.2505252000000837,['n'],0,left,['e'],1,0.17006709999986924,0.4,0,0,AccFast,22,18,Man,Right,
36,11,1,0.20108410000011645,['n'],0,left,['e'],1,0.20512460000009014,0.1,0,0,AccFast,22,18,Man,Right,
37,11,1,0.2177934000001187,['n'],0,left,['e'],1,0.23848180000004504,0.2,0,0,AccFast,22,18,Man,Right,
38,11,1,0.3180474000000686,['n'],1,right,['e'],1,0.1545947000004162,0.1,1,0,AccFast,22,18,Man,Right,
39,11,1,0.26773529999991297,['n'],1,right,['e'],1,0.15612770000007004,0.1,1,0,AccFast,22,18,Man,Right,
40,11,1,0.38462170000002516,['n'],0,left,['e'],1,0.12108609999995679,0.2,0,0,AccFast,22,18,Man,Right,
41,11,1,0.23422129999926256,['n'],0,left,['e'],1,0.14122580000002927,0.2,0,0,AccFast,22,18,Man,Right,
42,11,1,0.2506356000003507,['n'],1,right,['e'],1,0.1602565000002869,0.2,1,0,AccFast,22,18,Man,Right,
43,11,1,0.3008307000000059,['n'],0,left,['e'],1,0.09624579999945126,0.4,0,0,AccFast,22,18,Man,Right,
44,11,1,0.366991699999744,['n'],0,left,['e'],1,0.11195419999967271,0.4,0,0,AccFast,22,18,Man,Right,
45,11,1,0.41765469999972993,['n'],1,right,['e'],1,0.25272270000004937,0.1,1,0,AccFast,22,18,Man,Right,
46,11,1,0.28438769999957003,['n'],1,right,['e'],1,0.1538127000003442,0.4,1,0,AccFast,22,18,Man,Right,
47,11,1,0.38435740000022633,['n'],0,left,['e'],1,0.10289730000022246,0.1,0,0,AccFast,22,18,Man,Right,
48,11,1,0.3177832999999737,['n'],0,left,['e'],1,0.12027450000005047,0.4,0,0,AccFast,22,18,Man,Right,
49,11,1,0.2675288999998884,['n'],0,left,['e'],1,0.18703929999992397,0.1,0,0,AccFast,22,18,Man,Right,
50,11,1,0.2178862000000663,['n'],1,right,['e'],1,1.0852452999997695,0.1,1,0,AccFast,22,18,Man,Right,
51,11,1,0.2677993000006609,['n'],0,left,['e'],1,0.3936088000000382,0.2,0,0,AccFast,22,18,Man,Right,
52,11,1,0.25125740000021324,['n'],1,right,['e'],1,0.3069249000000127,0.4,1,0,AccFast,22,18,Man,Right,
53,11,1,0.3333764999997584,['n'],1,right,['e'],1,0.2995487000007415,0.4,1,0,AccFast,22,18,Man,Right,
54,11,1,0.23481379999975616,['n'],1,right,['e'],1,0.2645191000001432,0.1,1,0,AccFast,22,18,Man,Right,
55,11,1,0.26761290000013105,['n'],0,left,['e'],1,0.19768950000070618,0.1,0,0,AccFast,22,18,Man,Right,
56,11,1,0.2683035000000018,['n'],1,right,['e'],1,0.18134620000000723,0.4,1,0,AccFast,22,18,Man,Right,
57,11,1,0.26827849999972386,['n'],0,left,['e'],1,0.14929529999972146,0.4,0,0,AccFast,22,18,Man,Right,
58,11,1,0.3349281000000701,['n'],0,left,['e'],1,0.16408560000036232,0.1,0,0,AccFast,22,18,Man,Right,
59,11,1,0.28437399999984336,['n'],1,right,['e'],1,0.1319231999996191,0.2,1,0,AccFast,22,18,Man,Right,
0,12,1,0.5845209999997678,['n'],1,right,['e'],1,0.2053356000005806,0.1,1,0,AccAcc,22,18,Man,Right,
1,12,1,0.2511253000002398,['n'],0,left,['e'],1,1.613520900000367,0.2,0,0,AccAcc,22,18,Man,Right,
2,12,1,0.28447630000027857,['n'],0,left,['e'],1,0.37203500000032363,0.4,0,0,AccAcc,22,18,Man,Right,
3,12,1,0.2680375999998432,['n'],0,left,['e'],1,0.2855013999997027,0.2,0,0,AccAcc,22,18,Man,Right,
4,12,1,0.2178410000005897,['n'],1,right,['e'],1,0.0912703000003603,0.4,1,0,AccAcc,22,18,Man,Right,
5,12,1,0.21744219999982306,['n'],1,right,['e'],1,0.017401399999471323,0.1,1,0,AccAcc,22,18,Man,Right,
6,12,1,0.25129629999992176,['n'],1,right,['e'],1,0.16859050000039133,0.1,1,0,AccAcc,22,18,Man,Right,
7,12,1,0.06713209999998071,['n'],1,right,['e'],1,0.002066400000330759,0.4,1,0,AccAcc,22,18,Man,Right,
8,12,1,0.18478980000054435,['n'],0,left,['e'],1,1.0843348999997033,0.2,0,0,AccAcc,22,18,Man,Right,
9,12,1,0.2680270000000746,['n'],0,left,['e'],1,0.3613441999996212,0.2,0,0,AccAcc,22,18,Man,Right,
10,12,1,0.2680990999997448,['n'],0,left,['e'],1,0.21012570000038977,0.1,0,0,AccAcc,22,18,Man,Right,
11,12,1,0.23440239999945334,['n'],1,right,['e'],1,0.17955630000051315,0.2,1,0,AccAcc,22,18,Man,Right,
12,12,1,0.2341541000005236,['n'],0,left,['e'],1,0.14879460000065592,0.4,0,0,AccAcc,22,18,Man,Right,
13,12,1,0.33429200000045967,['n'],0,left,['e'],1,0.17956409999987955,0.1,0,0,AccAcc,22,18,Man,Right,
14,12,1,1.4677786000002015,['n'],0,left,['u'],0,0.5799132000001919,0.1,1,0,AccAcc,22,18,Man,Right,
15,12,1,0.6009549999998853,['c'],1,left,['e'],1,0.1189687000005506,0.2,1,0,AccAcc,22,18,Man,Right,
16,12,1,0.5171727000006285,['n'],1,right,['u'],0,0.144438799999989,0.2,0,0,AccAcc,22,18,Man,Right,
17,12,1,0.31719580000026326,['n'],1,right,['e'],1,0.04802349999954458,0.4,1,0,AccAcc,22,18,Man,Right,
18,12,1,0.23431520000031014,['c'],0,right,['u'],0,0.07114910000018426,0.4,1,0,AccAcc,22,18,Man,Right,
19,12,1,0.2345318000006955,['n'],0,left,['e'],1,0.3171591999998782,0.4,0,0,AccAcc,22,18,Man,Right,
20,12,1,0.5012528000006569,['c'],1,left,['u'],0,0.07890600000064296,0.4,0,0,AccAcc,22,18,Man,Right,
21,12,1,0.5675084000004063,"['n', 'c']",1,right,['e'],1,0.10319019999951706,0.1,1,0,AccAcc,22,18,Man,Right,
22,12,1,0.6676250000000437,['n'],0,left,['e'],1,1.130420999999842,0.4,0,0,AccAcc,22,18,Man,Right,
23,12,1,0.3509761000004801,['n'],0,left,['u'],0,0.2735482999996748,0.2,1,0,AccAcc,22,18,Man,Right,
24,12,1,0.2848899000000529,['c'],0,right,['e'],1,0.10964310000053956,0.4,0,0,AccAcc,22,18,Man,Right,
25,12,1,0.26772189999974216,['n'],0,left,['e'],1,0.12960439999915252,0.1,0,0,AccAcc,22,18,Man,Right,
26,12,1,0.2332286999999269,['n'],1,right,['u'],0,0.14880489999995916,0.4,0,0,AccAcc,22,18,Man,Right,
27,12,1,0.23474199999964185,['c'],0,right,['u'],0,0.5838460999993913,0.4,1,0,AccAcc,22,18,Man,Right,
28,12,1,0.23461669999960577,['n'],1,right,['e'],1,0.1212046000000555,0.4,1,0,AccAcc,22,18,Man,Right,
29,12,1,0.301093299999593,['n'],0,left,['e'],1,0.13870539999970788,0.2,0,0,AccAcc,22,18,Man,Right,
30,12,1,0.30084420000002865,['n'],0,left,['e'],1,0.10775110000031418,0.2,0,0,AccAcc,22,18,Man,Right,
31,12,1,0.584507499999745,['c'],0,right,['u'],0,0.17851749999954336,0.1,1,0,AccAcc,22,18,Man,Right,
32,12,1,0.7011353000007148,['n'],1,right,['e'],1,0.08169980000002397,0.1,1,0,AccAcc,22,18,Man,Right,
33,12,1,0.7503937000001315,['n'],1,right,['e'],1,0.2103213999998843,0.1,1,0,AccAcc,22,18,Man,Right,
34,12,1,0.3172629999999117,['c'],1,left,['u'],0,0.2078444999997373,0.4,0,0,AccAcc,22,18,Man,Right,
35,12,1,0.6670907000006991,['n'],0,left,['e'],1,0.12755940000079136,0.1,0,0,AccAcc,22,18,Man,Right,
36,12,1,0.6356792999995378,['n'],1,right,['e'],1,0.13162740000007034,0.1,1,0,AccAcc,22,18,Man,Right,
37,12,1,0.6341875000007349,['n'],1,right,['e'],1,0.11933120000048802,0.1,1,0,AccAcc,22,18,Man,Right,
38,12,1,0.5675717000003715,['n'],1,right,['e'],1,0.09453219999977591,0.1,1,0,AccAcc,22,18,Man,Right,
39,12,1,1.183612699999685,['c'],1,left,['e'],1,0.2057952999994086,0.2,1,0,AccAcc,22,18,Man,Right,
40,12,1,0.8339663000006112,['n'],0,left,['e'],1,0.2149001000007047,0.2,0,0,AccAcc,22,18,Man,Right,
41,12,1,0.4177903999998307,['n'],1,right,['e'],1,0.11201129999972181,0.2,1,0,AccAcc,22,18,Man,Right,
42,12,1,0.5844443999994837,['n'],1,right,['e'],1,0.13391930000034336,0.2,1,0,AccAcc,22,18,Man,Right,
43,12,1,0.7178524999999354,['c'],1,left,['e'],1,0.08657390000007581,0.4,1,0,AccAcc,22,18,Man,Right,
44,12,1,0.6345845000005284,['n'],0,left,['u'],0,0.8598654999996143,0.1,1,0,AccAcc,22,18,Man,Right,
45,12,1,0.6677716999993208,['n'],1,right,['e'],1,0.03361270000004879,0.2,1,0,AccAcc,22,18,Man,Right,
46,12,1,0.3181895000006989,['n'],0,left,['e'],1,0.630162499999642,0.4,0,0,AccAcc,22,18,Man,Right,
47,12,1,0.9675317999999606,['n'],0,left,['e'],1,0.024062299999968673,0.1,0,0,AccAcc,22,18,Man,Right,
48,12,1,0.38420789999963745,['n'],0,left,['e'],1,0.026268800000252668,0.4,0,0,AccAcc,22,18,Man,Right,
49,12,1,1.2504933000000165,['n'],1,right,['u'],0,0.07409610000013345,0.2,0,0,AccAcc,22,18,Man,Right,
50,12,1,1.0009158000002571,['c'],1,left,['e'],1,0.08140280000043276,0.2,1,0,AccAcc,22,18,Man,Right,
51,12,1,0.7509800999996514,['n'],1,right,['e'],1,0.06642109999938839,0.4,1,0,AccAcc,22,18,Man,Right,
52,12,1,0.6162997999999789,['n'],1,right,['e'],1,0.04229299999951763,0.1,1,0,AccAcc,22,18,Man,Right,
53,12,1,1.6011333000005834,['c'],1,left,['e'],1,0.1386354999995092,0.2,1,0,AccAcc,22,18,Man,Right,
54,12,1,1.1007184000000052,['n'],1,right,['e'],1,0.10764089999975113,0.2,1,0,AccAcc,22,18,Man,Right,
55,12,1,1.2338935999996465,['n'],1,right,['e'],1,0.0722645999994711,0.4,1,0,AccAcc,22,18,Man,Right,
56,12,1,1.100108900000123,['n'],1,right,['e'],1,0.1558618999997634,0.4,1,0,AccAcc,22,18,Man,Right,
57,12,1,1.6844447000003129,['n'],0,left,['e'],1,0.11689879999994446,0.1,0,0,AccAcc,22,18,Man,Right,
58,12,1,1.4339450999996188,['n'],0,left,['u'],0,0.12116139999943698,0.1,1,0,AccAcc,22,18,Man,Right,
59,12,1,1.200747500000034,['n'],1,right,['e'],1,0.1667115999998714,0.2,1,0,AccAcc,22,18,Man,Right,
0,13,1,5.016200799999751,x,-99,right,none,-99,-99,0.2,-99,1,FastAcc,22,18,Man,Right,
1,13,1,0.6330724999997983,['n'],1,right,['e'],1,0.12670230000003357,0.4,1,0,FastAcc,22,18,Man,Right,
2,13,1,0.9675140999997893,['c'],1,left,['e'],1,0.16537590000007185,0.4,1,0,FastAcc,22,18,Man,Right,
3,13,1,0.7511586999999054,['c'],0,right,['e'],1,0.13088630000038393,0.4,0,0,FastAcc,22,18,Man,Right,
4,13,1,0.3345056999996814,['n'],0,left,['u'],0,0.13032879999991565,0.4,1,0,FastAcc,22,18,Man,Right,
5,13,1,0.8346097999992708,['n'],1,right,['e'],1,0.17419869999957882,0.2,1,0,FastAcc,22,18,Man,Right,
6,13,1,1.2179787999994005,['n'],0,left,['e'],1,0.9209568000005675,0.4,0,0,FastAcc,22,18,Man,Right,
7,13,1,1.034509000000071,['n'],1,right,['e'],1,0.18937240000013844,0.4,1,0,FastAcc,22,18,Man,Right,
8,13,1,0.46820220000063273,['n'],0,left,['e'],1,0.16567500000019209,0.1,0,0,FastAcc,22,18,Man,Right,
9,13,1,0.7344503999993321,['n'],1,right,['e'],1,0.1960546999998769,0.1,1,0,FastAcc,22,18,Man,Right,
10,13,1,0.8349278999994567,['n'],0,left,['u'],0,0.14076060000024881,0.2,1,0,FastAcc,22,18,Man,Right,
11,13,1,0.933450399999856,['n'],0,left,['e'],1,0.1643568999998024,0.1,0,0,FastAcc,22,18,Man,Right,
12,13,1,0.5342697999994925,['n'],1,right,['e'],1,0.17059969999991154,0.1,1,0,FastAcc,22,18,Man,Right,
13,13,1,0.7842193000005864,['n'],1,right,['u'],0,0.2788799999998446,0.4,0,0,FastAcc,22,18,Man,Right,
14,13,1,0.9508864999997968,['n'],0,left,['e'],1,0.13615399999980582,0.2,0,0,FastAcc,22,18,Man,Right,
15,13,1,0.6837130000003526,['n'],1,right,['e'],1,0.18536020000010467,0.2,1,0,FastAcc,22,18,Man,Right,
16,13,1,0.684389299999566,['n'],1,right,['e'],1,0.15306779999991704,0.4,1,0,FastAcc,22,18,Man,Right,
17,13,1,0.8847408000001451,['n'],1,right,['e'],1,0.5939626999997927,0.1,1,0,FastAcc,22,18,Man,Right,
18,13,1,0.6012251000001925,['n'],0,left,['e'],1,0.1809899999998379,0.1,0,0,FastAcc,22,18,Man,Right,
19,13,1,1.0840613999998823,['n'],1,right,['e'],1,0.5646862000003239,0.4,1,0,FastAcc,22,18,Man,Right,
20,13,1,1.2503713000005519,['n'],1,right,['e'],1,0.23817420000068523,0.4,1,0,FastAcc,22,18,Man,Right,
21,13,1,0.6005180000001928,['n'],0,left,['e'],1,0.671152500000062,0.1,0,0,FastAcc,22,18,Man,Right,
22,13,1,0.8009320999999545,['c'],0,right,['e'],1,0.10282550000010815,0.4,0,0,FastAcc,22,18,Man,Right,
23,13,1,0.6011736000000383,['n'],1,right,['e'],1,0.0773828000001231,0.2,1,0,FastAcc,22,18,Man,Right,
24,13,1,0.35113129999990633,['n'],1,right,['e'],1,0.046650899999804096,0.1,1,0,FastAcc,22,18,Man,Right,
25,13,1,0.5676955999997517,['c'],1,left,['e'],1,0.24832549999973708,0.2,1,0,FastAcc,22,18,Man,Right,
26,13,1,1.500822199999675,['n'],0,left,['e'],1,0.5165883999998186,0.1,0,0,FastAcc,22,18,Man,Right,
27,13,1,0.4501858000003267,['n'],1,right,['e'],1,0.32067800000004354,0.2,1,0,FastAcc,22,18,Man,Right,
28,13,1,2.367048899999645,['n'],0,left,['e'],1,0.10397370000009687,0.2,0,0,FastAcc,22,18,Man,Right,
29,13,1,0.38457849999940663,['c'],1,left,['u'],0,0.07013840000035998,0.4,0,0,FastAcc,22,18,Man,Right,
30,13,1,0.2678792999995494,['n'],0,left,['u'],0,0.15519899999981135,0.4,1,0,FastAcc,22,18,Man,Right,
31,13,1,1.167674899999838,['n'],1,right,['e'],1,0.08925829999952839,0.1,1,0,FastAcc,22,18,Man,Right,
32,13,1,0.9835645000002842,['n'],0,left,['e'],1,0.08041669999965961,0.1,0,0,FastAcc,22,18,Man,Right,
33,13,1,1.6003059000004214,['c'],1,left,['u'],0,0.07932160000018484,0.1,0,0,FastAcc,22,18,Man,Right,
34,13,1,0.6512116000003516,['n'],0,left,['e'],1,0.10014359999968292,0.1,0,0,FastAcc,22,18,Man,Right,
35,13,1,0.9156825999998546,['c'],1,left,['e'],1,0.1103664000002027,0.4,1,0,FastAcc,22,18,Man,Right,
36,13,1,1.2509402999994563,['n'],1,right,['u'],0,0.13847720000012487,0.1,0,0,FastAcc,22,18,Man,Right,
37,13,1,0.7682383999999729,['n'],1,right,['u'],0,0.12075029999959952,0.1,0,0,FastAcc,22,18,Man,Right,
38,13,1,0.9836182999997618,['n'],1,right,['e'],1,0.3187175000002753,0.2,1,0,FastAcc,22,18,Man,Right,
39,13,1,0.8180492000001323,['c'],0,right,['e'],1,0.08440479999990202,0.1,0,0,FastAcc,22,18,Man,Right,
40,13,1,0.7843069999998988,['n'],1,right,['e'],1,0.21120629999950324,0.2,1,0,FastAcc,22,18,Man,Right,
41,13,1,1.4679628000003504,['n'],0,left,['e'],1,0.16296220000003814,0.2,0,0,FastAcc,22,18,Man,Right,
42,13,1,0.8344240000005811,['c'],1,left,['u'],0,0.18906070000048203,0.2,0,0,FastAcc,22,18,Man,Right,
43,13,1,0.2671946000000389,['n'],0,left,['e'],1,0.9736346999998204,0.2,0,0,FastAcc,22,18,Man,Right,
44,13,1,0.3185505999999805,['n'],0,left,['e'],1,0.26830969999991794,0.2,0,0,FastAcc,22,18,Man,Right,
45,13,1,0.4994321000003765,['c'],0,right,['e'],1,0.5283105999997133,0.4,0,0,FastAcc,22,18,Man,Right,
46,13,1,0.30087099999946076,['c'],0,right,['e'],1,0.37003770000046643,0.2,0,0,FastAcc,22,18,Man,Right,
47,13,1,0.867831099999421,['n'],1,right,['u'],0,0.386311499999465,0.4,0,0,FastAcc,22,18,Man,Right,
48,13,1,0.41859629999999015,['n'],0,left,"['u', 'e']",0,0.325065099999847,0.4,1,0,FastAcc,22,18,Man,Right,
49,13,1,1.0187795000001643,['n'],0,left,['e'],1,0.1458198000000266,0.1,0,0,FastAcc,22,18,Man,Right,
50,13,1,0.26788269999997283,['c'],0,right,['u'],0,0.05117360000076587,0.2,1,0,FastAcc,22,18,Man,Right,
51,13,1,0.2849778999998307,['n'],1,right,['e'],1,0.08848040000066248,0.4,1,0,FastAcc,22,18,Man,Right,
52,13,1,0.33353249999981927,['n'],0,left,['e'],1,0.12148660000002565,0.2,0,0,FastAcc,22,18,Man,Right,
53,13,1,0.8677354000001287,['c'],1,left,['e'],1,0.11657680000007531,0.4,1,0,FastAcc,22,18,Man,Right,
54,13,1,0.6674245999993218,['n'],1,right,['e'],1,0.08793229999992036,0.2,1,0,FastAcc,22,18,Man,Right,
55,13,1,2.2005611000004137,['c'],1,left,['e'],1,0.12654850000035367,0.1,1,0,FastAcc,22,18,Man,Right,
56,13,1,4.7508794000004855,['n'],1,right,['e'],1,0.30250340000020515,0.2,1,0,FastAcc,22,18,Man,Right,
57,13,1,0.5516837999994095,['n'],0,left,['e'],1,0.15879080000013346,0.4,0,0,FastAcc,22,18,Man,Right,
58,13,1,1.2346723999999085,['n'],0,left,['e'],1,0.7138402000000497,0.1,0,0,FastAcc,22,18,Man,Right,
59,13,1,0.45024089999969874,['n'],0,left,['e'],1,0.10981509999965056,0.1,0,0,FastAcc,22,18,Man,Right,
0,14,1,0.7346916999995301,['n'],1,right,['e'],1,0.6745792000001529,0.1,1,0,FastFast,22,18,Man,Right,
1,14,1,0.33418929999970715,['n'],0,left,['e'],1,0.3482199000000037,0.1,0,0,FastFast,22,18,Man,Right,
2,14,1,0.33321499999965454,['n'],0,left,['e'],1,0.13148389999969368,0.4,0,0,FastFast,22,18,Man,Right,
3,14,1,0.33348279999972874,['n'],0,left,['e'],1,0.1474116999997932,0.4,0,0,FastFast,22,18,Man,Right,
4,14,1,0.25123639999947045,['n'],0,left,['e'],1,0.16522549999990588,0.2,0,0,FastFast,22,18,Man,Right,
5,14,1,0.2678342999997767,['n'],0,left,['e'],1,0.1498341000005894,0.4,0,0,FastFast,22,18,Man,Right,
6,14,1,0.16791250000005675,['n'],0,left,['e'],1,0.2350771999999779,0.2,0,0,FastFast,22,18,Man,Right,
7,14,1,0.2018687999998292,['n'],1,right,['e'],1,0.2520901000007143,0.4,1,0,FastFast,22,18,Man,Right,
8,14,1,0.23439869999947405,['n'],0,left,['e'],1,0.011523000000124739,0.2,0,0,FastFast,22,18,Man,Right,
9,14,1,0.3335870999999315,['n'],1,right,['e'],1,0.19155439999940427,0.4,1,0,FastFast,22,18,Man,Right,
10,14,1,0.24995829999988928,['n'],0,left,['e'],1,0.22406380000029458,0.2,0,0,FastFast,22,18,Man,Right,
11,14,1,0.31802690000040457,['n'],0,left,['e'],1,0.18907390000003943,0.2,0,0,FastFast,22,18,Man,Right,
12,14,1,1.1681195000001026,['n'],1,right,['e'],1,0.21742879999965226,0.4,1,0,FastFast,22,18,Man,Right,
13,14,1,0.4339930000005552,['n'],0,left,['e'],1,0.2096164000004137,0.1,0,0,FastFast,22,18,Man,Right,
14,14,1,0.36608649999925547,['n'],1,right,['e'],1,0.1742842000003293,0.2,1,0,FastFast,22,18,Man,Right,
15,14,1,0.3348850999991555,['n'],0,left,['e'],1,0.21933249999983673,0.4,0,0,FastFast,22,18,Man,Right,
16,14,1,0.33407660000011674,['n'],1,right,['e'],1,0.18370890000005602,0.2,1,0,FastFast,22,18,Man,Right,
17,14,1,0.3845297000007122,['n'],1,right,['e'],1,0.17966210000031424,0.4,1,0,FastFast,22,18,Man,Right,
18,14,1,1.1341161999998803,['n'],1,right,['e'],1,0.19291489999977784,0.1,1,0,FastFast,22,18,Man,Right,
19,14,1,0.6513484999995853,['c'],0,right,['u'],0,0.20980909999980213,0.4,1,0,FastFast,22,18,Man,Right,
20,14,1,0.4014656000008472,['n'],0,left,['e'],1,0.2039495999997598,0.1,0,0,FastFast,22,18,Man,Right,
21,14,1,0.5508331999999427,['n'],0,left,['e'],1,0.24017300000014075,0.4,0,0,FastFast,22,18,Man,Right,
22,14,1,0.5016391999997722,"['n', 'c']",1,right,"['u', 'e']",0,0.1654553999997006,0.4,0,0,FastFast,22,18,Man,Right,
23,14,1,0.2845796999999948,"['n', 'c']",0,left,['u'],0,0.2135404999999082,0.1,1,0,FastFast,22,18,Man,Right,
24,14,1,0.23481019999962882,['c'],1,left,['u'],0,0.06940630000008241,0.2,0,0,FastFast,22,18,Man,Right,
25,14,1,0.9176914999998189,['n'],1,right,['e'],1,0.12858260000029986,0.4,1,0,FastFast,22,18,Man,Right,
26,14,1,0.3670594000004712,['n'],1,right,['u'],0,0.7666301999997813,0.1,0,0,FastFast,22,18,Man,Right,
27,14,1,0.3344304000002012,['n'],0,left,['e'],1,0.21291399999972782,0.4,0,0,FastFast,22,18,Man,Right,
28,14,1,0.18440370000007533,['n'],0,left,['e'],1,0.3270895000005112,0.1,0,0,FastFast,22,18,Man,Right,
29,14,1,0.10270730000047479,['n'],1,right,['e'],1,0.20060349999948812,0.1,1,0,FastFast,22,18,Man,Right,
30,14,1,0.33378840000023047,['n'],0,left,['e'],1,0.21344010000029812,0.1,0,0,FastFast,22,18,Man,Right,
31,14,1,0.15137889999914478,['n'],1,right,['e'],1,0.21704550000049494,0.1,1,0,FastFast,22,18,Man,Right,
32,14,1,0.33459229999971285,['n'],0,left,['e'],1,0.2462415999998484,0.4,0,0,FastFast,22,18,Man,Right,
33,14,1,0.2345949999998993,['n'],1,right,['e'],1,0.22814289999951143,0.2,1,0,FastFast,22,18,Man,Right,
34,14,1,0.33413000000018656,['n'],1,right,['e'],1,0.20882540000002336,0.2,1,0,FastFast,22,18,Man,Right,
35,14,1,0.33350570000038715,['n'],1,right,['e'],1,0.20572879999963334,0.1,1,0,FastFast,22,18,Man,Right,
36,14,1,0.28477550000025076,['n'],0,left,['e'],1,0.22041169999920385,0.2,0,0,FastFast,22,18,Man,Right,
37,14,1,0.26696500000070955,['n'],1,right,['e'],1,0.26782860000002984,0.4,1,0,FastFast,22,18,Man,Right,
38,14,1,0.4012830000001486,['n'],1,right,['e'],1,0.21063790000062,0.1,1,0,FastFast,22,18,Man,Right,
39,14,1,0.3171871000004103,['n'],0,left,['e'],1,0.19211880000057135,0.1,0,0,FastFast,22,18,Man,Right,
40,14,1,0.6184935000001133,['n'],0,left,['e'],1,0.22667050000018207,0.4,0,0,FastFast,22,18,Man,Right,
41,14,1,0.33392430000003515,['n'],1,right,['e'],1,0.158474899999419,0.2,1,0,FastFast,22,18,Man,Right,
42,14,1,0.3172033000000738,['n'],1,right,['e'],1,0.20627909999984695,0.1,1,0,FastFast,22,18,Man,Right,
43,14,1,0.3332835999999588,['n'],1,right,['e'],1,0.20358459999988554,0.2,1,0,FastFast,22,18,Man,Right,
44,14,1,0.3679511000000275,['n'],0,left,['e'],1,0.23062609999942651,0.1,0,0,FastFast,22,18,Man,Right,
45,14,1,0.4341298999997889,['n'],0,left,['e'],1,0.22259279999980208,0.2,0,0,FastFast,22,18,Man,Right,
46,14,1,0.38402640000003885,['n'],0,left,['e'],1,0.18446589999985008,0.4,0,0,FastFast,22,18,Man,Right,
47,14,1,0.5005759000005128,['n'],1,right,['e'],1,0.20750150000003487,0.2,1,0,FastFast,22,18,Man,Right,
48,14,1,0.4185520999999426,['n'],0,left,['e'],1,0.20090030000028491,0.4,0,0,FastFast,22,18,Man,Right,
49,14,1,0.3515655000001061,['n'],1,right,['e'],1,0.21311119999973016,0.2,1,0,FastFast,22,18,Man,Right,
50,14,1,0.5345158000000083,['n'],1,right,['e'],1,0.23356320000038977,0.2,1,0,FastFast,22,18,Man,Right,
51,14,1,0.3994241999998849,['n'],0,left,['e'],1,0.2276211999997031,0.2,0,0,FastFast,22,18,Man,Right,
52,14,1,0.3174818999996205,['n'],1,right,['e'],1,0.191325699999652,0.1,1,0,FastFast,22,18,Man,Right,
53,14,1,0.3005370999999286,['n'],0,left,['e'],1,0.20630720000008296,0.4,0,0,FastFast,22,18,Man,Right,
54,14,1,0.3510484999997061,['n'],1,right,['e'],1,0.18630040000061854,0.1,1,0,FastFast,22,18,Man,Right,
55,14,1,0.40149060000021564,['n'],0,left,['e'],1,0.19705069999963598,0.1,0,0,FastFast,22,18,Man,Right,
56,14,1,0.3839543000003687,['n'],1,right,['e'],1,0.2082394999997632,0.2,1,0,FastFast,22,18,Man,Right,
57,14,1,0.30148170000029495,['n'],0,left,['e'],1,0.1741794999998092,0.4,0,0,FastFast,22,18,Man,Right,
58,14,1,0.3667953000003763,['n'],1,right,['e'],1,0.2033596999999645,0.2,1,0,FastFast,22,18,Man,Right,
59,14,1,0.4346969000007448,['n'],1,right,['e'],1,0.19714889999977459,0.1,1,0,FastFast,22,18,Man,Right,
0,15,1,0.9005959000005532,['n'],0,left,['e'],1,0.15554059999976744,0.1,0,0,AccFast,22,18,Man,Right,
1,15,1,0.2852069999999003,['n'],1,right,['e'],1,0.14078820000031556,0.2,1,0,AccFast,22,18,Man,Right,
2,15,1,0.28439669999988837,['c'],1,left,['e'],1,0.5421728000001167,0.2,1,0,AccFast,22,18,Man,Right,
3,15,1,0.46766029999980674,['n'],1,right,['e'],1,0.07235919999948237,0.4,1,0,AccFast,22,18,Man,Right,
4,15,1,0.46846760000062204,['n'],1,right,['e'],1,0.08522639999955572,0.1,1,0,AccFast,22,18,Man,Right,
5,15,1,0.4681636000004801,['c'],0,right,['u'],0,0.11401610000029905,0.1,1,0,AccFast,22,18,Man,Right,
6,15,1,0.5011021999998775,['n'],1,right,['e'],1,0.09106749999955355,0.1,1,0,AccFast,22,18,Man,Right,
7,15,1,0.4010223999994196,['n'],1,right,['e'],1,0.10577590000048076,0.4,1,0,AccFast,22,18,Man,Right,
8,15,1,0.26686679999966145,['n'],0,left,['e'],1,0.1257716000000073,0.4,0,0,AccFast,22,18,Man,Right,
9,15,1,0.7177928999999494,['n'],0,left,['e'],1,0.11035879999963072,0.4,0,0,AccFast,22,18,Man,Right,
10,15,1,5.016556999999921,x,-99,left,none,-99,-99,0.2,-99,1,AccFast,22,18,Man,Right,
11,15,1,1.667295600000216,['n'],0,left,['e'],1,0.00486189999992348,0.1,0,0,AccFast,22,18,Man,Right,
12,15,1,0.26693169999998645,['n'],0,left,['e'],1,0.07581990000016958,0.2,0,0,AccFast,22,18,Man,Right,
13,15,1,0.4669167000001835,['n'],1,right,['e'],1,3.657287600000018,0.4,1,0,AccFast,22,18,Man,Right,
14,15,1,0.4676974000003611,['n'],0,left,['e'],1,0.35866769999938697,0.2,0,0,AccFast,22,18,Man,Right,
15,15,1,0.5180055000000721,['n'],1,right,"['u', 'e']",0,0.26298809999934747,0.2,0,0,AccFast,22,18,Man,Right,
16,15,1,0.9508943000000727,['c'],0,right,"['u', 'e']",0,0.12023219999991852,0.4,1,0,AccFast,22,18,Man,Right,
17,15,1,0.200949899999614,['n'],0,left,['e'],1,0.15725290000045788,0.4,0,0,AccFast,22,18,Man,Right,
18,15,1,0.6327143999997134,['n'],1,right,['e'],1,0.19357010000021546,0.2,1,0,AccFast,22,18,Man,Right,
19,15,1,0.3179984999997032,['n'],0,left,"['u', 'e']",0,0.14302700000007462,0.4,1,0,AccFast,22,18,Man,Right,
20,15,1,0.4836203000004389,"['n', 'c']",1,right,['u'],0,0.05676339999990887,0.2,0,0,AccFast,22,18,Man,Right,
21,15,1,0.3675655999995797,['n'],1,right,"['u', 'e']",0,0.1545029999997496,0.1,0,0,AccFast,22,18,Man,Right,
22,15,1,0.434129700000085,['n'],1,right,"['u', 'e']",0,0.13275059999978112,0.2,0,0,AccFast,22,18,Man,Right,
23,15,1,0.033885999999256455,['n'],1,right,['e'],1,0.1601396999994904,0.2,1,0,AccFast,22,18,Man,Right,
24,15,1,0.5003206999999747,['n'],1,right,['e'],1,0.07239479999952891,0.1,1,0,AccFast,22,18,Man,Right,
25,15,1,0.31732190000002447,['c'],0,right,['u'],0,0.12346999999954278,0.2,1,0,AccFast,22,18,Man,Right,
26,15,1,0.9675510999995822,['n'],1,right,['e'],1,0.002619599999889033,0.1,1,0,AccFast,22,18,Man,Right,
27,15,1,2.267039699999259,['n'],1,right,['e'],1,0.04186839999965741,0.2,1,0,AccFast,22,18,Man,Right,
28,15,1,0.8843731999995725,['c'],1,left,['e'],1,0.02353170000060345,0.4,1,0,AccFast,22,18,Man,Right,
29,15,1,0.9834660999995322,['n'],0,left,['u'],0,0.00221629999941797,0.1,1,0,AccFast,22,18,Man,Right,
30,15,1,0.9168214999999691,['n'],1,right,['e'],1,0.6874223999993774,0.2,1,0,AccFast,22,18,Man,Right,
31,15,1,0.9503716999997778,['c'],1,left,['e'],1,0.01653069999974832,0.4,1,0,AccFast,22,18,Man,Right,
32,15,1,1.0178052999999636,['c'],1,left,['e'],1,0.5691136000004917,0.4,1,0,AccFast,22,18,Man,Right,
33,15,1,2.400919000000613,['c'],0,right,['e'],1,0.1010113000002093,0.1,0,0,AccFast,22,18,Man,Right,
34,15,1,2.551137700000254,['n'],1,right,['e'],1,0.6054696000001059,0.2,1,0,AccFast,22,18,Man,Right,
35,15,1,0.9166838999999527,['c'],1,left,['e'],1,0.2755796999999802,0.4,1,0,AccFast,22,18,Man,Right,
36,15,1,1.3511606999991272,['c'],1,left,['e'],1,0.29275000000052387,0.1,1,0,AccFast,22,18,Man,Right,
37,15,1,0.801896900000429,['c'],1,left,['e'],1,0.26784520000001066,0.1,1,0,AccFast,22,18,Man,Right,
38,15,1,0.6511145000004035,['n'],1,right,['e'],1,0.24939650000032998,0.4,1,0,AccFast,22,18,Man,Right,
39,15,1,1.0346890999999232,['n'],0,left,['e'],1,0.26438510000025417,0.1,0,0,AccFast,22,18,Man,Right,
40,15,1,0.8002612000000227,['n'],0,left,['e'],1,0.20824889999948937,0.2,0,0,AccFast,22,18,Man,Right,
41,15,1,0.45109299999967334,['n'],1,right,['e'],1,0.23271159999967495,0.2,1,0,AccFast,22,18,Man,Right,
42,15,1,0.36810369999966497,['c'],1,left,['e'],1,0.29030989999955636,0.1,1,0,AccFast,22,18,Man,Right,
43,15,1,0.4181361000000834,"['n', 'c']",0,left,['e'],1,0.28059099999973114,0.2,0,0,AccFast,22,18,Man,Right,
44,15,1,0.35138849999930244,['n'],1,right,['u'],0,0.2894566999993913,0.4,0,0,AccFast,22,18,Man,Right,
45,15,1,0.26787660000081814,['n'],1,right,['u'],0,0.317992399999639,0.4,0,0,AccFast,22,18,Man,Right,
46,15,1,0.46768669999983103,['n'],1,right,['e'],1,0.27269430000069406,0.1,1,0,AccFast,22,18,Man,Right,
47,15,1,0.8010004999996454,['n'],1,right,['e'],1,0.6642741999994541,0.1,1,0,AccFast,22,18,Man,Right,
48,15,1,0.08456430000023829,['c'],1,left,['e'],1,1.0846135000001595,0.2,1,0,AccFast,22,18,Man,Right,
49,15,1,0.8010514000006879,['n'],0,left,['e'],1,0.09962689999974828,0.4,0,0,AccFast,22,18,Man,Right,
50,15,1,1.0342170000003534,['n'],0,left,['e'],1,0.26442620000034367,0.1,0,0,AccFast,22,18,Man,Right,
51,15,1,0.5680867999999464,['n'],0,left,['e'],1,0.13734019999992597,0.2,0,0,AccFast,22,18,Man,Right,
52,15,1,0.368032200000016,['c'],0,right,['u'],0,0.1204848999996102,0.4,1,0,AccFast,22,18,Man,Right,
53,15,1,0.3674866999999722,['n'],0,left,['e'],1,0.16652019999946788,0.4,0,0,AccFast,22,18,Man,Right,
54,15,1,0.7176649000002726,['n'],0,left,['e'],1,0.03756309999971563,0.4,0,0,AccFast,22,18,Man,Right,
55,15,1,0.5504141000001255,['c'],1,left,['e'],1,0.06439789999967616,0.4,1,0,AccFast,22,18,Man,Right,
56,15,1,0.7845131000003676,['c'],0,right,['e'],1,0.016871800000444637,0.1,0,0,AccFast,22,18,Man,Right,
57,15,1,0.7842714999997042,['n'],0,left,['e'],1,0.0828812999998263,0.1,0,0,AccFast,22,18,Man,Right,
58,15,1,0.6844257999991896,['n'],1,right,['e'],1,0.0707592000007935,0.2,1,0,AccFast,22,18,Man,Right,
59,15,1,0.7510234000001219,['c'],1,left,['e'],1,0.07215300000007119,0.1,1,0,AccFast,22,18,Man,Right,
