withinblocktrial,block,block_repetition,rt,resp,cor,cresp,conf_press,cj,rtconf,coherence,metacognition,slow_trial,manipulation,sub,age,gender,handedness,
0,1,1,5.000090300000011,x,-99,left,none,-99,-99,0.5,-99,1,none,9,18,Woman,Right,
1,1,1,1.5166903999997885,['c'],1,left,none,-99,-99,0.5,-99,0,none,9,18,Woman,Right,
2,1,1,1.1502349000002141,['c'],1,left,none,-99,-99,0.5,-99,0,none,9,18,Woman,Right,
3,1,1,0.633886600000551,['n'],1,right,none,-99,-99,0.5,-99,0,none,9,18,Woman,Right,
4,1,1,0.5671838999996908,['c'],1,left,none,-99,-99,0.5,-99,0,none,9,18,Woman,Right,
5,1,1,0.6326379000001907,['c'],1,left,none,-99,-99,0.5,-99,0,none,9,18,Woman,Right,
6,1,1,1.1668353000004572,['c'],1,left,none,-99,-99,0.5,-99,0,none,9,18,Woman,Right,
7,1,1,0.916380499999832,['c'],1,left,none,-99,-99,0.5,-99,0,none,9,18,Woman,Right,
8,1,1,0.5825788000001921,['n'],1,right,none,-99,-99,0.5,-99,0,none,9,18,Woman,Right,
9,1,1,0.8174020999995264,['n'],1,right,none,-99,-99,0.5,-99,0,none,9,18,Woman,Right,
10,1,1,5.0150345000001835,x,-99,left,none,-99,-99,0.5,-99,1,none,9,18,Woman,Right,
11,1,1,0.6658170000000609,['n'],1,right,none,-99,-99,0.5,-99,0,none,9,18,Woman,Right,
12,1,1,3.383738500000618,['c'],1,left,none,-99,-99,0.5,-99,0,none,9,18,Woman,Right,
13,1,1,0.6684174000001804,['n'],1,right,none,-99,-99,0.5,-99,0,none,9,18,Woman,Right,
14,1,1,0.6995695000005071,['n'],1,right,none,-99,-99,0.5,-99,0,none,9,18,Woman,Right,
15,1,1,0.6492450999994617,['n'],1,right,none,-99,-99,0.5,-99,0,none,9,18,Woman,Right,
16,1,1,0.7186284000008527,['n'],1,right,none,-99,-99,0.5,-99,0,none,9,18,Woman,Right,
17,1,1,0.9340769000000364,['c'],1,left,none,-99,-99,0.5,-99,0,none,9,18,Woman,Right,
18,1,1,0.6345341999995071,['n'],1,right,none,-99,-99,0.5,-99,0,none,9,18,Woman,Right,
19,1,1,0.7669394000004104,['n'],1,right,none,-99,-99,0.5,-99,0,none,9,18,Woman,Right,
20,1,1,0.616595899999993,['c'],1,left,none,-99,-99,0.5,-99,0,none,9,18,Woman,Right,
21,1,1,1.150443899999118,['c'],1,left,none,-99,-99,0.5,-99,0,none,9,18,Woman,Right,
22,1,1,0.5344524000001911,['n'],1,right,none,-99,-99,0.5,-99,0,none,9,18,Woman,Right,
23,1,1,0.6007735000002867,['n'],1,right,none,-99,-99,0.5,-99,0,none,9,18,Woman,Right,
0,2,1,1.0505993999995553,['n'],1,right,none,-99,-99,0.4,-99,0,none,9,18,Woman,Right,
1,2,1,0.7343581000004633,['c'],1,left,none,-99,-99,0.4,-99,0,none,9,18,Woman,Right,
2,2,1,0.4505067999998573,['n'],0,left,none,-99,-99,0.2,-99,0,none,9,18,Woman,Right,
3,2,1,1.8996643999998923,['c'],0,right,none,-99,-99,0.1,-99,0,none,9,18,Woman,Right,
4,2,1,1.215213099999346,['n'],1,right,none,-99,-99,0.2,-99,0,none,9,18,Woman,Right,
5,2,1,0.7334931000004872,['c'],1,left,none,-99,-99,0.4,-99,0,none,9,18,Woman,Right,
6,2,1,0.6663867000006576,['n'],1,right,none,-99,-99,0.2,-99,0,none,9,18,Woman,Right,
7,2,1,1.099924000000101,['c'],0,right,none,-99,-99,0.2,-99,0,none,9,18,Woman,Right,
8,2,1,0.9841761000006954,['c'],1,left,none,-99,-99,0.2,-99,0,none,9,18,Woman,Right,
9,2,1,0.9837235000004512,['n'],1,right,none,-99,-99,0.4,-99,0,none,9,18,Woman,Right,
10,2,1,0.9660625999995318,['c'],1,left,none,-99,-99,0.4,-99,0,none,9,18,Woman,Right,
11,2,1,0.7500644000001557,['n'],1,right,none,-99,-99,0.4,-99,0,none,9,18,Woman,Right,
12,2,1,1.3172716999997647,['c'],1,left,none,-99,-99,0.1,-99,0,none,9,18,Woman,Right,
13,2,1,1.3337874999997439,['c'],1,left,none,-99,-99,0.1,-99,0,none,9,18,Woman,Right,
14,2,1,1.2660015999999814,['n'],1,right,none,-99,-99,0.2,-99,0,none,9,18,Woman,Right,
15,2,1,1.0334757000000536,['n'],1,right,none,-99,-99,0.1,-99,0,none,9,18,Woman,Right,
16,2,1,0.8659262000001036,['c'],1,left,none,-99,-99,0.2,-99,0,none,9,18,Woman,Right,
17,2,1,0.7164530999998533,['n'],0,left,none,-99,-99,0.1,-99,0,none,9,18,Woman,Right,
18,2,1,1.4176131000003807,['c'],1,left,none,-99,-99,0.2,-99,0,none,9,18,Woman,Right,
19,2,1,0.6997745999997278,['n'],1,right,none,-99,-99,0.4,-99,0,none,9,18,Woman,Right,
20,2,1,0.8823509999992893,['c'],1,left,none,-99,-99,0.1,-99,0,none,9,18,Woman,Right,
21,2,1,0.7165029999996477,['n'],1,right,none,-99,-99,0.4,-99,0,none,9,18,Woman,Right,
22,2,1,0.7665523000005123,['n'],1,right,none,-99,-99,0.1,-99,0,none,9,18,Woman,Right,
23,2,1,0.7498243000000002,['n'],0,left,none,-99,-99,0.1,-99,0,none,9,18,Woman,Right,
0,3,1,2.017550999999912,['c'],0,right,['u'],1,1.345473200000015,0.1,0,0,none,9,18,Woman,Right,
1,3,1,1.3499049000001833,['c'],1,left,['u'],1,0.5082583000003069,0.4,1,0,none,9,18,Woman,Right,
2,3,1,1.167316000000028,['n'],1,right,['u'],1,0.5435941999994611,0.4,1,0,none,9,18,Woman,Right,
3,3,1,1.2668284999999742,['c'],1,left,['u'],1,0.5418776000005892,0.4,1,0,none,9,18,Woman,Right,
4,3,1,2.0684246000000712,['c'],1,left,['e'],0,0.9085985000001529,0.4,0,0,none,9,18,Woman,Right,
5,3,1,1.8680514999996376,['n'],1,right,['e'],0,0.38823469999988447,0.1,0,0,none,9,18,Woman,Right,
6,3,1,1.0679573999996137,['n'],1,right,['u'],1,0.36919140000009065,0.4,1,0,none,9,18,Woman,Right,
7,3,1,0.967743999999584,['c'],1,left,['u'],1,0.4025924000006853,0.2,1,0,none,9,18,Woman,Right,
8,3,1,1.4172952999997506,['c'],1,left,['e'],0,0.5270062999998117,0.1,0,0,none,9,18,Woman,Right,
9,3,1,3.4685850000005303,['c'],1,left,['e'],0,0.5022383000004993,0.1,0,0,none,9,18,Woman,Right,
10,3,1,0.9169532000005347,['n'],1,right,['u'],1,0.40385240000068734,0.2,1,0,none,9,18,Woman,Right,
11,3,1,0.8177883999996993,['c'],1,left,['u'],1,0.5070047999997769,0.2,1,0,none,9,18,Woman,Right,
12,3,1,1.1665041999995083,['n'],1,right,['u'],1,0.6218802999992477,0.1,1,0,none,9,18,Woman,Right,
13,3,1,1.0522378999994544,['c'],1,left,['u'],1,0.6567085000006045,0.4,1,0,none,9,18,Woman,Right,
14,3,1,1.3500922000002902,['n'],1,right,['u'],1,0.615523899999971,0.2,1,0,none,9,18,Woman,Right,
15,3,1,1.5499669999999242,['c'],1,left,['u'],1,0.5035150000003341,0.2,1,0,none,9,18,Woman,Right,
16,3,1,1.2330168999997113,['n'],1,right,['u'],1,0.4886170999998285,0.2,1,0,none,9,18,Woman,Right,
17,3,1,1.035027099999752,['n'],1,right,['u'],1,0.481545499999811,0.2,1,0,none,9,18,Woman,Right,
18,3,1,0.9505754000001616,['c'],1,left,['u'],1,0.43055139999978564,0.4,1,0,none,9,18,Woman,Right,
19,3,1,1.0167028000005303,['c'],0,right,['u'],1,0.42745949999971344,0.1,0,0,none,9,18,Woman,Right,
20,3,1,0.9672279999995226,['c'],1,left,['u'],1,0.3776239999997415,0.4,1,0,none,9,18,Woman,Right,
21,3,1,0.7677948999998989,['n'],1,right,['u'],1,0.38668240000060905,0.2,1,0,none,9,18,Woman,Right,
22,3,1,2.7506461000002673,['c'],1,left,['e'],0,0.4758782999997493,0.1,0,0,none,9,18,Woman,Right,
23,3,1,1.0512176000002,['n'],1,right,['u'],1,0.3735420000002705,0.1,1,0,none,9,18,Woman,Right,
0,4,1,1.4010207000001174,['n'],1,right,['u'],1,0.2931004000001849,0.4,1,0,FastFast,9,18,Woman,Right,
1,4,1,1.1003203000000212,['c'],1,left,['u'],1,0.1439258999998856,0.1,1,0,FastFast,9,18,Woman,Right,
2,4,1,1.000352600000042,['c'],1,left,['e'],0,0.2608862000006411,0.2,0,0,FastFast,9,18,Woman,Right,
3,4,1,1.5847020000001066,['c'],1,left,['e'],0,0.26987149999968096,0.1,0,0,FastFast,9,18,Woman,Right,
4,4,1,1.2011303999997835,['n'],1,right,['u'],1,0.2624297000002116,0.4,1,0,FastFast,9,18,Woman,Right,
5,4,1,1.4679929999992964,['c'],1,left,['e'],0,0.3073120999997627,0.1,0,0,FastFast,9,18,Woman,Right,
6,4,1,0.5669987999999648,['n'],0,left,['e'],0,0.45159349999994447,0.1,1,0,FastFast,9,18,Woman,Right,
7,4,1,0.9001511000005848,['n'],1,right,['u'],1,0.24016990000018268,0.4,1,0,FastFast,9,18,Woman,Right,
8,4,1,0.6501798999997845,['c'],0,right,['u'],1,0.19044109999958891,0.1,0,0,FastFast,9,18,Woman,Right,
9,4,1,0.8005317000006471,['n'],1,right,['u'],1,0.2652230999992753,0.4,1,0,FastFast,9,18,Woman,Right,
10,4,1,0.8173515999997107,['c'],1,left,['u'],1,0.2883293999993839,0.4,1,0,FastFast,9,18,Woman,Right,
11,4,1,1.4845651999994516,['c'],1,left,['e'],0,0.2678793000004589,0.1,0,0,FastFast,9,18,Woman,Right,
12,4,1,0.8347337999994124,['c'],1,left,['u'],1,0.22670449999986886,0.2,1,0,FastFast,9,18,Woman,Right,
13,4,1,1.1512691999996605,['n'],1,right,['u'],1,0.25438169999961247,0.1,1,0,FastFast,9,18,Woman,Right,
14,4,1,0.8496217000001707,['n'],1,right,['u'],1,0.27688429999943764,0.4,1,0,FastFast,9,18,Woman,Right,
15,4,1,1.0017853999997897,['c'],1,left,['u'],1,0.260906999999861,0.2,1,0,FastFast,9,18,Woman,Right,
16,4,1,0.5162751999996544,['c'],1,left,['u'],1,0.296431599999778,0.4,1,0,FastFast,9,18,Woman,Right,
17,4,1,0.8514096999997491,['n'],1,right,['u'],1,0.3012224000003698,0.2,1,0,FastFast,9,18,Woman,Right,
18,4,1,0.8011176999998497,['c'],1,left,['u'],1,0.2742052000003241,0.1,1,0,FastFast,9,18,Woman,Right,
19,4,1,0.8011587999999392,['c'],1,left,['u'],1,0.26589120000062394,0.4,1,0,FastFast,9,18,Woman,Right,
20,4,1,0.818016300000636,['n'],1,right,['u'],1,0.256861800000479,0.1,1,0,FastFast,9,18,Woman,Right,
21,4,1,0.984016000000338,['c'],1,left,['u'],1,0.22609990000000835,0.4,1,0,FastFast,9,18,Woman,Right,
22,4,1,0.7005424999997558,['n'],1,right,['u'],1,0.3038533999997526,0.2,1,0,FastFast,9,18,Woman,Right,
23,4,1,0.7846580000004906,['c'],1,left,['u'],1,0.29433160000007774,0.1,1,0,FastFast,9,18,Woman,Right,
24,4,1,1.3675787000001947,['n'],1,right,['u'],1,0.24686759999985952,0.1,1,0,FastFast,9,18,Woman,Right,
25,4,1,0.8685599000000366,['c'],1,left,['u'],1,0.26846389999991516,0.1,1,0,FastFast,9,18,Woman,Right,
26,4,1,0.7342996999996103,['n'],1,right,['u'],1,0.2949429999998756,0.4,1,0,FastFast,9,18,Woman,Right,
27,4,1,1.317963399999826,['c'],1,left,['e'],0,0.3290370000004259,0.1,0,0,FastFast,9,18,Woman,Right,
28,4,1,0.8843550999999934,['n'],1,right,['u'],1,0.2346741999999722,0.1,1,0,FastFast,9,18,Woman,Right,
29,4,1,1.2831747000000178,['n'],1,right,['u'],1,0.2891841000000568,0.4,1,0,FastFast,9,18,Woman,Right,
30,4,1,0.9676009000004342,['n'],1,right,['u'],1,0.24092100000052596,0.4,1,0,FastFast,9,18,Woman,Right,
31,4,1,0.9511896000003617,['n'],1,right,['u'],1,0.24374669999997423,0.2,1,0,FastFast,9,18,Woman,Right,
32,4,1,2.2345337999995536,['n'],1,right,['u'],1,0.2759995999995226,0.2,1,0,FastFast,9,18,Woman,Right,
33,4,1,1.4016460000002553,['n'],1,right,['u'],1,0.2911614999993617,0.2,1,0,FastFast,9,18,Woman,Right,
34,4,1,1.4005688999995982,['n'],1,right,['u'],1,0.3386504000000059,0.4,1,0,FastFast,9,18,Woman,Right,
35,4,1,1.2677381000003152,['c'],1,left,['u'],1,0.26064319999932195,0.2,1,0,FastFast,9,18,Woman,Right,
36,4,1,0.8514470999998593,['c'],1,left,['u'],1,0.2511027999998987,0.4,1,0,FastFast,9,18,Woman,Right,
37,4,1,0.6185771999998906,['c'],1,left,['u'],1,0.23456979999991745,0.2,1,0,FastFast,9,18,Woman,Right,
38,4,1,1.0339702000001125,['n'],1,right,['u'],1,0.2503618999999162,0.1,1,0,FastFast,9,18,Woman,Right,
39,4,1,1.048839400000361,['c'],1,left,['u'],1,0.20202320000043983,0.4,1,0,FastFast,9,18,Woman,Right,
40,4,1,1.1169221000000107,['c'],1,left,['u'],1,0.32641010000043025,0.4,1,0,FastFast,9,18,Woman,Right,
41,4,1,0.6008316999996168,['c'],1,left,['u'],1,0.24392859999989014,0.2,1,0,FastFast,9,18,Woman,Right,
42,4,1,0.8184479000001375,['c'],1,left,['u'],1,0.3002595999996629,0.4,1,0,FastFast,9,18,Woman,Right,
43,4,1,0.8345654000004288,['c'],0,right,['u'],1,0.3220121000003928,0.1,0,0,FastFast,9,18,Woman,Right,
44,4,1,1.0005338000000847,['n'],1,right,['u'],1,0.2556079000005411,0.1,1,0,FastFast,9,18,Woman,Right,
45,4,1,0.8335887000002913,['c'],1,left,['u'],1,0.262109799999962,0.4,1,0,FastFast,9,18,Woman,Right,
46,4,1,2.417210700000396,['c'],0,right,['e'],0,0.4130616000002192,0.2,1,0,FastFast,9,18,Woman,Right,
47,4,1,0.9176448999996865,['n'],1,right,['e'],0,0.298391399999673,0.2,0,0,FastFast,9,18,Woman,Right,
48,4,1,1.1007638999999472,['c'],1,left,['u'],1,0.1644639999994979,0.2,1,0,FastFast,9,18,Woman,Right,
49,4,1,0.8844975000001796,['n'],1,right,['u'],1,0.2529044000002614,0.1,1,0,FastFast,9,18,Woman,Right,
50,4,1,0.6835283000000345,['c'],1,left,['u'],1,0.31356809999942925,0.4,1,0,FastFast,9,18,Woman,Right,
51,4,1,1.217979000000014,['n'],1,right,['u'],1,0.31878130000040983,0.2,1,0,FastFast,9,18,Woman,Right,
52,4,1,0.8167152000005444,['c'],1,left,['u'],1,0.3557503000001816,0.1,1,0,FastFast,9,18,Woman,Right,
53,4,1,2.600334799999473,['c'],0,right,['e'],0,0.3530250000003434,0.2,1,0,FastFast,9,18,Woman,Right,
54,4,1,1.1835497000001851,['n'],1,right,['u'],1,0.30920809999952326,0.2,1,0,FastFast,9,18,Woman,Right,
55,4,1,0.9350356000004467,['c'],1,left,['u'],1,0.3102428999991389,0.2,1,0,FastFast,9,18,Woman,Right,
56,4,1,2.6512352999998257,['n'],1,right,['e'],0,0.5147821000000476,0.2,0,0,FastFast,9,18,Woman,Right,
57,4,1,1.066569200000231,['n'],1,right,['u'],1,0.31039979999968637,0.4,1,0,FastFast,9,18,Woman,Right,
58,4,1,2.1179369000001316,['c'],1,left,['u'],1,0.2796115999999529,0.2,1,0,FastFast,9,18,Woman,Right,
59,4,1,1.8181414000000586,['c'],1,left,['e'],0,0.2619484000006196,0.1,0,0,FastFast,9,18,Woman,Right,
0,5,1,2.45053469999948,['n'],1,right,['e'],0,1.2618979999997464,0.2,0,0,AccFast,9,18,Woman,Right,
1,5,1,1.3676335999998628,['n'],1,right,['u'],1,0.43902539999999135,0.4,1,0,AccFast,9,18,Woman,Right,
2,5,1,1.0510088999999425,['c'],1,left,['u'],1,0.28581209999993007,0.4,1,0,AccFast,9,18,Woman,Right,
3,5,1,1.4166575999997804,['n'],1,right,['u'],1,0.4769793999994363,0.1,1,0,AccFast,9,18,Woman,Right,
4,5,1,1.2846128000001045,['c'],0,right,['u'],1,0.23264620000009018,0.1,0,0,AccFast,9,18,Woman,Right,
5,5,1,1.034582600000249,['n'],1,right,['u'],1,0.18449820000023465,0.2,1,0,AccFast,9,18,Woman,Right,
6,5,1,1.267040900000211,['c'],0,right,['e'],0,0.17681470000025,0.2,1,0,AccFast,9,18,Woman,Right,
7,5,1,0.9181928999996671,['n'],1,right,['u'],1,0.6156762000000526,0.4,1,0,AccFast,9,18,Woman,Right,
8,5,1,1.4676871000001483,['c'],1,left,['e'],0,0.27872130000014295,0.2,0,0,AccFast,9,18,Woman,Right,
9,5,1,1.9834693000002517,['c'],0,right,['e'],0,0.3672580000002199,0.1,1,0,AccFast,9,18,Woman,Right,
10,5,1,1.4844904000001407,['n'],1,right,['e'],0,0.1993017000004329,0.1,0,0,AccFast,9,18,Woman,Right,
11,5,1,1.2012641999999687,['c'],1,left,['u'],1,0.4015726000006907,0.2,1,0,AccFast,9,18,Woman,Right,
12,5,1,3.716769900000145,['c'],1,left,['u'],1,0.31924810000055004,0.2,1,0,AccFast,9,18,Woman,Right,
13,5,1,1.800179100000605,['c'],0,right,['e'],0,0.28512270000010176,0.1,1,0,AccFast,9,18,Woman,Right,
14,5,1,1.817605000000185,['c'],1,left,['e'],0,0.18745829999988928,0.1,0,0,AccFast,9,18,Woman,Right,
15,5,1,1.2683853999997154,['c'],1,left,['e'],0,0.32393580000007205,0.1,0,0,AccFast,9,18,Woman,Right,
16,5,1,3.2853269999995973,['c'],1,left,['e'],0,0.21453500000006898,0.2,0,0,AccFast,9,18,Woman,Right,
17,5,1,1.0500646000000415,['n'],1,right,['u'],1,0.7422354000000269,0.4,1,0,AccFast,9,18,Woman,Right,
18,5,1,2.050265500000023,['c'],0,right,['e'],0,0.34606500000063534,0.1,1,0,AccFast,9,18,Woman,Right,
19,5,1,2.8832737000002453,['n'],1,right,['e'],0,0.2828816999999617,0.1,0,0,AccFast,9,18,Woman,Right,
20,5,1,4.617434200000389,['n'],0,left,['e'],0,0.37720749999971304,0.2,1,0,AccFast,9,18,Woman,Right,
21,5,1,3.46779400000014,['c'],1,left,['e'],0,0.2907004999997298,0.1,0,0,AccFast,9,18,Woman,Right,
22,5,1,1.8670520000005126,['c'],1,left,['u'],1,0.6870432999994591,0.4,1,0,AccFast,9,18,Woman,Right,
23,5,1,1.100095799999508,['n'],1,right,['u'],1,0.4102222999999867,0.4,1,0,AccFast,9,18,Woman,Right,
24,5,1,0.9835345999999845,['n'],1,right,['u'],1,0.26181759999963106,0.4,1,0,AccFast,9,18,Woman,Right,
25,5,1,1.1503585999998904,['c'],1,left,['u'],1,0.1436402999997881,0.4,1,0,AccFast,9,18,Woman,Right,
26,5,1,0.8345235000006141,['c'],1,left,['u'],1,0.1558508999996775,0.4,1,0,AccFast,9,18,Woman,Right,
27,5,1,2.5835838000002695,['c'],1,left,['e'],0,0.25631000000066706,0.1,0,0,AccFast,9,18,Woman,Right,
28,5,1,0.8845615999998699,['n'],1,right,['u'],1,0.2931171999998696,0.2,1,0,AccFast,9,18,Woman,Right,
29,5,1,1.168061000000307,['c'],1,left,['e'],0,0.430877299999338,0.2,0,0,AccFast,9,18,Woman,Right,
30,5,1,0.9843713999998727,['n'],1,right,['u'],1,0.21550260000003618,0.4,1,0,AccFast,9,18,Woman,Right,
31,5,1,1.3346238000003723,['c'],1,left,['e'],0,0.267635700000028,0.2,0,0,AccFast,9,18,Woman,Right,
32,5,1,1.083178200000475,['n'],1,right,['e'],0,0.9684483999999429,0.2,0,0,AccFast,9,18,Woman,Right,
33,5,1,2.2323053000000073,['n'],0,left,['e'],0,0.18769379999957891,0.2,1,0,AccFast,9,18,Woman,Right,
34,5,1,1.7338934999997946,['c'],1,left,['e'],0,0.22445520000019314,0.1,0,0,AccFast,9,18,Woman,Right,
35,5,1,1.517906099999891,['c'],1,left,['u'],1,0.1891752000001361,0.4,1,0,AccFast,9,18,Woman,Right,
36,5,1,1.0509157999995296,['n'],1,right,['u'],1,0.25484959999994317,0.2,1,0,AccFast,9,18,Woman,Right,
37,5,1,1.2336109999996552,['n'],1,right,['u'],1,0.4220981999997093,0.1,1,0,AccFast,9,18,Woman,Right,
38,5,1,1.0831776999993963,['c'],1,left,['u'],1,0.1883852000000843,0.4,1,0,AccFast,9,18,Woman,Right,
39,5,1,1.4182780999999522,['c'],1,left,['u'],1,0.19005179999930988,0.4,1,0,AccFast,9,18,Woman,Right,
40,5,1,0.9506981000004089,['n'],1,right,['u'],1,0.2753159999992931,0.2,1,0,AccFast,9,18,Woman,Right,
41,5,1,1.0006820999997217,['c'],1,left,['e'],0,0.45140470000023925,0.2,0,0,AccFast,9,18,Woman,Right,
42,5,1,1.4837015000002793,['n'],0,left,['e'],0,0.24857059999976627,0.1,1,0,AccFast,9,18,Woman,Right,
43,5,1,1.0671392000003834,['n'],1,right,['u'],1,0.2295254999999088,0.2,1,0,AccFast,9,18,Woman,Right,
44,5,1,1.6000485000004119,['n'],1,right,['e'],0,0.15882460000011633,0.1,0,0,AccFast,9,18,Woman,Right,
45,5,1,1.984255100000155,['n'],0,left,['e'],0,0.2675580000004629,0.1,1,0,AccFast,9,18,Woman,Right,
46,5,1,1.2831722999999329,['c'],1,left,['u'],1,0.5447512000000643,0.4,1,0,AccFast,9,18,Woman,Right,
47,5,1,0.9502942999997686,['n'],1,right,['u'],1,0.19908940000004804,0.4,1,0,AccFast,9,18,Woman,Right,
48,5,1,1.2158534999998665,['c'],1,left,['u'],1,0.241212999999334,0.4,1,0,AccFast,9,18,Woman,Right,
49,5,1,1.7844205000001239,['n'],1,right,['e'],0,0.17843990000073973,0.1,0,0,AccFast,9,18,Woman,Right,
50,5,1,2.0508159999999407,['c'],1,left,['e'],0,0.2515484000005017,0.2,0,0,AccFast,9,18,Woman,Right,
51,5,1,0.9004743000004964,['n'],1,right,['u'],1,0.2719140999997762,0.2,1,0,AccFast,9,18,Woman,Right,
52,5,1,0.965711800000463,['c'],1,left,['u'],1,0.2731684000000314,0.1,1,0,AccFast,9,18,Woman,Right,
53,5,1,0.9839183000003686,['n'],1,right,['u'],1,0.20924459999969258,0.4,1,0,AccFast,9,18,Woman,Right,
54,5,1,0.7844621999993251,['n'],1,right,['u'],1,0.23635509999985516,0.4,1,0,AccFast,9,18,Woman,Right,
55,5,1,1.0183122999997067,['c'],1,left,['u'],1,0.25233599999955914,0.4,1,0,AccFast,9,18,Woman,Right,
56,5,1,0.9012450999998691,['n'],1,right,['u'],1,0.1928552999997919,0.4,1,0,AccFast,9,18,Woman,Right,
57,5,1,1.6831806999998662,['n'],1,right,['e'],0,0.21705480000036914,0.1,0,0,AccFast,9,18,Woman,Right,
58,5,1,2.0837639999999737,['n'],0,left,['e'],0,0.1589531999998144,0.1,1,0,AccFast,9,18,Woman,Right,
59,5,1,1.8344335000001593,['c'],1,left,['e'],0,0.27428130000043893,0.2,0,0,AccFast,9,18,Woman,Right,
0,6,1,1.4012280000006285,['c'],1,left,['u'],1,1.923077800000101,0.4,1,0,AccAcc,9,18,Woman,Right,
1,6,1,2.2172301000000516,['n'],1,right,['e'],0,1.36018520000016,0.1,0,0,AccAcc,9,18,Woman,Right,
2,6,1,1.6665077999996356,['c'],1,left,['u'],1,0.8268209999996543,0.4,1,0,AccAcc,9,18,Woman,Right,
3,6,1,2.4175899000001664,['n'],1,right,['e'],0,0.6194617000001017,0.1,0,0,AccAcc,9,18,Woman,Right,
4,6,1,1.717004299999644,['n'],1,right,['u'],1,0.7206466999996337,0.2,1,0,AccAcc,9,18,Woman,Right,
5,6,1,1.8165936000004876,['c'],1,left,['u'],1,0.6218988999999056,0.2,1,0,AccAcc,9,18,Woman,Right,
6,6,1,1.383903800000553,['c'],1,left,['u'],1,0.9280472000000373,0.2,1,0,AccAcc,9,18,Woman,Right,
7,6,1,1.5340054999996937,['c'],1,left,['u'],1,0.801200300000346,0.2,1,0,AccAcc,9,18,Woman,Right,
8,6,1,1.7342037999997046,['c'],0,right,['e'],0,0.7336620000005496,0.1,1,0,AccAcc,9,18,Woman,Right,
9,6,1,1.0502981999998156,['c'],1,left,['u'],1,0.7768605000001116,0.4,1,0,AccAcc,9,18,Woman,Right,
10,6,1,2.517537600000651,['n'],1,right,['e'],0,0.3281810000007681,0.1,0,0,AccAcc,9,18,Woman,Right,
11,6,1,1.9495559000006324,['c'],1,left,['u'],1,0.7518264000000272,0.1,1,0,AccAcc,9,18,Woman,Right,
12,6,1,1.1166978999999628,['n'],1,right,['u'],1,0.36015839999981836,0.4,1,0,AccAcc,9,18,Woman,Right,
13,6,1,2.1175222000001668,['n'],0,left,['e'],0,0.18339749999995547,0.1,1,0,AccAcc,9,18,Woman,Right,
14,6,1,1.167818800000532,['n'],1,right,['u'],1,0.35564699999940785,0.2,1,0,AccAcc,9,18,Woman,Right,
15,6,1,1.1843531000004077,['c'],1,left,['u'],1,0.9687991999999213,0.2,1,0,AccAcc,9,18,Woman,Right,
16,6,1,1.9342968000000837,['n'],0,left,['e'],0,0.6312503999997716,0.1,1,0,AccAcc,9,18,Woman,Right,
17,6,1,0.9179610000001048,['n'],1,right,['u'],1,0.41151370000079623,0.4,1,0,AccAcc,9,18,Woman,Right,
18,6,1,1.0009741000003487,['n'],1,right,['u'],1,0.4374220999998215,0.4,1,0,AccAcc,9,18,Woman,Right,
19,6,1,1.9347317000001567,['n'],1,right,['u'],1,0.4410755999997491,0.1,1,0,AccAcc,9,18,Woman,Right,
20,6,1,1.0343892000000778,['n'],1,right,['u'],1,0.46468689999983326,0.2,1,0,AccAcc,9,18,Woman,Right,
21,6,1,1.3180980000006457,['n'],1,right,['u'],1,0.39580039999964356,0.4,1,0,AccAcc,9,18,Woman,Right,
22,6,1,2.00031989999934,['n'],0,left,['e'],0,0.3503896000001987,0.1,1,0,AccAcc,9,18,Woman,Right,
23,6,1,1.3331444000004922,['c'],1,left,['u'],1,0.3659720000005109,0.2,1,0,AccAcc,9,18,Woman,Right,
24,6,1,1.1845217000000048,['c'],0,right,['u'],1,0.3376014999994368,0.2,0,0,AccAcc,9,18,Woman,Right,
25,6,1,1.416013699999894,['c'],1,left,['u'],1,0.3508842999999615,0.4,1,0,AccAcc,9,18,Woman,Right,
26,6,1,1.917131100000006,['c'],1,left,['u'],1,0.27792570000019623,0.2,1,0,AccAcc,9,18,Woman,Right,
27,6,1,1.151057000000037,['n'],1,right,['u'],1,0.5276583000004393,0.2,1,0,AccAcc,9,18,Woman,Right,
28,6,1,2.16746189999958,['c'],1,left,['u'],1,0.34336200000052486,0.1,1,0,AccAcc,9,18,Woman,Right,
29,6,1,1.5344132000000172,['n'],1,right,['u'],1,0.526566699999421,0.1,1,0,AccAcc,9,18,Woman,Right,
30,6,1,1.5006721999998263,['c'],1,left,['u'],1,0.3842256999996607,0.4,1,0,AccAcc,9,18,Woman,Right,
31,6,1,2.849929500000144,['c'],1,left,['e'],0,0.33741770000051474,0.2,0,0,AccAcc,9,18,Woman,Right,
32,6,1,1.5830196999995678,['n'],1,right,['u'],1,0.3757578000004287,0.2,1,0,AccAcc,9,18,Woman,Right,
33,6,1,1.6845700999992914,['n'],1,right,['e'],0,0.455521800000497,0.2,0,0,AccAcc,9,18,Woman,Right,
34,6,1,0.984383699999853,['c'],1,left,['u'],1,0.5298187000007601,0.4,1,0,AccAcc,9,18,Woman,Right,
35,6,1,2.383014000000003,['n'],1,right,['e'],0,0.4464663999997356,0.1,0,0,AccAcc,9,18,Woman,Right,
36,6,1,1.9837133999999423,['c'],1,left,['e'],0,0.6236808000003293,0.1,0,0,AccAcc,9,18,Woman,Right,
37,6,1,1.8185243000007176,['c'],1,left,['u'],1,0.5288258000000496,0.4,1,0,AccAcc,9,18,Woman,Right,
38,6,1,1.083785999999236,['n'],1,right,['u'],1,0.6426140000003215,0.2,1,0,AccAcc,9,18,Woman,Right,
39,6,1,0.9997583000003942,['n'],1,right,['u'],1,0.5962589000000662,0.4,1,0,AccAcc,9,18,Woman,Right,
40,6,1,1.1169047000003047,['n'],1,right,['u'],1,0.5452037000004566,0.4,1,0,AccAcc,9,18,Woman,Right,
41,6,1,1.051115799999934,['c'],1,left,['u'],1,0.6758922999997594,0.1,1,0,AccAcc,9,18,Woman,Right,
42,6,1,1.5503152999999656,['n'],0,left,['u'],1,0.5255053999999291,0.1,0,0,AccAcc,9,18,Woman,Right,
43,6,1,1.634217499999977,['c'],1,left,['u'],1,0.2992236000000048,0.1,1,0,AccAcc,9,18,Woman,Right,
44,6,1,1.168177900000046,['c'],1,left,['u'],1,0.6270189000006212,0.2,1,0,AccAcc,9,18,Woman,Right,
45,6,1,1.452359400000205,['n'],1,right,['e'],0,0.5451975000005405,0.1,0,0,AccAcc,9,18,Woman,Right,
46,6,1,1.1501313999997365,['n'],1,right,['u'],1,0.5117443999997704,0.4,1,0,AccAcc,9,18,Woman,Right,
47,6,1,1.0346529999997074,['n'],1,right,['u'],1,0.7240082999996957,0.4,1,0,AccAcc,9,18,Woman,Right,
48,6,1,1.5346528000000035,['c'],0,right,['u'],1,0.5723793999995905,0.2,0,0,AccAcc,9,18,Woman,Right,
49,6,1,1.3670928999999887,['c'],1,left,['u'],1,0.7055776000006517,0.4,1,0,AccAcc,9,18,Woman,Right,
50,6,1,1.201000899999599,['c'],1,left,['u'],1,0.5039772000000085,0.4,1,0,AccAcc,9,18,Woman,Right,
51,6,1,1.2013647000003402,['n'],1,right,['u'],1,0.5182072999996308,0.1,1,0,AccAcc,9,18,Woman,Right,
52,6,1,1.2669316999999864,['c'],1,left,['u'],1,0.6101443999996263,0.2,1,0,AccAcc,9,18,Woman,Right,
53,6,1,3.0001498000001448,['c'],1,left,['e'],0,0.53186100000039,0.1,0,0,AccAcc,9,18,Woman,Right,
54,6,1,2.6339941000005638,['c'],0,right,['e'],0,0.6319306000004872,0.1,1,0,AccAcc,9,18,Woman,Right,
55,6,1,3.0508782999995674,['c'],1,left,['e'],0,0.4709995999992316,0.4,0,0,AccAcc,9,18,Woman,Right,
56,6,1,1.967066100000011,['c'],1,left,['e'],0,0.8402426000002379,0.2,0,0,AccAcc,9,18,Woman,Right,
57,6,1,1.4670673999999053,['n'],1,right,['e'],0,0.4955085000001418,0.2,0,0,AccAcc,9,18,Woman,Right,
58,6,1,1.1001633000005313,['n'],1,right,['u'],1,0.44983919999958744,0.4,1,0,AccAcc,9,18,Woman,Right,
59,6,1,1.1841365000000224,['n'],1,right,['u'],1,0.40335419999973965,0.4,1,0,AccAcc,9,18,Woman,Right,
0,7,1,0.7519779000003837,['n'],1,right,['u'],1,1.8114784999997937,0.4,1,0,FastAcc,9,18,Woman,Right,
1,7,1,0.5162608000000546,['c'],1,left,['u'],1,0.20100989999991725,0.4,1,0,FastAcc,9,18,Woman,Right,
2,7,1,0.5848290000003544,['n'],1,right,['u'],1,0.6038818999995783,0.2,1,0,FastAcc,9,18,Woman,Right,
3,7,1,0.8509085000005143,['n'],1,right,['e'],0,0.6282158000003619,0.1,0,0,FastAcc,9,18,Woman,Right,
4,7,1,0.6179221000002144,['n'],1,right,['u'],1,0.5328300999999556,0.4,1,0,FastAcc,9,18,Woman,Right,
5,7,1,0.750223900000492,['n'],1,right,['u'],1,0.6918352000002415,0.4,1,0,FastAcc,9,18,Woman,Right,
6,7,1,0.6337382000001526,['c'],1,left,['u'],1,0.5942459999996572,0.2,1,0,FastAcc,9,18,Woman,Right,
7,7,1,0.684579699999631,['c'],1,left,['u'],1,0.5288114000004498,0.4,1,0,FastAcc,9,18,Woman,Right,
8,7,1,1.2176823999998305,['c'],1,left,['e'],0,0.6213190999997096,0.2,0,0,FastAcc,9,18,Woman,Right,
9,7,1,0.8170861999997214,['n'],1,right,['u'],1,1.0149605999995401,0.4,1,0,FastAcc,9,18,Woman,Right,
10,7,1,1.3841846000004807,['c'],1,left,['e'],0,1.048859600000469,0.4,0,0,FastAcc,9,18,Woman,Right,
11,7,1,1.3344549000003099,['n'],1,right,['e'],0,1.164332999999715,0.2,0,0,FastAcc,9,18,Woman,Right,
12,7,1,0.9504769000004671,['c'],1,left,['e'],0,0.8416815999999017,0.2,0,0,FastAcc,9,18,Woman,Right,
13,7,1,0.8848789000003308,['c'],1,left,['u'],1,0.6635188000000198,0.2,1,0,FastAcc,9,18,Woman,Right,
14,7,1,0.8004806999997527,['n'],1,right,['u'],1,0.7193086999996012,0.2,1,0,FastAcc,9,18,Woman,Right,
15,7,1,0.5671170000005077,['n'],1,right,['u'],1,1.038737900000342,0.4,1,0,FastAcc,9,18,Woman,Right,
16,7,1,1.0002788000001601,['c'],1,left,['e'],0,0.751959999999599,0.1,0,0,FastAcc,9,18,Woman,Right,
17,7,1,0.5680241000000024,['n'],1,right,['u'],1,0.8296164000003046,0.2,1,0,FastAcc,9,18,Woman,Right,
18,7,1,0.6846288999995522,['n'],1,right,['u'],1,1.0905437000001257,0.4,1,0,FastAcc,9,18,Woman,Right,
19,7,1,1.4838965999997527,['n'],1,right,['e'],0,0.5106404000007387,0.1,0,0,FastAcc,9,18,Woman,Right,
20,7,1,0.7338541999997688,['n'],1,right,['u'],1,0.656090000000404,0.4,1,0,FastAcc,9,18,Woman,Right,
21,7,1,1.2172884000001432,['c'],1,left,['e'],0,1.6871790000004694,0.2,0,0,FastAcc,9,18,Woman,Right,
22,7,1,0.7333563000001959,['n'],1,right,['u'],1,0.9056661000004169,0.4,1,0,FastAcc,9,18,Woman,Right,
23,7,1,0.834282699999676,['c'],1,left,['u'],1,1.1101046000003407,0.2,1,0,FastAcc,9,18,Woman,Right,
24,7,1,1.0181093000001056,['n'],0,left,['e'],0,0.9637486000001445,0.1,1,0,FastAcc,9,18,Woman,Right,
25,7,1,2.0337251000000833,['n'],1,right,['e'],0,1.1983570000002146,0.1,0,0,FastAcc,9,18,Woman,Right,
26,7,1,0.8664915999997902,['n'],1,right,['u'],1,0.38322900000002846,0.4,1,0,FastAcc,9,18,Woman,Right,
27,7,1,0.9182154999998602,['n'],1,right,['u'],1,1.1486719000004086,0.4,1,0,FastAcc,9,18,Woman,Right,
28,7,1,3.166918599999917,['n'],1,right,['e'],0,0.7552861999993183,0.1,0,0,FastAcc,9,18,Woman,Right,
29,7,1,1.6343118000004324,['n'],1,right,['e'],0,0.6464218000000983,0.1,0,0,FastAcc,9,18,Woman,Right,
30,7,1,1.0516805999995995,['n'],1,right,['e'],0,0.7399931999998444,0.2,0,0,FastAcc,9,18,Woman,Right,
31,7,1,1.7172901000003549,['c'],1,left,['e'],0,0.7245808000006946,0.2,0,0,FastAcc,9,18,Woman,Right,
32,7,1,1.1167476999999053,['c'],1,left,['e'],0,0.5414933000001838,0.2,0,0,FastAcc,9,18,Woman,Right,
33,7,1,1.3182706999996299,['c'],0,right,['e'],0,0.5818641999994725,0.2,1,0,FastAcc,9,18,Woman,Right,
34,7,1,1.4010869000003368,['c'],1,left,['u'],1,0.5370866000002934,0.4,1,0,FastAcc,9,18,Woman,Right,
35,7,1,1.3670838999996704,['c'],0,right,['e'],0,0.49543529999937164,0.1,1,0,FastAcc,9,18,Woman,Right,
36,7,1,1.2343811999999161,['c'],1,left,['u'],1,0.6203692999997656,0.4,1,0,FastAcc,9,18,Woman,Right,
37,7,1,1.2349853000005169,['n'],1,right,['u'],1,0.5331592000002274,0.2,1,0,FastAcc,9,18,Woman,Right,
38,7,1,0.8175013000000035,['n'],1,right,['u'],1,0.8972848999992493,0.2,1,0,FastAcc,9,18,Woman,Right,
39,7,1,0.8349702000004982,['c'],1,left,['u'],1,0.6065189000000828,0.4,1,0,FastAcc,9,18,Woman,Right,
40,7,1,1.5677657999995063,['n'],0,left,['e'],0,0.5700750000005428,0.1,1,0,FastAcc,9,18,Woman,Right,
41,7,1,1.3993862999996054,['n'],0,left,['e'],0,0.8302566999991541,0.1,1,0,FastAcc,9,18,Woman,Right,
42,7,1,0.6512342000005447,['c'],1,left,['e'],0,1.4128439999994953,0.2,0,0,FastAcc,9,18,Woman,Right,
43,7,1,1.0843548000002556,['n'],1,right,['e'],0,1.1232187999994494,0.1,0,0,FastAcc,9,18,Woman,Right,
44,7,1,0.7834318000004714,['c'],1,left,['u'],1,0.730283299999428,0.4,1,0,FastAcc,9,18,Woman,Right,
45,7,1,0.9844070999997712,['c'],1,left,['e'],0,0.9353559000001042,0.1,0,0,FastAcc,9,18,Woman,Right,
46,7,1,1.5511327000003803,['c'],1,left,['e'],0,0.582521799999995,0.1,0,0,FastAcc,9,18,Woman,Right,
47,7,1,2.0841126000004806,['c'],1,left,['e'],0,0.6543504000001121,0.1,0,0,FastAcc,9,18,Woman,Right,
48,7,1,1.0665672999994058,['c'],1,left,['e'],0,0.5887945999993462,0.1,0,0,FastAcc,9,18,Woman,Right,
49,7,1,0.6343875000002299,['c'],1,left,['e'],0,0.7177984999998444,0.1,0,0,FastAcc,9,18,Woman,Right,
50,7,1,1.5013815000002069,['c'],1,left,['e'],0,0.343528299999889,0.4,0,0,FastAcc,9,18,Woman,Right,
51,7,1,0.7851064000005863,['n'],1,right,['e'],0,0.42923420000079204,0.1,0,0,FastAcc,9,18,Woman,Right,
52,7,1,1.2854978999994273,['n'],1,right,['e'],0,0.4907445999997435,0.1,0,0,FastAcc,9,18,Woman,Right,
53,7,1,1.4180962000000363,['n'],0,left,['e'],0,1.1372381000001042,0.2,1,0,FastAcc,9,18,Woman,Right,
54,7,1,1.1345382999998037,['n'],1,right,['u'],1,0.9210449000001972,0.2,1,0,FastAcc,9,18,Woman,Right,
55,7,1,1.7177195000003849,['n'],0,left,['e'],0,0.7542892999999822,0.1,1,0,FastAcc,9,18,Woman,Right,
56,7,1,0.9171286999999211,['n'],1,right,['u'],1,0.6265702999999121,0.4,1,0,FastAcc,9,18,Woman,Right,
57,7,1,1.117594000000281,['n'],1,right,['u'],1,0.7350808000001052,0.4,1,0,FastAcc,9,18,Woman,Right,
58,7,1,1.2677398000005269,['c'],1,left,['e'],0,0.769521000000168,0.1,0,0,FastAcc,9,18,Woman,Right,
59,7,1,1.0842723000005208,['c'],1,left,['u'],1,0.5699022999997396,0.2,1,0,FastAcc,9,18,Woman,Right,
0,8,1,0.9336107999997694,['n'],1,right,['u'],1,0.5951448000005257,0.2,1,0,FastFast,9,18,Woman,Right,
1,8,1,0.7841024999997899,['c'],1,left,['u'],1,0.38225229999989097,0.4,1,0,FastFast,9,18,Woman,Right,
2,8,1,1.1163661999999022,['c'],1,left,['e'],0,0.26184339999963413,0.2,0,0,FastFast,9,18,Woman,Right,
3,8,1,0.6187586999994892,['n'],1,right,['u'],1,0.2601946000004318,0.2,1,0,FastFast,9,18,Woman,Right,
4,8,1,0.6348153999997521,['c'],1,left,['u'],1,0.2430460999994466,0.4,1,0,FastFast,9,18,Woman,Right,
5,8,1,0.5341580000003887,['c'],1,left,['u'],1,0.29470539999965695,0.4,1,0,FastFast,9,18,Woman,Right,
6,8,1,0.5343635999997787,['n'],1,right,['u'],1,0.28020509999987553,0.2,1,0,FastFast,9,18,Woman,Right,
7,8,1,1.0505483999995704,['n'],1,right,['u'],1,0.26121039999998175,0.2,1,0,FastFast,9,18,Woman,Right,
8,8,1,0.6346282999993491,['n'],1,right,['u'],1,0.29224040000008245,0.2,1,0,FastFast,9,18,Woman,Right,
9,8,1,0.8336545000001934,['n'],1,right,['u'],1,0.32994200000030105,0.4,1,0,FastFast,9,18,Woman,Right,
10,8,1,0.4497056000000157,['c'],1,left,['u'],1,0.2535176000001229,0.1,1,0,FastFast,9,18,Woman,Right,
11,8,1,0.8511172999997143,['n'],1,right,['u'],1,0.2271575999993729,0.2,1,0,FastFast,9,18,Woman,Right,
12,8,1,0.5178952000005665,['c'],1,left,['u'],1,0.21604499999921245,0.1,1,0,FastFast,9,18,Woman,Right,
13,8,1,0.6851169000001391,['n'],1,right,['u'],1,0.31012099999952625,0.4,1,0,FastFast,9,18,Woman,Right,
14,8,1,0.8346443000000363,['c'],1,left,['u'],1,0.28334540000014385,0.4,1,0,FastFast,9,18,Woman,Right,
15,8,1,0.7677508000006128,['n'],1,right,['u'],1,0.30776540000078967,0.1,1,0,FastFast,9,18,Woman,Right,
16,8,1,0.618566600000122,['c'],1,left,['u'],1,0.27328160000070056,0.1,1,0,FastFast,9,18,Woman,Right,
17,8,1,0.6828998999999385,['c'],1,left,['u'],1,0.19042520000039076,0.1,1,0,FastFast,9,18,Woman,Right,
18,8,1,0.6164880000005724,['c'],1,left,['u'],1,0.2571575000001758,0.1,1,0,FastFast,9,18,Woman,Right,
19,8,1,0.7013882999999623,['n'],1,right,['u'],1,0.2841827000002013,0.1,1,0,FastFast,9,18,Woman,Right,
20,8,1,0.6006379999998899,['c'],1,left,['u'],1,0.3150669000006019,0.2,1,0,FastFast,9,18,Woman,Right,
21,8,1,0.8000251000003118,['n'],1,right,['u'],1,0.2569772999995621,0.4,1,0,FastFast,9,18,Woman,Right,
22,8,1,0.6508262999996077,['c'],1,left,['u'],1,0.271011400000134,0.2,1,0,FastFast,9,18,Woman,Right,
23,8,1,0.6499774999992951,['c'],1,left,['u'],1,0.2856525999995938,0.4,1,0,FastFast,9,18,Woman,Right,
24,8,1,0.6662274000000252,['n'],1,right,['u'],1,0.28176880000046367,0.1,1,0,FastFast,9,18,Woman,Right,
25,8,1,0.6510782000004838,['c'],1,left,['u'],1,0.245805499999733,0.1,1,0,FastFast,9,18,Woman,Right,
26,8,1,0.6011058999993111,['n'],1,right,['u'],1,0.2781052999998792,0.2,1,0,FastFast,9,18,Woman,Right,
27,8,1,1.0506772999997338,['c'],1,left,['u'],1,0.37214270000004035,0.1,1,0,FastFast,9,18,Woman,Right,
28,8,1,0.815819499999634,['n'],1,right,['u'],1,0.2632203000002846,0.2,1,0,FastFast,9,18,Woman,Right,
29,8,1,0.8175195999992866,['c'],1,left,['u'],1,0.2538460000005216,0.4,1,0,FastFast,9,18,Woman,Right,
30,8,1,1.4513624999999593,['c'],1,left,['e'],0,0.30011449999983597,0.2,0,0,FastFast,9,18,Woman,Right,
31,8,1,0.899489999999787,['n'],1,right,['u'],1,0.23916280000048573,0.4,1,0,FastFast,9,18,Woman,Right,
32,8,1,1.1680664999994406,['n'],1,right,['e'],0,0.20080930000040098,0.2,0,0,FastFast,9,18,Woman,Right,
33,8,1,1.517658400000073,['n'],1,right,['e'],0,0.19860359999984212,0.4,0,0,FastFast,9,18,Woman,Right,
34,8,1,0.8849369999998089,['c'],1,left,['u'],1,0.3174117999997179,0.1,1,0,FastFast,9,18,Woman,Right,
35,8,1,0.7333855999995649,['c'],1,left,['u'],1,0.34194899999965855,0.1,1,0,FastFast,9,18,Woman,Right,
36,8,1,0.9174882999996044,['c'],1,left,['u'],1,0.27813940000032744,0.1,1,0,FastFast,9,18,Woman,Right,
37,8,1,0.8353561000003538,['n'],1,right,['u'],1,0.30049030000009225,0.1,1,0,FastFast,9,18,Woman,Right,
38,8,1,0.8512447000002794,['n'],1,right,['u'],1,0.3049080999999205,0.4,1,0,FastFast,9,18,Woman,Right,
39,8,1,0.6845154000002367,['n'],1,right,['u'],1,0.3638338999999178,0.1,1,0,FastFast,9,18,Woman,Right,
40,8,1,0.8844279000004462,['c'],1,left,['u'],1,0.23604859999977634,0.1,1,0,FastFast,9,18,Woman,Right,
41,8,1,0.7343332999998893,['c'],1,left,['u'],1,0.2478110000001834,0.4,1,0,FastFast,9,18,Woman,Right,
42,8,1,1.0674613999999565,['n'],1,right,['u'],1,0.3415385000007518,0.4,1,0,FastFast,9,18,Woman,Right,
43,8,1,1.4500394000006054,['c'],1,left,['u'],1,0.41765829999985726,0.4,1,0,FastFast,9,18,Woman,Right,
44,8,1,0.8837819000000309,['n'],1,right,['u'],1,0.33589389999997366,0.2,1,0,FastFast,9,18,Woman,Right,
45,8,1,0.718735899999956,['n'],1,right,['u'],1,0.24757399999998597,0.4,1,0,FastFast,9,18,Woman,Right,
46,8,1,0.8511490000000776,['c'],1,left,['u'],1,0.3025619000000006,0.2,1,0,FastFast,9,18,Woman,Right,
47,8,1,1.3513820999996824,['c'],1,left,['u'],1,0.23781989999952202,0.2,1,0,FastFast,9,18,Woman,Right,
48,8,1,2.6996034999992844,['c'],1,left,['e'],0,0.29974870000023657,0.1,0,0,FastFast,9,18,Woman,Right,
49,8,1,0.7329065000003538,['n'],1,right,['u'],1,0.2130762999995568,0.4,1,0,FastFast,9,18,Woman,Right,
50,8,1,0.917736800000057,['n'],1,right,['u'],1,0.2656874999993306,0.2,1,0,FastFast,9,18,Woman,Right,
51,8,1,1.1842735000000175,['c'],1,left,['u'],1,0.2573400999999649,0.4,1,0,FastFast,9,18,Woman,Right,
52,8,1,1.4009793999994145,['c'],0,right,['e'],0,0.35388200000033976,0.1,1,0,FastFast,9,18,Woman,Right,
53,8,1,0.9837253000005148,['c'],1,left,['u'],1,0.20687029999953666,0.4,1,0,FastFast,9,18,Woman,Right,
54,8,1,0.649873899999875,['n'],1,right,['u'],1,0.2078547000000981,0.2,1,0,FastFast,9,18,Woman,Right,
55,8,1,0.4173270000001139,['c'],1,left,['u'],1,0.20048680000036256,0.4,1,0,FastFast,9,18,Woman,Right,
56,8,1,0.8332367000002705,['n'],1,right,['u'],1,0.2742691000003106,0.2,1,0,FastFast,9,18,Woman,Right,
57,8,1,1.2677160000002914,['c'],1,left,['u'],1,0.2306492999996408,0.1,1,0,FastFast,9,18,Woman,Right,
58,8,1,0.9009280000000217,['n'],1,right,['u'],1,0.26765119999981835,0.2,1,0,FastFast,9,18,Woman,Right,
59,8,1,1.2833575999993627,['c'],0,right,['e'],0,0.4485735999996905,0.1,1,0,FastFast,9,18,Woman,Right,
0,9,1,1.0004376999995657,['c'],1,left,['u'],1,1.5061286999998629,0.2,1,0,AccFast,9,18,Woman,Right,
1,9,1,0.8343061000005036,['c'],1,left,['u'],1,0.2310562000002392,0.1,1,0,AccFast,9,18,Woman,Right,
2,9,1,0.8995716999997967,['n'],0,left,['u'],1,0.3487586999999621,0.2,0,0,AccFast,9,18,Woman,Right,
3,9,1,1.567500199999813,['n'],1,right,['e'],0,0.17779199999949924,0.1,0,0,AccFast,9,18,Woman,Right,
4,9,1,1.3180003999996188,['n'],1,right,['e'],0,0.23279999999977008,0.1,0,0,AccFast,9,18,Woman,Right,
5,9,1,0.8838143000002674,['n'],1,right,['u'],1,0.3343636999998125,0.4,1,0,AccFast,9,18,Woman,Right,
6,9,1,1.3511239999997997,['n'],1,right,['e'],0,0.2213369999999486,0.1,0,0,AccFast,9,18,Woman,Right,
7,9,1,0.8347831999999471,['c'],1,left,['u'],1,0.5017577999997229,0.2,1,0,AccFast,9,18,Woman,Right,
8,9,1,1.2510111999999936,['n'],1,right,['u'],1,0.30603100000007544,0.4,1,0,AccFast,9,18,Woman,Right,
9,9,1,0.9504203000005873,['n'],1,right,['u'],1,0.2264335999998366,0.4,1,0,AccFast,9,18,Woman,Right,
10,9,1,0.9179018000004362,['n'],1,right,['u'],1,0.34346759999971255,0.4,1,0,AccFast,9,18,Woman,Right,
11,9,1,1.4669580999998288,['c'],1,left,['e'],0,0.2898504000004323,0.1,0,0,AccFast,9,18,Woman,Right,
12,9,1,0.8662103999995452,['c'],1,left,['u'],1,0.3113101999997525,0.2,1,0,AccFast,9,18,Woman,Right,
13,9,1,1.1176852999997209,['c'],1,left,['u'],1,0.22390290000021196,0.4,1,0,AccFast,9,18,Woman,Right,
14,9,1,0.8332989000000453,['c'],1,left,['u'],1,0.26399399999991147,0.2,1,0,AccFast,9,18,Woman,Right,
15,9,1,0.7669410999997126,['c'],1,left,['u'],1,0.25731719999930647,0.4,1,0,AccFast,9,18,Woman,Right,
16,9,1,0.6504024000005302,['c'],1,left,['u'],1,0.25540150000051653,0.1,1,0,AccFast,9,18,Woman,Right,
17,9,1,0.9172259999995731,['n'],1,right,['u'],1,0.3230529000002207,0.2,1,0,AccFast,9,18,Woman,Right,
18,9,1,1.0167062999998961,['n'],1,right,['u'],1,0.304160700000466,0.2,1,0,AccFast,9,18,Woman,Right,
19,9,1,0.7176300999999512,['c'],1,left,['u'],1,0.29776399999991554,0.2,1,0,AccFast,9,18,Woman,Right,
20,9,1,0.9332867000002807,['n'],1,right,['u'],1,0.2671848999998474,0.4,1,0,AccFast,9,18,Woman,Right,
21,9,1,2.2840843999993012,['n'],1,right,['u'],1,0.27916149999964546,0.2,1,0,AccFast,9,18,Woman,Right,
22,9,1,1.3509152000005997,['c'],1,left,['e'],0,0.24818409999988944,0.2,0,0,AccFast,9,18,Woman,Right,
23,9,1,1.9676018000000113,['n'],1,right,['e'],0,0.19399179999982152,0.1,0,0,AccFast,9,18,Woman,Right,
24,9,1,2.067954500000269,['n'],1,right,['e'],0,0.28235080000013113,0.2,0,0,AccFast,9,18,Woman,Right,
25,9,1,1.2339172000001781,['n'],0,left,['e'],0,0.1280808999999863,0.1,1,0,AccFast,9,18,Woman,Right,
26,9,1,1.7848159999994095,['c'],1,left,['u'],1,0.29517219999979716,0.4,1,0,AccFast,9,18,Woman,Right,
27,9,1,2.2676307000001543,['c'],1,left,['e'],0,0.6592313000001013,0.2,0,0,AccFast,9,18,Woman,Right,
28,9,1,1.0178817999994862,['n'],1,right,['u'],1,0.3066994999999224,0.4,1,0,AccFast,9,18,Woman,Right,
29,9,1,0.8181543000000602,['n'],1,right,['u'],1,0.3284292000007554,0.4,1,0,AccFast,9,18,Woman,Right,
30,9,1,2.5687106999994285,['c'],0,right,['e'],0,0.45488099999965925,0.2,1,0,AccFast,9,18,Woman,Right,
31,9,1,1.5510334999999031,['n'],1,right,['e'],0,0.31324190000032104,0.1,0,0,AccFast,9,18,Woman,Right,
32,9,1,2.101167999999234,['n'],0,left,['e'],0,0.21909080000023096,0.1,1,0,AccFast,9,18,Woman,Right,
33,9,1,1.7341270999995686,['c'],1,left,['e'],0,0.2874517999998716,0.2,0,0,AccFast,9,18,Woman,Right,
34,9,1,1.033336400000735,['c'],1,left,['u'],1,0.237859999999273,0.4,1,0,AccFast,9,18,Woman,Right,
35,9,1,1.4346575999998095,['c'],1,left,['e'],0,0.3968556999998327,0.1,0,0,AccFast,9,18,Woman,Right,
36,9,1,2.7163626000001386,['n'],1,right,['e'],0,0.5474913999996716,0.1,0,0,AccFast,9,18,Woman,Right,
37,9,1,0.8998335000005682,['c'],1,left,['u'],1,0.26725210000040533,0.2,1,0,AccFast,9,18,Woman,Right,
38,9,1,0.8344269999997778,['n'],1,right,['u'],1,0.20986749999974563,0.4,1,0,AccFast,9,18,Woman,Right,
39,9,1,0.8845522000001438,['n'],1,right,['u'],1,0.24894049999966228,0.4,1,0,AccFast,9,18,Woman,Right,
40,9,1,0.5329168999996909,['c'],1,left,['u'],1,0.2520896999994875,0.4,1,0,AccFast,9,18,Woman,Right,
41,9,1,0.7172092999999222,['n'],1,right,['u'],1,0.29496800000015355,0.2,1,0,AccFast,9,18,Woman,Right,
42,9,1,0.7679329000002326,['c'],1,left,['u'],1,0.3026380000001154,0.4,1,0,AccFast,9,18,Woman,Right,
43,9,1,1.5332558000000063,['c'],1,left,['e'],0,0.48805220000031113,0.1,0,0,AccFast,9,18,Woman,Right,
44,9,1,0.8326477999999042,['c'],1,left,['u'],1,0.294698800000333,0.4,1,0,AccFast,9,18,Woman,Right,
45,9,1,0.8516835999998875,['n'],1,right,['u'],1,0.28249659999983123,0.4,1,0,AccFast,9,18,Woman,Right,
46,9,1,0.7851080000000366,['c'],1,left,['u'],1,0.29019569999945816,0.2,1,0,AccFast,9,18,Woman,Right,
47,9,1,1.5003937999999835,['n'],1,right,['e'],0,0.20528139999987616,0.1,0,0,AccFast,9,18,Woman,Right,
48,9,1,0.8502211000004536,['n'],1,right,['u'],1,0.24560449999989942,0.4,1,0,AccFast,9,18,Woman,Right,
49,9,1,0.6516461000001073,['n'],1,right,['u'],1,0.35581489999913174,0.4,1,0,AccFast,9,18,Woman,Right,
50,9,1,0.6347260000002279,['n'],1,right,['u'],1,0.2707739000006768,0.4,1,0,AccFast,9,18,Woman,Right,
51,9,1,2.016944799999692,['n'],1,right,['e'],0,0.19803800000045158,0.2,0,0,AccFast,9,18,Woman,Right,
52,9,1,1.2000353000003088,['c'],1,left,['u'],1,0.2412347999998019,0.1,1,0,AccFast,9,18,Woman,Right,
53,9,1,1.216469799999686,['n'],1,right,['u'],1,0.24910469999940688,0.1,1,0,AccFast,9,18,Woman,Right,
54,9,1,2.1843182000002344,['n'],1,right,['e'],0,0.281673999999839,0.1,0,0,AccFast,9,18,Woman,Right,
55,9,1,1.233812399999806,['c'],1,left,['u'],1,0.17544460000044637,0.1,1,0,AccFast,9,18,Woman,Right,
56,9,1,1.0666363000000274,['c'],1,left,['u'],1,0.1762178999997559,0.2,1,0,AccFast,9,18,Woman,Right,
57,9,1,2.0173411000005217,['n'],1,right,['e'],0,0.1721609999995053,0.2,0,0,AccFast,9,18,Woman,Right,
58,9,1,1.0842485000002853,['c'],1,left,['u'],1,0.21980170000006183,0.1,1,0,AccFast,9,18,Woman,Right,
59,9,1,1.7831619999997201,['c'],1,left,['e'],0,0.22296559999995225,0.1,0,0,AccFast,9,18,Woman,Right,
0,10,1,4.3008413999996264,['c'],1,left,['e'],0,1.0742674999992232,0.1,0,0,AccAcc,9,18,Woman,Right,
1,10,1,0.9008507000007739,['n'],1,right,['u'],1,0.678679500000726,0.4,1,0,AccAcc,9,18,Woman,Right,
2,10,1,0.950456600000507,['c'],1,left,['u'],1,0.5203811999999743,0.4,1,0,AccAcc,9,18,Woman,Right,
3,10,1,1.2001262000003408,['c'],1,left,['u'],1,0.6774794000002657,0.2,1,0,AccAcc,9,18,Woman,Right,
4,10,1,3.051382999999987,['n'],1,right,['e'],0,0.5953874999995605,0.1,0,0,AccAcc,9,18,Woman,Right,
5,10,1,4.833908200000224,['c'],1,left,['e'],0,0.5411999999996624,0.1,0,0,AccAcc,9,18,Woman,Right,
6,10,1,2.0014264000001276,['n'],1,right,['u'],1,0.185989000000518,0.4,1,0,AccAcc,9,18,Woman,Right,
7,10,1,2.317624700000124,['n'],1,right,['e'],0,0.472379899999396,0.2,0,0,AccAcc,9,18,Woman,Right,
8,10,1,1.2998059000001376,['c'],1,left,['u'],1,0.1810739000002286,0.1,1,0,AccAcc,9,18,Woman,Right,
9,10,1,1.150470800000221,['c'],1,left,['u'],1,0.16137629999957426,0.2,1,0,AccAcc,9,18,Woman,Right,
10,10,1,1.0513099999998303,['n'],1,right,['u'],1,0.4355705999996644,0.2,1,0,AccAcc,9,18,Woman,Right,
11,10,1,0.9665132999998605,['c'],1,left,['u'],1,0.42994630000066536,0.2,1,0,AccAcc,9,18,Woman,Right,
12,10,1,0.9178280000005543,['n'],1,right,['u'],1,0.5865465000006225,0.1,1,0,AccAcc,9,18,Woman,Right,
13,10,1,1.0505385000005845,['n'],1,right,['u'],1,0.6194085999995878,0.4,1,0,AccAcc,9,18,Woman,Right,
14,10,1,0.8847964999995384,['c'],1,left,['u'],1,0.48166889999993145,0.2,1,0,AccAcc,9,18,Woman,Right,
15,10,1,1.0011489999997139,['c'],1,left,['u'],1,0.4085334999999759,0.4,1,0,AccAcc,9,18,Woman,Right,
16,10,1,1.3008849000007103,['c'],1,left,['e'],0,0.551610200000141,0.1,0,0,AccAcc,9,18,Woman,Right,
17,10,1,0.9344134999992093,['n'],1,right,['u'],1,0.525933900000382,0.4,1,0,AccAcc,9,18,Woman,Right,
18,10,1,0.9840452999997069,['c'],1,left,['u'],1,0.42057279999971797,0.2,1,0,AccAcc,9,18,Woman,Right,
19,10,1,0.867583299999751,['n'],1,right,['u'],1,0.5794553999994605,0.4,1,0,AccAcc,9,18,Woman,Right,
20,10,1,1.03424189999987,['n'],1,right,['u'],1,1.2057936999999583,0.4,1,0,AccAcc,9,18,Woman,Right,
21,10,1,0.7170913999998447,['n'],1,right,['u'],1,0.36358210000071267,0.4,1,0,AccAcc,9,18,Woman,Right,
22,10,1,1.5010165000003326,['c'],1,left,['u'],1,0.1944641000000047,0.1,1,0,AccAcc,9,18,Woman,Right,
23,10,1,0.8180039999997462,['c'],1,left,['u'],1,0.3649030999995375,0.4,1,0,AccAcc,9,18,Woman,Right,
24,10,1,1.1849025000001348,['n'],1,right,['u'],1,0.385836699999345,0.4,1,0,AccAcc,9,18,Woman,Right,
25,10,1,0.5670540000000983,['n'],1,right,['u'],1,0.43021150000004127,0.4,1,0,AccAcc,9,18,Woman,Right,
26,10,1,1.0676057999999102,['c'],1,left,['u'],1,0.2919050000000425,0.1,1,0,AccAcc,9,18,Woman,Right,
27,10,1,0.7496622999997271,['c'],1,left,['u'],1,0.38208380000014586,0.2,1,0,AccAcc,9,18,Woman,Right,
28,10,1,0.8495591000000786,['c'],1,left,['e'],0,0.5264904000005117,0.1,0,0,AccAcc,9,18,Woman,Right,
29,10,1,1.050934199999574,['c'],1,left,['u'],1,0.46592100000088976,0.2,1,0,AccAcc,9,18,Woman,Right,
30,10,1,1.4177670999997645,['n'],1,right,['u'],1,0.4886286000000837,0.4,1,0,AccAcc,9,18,Woman,Right,
31,10,1,1.4005168000003323,['c'],1,left,['e'],0,0.31983219999983703,0.1,0,0,AccAcc,9,18,Woman,Right,
32,10,1,1.4179088999999294,['n'],1,right,['u'],1,0.444766300000083,0.2,1,0,AccAcc,9,18,Woman,Right,
33,10,1,1.2504909999997835,['c'],1,left,['u'],1,0.4278095999998186,0.2,1,0,AccAcc,9,18,Woman,Right,
34,10,1,1.5339614000004076,['c'],1,left,['e'],0,0.38493339999968157,0.2,0,0,AccAcc,9,18,Woman,Right,
35,10,1,1.116871700000047,['c'],0,right,['e'],0,0.40722459999960847,0.2,1,0,AccAcc,9,18,Woman,Right,
36,10,1,1.0663550999997824,['n'],1,right,['u'],1,0.41427419999945414,0.2,1,0,AccAcc,9,18,Woman,Right,
37,10,1,2.3663588999997955,['c'],1,left,['e'],0,0.4826529000001756,0.1,0,0,AccAcc,9,18,Woman,Right,
38,10,1,1.8168465999997352,['c'],1,left,['e'],0,0.5201347000001988,0.1,0,0,AccAcc,9,18,Woman,Right,
39,10,1,2.8674784000004365,['n'],1,right,['e'],0,0.4030230999997002,0.1,0,0,AccAcc,9,18,Woman,Right,
40,10,1,1.2833866000000853,['n'],1,right,['e'],0,0.30737390000012965,0.2,0,0,AccAcc,9,18,Woman,Right,
41,10,1,1.0831723000001148,['n'],1,right,['u'],1,0.6700464999994438,0.4,1,0,AccAcc,9,18,Woman,Right,
42,10,1,1.9841182000000117,['n'],0,left,['e'],0,0.6937036999997872,0.2,1,0,AccAcc,9,18,Woman,Right,
43,10,1,0.8508136000000377,['n'],1,right,['u'],1,0.6516224999995757,0.1,1,0,AccAcc,9,18,Woman,Right,
44,10,1,1.4171500000002197,['n'],1,right,['u'],1,1.1307302999994135,0.1,1,0,AccAcc,9,18,Woman,Right,
45,10,1,1.9668749000002208,['n'],0,left,['e'],0,0.5621313999999984,0.2,1,0,AccAcc,9,18,Woman,Right,
46,10,1,2.100180800000089,['n'],0,left,['e'],0,0.5536902000003465,0.1,1,0,AccAcc,9,18,Woman,Right,
47,10,1,1.6501826000003348,['n'],1,right,['e'],0,0.5801775999998426,0.2,0,0,AccAcc,9,18,Woman,Right,
48,10,1,2.6009613999995054,['c'],1,left,['e'],0,0.599267200000213,0.2,0,0,AccAcc,9,18,Woman,Right,
49,10,1,1.134524899999633,['c'],1,left,['u'],1,0.43629930000042805,0.4,1,0,AccAcc,9,18,Woman,Right,
50,10,1,0.9501506999995399,['n'],1,right,['u'],1,0.6872548999999708,0.4,1,0,AccAcc,9,18,Woman,Right,
51,10,1,1.7341939999996612,['n'],1,right,['e'],0,0.6252077999997709,0.1,0,0,AccAcc,9,18,Woman,Right,
52,10,1,1.9160802000005788,['c'],1,left,['e'],0,0.6381259999998292,0.1,0,0,AccAcc,9,18,Woman,Right,
53,10,1,0.9996326000000408,['n'],1,right,['u'],1,0.4478841999998622,0.4,1,0,AccAcc,9,18,Woman,Right,
54,10,1,1.0845902000000933,['n'],1,right,['u'],1,0.8686204999994516,0.2,1,0,AccAcc,9,18,Woman,Right,
55,10,1,0.9003133000005619,['n'],1,right,['u'],1,0.5921951999998782,0.4,1,0,AccAcc,9,18,Woman,Right,
56,10,1,3.217251000000033,['c'],1,left,['e'],0,0.49058659999991505,0.1,0,0,AccAcc,9,18,Woman,Right,
57,10,1,1.0510940000003757,['n'],1,right,['u'],1,0.5595926999994845,0.4,1,0,AccAcc,9,18,Woman,Right,
58,10,1,1.41733320000003,['n'],1,right,['u'],1,0.9953639000004841,0.4,1,0,AccAcc,9,18,Woman,Right,
59,10,1,1.534623599999577,['n'],0,left,['e'],0,0.5766840000005686,0.1,1,0,AccAcc,9,18,Woman,Right,
0,11,1,0.4674262999997154,['c'],1,left,['u'],1,1.2624848000004931,0.4,1,0,FastAcc,9,18,Woman,Right,
1,11,1,1.4500354000001607,['c'],1,left,['e'],0,0.24357750000035594,0.2,0,0,FastAcc,9,18,Woman,Right,
2,11,1,1.60134300000027,['n'],1,right,['e'],0,0.7965425999991567,0.2,0,0,FastAcc,9,18,Woman,Right,
3,11,1,0.516271799999231,['n'],1,right,['e'],0,0.33117529999981343,0.1,0,0,FastAcc,9,18,Woman,Right,
4,11,1,0.4343171999998958,['c'],1,left,['u'],1,0.25462470000002213,0.2,1,0,FastAcc,9,18,Woman,Right,
5,11,1,0.5672360999997181,['n'],1,right,['u'],1,0.7195246000001134,0.4,1,0,FastAcc,9,18,Woman,Right,
6,11,1,0.6006889999998748,['c'],1,left,['u'],1,0.5252377000006163,0.1,1,0,FastAcc,9,18,Woman,Right,
7,11,1,0.4335579999997208,['c'],1,left,['u'],1,0.6661645999993198,0.4,1,0,FastAcc,9,18,Woman,Right,
8,11,1,0.434740800000327,['c'],1,left,['u'],1,0.7999307999998564,0.4,1,0,FastAcc,9,18,Woman,Right,
9,11,1,0.5000766000002841,['n'],1,right,['u'],1,0.8141648999999234,0.2,1,0,FastAcc,9,18,Woman,Right,
10,11,1,0.6320913999998083,['c'],1,left,['u'],1,0.8559754999996585,0.4,1,0,FastAcc,9,18,Woman,Right,
11,11,1,0.4356348999999682,['n'],1,right,['u'],1,1.013686800000869,0.2,1,0,FastAcc,9,18,Woman,Right,
12,11,1,0.6510723999999755,['c'],1,left,['u'],1,1.3338221000003614,0.4,1,0,FastAcc,9,18,Woman,Right,
13,11,1,0.4840349999994942,['n'],1,right,['u'],1,1.1994121000006999,0.4,1,0,FastAcc,9,18,Woman,Right,
14,11,1,0.6508349000005182,['n'],1,right,['u'],1,1.1752317000000403,0.4,1,0,FastAcc,9,18,Woman,Right,
15,11,1,0.584214399999837,['c'],1,left,['u'],1,1.0917720999996163,0.1,1,0,FastAcc,9,18,Woman,Right,
16,11,1,0.5006475999998656,['c'],1,left,['u'],1,1.2389809999995123,0.4,1,0,FastAcc,9,18,Woman,Right,
17,11,1,1.0165956999999253,['n'],1,right,['u'],1,1.215448699999797,0.2,1,0,FastAcc,9,18,Woman,Right,
18,11,1,1.4517737999995006,['n'],1,right,['u'],1,0.9830752999996548,0.2,1,0,FastAcc,9,18,Woman,Right,
19,11,1,2.734738100000868,['n'],1,right,['e'],0,0.9657299999998941,0.1,0,0,FastAcc,9,18,Woman,Right,
20,11,1,0.8317908999997599,['c'],1,left,['u'],1,1.1048015999995187,0.4,1,0,FastAcc,9,18,Woman,Right,
21,11,1,0.7845730999997613,['c'],1,left,['u'],1,1.3189686999994592,0.2,1,0,FastAcc,9,18,Woman,Right,
22,11,1,0.5850389999995969,['c'],1,left,['u'],1,1.2609377999997378,0.1,1,0,FastAcc,9,18,Woman,Right,
23,11,1,0.6686067999999068,['n'],1,right,['u'],1,1.3471036000000822,0.2,1,0,FastAcc,9,18,Woman,Right,
24,11,1,1.4338371000003463,['c'],0,right,['e'],0,0.9018280000000232,0.1,1,0,FastAcc,9,18,Woman,Right,
25,11,1,0.8167683000001489,['c'],0,right,['u'],1,1.284074000000146,0.2,0,0,FastAcc,9,18,Woman,Right,
26,11,1,0.7514750999998796,['c'],1,left,['e'],0,0.772809099999904,0.1,0,0,FastAcc,9,18,Woman,Right,
27,11,1,0.7171598000004451,['c'],1,left,['u'],1,1.4518692000001465,0.2,1,0,FastAcc,9,18,Woman,Right,
28,11,1,0.8499996999998984,['c'],0,right,['e'],0,1.2820975000004182,0.1,1,0,FastAcc,9,18,Woman,Right,
29,11,1,0.7012187000000267,['c'],1,left,['e'],0,1.4935568000000785,0.1,0,0,FastAcc,9,18,Woman,Right,
30,11,1,0.901531999999861,['n'],1,right,['u'],1,1.3365214000004926,0.4,1,0,FastAcc,9,18,Woman,Right,
31,11,1,0.48295469999993657,['n'],1,right,['u'],1,1.6187374000001,0.4,1,0,FastAcc,9,18,Woman,Right,
32,11,1,0.43366690000038943,['c'],1,left,['u'],1,1.2185886999996,0.2,1,0,FastAcc,9,18,Woman,Right,
33,11,1,0.3999965000002703,['n'],1,right,['u'],1,1.3651147000000492,0.4,1,0,FastAcc,9,18,Woman,Right,
34,11,1,0.5666893999996319,['n'],1,right,['e'],0,1.385885299999245,0.1,0,0,FastAcc,9,18,Woman,Right,
35,11,1,0.4339407999996183,['c'],1,left,['e'],0,1.6030172999999195,0.1,0,0,FastAcc,9,18,Woman,Right,
36,11,1,1.4504151000001002,['c'],1,left,['u'],1,1.0527469999997265,0.4,1,0,FastAcc,9,18,Woman,Right,
37,11,1,0.8011907000000065,['c'],1,left,['u'],1,1.1079342000002725,0.4,1,0,FastAcc,9,18,Woman,Right,
38,11,1,0.7504047000002174,['c'],1,left,['e'],0,1.1485782999998264,0.2,0,0,FastAcc,9,18,Woman,Right,
39,11,1,0.7162607999998727,['c'],1,left,['e'],0,1.4286875999996482,0.1,0,0,FastAcc,9,18,Woman,Right,
40,11,1,1.1672403000002305,['c'],0,right,['e'],0,1.1838489000001573,0.1,1,0,FastAcc,9,18,Woman,Right,
41,11,1,0.7350351000004594,['n'],1,right,['u'],1,0.9969334999996136,0.4,1,0,FastAcc,9,18,Woman,Right,
42,11,1,0.9010600999999951,['c'],1,left,['e'],0,1.1633439999995971,0.2,0,0,FastAcc,9,18,Woman,Right,
43,11,1,0.6179160000001502,['c'],1,left,['e'],0,1.1271581000000879,0.2,0,0,FastAcc,9,18,Woman,Right,
44,11,1,0.6827534999993077,['n'],1,right,['u'],1,1.0414393999999447,0.2,1,0,FastAcc,9,18,Woman,Right,
45,11,1,1.3164363000005324,['n'],1,right,['e'],0,0.950206700000308,0.1,0,0,FastAcc,9,18,Woman,Right,
46,11,1,0.5170454999997673,['c'],1,left,['u'],1,0.78168259999984,0.4,1,0,FastAcc,9,18,Woman,Right,
47,11,1,0.7337463000003481,['n'],1,right,['u'],1,0.8347923999999693,0.1,1,0,FastAcc,9,18,Woman,Right,
48,11,1,0.5835616000003938,['c'],1,left,['u'],1,0.7971320999995442,0.1,1,0,FastAcc,9,18,Woman,Right,
49,11,1,0.851045399999748,['n'],1,right,['u'],1,0.956660699999702,0.2,1,0,FastAcc,9,18,Woman,Right,
50,11,1,0.7008645000005345,['n'],1,right,['e'],0,0.893195900000137,0.2,0,0,FastAcc,9,18,Woman,Right,
51,11,1,0.9175116000005801,['c'],1,left,['u'],1,0.8557911999996577,0.4,1,0,FastAcc,9,18,Woman,Right,
52,11,1,1.4347324000000299,['c'],1,left,['e'],0,0.8788223000001381,0.2,0,0,FastAcc,9,18,Woman,Right,
53,11,1,1.8997267000004285,['c'],1,left,['e'],0,0.8669779000001654,0.1,0,0,FastAcc,9,18,Woman,Right,
54,11,1,0.967540800000279,['n'],1,right,['u'],1,0.9389707999998791,0.4,1,0,FastAcc,9,18,Woman,Right,
55,11,1,0.7680622999996558,['n'],1,right,['u'],1,0.9693250999998781,0.4,1,0,FastAcc,9,18,Woman,Right,
56,11,1,2.4510816000001796,['n'],1,right,['e'],0,0.9157837000002473,0.1,0,0,FastAcc,9,18,Woman,Right,
57,11,1,1.001251400000001,['c'],1,left,['u'],1,0.7450031999997009,0.2,1,0,FastAcc,9,18,Woman,Right,
58,11,1,1.2008130000003803,['n'],1,right,['e'],0,0.9898960000000443,0.1,0,0,FastAcc,9,18,Woman,Right,
59,11,1,1.6180673000008028,['n'],1,right,['e'],0,2.2004778000000442,0.1,0,0,FastAcc,9,18,Woman,Right,
0,12,1,0.9175635000001421,['n'],1,right,['e'],0,0.7019839999993565,0.4,0,0,FastFast,9,18,Woman,Right,
1,12,1,0.9164073000001736,['n'],1,right,['u'],1,0.41604069999993953,0.1,1,0,FastFast,9,18,Woman,Right,
2,12,1,0.9177484000001641,['n'],1,right,['e'],0,0.49278939999931026,0.1,0,0,FastFast,9,18,Woman,Right,
3,12,1,1.300370799999655,['c'],1,left,['e'],0,0.3923333000002458,0.1,0,0,FastFast,9,18,Woman,Right,
4,12,1,1.1667278000004444,['c'],1,left,['u'],1,0.2682990000002974,0.2,1,0,FastFast,9,18,Woman,Right,
5,12,1,0.7509800999996514,['c'],1,left,['u'],1,0.1978041000002122,0.4,1,0,FastFast,9,18,Woman,Right,
6,12,1,0.9170199999998658,['c'],1,left,['e'],0,0.6036885000003167,0.1,0,0,FastFast,9,18,Woman,Right,
7,12,1,0.7847758999996586,['n'],1,right,['u'],1,0.326330599999892,0.2,1,0,FastFast,9,18,Woman,Right,
8,12,1,0.6670330999995713,['n'],1,right,['u'],1,0.20936970000002475,0.4,1,0,FastFast,9,18,Woman,Right,
9,12,1,0.7501431000000593,['n'],1,right,['u'],1,0.1907920000003287,0.2,1,0,FastFast,9,18,Woman,Right,
10,12,1,1.450763900000311,['n'],1,right,['u'],1,0.4789837999996962,0.2,1,0,FastFast,9,18,Woman,Right,
11,12,1,0.9011401999996451,['c'],1,left,['u'],1,0.2176742000001468,0.4,1,0,FastFast,9,18,Woman,Right,
12,12,1,0.8512941999997565,['n'],1,right,['u'],1,0.22549199999957636,0.2,1,0,FastFast,9,18,Woman,Right,
13,12,1,1.4836064000000988,['c'],0,right,['e'],0,0.2718226000006325,0.1,1,0,FastFast,9,18,Woman,Right,
14,12,1,0.9197732000002361,['c'],1,left,['u'],1,0.21070010000039474,0.1,1,0,FastFast,9,18,Woman,Right,
15,12,1,0.7676424000001134,['c'],1,left,['u'],1,0.2866402999998172,0.4,1,0,FastFast,9,18,Woman,Right,
16,12,1,0.8849692000003415,['n'],1,right,['u'],1,0.33793620000051305,0.2,1,0,FastFast,9,18,Woman,Right,
17,12,1,1.134911000000102,['n'],1,right,['u'],1,0.5215991000004578,0.2,1,0,FastFast,9,18,Woman,Right,
18,12,1,0.7841073999998116,['n'],1,right,['u'],1,0.1681421000002956,0.4,1,0,FastFast,9,18,Woman,Right,
19,12,1,1.633822499999951,['n'],1,right,['e'],0,0.19454419999965467,0.1,0,0,FastFast,9,18,Woman,Right,
20,12,1,1.2169740999997885,['c'],1,left,['u'],1,0.15735620000032213,0.4,1,0,FastFast,9,18,Woman,Right,
21,12,1,1.8168552999995882,['n'],0,left,['e'],0,0.16067520000069635,0.1,1,0,FastFast,9,18,Woman,Right,
22,12,1,1.3013757999997324,['c'],1,left,['u'],1,0.23365279999961786,0.1,1,0,FastFast,9,18,Woman,Right,
23,12,1,1.166994799999884,['c'],1,left,['e'],0,0.29212470000038593,0.1,0,0,FastFast,9,18,Woman,Right,
24,12,1,0.8512243999994098,['n'],1,right,['u'],1,0.6962123000002975,0.1,1,0,FastFast,9,18,Woman,Right,
25,12,1,0.6345038999997996,['n'],1,right,['u'],1,0.2304548000001887,0.1,1,0,FastFast,9,18,Woman,Right,
26,12,1,0.8166135000001304,['c'],1,left,['u'],1,0.26991199999974924,0.1,1,0,FastFast,9,18,Woman,Right,
27,12,1,0.7677526000006765,['n'],1,right,['u'],1,0.27845820000038657,0.2,1,0,FastFast,9,18,Woman,Right,
28,12,1,1.4006749000000127,['n'],1,right,['u'],1,0.2935959999995248,0.1,1,0,FastFast,9,18,Woman,Right,
29,12,1,0.8013613000002806,['c'],1,left,['u'],1,0.26875830000062706,0.4,1,0,FastFast,9,18,Woman,Right,
30,12,1,1.1016770000005636,['n'],1,right,['u'],1,0.2803061999993588,0.4,1,0,FastFast,9,18,Woman,Right,
31,12,1,0.8003125000004729,['c'],1,left,['u'],1,0.2870646999999735,0.2,1,0,FastFast,9,18,Woman,Right,
32,12,1,0.9012380000003759,['n'],1,right,['u'],1,0.2422537000002194,0.4,1,0,FastFast,9,18,Woman,Right,
33,12,1,1.018142899999475,['c'],1,left,['u'],1,0.17842839999957505,0.2,1,0,FastFast,9,18,Woman,Right,
34,12,1,0.7847179000000324,['c'],1,left,['u'],1,0.28610119999939343,0.1,1,0,FastFast,9,18,Woman,Right,
35,12,1,0.6329548000003342,['c'],1,left,['u'],1,0.23711120000007213,0.2,1,0,FastFast,9,18,Woman,Right,
36,12,1,0.6344822999999451,['c'],1,left,['u'],1,0.2673947000002954,0.2,1,0,FastFast,9,18,Woman,Right,
37,12,1,0.6832922999992661,['c'],1,left,['u'],1,0.21648460000051273,0.4,1,0,FastFast,9,18,Woman,Right,
38,12,1,0.5499885999997787,['c'],1,left,['u'],1,0.23593090000031225,0.2,1,0,FastFast,9,18,Woman,Right,
39,12,1,0.8666203000002497,['n'],1,right,['u'],1,0.24296620000041003,0.2,1,0,FastFast,9,18,Woman,Right,
40,12,1,1.4175742999996146,['c'],1,left,['u'],1,0.17923590000009426,0.1,1,0,FastFast,9,18,Woman,Right,
41,12,1,0.7023017000001346,['c'],1,left,['u'],1,0.30567599999994854,0.4,1,0,FastFast,9,18,Woman,Right,
42,12,1,1.0167871000003288,['n'],1,right,['u'],1,0.22397879999971337,0.4,1,0,FastFast,9,18,Woman,Right,
43,12,1,0.9178911999997581,['c'],1,left,['u'],1,0.22837929999968765,0.4,1,0,FastFast,9,18,Woman,Right,
44,12,1,1.7843602999992072,['c'],1,left,['e'],0,0.23086719999992056,0.1,0,0,FastFast,9,18,Woman,Right,
45,12,1,0.7495610999994824,['n'],1,right,['u'],1,0.33830659999966883,0.2,1,0,FastFast,9,18,Woman,Right,
46,12,1,1.2508797999998933,['n'],1,right,['e'],0,0.26069509999979346,0.2,0,0,FastFast,9,18,Woman,Right,
47,12,1,1.184482499999831,['n'],1,right,['e'],0,0.19047200000022713,0.4,0,0,FastFast,9,18,Woman,Right,
48,12,1,0.9491680999999517,['n'],0,left,['u'],1,0.1639103999996223,0.1,0,0,FastFast,9,18,Woman,Right,
49,12,1,1.2008831000002829,['n'],0,left,['e'],0,1.454287900000054,0.4,1,0,FastFast,9,18,Woman,Right,
50,12,1,1.0002634000002217,['n'],1,right,['u'],1,0.14337580000028538,0.4,1,0,FastFast,9,18,Woman,Right,
51,12,1,1.1339282999997522,['n'],1,right,['e'],0,0.23848980000002484,0.1,0,0,FastFast,9,18,Woman,Right,
52,12,1,0.6998854000003121,['n'],1,right,['u'],1,0.25211900000067544,0.2,1,0,FastFast,9,18,Woman,Right,
53,12,1,1.0178157999998803,['c'],1,left,['u'],1,0.23585309999998572,0.2,1,0,FastFast,9,18,Woman,Right,
54,12,1,0.683250300000509,['c'],1,left,['u'],1,0.24876820000008593,0.4,1,0,FastFast,9,18,Woman,Right,
55,12,1,1.1507047000004604,['c'],1,left,['u'],1,0.22713170000042737,0.4,1,0,FastFast,9,18,Woman,Right,
56,12,1,1.5339321000001291,['c'],1,left,['e'],0,0.22349859999940236,0.1,0,0,FastFast,9,18,Woman,Right,
57,12,1,0.9179466999994474,['n'],1,right,['u'],1,0.3248649999995905,0.4,1,0,FastFast,9,18,Woman,Right,
58,12,1,1.616751600000498,['n'],1,right,['e'],0,0.21773670000038692,0.2,0,0,FastFast,9,18,Woman,Right,
59,12,1,0.7173422999994727,['n'],1,right,['u'],1,0.2464466999999786,0.2,1,0,FastFast,9,18,Woman,Right,
0,13,1,0.9679132999999638,['n'],1,right,['u'],1,0.20342919999984588,0.2,1,0,AccFast,9,18,Woman,Right,
1,13,1,0.6677598999995098,['c'],1,left,['u'],1,0.20303029999922728,0.2,1,0,AccFast,9,18,Woman,Right,
2,13,1,3.3494368000001487,['c'],1,left,['e'],0,0.24029369999971095,0.1,0,0,AccFast,9,18,Woman,Right,
3,13,1,1.0848018999995475,['c'],1,left,['e'],0,0.1892584999995961,0.1,0,0,AccFast,9,18,Woman,Right,
4,13,1,0.9343536999995194,['n'],1,right,['u'],1,0.25887090000014723,0.4,1,0,AccFast,9,18,Woman,Right,
5,13,1,0.6672157000002699,['n'],1,right,['u'],1,0.2568034000005355,0.4,1,0,AccFast,9,18,Woman,Right,
6,13,1,1.5346249000003809,['n'],0,left,['e'],0,0.2515069000000949,0.1,1,0,AccFast,9,18,Woman,Right,
7,13,1,0.8177734000000783,['n'],1,right,['u'],1,0.19533449999926233,0.2,1,0,AccFast,9,18,Woman,Right,
8,13,1,0.7504344999997556,['n'],1,right,['u'],1,0.1914851000001363,0.2,1,0,AccFast,9,18,Woman,Right,
9,13,1,0.8686197999995784,['n'],1,right,['u'],1,0.21595019999949727,0.1,1,0,AccFast,9,18,Woman,Right,
10,13,1,1.5511704000000464,['c'],1,left,['e'],0,0.2594777000003887,0.1,0,0,AccFast,9,18,Woman,Right,
11,13,1,0.8346423000002687,['n'],1,right,['u'],1,0.21849469999961002,0.4,1,0,AccFast,9,18,Woman,Right,
12,13,1,0.9174444999998741,['n'],1,right,['u'],1,0.2886178999997355,0.2,1,0,AccFast,9,18,Woman,Right,
13,13,1,1.6668085999999676,['c'],1,left,['e'],0,0.19661969999924622,0.1,0,0,AccFast,9,18,Woman,Right,
14,13,1,1.2843138999996881,['c'],1,left,['e'],0,0.18739079999977548,0.1,0,0,AccFast,9,18,Woman,Right,
15,13,1,2.234395599999516,['n'],0,left,['e'],0,0.2206427999999505,0.2,1,0,AccFast,9,18,Woman,Right,
16,13,1,1.0004493000005823,['n'],1,right,['u'],1,0.1902633000008791,0.4,1,0,AccFast,9,18,Woman,Right,
17,13,1,1.1342437000002974,['c'],1,left,['u'],1,0.23607280000032915,0.2,1,0,AccFast,9,18,Woman,Right,
18,13,1,0.9997252000002845,['c'],1,left,['u'],1,0.22127819999968779,0.1,1,0,AccFast,9,18,Woman,Right,
19,13,1,0.7159949000006236,['n'],1,right,['u'],1,0.2499815999999555,0.1,1,0,AccFast,9,18,Woman,Right,
20,13,1,2.500324100000398,['n'],0,left,['e'],0,0.1584803000005195,0.1,1,0,AccFast,9,18,Woman,Right,
21,13,1,0.8348444999992353,['n'],1,right,['u'],1,0.1858062000001155,0.4,1,0,AccFast,9,18,Woman,Right,
22,13,1,2.3507085999999617,['n'],1,right,['e'],0,0.1829385999999431,0.2,0,0,AccFast,9,18,Woman,Right,
23,13,1,1.2010811000000103,['c'],1,left,['e'],0,0.14562029999979131,0.1,0,0,AccFast,9,18,Woman,Right,
24,13,1,0.9675207000000228,['n'],1,right,['u'],1,0.2952895999997054,0.2,1,0,AccFast,9,18,Woman,Right,
25,13,1,0.9500601999998253,['c'],1,left,['u'],1,0.18383340000036696,0.4,1,0,AccFast,9,18,Woman,Right,
26,13,1,0.9345084000005954,['n'],1,right,['u'],1,0.15794539999933477,0.4,1,0,AccFast,9,18,Woman,Right,
27,13,1,0.8498436999998376,['n'],1,right,['u'],1,0.2159868999997343,0.4,1,0,AccFast,9,18,Woman,Right,
28,13,1,2.767189000000144,['n'],1,right,['e'],0,0.1788603000004514,0.1,0,0,AccFast,9,18,Woman,Right,
29,13,1,1.4009304999999586,['c'],1,left,['u'],1,0.18181290000029549,0.4,1,0,AccFast,9,18,Woman,Right,
30,13,1,1.1176683000003322,['c'],1,left,['u'],1,0.16410709999945539,0.4,1,0,AccFast,9,18,Woman,Right,
31,13,1,0.9680661000002146,['n'],1,right,['u'],1,0.2177853999992294,0.1,1,0,AccFast,9,18,Woman,Right,
32,13,1,1.533437099999901,['c'],1,left,['e'],0,0.4701635000001261,0.2,0,0,AccFast,9,18,Woman,Right,
33,13,1,1.2015006999999969,['c'],1,left,['e'],0,0.2612819000005402,0.1,0,0,AccFast,9,18,Woman,Right,
34,13,1,1.0664170000000013,['c'],0,right,['e'],0,0.2601999999997133,0.1,1,0,AccFast,9,18,Woman,Right,
35,13,1,1.0339567000000898,['c'],1,left,['e'],0,0.161943600000086,0.1,0,0,AccFast,9,18,Woman,Right,
36,13,1,0.8008168000005753,['c'],1,left,['e'],0,0.20659470000009605,0.2,0,0,AccFast,9,18,Woman,Right,
37,13,1,0.8332362999999532,['n'],1,right,['u'],1,0.166903899999852,0.4,1,0,AccFast,9,18,Woman,Right,
38,13,1,0.9994363999994675,['n'],1,right,['u'],1,0.26752870000018447,0.2,1,0,AccFast,9,18,Woman,Right,
39,13,1,1.1333715000000666,['c'],1,left,['e'],0,0.24501299999974435,0.1,0,0,AccFast,9,18,Woman,Right,
40,13,1,1.0013589999998658,['c'],1,left,['u'],1,0.26185110000005807,0.4,1,0,AccFast,9,18,Woman,Right,
41,13,1,0.5514709999997649,['c'],1,left,['u'],1,0.21587770000041928,0.4,1,0,AccFast,9,18,Woman,Right,
42,13,1,0.7005246999997325,['c'],1,left,['u'],1,0.22941100000025472,0.2,1,0,AccFast,9,18,Woman,Right,
43,13,1,0.7498536000002787,['n'],1,right,['u'],1,0.1604275999998208,0.2,1,0,AccFast,9,18,Woman,Right,
44,13,1,0.7670489000001908,['c'],1,left,['u'],1,0.2540032999995674,0.2,1,0,AccFast,9,18,Woman,Right,
45,13,1,0.717122100000779,['n'],1,right,['u'],1,0.20164149999982328,0.4,1,0,AccFast,9,18,Woman,Right,
46,13,1,0.5678836999995838,['c'],1,left,['u'],1,0.2851855999997497,0.2,1,0,AccFast,9,18,Woman,Right,
47,13,1,0.8164813999992475,['c'],1,left,['u'],1,0.3083377000002656,0.2,1,0,AccFast,9,18,Woman,Right,
48,13,1,0.6999843000003239,['n'],1,right,['u'],1,0.14200810000056663,0.4,1,0,AccFast,9,18,Woman,Right,
49,13,1,0.8670173999998951,['c'],1,left,['u'],1,0.1680410999997548,0.4,1,0,AccFast,9,18,Woman,Right,
50,13,1,0.7492511000000377,['c'],0,right,['u'],1,0.2138679999998203,0.2,0,0,AccFast,9,18,Woman,Right,
51,13,1,0.8174875000004249,['n'],1,right,['u'],1,0.20668819999991683,0.4,1,0,AccFast,9,18,Woman,Right,
52,13,1,0.9670049999995172,['n'],1,right,['e'],0,0.37044539999988046,0.2,0,0,AccFast,9,18,Woman,Right,
53,13,1,2.1341511000000537,['n'],1,right,['e'],0,0.2407905000000028,0.1,0,0,AccFast,9,18,Woman,Right,
54,13,1,1.050446600000214,['c'],1,left,['u'],1,0.28799459999936516,0.4,1,0,AccFast,9,18,Woman,Right,
55,13,1,0.9178140000003623,['c'],1,left,['u'],1,0.1783120999998573,0.1,1,0,AccFast,9,18,Woman,Right,
56,13,1,0.7669055000005756,['c'],1,left,['u'],1,0.2546402999996644,0.4,1,0,AccFast,9,18,Woman,Right,
57,13,1,0.8347757999999885,['n'],1,right,['u'],1,0.30938609999975597,0.2,1,0,AccFast,9,18,Woman,Right,
58,13,1,1.6991939999998067,['n'],1,right,['e'],0,0.24870970000029047,0.1,0,0,AccFast,9,18,Woman,Right,
59,13,1,0.9163361000000805,['n'],1,right,['u'],1,0.23634560000027705,0.4,1,0,AccFast,9,18,Woman,Right,
0,14,1,0.6666917000002286,['n'],1,right,['u'],1,0.31998829999974987,0.4,1,0,AccAcc,9,18,Woman,Right,
1,14,1,0.9509570999998687,['n'],1,right,['u'],1,0.3512455999998565,0.1,1,0,AccAcc,9,18,Woman,Right,
2,14,1,0.8177141000005577,['n'],1,right,['u'],1,0.48291059999974095,0.1,1,0,AccAcc,9,18,Woman,Right,
3,14,1,1.9508931999998822,['n'],0,left,['e'],0,0.43613790000017616,0.2,1,0,AccAcc,9,18,Woman,Right,
4,14,1,1.0509586999996827,['c'],1,left,['u'],1,0.33112230000006093,0.4,1,0,AccAcc,9,18,Woman,Right,
5,14,1,1.650147499999548,['n'],0,left,['e'],0,0.30236299999978655,0.1,1,0,AccAcc,9,18,Woman,Right,
6,14,1,2.034276999999747,['n'],1,right,['e'],0,0.5165444000003845,0.1,0,0,AccAcc,9,18,Woman,Right,
7,14,1,1.267678999999589,['c'],1,left,['u'],1,0.43041249999987485,0.4,1,0,AccAcc,9,18,Woman,Right,
8,14,1,0.99897030000011,['n'],1,right,['u'],1,0.48861810000016703,0.2,1,0,AccAcc,9,18,Woman,Right,
9,14,1,0.9507837000001018,['c'],1,left,['u'],1,0.5763396000002103,0.2,1,0,AccAcc,9,18,Woman,Right,
10,14,1,2.367779199999859,['n'],1,right,['e'],0,0.5576581000004808,0.1,0,0,AccAcc,9,18,Woman,Right,
11,14,1,0.9009754000007888,['n'],1,right,['u'],1,0.31014609999965614,0.2,1,0,AccAcc,9,18,Woman,Right,
12,14,1,1.0339739999999438,['n'],1,right,['u'],1,0.32337400000051275,0.2,1,0,AccAcc,9,18,Woman,Right,
13,14,1,0.8006986999998844,['c'],1,left,['u'],1,0.4725962000002255,0.2,1,0,AccAcc,9,18,Woman,Right,
14,14,1,0.9010492000006707,['c'],1,left,['u'],1,0.5003605000001698,0.2,1,0,AccAcc,9,18,Woman,Right,
15,14,1,0.8505029000007198,['c'],1,left,['u'],1,0.28877750000083324,0.4,1,0,AccAcc,9,18,Woman,Right,
16,14,1,1.834728300000279,['c'],1,left,['e'],0,0.4144790999998804,0.1,0,0,AccAcc,9,18,Woman,Right,
17,14,1,1.4180060999997295,['c'],1,left,['e'],0,0.43952900000022055,0.1,0,0,AccAcc,9,18,Woman,Right,
18,14,1,2.700380799999948,['n'],0,left,['e'],0,0.4291247999999541,0.1,1,0,AccAcc,9,18,Woman,Right,
19,14,1,1.034259999999449,['n'],1,right,['u'],1,0.27632720000019617,0.4,1,0,AccAcc,9,18,Woman,Right,
20,14,1,0.8845240000000558,['n'],1,right,['u'],1,0.4406392999999298,0.4,1,0,AccAcc,9,18,Woman,Right,
21,14,1,0.9514036999999007,['c'],1,left,['u'],1,0.35581050000018877,0.2,1,0,AccAcc,9,18,Woman,Right,
22,14,1,1.0345406000005823,['n'],1,right,['u'],1,0.3826553999997486,0.4,1,0,AccAcc,9,18,Woman,Right,
23,14,1,0.7178876999996646,['n'],1,right,['u'],1,0.35710650000055466,0.2,1,0,AccAcc,9,18,Woman,Right,
24,14,1,0.8166564000002836,['n'],1,right,['u'],1,0.3448953999995865,0.2,1,0,AccAcc,9,18,Woman,Right,
25,14,1,0.7842295999998896,['n'],1,right,['u'],1,0.4782300999995641,0.2,1,0,AccAcc,9,18,Woman,Right,
26,14,1,1.3827018000001772,['c'],1,left,['u'],1,0.5034036999995806,0.4,1,0,AccAcc,9,18,Woman,Right,
27,14,1,1.0177905000000464,['n'],1,right,['u'],1,0.39585449999958655,0.2,1,0,AccAcc,9,18,Woman,Right,
28,14,1,1.8847307999994882,['n'],1,right,['e'],0,0.5467908000000534,0.1,0,0,AccAcc,9,18,Woman,Right,
29,14,1,0.9005063000004156,['n'],1,right,['u'],1,0.5390999999999622,0.4,1,0,AccAcc,9,18,Woman,Right,
30,14,1,1.3334752999999182,['c'],1,left,['u'],1,0.5789759999997841,0.4,1,0,AccAcc,9,18,Woman,Right,
31,14,1,0.9846967000003133,['c'],1,left,['u'],1,0.37584979999974166,0.2,1,0,AccAcc,9,18,Woman,Right,
32,14,1,1.0010390999996162,['c'],1,left,['u'],1,0.46620069999971747,0.2,1,0,AccAcc,9,18,Woman,Right,
33,14,1,1.316549600000144,['c'],1,left,['e'],0,0.49342929999966145,0.2,0,0,AccAcc,9,18,Woman,Right,
34,14,1,1.0678861999995206,['c'],1,left,['e'],0,0.6261787000003096,0.2,0,0,AccAcc,9,18,Woman,Right,
35,14,1,1.984164999999848,['n'],1,right,['e'],0,0.49218629999995755,0.1,0,0,AccAcc,9,18,Woman,Right,
36,14,1,1.8345624999992651,['c'],1,left,['e'],0,0.8500444999999672,0.1,0,0,AccAcc,9,18,Woman,Right,
37,14,1,0.9176239000007627,['n'],1,right,['u'],1,0.5099147999999332,0.2,1,0,AccAcc,9,18,Woman,Right,
38,14,1,1.9841722999999547,['c'],1,left,['u'],1,0.5891812999998365,0.4,1,0,AccAcc,9,18,Woman,Right,
39,14,1,1.7510749999992186,['n'],1,right,['e'],0,0.21006859999943117,0.2,0,0,AccAcc,9,18,Woman,Right,
40,14,1,1.251241700000719,['n'],0,left,['e'],0,0.41047619999972085,0.1,1,0,AccAcc,9,18,Woman,Right,
41,14,1,1.183270700000321,['c'],1,left,['u'],1,0.36604170000009617,0.4,1,0,AccAcc,9,18,Woman,Right,
42,14,1,2.0498986000002333,['n'],1,right,['e'],0,0.25573720000011235,0.1,0,0,AccAcc,9,18,Woman,Right,
43,14,1,1.6841289999993023,['n'],1,right,['e'],0,0.4683721000001242,0.1,0,0,AccAcc,9,18,Woman,Right,
44,14,1,0.9170213999996122,['n'],1,right,['u'],1,0.4472990000003847,0.2,1,0,AccAcc,9,18,Woman,Right,
45,14,1,1.167600400000083,['c'],1,left,['u'],1,0.7850499000005584,0.4,1,0,AccAcc,9,18,Woman,Right,
46,14,1,1.5176439000006212,['n'],0,left,['e'],0,0.4553155000003244,0.1,1,0,AccAcc,9,18,Woman,Right,
47,14,1,1.88461659999939,['n'],0,left,['e'],0,0.6044916999999259,0.4,1,0,AccAcc,9,18,Woman,Right,
48,14,1,0.8680813999999373,['c'],1,left,['u'],1,0.5163863999996465,0.4,1,0,AccAcc,9,18,Woman,Right,
49,14,1,1.0009990999997171,['n'],1,right,['u'],1,0.5859051999996154,0.2,1,0,AccAcc,9,18,Woman,Right,
50,14,1,0.8512999000004129,['c'],1,left,['u'],1,0.5150195000005624,0.4,1,0,AccAcc,9,18,Woman,Right,
51,14,1,0.9512275999995836,['n'],1,right,['u'],1,0.5386851000002935,0.4,1,0,AccAcc,9,18,Woman,Right,
52,14,1,0.7843024000003425,['c'],1,left,['u'],1,0.32822549999946204,0.4,1,0,AccAcc,9,18,Woman,Right,
53,14,1,1.4843547999998918,['n'],1,right,['u'],1,0.3860107999998945,0.1,1,0,AccAcc,9,18,Woman,Right,
54,14,1,1.684342800000195,['n'],0,left,['u'],1,0.33780340000066644,0.1,0,0,AccAcc,9,18,Woman,Right,
55,14,1,1.383813200000077,['n'],0,left,['e'],0,0.19150810000064666,0.1,1,0,AccAcc,9,18,Woman,Right,
56,14,1,0.9677512999996907,['n'],1,right,['e'],0,0.21194529999957012,0.1,0,0,AccAcc,9,18,Woman,Right,
57,14,1,0.6997231000004831,['n'],1,right,['u'],1,0.5146466999995027,0.4,1,0,AccAcc,9,18,Woman,Right,
58,14,1,0.8151436999996804,['n'],1,right,['u'],1,0.19175280000035855,0.4,1,0,AccAcc,9,18,Woman,Right,
59,14,1,1.6488936000005197,['n'],1,right,['e'],0,0.21625009999934264,0.1,0,0,AccAcc,9,18,Woman,Right,
0,15,1,0.6836536000000706,['c'],1,left,['u'],1,1.6451215999995839,0.4,1,0,FastAcc,9,18,Woman,Right,
1,15,1,0.9342243999999482,['n'],1,right,['u'],1,0.216225499999382,0.1,1,0,FastAcc,9,18,Woman,Right,
2,15,1,0.9346223000002283,['c'],1,left,['u'],1,0.4604202999998961,0.2,1,0,FastAcc,9,18,Woman,Right,
3,15,1,0.8676790999998047,['n'],1,right,['u'],1,0.9223377999996956,0.2,1,0,FastAcc,9,18,Woman,Right,
4,15,1,0.6159213999999338,['c'],1,left,['u'],1,0.7997582999996666,0.2,1,0,FastAcc,9,18,Woman,Right,
5,15,1,0.5009264000000258,['c'],1,left,['u'],1,0.7814484000000448,0.4,1,0,FastAcc,9,18,Woman,Right,
6,15,1,0.5845966999995653,['n'],1,right,['u'],1,0.857249600000614,0.4,1,0,FastAcc,9,18,Woman,Right,
7,15,1,0.6339462000005369,['c'],1,left,['u'],1,0.832192899999427,0.1,1,0,FastAcc,9,18,Woman,Right,
8,15,1,0.6352415999999721,['n'],1,right,['u'],1,0.5358992999999828,0.4,1,0,FastAcc,9,18,Woman,Right,
9,15,1,0.7325596000000587,['n'],1,right,['u'],1,0.7280753999993976,0.4,1,0,FastAcc,9,18,Woman,Right,
10,15,1,0.8677655999999843,['n'],0,left,['u'],1,0.8904894999996031,0.1,0,0,FastAcc,9,18,Woman,Right,
11,15,1,0.6505104999996547,['n'],1,right,['u'],1,0.6717186000005313,0.2,1,0,FastAcc,9,18,Woman,Right,
12,15,1,1.2010426000006191,['c'],1,left,['u'],1,0.6793094000004203,0.2,1,0,FastAcc,9,18,Woman,Right,
13,15,1,0.7851489000004221,['n'],1,right,['u'],1,0.6870238999999856,0.2,1,0,FastAcc,9,18,Woman,Right,
14,15,1,1.2675897999997687,['c'],1,left,['e'],0,0.5955092000003788,0.1,0,0,FastAcc,9,18,Woman,Right,
15,15,1,1.16682690000016,['n'],1,right,['e'],0,1.05526269999973,0.1,0,0,FastAcc,9,18,Woman,Right,
16,15,1,0.8513717000005272,['n'],0,left,['e'],0,0.8535445999996227,0.1,1,0,FastAcc,9,18,Woman,Right,
17,15,1,0.8009898999998768,['n'],1,right,['u'],1,0.5500113999996756,0.4,1,0,FastAcc,9,18,Woman,Right,
18,15,1,0.6681448999997883,['n'],1,right,['u'],1,0.951560999999856,0.4,1,0,FastAcc,9,18,Woman,Right,
19,15,1,2.016307599999891,['n'],0,left,['e'],0,0.7234496999999465,0.1,1,0,FastAcc,9,18,Woman,Right,
20,15,1,1.0670922999997856,['n'],0,left,['e'],0,0.814440499999364,0.2,1,0,FastAcc,9,18,Woman,Right,
21,15,1,1.1494427999996333,['c'],1,left,['u'],1,0.674989000000096,0.2,1,0,FastAcc,9,18,Woman,Right,
22,15,1,0.8508385000004637,['n'],1,right,['u'],1,0.5365796999994927,0.4,1,0,FastAcc,9,18,Woman,Right,
23,15,1,0.7505614000001515,['n'],1,right,['e'],0,0.6476843000000372,0.1,0,0,FastAcc,9,18,Woman,Right,
24,15,1,0.9837586000003284,['c'],1,left,['u'],1,0.8719283999998879,0.4,1,0,FastAcc,9,18,Woman,Right,
25,15,1,2.31756200000018,['n'],0,left,['u'],1,0.9393015999994532,0.1,0,0,FastAcc,9,18,Woman,Right,
26,15,1,1.066783100000066,['c'],1,left,['u'],1,0.44575389999954496,0.2,1,0,FastAcc,9,18,Woman,Right,
27,15,1,0.7669430000005377,['n'],1,right,['e'],0,0.7835753999997905,0.1,0,0,FastAcc,9,18,Woman,Right,
28,15,1,0.51695109999946,['n'],1,right,['e'],0,1.1349868999996033,0.2,0,0,FastAcc,9,18,Woman,Right,
29,15,1,0.5168908000005104,['c'],1,left,['u'],1,0.7183593999998266,0.4,1,0,FastAcc,9,18,Woman,Right,
30,15,1,0.7174829000005047,['n'],1,right,['e'],0,0.8228790000002846,0.1,0,0,FastAcc,9,18,Woman,Right,
31,15,1,0.5832628999996814,['n'],1,right,['u'],1,0.9141203999997742,0.4,1,0,FastAcc,9,18,Woman,Right,
32,15,1,0.3834014999993087,['c'],1,left,['u'],1,1.0558547000000544,0.4,1,0,FastAcc,9,18,Woman,Right,
33,15,1,0.5838905999999042,['n'],1,right,['u'],1,1.0570490000000063,0.1,1,0,FastAcc,9,18,Woman,Right,
34,15,1,0.39926850000028935,['c'],1,left,['u'],1,0.7937801000007312,0.4,1,0,FastAcc,9,18,Woman,Right,
35,15,1,0.8514492999993308,['n'],1,right,['u'],1,0.746791999999914,0.1,1,0,FastAcc,9,18,Woman,Right,
36,15,1,0.6184954999998808,['c'],1,left,['u'],1,0.9020041000003403,0.4,1,0,FastAcc,9,18,Woman,Right,
37,15,1,0.7345650999995996,['c'],1,left,['u'],1,1.0472372000003816,0.4,1,0,FastAcc,9,18,Woman,Right,
38,15,1,0.4827625000007174,['n'],1,right,['u'],1,0.8928048000007038,0.1,1,0,FastAcc,9,18,Woman,Right,
39,15,1,0.6155168000004778,['c'],1,left,['u'],1,0.723385899999812,0.2,1,0,FastAcc,9,18,Woman,Right,
40,15,1,0.6509905000002618,['n'],1,right,['u'],1,1.0223404999997001,0.1,1,0,FastAcc,9,18,Woman,Right,
41,15,1,1.2156853999995292,['c'],1,left,['e'],0,0.760406100000182,0.1,0,0,FastAcc,9,18,Woman,Right,
42,15,1,0.43302959999982704,['n'],1,right,['e'],0,1.0832568999994692,0.2,0,0,FastAcc,9,18,Woman,Right,
43,15,1,0.48426850000032573,['n'],1,right,['u'],1,0.7182596000002377,0.2,1,0,FastAcc,9,18,Woman,Right,
44,15,1,0.4663177000002179,['c'],1,left,['u'],1,0.8821120999991763,0.2,1,0,FastAcc,9,18,Woman,Right,
45,15,1,1.1344404999999824,['c'],1,left,['e'],0,0.8026156000005358,0.2,0,0,FastAcc,9,18,Woman,Right,
46,15,1,1.3173938999998427,['n'],1,right,['e'],0,0.7842542000007597,0.2,0,0,FastAcc,9,18,Woman,Right,
47,15,1,0.6845162999998138,['n'],1,right,['e'],0,0.8721346000002086,0.1,0,0,FastAcc,9,18,Woman,Right,
48,15,1,0.7687242000001788,['c'],1,left,['u'],1,0.7289938000003531,0.4,1,0,FastAcc,9,18,Woman,Right,
49,15,1,0.766686099999788,['n'],1,right,['u'],1,0.9433792999998332,0.4,1,0,FastAcc,9,18,Woman,Right,
50,15,1,0.7499016000001575,['c'],1,left,['u'],1,0.8956705999999031,0.2,1,0,FastAcc,9,18,Woman,Right,
51,15,1,0.7679700999997294,['c'],1,left,['u'],1,0.8308688999995866,0.2,1,0,FastAcc,9,18,Woman,Right,
52,15,1,0.5676571000003605,['n'],1,right,['u'],1,0.8254366999999547,0.4,1,0,FastAcc,9,18,Woman,Right,
53,15,1,0.5661172000000079,['n'],1,right,['u'],1,0.9648805000006178,0.1,1,0,FastAcc,9,18,Woman,Right,
54,15,1,0.7015707000000475,['n'],1,right,['u'],1,0.835873599999104,0.2,1,0,FastAcc,9,18,Woman,Right,
55,15,1,1.4684618000001137,['n'],1,right,['u'],1,0.8902353000003131,0.1,1,0,FastAcc,9,18,Woman,Right,
56,15,1,0.7498356000005515,['n'],1,right,['u'],1,0.9240805999997974,0.4,1,0,FastAcc,9,18,Woman,Right,
57,15,1,0.933603000000403,['c'],1,left,['u'],1,1.0924037999993743,0.2,1,0,FastAcc,9,18,Woman,Right,
58,15,1,0.716976099999556,['c'],1,left,['u'],1,0.5903900000002977,0.4,1,0,FastAcc,9,18,Woman,Right,
59,15,1,0.8008382999996684,['c'],1,left,['u'],1,0.361797800000204,0.1,1,0,FastAcc,9,18,Woman,Right,
