withinblocktrial,block,block_repetition,rt,resp,cor,cresp,conf_press,cj,rtconf,coherence,slow_trial,manipulation,sub,age,gender,handedness,
0,1,1,4.5179229000000305,['n'],1,right,none,-99,-99,0.5,0,none,16,19,Woman,Right,
1,1,1,1.0677198000000772,['c'],0,right,none,-99,-99,0.5,0,none,16,19,Woman,Right,
2,1,1,0.8849299000000883,['n'],1,right,none,-99,-99,0.5,0,none,16,19,Woman,Right,
3,1,1,3.282586300000048,['n'],1,right,none,-99,-99,0.5,0,none,16,19,Woman,Right,
4,1,1,0.8838936000001922,['c'],1,left,none,-99,-99,0.5,0,none,16,19,Woman,Right,
5,1,1,0.7505358999999316,['n'],1,right,none,-99,-99,0.5,0,none,16,19,Woman,Right,
6,1,1,0.6999717999999575,['n'],1,right,none,-99,-99,0.5,0,none,16,19,Woman,Right,
7,1,1,0.8175065999998878,['c'],1,left,none,-99,-99,0.5,0,none,16,19,Woman,Right,
8,1,1,2.034206900000072,['n'],1,right,none,-99,-99,0.5,0,none,16,19,Woman,Right,
9,1,1,0.8161987999999383,['c'],1,left,none,-99,-99,0.5,0,none,16,19,Woman,Right,
10,1,1,0.7187859000000572,['n'],1,right,none,-99,-99,0.5,0,none,16,19,Woman,Right,
11,1,1,0.6172659000001204,['c'],1,left,none,-99,-99,0.5,0,none,16,19,Woman,Right,
12,1,1,0.8845659000000978,['n'],0,left,none,-99,-99,0.5,0,none,16,19,Woman,Right,
13,1,1,1.451111200000014,['c'],1,left,none,-99,-99,0.5,0,none,16,19,Woman,Right,
14,1,1,0.999696300000096,['c'],1,left,none,-99,-99,0.5,0,none,16,19,Woman,Right,
15,1,1,1.499069999999847,['c'],1,left,none,-99,-99,0.5,0,none,16,19,Woman,Right,
16,1,1,1.0828268000000207,['c'],1,left,none,-99,-99,0.5,0,none,16,19,Woman,Right,
17,1,1,0.849657999999863,['n'],1,right,none,-99,-99,0.5,0,none,16,19,Woman,Right,
18,1,1,1.70042269999999,['c'],0,right,none,-99,-99,0.5,0,none,16,19,Woman,Right,
19,1,1,1.6665524000000005,['c'],1,left,none,-99,-99,0.5,0,none,16,19,Woman,Right,
20,1,1,1.1830942999999934,['n'],1,right,none,-99,-99,0.5,0,none,16,19,Woman,Right,
21,1,1,1.36663539999995,['n'],1,right,none,-99,-99,0.5,0,none,16,19,Woman,Right,
22,1,1,2.3832824000000983,['n'],0,left,none,-99,-99,0.5,0,none,16,19,Woman,Right,
23,1,1,1.8994023000000197,['n'],0,left,none,-99,-99,0.5,0,none,16,19,Woman,Right,
0,1,2,0.6839132000000063,['c'],1,left,none,-99,-99,0.5,0,none,16,19,Woman,Right,
1,1,2,0.6672611000001325,['c'],1,left,none,-99,-99,0.5,0,none,16,19,Woman,Right,
2,1,2,0.733333200000061,['c'],1,left,none,-99,-99,0.5,0,none,16,19,Woman,Right,
3,1,2,0.5829805000000761,['c'],1,left,none,-99,-99,0.5,0,none,16,19,Woman,Right,
4,1,2,0.5672203999999965,['c'],0,right,none,-99,-99,0.5,0,none,16,19,Woman,Right,
5,1,2,0.9670030000002043,['n'],0,left,none,-99,-99,0.5,0,none,16,19,Woman,Right,
6,1,2,1.1835661000000073,['c'],1,left,none,-99,-99,0.5,0,none,16,19,Woman,Right,
7,1,2,0.7995735000001787,['n'],1,right,none,-99,-99,0.5,0,none,16,19,Woman,Right,
8,1,2,0.6673155000000861,['c'],1,left,none,-99,-99,0.5,0,none,16,19,Woman,Right,
9,1,2,0.7504080999999587,['n'],1,right,none,-99,-99,0.5,0,none,16,19,Woman,Right,
10,1,2,0.6337219999998069,['c'],0,right,none,-99,-99,0.5,0,none,16,19,Woman,Right,
11,1,2,1.6001293000001624,['n'],1,right,none,-99,-99,0.5,0,none,16,19,Woman,Right,
12,1,2,1.0186374999998407,['c'],1,left,none,-99,-99,0.5,0,none,16,19,Woman,Right,
13,1,2,0.63274279999996,['c'],1,left,none,-99,-99,0.5,0,none,16,19,Woman,Right,
14,1,2,0.966975100000127,['c'],1,left,none,-99,-99,0.5,0,none,16,19,Woman,Right,
15,1,2,0.9840071999999509,['n'],1,right,none,-99,-99,0.5,0,none,16,19,Woman,Right,
16,1,2,0.7832103000000643,['n'],1,right,none,-99,-99,0.5,0,none,16,19,Woman,Right,
17,1,2,0.7172499999999218,['n'],1,right,none,-99,-99,0.5,0,none,16,19,Woman,Right,
18,1,2,0.6170523000000685,['c'],1,left,none,-99,-99,0.5,0,none,16,19,Woman,Right,
19,1,2,1.783004099999971,['n'],1,right,none,-99,-99,0.5,0,none,16,19,Woman,Right,
20,1,2,1.5498187999999118,['n'],1,right,none,-99,-99,0.5,0,none,16,19,Woman,Right,
21,1,2,0.71602740000003,['c'],1,left,none,-99,-99,0.5,0,none,16,19,Woman,Right,
22,1,2,1.2502183000001423,['n'],1,right,none,-99,-99,0.5,0,none,16,19,Woman,Right,
23,1,2,0.7173719999998411,['n'],1,right,none,-99,-99,0.5,0,none,16,19,Woman,Right,
0,2,1,1.585239300000012,['n'],1,right,none,-99,-99,0.1,0,none,16,19,Woman,Right,
1,2,1,0.7320795999999063,['n'],0,left,none,-99,-99,0.2,0,none,16,19,Woman,Right,
2,2,1,0.7343273999999838,['c'],1,left,none,-99,-99,0.4,0,none,16,19,Woman,Right,
3,2,1,1.401492400000052,['n'],0,left,none,-99,-99,0.1,0,none,16,19,Woman,Right,
4,2,1,2.117770500000006,['c'],1,left,none,-99,-99,0.1,0,none,16,19,Woman,Right,
5,2,1,1.2680805999998483,['c'],1,left,none,-99,-99,0.2,0,none,16,19,Woman,Right,
6,2,1,0.9509491000001162,['n'],1,right,none,-99,-99,0.1,0,none,16,19,Woman,Right,
7,2,1,1.098870799999986,['c'],0,right,none,-99,-99,0.4,0,none,16,19,Woman,Right,
8,2,1,1.782676199999969,['n'],1,right,none,-99,-99,0.1,0,none,16,19,Woman,Right,
9,2,1,2.884240200000022,['c'],0,right,none,-99,-99,0.1,0,none,16,19,Woman,Right,
10,2,1,2.0180058000000827,['n'],0,left,none,-99,-99,0.4,0,none,16,19,Woman,Right,
11,2,1,1.7515015999999832,['c'],1,left,none,-99,-99,0.2,0,none,16,19,Woman,Right,
12,2,1,1.7836545000000115,['c'],1,left,none,-99,-99,0.4,0,none,16,19,Woman,Right,
13,2,1,0.8337820000001557,['c'],0,right,none,-99,-99,0.1,0,none,16,19,Woman,Right,
14,2,1,1.2014639000001353,['n'],1,right,none,-99,-99,0.4,0,none,16,19,Woman,Right,
15,2,1,1.3166742999999315,['c'],1,left,none,-99,-99,0.4,0,none,16,19,Woman,Right,
16,2,1,3.3502690000000257,['n'],1,right,none,-99,-99,0.2,0,none,16,19,Woman,Right,
17,2,1,0.8672762999999577,['c'],1,left,none,-99,-99,0.4,0,none,16,19,Woman,Right,
18,2,1,1.366002299999991,['n'],1,right,none,-99,-99,0.1,0,none,16,19,Woman,Right,
19,2,1,1.2174648000000161,['n'],0,left,none,-99,-99,0.2,0,none,16,19,Woman,Right,
20,2,1,0.883142399999997,['n'],1,right,none,-99,-99,0.4,0,none,16,19,Woman,Right,
21,2,1,1.0839564000000337,['n'],0,left,none,-99,-99,0.2,0,none,16,19,Woman,Right,
22,2,1,1.184623399999964,['n'],1,right,none,-99,-99,0.2,0,none,16,19,Woman,Right,
23,2,1,1.484648499999821,['n'],1,right,none,-99,-99,0.2,0,none,16,19,Woman,Right,
0,3,1,1.7513314999998784,['c'],1,left,['2'],5,2.0013825000000907,0.4,0,none,16,19,Woman,Right,
1,3,1,1.9842621000000236,['n'],0,left,['3'],4,2.0000185999999758,0.1,0,none,16,19,Woman,Right,
2,3,1,2.817739099999926,['c'],0,right,['3'],4,1.4847348000000693,0.2,0,none,16,19,Woman,Right,
3,3,1,4.049710299999788,['c'],0,right,['2'],5,0.9349362000000383,0.1,0,none,16,19,Woman,Right,
4,3,1,1.8170528999999078,['c'],1,left,['3'],4,0.9684312000001682,0.1,0,none,16,19,Woman,Right,
5,3,1,1.7828941000000214,['c'],1,left,['2'],5,0.8011475000000701,0.2,0,none,16,19,Woman,Right,
6,3,1,3.666298900000129,['n'],1,right,['2'],5,1.0343983999998727,0.4,0,none,16,19,Woman,Right,
7,3,1,1.134025500000007,['c'],1,left,['3'],4,0.7673171000001275,0.4,0,none,16,19,Woman,Right,
8,3,1,1.2009752999999819,['n'],0,left,['3'],4,0.9839942000000974,0.2,0,none,16,19,Woman,Right,
9,3,1,1.4656655000001138,['n'],1,right,['1'],6,0.6026997999999821,0.2,0,none,16,19,Woman,Right,
10,3,1,2.600292399999944,['n'],1,right,['2'],5,0.8514992000000348,0.4,0,none,16,19,Woman,Right,
11,3,1,2.183227999999872,['c'],1,left,['2'],5,0.7846039000000928,0.2,0,none,16,19,Woman,Right,
12,3,1,2.0007990999999947,['n'],1,right,['2'],5,0.9004464000001917,0.1,0,none,16,19,Woman,Right,
13,3,1,2.1838172999998733,['n'],1,right,['2'],5,1.1846726999999646,0.4,0,none,16,19,Woman,Right,
14,3,1,3.9334883999999875,['c'],1,left,['2'],5,0.7013138999998318,0.2,0,none,16,19,Woman,Right,
15,3,1,5.00027040000009,x,-99,left,none,-99,-99,0.2,1,none,16,19,Woman,Right,
16,3,1,0.8515451999999186,['c'],1,left,['2'],5,0.6515042000000903,0.4,0,none,16,19,Woman,Right,
17,3,1,1.3673212000001058,['c'],1,left,['2'],5,0.6175501000000168,0.1,0,none,16,19,Woman,Right,
18,3,1,1.3161714000000302,['c'],1,left,['3'],4,0.6516088999999283,0.1,0,none,16,19,Woman,Right,
19,3,1,1.08364430000006,['c'],0,right,['3'],4,0.6347247000001062,0.1,0,none,16,19,Woman,Right,
20,3,1,0.9684566000000814,['n'],1,right,['3'],4,0.8678363999999874,0.4,0,none,16,19,Woman,Right,
21,3,1,1.9836763000000701,['n'],1,right,['3'],4,0.7850068000000192,0.4,0,none,16,19,Woman,Right,
22,3,1,1.9655656999998428,['n'],1,right,['3'],4,0.5842450000000099,0.2,0,none,16,19,Woman,Right,
23,3,1,2.401655699999992,['c'],0,right,['2'],5,0.6834171000000424,0.1,0,none,16,19,Woman,Right,
0,4,1,1.4176330999998754,['n'],1,right,['3'],4,3.3999185000000125,0.4,0,FastAcc,16,19,Woman,Right,
1,4,1,1.750068199999987,['n'],1,right,['3'],4,2.2177408000000014,0.2,0,FastAcc,16,19,Woman,Right,
2,4,1,1.9171060000001034,['n'],0,left,['3'],4,1.0840371000001596,0.2,0,FastAcc,16,19,Woman,Right,
3,4,1,1.3477772999999615,['n'],1,right,['3'],4,1.469483500000024,0.2,0,FastAcc,16,19,Woman,Right,
4,4,1,2.2179303999998865,['n'],1,right,['3'],4,0.5683080000001155,0.4,0,FastAcc,16,19,Woman,Right,
5,4,1,1.1168127999999342,['c'],1,left,['3'],4,0.6840505000000121,0.4,0,FastAcc,16,19,Woman,Right,
6,4,1,3.1170442000000094,['c'],1,left,['3'],4,0.7848776000000726,0.2,0,FastAcc,16,19,Woman,Right,
7,4,1,2.1170421000001625,['n'],0,left,['8'],3,1.2180996999998115,0.2,0,FastAcc,16,19,Woman,Right,
8,4,1,2.132042100000035,['c'],0,right,['3'],4,0.8007106000000022,0.1,0,FastAcc,16,19,Woman,Right,
9,4,1,1.5331719999999223,['c'],1,left,['3'],4,0.8839078999999401,0.4,0,FastAcc,16,19,Woman,Right,
10,4,1,1.2339842999999746,['c'],1,left,['1'],6,0.9841096999998626,0.4,0,FastAcc,16,19,Woman,Right,
11,4,1,1.2170051000000512,['n'],1,right,['3'],4,1.1175854000000527,0.4,0,FastAcc,16,19,Woman,Right,
12,4,1,1.732734599999958,['n'],1,right,['2'],5,0.8675129000000652,0.1,0,FastAcc,16,19,Woman,Right,
13,4,1,1.1335233000002063,['n'],1,right,['2'],5,1.0177467999999408,0.4,0,FastAcc,16,19,Woman,Right,
14,4,1,1.6182621000000381,['n'],1,right,['3'],4,1.2011967999999342,0.1,0,FastAcc,16,19,Woman,Right,
15,4,1,1.3165710000000672,['n'],1,right,['2'],5,0.832656100000122,0.2,0,FastAcc,16,19,Woman,Right,
16,4,1,1.0351261000000704,['n'],0,left,['2'],5,0.9006231999999272,0.4,0,FastAcc,16,19,Woman,Right,
17,4,1,1.5523419999999533,['n'],1,right,['2'],5,1.601591499999813,0.1,0,FastAcc,16,19,Woman,Right,
18,4,1,1.5341052999999647,['n'],1,right,['2'],5,1.117992700000059,0.1,0,FastAcc,16,19,Woman,Right,
19,4,1,1.1168809999999212,['n'],1,right,['2'],5,0.651514600000155,0.1,0,FastAcc,16,19,Woman,Right,
20,4,1,1.3672033999998803,['n'],1,right,['2'],5,0.9845514000001003,0.2,0,FastAcc,16,19,Woman,Right,
21,4,1,1.7332334000000174,['n'],1,right,['2'],5,1.0016696000000138,0.1,0,FastAcc,16,19,Woman,Right,
22,4,1,1.617196599999943,['n'],0,left,['3'],4,0.8846963000000869,0.2,0,FastAcc,16,19,Woman,Right,
23,4,1,2.100363299999799,['n'],1,right,['3'],4,0.6507117999999537,0.2,0,FastAcc,16,19,Woman,Right,
24,4,1,2.766935300000114,['n'],1,right,['2'],5,1.0013762999999472,0.4,0,FastAcc,16,19,Woman,Right,
25,4,1,1.682694500000025,['c'],1,left,['2'],5,1.0348280999999133,0.1,0,FastAcc,16,19,Woman,Right,
26,4,1,1.3990810000000238,['c'],1,left,['3'],4,0.6522675999999592,0.2,0,FastAcc,16,19,Woman,Right,
27,4,1,2.2506611000001158,['n'],1,right,['3'],4,1.2508216999999604,0.1,0,FastAcc,16,19,Woman,Right,
28,4,1,1.4005561999999827,['n'],1,right,['3'],4,1.4513112999998157,0.2,0,FastAcc,16,19,Woman,Right,
29,4,1,1.5670843000000332,['c'],1,left,['1'],6,1.1347819000000072,0.4,0,FastAcc,16,19,Woman,Right,
30,4,1,1.0007187000001068,['c'],1,left,['1'],6,0.7015298000001167,0.1,0,FastAcc,16,19,Woman,Right,
31,4,1,2.2656745000001592,['c'],1,left,['2'],5,0.9358852999998817,0.2,0,FastAcc,16,19,Woman,Right,
32,4,1,1.8657544000000144,['n'],1,right,['2'],5,1.183817099999942,0.4,0,FastAcc,16,19,Woman,Right,
33,4,1,1.7838259000000107,['c'],1,left,['3'],4,1.0013318999999683,0.1,0,FastAcc,16,19,Woman,Right,
34,4,1,1.4341635999999198,['c'],0,right,['3'],4,0.7848469000000478,0.2,0,FastAcc,16,19,Woman,Right,
35,4,1,1.450521000000208,['c'],1,left,['3'],4,0.5848753000000215,0.4,0,FastAcc,16,19,Woman,Right,
36,4,1,1.66692850000004,['c'],1,left,['3'],4,0.6190122000000429,0.4,0,FastAcc,16,19,Woman,Right,
37,4,1,1.5505522999999357,['c'],1,left,['3'],4,0.9844585999999254,0.1,0,FastAcc,16,19,Woman,Right,
38,4,1,1.4169514000000163,['c'],1,left,['3'],4,0.8179823999998916,0.4,0,FastAcc,16,19,Woman,Right,
39,4,1,1.0171399000000747,['n'],1,right,['2'],5,1.0170485999999528,0.4,0,FastAcc,16,19,Woman,Right,
40,4,1,1.6685929999998734,['c'],1,left,['3'],4,0.651472799999965,0.4,0,FastAcc,16,19,Woman,Right,
41,4,1,2.666819099999884,['c'],1,left,['3'],4,1.2687468000001445,0.1,0,FastAcc,16,19,Woman,Right,
42,4,1,0.9507714999999735,['c'],1,left,['8'],3,0.7516951000000063,0.2,0,FastAcc,16,19,Woman,Right,
43,4,1,2.317316099999971,['c'],1,left,['8'],3,0.8839132000000518,0.1,0,FastAcc,16,19,Woman,Right,
44,4,1,1.3657301999999163,['n'],0,left,['3'],4,1.0522905000000264,0.2,0,FastAcc,16,19,Woman,Right,
45,4,1,1.8002988000000641,['c'],0,right,['3'],4,0.9847391000000698,0.1,0,FastAcc,16,19,Woman,Right,
46,4,1,1.617341099999976,['c'],0,right,['3'],4,0.6350263000001632,0.2,0,FastAcc,16,19,Woman,Right,
47,4,1,2.766816100000142,['c'],1,left,['3'],4,0.7827356000000236,0.2,0,FastAcc,16,19,Woman,Right,
48,4,1,2.1688420999998925,['c'],0,right,['3'],4,0.734570400000166,0.2,0,FastAcc,16,19,Woman,Right,
49,4,1,2.5680680000000393,['c'],0,right,['3'],4,0.6681510000000799,0.4,0,FastAcc,16,19,Woman,Right,
50,4,1,1.150809400000071,['n'],1,right,['8'],3,3.5837572999998883,0.4,0,FastAcc,16,19,Woman,Right,
51,4,1,2.6836322999999993,['n'],0,left,['8'],3,0.8846465999999964,0.1,0,FastAcc,16,19,Woman,Right,
52,4,1,2.3835185000000365,['n'],0,left,['9'],2,2.916419899999937,0.4,0,FastAcc,16,19,Woman,Right,
53,4,1,2.900948399999834,['n'],1,right,['8'],3,1.1688262000000122,0.2,0,FastAcc,16,19,Woman,Right,
54,4,1,2.1828594000000976,['c'],1,left,['8'],3,2.000030299999935,0.2,0,FastAcc,16,19,Woman,Right,
55,4,1,3.0658880000000863,['n'],0,left,['8'],3,1.5522869000001265,0.4,0,FastAcc,16,19,Woman,Right,
56,4,1,3.8156556999999793,['n'],1,right,['3'],4,1.2525218999999197,0.1,0,FastAcc,16,19,Woman,Right,
57,4,1,1.3660284999998566,['c'],1,left,['2'],5,0.9187186999999994,0.1,0,FastAcc,16,19,Woman,Right,
58,4,1,1.0171802999998363,['c'],1,left,['2'],5,0.700424799999837,0.1,0,FastAcc,16,19,Woman,Right,
59,4,1,1.3676955999999336,['n'],1,right,['3'],4,1.550339799999847,0.1,0,FastAcc,16,19,Woman,Right,
0,5,1,0.8178495000001931,['c'],1,left,['3'],4,0.917935499999885,0.4,0,FastFast,16,19,Woman,Right,
1,5,1,1.6173088000000462,['c'],0,right,['2'],5,0.30150860000003377,0.1,0,FastFast,16,19,Woman,Right,
2,5,1,0.8994305000001077,['c'],1,left,['1'],6,0.551910399999997,0.1,0,FastFast,16,19,Woman,Right,
3,5,1,2.566959499999939,['c'],0,right,['1'],6,0.6180666000000201,0.1,0,FastFast,16,19,Woman,Right,
4,5,1,0.8339750000000095,['c'],1,left,['2'],5,0.4681953000001613,0.4,0,FastFast,16,19,Woman,Right,
5,5,1,0.9842453000001115,['n'],1,right,['2'],5,0.8691753000000517,0.4,0,FastFast,16,19,Woman,Right,
6,5,1,0.9489770999998655,['c'],1,left,['2'],5,0.38553219999994326,0.1,0,FastFast,16,19,Woman,Right,
7,5,1,1.1171220999999605,['c'],1,left,['2'],5,0.43484910000006494,0.4,0,FastFast,16,19,Woman,Right,
8,5,1,0.6503858999999466,['n'],1,right,['2'],5,0.3847435000000132,0.2,0,FastFast,16,19,Woman,Right,
9,5,1,2.382640500000207,['c'],1,left,['2'],5,0.3351399999999103,0.2,0,FastFast,16,19,Woman,Right,
10,5,1,0.9000831000000744,['c'],1,left,['2'],5,0.38417789999994056,0.4,0,FastFast,16,19,Woman,Right,
11,5,1,1.3000526999999238,['n'],1,right,['1'],6,0.6501890000001822,0.2,0,FastFast,16,19,Woman,Right,
12,5,1,1.2507717000000866,['c'],0,right,['2'],5,0.6337252999999237,0.1,0,FastFast,16,19,Woman,Right,
13,5,1,1.4825232000000597,['c'],0,right,['1'],6,0.5500524999999925,0.2,0,FastFast,16,19,Woman,Right,
14,5,1,1.0843736000001627,['n'],0,left,['2'],5,0.3683487000000696,0.2,0,FastFast,16,19,Woman,Right,
15,5,1,2.6999723999999787,['c'],0,right,['2'],5,0.33453670000017155,0.2,0,FastFast,16,19,Woman,Right,
16,5,1,1.466119899999967,['c'],0,right,['2'],5,0.3833614000000125,0.2,0,FastFast,16,19,Woman,Right,
17,5,1,1.0847868000000744,['c'],0,right,['2'],5,0.30140770000002703,0.4,0,FastFast,16,19,Woman,Right,
18,5,1,0.751026199999842,['n'],1,right,['2'],5,0.48453429999995024,0.4,0,FastFast,16,19,Woman,Right,
19,5,1,0.9675975000000108,['c'],1,left,['1'],6,0.35137520000012046,0.1,0,FastFast,16,19,Woman,Right,
20,5,1,1.0481724999999642,['c'],0,right,['2'],5,0.4026802000000771,0.2,0,FastFast,16,19,Woman,Right,
21,5,1,1.9171128000000408,['c'],1,left,['2'],5,0.3680303000001004,0.1,0,FastFast,16,19,Woman,Right,
22,5,1,1.7001832999999351,['c'],1,left,['2'],5,0.2680268999999953,0.4,0,FastFast,16,19,Woman,Right,
23,5,1,1.6170214999999644,['n'],1,right,['2'],5,0.35147680000000037,0.1,0,FastFast,16,19,Woman,Right,
24,5,1,1.4504305000000386,['c'],0,right,['2'],5,0.26891460000001643,0.1,0,FastFast,16,19,Woman,Right,
25,5,1,0.800442799999928,['c'],1,left,['3'],4,0.7679298999998991,0.4,0,FastFast,16,19,Woman,Right,
26,5,1,1.2011095000000296,['c'],1,left,['3'],4,0.5171938000000864,0.4,0,FastFast,16,19,Woman,Right,
27,5,1,0.8342104999999265,['c'],0,right,['2'],5,0.383655600000111,0.1,0,FastFast,16,19,Woman,Right,
28,5,1,0.6011497000001782,['n'],1,right,['2'],5,0.43385859999989407,0.4,0,FastFast,16,19,Woman,Right,
29,5,1,1.0003755000000183,['c'],1,left,['2'],5,0.20138420000012047,0.2,0,FastFast,16,19,Woman,Right,
30,5,1,2.2494222000000264,['n'],1,right,['2'],5,0.2682213000000502,0.2,0,FastFast,16,19,Woman,Right,
31,5,1,0.8170810000001438,['c'],1,left,['2'],5,0.18568640000012238,0.4,0,FastFast,16,19,Woman,Right,
32,5,1,1.817199300000084,['n'],0,left,['2'],5,0.23565230000008341,0.4,0,FastFast,16,19,Woman,Right,
33,5,1,2.7656403000000864,['n'],0,left,['2'],5,0.26597590000005766,0.1,0,FastFast,16,19,Woman,Right,
34,5,1,1.5347477000000254,['n'],0,left,['2'],5,0.23427909999986696,0.1,0,FastFast,16,19,Woman,Right,
35,5,1,1.8339948000000277,['c'],1,left,['3'],4,0.18459499999994478,0.4,0,FastFast,16,19,Woman,Right,
36,5,1,2.1337424000000738,['n'],1,right,['3'],4,0.2849926000001233,0.1,0,FastFast,16,19,Woman,Right,
37,5,1,1.9819775999999365,['n'],1,right,['3'],4,0.21925089999990632,0.2,0,FastFast,16,19,Woman,Right,
38,5,1,1.8340840999999273,['n'],1,right,['3'],4,0.30136709999987943,0.2,0,FastFast,16,19,Woman,Right,
39,5,1,0.7852163999998538,['c'],1,left,['3'],4,0.26837860000000546,0.4,0,FastFast,16,19,Woman,Right,
40,5,1,2.7172345999999834,['c'],0,right,['2'],5,0.3999555999998847,0.1,0,FastFast,16,19,Woman,Right,
41,5,1,0.9839652000000569,['c'],1,left,['2'],5,0.20144889999983207,0.1,0,FastFast,16,19,Woman,Right,
42,5,1,0.766982999999982,['c'],1,left,['2'],5,0.3508165000000645,0.4,0,FastFast,16,19,Woman,Right,
43,5,1,2.167106399999966,['c'],0,right,['2'],5,0.25150450000001,0.4,0,FastFast,16,19,Woman,Right,
44,5,1,1.567021000000068,['c'],1,left,['2'],5,0.282613099999935,0.1,0,FastFast,16,19,Woman,Right,
45,5,1,1.0349696999999196,['n'],1,right,['9'],2,0.2348967000000357,0.4,0,FastFast,16,19,Woman,Right,
46,5,1,1.0824938999999176,['c'],0,right,['2'],5,0.18549960000018473,0.2,0,FastFast,16,19,Woman,Right,
47,5,1,1.4831958999998278,['c'],1,left,['2'],5,0.2178031999999348,0.2,0,FastFast,16,19,Woman,Right,
48,5,1,2.43384570000012,['n'],0,left,['2'],5,0.3344994999999926,0.1,0,FastFast,16,19,Woman,Right,
49,5,1,1.3499482999998236,['c'],1,left,['3'],4,0.26798980000012307,0.2,0,FastFast,16,19,Woman,Right,
50,5,1,2.0330907000000025,['n'],1,right,['1'],6,0.8680580000000191,0.2,0,FastFast,16,19,Woman,Right,
51,5,1,1.950441200000114,['c'],0,right,['2'],5,0.16829900000016096,0.2,0,FastFast,16,19,Woman,Right,
52,5,1,1.2176202000000558,['c'],0,right,['2'],5,0.5514605999999276,0.4,0,FastFast,16,19,Woman,Right,
53,5,1,2.5997248000001036,['c'],1,left,['2'],5,0.3180760999998711,0.2,0,FastFast,16,19,Woman,Right,
54,5,1,0.9012674999999035,['c'],1,left,['1'],6,0.6014569000001302,0.4,0,FastFast,16,19,Woman,Right,
55,5,1,2.1007615000000897,['c'],1,left,['2'],5,0.21787059999996927,0.1,0,FastFast,16,19,Woman,Right,
56,5,1,2.1509218000001056,['c'],0,right,['2'],5,0.185258900000008,0.2,0,FastFast,16,19,Woman,Right,
57,5,1,0.7998627000001761,['c'],1,left,['2'],5,0.18475319999970452,0.1,0,FastFast,16,19,Woman,Right,
58,5,1,1.6501450999999179,['c'],0,right,['2'],5,0.16740419999996448,0.1,0,FastFast,16,19,Woman,Right,
59,5,1,2.7843250000000808,['c'],0,right,['2'],5,0.3347091000000546,0.2,0,FastFast,16,19,Woman,Right,
0,6,1,0.7847709000002396,['c'],1,left,['3'],4,1.2514396999999917,0.2,0,AccFast,16,19,Woman,Right,
1,6,1,2.1334657000002153,['n'],1,right,['3'],4,0.33367290000023786,0.1,0,AccFast,16,19,Woman,Right,
2,6,1,0.7682823999998618,['c'],1,left,['3'],4,0.267934299999979,0.4,0,AccFast,16,19,Woman,Right,
3,6,1,2.499844700000267,['c'],1,left,['2'],5,0.2347298999998202,0.1,0,AccFast,16,19,Woman,Right,
4,6,1,0.8492012000001523,['n'],1,right,['1'],6,0.702891300000374,0.4,0,AccFast,16,19,Woman,Right,
5,6,1,1.9006168999999318,['n'],0,left,['2'],5,0.5346283999997468,0.1,0,AccFast,16,19,Woman,Right,
6,6,1,2.3330527000002803,['n'],0,left,['3'],4,0.3181598999999551,0.1,0,AccFast,16,19,Woman,Right,
7,6,1,1.9838638999999603,['n'],1,right,['3'],4,0.218154599999707,0.1,0,AccFast,16,19,Woman,Right,
8,6,1,3.8503656000002593,['c'],1,left,['3'],4,0.43444789999966815,0.1,0,AccFast,16,19,Woman,Right,
9,6,1,1.1984785999998167,['n'],1,right,['3'],4,0.50257959999999,0.1,0,AccFast,16,19,Woman,Right,
10,6,1,2.4006948000001103,['c'],1,left,['3'],4,0.2181401000002552,0.2,0,AccFast,16,19,Woman,Right,
11,6,1,3.016929199999595,['n'],1,right,['3'],4,0.8502649000001838,0.2,0,AccFast,16,19,Woman,Right,
12,6,1,1.049228000000312,['n'],1,right,['3'],4,0.2856506999996782,0.4,0,AccFast,16,19,Woman,Right,
13,6,1,0.8673872000003939,['n'],1,right,['1'],6,0.251296800000091,0.4,0,AccFast,16,19,Woman,Right,
14,6,1,1.1172004000000015,['n'],1,right,['1'],6,0.2838314000000537,0.2,0,AccFast,16,19,Woman,Right,
15,6,1,1.700343299999986,['n'],1,right,['1'],6,0.6179798000002847,0.1,0,AccFast,16,19,Woman,Right,
16,6,1,1.11721579999994,['n'],0,left,['1'],6,0.35162529999979597,0.1,0,AccFast,16,19,Woman,Right,
17,6,1,2.8835697999998047,['c'],1,left,['2'],5,0.40140199999996184,0.1,0,AccFast,16,19,Woman,Right,
18,6,1,1.88324509999984,['c'],0,right,['3'],4,0.6178965999997672,0.2,0,AccFast,16,19,Woman,Right,
19,6,1,1.5012832000002163,['c'],0,right,['3'],4,0.21804799999972602,0.1,0,AccFast,16,19,Woman,Right,
20,6,1,1.6337481999999,['n'],1,right,['3'],4,0.20134509999979855,0.4,0,AccFast,16,19,Woman,Right,
21,6,1,2.3169222999999874,['n'],1,right,['3'],4,0.35151040000027933,0.4,0,AccFast,16,19,Woman,Right,
22,6,1,1.500443599999926,['c'],0,right,['2'],5,0.2514215000001059,0.4,0,AccFast,16,19,Woman,Right,
23,6,1,1.216421900000114,['c'],1,left,['3'],4,0.5846945000002961,0.2,0,AccFast,16,19,Woman,Right,
24,6,1,1.2500686999997015,['c'],0,right,['3'],4,0.20224570000027597,0.2,0,AccFast,16,19,Woman,Right,
25,6,1,1.5336996000000909,['c'],1,left,['3'],4,0.6180666000000201,0.4,0,AccFast,16,19,Woman,Right,
26,6,1,1.1342703000000256,['c'],0,right,['3'],4,0.2846352999999908,0.1,0,AccFast,16,19,Woman,Right,
27,6,1,1.1838419999999132,['c'],1,left,['2'],5,0.31768079999983456,0.2,0,AccFast,16,19,Woman,Right,
28,6,1,1.0513875999999982,['c'],0,right,['2'],5,0.38475300000027346,0.4,0,AccFast,16,19,Woman,Right,
29,6,1,0.8847303000002285,['c'],1,left,['2'],5,0.7012550999997984,0.4,0,AccFast,16,19,Woman,Right,
30,6,1,0.9674572999997508,['c'],1,left,['2'],5,0.3014757999999347,0.2,0,AccFast,16,19,Woman,Right,
31,6,1,1.9170837000001484,['n'],1,right,['2'],5,0.3505075999996734,0.4,0,AccFast,16,19,Woman,Right,
32,6,1,2.934091300000091,['n'],1,right,['2'],5,0.7019391999997424,0.4,0,AccFast,16,19,Woman,Right,
33,6,1,1.8504205999997794,['n'],1,right,['3'],4,0.18424800000002506,0.2,0,AccFast,16,19,Woman,Right,
34,6,1,2.2003076999999394,['n'],1,right,['3'],4,0.30100609999999506,0.1,0,AccFast,16,19,Woman,Right,
35,6,1,4.68351980000034,['c'],0,right,['3'],4,0.7011118999998871,0.1,0,AccFast,16,19,Woman,Right,
36,6,1,1.0836185999996815,['n'],1,right,['2'],5,0.33465990000013335,0.4,0,AccFast,16,19,Woman,Right,
37,6,1,1.2498467000000346,['n'],1,right,['2'],5,0.21804420000034952,0.4,0,AccFast,16,19,Woman,Right,
38,6,1,1.4164839999998549,['c'],1,left,['2'],5,0.23473070000000007,0.4,0,AccFast,16,19,Woman,Right,
39,6,1,1.1842681000002813,['c'],0,right,['2'],5,0.26623090000020966,0.1,0,AccFast,16,19,Woman,Right,
40,6,1,1.3173577000002297,['c'],0,right,['2'],5,0.35135710000031395,0.2,0,AccFast,16,19,Woman,Right,
41,6,1,0.7834938999999395,['c'],1,left,['2'],5,0.31803739999986647,0.2,0,AccFast,16,19,Woman,Right,
42,6,1,1.0503874999999425,['c'],1,left,['2'],5,0.2514102999998613,0.2,0,AccFast,16,19,Woman,Right,
43,6,1,0.850532899999962,['c'],1,left,['2'],5,0.23471420000032595,0.1,0,AccFast,16,19,Woman,Right,
44,6,1,1.0501985000000786,['c'],1,left,['2'],5,0.2513989000003676,0.4,0,AccFast,16,19,Woman,Right,
45,6,1,0.8850244999998722,['c'],0,right,['3'],4,0.31807919999982914,0.2,0,AccFast,16,19,Woman,Right,
46,6,1,0.8155266999997366,['c'],1,left,['3'],4,0.28422969999974157,0.1,0,AccFast,16,19,Woman,Right,
47,6,1,1.0845706000000064,['c'],1,left,['2'],5,0.20145270000011806,0.2,0,AccFast,16,19,Woman,Right,
48,6,1,1.2674519000001965,['c'],1,left,['2'],5,0.18484350000017002,0.2,0,AccFast,16,19,Woman,Right,
49,6,1,1.567155400000047,['c'],1,left,['2'],5,0.16818899999998393,0.4,0,AccFast,16,19,Woman,Right,
50,6,1,2.3993992000000617,['n'],1,right,['2'],5,0.43469210000012026,0.2,0,AccFast,16,19,Woman,Right,
51,6,1,1.6838995000002797,['n'],0,left,['3'],4,0.8180262999999286,0.4,0,AccFast,16,19,Woman,Right,
52,6,1,1.0007457000001523,['c'],1,left,['3'],4,0.2182025000001886,0.2,0,AccFast,16,19,Woman,Right,
53,6,1,2.36714529999972,['c'],1,left,['3'],4,1.5179511999999704,0.4,0,AccFast,16,19,Woman,Right,
54,6,1,1.0835046999995939,['n'],0,left,['3'],4,0.46800660000008065,0.1,0,AccFast,16,19,Woman,Right,
55,6,1,1.300486600000113,['n'],1,right,['3'],4,0.3514130000003206,0.2,0,AccFast,16,19,Woman,Right,
56,6,1,2.4009313000001384,['c'],0,right,['3'],4,0.30179339999995136,0.2,0,AccFast,16,19,Woman,Right,
57,6,1,1.6670199999998658,['c'],1,left,['3'],4,0.7178116000000045,0.1,0,AccFast,16,19,Woman,Right,
58,6,1,1.6843613000000914,['c'],1,left,['8'],3,0.2161553000000822,0.1,0,AccFast,16,19,Woman,Right,
59,6,1,1.4353470999999445,['c'],1,left,['8'],3,0.2989821999999549,0.4,0,AccFast,16,19,Woman,Right,
0,7,1,1.6669372999999723,['n'],1,right,['3'],4,1.4345232999999098,0.1,0,AccAcc,16,19,Woman,Right,
1,7,1,1.2509608999998818,['c'],1,left,['3'],4,0.6011484999999084,0.2,0,AccAcc,16,19,Woman,Right,
2,7,1,0.9508035999997446,['c'],1,left,['3'],4,0.8680967000000237,0.4,0,AccAcc,16,19,Woman,Right,
3,7,1,0.8835256000002119,['n'],1,right,['3'],4,0.5850789999999506,0.4,0,AccAcc,16,19,Woman,Right,
4,7,1,1.4504331999996793,['n'],1,right,['2'],5,0.3334251999999651,0.2,0,AccAcc,16,19,Woman,Right,
5,7,1,1.0512713000002805,['n'],1,right,['2'],5,0.4014017999998032,0.4,0,AccAcc,16,19,Woman,Right,
6,7,1,1.3337652999998681,['c'],1,left,['3'],4,0.43471809999982725,0.1,0,AccAcc,16,19,Woman,Right,
7,7,1,3.11704809999992,['c'],0,right,['2'],5,0.6179434000000583,0.1,0,AccAcc,16,19,Woman,Right,
8,7,1,1.5003555000002962,['c'],1,left,['2'],5,0.3846737999997458,0.4,0,AccAcc,16,19,Woman,Right,
9,7,1,1.5173095000000103,['c'],1,left,['2'],5,0.45029859999976907,0.4,0,AccAcc,16,19,Woman,Right,
10,7,1,1.466187699999864,['n'],1,right,['2'],5,0.3344778000000588,0.4,0,AccAcc,16,19,Woman,Right,
11,7,1,0.933324999999968,['c'],1,left,['2'],5,0.25157469999976456,0.2,0,AccAcc,16,19,Woman,Right,
12,7,1,1.4671110999997836,['c'],0,right,['3'],4,0.8681285999996362,0.4,0,AccAcc,16,19,Woman,Right,
13,7,1,1.5000346000001628,['c'],0,right,['3'],4,0.383018600000014,0.1,0,AccAcc,16,19,Woman,Right,
14,7,1,0.9842748000000938,['c'],0,right,['3'],4,0.3347084000001814,0.2,0,AccAcc,16,19,Woman,Right,
15,7,1,2.0003514999998515,['n'],0,left,['3'],4,1.0502811999999722,0.1,0,AccAcc,16,19,Woman,Right,
16,7,1,1.7993677000004027,['c'],0,right,['2'],5,0.9682856999997966,0.4,0,AccAcc,16,19,Woman,Right,
17,7,1,2.7012604999999894,['n'],0,left,['8'],3,1.067941399999654,0.2,0,AccAcc,16,19,Woman,Right,
18,7,1,1.3001403000002938,['c'],0,right,['2'],5,0.5510260999999446,0.4,0,AccAcc,16,19,Woman,Right,
19,7,1,0.9839049000001978,['c'],1,left,['2'],5,1.0999124999998457,0.4,0,AccAcc,16,19,Woman,Right,
20,7,1,2.2657788000001347,['n'],1,right,['2'],5,0.7506579000000784,0.4,0,AccAcc,16,19,Woman,Right,
21,7,1,2.6503561999998055,['c'],1,left,['2'],5,0.5013511000001927,0.1,0,AccAcc,16,19,Woman,Right,
22,7,1,1.648949999999786,['c'],1,left,['3'],4,0.5360330999997132,0.1,0,AccAcc,16,19,Woman,Right,
23,7,1,1.550404399999934,['n'],0,left,['3'],4,0.40154359999996814,0.4,0,AccAcc,16,19,Woman,Right,
24,7,1,1.0005123000000822,['c'],1,left,['3'],4,0.3674120999999104,0.1,0,AccAcc,16,19,Woman,Right,
25,7,1,1.7681290999998964,['c'],0,right,['3'],4,0.40147639999986495,0.2,0,AccAcc,16,19,Woman,Right,
26,7,1,1.3149459000001116,['n'],0,left,['3'],4,0.6353478000000905,0.1,0,AccAcc,16,19,Woman,Right,
27,7,1,1.5323677000001226,['n'],0,left,['3'],4,0.6191874000001008,0.1,0,AccAcc,16,19,Woman,Right,
28,7,1,1.1171311000002788,['n'],0,left,['3'],4,0.7179707000000235,0.2,0,AccAcc,16,19,Woman,Right,
29,7,1,1.5171470000000227,['n'],1,right,['3'],4,0.33473270000013144,0.1,0,AccAcc,16,19,Woman,Right,
30,7,1,2.1837758000001486,['n'],0,left,['3'],4,0.3846198999999615,0.2,0,AccAcc,16,19,Woman,Right,
31,7,1,1.6669415999999728,['c'],1,left,['3'],4,0.38506039999992936,0.1,0,AccAcc,16,19,Woman,Right,
32,7,1,2.116153899999972,['c'],1,left,['3'],4,0.3013055000001259,0.2,0,AccAcc,16,19,Woman,Right,
33,7,1,1.3829945000002226,['c'],1,left,['3'],4,0.23441760000014256,0.2,0,AccAcc,16,19,Woman,Right,
34,7,1,1.4508648000000903,['c'],1,left,['3'],4,0.1681855000001633,0.2,0,AccAcc,16,19,Woman,Right,
35,7,1,1.583502999999837,['n'],1,right,['3'],4,0.23441400000001522,0.1,0,AccAcc,16,19,Woman,Right,
36,7,1,1.1836279999997714,['n'],1,right,['3'],4,0.28481590000001233,0.1,0,AccAcc,16,19,Woman,Right,
37,7,1,1.166762600000311,['c'],1,left,['3'],4,0.21810050000021874,0.1,0,AccAcc,16,19,Woman,Right,
38,7,1,1.267999300000156,['n'],1,right,['3'],4,0.2680205000001479,0.1,0,AccAcc,16,19,Woman,Right,
39,7,1,1.0493132000001424,['n'],1,right,['3'],4,0.31806049999977404,0.4,0,AccAcc,16,19,Woman,Right,
40,7,1,1.1837046000000555,['n'],1,right,['3'],4,0.31816740000022037,0.1,0,AccAcc,16,19,Woman,Right,
41,7,1,0.9337258999998994,['n'],1,right,['3'],4,0.23465570000007574,0.1,0,AccAcc,16,19,Woman,Right,
42,7,1,1.1670940999997583,['n'],1,right,['3'],4,0.3013882999998714,0.4,0,AccAcc,16,19,Woman,Right,
43,7,1,1.7167893000000731,['c'],1,left,['3'],4,0.3336322999998629,0.2,0,AccAcc,16,19,Woman,Right,
44,7,1,1.616925700000138,['n'],1,right,['3'],4,0.2846545000002152,0.2,0,AccAcc,16,19,Woman,Right,
45,7,1,1.0001110000002882,['c'],0,right,['3'],4,0.21803339999996751,0.2,0,AccAcc,16,19,Woman,Right,
46,7,1,1.483606900000268,['c'],1,left,['3'],4,0.18455649999987145,0.4,0,AccAcc,16,19,Woman,Right,
47,7,1,1.6334788999997727,['n'],1,right,['3'],4,0.3672850000002654,0.4,0,AccAcc,16,19,Woman,Right,
48,7,1,0.8835727999999108,['c'],1,left,['3'],4,0.20144519999985278,0.4,0,AccAcc,16,19,Woman,Right,
49,7,1,1.9838605999998435,['c'],1,left,['3'],4,0.25029910000012023,0.2,0,AccAcc,16,19,Woman,Right,
50,7,1,1.2840143999997053,['c'],0,right,['3'],4,0.351724699999977,0.2,0,AccAcc,16,19,Woman,Right,
51,7,1,1.016410299999734,['c'],1,left,['3'],4,0.23591999999962354,0.2,0,AccAcc,16,19,Woman,Right,
52,7,1,1.8167809999999918,['c'],0,right,['3'],4,0.4349010000000817,0.4,0,AccAcc,16,19,Woman,Right,
53,7,1,2.283172299999933,['c'],1,left,['3'],4,0.285011299999951,0.2,0,AccAcc,16,19,Woman,Right,
54,7,1,1.1504687999999987,['c'],0,right,['3'],4,0.21804560000009587,0.4,0,AccAcc,16,19,Woman,Right,
55,7,1,1.9836600999997245,['c'],0,right,['2'],5,0.3348790000000008,0.4,0,AccAcc,16,19,Woman,Right,
56,7,1,2.8998483000000306,['c'],0,right,['2'],5,0.23469729999987976,0.2,0,AccAcc,16,19,Woman,Right,
57,7,1,0.9170161000001826,['c'],1,left,['2'],5,0.684501299999738,0.2,0,AccAcc,16,19,Woman,Right,
58,7,1,1.6664725999999064,['c'],1,left,['2'],5,0.2690583000003244,0.1,0,AccAcc,16,19,Woman,Right,
59,7,1,1.684458999999606,['c'],0,right,['2'],5,0.30166529999996783,0.1,0,AccAcc,16,19,Woman,Right,
0,8,1,0.8346398999997291,['c'],1,left,['2'],5,1.0352630000002137,0.2,0,FastAcc,16,19,Woman,Right,
1,8,1,1.4178035999998428,['c'],0,right,['2'],5,0.6351465999996435,0.1,0,FastAcc,16,19,Woman,Right,
2,8,1,1.6168047000001025,['n'],1,right,['3'],4,0.9181406000002426,0.2,0,FastAcc,16,19,Woman,Right,
3,8,1,0.9506460000002335,['c'],0,right,['2'],5,0.501349200000277,0.1,0,FastAcc,16,19,Woman,Right,
4,8,1,1.1335080999997444,['c'],0,right,['3'],4,0.734791899999891,0.2,0,FastAcc,16,19,Woman,Right,
5,8,1,0.7844866999998885,['c'],1,left,['1'],6,0.6681739000000562,0.4,0,FastAcc,16,19,Woman,Right,
6,8,1,1.5336488000002646,['c'],1,left,['1'],6,0.3013786000001346,0.2,0,FastAcc,16,19,Woman,Right,
7,8,1,1.100069899999653,['c'],1,left,['2'],5,0.28516709999985324,0.4,0,FastAcc,16,19,Woman,Right,
8,8,1,0.6996721000000434,['n'],0,left,['2'],5,0.35205949999999575,0.2,0,FastAcc,16,19,Woman,Right,
9,8,1,1.6674582999999075,['n'],1,right,['3'],4,0.33472040000015113,0.2,0,FastAcc,16,19,Woman,Right,
10,8,1,1.2340979999999035,['n'],1,right,['3'],4,0.6506868000001305,0.4,0,FastAcc,16,19,Woman,Right,
11,8,1,0.7508077000002231,['n'],1,right,['3'],4,0.3180284000000029,0.4,0,FastAcc,16,19,Woman,Right,
12,8,1,1.1170539999998255,['c'],0,right,['2'],5,0.6512947999999597,0.1,0,FastAcc,16,19,Woman,Right,
13,8,1,2.484898499999872,['c'],0,right,['3'],4,0.6504989000000023,0.2,0,FastAcc,16,19,Woman,Right,
14,8,1,1.2836739999997917,['c'],1,left,['3'],4,0.4845621999998002,0.1,0,FastAcc,16,19,Woman,Right,
15,8,1,0.8003999999996267,['c'],1,left,['1'],6,0.4514675000000352,0.4,0,FastAcc,16,19,Woman,Right,
16,8,1,1.63382109999975,['n'],1,right,['2'],5,0.5846024000002217,0.4,0,FastAcc,16,19,Woman,Right,
17,8,1,1.2505427999999483,['c'],1,left,['3'],4,0.8682032000001527,0.4,0,FastAcc,16,19,Woman,Right,
18,8,1,2.083268300000327,['c'],1,left,['2'],5,0.9668257999996968,0.4,0,FastAcc,16,19,Woman,Right,
19,8,1,0.9673294000003807,['c'],0,right,['8'],3,1.36828770000011,0.2,0,FastAcc,16,19,Woman,Right,
20,8,1,2.0665013000002546,['c'],1,left,['8'],3,1.6175100999998904,0.1,0,FastAcc,16,19,Woman,Right,
21,8,1,1.7168937999999798,['n'],1,right,['2'],5,1.0013871000001018,0.1,0,FastAcc,16,19,Woman,Right,
22,8,1,1.2995637999997598,['c'],0,right,['3'],4,1.435559199999716,0.1,0,FastAcc,16,19,Woman,Right,
23,8,1,2.3330095000001165,['n'],1,right,['3'],4,1.4681354999997893,0.1,0,FastAcc,16,19,Woman,Right,
24,8,1,1.1338122000001931,['c'],0,right,['1'],6,0.5847669999998288,0.2,0,FastAcc,16,19,Woman,Right,
25,8,1,3.2148722000001726,['c'],0,right,['2'],5,0.8506993999999395,0.1,0,FastAcc,16,19,Woman,Right,
26,8,1,1.0665275999999722,['c'],0,right,['2'],5,0.8858777999998892,0.1,0,FastAcc,16,19,Woman,Right,
27,8,1,0.9347902999998041,['c'],1,left,['1'],6,0.48501600000008693,0.4,0,FastAcc,16,19,Woman,Right,
28,8,1,1.5670584999998027,['c'],1,left,['1'],6,0.3680080999997699,0.1,0,FastAcc,16,19,Woman,Right,
29,8,1,1.367051900000206,['n'],1,right,['2'],5,0.5514834000000519,0.2,0,FastAcc,16,19,Woman,Right,
30,8,1,1.2493318000001636,['c'],1,left,['3'],4,0.35226860000011584,0.1,0,FastAcc,16,19,Woman,Right,
31,8,1,0.8345181999998204,['c'],1,left,['1'],6,0.4186029999996208,0.4,0,FastAcc,16,19,Woman,Right,
32,8,1,2.1509459000003517,['c'],1,left,['3'],4,0.7513615000002574,0.1,0,FastAcc,16,19,Woman,Right,
33,8,1,1.1002674000001207,['n'],1,right,['3'],4,0.4179503999998815,0.2,0,FastAcc,16,19,Woman,Right,
34,8,1,2.6491282000001775,['n'],1,right,['2'],5,0.6854690000000119,0.2,0,FastAcc,16,19,Woman,Right,
35,8,1,0.9819682999996076,['c'],0,right,['3'],4,1.8188735999997334,0.1,0,FastAcc,16,19,Woman,Right,
36,8,1,1.100204699999722,['c'],1,left,['3'],4,0.5346865999999864,0.4,0,FastAcc,16,19,Woman,Right,
37,8,1,1.2338685999998233,['c'],1,left,['2'],5,0.8515290999998797,0.4,0,FastAcc,16,19,Woman,Right,
38,8,1,1.5824334999997518,['n'],1,right,['3'],4,0.4521561000001384,0.2,0,FastAcc,16,19,Woman,Right,
39,8,1,1.0008736999998291,['c'],1,left,['2'],5,0.43519510000032824,0.4,0,FastAcc,16,19,Woman,Right,
40,8,1,1.33269029999974,['c'],1,left,['1'],6,0.4014689999999064,0.4,0,FastAcc,16,19,Woman,Right,
41,8,1,1.1326884000000064,['c'],1,left,['2'],5,0.31828900000027716,0.4,0,FastAcc,16,19,Woman,Right,
42,8,1,1.4319138999999268,['c'],1,left,['2'],5,0.38594540000030975,0.1,0,FastAcc,16,19,Woman,Right,
43,8,1,1.0014172999999573,['c'],1,left,['2'],5,0.43431280000004335,0.4,0,FastAcc,16,19,Woman,Right,
44,8,1,1.3008573000001888,['c'],0,right,['2'],5,0.33483109999997396,0.2,0,FastAcc,16,19,Woman,Right,
45,8,1,0.8480675000000701,['c'],1,left,['2'],5,0.30099710000013147,0.1,0,FastAcc,16,19,Woman,Right,
46,8,1,1.0854294000000664,['c'],0,right,['2'],5,0.5161175999996885,0.2,0,FastAcc,16,19,Woman,Right,
47,8,1,1.1026397999999062,['c'],1,left,['2'],5,0.48487410000007003,0.2,0,FastAcc,16,19,Woman,Right,
48,8,1,2.915812100000039,['c'],1,left,['2'],5,0.41841599999997925,0.1,0,FastAcc,16,19,Woman,Right,
49,8,1,1.0167114000000765,['c'],0,right,['3'],4,0.41810979999991105,0.4,0,FastAcc,16,19,Woman,Right,
50,8,1,2.3501977000000807,['c'],1,left,['3'],4,0.6341314999999668,0.1,0,FastAcc,16,19,Woman,Right,
51,8,1,0.9666505000000143,['n'],1,right,['1'],6,0.5682141000002048,0.2,0,FastAcc,16,19,Woman,Right,
52,8,1,1.5832854000000225,['n'],1,right,['2'],5,0.3848751999998967,0.2,0,FastAcc,16,19,Woman,Right,
53,8,1,1.3151402999997117,['c'],1,left,['3'],4,0.4168109999995977,0.2,0,FastAcc,16,19,Woman,Right,
54,8,1,0.9859046999999919,['c'],1,left,['2'],5,0.40030109999997876,0.1,0,FastAcc,16,19,Woman,Right,
55,8,1,0.8833595000000969,['n'],1,right,['2'],5,0.3847318000002815,0.4,0,FastAcc,16,19,Woman,Right,
56,8,1,1.433234199999788,['n'],0,left,['2'],5,0.4174305000001368,0.1,0,FastAcc,16,19,Woman,Right,
57,8,1,1.7662943000000269,['n'],1,right,['2'],5,0.38501620000033654,0.2,0,FastAcc,16,19,Woman,Right,
58,8,1,0.8166928999999072,['n'],1,right,['2'],5,0.5497690000001967,0.4,0,FastAcc,16,19,Woman,Right,
59,8,1,0.9339547999998103,['c'],1,left,['1'],6,0.6848557999996956,0.4,0,FastAcc,16,19,Woman,Right,
0,9,1,1.184741699999904,['c'],0,right,['3'],4,0.38371349999988524,0.4,0,FastFast,16,19,Woman,Right,
1,9,1,1.0171541999998226,['c'],0,right,['2'],5,0.23463989999982005,0.2,0,FastFast,16,19,Woman,Right,
2,9,1,0.7669936000002053,['c'],1,left,['2'],5,0.2675242000000253,0.2,0,FastFast,16,19,Woman,Right,
3,9,1,0.7339828000003763,['c'],1,left,['2'],5,0.41805340000018987,0.4,0,FastFast,16,19,Woman,Right,
4,9,1,2.0004382000001897,['c'],1,left,['2'],5,0.23470139999972162,0.2,0,FastFast,16,19,Woman,Right,
5,9,1,0.6339394000001448,['n'],1,right,['2'],5,0.23415589999967779,0.2,0,FastFast,16,19,Woman,Right,
6,9,1,0.6838293999999223,['c'],1,left,['2'],5,0.1842282000002342,0.4,0,FastFast,16,19,Woman,Right,
7,9,1,0.8169044000001122,['n'],0,left,['3'],4,0.301331300000129,0.4,0,FastFast,16,19,Woman,Right,
8,9,1,1.0996672999999646,['n'],0,left,['3'],4,0.3015474999997423,0.2,0,FastFast,16,19,Woman,Right,
9,9,1,1.1505486000000928,['n'],0,left,['3'],4,0.2181970999999976,0.1,0,FastFast,16,19,Woman,Right,
10,9,1,0.7677545000001373,['c'],1,left,['3'],4,0.1659842999997636,0.4,0,FastFast,16,19,Woman,Right,
11,9,1,0.9162159000002248,['c'],0,right,['2'],5,0.15284039999960441,0.1,0,FastFast,16,19,Woman,Right,
12,9,1,1.1831038999998782,['c'],0,right,['2'],5,0.2016553000003114,0.2,0,FastFast,16,19,Woman,Right,
13,9,1,1.0169498999998723,['n'],0,left,['3'],4,0.20230620000029376,0.4,0,FastFast,16,19,Woman,Right,
14,9,1,1.4499943000000712,['n'],0,left,['3'],4,0.33569390000002386,0.4,0,FastFast,16,19,Woman,Right,
15,9,1,1.0163244000000304,['c'],0,right,['3'],4,0.21894389999988562,0.1,0,FastFast,16,19,Woman,Right,
16,9,1,1.2655181000000084,['c'],1,left,['1'],6,0.8360121000000618,0.4,0,FastFast,16,19,Woman,Right,
17,9,1,1.3664335999997093,['c'],0,right,['1'],6,0.1840618999999606,0.2,0,FastFast,16,19,Woman,Right,
18,9,1,1.0339404999999715,['n'],1,right,['2'],5,0.2514325000001918,0.2,0,FastFast,16,19,Woman,Right,
19,9,1,1.1501583000003848,['c'],1,left,['3'],4,0.2841326000002482,0.4,0,FastFast,16,19,Woman,Right,
20,9,1,1.1496587000001455,['c'],0,right,['3'],4,0.15228389999992942,0.1,0,FastFast,16,19,Woman,Right,
21,9,1,0.8506172000002152,['c'],0,right,['3'],4,0.18347170000015467,0.1,0,FastFast,16,19,Woman,Right,
22,9,1,0.9176021000002947,['c'],1,left,['3'],4,0.11736710000013773,0.2,0,FastFast,16,19,Woman,Right,
23,9,1,0.6835164000003715,['n'],1,right,['3'],4,0.2835360999997647,0.1,0,FastFast,16,19,Woman,Right,
24,9,1,0.7838478999997278,['c'],1,left,['3'],4,0.18464579999999842,0.4,0,FastFast,16,19,Woman,Right,
25,9,1,0.7332016000000294,['n'],1,right,['3'],4,0.2014063999999962,0.1,0,FastFast,16,19,Woman,Right,
26,9,1,0.7850085000000036,['c'],0,right,['2'],5,0.21831350000002203,0.1,0,FastFast,16,19,Woman,Right,
27,9,1,0.8504514999999628,['n'],1,right,['3'],4,0.2178419000001668,0.1,0,FastFast,16,19,Woman,Right,
28,9,1,0.8839462999999341,['c'],1,left,['2'],5,0.16819000000032247,0.4,0,FastFast,16,19,Woman,Right,
29,9,1,1.3334955000000264,['c'],0,right,['2'],5,0.2021204999996371,0.4,0,FastFast,16,19,Woman,Right,
30,9,1,1.0661595999999918,['c'],1,left,['2'],5,0.15256399999998393,0.2,0,FastFast,16,19,Woman,Right,
31,9,1,1.1503483999999844,['c'],0,right,['2'],5,0.1512348999999631,0.4,0,FastFast,16,19,Woman,Right,
32,9,1,0.8676339000003281,['c'],0,right,['2'],5,0.1680701999998746,0.2,0,FastFast,16,19,Woman,Right,
33,9,1,0.8004604999996445,['c'],0,right,['2'],5,0.1678644999997232,0.2,0,FastFast,16,19,Woman,Right,
34,9,1,0.6981291000001875,['c'],1,left,['2'],5,0.13517469999987952,0.4,0,FastFast,16,19,Woman,Right,
35,9,1,1.8678454999999303,['c'],1,left,['2'],5,0.1356802999998763,0.2,0,FastFast,16,19,Woman,Right,
36,9,1,0.6670728000003692,['n'],1,right,['2'],5,0.23492099999975835,0.4,0,FastFast,16,19,Woman,Right,
37,9,1,1.632372999999916,['n'],1,right,['2'],5,0.21886070000027757,0.2,0,FastFast,16,19,Woman,Right,
38,9,1,1.4171713999999156,['c'],0,right,['2'],5,0.16691609999998036,0.1,0,FastFast,16,19,Woman,Right,
39,9,1,0.7839879000002838,['c'],0,right,['2'],5,0.18387340000026597,0.2,0,FastFast,16,19,Woman,Right,
40,9,1,0.9999818000001142,['n'],1,right,['2'],5,0.21888439999975162,0.2,0,FastFast,16,19,Woman,Right,
41,9,1,0.7836892000000262,['c'],1,left,['2'],5,0.1513785000001917,0.2,0,FastFast,16,19,Woman,Right,
42,9,1,0.8507064000000355,['c'],1,left,['2'],5,0.26776669999981095,0.1,0,FastFast,16,19,Woman,Right,
43,9,1,0.683751100000336,['n'],0,left,['3'],4,0.250750600000174,0.1,0,FastFast,16,19,Woman,Right,
44,9,1,1.450501499999973,['n'],1,right,['3'],4,0.23495839999986856,0.2,0,FastFast,16,19,Woman,Right,
45,9,1,0.7670844999997826,['c'],1,left,['2'],5,0.20137720000002446,0.1,0,FastFast,16,19,Woman,Right,
46,9,1,0.7505081000003884,['c'],1,left,['2'],5,0.201505300000008,0.4,0,FastFast,16,19,Woman,Right,
47,9,1,2.0170281999999133,['c'],1,left,['3'],4,0.25139530000024024,0.2,0,FastFast,16,19,Woman,Right,
48,9,1,1.4332456000001912,['n'],1,right,['3'],4,0.30119329999979527,0.2,0,FastFast,16,19,Woman,Right,
49,9,1,0.7990816999999879,['c'],1,left,['3'],4,0.18560280000019702,0.4,0,FastFast,16,19,Woman,Right,
50,9,1,0.7994723000001613,['n'],1,right,['2'],5,0.26681589999998323,0.4,0,FastFast,16,19,Woman,Right,
51,9,1,1.7008387999999286,['n'],0,left,['2'],5,0.20149099999980535,0.1,0,FastFast,16,19,Woman,Right,
52,9,1,1.1160281000002215,['c'],0,right,['2'],5,0.16896919999999227,0.4,0,FastFast,16,19,Woman,Right,
53,9,1,1.2161679000000731,['c'],1,left,['2'],5,0.16799760000003516,0.1,0,FastFast,16,19,Woman,Right,
54,9,1,1.6669890000002852,['c'],0,right,['3'],4,0.15064940000002025,0.1,0,FastFast,16,19,Woman,Right,
55,9,1,1.5171558000001824,['n'],0,left,['3'],4,0.18452299999989918,0.1,0,FastFast,16,19,Woman,Right,
56,9,1,1.0159217000000353,['n'],1,right,['3'],4,0.20026929999994536,0.4,0,FastFast,16,19,Woman,Right,
57,9,1,1.1339787000001706,['n'],0,left,['3'],4,0.2028986000000259,0.1,0,FastFast,16,19,Woman,Right,
58,9,1,1.7171724999998332,['n'],0,left,['3'],4,0.2514651000001322,0.1,0,FastFast,16,19,Woman,Right,
59,9,1,1.2173926000000392,['n'],1,right,['3'],4,0.35117270000000644,0.1,0,FastFast,16,19,Woman,Right,
0,10,1,1.0687339000000975,['n'],1,right,['3'],4,0.7846878000000288,0.2,0,AccFast,16,19,Woman,Right,
1,10,1,1.0672388000002684,['c'],0,right,['3'],4,0.31808079999973415,0.1,0,AccFast,16,19,Woman,Right,
2,10,1,1.683400000000347,['c'],0,right,['3'],4,0.35014289999980974,0.2,0,AccFast,16,19,Woman,Right,
3,10,1,1.5655719000001227,['n'],1,right,['3'],4,0.2187951000000794,0.1,0,AccFast,16,19,Woman,Right,
4,10,1,0.883678300000156,['c'],1,left,['3'],4,0.5347940999999992,0.4,0,AccFast,16,19,Woman,Right,
5,10,1,1.65053510000007,['n'],1,right,['3'],4,0.717344900000171,0.1,0,AccFast,16,19,Woman,Right,
6,10,1,1.365070199999991,['n'],1,right,['3'],4,0.1855625999996846,0.1,0,AccFast,16,19,Woman,Right,
7,10,1,0.9157650000001922,['c'],1,left,['3'],4,0.21906140000010055,0.1,0,AccFast,16,19,Woman,Right,
8,10,1,1.400741399999788,['n'],1,right,['3'],4,0.23443529999985913,0.2,0,AccFast,16,19,Woman,Right,
9,10,1,0.8837800999999672,['c'],1,left,['3'],4,0.1513201999996454,0.4,0,AccFast,16,19,Woman,Right,
10,10,1,1.0495302999997875,['n'],1,right,['3'],4,0.2022333999998409,0.1,0,AccFast,16,19,Woman,Right,
11,10,1,0.8817085999999108,['c'],1,left,['2'],5,0.7349178000004031,0.2,0,AccFast,16,19,Woman,Right,
12,10,1,2.067062000000078,['n'],1,right,['3'],4,0.3347356999997828,0.2,0,AccFast,16,19,Woman,Right,
13,10,1,0.8837450999999419,['c'],1,left,['3'],4,0.46793220000017755,0.2,0,AccFast,16,19,Woman,Right,
14,10,1,0.9976478000003226,['n'],1,right,['3'],4,0.450801699999829,0.2,0,AccFast,16,19,Woman,Right,
15,10,1,0.8849252999998498,['n'],1,right,['2'],5,0.4848160999999891,0.1,0,AccFast,16,19,Woman,Right,
16,10,1,0.8170084999997016,['c'],1,left,['3'],4,0.2848254000000452,0.4,0,AccFast,16,19,Woman,Right,
17,10,1,0.816048299999693,['n'],1,right,['3'],4,0.5674124999995911,0.1,0,AccFast,16,19,Woman,Right,
18,10,1,1.5334132999996655,['c'],0,right,['2'],5,0.4510750999997981,0.1,0,AccFast,16,19,Woman,Right,
19,10,1,0.8679621000001134,['n'],1,right,['3'],4,0.23472170000013648,0.4,0,AccFast,16,19,Woman,Right,
20,10,1,2.1175395999998727,['c'],1,left,['3'],4,0.2681195000000116,0.2,0,AccFast,16,19,Woman,Right,
21,10,1,1.3341098999999303,['c'],1,left,['2'],5,0.33495110000012573,0.4,0,AccFast,16,19,Woman,Right,
22,10,1,4.217427199999747,['c'],1,left,['2'],5,0.5678782999998475,0.2,0,AccFast,16,19,Woman,Right,
23,10,1,0.7837350999998307,['n'],1,right,['2'],5,0.684840400000212,0.4,0,AccFast,16,19,Woman,Right,
24,10,1,0.9335614999999962,['n'],0,left,['2'],5,0.651119799999833,0.1,0,AccFast,16,19,Woman,Right,
25,10,1,1.2838076999996701,['n'],0,left,['3'],4,0.7181163000000197,0.1,0,AccFast,16,19,Woman,Right,
26,10,1,0.717212400000335,['n'],1,right,['3'],4,0.20135720000007495,0.4,0,AccFast,16,19,Woman,Right,
27,10,1,1.2997998999999254,['n'],0,left,['2'],5,0.4346594000003279,0.1,0,AccFast,16,19,Woman,Right,
28,10,1,1.0170941000001221,['c'],0,right,['2'],5,0.18470690000003742,0.4,0,AccFast,16,19,Woman,Right,
29,10,1,1.2171586000004027,['c'],1,left,['3'],4,0.4169907000000421,0.4,0,AccFast,16,19,Woman,Right,
30,10,1,1.1678933999996843,['c'],0,right,['3'],4,0.26808889999983876,0.4,0,AccFast,16,19,Woman,Right,
31,10,1,0.8500024999998459,['n'],1,right,['2'],5,0.4353915000001507,0.4,0,AccFast,16,19,Woman,Right,
32,10,1,2.3838160999998763,['c'],1,left,['3'],4,3.1014592999999877,0.1,0,AccFast,16,19,Woman,Right,
33,10,1,1.4005867000000762,['n'],0,left,['8'],3,0.8347574000003988,0.2,0,AccFast,16,19,Woman,Right,
34,10,1,0.7839601999999104,['c'],1,left,['8'],3,0.5678113000003577,0.2,0,AccFast,16,19,Woman,Right,
35,10,1,1.3820693000002393,['n'],1,right,['3'],4,0.5195880000001125,0.1,0,AccFast,16,19,Woman,Right,
36,10,1,1.333598599999732,['n'],0,left,['8'],3,0.4176720000000387,0.2,0,AccFast,16,19,Woman,Right,
37,10,1,2.268134100000225,['c'],1,left,['3'],4,0.5023783000001458,0.1,0,AccFast,16,19,Woman,Right,
38,10,1,1.0839903000000959,['c'],1,left,['3'],4,0.3349204000001009,0.4,0,AccFast,16,19,Woman,Right,
39,10,1,1.3655186000000867,['c'],1,left,['3'],4,0.5009932000002664,0.4,0,AccFast,16,19,Woman,Right,
40,10,1,1.2335450000000492,['c'],1,left,['8'],3,1.4007526000000325,0.2,0,AccFast,16,19,Woman,Right,
41,10,1,1.7346959999999854,['c'],1,left,['8'],3,0.35113760000012917,0.1,0,AccFast,16,19,Woman,Right,
42,10,1,1.8492668000003505,['n'],0,left,['3'],4,0.3189268000000993,0.1,0,AccFast,16,19,Woman,Right,
43,10,1,0.9673563000001195,['n'],1,right,['3'],4,0.21690869999974893,0.4,0,AccFast,16,19,Woman,Right,
44,10,1,0.7356111999997665,['n'],1,right,['1'],6,0.49922179999975924,0.4,0,AccFast,16,19,Woman,Right,
45,10,1,2.001760000000104,['c'],0,right,['3'],4,0.4680255000002944,0.4,0,AccFast,16,19,Woman,Right,
46,10,1,1.900416899999982,['n'],1,right,['3'],4,0.4180775999998332,0.2,0,AccFast,16,19,Woman,Right,
47,10,1,0.9501046999998835,['c'],1,left,['1'],6,0.5010081999998874,0.4,0,AccFast,16,19,Woman,Right,
48,10,1,1.2682301999998344,['c'],1,left,['2'],5,0.26695810000001075,0.1,0,AccFast,16,19,Woman,Right,
49,10,1,1.851006000000325,['n'],1,right,['3'],4,0.433447200000046,0.2,0,AccFast,16,19,Woman,Right,
50,10,1,1.2505588999997599,['n'],1,right,['3'],4,0.3825385999998616,0.4,0,AccFast,16,19,Woman,Right,
51,10,1,1.0185826000001725,['n'],0,left,['3'],4,0.5347560000000158,0.2,0,AccFast,16,19,Woman,Right,
52,10,1,1.3655117999996946,['n'],1,right,['3'],4,0.8840187999999216,0.1,0,AccFast,16,19,Woman,Right,
53,10,1,1.1186587000001964,['n'],1,right,['3'],4,0.7678012000001218,0.2,0,AccFast,16,19,Woman,Right,
54,10,1,1.416917100000319,['n'],0,left,['3'],4,0.4012900000002446,0.2,0,AccFast,16,19,Woman,Right,
55,10,1,1.1149811000000227,['n'],0,left,['3'],4,2.535750900000039,0.2,0,AccFast,16,19,Woman,Right,
56,10,1,1.5341890999998213,['c'],0,right,['3'],4,0.4182442000001174,0.1,0,AccFast,16,19,Woman,Right,
57,10,1,2.6342693999999938,['n'],1,right,['3'],4,0.901495199999772,0.4,0,AccFast,16,19,Woman,Right,
58,10,1,1.8342851999996128,['n'],0,left,['3'],4,0.2510376999998698,0.2,0,AccFast,16,19,Woman,Right,
59,10,1,0.9501565000000483,['c'],1,left,['2'],5,0.601165999999921,0.4,0,AccFast,16,19,Woman,Right,
0,11,1,1.166773600000397,['c'],0,right,['3'],4,0.9353547000000617,0.2,0,AccAcc,16,19,Woman,Right,
1,11,1,1.367679799999678,['c'],1,left,['8'],3,1.5680121999998846,0.4,0,AccAcc,16,19,Woman,Right,
2,11,1,2.04977689999987,['n'],1,right,['3'],4,0.6685407999998461,0.1,0,AccAcc,16,19,Woman,Right,
3,11,1,1.8678577999999106,['n'],1,right,['2'],5,0.33478680000007444,0.1,0,AccAcc,16,19,Woman,Right,
4,11,1,2.067869499999688,['n'],0,left,['2'],5,0.5014181999999892,0.2,0,AccAcc,16,19,Woman,Right,
5,11,1,1.4335659999997006,['n'],0,left,['2'],5,0.41804780000029496,0.2,0,AccAcc,16,19,Woman,Right,
6,11,1,1.700503900000058,['c'],1,left,['2'],5,1.1676839000001564,0.1,0,AccAcc,16,19,Woman,Right,
7,11,1,1.13319249999995,['c'],1,left,['3'],4,0.5847787000002427,0.4,0,AccAcc,16,19,Woman,Right,
8,11,1,0.8501811999999518,['c'],1,left,['2'],5,0.3500176999996256,0.2,0,AccAcc,16,19,Woman,Right,
9,11,1,1.1670095999998011,['c'],0,right,['2'],5,0.3672537000002194,0.2,0,AccAcc,16,19,Woman,Right,
10,11,1,1.0500698999999258,['c'],1,left,['3'],4,0.7345185999997739,0.1,0,AccAcc,16,19,Woman,Right,
11,11,1,2.182491300000038,['c'],0,right,['3'],4,0.45218919999979335,0.2,0,AccAcc,16,19,Woman,Right,
12,11,1,1.2681578000001537,['c'],1,left,['3'],4,0.26795940000010887,0.2,0,AccAcc,16,19,Woman,Right,
13,11,1,1.667526799999905,['c'],1,left,['3'],4,0.25040599999965707,0.1,0,AccAcc,16,19,Woman,Right,
14,11,1,3.3510095000001456,['c'],0,right,['8'],3,0.33503129999962766,0.1,0,AccAcc,16,19,Woman,Right,
15,11,1,1.7171614000003501,['n'],1,right,['3'],4,0.5846430000001419,0.2,0,AccAcc,16,19,Woman,Right,
16,11,1,1.183010899999772,['n'],0,left,['8'],3,0.4010686000001442,0.1,0,AccAcc,16,19,Woman,Right,
17,11,1,2.634454999999889,['n'],0,left,['8'],3,0.6349873999997726,0.1,0,AccAcc,16,19,Woman,Right,
18,11,1,3.599767800000336,['n'],0,left,['3'],4,0.9014231999999538,0.2,0,AccAcc,16,19,Woman,Right,
19,11,1,0.9485408999998981,['c'],1,left,['2'],5,0.45161780000034923,0.2,0,AccAcc,16,19,Woman,Right,
20,11,1,1.0184684999999263,['n'],1,right,['3'],4,0.41676749999987805,0.1,0,AccAcc,16,19,Woman,Right,
21,11,1,1.5675654000001487,['c'],1,left,['3'],4,0.3165609999996377,0.4,0,AccAcc,16,19,Woman,Right,
22,11,1,1.5005396999999903,['c'],0,right,['3'],4,0.38561639999988984,0.4,0,AccAcc,16,19,Woman,Right,
23,11,1,1.2003514000002724,['c'],0,right,['3'],4,0.20139639999979408,0.2,0,AccAcc,16,19,Woman,Right,
24,11,1,0.9503032999996321,['c'],1,left,['3'],4,0.24988780000012412,0.2,0,AccAcc,16,19,Woman,Right,
25,11,1,1.2012300000001233,['c'],0,right,['3'],4,0.4019882000002326,0.4,0,AccAcc,16,19,Woman,Right,
26,11,1,1.3508913999999095,['c'],0,right,['3'],4,0.15154690000008486,0.4,0,AccAcc,16,19,Woman,Right,
27,11,1,1.3169849000000795,['c'],1,left,['3'],4,0.18502779999971608,0.4,0,AccAcc,16,19,Woman,Right,
28,11,1,1.4675084999998944,['c'],0,right,['3'],4,0.11811289999968722,0.2,0,AccAcc,16,19,Woman,Right,
29,11,1,1.1823704999997062,['c'],0,right,['3'],4,0.21727640000017345,0.1,0,AccAcc,16,19,Woman,Right,
30,11,1,1.0159825000000637,['c'],1,left,['3'],4,0.2192272999996021,0.4,0,AccAcc,16,19,Woman,Right,
31,11,1,1.5005838000001859,['c'],0,right,['3'],4,0.21810340000001815,0.4,0,AccAcc,16,19,Woman,Right,
32,11,1,1.184454000000187,['c'],0,right,['3'],4,0.20046370000000024,0.4,0,AccAcc,16,19,Woman,Right,
33,11,1,2.2483728999995947,['c'],1,left,['3'],4,1.3176953000001959,0.1,0,AccAcc,16,19,Woman,Right,
34,11,1,3.4316670000002887,['c'],1,left,['3'],4,0.6852736000000732,0.1,0,AccAcc,16,19,Woman,Right,
35,11,1,3.0002411000000393,['c'],1,left,['3'],4,0.49968379999972967,0.2,0,AccAcc,16,19,Woman,Right,
36,11,1,3.5161708999999064,['n'],0,left,['8'],3,0.8508759000001191,0.2,0,AccAcc,16,19,Woman,Right,
37,11,1,1.7841082999998434,['n'],1,right,['8'],3,0.7012996000003113,0.1,0,AccAcc,16,19,Woman,Right,
38,11,1,1.5016642999999021,['n'],1,right,['8'],3,0.6839101999999002,0.1,0,AccAcc,16,19,Woman,Right,
39,11,1,1.6170575000001008,['n'],1,right,['3'],4,0.8012901000001875,0.1,0,AccAcc,16,19,Woman,Right,
40,11,1,1.933095300000332,['n'],1,right,['3'],4,0.8179642000000058,0.2,0,AccAcc,16,19,Woman,Right,
41,11,1,1.5171763000003011,['n'],0,left,['3'],4,0.45136909999973795,0.1,0,AccAcc,16,19,Woman,Right,
42,11,1,1.332367399999839,['n'],0,left,['3'],4,0.5517617999998947,0.2,0,AccAcc,16,19,Woman,Right,
43,11,1,1.0997851000001901,['n'],0,left,['3'],4,0.38400069999988773,0.4,0,AccAcc,16,19,Woman,Right,
44,11,1,1.200478799999928,['c'],1,left,['3'],4,0.2667919000000438,0.4,0,AccAcc,16,19,Woman,Right,
45,11,1,0.8355688000001464,['n'],1,right,['3'],4,0.6164884999998321,0.4,0,AccAcc,16,19,Woman,Right,
46,11,1,1.532951199999843,['n'],1,right,['2'],5,0.5182376000002478,0.2,0,AccAcc,16,19,Woman,Right,
47,11,1,1.9995975000001636,['c'],0,right,['3'],4,0.784918899999866,0.1,0,AccAcc,16,19,Woman,Right,
48,11,1,1.0175414999998793,['n'],1,right,['2'],5,0.7680009000000609,0.4,0,AccAcc,16,19,Woman,Right,
49,11,1,2.8666991000000053,['c'],1,left,['2'],5,0.7014475000000857,0.4,0,AccAcc,16,19,Woman,Right,
50,11,1,1.5172732000000906,['n'],1,right,['3'],4,1.0847348000002057,0.2,0,AccAcc,16,19,Woman,Right,
51,11,1,1.634141400000317,['n'],1,right,['2'],5,0.6679281000001538,0.1,0,AccAcc,16,19,Woman,Right,
52,11,1,1.4171071000000666,['c'],0,right,['3'],4,0.46809899999971094,0.1,0,AccAcc,16,19,Woman,Right,
53,11,1,1.6833153000002312,['c'],1,left,['3'],4,0.6847850999997718,0.4,0,AccAcc,16,19,Woman,Right,
54,11,1,1.9335424999999304,['c'],0,right,['3'],4,0.58262459999969,0.1,0,AccAcc,16,19,Woman,Right,
55,11,1,1.3669234000003598,['c'],0,right,['3'],4,0.5492786999998316,0.4,0,AccAcc,16,19,Woman,Right,
56,11,1,2.052155599999878,['c'],1,left,['3'],4,0.6846643999997468,0.4,0,AccAcc,16,19,Woman,Right,
57,11,1,0.8505323999997927,['c'],1,left,['2'],5,0.45105569999986983,0.2,0,AccAcc,16,19,Woman,Right,
58,11,1,0.8345980999997664,['c'],1,left,['3'],4,0.40183010000009745,0.4,0,AccAcc,16,19,Woman,Right,
59,11,1,2.650671400000192,['n'],1,right,['3'],4,0.5514032000000952,0.4,0,AccAcc,16,19,Woman,Right,
0,12,1,0.6346293000001424,['c'],1,left,['3'],4,1.3679127999998855,0.2,0,FastAcc,16,19,Woman,Right,
1,12,1,1.3171839999999975,['c'],1,left,['3'],4,0.851492099999632,0.1,0,FastAcc,16,19,Woman,Right,
2,12,1,1.1832727000000887,['c'],1,left,['8'],3,0.6178509000001213,0.1,0,FastAcc,16,19,Woman,Right,
3,12,1,0.9498005000000376,['c'],1,left,['9'],2,0.46803859999999986,0.1,0,FastAcc,16,19,Woman,Right,
4,12,1,1.5837001999998392,['c'],0,right,['3'],4,0.38486739999962083,0.4,0,FastAcc,16,19,Woman,Right,
5,12,1,1.4337557999997443,['c'],0,right,['3'],4,0.5348079999998845,0.2,0,FastAcc,16,19,Woman,Right,
6,12,1,0.9672528999999486,['c'],0,right,['3'],4,0.567931900000076,0.1,0,FastAcc,16,19,Woman,Right,
7,12,1,2.183235500000137,['n'],1,right,['8'],3,0.6004762999996274,0.2,0,FastAcc,16,19,Woman,Right,
8,12,1,1.0676190999997743,['c'],1,left,['3'],4,0.41809710000006817,0.1,0,FastAcc,16,19,Woman,Right,
9,12,1,1.5672554999996464,['c'],1,left,['3'],4,1.0013229999999567,0.4,0,FastAcc,16,19,Woman,Right,
10,12,1,1.132941899999878,['n'],1,right,['8'],3,0.6346806000001379,0.2,0,FastAcc,16,19,Woman,Right,
11,12,1,1.2837502000002132,['n'],0,left,['9'],2,0.301381499999934,0.2,0,FastAcc,16,19,Woman,Right,
12,12,1,0.8837290000001303,['c'],0,right,['9'],2,0.6844593999999233,0.2,0,FastAcc,16,19,Woman,Right,
13,12,1,1.000572199999624,['c'],1,left,['3'],4,0.3849493999996412,0.4,0,FastAcc,16,19,Woman,Right,
14,12,1,1.5156560999998874,['n'],1,right,['8'],3,0.6011046999997234,0.2,0,FastAcc,16,19,Woman,Right,
15,12,1,1.5340750999998818,['n'],0,left,['3'],4,0.46830150000005233,0.2,0,FastAcc,16,19,Woman,Right,
16,12,1,1.1495130999996945,['c'],1,left,['3'],4,0.3680567000001247,0.4,0,FastAcc,16,19,Woman,Right,
17,12,1,1.283435499999996,['c'],1,left,['3'],4,0.5173149000002013,0.1,0,FastAcc,16,19,Woman,Right,
18,12,1,0.8515382999999019,['c'],1,left,['3'],4,0.3681013999998868,0.4,0,FastAcc,16,19,Woman,Right,
19,12,1,1.2002861000000848,['c'],0,right,['3'],4,0.35132470000007743,0.4,0,FastAcc,16,19,Woman,Right,
20,12,1,0.9004938000002767,['n'],1,right,['8'],3,0.4512766000002557,0.4,0,FastAcc,16,19,Woman,Right,
21,12,1,0.9013565000000199,['c'],1,left,['3'],4,0.31820890000017243,0.1,0,FastAcc,16,19,Woman,Right,
22,12,1,2.066953999999896,['n'],1,right,['3'],4,0.5680170000000544,0.4,0,FastAcc,16,19,Woman,Right,
23,12,1,1.0324939000001905,['c'],0,right,['3'],4,0.2523148999998739,0.1,0,FastAcc,16,19,Woman,Right,
24,12,1,2.150421099999676,['n'],0,left,['3'],4,1.367993899999874,0.1,0,FastAcc,16,19,Woman,Right,
25,12,1,1.232959700000265,['n'],0,left,['3'],4,1.1681513000003179,0.2,0,FastAcc,16,19,Woman,Right,
26,12,1,0.9341997999999876,['c'],1,left,['3'],4,0.23396999999977197,0.4,0,FastAcc,16,19,Woman,Right,
27,12,1,1.4815207999999984,['n'],0,left,['3'],4,0.6860671999997976,0.1,0,FastAcc,16,19,Woman,Right,
28,12,1,1.9503572999997232,['n'],1,right,['3'],4,0.9019217000000026,0.1,0,FastAcc,16,19,Woman,Right,
29,12,1,1.4672153999999864,['n'],0,left,['3'],4,0.7514252999999371,0.2,0,FastAcc,16,19,Woman,Right,
30,12,1,2.1505119000003106,['c'],1,left,['3'],4,0.568300100000215,0.2,0,FastAcc,16,19,Woman,Right,
31,12,1,0.99975940000013,['n'],1,right,['3'],4,0.6513396999998804,0.2,0,FastAcc,16,19,Woman,Right,
32,12,1,1.1176110000001245,['c'],0,right,['3'],4,0.4336014000000432,0.2,0,FastAcc,16,19,Woman,Right,
33,12,1,1.5002101000000039,['c'],1,left,['3'],4,0.41808069999979125,0.2,0,FastAcc,16,19,Woman,Right,
34,12,1,1.5176495000000614,['c'],1,left,['8'],3,1.6178932000002533,0.1,0,FastAcc,16,19,Woman,Right,
35,12,1,1.3007139000001189,['c'],0,right,['9'],2,0.6348186999998688,0.2,0,FastAcc,16,19,Woman,Right,
36,12,1,0.817034700000022,['c'],0,right,['9'],2,0.451513900000009,0.1,0,FastAcc,16,19,Woman,Right,
37,12,1,1.2512510999999904,['c'],1,left,['3'],4,0.5679664000003868,0.4,0,FastAcc,16,19,Woman,Right,
38,12,1,1.6819496999996773,['c'],1,left,['2'],5,0.3688974000001508,0.1,0,FastAcc,16,19,Woman,Right,
39,12,1,1.2508520999999746,['n'],1,right,['0'],1,0.4013804999999593,0.4,0,FastAcc,16,19,Woman,Right,
40,12,1,1.1328926999999567,['c'],1,left,['3'],4,0.5013121000001775,0.1,0,FastAcc,16,19,Woman,Right,
41,12,1,1.4502646000000823,['c'],0,right,['8'],3,0.6181401000003461,0.4,0,FastAcc,16,19,Woman,Right,
42,12,1,1.0836363000003075,['n'],1,right,['3'],4,0.5669924000003448,0.4,0,FastAcc,16,19,Woman,Right,
43,12,1,0.9826570000000174,['c'],0,right,['3'],4,0.6852727000000414,0.1,0,FastAcc,16,19,Woman,Right,
44,12,1,0.9005753999999797,['c'],1,left,['2'],5,0.4680797999999413,0.4,0,FastAcc,16,19,Woman,Right,
45,12,1,1.0003292999999758,['c'],1,left,['2'],5,0.3511236999997891,0.4,0,FastAcc,16,19,Woman,Right,
46,12,1,1.382245199999943,['n'],1,right,['3'],4,0.5666949000001296,0.2,0,FastAcc,16,19,Woman,Right,
47,12,1,1.1014083000000028,['c'],0,right,['3'],4,0.6847246000002087,0.2,0,FastAcc,16,19,Woman,Right,
48,12,1,1.6005291999999827,['c'],0,right,['3'],4,0.4852542000003268,0.4,0,FastAcc,16,19,Woman,Right,
49,12,1,1.3673595000000205,['c'],0,right,['8'],3,0.2831045999996604,0.2,0,FastAcc,16,19,Woman,Right,
50,12,1,0.900088500000038,['c'],1,left,['0'],1,0.2838214000003063,0.1,0,FastAcc,16,19,Woman,Right,
51,12,1,0.7511666000000332,['n'],1,right,['0'],1,0.3180651999996371,0.4,0,FastAcc,16,19,Woman,Right,
52,12,1,0.9485538999997516,['n'],1,right,['8'],3,0.500907499999812,0.2,0,FastAcc,16,19,Woman,Right,
53,12,1,0.7522122000000309,['c'],1,left,['3'],4,0.2017012999999679,0.4,0,FastAcc,16,19,Woman,Right,
54,12,1,2.367423499999859,['c'],0,right,['2'],5,0.551438799999687,0.1,0,FastAcc,16,19,Woman,Right,
55,12,1,0.932832800000142,['c'],0,right,['2'],5,0.6022341000002598,0.1,0,FastAcc,16,19,Woman,Right,
56,12,1,0.9838349999999991,['n'],1,right,['1'],6,0.8677824999999757,0.4,0,FastAcc,16,19,Woman,Right,
57,12,1,0.9167396000002555,['c'],1,left,['1'],6,0.3844771999997647,0.2,0,FastAcc,16,19,Woman,Right,
58,12,1,1.4680817000003117,['n'],1,right,['9'],2,0.46776630000022124,0.1,0,FastAcc,16,19,Woman,Right,
59,12,1,2.949266600000101,['c'],1,left,['3'],4,0.6349492999997892,0.4,0,FastAcc,16,19,Woman,Right,
0,13,1,1.5510473999997885,['c'],1,left,['8'],3,0.43492639999976745,0.4,0,FastFast,16,19,Woman,Right,
1,13,1,0.9844623000003594,['c'],0,right,['3'],4,0.3180905000003804,0.2,0,FastFast,16,19,Woman,Right,
2,13,1,1.5497973000001366,['c'],0,right,['3'],4,0.33494670000027327,0.1,0,FastFast,16,19,Woman,Right,
3,13,1,0.6839658999997482,['c'],1,left,['3'],4,0.23479969999971217,0.4,0,FastFast,16,19,Woman,Right,
4,13,1,0.9329941999999392,['c'],1,left,['2'],5,0.18485789999976987,0.4,0,FastFast,16,19,Woman,Right,
5,13,1,0.6843665000001238,['n'],1,right,['2'],5,0.28469489999997677,0.2,0,FastFast,16,19,Woman,Right,
6,13,1,0.6332538999999997,['c'],1,left,['2'],5,0.18513359999997192,0.1,0,FastFast,16,19,Woman,Right,
7,13,1,0.4662988999998561,['n'],1,right,['9'],2,0.4348036999999749,0.1,0,FastFast,16,19,Woman,Right,
8,13,1,0.7670535999995991,['c'],1,left,['2'],5,0.18394249999983003,0.2,0,FastFast,16,19,Woman,Right,
9,13,1,1.0839696000002732,['c'],1,left,['2'],5,0.3846721999998408,0.1,0,FastFast,16,19,Woman,Right,
10,13,1,1.0491434999999,['c'],0,right,['2'],5,0.23488570000017717,0.1,0,FastFast,16,19,Woman,Right,
11,13,1,0.7329989999998361,['n'],1,right,['3'],4,0.6846626999999899,0.2,0,FastFast,16,19,Woman,Right,
12,13,1,1.0012557999998535,['c'],1,left,['2'],5,0.15147939999997106,0.1,0,FastFast,16,19,Woman,Right,
13,13,1,1.000989799999843,['c'],1,left,['2'],5,0.13508390000015424,0.4,0,FastFast,16,19,Woman,Right,
14,13,1,0.8174426000000494,['c'],1,left,['2'],5,0.1518527000002905,0.4,0,FastFast,16,19,Woman,Right,
15,13,1,0.9171837999997479,['c'],1,left,['1'],6,0.1666030999999748,0.2,0,FastFast,16,19,Woman,Right,
16,13,1,1.034767600000123,['n'],1,right,['9'],2,0.3181715999999142,0.2,0,FastFast,16,19,Woman,Right,
17,13,1,1.1838096999999834,['n'],1,right,['2'],5,0.20139270000026954,0.2,0,FastFast,16,19,Woman,Right,
18,13,1,1.149725899999794,['c'],0,right,['2'],5,0.1349420999999893,0.1,0,FastFast,16,19,Woman,Right,
19,13,1,0.9332466999999269,['c'],1,left,['9'],2,0.21880750000036642,0.2,0,FastFast,16,19,Woman,Right,
20,13,1,0.9690991000002214,['c'],0,right,['2'],5,0.30022879999978613,0.1,0,FastFast,16,19,Woman,Right,
21,13,1,1.1178583999999319,['n'],1,right,['3'],4,0.23472480000009455,0.4,0,FastFast,16,19,Woman,Right,
22,13,1,0.8343325000000732,['c'],0,right,['2'],5,0.20135350000009566,0.4,0,FastFast,16,19,Woman,Right,
23,13,1,0.8177174000002196,['c'],1,left,['2'],5,0.18483560000004218,0.1,0,FastFast,16,19,Woman,Right,
24,13,1,0.767373900000166,['c'],0,right,['2'],5,0.1677417000000787,0.1,0,FastFast,16,19,Woman,Right,
25,13,1,0.9507564000000457,['c'],0,right,['2'],5,0.25139660000013464,0.2,0,FastFast,16,19,Woman,Right,
26,13,1,0.8670686999998907,['c'],0,right,['2'],5,0.1862703000001602,0.1,0,FastFast,16,19,Woman,Right,
27,13,1,0.7173164999999244,['c'],1,left,['3'],4,0.28486489999977493,0.2,0,FastFast,16,19,Woman,Right,
28,13,1,0.850416000000223,['c'],0,right,['3'],4,0.16813850000016828,0.1,0,FastFast,16,19,Woman,Right,
29,13,1,0.7170347999999649,['c'],0,right,['3'],4,0.16857559999971272,0.1,0,FastFast,16,19,Woman,Right,
30,13,1,0.76714740000034,['c'],1,left,['3'],4,0.16609870000002047,0.2,0,FastFast,16,19,Woman,Right,
31,13,1,0.8014869000003273,['c'],0,right,['2'],5,0.16677580000032322,0.2,0,FastFast,16,19,Woman,Right,
32,13,1,0.8185192000000825,['c'],1,left,['2'],5,0.15169430000014472,0.4,0,FastFast,16,19,Woman,Right,
33,13,1,0.782701999999972,['c'],0,right,['2'],5,0.14994620000015857,0.2,0,FastFast,16,19,Woman,Right,
34,13,1,0.983766100000139,['c'],1,left,['2'],5,0.15007699999978286,0.1,0,FastFast,16,19,Woman,Right,
35,13,1,1.1346808999996938,['c'],0,right,['2'],5,0.1667501000001721,0.4,0,FastFast,16,19,Woman,Right,
36,13,1,0.9007673999999497,['c'],1,left,['2'],5,0.15185569999994186,0.4,0,FastFast,16,19,Woman,Right,
37,13,1,0.699272800000017,['c'],1,left,['2'],5,0.11908919999996215,0.4,0,FastFast,16,19,Woman,Right,
38,13,1,0.7673380000001089,['c'],1,left,['2'],5,0.16683340000008684,0.1,0,FastFast,16,19,Woman,Right,
39,13,1,0.7677803999999924,['c'],0,right,['8'],3,1.7163491000001159,0.4,0,FastFast,16,19,Woman,Right,
40,13,1,0.8685692000003655,['c'],1,left,['2'],5,0.15109130000018922,0.4,0,FastFast,16,19,Woman,Right,
41,13,1,0.8154778000002807,['c'],1,left,['3'],4,0.2175467000001845,0.4,0,FastFast,16,19,Woman,Right,
42,13,1,1.2349795999998605,['c'],1,left,['2'],5,0.1509281000003284,0.1,0,FastFast,16,19,Woman,Right,
43,13,1,1.1171830999996928,['c'],0,right,['2'],5,0.16734560000031706,0.1,0,FastFast,16,19,Woman,Right,
44,13,1,0.7834600999999566,['c'],1,left,['3'],4,0.2175720000000183,0.4,0,FastFast,16,19,Woman,Right,
45,13,1,0.8166167999997924,['n'],1,right,['2'],5,0.21705229999997755,0.2,0,FastFast,16,19,Woman,Right,
46,13,1,1.351738899999873,['n'],1,right,['9'],2,0.23486789999969915,0.2,0,FastFast,16,19,Woman,Right,
47,13,1,0.6494309999998222,['c'],1,left,['2'],5,0.15140019999989818,0.4,0,FastFast,16,19,Woman,Right,
48,13,1,0.8000400000000809,['c'],1,left,['2'],5,0.13487690000010844,0.4,0,FastFast,16,19,Woman,Right,
49,13,1,1.1845069000000876,['n'],0,left,['9'],2,0.28473329999997077,0.4,0,FastFast,16,19,Woman,Right,
50,13,1,0.8513020000000324,['c'],1,left,['2'],5,0.13511259999995673,0.2,0,FastFast,16,19,Woman,Right,
51,13,1,1.4826367999999093,['n'],1,right,['8'],3,0.8519782999997005,0.2,0,FastFast,16,19,Woman,Right,
52,13,1,1.150284400000146,['c'],0,right,['8'],3,0.15177619999985836,0.1,0,FastFast,16,19,Woman,Right,
53,13,1,1.0504574000001412,['c'],1,left,['2'],5,0.5846451000002162,0.2,0,FastFast,16,19,Woman,Right,
54,13,1,1.1837808000000223,['c'],0,right,['3'],4,0.11683119999997871,0.2,0,FastFast,16,19,Woman,Right,
55,13,1,0.9001662999999098,['n'],1,right,['3'],4,0.4183524000000034,0.4,0,FastFast,16,19,Woman,Right,
56,13,1,0.9667862000001151,['c'],0,right,['3'],4,0.15155060000006415,0.2,0,FastFast,16,19,Woman,Right,
57,13,1,1.1838814000002458,['n'],1,right,['3'],4,0.1843541000002915,0.1,0,FastFast,16,19,Woman,Right,
58,13,1,0.8178388000001178,['c'],1,left,['3'],4,0.18326110000043627,0.4,0,FastFast,16,19,Woman,Right,
59,13,1,0.9172530999999253,['n'],0,left,['3'],4,0.21789110000008804,0.1,0,FastFast,16,19,Woman,Right,
0,14,1,1.8508900000001631,['c'],1,left,['2'],5,1.3512526999998045,0.1,0,AccFast,16,19,Woman,Right,
1,14,1,1.1673009000001002,['c'],0,right,['3'],4,1.1513200999997935,0.2,0,AccFast,16,19,Woman,Right,
2,14,1,1.0337969000001976,['c'],0,right,['8'],3,0.26795929999980217,0.1,0,AccFast,16,19,Woman,Right,
3,14,1,0.7328690999997889,['c'],1,left,['2'],5,0.33485590000009324,0.4,0,AccFast,16,19,Woman,Right,
4,14,1,1.283976800000346,['c'],1,left,['8'],3,0.41803659999959564,0.1,0,AccFast,16,19,Woman,Right,
5,14,1,1.2838658999999097,['n'],1,right,['9'],2,0.7012189000001854,0.1,0,AccFast,16,19,Woman,Right,
6,14,1,0.8352532000003521,['c'],1,left,['1'],6,0.534813799999938,0.1,0,AccFast,16,19,Woman,Right,
7,14,1,0.7676562000001468,['c'],0,right,['3'],4,0.6507651000001715,0.4,0,AccFast,16,19,Woman,Right,
8,14,1,1.9000096999998277,['n'],1,right,['8'],3,1.0347555000003013,0.4,0,AccFast,16,19,Woman,Right,
9,14,1,1.6336952999999994,['n'],1,right,['3'],4,0.3014333000000988,0.1,0,AccFast,16,19,Woman,Right,
10,14,1,0.8170462999996744,['c'],1,left,['2'],5,0.3347720000001573,0.2,0,AccFast,16,19,Woman,Right,
11,14,1,1.3669087000002946,['n'],1,right,['3'],4,0.250780400000167,0.4,0,AccFast,16,19,Woman,Right,
12,14,1,1.600724899999932,['n'],0,left,['3'],4,1.8013428000003842,0.1,0,AccFast,16,19,Woman,Right,
13,14,1,0.6504386999999952,['n'],1,right,['3'],4,0.6679450999999972,0.2,0,AccFast,16,19,Woman,Right,
14,14,1,1.0000036999999793,['c'],1,left,['8'],3,0.40129690000003393,0.1,0,AccFast,16,19,Woman,Right,
15,14,1,0.9500735000001441,['n'],1,right,['3'],4,0.36817429999973683,0.4,0,AccFast,16,19,Woman,Right,
16,14,1,1.0664346999997179,['c'],1,left,['8'],3,0.5515212000000247,0.4,0,AccFast,16,19,Woman,Right,
17,14,1,0.8172184999998535,['c'],1,left,['2'],5,0.30120579999993424,0.4,0,AccFast,16,19,Woman,Right,
18,14,1,0.7824725000000399,['c'],1,left,['2'],5,0.2520257999999558,0.4,0,AccFast,16,19,Woman,Right,
19,14,1,0.7173462999999174,['c'],1,left,['2'],5,0.23483799999985422,0.4,0,AccFast,16,19,Woman,Right,
20,14,1,1.8492457000002105,['c'],0,right,['3'],4,0.36885620000020936,0.2,0,AccFast,16,19,Woman,Right,
21,14,1,0.8840632000001278,['c'],1,left,['3'],4,0.20163959999990766,0.1,0,AccFast,16,19,Woman,Right,
22,14,1,1.8004086000000825,['c'],0,right,['8'],3,0.3513757999999143,0.1,0,AccFast,16,19,Woman,Right,
23,14,1,2.65047579999964,['c'],1,left,['8'],3,0.4180169000001115,0.2,0,AccFast,16,19,Woman,Right,
24,14,1,1.4337955000000875,['n'],1,right,['2'],5,0.9347525999996833,0.4,0,AccFast,16,19,Woman,Right,
25,14,1,0.999404499999855,['c'],1,left,['3'],4,0.7837159000000611,0.4,0,AccFast,16,19,Woman,Right,
26,14,1,1.1324576000001798,['c'],0,right,['2'],5,0.5676594999999907,0.2,0,AccFast,16,19,Woman,Right,
27,14,1,1.0184712999998737,['c'],0,right,['2'],5,0.3016418000001977,0.2,0,AccFast,16,19,Woman,Right,
28,14,1,0.8840672000001177,['c'],1,left,['3'],4,0.4346990000003643,0.2,0,AccFast,16,19,Woman,Right,
29,14,1,1.2499394000001303,['n'],1,right,['3'],4,0.28416639999977633,0.2,0,AccFast,16,19,Woman,Right,
30,14,1,2.349478999999974,['n'],1,right,['9'],2,1.3002925999999206,0.1,0,AccFast,16,19,Woman,Right,
31,14,1,1.1343163999999888,['n'],0,left,['3'],4,0.36835329999985333,0.2,0,AccFast,16,19,Woman,Right,
32,14,1,1.282613300000321,['n'],0,left,['3'],4,0.31902119999995193,0.2,0,AccFast,16,19,Woman,Right,
33,14,1,1.767106799999965,['n'],0,left,['3'],4,0.5177717000001394,0.1,0,AccFast,16,19,Woman,Right,
34,14,1,1.2012567000001582,['n'],1,right,['2'],5,0.3682310000003781,0.2,0,AccFast,16,19,Woman,Right,
35,14,1,1.0831482999997206,['c'],0,right,['3'],4,0.25122169999986,0.4,0,AccFast,16,19,Woman,Right,
36,14,1,1.3172959000003175,['n'],1,right,['3'],4,0.3345103999999992,0.1,0,AccFast,16,19,Woman,Right,
37,14,1,1.0839670999998816,['n'],1,right,['3'],4,0.5180177999995976,0.1,0,AccFast,16,19,Woman,Right,
38,14,1,1.133639900000162,['n'],0,left,['9'],2,0.43382870000004914,0.4,0,AccFast,16,19,Woman,Right,
39,14,1,1.1176334000001589,['n'],1,right,['2'],5,0.350161300000309,0.2,0,AccFast,16,19,Woman,Right,
40,14,1,1.684678200000235,['n'],0,left,['3'],4,0.23336740000013378,0.1,0,AccFast,16,19,Woman,Right,
41,14,1,1.0016075000003184,['n'],1,right,['2'],5,0.5007000000000517,0.2,0,AccFast,16,19,Woman,Right,
42,14,1,0.9170678999998927,['c'],1,left,['3'],4,0.2848368999998456,0.2,0,AccFast,16,19,Woman,Right,
43,14,1,1.249793899999986,['c'],1,left,['3'],4,0.1684012000000621,0.1,0,AccFast,16,19,Woman,Right,
44,14,1,1.2829603000000134,['c'],1,left,['9'],2,0.33496229999991556,0.2,0,AccFast,16,19,Woman,Right,
45,14,1,1.2331272999999783,['n'],0,left,['9'],2,0.38412109999990207,0.1,0,AccFast,16,19,Woman,Right,
46,14,1,1.2330808000001525,['c'],1,left,['3'],4,0.3334325999999237,0.1,0,AccFast,16,19,Woman,Right,
47,14,1,1.099823699999888,['n'],1,right,['9'],2,0.5021020999997745,0.2,0,AccFast,16,19,Woman,Right,
48,14,1,0.850796100000025,['c'],1,left,['2'],5,0.33410200000025725,0.4,0,AccFast,16,19,Woman,Right,
49,14,1,0.9004640999996809,['c'],1,left,['2'],5,0.18367309999985082,0.2,0,AccFast,16,19,Woman,Right,
50,14,1,1.049703099999988,['n'],1,right,['9'],2,0.35213659999999436,0.4,0,AccFast,16,19,Woman,Right,
51,14,1,0.8670118000000002,['c'],1,left,['2'],5,0.1681441000000632,0.4,0,AccFast,16,19,Woman,Right,
52,14,1,1.0009139000003415,['n'],1,right,['2'],5,0.4180247999997846,0.4,0,AccFast,16,19,Woman,Right,
53,14,1,0.9168018000000302,['c'],0,right,['1'],6,0.3677708000000166,0.2,0,AccFast,16,19,Woman,Right,
54,14,1,0.7997175999998944,['n'],1,right,['2'],5,0.2512787999999091,0.1,0,AccFast,16,19,Woman,Right,
55,14,1,0.8170535000003838,['c'],1,left,['2'],5,0.20139649999964604,0.1,0,AccFast,16,19,Woman,Right,
56,14,1,0.6671628999997665,['n'],1,right,['2'],5,0.318071400000008,0.4,0,AccFast,16,19,Woman,Right,
57,14,1,1.4006956000002901,['n'],1,right,['3'],4,0.28461520000018936,0.4,0,AccFast,16,19,Woman,Right,
58,14,1,1.1505272999997942,['n'],1,right,['3'],4,0.21815060000017183,0.2,0,AccFast,16,19,Woman,Right,
59,14,1,0.6839488999999048,['c'],1,left,['2'],5,0.11953510000012102,0.4,0,AccFast,16,19,Woman,Right,
0,15,1,1.7168876999999156,['c'],1,left,['3'],4,0.9681386000002021,0.1,0,AccAcc,16,19,Woman,Right,
1,15,1,1.2506617999997616,['n'],1,right,['9'],2,0.5349553000000924,0.4,0,AccAcc,16,19,Woman,Right,
2,15,1,1.4505478000000949,['n'],1,right,['9'],2,0.45137079999994967,0.1,0,AccAcc,16,19,Woman,Right,
3,15,1,1.5497697000000699,['c'],1,left,['9'],2,0.40140059999976074,0.2,0,AccAcc,16,19,Woman,Right,
4,15,1,1.017000100000132,['c'],1,left,['3'],4,0.5679904999997234,0.1,0,AccAcc,16,19,Woman,Right,
5,15,1,0.8340395000000171,['c'],1,left,['2'],5,0.4184056999997665,0.1,0,AccAcc,16,19,Woman,Right,
6,15,1,1.250378599999749,['n'],1,right,['3'],4,0.9515623000002051,0.2,0,AccAcc,16,19,Woman,Right,
7,15,1,0.9507029999999759,['n'],1,right,['2'],5,0.3511843000001136,0.4,0,AccAcc,16,19,Woman,Right,
8,15,1,0.9838893000001008,['n'],0,left,['2'],5,0.3348715000001903,0.1,0,AccAcc,16,19,Woman,Right,
9,15,1,1.067218000000139,['c'],1,left,['9'],2,0.41727979999996023,0.1,0,AccAcc,16,19,Woman,Right,
10,15,1,1.1339121000000887,['c'],0,right,['0'],1,0.3847937999998976,0.1,0,AccAcc,16,19,Woman,Right,
11,15,1,1.1009294999998929,['n'],1,right,['2'],5,0.2847139000000425,0.4,0,AccAcc,16,19,Woman,Right,
12,15,1,1.167265800000223,['c'],0,right,['8'],3,0.46807250000028944,0.1,0,AccAcc,16,19,Woman,Right,
13,15,1,1.1670463999998901,['n'],1,right,['3'],4,0.4015102000003026,0.2,0,AccAcc,16,19,Woman,Right,
14,15,1,1.1998641999998654,['n'],1,right,['3'],4,0.30133399999976973,0.4,0,AccAcc,16,19,Woman,Right,
15,15,1,0.8170258999998623,['c'],1,left,['2'],5,0.35116870000001654,0.1,0,AccAcc,16,19,Woman,Right,
16,15,1,1.5508554999996704,['n'],1,right,['3'],4,0.3012054000000717,0.2,0,AccAcc,16,19,Woman,Right,
17,15,1,0.8333170000005339,['c'],1,left,['2'],5,0.2337904999994862,0.1,0,AccAcc,16,19,Woman,Right,
18,15,1,1.5161336000001029,['n'],1,right,['2'],5,0.31749820000004547,0.2,0,AccAcc,16,19,Woman,Right,
19,15,1,0.6668222999996942,['c'],1,left,['3'],4,0.23477229999934934,0.4,0,AccAcc,16,19,Woman,Right,
20,15,1,1.2165077999998175,['c'],1,left,['2'],5,0.31815850000020873,0.2,0,AccAcc,16,19,Woman,Right,
21,15,1,0.8669818999997005,['n'],1,right,['3'],4,1.051320599999599,0.4,0,AccAcc,16,19,Woman,Right,
22,15,1,1.6996240999997099,['c'],1,left,['2'],5,0.3833222000002934,0.2,0,AccAcc,16,19,Woman,Right,
23,15,1,2.0350986000003104,['n'],1,right,['9'],2,0.5832858000003398,0.4,0,AccAcc,16,19,Woman,Right,
24,15,1,0.9845702000002348,['n'],0,left,['2'],5,0.21810530000038852,0.2,0,AccAcc,16,19,Woman,Right,
25,15,1,1.665876300000491,['c'],0,right,['8'],3,1.135456900000463,0.2,0,AccAcc,16,19,Woman,Right,
26,15,1,1.3677372000001924,['c'],1,left,['8'],3,0.31834750000052736,0.1,0,AccAcc,16,19,Woman,Right,
27,15,1,1.0504102000004423,['c'],1,left,['2'],5,0.5347287000004144,0.4,0,AccAcc,16,19,Woman,Right,
28,15,1,3.217255600000499,['c'],1,left,['3'],4,0.46775520000028337,0.1,0,AccAcc,16,19,Woman,Right,
29,15,1,0.9837852000000566,['c'],1,left,['3'],4,0.2514075999997658,0.4,0,AccAcc,16,19,Woman,Right,
30,15,1,0.9006698000002871,['c'],1,left,['2'],5,0.30168549999962124,0.1,0,AccAcc,16,19,Woman,Right,
31,15,1,1.0337435999999798,['n'],1,right,['3'],4,0.4180799999994633,0.2,0,AccAcc,16,19,Woman,Right,
32,15,1,1.1162279000000126,['n'],1,right,['2'],5,0.2849467999994886,0.4,0,AccAcc,16,19,Woman,Right,
33,15,1,1.732429100000445,['n'],1,right,['1'],6,0.2677222000002075,0.1,0,AccAcc,16,19,Woman,Right,
34,15,1,1.5507870999999795,['n'],1,right,['2'],5,0.4691050000001269,0.1,0,AccAcc,16,19,Woman,Right,
35,15,1,1.7669297000002189,['c'],1,left,['3'],4,0.4178640000000087,0.2,0,AccAcc,16,19,Woman,Right,
36,15,1,2.0495113999995738,['c'],0,right,['2'],5,0.25165710000055697,0.2,0,AccAcc,16,19,Woman,Right,
37,15,1,0.8174589999998716,['c'],1,left,['8'],3,0.2847001000000091,0.2,0,AccAcc,16,19,Woman,Right,
38,15,1,1.1004182999995464,['n'],1,right,['2'],5,0.21810389999973268,0.1,0,AccAcc,16,19,Woman,Right,
39,15,1,1.1675200999998196,['c'],1,left,['3'],4,0.41804810000030557,0.4,0,AccAcc,16,19,Woman,Right,
40,15,1,0.9839983000001666,['n'],1,right,['3'],4,0.5680357000001095,0.4,0,AccAcc,16,19,Woman,Right,
41,15,1,1.1005561000001762,['c'],1,left,['3'],4,0.3685400000003938,0.2,0,AccAcc,16,19,Woman,Right,
42,15,1,0.8673695000006774,['c'],1,left,['2'],5,0.36717249999946944,0.4,0,AccAcc,16,19,Woman,Right,
43,15,1,1.1159238999998706,['c'],0,right,['2'],5,0.4181459999999788,0.2,0,AccAcc,16,19,Woman,Right,
44,15,1,1.4011550000004718,['n'],1,right,['3'],4,0.9514158000001771,0.4,0,AccAcc,16,19,Woman,Right,
45,15,1,0.9490797999997085,['c'],1,left,['3'],4,0.46888900000067224,0.2,0,AccAcc,16,19,Woman,Right,
46,15,1,1.383870100000422,['n'],0,left,['3'],4,0.4680999000001975,0.1,0,AccAcc,16,19,Woman,Right,
47,15,1,1.2662946999998894,['n'],1,right,['3'],4,0.35156560000086756,0.4,0,AccAcc,16,19,Woman,Right,
48,15,1,0.8495292999996309,['c'],1,left,['3'],4,0.25225640000007843,0.4,0,AccAcc,16,19,Woman,Right,
49,15,1,1.2987684999998237,['c'],1,left,['3'],4,0.21894280000014987,0.1,0,AccAcc,16,19,Woman,Right,
50,15,1,1.016682700000274,['c'],1,left,['3'],4,0.2499644999998054,0.2,0,AccAcc,16,19,Woman,Right,
51,15,1,1.26762189999954,['n'],1,right,['3'],4,0.28341400000044814,0.2,0,AccAcc,16,19,Woman,Right,
52,15,1,0.8345028000003367,['c'],1,left,['3'],4,0.2683253000004697,0.4,0,AccAcc,16,19,Woman,Right,
53,15,1,1.0507994999998118,['n'],1,right,['3'],4,0.25130929999977525,0.4,0,AccAcc,16,19,Woman,Right,
54,15,1,1.082706799999869,['c'],0,right,['3'],4,0.23465140000007523,0.4,0,AccAcc,16,19,Woman,Right,
55,15,1,0.9341930000000502,['c'],0,right,['3'],4,0.16808149999997113,0.4,0,AccAcc,16,19,Woman,Right,
56,15,1,1.5170725999996648,['n'],1,right,['3'],4,0.3014088999998421,0.2,0,AccAcc,16,19,Woman,Right,
57,15,1,1.3671435000005658,['n'],0,left,['3'],4,0.3517029000004186,0.1,0,AccAcc,16,19,Woman,Right,
58,15,1,1.2007346000000325,['n'],0,left,['3'],4,0.4493468999999095,0.2,0,AccAcc,16,19,Woman,Right,
59,15,1,1.2841723999999886,['n'],1,right,['3'],4,0.4174643999995169,0.1,0,AccAcc,16,19,Woman,Right,
