withinblocktrial,block,block_repetition,rt,resp,cor,cresp,conf_press,cj,rtconf,coherence,slow_trial,manipulation,sub,age,gender,handedness,
0,1,1,1.367300699999987,['c'],1,left,none,-99,-99,0.5,0,none,15,18,Woman,Right,
1,1,1,1.2507321000000502,['c'],1,left,none,-99,-99,0.5,0,none,15,18,Woman,Right,
2,1,1,0.7832702000000609,['n'],1,right,none,-99,-99,0.5,0,none,15,18,Woman,Right,
3,1,1,0.6159390999998777,['c'],1,left,none,-99,-99,0.5,0,none,15,18,Woman,Right,
4,1,1,0.7505065000000286,['n'],0,left,none,-99,-99,0.5,0,none,15,18,Woman,Right,
5,1,1,1.5497740999999223,['n'],1,right,none,-99,-99,0.5,0,none,15,18,Woman,Right,
6,1,1,1.4669218000001365,['n'],1,right,none,-99,-99,0.5,0,none,15,18,Woman,Right,
7,1,1,0.9832153000002108,['c'],1,left,none,-99,-99,0.5,0,none,15,18,Woman,Right,
8,1,1,1.2837996999999177,['c'],1,left,none,-99,-99,0.5,0,none,15,18,Woman,Right,
9,1,1,1.1836111000000074,['c'],0,right,none,-99,-99,0.5,0,none,15,18,Woman,Right,
10,1,1,1.1838998999999149,['c'],1,left,none,-99,-99,0.5,0,none,15,18,Woman,Right,
11,1,1,1.4164836999998442,['c'],1,left,none,-99,-99,0.5,0,none,15,18,Woman,Right,
12,1,1,1.166621300000088,['n'],1,right,none,-99,-99,0.5,0,none,15,18,Woman,Right,
13,1,1,1.2325083000000632,['c'],0,right,none,-99,-99,0.5,0,none,15,18,Woman,Right,
14,1,1,1.0341840000000957,['n'],1,right,none,-99,-99,0.5,0,none,15,18,Woman,Right,
15,1,1,1.083464000000049,['c'],0,right,none,-99,-99,0.5,0,none,15,18,Woman,Right,
16,1,1,1.5001691999998457,['n'],1,right,none,-99,-99,0.5,0,none,15,18,Woman,Right,
17,1,1,1.449838600000021,['n'],1,right,none,-99,-99,0.5,0,none,15,18,Woman,Right,
18,1,1,1.2170619000000897,['c'],1,left,none,-99,-99,0.5,0,none,15,18,Woman,Right,
19,1,1,1.1005526999999802,['c'],1,left,none,-99,-99,0.5,0,none,15,18,Woman,Right,
20,1,1,1.0670632999999725,['c'],1,left,none,-99,-99,0.5,0,none,15,18,Woman,Right,
21,1,1,1.0171196999999665,['n'],1,right,none,-99,-99,0.5,0,none,15,18,Woman,Right,
22,1,1,1.2503997000001164,['c'],1,left,none,-99,-99,0.5,0,none,15,18,Woman,Right,
23,1,1,0.6499088000000484,['n'],1,right,none,-99,-99,0.5,0,none,15,18,Woman,Right,
0,1,2,0.9338381000000027,['c'],1,left,none,-99,-99,0.5,0,none,15,18,Woman,Right,
1,1,2,1.3331651999999394,['n'],1,right,none,-99,-99,0.5,0,none,15,18,Woman,Right,
2,1,2,0.7169317000000319,['c'],1,left,none,-99,-99,0.5,0,none,15,18,Woman,Right,
3,1,2,1.0495530999999119,['c'],0,right,none,-99,-99,0.5,0,none,15,18,Woman,Right,
4,1,2,0.8997144000002208,['c'],1,left,none,-99,-99,0.5,0,none,15,18,Woman,Right,
5,1,2,0.8840675000001283,['c'],1,left,none,-99,-99,0.5,0,none,15,18,Woman,Right,
6,1,2,0.8331436000000849,['c'],1,left,none,-99,-99,0.5,0,none,15,18,Woman,Right,
7,1,2,1.0007934999998724,['c'],0,right,none,-99,-99,0.5,0,none,15,18,Woman,Right,
8,1,2,1.0996990999999525,['n'],1,right,none,-99,-99,0.5,0,none,15,18,Woman,Right,
9,1,2,1.083347799999956,['n'],0,left,none,-99,-99,0.5,0,none,15,18,Woman,Right,
10,1,2,0.8003728999999566,['c'],0,right,none,-99,-99,0.5,0,none,15,18,Woman,Right,
11,1,2,1.4835295000000315,['n'],1,right,none,-99,-99,0.5,0,none,15,18,Woman,Right,
12,1,2,1.0500887000000603,['c'],1,left,none,-99,-99,0.5,0,none,15,18,Woman,Right,
13,1,2,1.2171862000000147,['n'],1,right,none,-99,-99,0.5,0,none,15,18,Woman,Right,
14,1,2,1.1174139000002015,['c'],1,left,none,-99,-99,0.5,0,none,15,18,Woman,Right,
15,1,2,1.5333686000001308,['n'],1,right,none,-99,-99,0.5,0,none,15,18,Woman,Right,
16,1,2,1.0500276000000213,['c'],1,left,none,-99,-99,0.5,0,none,15,18,Woman,Right,
17,1,2,0.9334300999998959,['n'],1,right,none,-99,-99,0.5,0,none,15,18,Woman,Right,
18,1,2,0.9164023999999245,['c'],1,left,none,-99,-99,0.5,0,none,15,18,Woman,Right,
19,1,2,0.6677701999999499,['n'],0,left,none,-99,-99,0.5,0,none,15,18,Woman,Right,
20,1,2,1.14996310000015,['c'],0,right,none,-99,-99,0.5,0,none,15,18,Woman,Right,
21,1,2,0.9498975999999857,['n'],1,right,none,-99,-99,0.5,0,none,15,18,Woman,Right,
22,1,2,1.1670000999999957,['n'],1,right,none,-99,-99,0.5,0,none,15,18,Woman,Right,
23,1,2,1.250253100000009,['c'],1,left,none,-99,-99,0.5,0,none,15,18,Woman,Right,
0,1,3,0.9333596000001307,['n'],1,right,none,-99,-99,0.5,0,none,15,18,Woman,Right,
1,1,3,1.4670814999999493,['c'],0,right,none,-99,-99,0.5,0,none,15,18,Woman,Right,
2,1,3,0.982961400000022,['c'],0,right,none,-99,-99,0.5,0,none,15,18,Woman,Right,
3,1,3,0.9337006999999176,['n'],1,right,none,-99,-99,0.5,0,none,15,18,Woman,Right,
4,1,3,0.9510263000001942,['c'],1,left,none,-99,-99,0.5,0,none,15,18,Woman,Right,
5,1,3,1.2333694999999807,['n'],1,right,none,-99,-99,0.5,0,none,15,18,Woman,Right,
6,1,3,1.465822399999979,['n'],1,right,none,-99,-99,0.5,0,none,15,18,Woman,Right,
7,1,3,0.8669266999997944,['c'],1,left,none,-99,-99,0.5,0,none,15,18,Woman,Right,
8,1,3,1.1493202999999994,['n'],1,right,none,-99,-99,0.5,0,none,15,18,Woman,Right,
9,1,3,0.7502469000000929,['c'],1,left,none,-99,-99,0.5,0,none,15,18,Woman,Right,
10,1,3,1.3833961000000272,['n'],1,right,none,-99,-99,0.5,0,none,15,18,Woman,Right,
11,1,3,1.0001779000001534,['c'],1,left,none,-99,-99,0.5,0,none,15,18,Woman,Right,
12,1,3,1.0503475000000435,['n'],1,right,none,-99,-99,0.5,0,none,15,18,Woman,Right,
13,1,3,1.2664770999999746,['c'],0,right,none,-99,-99,0.5,0,none,15,18,Woman,Right,
14,1,3,1.2998600999999326,['c'],0,right,none,-99,-99,0.5,0,none,15,18,Woman,Right,
15,1,3,1.6335842000000866,['c'],1,left,none,-99,-99,0.5,0,none,15,18,Woman,Right,
16,1,3,1.2502434000000449,['c'],1,left,none,-99,-99,0.5,0,none,15,18,Woman,Right,
17,1,3,1.0997937000001912,['c'],1,left,none,-99,-99,0.5,0,none,15,18,Woman,Right,
18,1,3,1.1664766999999756,['c'],1,left,none,-99,-99,0.5,0,none,15,18,Woman,Right,
19,1,3,0.9671039999998357,['c'],1,left,none,-99,-99,0.5,0,none,15,18,Woman,Right,
20,1,3,1.2340044999998554,['c'],1,left,none,-99,-99,0.5,0,none,15,18,Woman,Right,
21,1,3,1.0669808000000103,['n'],1,right,none,-99,-99,0.5,0,none,15,18,Woman,Right,
22,1,3,1.2499401999998554,['c'],1,left,none,-99,-99,0.5,0,none,15,18,Woman,Right,
23,1,3,1.016609600000038,['c'],1,left,none,-99,-99,0.5,0,none,15,18,Woman,Right,
0,1,4,0.9665122000001247,['c'],1,left,none,-99,-99,0.5,0,none,15,18,Woman,Right,
1,1,4,0.9665236000000732,['c'],1,left,none,-99,-99,0.5,0,none,15,18,Woman,Right,
2,1,4,1.3996119000000817,['c'],0,right,none,-99,-99,0.5,0,none,15,18,Woman,Right,
3,1,4,1.3171472000001359,['c'],1,left,none,-99,-99,0.5,0,none,15,18,Woman,Right,
4,1,4,1.267686200000071,['c'],0,right,none,-99,-99,0.5,0,none,15,18,Woman,Right,
5,1,4,0.9002676999998585,['n'],1,right,none,-99,-99,0.5,0,none,15,18,Woman,Right,
6,1,4,1.2832836000000043,['c'],1,left,none,-99,-99,0.5,0,none,15,18,Woman,Right,
7,1,4,1.2002439999998842,['n'],1,right,none,-99,-99,0.5,0,none,15,18,Woman,Right,
8,1,4,0.8514849000000595,['c'],1,left,none,-99,-99,0.5,0,none,15,18,Woman,Right,
9,1,4,0.8839726999999584,['c'],1,left,none,-99,-99,0.5,0,none,15,18,Woman,Right,
10,1,4,1.6162540000000263,['c'],1,left,none,-99,-99,0.5,0,none,15,18,Woman,Right,
11,1,4,1.9671789999999874,['c'],1,left,none,-99,-99,0.5,0,none,15,18,Woman,Right,
12,1,4,1.233284700000013,['n'],1,right,none,-99,-99,0.5,0,none,15,18,Woman,Right,
13,1,4,1.4663875000001099,['n'],1,right,none,-99,-99,0.5,0,none,15,18,Woman,Right,
14,1,4,1.5505384999999023,['n'],1,right,none,-99,-99,0.5,0,none,15,18,Woman,Right,
15,1,4,0.8000248000000738,['c'],1,left,none,-99,-99,0.5,0,none,15,18,Woman,Right,
16,1,4,1.3663814999999886,['c'],0,right,none,-99,-99,0.5,0,none,15,18,Woman,Right,
17,1,4,1.316909399999986,['c'],1,left,none,-99,-99,0.5,0,none,15,18,Woman,Right,
18,1,4,0.9006534000000102,['c'],1,left,none,-99,-99,0.5,0,none,15,18,Woman,Right,
19,1,4,1.15067810000005,['c'],0,right,none,-99,-99,0.5,0,none,15,18,Woman,Right,
20,1,4,1.432984900000065,['n'],1,right,none,-99,-99,0.5,0,none,15,18,Woman,Right,
21,1,4,1.0341971000000285,['n'],1,right,none,-99,-99,0.5,0,none,15,18,Woman,Right,
22,1,4,1.3828637999999955,['c'],1,left,none,-99,-99,0.5,0,none,15,18,Woman,Right,
23,1,4,1.0663842000001296,['c'],0,right,none,-99,-99,0.5,0,none,15,18,Woman,Right,
0,1,5,0.7674600999998802,['n'],1,right,none,-99,-99,0.5,0,none,15,18,Woman,Right,
1,1,5,1.2337197000001652,['n'],1,right,none,-99,-99,0.5,0,none,15,18,Woman,Right,
2,1,5,0.8172577999998794,['c'],1,left,none,-99,-99,0.5,0,none,15,18,Woman,Right,
3,1,5,0.951001099999985,['c'],1,left,none,-99,-99,0.5,0,none,15,18,Woman,Right,
4,1,5,0.8004524999998921,['c'],1,left,none,-99,-99,0.5,0,none,15,18,Woman,Right,
5,1,5,0.6337306000000353,['c'],1,left,none,-99,-99,0.5,0,none,15,18,Woman,Right,
6,1,5,0.7670086000000538,['n'],1,right,none,-99,-99,0.5,0,none,15,18,Woman,Right,
7,1,5,1.1335053000000244,['n'],1,right,none,-99,-99,0.5,0,none,15,18,Woman,Right,
8,1,5,0.6503583000001072,['c'],1,left,none,-99,-99,0.5,0,none,15,18,Woman,Right,
9,1,5,1.132646300000033,['c'],0,right,none,-99,-99,0.5,0,none,15,18,Woman,Right,
10,1,5,1.0678243999998358,['n'],1,right,none,-99,-99,0.5,0,none,15,18,Woman,Right,
11,1,5,0.9661622000000989,['c'],1,left,none,-99,-99,0.5,0,none,15,18,Woman,Right,
12,1,5,0.8171889999998712,['c'],1,left,none,-99,-99,0.5,0,none,15,18,Woman,Right,
13,1,5,0.8007041000000754,['c'],0,right,none,-99,-99,0.5,0,none,15,18,Woman,Right,
14,1,5,1.7005256999998437,['n'],1,right,none,-99,-99,0.5,0,none,15,18,Woman,Right,
15,1,5,0.7162341999999171,['c'],1,left,none,-99,-99,0.5,0,none,15,18,Woman,Right,
16,1,5,0.7999477999999272,['c'],1,left,none,-99,-99,0.5,0,none,15,18,Woman,Right,
17,1,5,1.2173009000000548,['c'],1,left,none,-99,-99,0.5,0,none,15,18,Woman,Right,
18,1,5,1.1503523999999743,['n'],1,right,none,-99,-99,0.5,0,none,15,18,Woman,Right,
19,1,5,0.9327604999998584,['c'],0,right,none,-99,-99,0.5,0,none,15,18,Woman,Right,
20,1,5,0.7831764999998541,['c'],1,left,none,-99,-99,0.5,0,none,15,18,Woman,Right,
21,1,5,0.9005360999999539,['n'],0,left,none,-99,-99,0.5,0,none,15,18,Woman,Right,
22,1,5,0.967088300000114,['c'],0,right,none,-99,-99,0.5,0,none,15,18,Woman,Right,
23,1,5,0.9837230000000545,['c'],0,right,none,-99,-99,0.5,0,none,15,18,Woman,Right,
0,1,6,1.283975699999928,['c'],1,left,none,-99,-99,0.5,0,none,15,18,Woman,Right,
1,1,6,1.3834279000000151,['n'],1,right,none,-99,-99,0.5,0,none,15,18,Woman,Right,
2,1,6,1.0997204999998758,['c'],0,right,none,-99,-99,0.5,0,none,15,18,Woman,Right,
3,1,6,1.466906599999902,['n'],1,right,none,-99,-99,0.5,0,none,15,18,Woman,Right,
4,1,6,0.9679550999999265,['c'],1,left,none,-99,-99,0.5,0,none,15,18,Woman,Right,
5,1,6,1.2325329999998758,['n'],1,right,none,-99,-99,0.5,0,none,15,18,Woman,Right,
6,1,6,1.1496958000000177,['c'],0,right,none,-99,-99,0.5,0,none,15,18,Woman,Right,
7,1,6,1.3501533999999538,['c'],1,left,none,-99,-99,0.5,0,none,15,18,Woman,Right,
8,1,6,1.2844844999999623,['n'],1,right,none,-99,-99,0.5,0,none,15,18,Woman,Right,
9,1,6,1.283147400000189,['n'],1,right,none,-99,-99,0.5,0,none,15,18,Woman,Right,
10,1,6,0.9502340000001368,['c'],1,left,none,-99,-99,0.5,0,none,15,18,Woman,Right,
11,1,6,0.8840592999999899,['c'],1,left,none,-99,-99,0.5,0,none,15,18,Woman,Right,
12,1,6,0.6670069000001604,['c'],1,left,none,-99,-99,0.5,0,none,15,18,Woman,Right,
13,1,6,1.4830231999999341,['n'],1,right,none,-99,-99,0.5,0,none,15,18,Woman,Right,
14,1,6,0.715899699999909,['c'],0,right,none,-99,-99,0.5,0,none,15,18,Woman,Right,
15,1,6,1.0349539999999706,['c'],0,right,none,-99,-99,0.5,0,none,15,18,Woman,Right,
16,1,6,1.1159984000000804,['c'],1,left,none,-99,-99,0.5,0,none,15,18,Woman,Right,
17,1,6,0.8329545999999937,['c'],1,left,none,-99,-99,0.5,0,none,15,18,Woman,Right,
18,1,6,0.9999918999999409,['c'],1,left,none,-99,-99,0.5,0,none,15,18,Woman,Right,
19,1,6,1.0666450999999597,['n'],0,left,none,-99,-99,0.5,0,none,15,18,Woman,Right,
20,1,6,1.8666932999999517,['n'],1,right,none,-99,-99,0.5,0,none,15,18,Woman,Right,
21,1,6,0.8006738999999925,['c'],1,left,none,-99,-99,0.5,0,none,15,18,Woman,Right,
22,1,6,1.4508668000000853,['c'],1,left,none,-99,-99,0.5,0,none,15,18,Woman,Right,
23,1,6,1.0831596999998965,['n'],1,right,none,-99,-99,0.5,0,none,15,18,Woman,Right,
0,1,7,0.9675886999998511,['c'],1,left,none,-99,-99,0.5,0,none,15,18,Woman,Right,
1,1,7,0.9340978000000177,['c'],1,left,none,-99,-99,0.5,0,none,15,18,Woman,Right,
2,1,7,0.8335772000000361,['n'],1,right,none,-99,-99,0.5,0,none,15,18,Woman,Right,
3,1,7,0.74952200000007,['c'],1,left,none,-99,-99,0.5,0,none,15,18,Woman,Right,
4,1,7,0.9838294000001042,['c'],0,right,none,-99,-99,0.5,0,none,15,18,Woman,Right,
5,1,7,1.1170057000001634,['n'],1,right,none,-99,-99,0.5,0,none,15,18,Woman,Right,
6,1,7,1.4504590999999891,['n'],1,right,none,-99,-99,0.5,0,none,15,18,Woman,Right,
7,1,7,0.7506785000000491,['c'],0,right,none,-99,-99,0.5,0,none,15,18,Woman,Right,
8,1,7,0.7666604000000916,['n'],1,right,none,-99,-99,0.5,0,none,15,18,Woman,Right,
9,1,7,0.8831824999999753,['c'],1,left,none,-99,-99,0.5,0,none,15,18,Woman,Right,
10,1,7,0.8836358000000928,['c'],1,left,none,-99,-99,0.5,0,none,15,18,Woman,Right,
11,1,7,1.2169476999999915,['c'],1,left,none,-99,-99,0.5,0,none,15,18,Woman,Right,
12,1,7,0.8840605999998843,['c'],1,left,none,-99,-99,0.5,0,none,15,18,Woman,Right,
13,1,7,0.7990482000000156,['n'],1,right,none,-99,-99,0.5,0,none,15,18,Woman,Right,
14,1,7,0.784433799999988,['c'],1,left,none,-99,-99,0.5,0,none,15,18,Woman,Right,
15,1,7,0.7005298999999923,['c'],1,left,none,-99,-99,0.5,0,none,15,18,Woman,Right,
16,1,7,0.6671741000000111,['c'],1,left,none,-99,-99,0.5,0,none,15,18,Woman,Right,
17,1,7,0.6169821000000866,['c'],1,left,none,-99,-99,0.5,0,none,15,18,Woman,Right,
18,1,7,0.6161546000000726,['n'],1,right,none,-99,-99,0.5,0,none,15,18,Woman,Right,
19,1,7,0.5170937000000322,['n'],1,right,none,-99,-99,0.5,0,none,15,18,Woman,Right,
20,1,7,0.5686903999999231,['c'],0,right,none,-99,-99,0.5,0,none,15,18,Woman,Right,
21,1,7,0.651102499999979,['n'],1,right,none,-99,-99,0.5,0,none,15,18,Woman,Right,
22,1,7,0.8845068000000538,['c'],1,left,none,-99,-99,0.5,0,none,15,18,Woman,Right,
23,1,7,0.9172582000001057,['n'],1,right,none,-99,-99,0.5,0,none,15,18,Woman,Right,
0,2,1,2.6005863999998837,['n'],1,right,none,-99,-99,0.1,0,none,15,18,Woman,Right,
1,2,1,1.699836600000026,['n'],1,right,none,-99,-99,0.4,0,none,15,18,Woman,Right,
2,2,1,0.6339075999999295,['c'],1,left,none,-99,-99,0.4,0,none,15,18,Woman,Right,
3,2,1,0.9676159000000553,['c'],1,left,none,-99,-99,0.2,0,none,15,18,Woman,Right,
4,2,1,0.8169795999999678,['c'],1,left,none,-99,-99,0.1,0,none,15,18,Woman,Right,
5,2,1,1.066932799999904,['n'],0,left,none,-99,-99,0.2,0,none,15,18,Woman,Right,
6,2,1,0.6668592000000899,['c'],1,left,none,-99,-99,0.4,0,none,15,18,Woman,Right,
7,2,1,0.6504085999999916,['c'],1,left,none,-99,-99,0.4,0,none,15,18,Woman,Right,
8,2,1,1.7832269000000451,['n'],1,right,none,-99,-99,0.2,0,none,15,18,Woman,Right,
9,2,1,0.9837182999999641,['c'],0,right,none,-99,-99,0.2,0,none,15,18,Woman,Right,
10,2,1,1.3163111999999728,['n'],1,right,none,-99,-99,0.2,0,none,15,18,Woman,Right,
11,2,1,1.050257399999964,['c'],0,right,none,-99,-99,0.1,0,none,15,18,Woman,Right,
12,2,1,0.9169176000000334,['c'],0,right,none,-99,-99,0.4,0,none,15,18,Woman,Right,
13,2,1,1.3006926000000476,['c'],1,left,none,-99,-99,0.2,0,none,15,18,Woman,Right,
14,2,1,0.7160675000000083,['n'],1,right,none,-99,-99,0.4,0,none,15,18,Woman,Right,
15,2,1,0.8005263000000014,['c'],1,left,none,-99,-99,0.2,0,none,15,18,Woman,Right,
16,2,1,0.9669945000000553,['c'],1,left,none,-99,-99,0.1,0,none,15,18,Woman,Right,
17,2,1,1.2003889999998592,['c'],0,right,none,-99,-99,0.1,0,none,15,18,Woman,Right,
18,2,1,1.2506498999998712,['c'],0,right,none,-99,-99,0.2,0,none,15,18,Woman,Right,
19,2,1,1.1671338000001015,['c'],0,right,none,-99,-99,0.1,0,none,15,18,Woman,Right,
20,2,1,1.7489619999998922,['c'],1,left,none,-99,-99,0.4,0,none,15,18,Woman,Right,
21,2,1,1.0676550999999108,['n'],0,left,none,-99,-99,0.4,0,none,15,18,Woman,Right,
22,2,1,1.3337071000000833,['n'],1,right,none,-99,-99,0.1,0,none,15,18,Woman,Right,
23,2,1,1.333895900000016,['c'],1,left,none,-99,-99,0.1,0,none,15,18,Woman,Right,
0,3,1,3.3007723000000624,['n'],1,right,none,-99,-99,0.4,1,none,15,18,Woman,Right,
1,3,1,1.1836073999998007,['c'],1,left,['9'],5,2.6844921000001705,0.2,0,none,15,18,Woman,Right,
2,3,1,1.667079799999783,['c'],0,right,['8'],4,1.0844304999998258,0.4,0,none,15,18,Woman,Right,
3,3,1,2.2496284999999716,['c'],1,left,['8'],4,1.5175067000000126,0.2,0,none,15,18,Woman,Right,
4,3,1,2.466900399999986,['c'],1,left,['8'],4,1.4842172999999548,0.1,0,none,15,18,Woman,Right,
5,3,1,2.15019970000003,['c'],1,left,['9'],5,1.368173699999943,0.2,0,none,15,18,Woman,Right,
6,3,1,2.0170230999999603,['c'],1,left,['8'],4,1.3176269999999022,0.2,0,none,15,18,Woman,Right,
7,3,1,1.2504512000000432,['c'],1,left,['9'],5,0.9844682000000375,0.4,0,none,15,18,Woman,Right,
8,3,1,2.083353299999999,['c'],0,right,['8'],4,1.7511368000000402,0.4,0,none,15,18,Woman,Right,
9,3,1,1.933817099999942,['c'],0,right,['9'],5,0.7678822999998829,0.1,0,none,15,18,Woman,Right,
10,3,1,2.667099300000018,['c'],0,right,['2'],2,1.9676746000000094,0.1,0,none,15,18,Woman,Right,
11,3,1,2.8993143999998665,['n'],1,right,['8'],4,1.8346485999998094,0.2,0,none,15,18,Woman,Right,
12,3,1,2.8174426000000494,['c'],0,right,['2'],2,1.4511673999998038,0.4,0,none,15,18,Woman,Right,
13,3,1,2.6321700000000874,['c'],0,right,['3'],3,1.5175179999998818,0.2,0,none,15,18,Woman,Right,
14,3,1,3.416658799999823,['c'],0,right,['2'],2,1.4512093000000732,0.1,0,none,15,18,Woman,Right,
15,3,1,1.216950099999849,['c'],1,left,['9'],5,0.9680484000000433,0.4,0,none,15,18,Woman,Right,
16,3,1,1.3665236000001642,['c'],1,left,['9'],5,0.8012019000000237,0.2,0,none,15,18,Woman,Right,
17,3,1,2.749318500000072,['c'],1,left,['2'],2,1.251075599999922,0.1,0,none,15,18,Woman,Right,
18,3,1,3.649938499999962,['c'],1,left,['8'],4,1.2012703000000329,0.1,0,none,15,18,Woman,Right,
19,3,1,3.049978999999894,['c'],0,right,['3'],3,2.4340159999999287,0.2,0,none,15,18,Woman,Right,
20,3,1,1.2679513000000497,['c'],1,left,['8'],4,0.65094739999995,0.1,0,none,15,18,Woman,Right,
21,3,1,3.149681200000032,['c'],1,left,['3'],3,1.5178842000000259,0.1,0,none,15,18,Woman,Right,
22,3,1,1.2999174999999923,['n'],1,right,['8'],4,1.7672792999999274,0.4,0,none,15,18,Woman,Right,
23,3,1,1.8504881999999725,['c'],0,right,['9'],5,1.9675871000001735,0.4,0,none,15,18,Woman,Right,
0,4,1,2.3674965000000157,['c'],0,right,['8'],4,2.001161400000001,0.4,0,FastAcc,15,18,Woman,Right,
1,4,1,1.7502297000000908,['c'],0,right,['8'],4,1.4843075999997382,0.2,0,FastAcc,15,18,Woman,Right,
2,4,1,0.6334589000002779,['c'],1,left,['3'],3,1.267207700000199,0.2,0,FastAcc,15,18,Woman,Right,
3,4,1,1.100248400000055,['n'],1,right,['3'],3,2.484562200000255,0.2,0,FastAcc,15,18,Woman,Right,
4,4,1,1.3330080999999154,['c'],0,right,['8'],4,1.2347888000003877,0.2,0,FastAcc,15,18,Woman,Right,
5,4,1,1.2156663999999182,['c'],0,right,['9'],5,1.7852654000002985,0.2,0,FastAcc,15,18,Woman,Right,
6,4,1,1.5166132999997899,['c'],0,right,['8'],4,3.033357399999659,0.4,0,FastAcc,15,18,Woman,Right,
7,4,1,1.2177510999999868,['c'],0,right,['8'],4,1.9009788000003027,0.2,0,FastAcc,15,18,Woman,Right,
8,4,1,1.600477100000262,['c'],1,left,['3'],3,3.200843099999929,0.1,0,FastAcc,15,18,Woman,Right,
9,4,1,1.7000828999998703,['c'],0,right,['2'],2,2.267580899999757,0.1,0,FastAcc,15,18,Woman,Right,
10,4,1,2.0995166000002428,['c'],1,left,['8'],4,3.0504351999998107,0.1,0,FastAcc,15,18,Woman,Right,
11,4,1,2.433278700000301,['c'],0,right,['2'],2,1.7173830000001544,0.4,0,FastAcc,15,18,Woman,Right,
12,4,1,1.4503405000000384,['c'],1,left,['9'],5,1.7179378000000725,0.4,0,FastAcc,15,18,Woman,Right,
13,4,1,2.200392400000055,['c'],1,left,['2'],2,2.3177723000003425,0.1,0,FastAcc,15,18,Woman,Right,
14,4,1,2.7168289000001096,['c'],1,left,['8'],4,2.2843850999997812,0.2,0,FastAcc,15,18,Woman,Right,
15,4,1,1.0997087999999167,['c'],1,left,['9'],5,1.5840855999999803,0.4,0,FastAcc,15,18,Woman,Right,
16,4,1,0.8845587000000705,['c'],0,right,['9'],5,2.0343134999998256,0.4,0,FastAcc,15,18,Woman,Right,
17,4,1,1.033080400000017,['c'],0,right,['8'],4,4.367430700000114,0.2,0,FastAcc,15,18,Woman,Right,
18,4,1,1.5663058000000092,['c'],0,right,['2'],2,2.767985800000133,0.4,0,FastAcc,15,18,Woman,Right,
19,4,1,1.0330743999998049,['n'],1,right,['8'],4,4.734309999999823,0.2,0,FastAcc,15,18,Woman,Right,
20,4,1,0.5668767000001935,['c'],1,left,['8'],4,3.183922100000018,0.4,0,FastAcc,15,18,Woman,Right,
21,4,1,1.1171289000003526,['c'],0,right,['2'],2,1.7510495999999875,0.2,0,FastAcc,15,18,Woman,Right,
22,4,1,1.5675109999997403,['c'],0,right,['3'],3,4.683942900000147,0.4,0,FastAcc,15,18,Woman,Right,
23,4,1,1.1007549000000836,['n'],0,left,['3'],3,1.9342192999997678,0.1,0,FastAcc,15,18,Woman,Right,
24,4,1,1.2834548999999242,['c'],0,right,['9'],5,1.267627000000175,0.2,0,FastAcc,15,18,Woman,Right,
25,4,1,1.0504682000000685,['c'],1,left,['8'],4,3.9506415000000743,0.2,0,FastAcc,15,18,Woman,Right,
26,4,1,0.9664690999998129,['c'],0,right,['3'],3,4.118057900000167,0.4,0,FastAcc,15,18,Woman,Right,
27,4,1,1.433761499999946,['c'],1,left,['9'],5,2.1844246000000567,0.4,0,FastAcc,15,18,Woman,Right,
28,4,1,0.5998313999998572,['c'],1,left,['8'],4,3.5009399000000485,0.4,0,FastAcc,15,18,Woman,Right,
29,4,1,0.9172736000000441,['c'],1,left,['9'],5,1.9342767999996795,0.4,0,FastAcc,15,18,Woman,Right,
30,4,1,0.7829704000000675,['c'],1,left,['0'],6,4.417325400000209,0.4,0,FastAcc,15,18,Woman,Right,
31,4,1,1.9170274000002792,['c'],0,right,['3'],3,2.233796500000153,0.1,0,FastAcc,15,18,Woman,Right,
32,4,1,0.7837244000002102,['c'],1,left,['8'],4,4.70088799999985,0.2,0,FastAcc,15,18,Woman,Right,
33,4,1,1.3667289999998502,['c'],0,right,['2'],2,1.7350091000002976,0.1,0,FastAcc,15,18,Woman,Right,
34,4,1,1.716656900000089,['c'],0,right,['8'],4,2.200953600000048,0.1,0,FastAcc,15,18,Woman,Right,
35,4,1,1.2499698999999964,['c'],0,right,['8'],4,2.0008326000001944,0.1,0,FastAcc,15,18,Woman,Right,
36,4,1,0.9504236000002493,['c'],0,right,['8'],4,3.2676242000002276,0.2,0,FastAcc,15,18,Woman,Right,
37,4,1,0.7325409000000036,['c'],1,left,['9'],5,2.9512517999996817,0.4,0,FastAcc,15,18,Woman,Right,
38,4,1,1.599356600000192,['c'],1,left,['8'],4,3.2509860000000117,0.4,0,FastAcc,15,18,Woman,Right,
39,4,1,0.80043889999979,['c'],1,left,['9'],5,1.2846042999999554,0.1,0,FastAcc,15,18,Woman,Right,
40,4,1,0.8335207000000082,['c'],0,right,['9'],5,2.084230999999818,0.1,0,FastAcc,15,18,Woman,Right,
41,4,1,1.2496915000001536,['c'],1,left,['8'],4,2.53427019999981,0.1,0,FastAcc,15,18,Woman,Right,
42,4,1,1.4999587000002066,['c'],0,right,['8'],4,4.100403400000232,0.1,0,FastAcc,15,18,Woman,Right,
43,4,1,1.6838112999998884,['c'],1,left,none,-99,-99,0.1,1,FastAcc,15,18,Woman,Right,
44,4,1,1.4168939999999566,['c'],0,right,['8'],4,2.117871699999796,0.1,0,FastAcc,15,18,Woman,Right,
45,4,1,1.600485899999967,['c'],0,right,['3'],3,1.3169153999997434,0.1,0,FastAcc,15,18,Woman,Right,
46,4,1,0.9501593999998477,['c'],1,left,['9'],5,1.5679826000000503,0.4,0,FastAcc,15,18,Woman,Right,
47,4,1,1.2992973000000347,['c'],1,left,['9'],5,1.8681065000000672,0.2,0,FastAcc,15,18,Woman,Right,
48,4,1,1.2999974999997903,['n'],0,left,['8'],4,2.984385899999779,0.1,0,FastAcc,15,18,Woman,Right,
49,4,1,1.0830934000000525,['c'],1,left,['9'],5,2.934515200000078,0.2,0,FastAcc,15,18,Woman,Right,
50,4,1,1.1668893999999455,['c'],1,left,['9'],5,2.3340539999999237,0.4,0,FastAcc,15,18,Woman,Right,
51,4,1,1.8334250999996584,['n'],1,right,['3'],3,2.617729099999906,0.2,0,FastAcc,15,18,Woman,Right,
52,4,1,1.7999242000000777,['c'],1,left,['9'],5,2.2679739000000154,0.4,0,FastAcc,15,18,Woman,Right,
53,4,1,1.749317499999961,['c'],0,right,['8'],4,2.2014681999999084,0.1,0,FastAcc,15,18,Woman,Right,
54,4,1,1.299150499999996,['c'],0,right,['3'],3,1.5847384999997303,0.4,0,FastAcc,15,18,Woman,Right,
55,4,1,1.5997271000001092,['c'],1,left,['3'],3,3.6173644000000422,0.2,0,FastAcc,15,18,Woman,Right,
56,4,1,1.2668796000002658,['c'],1,left,['9'],5,2.5177145000002383,0.1,0,FastAcc,15,18,Woman,Right,
57,4,1,1.2504699000000983,['c'],1,left,['8'],4,2.8344310000002224,0.2,0,FastAcc,15,18,Woman,Right,
58,4,1,2.0338678999996773,['n'],0,left,['8'],4,3.1337940999997045,0.1,0,FastAcc,15,18,Woman,Right,
59,4,1,1.7000089999996817,['n'],1,right,['8'],4,2.3013120999999046,0.2,0,FastAcc,15,18,Woman,Right,
0,5,1,0.9339099999997416,['c'],1,left,['8'],4,1.3178560999999718,0.4,0,FastFast,15,18,Woman,Right,
1,5,1,1.1170468000000255,['c'],0,right,['9'],5,0.9341974999997547,0.1,0,FastFast,15,18,Woman,Right,
2,5,1,1.1506656999999905,['c'],1,left,['9'],5,0.8836249000000862,0.2,0,FastFast,15,18,Woman,Right,
3,5,1,1.333705800000189,['c'],1,left,['8'],4,1.8510228999998617,0.4,0,FastFast,15,18,Woman,Right,
4,5,1,1.5997949000002336,['n'],1,right,['9'],5,2.0348205000000235,0.2,0,FastFast,15,18,Woman,Right,
5,5,1,1.4166365000000951,['c'],0,right,['8'],4,1.9513999999999214,0.1,0,FastFast,15,18,Woman,Right,
6,5,1,1.2004790999999386,['c'],1,left,['3'],3,1.7513222000002315,0.4,0,FastFast,15,18,Woman,Right,
7,5,1,1.2506846000001133,['c'],1,left,['8'],4,0.8840465999996923,0.1,0,FastFast,15,18,Woman,Right,
8,5,1,1.0155768999998145,['c'],0,right,['0'],6,0.8006970999999794,0.4,0,FastFast,15,18,Woman,Right,
9,5,1,1.317734400000063,['c'],0,right,['3'],3,1.2674771000001783,0.1,0,FastFast,15,18,Woman,Right,
10,5,1,1.0665167999995901,['c'],1,left,['8'],4,0.7845083000001978,0.2,0,FastFast,15,18,Woman,Right,
11,5,1,1.1170178000002124,['c'],0,right,['8'],4,0.984544200000073,0.2,0,FastFast,15,18,Woman,Right,
12,5,1,1.2663993000001028,['c'],0,right,['1'],1,2.1676438999998027,0.4,0,FastFast,15,18,Woman,Right,
13,5,1,1.7338783000000149,['n'],1,right,['2'],2,1.6176006999999117,0.4,0,FastFast,15,18,Woman,Right,
14,5,1,1.08353599999964,['c'],0,right,['8'],4,0.9511889000000338,0.1,0,FastFast,15,18,Woman,Right,
15,5,1,0.7168080000001282,['c'],1,left,['8'],4,1.2008127999997669,0.4,0,FastFast,15,18,Woman,Right,
16,5,1,0.7830463999998756,['c'],1,left,['9'],5,1.1013199000003624,0.4,0,FastFast,15,18,Woman,Right,
17,5,1,1.0665309000000889,['c'],1,left,['9'],5,1.0512408999998115,0.1,0,FastFast,15,18,Woman,Right,
18,5,1,1.0336664999999812,['c'],1,left,['8'],4,1.067889599999944,0.2,0,FastFast,15,18,Woman,Right,
19,5,1,1.6661244000001716,['c'],1,left,['3'],3,3.35082280000006,0.2,0,FastFast,15,18,Woman,Right,
20,5,1,0.8670019999999568,['c'],1,left,['9'],5,0.8511465999999928,0.1,0,FastFast,15,18,Woman,Right,
21,5,1,1.1843333000001621,['c'],0,right,['3'],3,1.9176535000001422,0.2,0,FastFast,15,18,Woman,Right,
22,5,1,0.9992169000001923,['c'],0,right,['8'],4,2.3680623000000196,0.1,0,FastFast,15,18,Woman,Right,
23,5,1,0.6004508000000897,['c'],1,left,['8'],4,2.0179174999998395,0.4,0,FastFast,15,18,Woman,Right,
24,5,1,0.7160789999998087,['c'],1,left,['3'],3,1.6681780000003528,0.1,0,FastFast,15,18,Woman,Right,
25,5,1,1.1670168000000558,['n'],0,left,['2'],2,1.0173280000003615,0.1,0,FastFast,15,18,Woman,Right,
26,5,1,0.8832601999997678,['n'],1,right,['1'],1,1.8843590000001313,0.4,0,FastFast,15,18,Woman,Right,
27,5,1,0.7335367999999107,['n'],1,right,['3'],3,2.0843480999997155,0.2,0,FastFast,15,18,Woman,Right,
28,5,1,0.9504645000001801,['n'],1,right,['8'],4,1.2330659999997806,0.2,0,FastFast,15,18,Woman,Right,
29,5,1,0.7509924999999384,['c'],0,right,['8'],4,0.984911000000011,0.1,0,FastFast,15,18,Woman,Right,
30,5,1,0.8830700999997134,['c'],0,right,['3'],3,1.6185409999998228,0.1,0,FastFast,15,18,Woman,Right,
31,5,1,0.9000849000003655,['c'],0,right,['2'],2,0.9679089999999633,0.1,0,FastFast,15,18,Woman,Right,
32,5,1,2.2498789999999644,['n'],0,left,['8'],4,1.1671551999997973,0.1,0,FastFast,15,18,Woman,Right,
33,5,1,1.083679299999858,['c'],1,left,['8'],4,1.5176820000001499,0.2,0,FastFast,15,18,Woman,Right,
34,5,1,1.000434800000221,['c'],0,right,['9'],5,0.6347093999997924,0.4,0,FastFast,15,18,Woman,Right,
35,5,1,1.2173584000001938,['c'],1,left,['0'],6,0.8350156000001334,0.1,0,FastFast,15,18,Woman,Right,
36,5,1,1.3002603999998428,['c'],0,right,['3'],3,1.9511227999996663,0.1,0,FastFast,15,18,Woman,Right,
37,5,1,1.3829020000002856,['n'],1,right,['8'],4,1.16731609999988,0.4,0,FastFast,15,18,Woman,Right,
38,5,1,0.8166400000000067,['c'],1,left,['8'],4,0.6172934999999597,0.2,0,FastFast,15,18,Woman,Right,
39,5,1,0.9835079999998015,['n'],1,right,['8'],4,0.48394610000013927,0.4,0,FastFast,15,18,Woman,Right,
40,5,1,1.0499743000000308,['c'],0,right,['9'],5,0.5511971999999332,0.2,0,FastFast,15,18,Woman,Right,
41,5,1,1.366349700000228,['c'],1,left,['3'],3,0.8679999000000862,0.2,0,FastFast,15,18,Woman,Right,
42,5,1,0.7499814000002516,['c'],1,left,['9'],5,1.3510470000001078,0.2,0,FastFast,15,18,Woman,Right,
43,5,1,0.5674991000000773,['c'],0,right,['8'],4,1.434374299999945,0.1,0,FastFast,15,18,Woman,Right,
44,5,1,0.6005690000001778,['c'],0,right,['2'],2,1.0845439999998234,0.4,0,FastFast,15,18,Woman,Right,
45,5,1,0.6497136000002683,['c'],1,left,['3'],3,1.1354190000001836,0.4,0,FastFast,15,18,Woman,Right,
46,5,1,1.2488758999998026,['c'],1,left,['8'],4,1.300428600000032,0.2,0,FastFast,15,18,Woman,Right,
47,5,1,1.532595499999843,['c'],1,left,['3'],3,2.1014499000002616,0.4,0,FastFast,15,18,Woman,Right,
48,5,1,0.9500812000001133,['n'],0,left,['8'],4,2.084154799999851,0.2,0,FastFast,15,18,Woman,Right,
49,5,1,1.1495233999999073,['c'],0,right,['2'],2,2.067634300000009,0.4,0,FastFast,15,18,Woman,Right,
50,5,1,1.6496305999999095,['c'],0,right,['8'],4,1.7177707999999257,0.1,0,FastFast,15,18,Woman,Right,
51,5,1,1.4003269999998338,['c'],0,right,['2'],2,1.733638599999722,0.4,0,FastFast,15,18,Woman,Right,
52,5,1,1.1333650999999918,['c'],1,left,['8'],4,1.9678317000002608,0.2,0,FastFast,15,18,Woman,Right,
53,5,1,0.8165334999998777,['c'],0,right,['8'],4,0.7847315000003618,0.2,0,FastFast,15,18,Woman,Right,
54,5,1,1.0501091000000997,['c'],0,right,['8'],4,0.5348394000002372,0.2,0,FastFast,15,18,Woman,Right,
55,5,1,1.0839206999999078,['c'],1,left,['9'],5,1.1014648999998826,0.4,0,FastFast,15,18,Woman,Right,
56,5,1,1.3160898999999517,['c'],1,left,['9'],5,0.8677333000000544,0.1,0,FastFast,15,18,Woman,Right,
57,5,1,1.6669600000000173,['c'],1,left,['0'],6,1.3674946000001,0.4,0,FastFast,15,18,Woman,Right,
58,5,1,1.0339564999999311,['c'],0,right,['8'],4,0.917816799999855,0.1,0,FastFast,15,18,Woman,Right,
59,5,1,1.0826382000000194,['c'],1,left,['8'],4,0.7508867999999893,0.2,0,FastFast,15,18,Woman,Right,
0,6,1,1.150087199999689,['c'],1,left,['9'],5,0.9517911000002641,0.4,0,AccFast,15,18,Woman,Right,
1,6,1,2.2668742999999267,['c'],1,left,['9'],5,1.5179659999998876,0.4,0,AccFast,15,18,Woman,Right,
2,6,1,2.3836378000000877,['c'],0,right,['2'],2,1.6679791000001387,0.4,0,AccFast,15,18,Woman,Right,
3,6,1,1.5840070999997806,['n'],1,right,['9'],5,1.234017600000243,0.4,0,AccFast,15,18,Woman,Right,
4,6,1,1.1170959000000948,['c'],1,left,['9'],5,1.1506583999998838,0.2,0,AccFast,15,18,Woman,Right,
5,6,1,1.4000295000000733,['c'],1,left,['8'],4,1.0178568999999698,0.1,0,AccFast,15,18,Woman,Right,
6,6,1,1.8836393000001408,['c'],0,right,['2'],2,0.7339918000002399,0.1,0,AccFast,15,18,Woman,Right,
7,6,1,2.7665169000001697,['n'],1,right,['2'],2,1.0012140999997428,0.4,0,AccFast,15,18,Woman,Right,
8,6,1,1.3165121000001818,['c'],1,left,['8'],4,0.6010465999997905,0.2,0,AccFast,15,18,Woman,Right,
9,6,1,1.266146199999639,['c'],1,left,['8'],4,0.6177751000000171,0.2,0,AccFast,15,18,Woman,Right,
10,6,1,1.6500661000000036,['n'],1,right,['2'],2,0.984798999999839,0.4,0,AccFast,15,18,Woman,Right,
11,6,1,1.3503919999998288,['c'],1,left,['8'],4,0.9011249000000134,0.1,0,AccFast,15,18,Woman,Right,
12,6,1,1.3165428000002066,['c'],0,right,['8'],4,0.9839249000001473,0.2,0,AccFast,15,18,Woman,Right,
13,6,1,1.133826599999793,['c'],0,right,['3'],3,1.934492699999737,0.2,0,AccFast,15,18,Woman,Right,
14,6,1,2.2506564000000253,['c'],1,left,['8'],4,0.8844717000001765,0.1,0,AccFast,15,18,Woman,Right,
15,6,1,3.233106399999997,['c'],0,right,['3'],3,2.4009385999997903,0.2,0,AccFast,15,18,Woman,Right,
16,6,1,1.7838274999999157,['c'],1,left,['8'],4,0.7350006000001486,0.2,0,AccFast,15,18,Woman,Right,
17,6,1,1.416867899999943,['c'],0,right,['3'],3,2.017524500000036,0.1,0,AccFast,15,18,Woman,Right,
18,6,1,3.150726399999712,['n'],1,right,['8'],4,1.2007316999997784,0.2,0,AccFast,15,18,Woman,Right,
19,6,1,1.7494654000001901,['c'],0,right,['3'],3,1.2007663000003959,0.2,0,AccFast,15,18,Woman,Right,
20,6,1,1.867913800000224,['n'],1,right,['8'],4,2.4677915999996003,0.4,0,AccFast,15,18,Woman,Right,
21,6,1,1.2821355999999469,['c'],1,left,['8'],4,2.8011451000002126,0.2,0,AccFast,15,18,Woman,Right,
22,6,1,1.499636399999872,['c'],1,left,['8'],4,0.8507988999999725,0.2,0,AccFast,15,18,Woman,Right,
23,6,1,2.2335221999996975,['c'],0,right,['3'],3,1.4011641000001873,0.2,0,AccFast,15,18,Woman,Right,
24,6,1,4.032298600000104,['c'],1,left,['8'],4,1.801571899999999,0.1,0,AccFast,15,18,Woman,Right,
25,6,1,4.0333559000000605,['c'],0,right,['2'],2,1.4513683999998648,0.1,0,AccFast,15,18,Woman,Right,
26,6,1,1.8835300999999163,['c'],1,left,['8'],4,0.9344031000000541,0.1,0,AccFast,15,18,Woman,Right,
27,6,1,3.116285699999935,['c'],1,left,['3'],3,1.0512113999998292,0.1,0,AccFast,15,18,Woman,Right,
28,6,1,2.050265500000023,['n'],0,left,['8'],4,1.4847460999999385,0.1,0,AccFast,15,18,Woman,Right,
29,6,1,1.9168313999998645,['n'],1,right,['8'],4,0.7513294000000315,0.4,0,AccFast,15,18,Woman,Right,
30,6,1,2.3501564999996845,['c'],0,right,['2'],2,1.1511353000000781,0.4,0,AccFast,15,18,Woman,Right,
31,6,1,1.5494526000002224,['n'],1,right,['8'],4,1.1515553999997792,0.4,0,AccFast,15,18,Woman,Right,
32,6,1,2.249800099999902,['n'],1,right,['8'],4,1.3345901000002414,0.1,0,AccFast,15,18,Woman,Right,
33,6,1,1.0333158000003095,['c'],1,left,['3'],3,1.5177541000002748,0.2,0,AccFast,15,18,Woman,Right,
34,6,1,1.6335049999997864,['c'],1,left,['8'],4,1.2672796000001654,0.4,0,AccFast,15,18,Woman,Right,
35,6,1,1.3835792999998375,['c'],1,left,['9'],5,0.7835715000001073,0.1,0,AccFast,15,18,Woman,Right,
36,6,1,1.6004072999999153,['c'],1,left,['9'],5,0.8846134000000347,0.4,0,AccFast,15,18,Woman,Right,
37,6,1,1.6668495999997504,['c'],0,right,['8'],4,0.8012886999999864,0.1,0,AccFast,15,18,Woman,Right,
38,6,1,2.0993924999997944,['c'],1,left,['3'],3,1.5686725000000479,0.1,0,AccFast,15,18,Woman,Right,
39,6,1,2.0998515999999654,['n'],1,right,['8'],4,1.0512002999998913,0.4,0,AccFast,15,18,Woman,Right,
40,6,1,1.6841973000000507,['c'],1,left,['9'],5,2.1344437999996444,0.4,0,AccFast,15,18,Woman,Right,
41,6,1,2.416087399999924,['n'],1,right,['8'],4,1.884917200000018,0.1,0,AccFast,15,18,Woman,Right,
42,6,1,1.4000707999998667,['n'],1,right,['8'],4,0.4009587000000465,0.2,0,AccFast,15,18,Woman,Right,
43,6,1,1.6336022000000412,['n'],0,left,['3'],3,0.9011208000001716,0.1,0,AccFast,15,18,Woman,Right,
44,6,1,1.7999941000002764,['n'],1,right,['8'],4,1.0186895000001641,0.4,0,AccFast,15,18,Woman,Right,
45,6,1,2.3334125000001222,['c'],1,left,['8'],4,1.5506604000001971,0.2,0,AccFast,15,18,Woman,Right,
46,6,1,1.450814900000296,['n'],1,right,['9'],5,1.1177157000001898,0.4,0,AccFast,15,18,Woman,Right,
47,6,1,2.100542099999984,['c'],0,right,['3'],3,1.084415700000136,0.4,0,AccFast,15,18,Woman,Right,
48,6,1,2.867630100000042,['c'],0,right,['3'],3,0.8175691999999799,0.2,0,AccFast,15,18,Woman,Right,
49,6,1,3.000146400000176,['n'],0,left,['2'],2,0.8173576999997749,0.1,0,AccFast,15,18,Woman,Right,
50,6,1,2.516608500000075,['c'],0,right,['2'],2,0.617753300000004,0.2,0,AccFast,15,18,Woman,Right,
51,6,1,2.250603200000114,['c'],1,left,['8'],4,1.6335904000002301,0.4,0,AccFast,15,18,Woman,Right,
52,6,1,2.0335112999996454,['c'],0,right,['3'],3,2.584157299999788,0.1,0,AccFast,15,18,Woman,Right,
53,6,1,1.916942199999994,['c'],1,left,['8'],4,0.5177984000001743,0.4,0,AccFast,15,18,Woman,Right,
54,6,1,3.950226500000099,['c'],1,left,['3'],3,1.1344112000001587,0.1,0,AccFast,15,18,Woman,Right,
55,6,1,1.4004800999996405,['n'],1,right,['8'],4,0.6501609000001736,0.2,0,AccFast,15,18,Woman,Right,
56,6,1,2.4663894999998774,['c'],1,left,['8'],4,0.3510793000000376,0.2,0,AccFast,15,18,Woman,Right,
57,6,1,3.549109199999748,['n'],1,right,['3'],3,0.7508941000000959,0.2,0,AccFast,15,18,Woman,Right,
58,6,1,1.3170376999996734,['c'],1,left,['9'],5,0.8011335999999574,0.4,0,AccFast,15,18,Woman,Right,
59,6,1,2.6503404999998565,['c'],1,left,['3'],3,0.9349489000001086,0.1,0,AccFast,15,18,Woman,Right,
0,7,1,1.8511297000000013,['c'],1,left,['8'],4,1.6175226000000293,0.4,0,AccAcc,15,18,Woman,Right,
1,7,1,0.9339577000000645,['c'],1,left,['9'],5,1.151210799999717,0.4,0,AccAcc,15,18,Woman,Right,
2,7,1,1.6333454999999049,['n'],1,right,['8'],4,1.366944500000045,0.4,0,AccAcc,15,18,Woman,Right,
3,7,1,1.3672581999999238,['c'],1,left,['9'],5,0.884154700000181,0.4,0,AccAcc,15,18,Woman,Right,
4,7,1,2.433260899999823,['c'],0,right,['8'],4,2.067740599999979,0.1,0,AccAcc,15,18,Woman,Right,
5,7,1,2.583346899999924,['c'],1,left,['2'],2,2.9677566000000297,0.1,0,AccAcc,15,18,Woman,Right,
6,7,1,2.984356299999945,['c'],0,right,['8'],4,1.551082100000258,0.2,0,AccAcc,15,18,Woman,Right,
7,7,1,1.86706520000007,['c'],0,right,['8'],4,1.5002905999999712,0.1,0,AccAcc,15,18,Woman,Right,
8,7,1,1.8336558999999397,['c'],0,right,['8'],4,1.0344844999999623,0.4,0,AccAcc,15,18,Woman,Right,
9,7,1,2.3000984000000244,['n'],1,right,['8'],4,0.8852997000003597,0.1,0,AccAcc,15,18,Woman,Right,
10,7,1,1.5500594000000092,['c'],1,left,['9'],5,0.7178894999997283,0.2,0,AccAcc,15,18,Woman,Right,
11,7,1,2.1341966999998476,['n'],1,right,['9'],5,0.8006908000002113,0.1,0,AccAcc,15,18,Woman,Right,
12,7,1,1.8168895999997403,['n'],1,right,['2'],2,1.7510996999999406,0.1,0,AccAcc,15,18,Woman,Right,
13,7,1,1.383065500000157,['c'],1,left,['9'],5,0.767644399999881,0.2,0,AccAcc,15,18,Woman,Right,
14,7,1,1.5342319999999745,['c'],1,left,['9'],5,0.801758399999926,0.4,0,AccAcc,15,18,Woman,Right,
15,7,1,1.0000644000001557,['c'],1,left,['9'],5,0.9178876999999375,0.4,0,AccAcc,15,18,Woman,Right,
16,7,1,1.33345509999981,['c'],0,right,['8'],4,0.9508376000003409,0.1,0,AccAcc,15,18,Woman,Right,
17,7,1,1.533365700000104,['c'],1,left,['8'],4,0.9842822000000524,0.4,0,AccAcc,15,18,Woman,Right,
18,7,1,1.8170602000000144,['n'],0,left,['2'],2,0.9671816999998555,0.1,0,AccAcc,15,18,Woman,Right,
19,7,1,1.9672700999999506,['c'],1,left,['9'],5,1.4340516999995998,0.4,0,AccAcc,15,18,Woman,Right,
20,7,1,1.6988218000001325,['c'],1,left,['8'],4,0.9175416999996742,0.4,0,AccAcc,15,18,Woman,Right,
21,7,1,1.6843312000000878,['c'],1,left,['8'],4,0.7674017999997886,0.2,0,AccAcc,15,18,Woman,Right,
22,7,1,1.4331202000003032,['c'],0,right,['8'],4,0.8013724000002185,0.2,0,AccAcc,15,18,Woman,Right,
23,7,1,1.7503053999998883,['c'],0,right,['3'],3,0.5846473999999944,0.1,0,AccAcc,15,18,Woman,Right,
24,7,1,1.367367600000307,['c'],1,left,['8'],4,1.3180655000001025,0.4,0,AccAcc,15,18,Woman,Right,
25,7,1,1.6671291000002384,['c'],1,left,['9'],5,1.4512265000003026,0.2,0,AccAcc,15,18,Woman,Right,
26,7,1,1.2004971000001206,['c'],1,left,['9'],5,0.6845825000000332,0.1,0,AccAcc,15,18,Woman,Right,
27,7,1,1.81688800000029,['c'],0,right,['8'],4,0.6020548999999846,0.1,0,AccAcc,15,18,Woman,Right,
28,7,1,1.1828766999997242,['n'],1,right,['8'],4,0.684480099999746,0.2,0,AccAcc,15,18,Woman,Right,
29,7,1,1.5160954000002675,['c'],1,left,['8'],4,1.0012707999999293,0.2,0,AccAcc,15,18,Woman,Right,
30,7,1,1.7333770999998706,['c'],0,right,['3'],3,2.0844978999998602,0.2,0,AccAcc,15,18,Woman,Right,
31,7,1,2.0669118999999228,['n'],1,right,['9'],5,1.0677629999995588,0.2,0,AccAcc,15,18,Woman,Right,
32,7,1,0.8008653000001686,['c'],1,left,['9'],5,0.9344759000000522,0.2,0,AccAcc,15,18,Woman,Right,
33,7,1,2.6663507000002937,['n'],1,right,['2'],2,0.7847727999997005,0.2,0,AccAcc,15,18,Woman,Right,
34,7,1,1.916436099999828,['n'],1,right,['8'],4,1.3176518999998734,0.4,0,AccAcc,15,18,Woman,Right,
35,7,1,1.1172679999999673,['c'],0,right,['8'],4,2.9513185000000703,0.2,0,AccAcc,15,18,Woman,Right,
36,7,1,3.2494575999999142,['n'],1,right,['8'],4,3.068197500000224,0.2,0,AccAcc,15,18,Woman,Right,
37,7,1,1.733205800000178,['c'],0,right,['8'],4,0.9347816999998031,0.1,0,AccAcc,15,18,Woman,Right,
38,7,1,1.783667499999865,['c'],1,left,['8'],4,2.051155000000108,0.1,0,AccAcc,15,18,Woman,Right,
39,7,1,1.7664371999999275,['c'],1,left,['9'],5,0.7514720999997735,0.4,0,AccAcc,15,18,Woman,Right,
40,7,1,1.1503812000000835,['c'],1,left,['9'],5,0.6169296999996732,0.4,0,AccAcc,15,18,Woman,Right,
41,7,1,2.5664747000000716,['n'],1,right,['3'],3,0.8679957999997896,0.1,0,AccAcc,15,18,Woman,Right,
42,7,1,1.4994400000000496,['c'],1,left,['8'],4,0.9513081000000057,0.1,0,AccAcc,15,18,Woman,Right,
43,7,1,1.549687400000039,['c'],1,left,['8'],4,1.0179493999999067,0.2,0,AccAcc,15,18,Woman,Right,
44,7,1,1.0334179000001313,['c'],0,right,['8'],4,1.0177238000001125,0.1,0,AccAcc,15,18,Woman,Right,
45,7,1,1.184185399999933,['c'],1,left,['9'],5,1.5509743000002345,0.1,0,AccAcc,15,18,Woman,Right,
46,7,1,1.7173902999998063,['c'],1,left,['9'],5,1.1339996999995492,0.1,0,AccAcc,15,18,Woman,Right,
47,7,1,2.4499151999998503,['c'],0,right,['3'],3,1.1180131999999503,0.4,0,AccAcc,15,18,Woman,Right,
48,7,1,2.2330120999999963,['c'],0,right,['8'],4,1.3177519000000757,0.4,0,AccAcc,15,18,Woman,Right,
49,7,1,1.534120200000416,['c'],1,left,['8'],4,1.3008829000000333,0.2,0,AccAcc,15,18,Woman,Right,
50,7,1,2.583617000000231,['c'],1,left,['8'],4,0.8681878000002143,0.2,0,AccAcc,15,18,Woman,Right,
51,7,1,2.1335071999997126,['n'],1,right,['9'],5,1.8011948999997003,0.4,0,AccAcc,15,18,Woman,Right,
52,7,1,1.6341283000001567,['c'],0,right,['3'],3,2.034351599999809,0.2,0,AccAcc,15,18,Woman,Right,
53,7,1,1.4328340999995817,['c'],1,left,['9'],5,0.8011065000000599,0.2,0,AccAcc,15,18,Woman,Right,
54,7,1,1.4667954000001373,['c'],1,left,['9'],5,1.0512615999996342,0.2,0,AccAcc,15,18,Woman,Right,
55,7,1,2.350362900000164,['n'],1,right,['8'],4,1.3180178999996315,0.4,0,AccAcc,15,18,Woman,Right,
56,7,1,2.066484600000422,['c'],0,right,['2'],2,1.7513702000001103,0.4,0,AccAcc,15,18,Woman,Right,
57,7,1,1.9834034999998948,['n'],1,right,['8'],4,1.150601800000004,0.4,0,AccAcc,15,18,Woman,Right,
58,7,1,2.1165562999999565,['c'],0,right,['3'],3,0.7669630999998844,0.1,0,AccAcc,15,18,Woman,Right,
59,7,1,1.533582199999728,['c'],1,left,['9'],5,0.6010989000001246,0.1,0,AccAcc,15,18,Woman,Right,
0,8,1,1.750228999999763,['c'],1,left,['8'],4,1.9676853999999366,0.1,0,FastAcc,15,18,Woman,Right,
1,8,1,0.5675851999999395,['n'],1,right,['3'],3,0.8667897999998786,0.2,0,FastAcc,15,18,Woman,Right,
2,8,1,0.7669362999999976,['n'],1,right,['8'],4,1.768106699999862,0.2,0,FastAcc,15,18,Woman,Right,
3,8,1,0.6665270999997119,['c'],1,left,['8'],4,1.1183264999999665,0.1,0,FastAcc,15,18,Woman,Right,
4,8,1,1.0006975000001148,['c'],0,right,['3'],3,1.7345037000000048,0.4,0,FastAcc,15,18,Woman,Right,
5,8,1,0.5498288999997385,['c'],1,left,['8'],4,1.1178529999997409,0.2,0,FastAcc,15,18,Woman,Right,
6,8,1,0.9836945000001833,['c'],0,right,['3'],3,1.5676281000000927,0.4,0,FastAcc,15,18,Woman,Right,
7,8,1,0.8336060000001453,['n'],0,left,['8'],4,2.401125200000024,0.4,0,FastAcc,15,18,Woman,Right,
8,8,1,1.6497770999999375,['c'],1,left,['9'],5,1.7677048999998988,0.1,0,FastAcc,15,18,Woman,Right,
9,8,1,1.2998843000000306,['c'],1,left,['3'],3,1.7339216000000306,0.1,0,FastAcc,15,18,Woman,Right,
10,8,1,0.850628499999857,['c'],1,left,['8'],4,1.7342447000000902,0.4,0,FastAcc,15,18,Woman,Right,
11,8,1,1.483694900000046,['n'],1,right,['8'],4,1.4842209000003095,0.4,0,FastAcc,15,18,Woman,Right,
12,8,1,1.9004695999997239,['n'],1,right,['2'],2,1.4344068999998854,0.1,0,FastAcc,15,18,Woman,Right,
13,8,1,1.0004586000000018,['c'],0,right,['2'],2,2.8346189999997478,0.4,0,FastAcc,15,18,Woman,Right,
14,8,1,1.7838203999999678,['c'],0,right,['8'],4,2.3174832999998216,0.4,0,FastAcc,15,18,Woman,Right,
15,8,1,1.6168358999998418,['c'],0,right,['2'],2,1.551052300000265,0.1,0,FastAcc,15,18,Woman,Right,
16,8,1,0.6503257999997913,['c'],1,left,['8'],4,2.2674820000002,0.1,0,FastAcc,15,18,Woman,Right,
17,8,1,0.9501886000002742,['c'],1,left,['3'],3,3.001107300000058,0.1,0,FastAcc,15,18,Woman,Right,
18,8,1,1.0169040000000678,['c'],1,left,['8'],4,1.717927299999701,0.1,0,FastAcc,15,18,Woman,Right,
19,8,1,1.3836491000001843,['c'],0,right,['8'],4,1.484298200000012,0.4,0,FastAcc,15,18,Woman,Right,
20,8,1,1.400405100000171,['c'],0,right,['3'],3,3.7341152000003603,0.2,0,FastAcc,15,18,Woman,Right,
21,8,1,1.1337398000000576,['n'],1,right,['3'],3,2.417362400000002,0.2,0,FastAcc,15,18,Woman,Right,
22,8,1,0.716641299999992,['c'],1,left,['8'],4,1.1347356999999647,0.2,0,FastAcc,15,18,Woman,Right,
23,8,1,1.2834192999998777,['c'],1,left,['2'],2,2.3844200999997156,0.1,0,FastAcc,15,18,Woman,Right,
24,8,1,1.3837712999998075,['c'],0,right,['8'],4,1.6662790000000314,0.2,0,FastAcc,15,18,Woman,Right,
25,8,1,1.1677114999997684,['c'],1,left,['8'],4,1.6347145999998247,0.2,0,FastAcc,15,18,Woman,Right,
26,8,1,0.9663266000002295,['c'],1,left,['8'],4,1.9182475999996313,0.1,0,FastAcc,15,18,Woman,Right,
27,8,1,1.7833067999999912,['n'],1,right,['2'],2,1.0510144999998374,0.2,0,FastAcc,15,18,Woman,Right,
28,8,1,1.3838057000002664,['c'],0,right,['8'],4,1.3172881000000416,0.2,0,FastAcc,15,18,Woman,Right,
29,8,1,1.8833502000002227,['c'],0,right,['3'],3,2.7846347999998216,0.2,0,FastAcc,15,18,Woman,Right,
30,8,1,1.6988122000002477,['n'],1,right,['3'],3,3.4506020999997418,0.1,0,FastAcc,15,18,Woman,Right,
31,8,1,0.9167023999998491,['c'],0,right,['8'],4,1.0513393999999607,0.4,0,FastAcc,15,18,Woman,Right,
32,8,1,0.650315800000044,['c'],0,right,['2'],2,1.2677954000000682,0.1,0,FastAcc,15,18,Woman,Right,
33,8,1,1.0003520999998727,['n'],0,left,['3'],3,3.600576600000295,0.1,0,FastAcc,15,18,Woman,Right,
34,8,1,0.8671395999999731,['c'],1,left,['8'],4,1.451079800000116,0.4,0,FastAcc,15,18,Woman,Right,
35,8,1,1.3174349999999322,['c'],1,left,['8'],4,2.1013098999997055,0.1,0,FastAcc,15,18,Woman,Right,
36,8,1,1.7662559999998848,['c'],1,left,['8'],4,1.40119519999962,0.2,0,FastAcc,15,18,Woman,Right,
37,8,1,1.333487999999761,['c'],0,right,['2'],2,2.5677809000003435,0.4,0,FastAcc,15,18,Woman,Right,
38,8,1,1.7836621000001287,['n'],1,right,['8'],4,1.4515671999997721,0.2,0,FastAcc,15,18,Woman,Right,
39,8,1,1.283727099999851,['n'],1,right,['8'],4,1.7671887999999853,0.4,0,FastAcc,15,18,Woman,Right,
40,8,1,1.0337885000003553,['c'],1,left,['8'],4,2.467361299999993,0.4,0,FastAcc,15,18,Woman,Right,
41,8,1,2.0324264999999286,['n'],1,right,['3'],3,3.451607200000126,0.1,0,FastAcc,15,18,Woman,Right,
42,8,1,1.8995026000002326,['n'],1,right,['8'],4,1.3345198000001801,0.2,0,FastAcc,15,18,Woman,Right,
43,8,1,0.9660570000000916,['c'],1,left,['3'],3,2.3174407999999858,0.1,0,FastAcc,15,18,Woman,Right,
44,8,1,1.700604999999996,['c'],1,left,['8'],4,2.5338615000000573,0.2,0,FastAcc,15,18,Woman,Right,
45,8,1,1.3835025999997015,['c'],1,left,['3'],3,2.450985800000126,0.2,0,FastAcc,15,18,Woman,Right,
46,8,1,0.6495655000003353,['c'],1,left,['8'],4,2.01758400000017,0.1,0,FastAcc,15,18,Woman,Right,
47,8,1,1.4673327999998946,['c'],0,right,['3'],3,2.967045599999892,0.2,0,FastAcc,15,18,Woman,Right,
48,8,1,1.1671670000000631,['c'],1,left,['3'],3,1.1833136000000195,0.4,0,FastAcc,15,18,Woman,Right,
49,8,1,1.7505800999997518,['n'],1,right,['2'],2,2.3675995999997212,0.1,0,FastAcc,15,18,Woman,Right,
50,8,1,1.1504190000000563,['n'],1,right,['8'],4,1.3513555999998061,0.4,0,FastAcc,15,18,Woman,Right,
51,8,1,1.166610700000092,['c'],1,left,['3'],3,2.367276999999831,0.2,0,FastAcc,15,18,Woman,Right,
52,8,1,0.6502292000000125,['n'],0,left,['3'],3,2.2173498000001928,0.1,0,FastAcc,15,18,Woman,Right,
53,8,1,1.8176352999998926,['n'],0,left,['8'],4,1.8511007000001882,0.4,0,FastAcc,15,18,Woman,Right,
54,8,1,0.9835213000001204,['c'],0,right,['3'],3,3.5511129000001347,0.4,0,FastAcc,15,18,Woman,Right,
55,8,1,1.4162705999997343,['c'],1,left,['8'],4,1.1178465000002689,0.4,0,FastAcc,15,18,Woman,Right,
56,8,1,1.3165884999998525,['c'],1,left,['9'],5,0.8182833999999275,0.2,0,FastAcc,15,18,Woman,Right,
57,8,1,2.016907700000047,['c'],1,left,['3'],3,1.8507983999998032,0.4,0,FastAcc,15,18,Woman,Right,
58,8,1,0.8664864000002126,['n'],1,right,['8'],4,2.717921599999954,0.4,0,FastAcc,15,18,Woman,Right,
59,8,1,1.0503028000002814,['n'],1,right,['3'],3,2.8841969000000063,0.2,0,FastAcc,15,18,Woman,Right,
0,9,1,0.8009143999997832,['c'],0,right,['8'],4,1.3843689999998787,0.4,0,FastFast,15,18,Woman,Right,
1,9,1,0.5336738999999397,['n'],1,right,['8'],4,1.3676588000002994,0.4,0,FastFast,15,18,Woman,Right,
2,9,1,0.7666509999999107,['c'],0,right,['8'],4,0.901099400000021,0.1,0,FastFast,15,18,Woman,Right,
3,9,1,0.7500322999999298,['n'],1,right,['2'],2,1.0009519999998702,0.4,0,FastFast,15,18,Woman,Right,
4,9,1,0.5163016999999854,['n'],1,right,['3'],3,1.5170107999997526,0.4,0,FastFast,15,18,Woman,Right,
5,9,1,0.8832754000000023,['n'],0,left,['3'],3,1.9514173000002302,0.1,0,FastFast,15,18,Woman,Right,
6,9,1,0.7828218999998171,['c'],1,left,['8'],4,0.7856482999995933,0.4,0,FastFast,15,18,Woman,Right,
7,9,1,1.050260100000287,['c'],1,left,['8'],4,0.951173800000106,0.1,0,FastFast,15,18,Woman,Right,
8,9,1,0.9012684999997873,['c'],1,left,['8'],4,1.0511000000001332,0.4,0,FastFast,15,18,Woman,Right,
9,9,1,1.2505452000000332,['c'],1,left,['8'],4,0.8847544000000198,0.2,0,FastFast,15,18,Woman,Right,
10,9,1,1.3166747000000214,['c'],0,right,['8'],4,0.46791659999962576,0.1,0,FastFast,15,18,Woman,Right,
11,9,1,0.7839897999997447,['c'],1,left,['8'],4,0.35041899999987436,0.4,0,FastFast,15,18,Woman,Right,
12,9,1,1.1499401999999463,['c'],1,left,['8'],4,0.4677131999997073,0.4,0,FastFast,15,18,Woman,Right,
13,9,1,1.499459100000422,['c'],0,right,['8'],4,0.9687440000002425,0.2,0,FastFast,15,18,Woman,Right,
14,9,1,1.5008017999998629,['n'],1,right,['8'],4,0.43448750000015934,0.4,0,FastFast,15,18,Woman,Right,
15,9,1,0.7501354000000902,['c'],1,left,['8'],4,0.3012920999999551,0.1,0,FastFast,15,18,Woman,Right,
16,9,1,1.5502623000002131,['c'],1,left,['3'],3,0.634734600000229,0.2,0,FastFast,15,18,Woman,Right,
17,9,1,1.1169741999997314,['c'],0,right,['3'],3,0.9342397000000346,0.4,0,FastFast,15,18,Woman,Right,
18,9,1,1.0669238999998925,['n'],0,left,['2'],2,0.8512431000003744,0.2,0,FastFast,15,18,Woman,Right,
19,9,1,1.1163225999998758,['c'],0,right,['3'],3,1.2175716000001557,0.2,0,FastFast,15,18,Woman,Right,
20,9,1,0.6498784000000342,['c'],0,right,['3'],3,1.667677100000219,0.4,0,FastFast,15,18,Woman,Right,
21,9,1,0.9172105000002375,['n'],1,right,['8'],4,1.7678252000000612,0.1,0,FastFast,15,18,Woman,Right,
22,9,1,0.8666998999997304,['c'],1,left,['3'],3,0.7680955000000722,0.2,0,FastFast,15,18,Woman,Right,
23,9,1,1.1665731999996751,['c'],0,right,['8'],4,0.7838827999999012,0.1,0,FastFast,15,18,Woman,Right,
24,9,1,1.717304900000272,['n'],1,right,['3'],3,0.8178288999997676,0.1,0,FastFast,15,18,Woman,Right,
25,9,1,1.533316499999728,['n'],1,right,['3'],3,1.317725899999914,0.2,0,FastFast,15,18,Woman,Right,
26,9,1,1.84985880000022,['c'],1,left,['8'],4,1.351144000000204,0.1,0,FastFast,15,18,Woman,Right,
27,9,1,1.2159907999998723,['n'],1,right,['8'],4,0.5184253000002172,0.4,0,FastFast,15,18,Woman,Right,
28,9,1,1.1328264999997373,['c'],0,right,['8'],4,0.4328881999999794,0.1,0,FastFast,15,18,Woman,Right,
29,9,1,1.2170816999996532,['n'],1,right,['8'],4,0.40131990000008955,0.2,0,FastFast,15,18,Woman,Right,
30,9,1,0.9672789999999623,['c'],1,left,['3'],3,0.9330102999997507,0.1,0,FastFast,15,18,Woman,Right,
31,9,1,1.1167108999998163,['c'],1,left,['2'],2,1.233573299999989,0.2,0,FastFast,15,18,Woman,Right,
32,9,1,0.6338745000002746,['n'],1,right,['3'],3,0.9330184999998892,0.2,0,FastFast,15,18,Woman,Right,
33,9,1,1.1004872999997133,['n'],0,left,['3'],3,2.5014769999997952,0.1,0,FastFast,15,18,Woman,Right,
34,9,1,2.1001846999997724,['c'],0,right,['8'],4,0.5677945000002182,0.2,0,FastFast,15,18,Woman,Right,
35,9,1,0.9172943999997187,['c'],0,right,['3'],3,0.6838422000000719,0.1,0,FastFast,15,18,Woman,Right,
36,9,1,1.0662602000002153,['c'],1,left,['8'],4,0.5014562999999725,0.1,0,FastFast,15,18,Woman,Right,
37,9,1,1.7676548999997976,['c'],1,left,['3'],3,0.9346254000001863,0.2,0,FastFast,15,18,Woman,Right,
38,9,1,0.7331583000000137,['n'],0,left,['3'],3,0.9018434999998135,0.4,0,FastFast,15,18,Woman,Right,
39,9,1,0.7002837,['c'],1,left,['8'],4,1.067619299999933,0.4,0,FastFast,15,18,Woman,Right,
40,9,1,0.6833192999997664,['c'],1,left,['8'],4,0.8683861000004072,0.4,0,FastFast,15,18,Woman,Right,
41,9,1,1.4834117999998853,['n'],1,right,['2'],2,0.8179583000001003,0.1,0,FastFast,15,18,Woman,Right,
42,9,1,1.4166852000003018,['c'],0,right,['8'],4,0.8845761000002312,0.2,0,FastFast,15,18,Woman,Right,
43,9,1,1.1168265000001156,['n'],1,right,['3'],3,0.7004953999999088,0.2,0,FastFast,15,18,Woman,Right,
44,9,1,1.5170937000002596,['c'],1,left,['8'],4,0.7012030999999297,0.1,0,FastFast,15,18,Woman,Right,
45,9,1,1.399163999999928,['c'],1,left,['8'],4,0.5846207999998114,0.4,0,FastFast,15,18,Woman,Right,
46,9,1,1.2499450999998771,['n'],1,right,['8'],4,0.434552100000019,0.2,0,FastFast,15,18,Woman,Right,
47,9,1,0.6838748999998643,['c'],1,left,['8'],4,0.6180512000000817,0.2,0,FastFast,15,18,Woman,Right,
48,9,1,1.399948299999778,['c'],1,left,['8'],4,0.4344987999998011,0.2,0,FastFast,15,18,Woman,Right,
49,9,1,1.0503538000002663,['c'],0,right,['2'],2,0.9844920999998976,0.1,0,FastFast,15,18,Woman,Right,
50,9,1,0.8169920000000275,['c'],0,right,['8'],4,1.0015674999999646,0.2,0,FastFast,15,18,Woman,Right,
51,9,1,0.7165912999998909,['c'],1,left,['8'],4,0.43496970000023794,0.4,0,FastFast,15,18,Woman,Right,
52,9,1,1.3332789000000957,['n'],1,right,['9'],5,0.417974100000265,0.4,0,FastFast,15,18,Woman,Right,
53,9,1,1.7832155999999486,['c'],1,left,['8'],4,0.5345078000000285,0.2,0,FastFast,15,18,Woman,Right,
54,9,1,1.1995947999998862,['c'],1,left,['8'],4,0.3846184999997604,0.2,0,FastFast,15,18,Woman,Right,
55,9,1,2.166460299999926,['n'],1,right,['3'],3,1.1012438000002476,0.1,0,FastFast,15,18,Woman,Right,
56,9,1,1.316424999999981,['c'],1,left,['9'],5,0.6013388999999734,0.1,0,FastFast,15,18,Woman,Right,
57,9,1,1.4168008000001464,['n'],1,right,['3'],3,0.6348773000004257,0.4,0,FastFast,15,18,Woman,Right,
58,9,1,0.7839211999998952,['c'],1,left,['9'],5,0.46783419999974285,0.4,0,FastFast,15,18,Woman,Right,
59,9,1,1.4011350000000675,['c'],1,left,['8'],4,0.36794400000007954,0.1,0,FastFast,15,18,Woman,Right,
0,10,1,1.3170073999999659,['c'],0,right,['9'],5,1.4513216999998804,0.2,0,AccFast,15,18,Woman,Right,
1,10,1,1.8827817999999752,['c'],1,left,['8'],4,0.6178746999999021,0.4,0,AccFast,15,18,Woman,Right,
2,10,1,1.9169501999999738,['n'],1,right,['8'],4,0.6842225000000326,0.1,0,AccFast,15,18,Woman,Right,
3,10,1,1.7174534999999196,['n'],1,right,['8'],4,0.5839536000003136,0.2,0,AccFast,15,18,Woman,Right,
4,10,1,2.3337157999999363,['c'],1,left,['8'],4,0.6181618000000526,0.1,0,AccFast,15,18,Woman,Right,
5,10,1,1.8497874999998203,['c'],1,left,['9'],5,0.76813489999995,0.2,0,AccFast,15,18,Woman,Right,
6,10,1,2.5667115000001104,['c'],0,right,['8'],4,0.7840959999998631,0.2,0,AccFast,15,18,Woman,Right,
7,10,1,1.6508171999998922,['n'],1,right,['8'],4,0.634648499999912,0.2,0,AccFast,15,18,Woman,Right,
8,10,1,2.1497989999998026,['c'],0,right,['3'],3,1.5511004999998477,0.4,0,AccFast,15,18,Woman,Right,
9,10,1,1.3338339000001724,['c'],1,left,['8'],4,0.5680198000000019,0.2,0,AccFast,15,18,Woman,Right,
10,10,1,2.766812100000152,['n'],1,right,['2'],2,0.9183926000000611,0.1,0,AccFast,15,18,Woman,Right,
11,10,1,0.9837705999998434,['c'],1,left,['8'],4,0.48453109999991284,0.1,0,AccFast,15,18,Woman,Right,
12,10,1,2.4834022000000004,['c'],1,left,['2'],2,0.817704699999922,0.1,0,AccFast,15,18,Woman,Right,
13,10,1,1.149706900000183,['n'],1,right,['8'],4,0.5181115999998838,0.2,0,AccFast,15,18,Woman,Right,
14,10,1,1.8666580999997677,['c'],0,right,['3'],3,2.1012119000001803,0.2,0,AccFast,15,18,Woman,Right,
15,10,1,1.5999664000000848,['c'],1,left,['9'],5,1.0345467000001918,0.4,0,AccFast,15,18,Woman,Right,
16,10,1,1.8168705999996746,['c'],0,right,['8'],4,0.6347305999997843,0.1,0,AccFast,15,18,Woman,Right,
17,10,1,1.2171430999997028,['c'],1,left,['8'],4,0.5345773999997618,0.4,0,AccFast,15,18,Woman,Right,
18,10,1,2.4165350999996917,['n'],1,right,['3'],3,0.6514532000001054,0.4,0,AccFast,15,18,Woman,Right,
19,10,1,1.5334820000002765,['c'],1,left,['8'],4,0.38443599999982325,0.2,0,AccFast,15,18,Woman,Right,
20,10,1,1.7829162999996697,['c'],0,right,['2'],2,0.5023545000003651,0.4,0,AccFast,15,18,Woman,Right,
21,10,1,1.5830229999996845,['c'],1,left,['3'],3,1.2517525999996906,0.1,0,AccFast,15,18,Woman,Right,
22,10,1,1.8666032999999516,['c'],1,left,['8'],4,0.7684016000002885,0.4,0,AccFast,15,18,Woman,Right,
23,10,1,1.1161397000000761,['c'],1,left,['9'],5,0.5849379000001136,0.1,0,AccFast,15,18,Woman,Right,
24,10,1,1.333527199999935,['c'],1,left,['8'],4,0.5179161000000931,0.4,0,AccFast,15,18,Woman,Right,
25,10,1,2.4338142000001426,['c'],0,right,['3'],3,0.9011731000000509,0.4,0,AccFast,15,18,Woman,Right,
26,10,1,2.683256999999685,['c'],1,left,['3'],3,1.8344085999997333,0.1,0,AccFast,15,18,Woman,Right,
27,10,1,1.115809899999931,['c'],1,left,['8'],4,0.3350528999999369,0.1,0,AccFast,15,18,Woman,Right,
28,10,1,1.3503271000004133,['c'],1,left,['8'],4,0.5177931999996872,0.4,0,AccFast,15,18,Woman,Right,
29,10,1,1.0837516000001415,['c'],1,left,['9'],5,0.9679166000000805,0.4,0,AccFast,15,18,Woman,Right,
30,10,1,2.9010134000000107,['n'],1,right,['8'],4,0.6845522000003257,0.4,0,AccFast,15,18,Woman,Right,
31,10,1,2.116861799999697,['n'],1,right,['2'],2,0.5172293999999056,0.1,0,AccFast,15,18,Woman,Right,
32,10,1,2.1004087000001164,['c'],1,left,['3'],3,0.6171968999997262,0.2,0,AccFast,15,18,Woman,Right,
33,10,1,2.71691009999995,['n'],1,right,['8'],4,0.5845397000002777,0.1,0,AccFast,15,18,Woman,Right,
34,10,1,1.3661921000002621,['c'],0,right,['8'],4,0.36791459999994913,0.2,0,AccFast,15,18,Woman,Right,
35,10,1,0.9833970999998201,['c'],1,left,['8'],4,1.6841749999998683,0.2,0,AccFast,15,18,Woman,Right,
36,10,1,2.117175700000189,['c'],0,right,['8'],4,1.0013005999999223,0.1,0,AccFast,15,18,Woman,Right,
37,10,1,1.5663900999998077,['c'],1,left,['8'],4,0.6512098999996851,0.1,0,AccFast,15,18,Woman,Right,
38,10,1,1.4662152000000788,['n'],1,right,['9'],5,0.9013541999997869,0.4,0,AccFast,15,18,Woman,Right,
39,10,1,1.250459999999748,['n'],1,right,['9'],5,0.5178635000002032,0.4,0,AccFast,15,18,Woman,Right,
40,10,1,2.100652799999807,['c'],0,right,['3'],3,1.0344606999997268,0.1,0,AccFast,15,18,Woman,Right,
41,10,1,2.6837212999998883,['n'],1,right,['2'],2,1.5842416999998932,0.2,0,AccFast,15,18,Woman,Right,
42,10,1,1.350335300000097,['c'],1,left,['8'],4,0.6846959999998035,0.2,0,AccFast,15,18,Woman,Right,
43,10,1,0.8502229000000625,['c'],1,left,['8'],4,0.43467009999994843,0.2,0,AccFast,15,18,Woman,Right,
44,10,1,1.6666873999997733,['n'],1,right,['8'],4,0.43431790000022374,0.4,0,AccFast,15,18,Woman,Right,
45,10,1,1.383631400000013,['c'],1,left,['8'],4,1.0172284000000218,0.2,0,AccFast,15,18,Woman,Right,
46,10,1,1.3166576999997233,['c'],0,right,['3'],3,0.9182140000002619,0.2,0,AccFast,15,18,Woman,Right,
47,10,1,1.4169322000002467,['c'],1,left,['8'],4,0.550314999999955,0.1,0,AccFast,15,18,Woman,Right,
48,10,1,3.61551929999996,['c'],0,right,['2'],2,0.8006473000000369,0.1,0,AccFast,15,18,Woman,Right,
49,10,1,1.7508096999999907,['n'],0,left,['2'],2,0.7008530999996765,0.1,0,AccFast,15,18,Woman,Right,
50,10,1,2.350384000000304,['c'],0,right,['2'],2,0.517618400000174,0.2,0,AccFast,15,18,Woman,Right,
51,10,1,1.8315762999995968,['n'],0,left,['8'],4,0.6017990999998801,0.2,0,AccFast,15,18,Woman,Right,
52,10,1,3.149906600000122,['c'],1,left,['3'],3,1.0164694000000054,0.2,0,AccFast,15,18,Woman,Right,
53,10,1,1.084326200000305,['c'],1,left,['9'],5,0.7012260999999853,0.4,0,AccFast,15,18,Woman,Right,
54,10,1,3.5998693999999887,['n'],1,right,['2'],2,1.167967200000021,0.4,0,AccFast,15,18,Woman,Right,
55,10,1,1.3833912999998574,['n'],1,right,['8'],4,0.9672934000000168,0.4,0,AccFast,15,18,Woman,Right,
56,10,1,1.0662141999996493,['c'],1,left,['8'],4,0.4520450999998502,0.1,0,AccFast,15,18,Woman,Right,
57,10,1,1.7503295000001344,['c'],0,right,['8'],4,0.8349956000001839,0.4,0,AccFast,15,18,Woman,Right,
58,10,1,1.1494706999997106,['n'],1,right,['8'],4,0.7181111999998393,0.4,0,AccFast,15,18,Woman,Right,
59,10,1,0.9665108999997756,['c'],1,left,['8'],4,0.5182152000002134,0.1,0,AccFast,15,18,Woman,Right,
0,11,1,2.067363000000114,['c'],1,left,['8'],4,1.268170899999859,0.1,0,AccAcc,15,18,Woman,Right,
1,11,1,0.6825044000001981,['c'],1,left,['8'],4,0.9010922999996183,0.4,0,AccAcc,15,18,Woman,Right,
2,11,1,1.4171086999999716,['c'],0,right,['3'],3,0.7012660999998843,0.2,0,AccAcc,15,18,Woman,Right,
3,11,1,0.8332228999997824,['c'],1,left,['8'],4,0.6178404000002047,0.4,0,AccAcc,15,18,Woman,Right,
4,11,1,1.783614800000123,['c'],0,right,['2'],2,0.4506991000002927,0.1,0,AccAcc,15,18,Woman,Right,
5,11,1,1.8340911000000233,['c'],1,left,['8'],4,0.6511024000001271,0.2,0,AccAcc,15,18,Woman,Right,
6,11,1,2.082849100000203,['c'],0,right,['2'],2,1.9678666999998313,0.2,0,AccAcc,15,18,Woman,Right,
7,11,1,2.2666548000001967,['c'],0,right,['8'],4,1.2336623999999574,0.2,0,AccAcc,15,18,Woman,Right,
8,11,1,1.3672623000002204,['c'],1,left,['8'],4,0.8184593000000859,0.4,0,AccAcc,15,18,Woman,Right,
9,11,1,2.083592399999816,['n'],1,right,['8'],4,0.8675920000000588,0.4,0,AccAcc,15,18,Woman,Right,
10,11,1,0.7671093999997538,['c'],1,left,['8'],4,0.517869299999802,0.2,0,AccAcc,15,18,Woman,Right,
11,11,1,1.4160993000000417,['c'],1,left,['8'],4,0.551596199999949,0.2,0,AccAcc,15,18,Woman,Right,
12,11,1,1.8325417000000925,['c'],1,left,['8'],4,0.6676039999997556,0.1,0,AccAcc,15,18,Woman,Right,
13,11,1,2.066868599999907,['c'],1,left,['9'],5,1.334882000000107,0.1,0,AccAcc,15,18,Woman,Right,
14,11,1,1.2839725999997427,['c'],1,left,['9'],5,0.6508172999997441,0.2,0,AccAcc,15,18,Woman,Right,
15,11,1,1.6329876999998305,['c'],0,right,['8'],4,1.2006345999998302,0.1,0,AccAcc,15,18,Woman,Right,
16,11,1,1.3168475000002218,['c'],1,left,['8'],4,0.6513021999999182,0.1,0,AccAcc,15,18,Woman,Right,
17,11,1,1.4661356000001433,['n'],1,right,['8'],4,0.5850485999999364,0.4,0,AccAcc,15,18,Woman,Right,
18,11,1,1.3006540000001223,['c'],1,left,['9'],5,1.4679636999999275,0.1,0,AccAcc,15,18,Woman,Right,
19,11,1,1.9827422000003025,['c'],0,right,['8'],4,0.9338152999998783,0.2,0,AccAcc,15,18,Woman,Right,
20,11,1,1.8339907000004132,['c'],1,left,['3'],3,2.4678125000000364,0.1,0,AccAcc,15,18,Woman,Right,
21,11,1,1.033597699999973,['c'],1,left,['8'],4,0.551355600000079,0.4,0,AccAcc,15,18,Woman,Right,
22,11,1,2.299989900000128,['c'],1,left,['8'],4,1.4513637000000017,0.1,0,AccAcc,15,18,Woman,Right,
23,11,1,2.1169270999998844,['n'],1,right,['8'],4,1.2845477000000756,0.2,0,AccAcc,15,18,Woman,Right,
24,11,1,1.5500025999999707,['c'],1,left,['9'],5,1.51778479999939,0.4,0,AccAcc,15,18,Woman,Right,
25,11,1,4.000089500000286,['c'],0,right,['2'],2,0.9505189000001337,0.1,0,AccAcc,15,18,Woman,Right,
26,11,1,2.366306099999747,['n'],1,right,['3'],3,1.251369500000692,0.4,0,AccAcc,15,18,Woman,Right,
27,11,1,2.8166170999993483,['n'],1,right,['8'],4,0.93449099999998,0.1,0,AccAcc,15,18,Woman,Right,
28,11,1,1.033291000000645,['c'],1,left,['8'],4,1.8677764000003663,0.2,0,AccAcc,15,18,Woman,Right,
29,11,1,1.7166336000000229,['c'],0,right,['3'],3,1.2343509000002086,0.1,0,AccAcc,15,18,Woman,Right,
30,11,1,1.1000458000007711,['c'],1,left,['9'],5,0.6013831999998729,0.4,0,AccAcc,15,18,Woman,Right,
31,11,1,1.382824499999515,['c'],1,left,['8'],4,0.9177761999999348,0.1,0,AccAcc,15,18,Woman,Right,
32,11,1,1.2166358000004038,['c'],1,left,['8'],4,0.9668094999997265,0.1,0,AccAcc,15,18,Woman,Right,
33,11,1,1.9673548999999184,['n'],1,right,['8'],4,1.46825809999973,0.4,0,AccAcc,15,18,Woman,Right,
34,11,1,2.383742999999413,['n'],1,right,['3'],3,1.1507165000002715,0.2,0,AccAcc,15,18,Woman,Right,
35,11,1,2.533033100000466,['n'],1,right,['2'],2,0.8684555999998338,0.2,0,AccAcc,15,18,Woman,Right,
36,11,1,1.3833254999999554,['c'],1,left,['8'],4,1.2178045999999085,0.1,0,AccAcc,15,18,Woman,Right,
37,11,1,1.6833971999994901,['c'],0,right,['8'],4,0.5180064000005586,0.1,0,AccAcc,15,18,Woman,Right,
38,11,1,2.333705399999417,['c'],0,right,['8'],4,1.484499600000163,0.4,0,AccAcc,15,18,Woman,Right,
39,11,1,2.9170072000006257,['c'],0,right,['8'],4,1.5008936000003814,0.2,0,AccAcc,15,18,Woman,Right,
40,11,1,2.3497134999997797,['c'],0,right,['2'],2,1.2682174000001396,0.4,0,AccAcc,15,18,Woman,Right,
41,11,1,4.850559299999986,['c'],0,right,['2'],2,1.0178795000001628,0.2,0,AccAcc,15,18,Woman,Right,
42,11,1,3.3662130000002435,['n'],1,right,['2'],2,0.8012574000003951,0.2,0,AccAcc,15,18,Woman,Right,
43,11,1,1.0667617999997674,['c'],1,left,['8'],4,0.9506115000003774,0.2,0,AccAcc,15,18,Woman,Right,
44,11,1,1.0992774000005738,['n'],0,left,['2'],2,1.0344747999997708,0.4,0,AccAcc,15,18,Woman,Right,
45,11,1,0.7834734999996726,['c'],1,left,['8'],4,0.6513187000000471,0.4,0,AccAcc,15,18,Woman,Right,
46,11,1,2.2334187999995265,['c'],1,left,['9'],5,1.2011984000000666,0.1,0,AccAcc,15,18,Woman,Right,
47,11,1,1.6837932999997065,['n'],1,right,['8'],4,0.6345774999999776,0.2,0,AccAcc,15,18,Woman,Right,
48,11,1,3.5832658999997875,['c'],0,right,['8'],4,0.8343035999996573,0.2,0,AccAcc,15,18,Woman,Right,
49,11,1,1.833368800000244,['n'],1,right,['8'],4,0.7677116000004389,0.4,0,AccAcc,15,18,Woman,Right,
50,11,1,1.3334688000004462,['c'],1,left,['9'],5,1.251223299999765,0.2,0,AccAcc,15,18,Woman,Right,
51,11,1,1.7501431000000593,['n'],1,right,['8'],4,1.1677605000004405,0.4,0,AccAcc,15,18,Woman,Right,
52,11,1,0.8997346000005564,['c'],1,left,['8'],4,0.8012953000006746,0.1,0,AccAcc,15,18,Woman,Right,
53,11,1,1.5005900999994992,['c'],1,left,['8'],4,0.5507920000000013,0.1,0,AccAcc,15,18,Woman,Right,
54,11,1,1.0671322000007422,['c'],0,right,['8'],4,0.651198900000054,0.1,0,AccAcc,15,18,Woman,Right,
55,11,1,1.600743699999839,['c'],0,right,['8'],4,0.44983220000085566,0.4,0,AccAcc,15,18,Woman,Right,
56,11,1,1.0008930000003602,['c'],1,left,['8'],4,1.3510710000000472,0.2,0,AccAcc,15,18,Woman,Right,
57,11,1,1.7166357999994943,['n'],1,right,['8'],4,1.4348301999998512,0.4,0,AccAcc,15,18,Woman,Right,
58,11,1,1.999934899999971,['n'],1,right,['8'],4,0.8008076000005531,0.4,0,AccAcc,15,18,Woman,Right,
59,11,1,1.050102400000469,['c'],1,left,['9'],5,1.651104900000064,0.4,0,AccAcc,15,18,Woman,Right,
0,12,1,0.7836845000001631,['c'],1,left,['8'],4,1.101347299999361,0.1,0,FastAcc,15,18,Woman,Right,
1,12,1,1.1334842000005665,['n'],1,right,['8'],4,0.7012094000001525,0.4,0,FastAcc,15,18,Woman,Right,
2,12,1,1.250486500000079,['c'],0,right,['2'],2,1.4515802000005351,0.2,0,FastAcc,15,18,Woman,Right,
3,12,1,1.266614899999695,['c'],1,left,['8'],4,2.451122899999973,0.1,0,FastAcc,15,18,Woman,Right,
4,12,1,1.1669101000006776,['n'],1,right,['2'],2,1.0178475000002436,0.2,0,FastAcc,15,18,Woman,Right,
5,12,1,1.4666222000005291,['c'],0,right,['8'],4,0.9011897000000317,0.1,0,FastAcc,15,18,Woman,Right,
6,12,1,1.7166717000000062,['c'],0,right,['8'],4,1.4180323000000499,0.4,0,FastAcc,15,18,Woman,Right,
7,12,1,2.1991675999997824,['c'],0,right,['8'],4,1.1849386000003506,0.2,0,FastAcc,15,18,Woman,Right,
8,12,1,0.93393610000021,['c'],1,left,['9'],5,0.8011620999996012,0.2,0,FastAcc,15,18,Woman,Right,
9,12,1,0.7336388999992778,['c'],1,left,['9'],5,0.8842662000006385,0.4,0,FastAcc,15,18,Woman,Right,
10,12,1,1.5996915000005174,['c'],0,right,['9'],5,0.7851311999993413,0.1,0,FastAcc,15,18,Woman,Right,
11,12,1,2.0173306999995475,['c'],1,left,['8'],4,1.184512800000448,0.1,0,FastAcc,15,18,Woman,Right,
12,12,1,0.5169288999995842,['c'],0,right,['2'],2,1.2175626999996894,0.1,0,FastAcc,15,18,Woman,Right,
13,12,1,1.0502498999994714,['n'],1,right,['8'],4,0.8846065999996426,0.2,0,FastAcc,15,18,Woman,Right,
14,12,1,2.3987203999995472,['n'],1,right,['2'],2,0.6178343000001405,0.1,0,FastAcc,15,18,Woman,Right,
15,12,1,0.683700200000203,['n'],1,right,['3'],3,2.2510595000003377,0.4,0,FastAcc,15,18,Woman,Right,
16,12,1,1.4176484999998138,['c'],0,right,['3'],3,1.1012135000000853,0.1,0,FastAcc,15,18,Woman,Right,
17,12,1,0.3666992999997092,['n'],0,left,['2'],2,0.9677609999998822,0.4,0,FastAcc,15,18,Woman,Right,
18,12,1,1.199888699999974,['c'],0,right,['8'],4,1.0845343000000867,0.4,0,FastAcc,15,18,Woman,Right,
19,12,1,1.5838180000000648,['n'],0,left,['8'],4,1.1345330000003742,0.2,0,FastAcc,15,18,Woman,Right,
20,12,1,0.9675803000000087,['c'],1,left,['8'],4,0.8007639000006748,0.1,0,FastAcc,15,18,Woman,Right,
21,12,1,1.3167356000003565,['c'],1,left,['8'],4,0.834944500000347,0.4,0,FastAcc,15,18,Woman,Right,
22,12,1,0.9830770999997185,['c'],1,left,['8'],4,0.8177630000000136,0.4,0,FastAcc,15,18,Woman,Right,
23,12,1,0.6666348999997354,['c'],0,right,['1'],1,1.3517375999999786,0.4,0,FastAcc,15,18,Woman,Right,
24,12,1,1.750684900000124,['c'],1,left,['2'],2,1.3671229999999923,0.2,0,FastAcc,15,18,Woman,Right,
25,12,1,1.433971599999495,['c'],1,left,['8'],4,1.7681339999999182,0.1,0,FastAcc,15,18,Woman,Right,
26,12,1,1.450866700000006,['n'],1,right,['3'],3,1.817409399999633,0.2,0,FastAcc,15,18,Woman,Right,
27,12,1,1.4169620000002396,['c'],0,right,['2'],2,2.8343783999998777,0.4,0,FastAcc,15,18,Woman,Right,
28,12,1,2.6987842999997156,['c'],0,right,['2'],2,1.251314399999501,0.1,0,FastAcc,15,18,Woman,Right,
29,12,1,1.1000961999998253,['c'],1,left,['8'],4,1.1513984000002893,0.4,0,FastAcc,15,18,Woman,Right,
30,12,1,1.3001047999996445,['n'],1,right,['8'],4,1.5847319000004063,0.4,0,FastAcc,15,18,Woman,Right,
31,12,1,2.4664332000002105,['c'],1,left,['8'],4,0.6344513999993069,0.2,0,FastAcc,15,18,Woman,Right,
32,12,1,1.6992768999998589,['c'],0,right,['8'],4,0.8352846999996473,0.1,0,FastAcc,15,18,Woman,Right,
33,12,1,1.8833226000006107,['c'],0,right,['8'],4,0.7180241999994905,0.2,0,FastAcc,15,18,Woman,Right,
34,12,1,1.6503112999998848,['c'],1,left,['8'],4,1.08448799999951,0.2,0,FastAcc,15,18,Woman,Right,
35,12,1,1.4173365000006015,['c'],0,right,['8'],4,0.9844361999994362,0.2,0,FastAcc,15,18,Woman,Right,
36,12,1,2.3161479999998846,['c'],1,left,['9'],5,1.2510495000005903,0.2,0,FastAcc,15,18,Woman,Right,
37,12,1,1.466908900000817,['n'],1,right,['8'],4,1.200556300000244,0.1,0,FastAcc,15,18,Woman,Right,
38,12,1,1.23402569999962,['c'],1,left,['8'],4,0.8676549000001614,0.4,0,FastAcc,15,18,Woman,Right,
39,12,1,1.1167963999996573,['c'],0,right,['2'],2,0.8178631000000678,0.2,0,FastAcc,15,18,Woman,Right,
40,12,1,1.4169362000002366,['c'],1,left,['8'],4,1.5013207000001785,0.1,0,FastAcc,15,18,Woman,Right,
41,12,1,1.5006045000000086,['c'],1,left,['8'],4,0.4838510999998107,0.2,0,FastAcc,15,18,Woman,Right,
42,12,1,0.9850499000003765,['n'],1,right,['8'],4,0.5511973000002399,0.4,0,FastAcc,15,18,Woman,Right,
43,12,1,1.4503229000001738,['n'],1,right,['9'],5,1.183552299999974,0.2,0,FastAcc,15,18,Woman,Right,
44,12,1,0.9665274999997564,['c'],0,right,['9'],5,0.8843471999998656,0.4,0,FastAcc,15,18,Woman,Right,
45,12,1,1.233550699999796,['c'],0,right,['8'],4,0.7179762000005212,0.1,0,FastAcc,15,18,Woman,Right,
46,12,1,1.399223900000834,['c'],0,right,['3'],3,0.7170264000005773,0.2,0,FastAcc,15,18,Woman,Right,
47,12,1,0.8006249999998545,['c'],1,left,['8'],4,1.2335243999996237,0.4,0,FastAcc,15,18,Woman,Right,
48,12,1,0.9339835000000676,['c'],1,left,['8'],4,0.8172381999993377,0.1,0,FastAcc,15,18,Woman,Right,
49,12,1,0.8502382000006037,['n'],1,right,['8'],4,0.7180255999992369,0.4,0,FastAcc,15,18,Woman,Right,
50,12,1,1.4499716000000262,['c'],1,left,['8'],4,0.4181191999996372,0.1,0,FastAcc,15,18,Woman,Right,
51,12,1,0.7835239999994883,['c'],1,left,['8'],4,0.4678321999999753,0.4,0,FastAcc,15,18,Woman,Right,
52,12,1,1.1832242999998925,['c'],1,left,['3'],3,0.4679654000001392,0.1,0,FastAcc,15,18,Woman,Right,
53,12,1,1.301036999999269,['c'],0,right,['8'],4,0.817687400000068,0.1,0,FastAcc,15,18,Woman,Right,
54,12,1,0.9338336999999228,['c'],1,left,['9'],5,0.5344458999998096,0.2,0,FastAcc,15,18,Woman,Right,
55,12,1,0.7672182000005705,['c'],1,left,['9'],5,0.7178625999995347,0.2,0,FastAcc,15,18,Woman,Right,
56,12,1,0.7166763999994146,['c'],1,left,['9'],5,0.8513229000000138,0.4,0,FastAcc,15,18,Woman,Right,
57,12,1,0.6838408000003255,['c'],1,left,['8'],4,0.5175629999994271,0.4,0,FastAcc,15,18,Woman,Right,
58,12,1,1.2498383000001922,['c'],1,left,['8'],4,0.4512993999996979,0.2,0,FastAcc,15,18,Woman,Right,
59,12,1,1.1161690000008093,['n'],0,left,['3'],3,0.8350092999999106,0.1,0,FastAcc,15,18,Woman,Right,
0,13,1,1.2333967999993547,['c'],1,left,['8'],4,0.4513292999999976,0.4,0,FastFast,15,18,Woman,Right,
1,13,1,1.3001128000005338,['n'],1,right,['8'],4,0.36832479999975476,0.4,0,FastFast,15,18,Woman,Right,
2,13,1,0.6505075000004581,['c'],1,left,['8'],4,0.3338754999995217,0.2,0,FastFast,15,18,Woman,Right,
3,13,1,1.1506036000000677,['n'],1,right,['8'],4,0.40116200000011304,0.2,0,FastFast,15,18,Woman,Right,
4,13,1,1.3001496999995652,['c'],0,right,['8'],4,0.2847359999996115,0.4,0,FastFast,15,18,Woman,Right,
5,13,1,0.7667675000002419,['c'],1,left,['8'],4,0.2846624999992855,0.2,0,FastFast,15,18,Woman,Right,
6,13,1,1.116939999999886,['c'],0,right,['8'],4,0.6511798000001363,0.1,0,FastFast,15,18,Woman,Right,
7,13,1,1.0992050000004383,['c'],1,left,['8'],4,0.30115139999998064,0.1,0,FastFast,15,18,Woman,Right,
8,13,1,1.3000364999998055,['n'],1,right,['3'],3,0.8680279000000155,0.4,0,FastFast,15,18,Woman,Right,
9,13,1,0.8668634000005113,['c'],1,left,['8'],4,1.0843564000006154,0.2,0,FastFast,15,18,Woman,Right,
10,13,1,1.1009619999995266,['c'],1,left,['8'],4,1.5678143000004638,0.2,0,FastFast,15,18,Woman,Right,
11,13,1,0.7174747999997635,['c'],0,right,['8'],4,0.6345140000003084,0.2,0,FastFast,15,18,Woman,Right,
12,13,1,0.9654264999999214,['c'],0,right,['8'],4,0.2842241999996986,0.2,0,FastFast,15,18,Woman,Right,
13,13,1,0.9342197000005399,['n'],0,left,['8'],4,0.7013548000004448,0.2,0,FastFast,15,18,Woman,Right,
14,13,1,0.7993569000000207,['c'],1,left,['9'],5,0.5674418999997215,0.2,0,FastFast,15,18,Woman,Right,
15,13,1,0.5331593000000794,['c'],1,left,['9'],5,0.5178765999999086,0.2,0,FastFast,15,18,Woman,Right,
16,13,1,1.2007490999994843,['c'],0,right,['2'],2,0.6339271000006192,0.1,0,FastFast,15,18,Woman,Right,
17,13,1,1.3835422000001927,['c'],0,right,['8'],4,0.4838235999995959,0.2,0,FastFast,15,18,Woman,Right,
18,13,1,1.0171701999997822,['c'],0,right,['8'],4,0.4512027000000671,0.1,0,FastFast,15,18,Woman,Right,
19,13,1,0.8669681999999739,['n'],1,right,['8'],4,0.43447159999959695,0.1,0,FastFast,15,18,Woman,Right,
20,13,1,0.9004272000001947,['c'],1,left,['8'],4,0.7176314999996976,0.1,0,FastFast,15,18,Woman,Right,
21,13,1,0.8329294000004666,['c'],1,left,['9'],5,0.40049850000013976,0.4,0,FastFast,15,18,Woman,Right,
22,13,1,1.4504335999999967,['c'],0,right,['3'],3,0.9177244000002247,0.4,0,FastFast,15,18,Woman,Right,
23,13,1,0.7666846000001897,['c'],1,left,['8'],4,0.4004913000007946,0.2,0,FastFast,15,18,Woman,Right,
24,13,1,0.7673370000002251,['c'],1,left,['8'],4,0.43460159999995085,0.4,0,FastFast,15,18,Woman,Right,
25,13,1,1.7667619999992894,['c'],1,left,['8'],4,0.41778140000042185,0.1,0,FastFast,15,18,Woman,Right,
26,13,1,1.2837776999995185,['c'],1,left,['9'],5,0.9848999999994703,0.2,0,FastFast,15,18,Woman,Right,
27,13,1,0.7172658999998021,['c'],1,left,['3'],3,1.0673777000001792,0.1,0,FastFast,15,18,Woman,Right,
28,13,1,0.7994792999998026,['c'],0,right,['2'],2,1.3016716000001907,0.1,0,FastFast,15,18,Woman,Right,
29,13,1,1.000082000000475,['c'],0,right,['8'],4,0.48497970000062196,0.4,0,FastFast,15,18,Woman,Right,
30,13,1,1.449276500000451,['c'],0,right,['8'],4,0.31781080000018846,0.1,0,FastFast,15,18,Woman,Right,
31,13,1,2.0173766999996587,['n'],1,right,['8'],4,0.3502533000000767,0.4,0,FastFast,15,18,Woman,Right,
32,13,1,1.0001863999996203,['c'],1,left,['9'],5,0.3513702000000194,0.2,0,FastFast,15,18,Woman,Right,
33,13,1,0.7669568000001163,['c'],1,left,['8'],4,0.31735780000053637,0.1,0,FastFast,15,18,Woman,Right,
34,13,1,1.1999824000004082,['c'],0,right,['8'],4,0.7012684999999692,0.4,0,FastFast,15,18,Woman,Right,
35,13,1,0.9166605000000345,['c'],1,left,['8'],4,0.33459899999979825,0.1,0,FastFast,15,18,Woman,Right,
36,13,1,0.700150599999688,['c'],1,left,['9'],5,0.5180388000007952,0.4,0,FastFast,15,18,Woman,Right,
37,13,1,0.6332980000006501,['c'],1,left,['8'],4,0.4670078999997713,0.2,0,FastFast,15,18,Woman,Right,
38,13,1,1.4322524999997768,['c'],1,left,['8'],4,0.43500870000025316,0.4,0,FastFast,15,18,Woman,Right,
39,13,1,1.383349200000339,['n'],1,right,['2'],2,0.3350196999999753,0.1,0,FastFast,15,18,Woman,Right,
40,13,1,0.883981799999674,['n'],1,right,['8'],4,1.0345993999999337,0.4,0,FastFast,15,18,Woman,Right,
41,13,1,0.5672636999997849,['c'],1,left,['9'],5,0.501275299999179,0.4,0,FastFast,15,18,Woman,Right,
42,13,1,1.3679755000002842,['c'],0,right,['3'],3,0.6346074000002773,0.1,0,FastFast,15,18,Woman,Right,
43,13,1,1.1332662999993772,['c'],1,left,['8'],4,0.4516382000001613,0.2,0,FastFast,15,18,Woman,Right,
44,13,1,1.9167983999996068,['n'],1,right,['8'],4,0.5844681999997192,0.1,0,FastFast,15,18,Woman,Right,
45,13,1,0.9674116999995022,['c'],0,right,['2'],2,0.6676439000002574,0.1,0,FastFast,15,18,Woman,Right,
46,13,1,0.7329792999998972,['n'],0,left,['2'],2,0.9014201999998477,0.1,0,FastFast,15,18,Woman,Right,
47,13,1,0.6830989000000045,['c'],1,left,['8'],4,0.38452609999967535,0.4,0,FastFast,15,18,Woman,Right,
48,13,1,0.732800099999622,['n'],1,right,['8'],4,0.3010355999995227,0.4,0,FastFast,15,18,Woman,Right,
49,13,1,1.750256499999523,['c'],0,right,['3'],3,0.9011118999997052,0.2,0,FastFast,15,18,Woman,Right,
50,13,1,1.3337617000006503,['n'],1,right,['8'],4,0.4017002999999022,0.4,0,FastFast,15,18,Woman,Right,
51,13,1,2.0835728000001836,['c'],0,right,['2'],2,0.5342843000007633,0.1,0,FastFast,15,18,Woman,Right,
52,13,1,1.3169070000003558,['n'],1,right,['8'],4,0.31822550000015326,0.4,0,FastFast,15,18,Woman,Right,
53,13,1,1.7502265000002808,['c'],1,left,['8'],4,0.43454250000013417,0.2,0,FastFast,15,18,Woman,Right,
54,13,1,1.7828702999995585,['n'],1,right,['2'],2,0.9852381999999125,0.2,0,FastFast,15,18,Woman,Right,
55,13,1,0.7507206000000224,['n'],0,left,['2'],2,0.8845485000001645,0.1,0,FastFast,15,18,Woman,Right,
56,13,1,1.0836453000001711,['c'],1,left,['8'],4,0.367995499999779,0.4,0,FastFast,15,18,Woman,Right,
57,13,1,0.9004902999995466,['n'],1,right,['8'],4,0.3505162000001292,0.4,0,FastFast,15,18,Woman,Right,
58,13,1,1.0178977999994459,['c'],1,left,['8'],4,0.4511061000002883,0.2,0,FastFast,15,18,Woman,Right,
59,13,1,1.1503386000003957,['c'],0,right,['8'],4,0.517817500000092,0.1,0,FastFast,15,18,Woman,Right,
0,14,1,1.5511298000001261,['c'],1,left,['8'],4,0.4678476999997656,0.1,0,AccFast,15,18,Woman,Right,
1,14,1,1.3167221000003337,['c'],0,right,['3'],3,0.6013046999996732,0.2,0,AccFast,15,18,Woman,Right,
2,14,1,1.6341787999999724,['n'],1,right,['8'],4,0.4512727999999697,0.2,0,AccFast,15,18,Woman,Right,
3,14,1,1.099796399999832,['c'],0,right,['8'],4,0.4017247000001589,0.1,0,AccFast,15,18,Woman,Right,
4,14,1,1.6492394999995668,['n'],1,right,['8'],4,0.8012605000003532,0.2,0,AccFast,15,18,Woman,Right,
5,14,1,0.6836450000000696,['c'],1,left,['8'],4,0.4517249000000447,0.4,0,AccFast,15,18,Woman,Right,
6,14,1,0.733828800000083,['c'],1,left,['8'],4,0.451222400000006,0.4,0,AccFast,15,18,Woman,Right,
7,14,1,0.667517100000623,['c'],1,left,['8'],4,0.5178923000003124,0.4,0,AccFast,15,18,Woman,Right,
8,14,1,1.8008159999999407,['c'],1,left,['8'],4,0.3677166000006764,0.1,0,AccFast,15,18,Woman,Right,
9,14,1,2.266898200000469,['c'],1,left,['8'],4,0.484079699999711,0.2,0,AccFast,15,18,Woman,Right,
10,14,1,1.0835323000001154,['c'],1,left,['8'],4,0.3172008999999889,0.2,0,AccFast,15,18,Woman,Right,
11,14,1,2.3839367999999013,['c'],0,right,['9'],5,0.8011929000003875,0.4,0,AccFast,15,18,Woman,Right,
12,14,1,1.5164347999998427,['n'],1,right,['3'],3,0.6175420000008671,0.2,0,AccFast,15,18,Woman,Right,
13,14,1,2.2000764000003983,['n'],1,right,['2'],2,0.6011637999999948,0.2,0,AccFast,15,18,Woman,Right,
14,14,1,1.9002121999992596,['n'],1,right,['2'],2,0.5678993999999875,0.1,0,AccFast,15,18,Woman,Right,
15,14,1,1.2003816000005827,['c'],1,left,['8'],4,0.3512959999998202,0.2,0,AccFast,15,18,Woman,Right,
16,14,1,1.066711899999973,['c'],1,left,['8'],4,0.4845506999999998,0.1,0,AccFast,15,18,Woman,Right,
17,14,1,0.7500455999997939,['c'],1,left,['8'],4,0.8847472999996171,0.4,0,AccFast,15,18,Woman,Right,
18,14,1,2.183383800000229,['n'],1,right,['2'],2,0.43433120000008785,0.1,0,AccFast,15,18,Woman,Right,
19,14,1,0.9498932999995304,['c'],1,left,['9'],5,0.26749370000015915,0.2,0,AccFast,15,18,Woman,Right,
20,14,1,1.2161383000002388,['n'],1,right,['8'],4,0.3346304999995482,0.4,0,AccFast,15,18,Woman,Right,
21,14,1,0.6839229000006526,['c'],1,left,['9'],5,0.7840147999995679,0.4,0,AccFast,15,18,Woman,Right,
22,14,1,0.9003578000001653,['c'],1,left,['9'],5,0.3509786000004169,0.4,0,AccFast,15,18,Woman,Right,
23,14,1,1.3164981999998417,['c'],0,right,['8'],4,0.5829643999995824,0.2,0,AccFast,15,18,Woman,Right,
24,14,1,0.7355024999997113,['c'],1,left,['9'],5,0.35106180000002496,0.4,0,AccFast,15,18,Woman,Right,
25,14,1,1.7334413999997196,['n'],1,right,['8'],4,0.40110229999936564,0.1,0,AccFast,15,18,Woman,Right,
26,14,1,1.8158223999998881,['c'],0,right,['3'],3,0.7857414999998582,0.2,0,AccFast,15,18,Woman,Right,
27,14,1,1.231988999999885,['c'],1,left,['8'],4,0.3008787000007942,0.1,0,AccFast,15,18,Woman,Right,
28,14,1,1.7173554000000877,['c'],0,right,['8'],4,0.43422129999999015,0.2,0,AccFast,15,18,Woman,Right,
29,14,1,0.816918500000611,['c'],1,left,['9'],5,0.4343642000003456,0.4,0,AccFast,15,18,Woman,Right,
30,14,1,1.9160863999995854,['c'],0,right,['2'],2,0.5008268000001408,0.1,0,AccFast,15,18,Woman,Right,
31,14,1,1.016287999999804,['c'],1,left,['8'],4,0.3509813999999096,0.1,0,AccFast,15,18,Woman,Right,
32,14,1,2.166487899999993,['n'],1,right,['8'],4,0.3675389999998515,0.1,0,AccFast,15,18,Woman,Right,
33,14,1,1.7835113000001002,['c'],0,right,['2'],2,0.5344585000002553,0.1,0,AccFast,15,18,Woman,Right,
34,14,1,0.8999536999999691,['c'],1,left,['8'],4,0.3509303999999247,0.2,0,AccFast,15,18,Woman,Right,
35,14,1,1.3342904999999519,['c'],0,right,['8'],4,1.1008436000001893,0.1,0,AccFast,15,18,Woman,Right,
36,14,1,0.7994647000004989,['c'],1,left,['9'],5,0.38425399999960064,0.4,0,AccFast,15,18,Woman,Right,
37,14,1,0.9840512999999191,['c'],1,left,['9'],5,0.45096299999931944,0.4,0,AccFast,15,18,Woman,Right,
38,14,1,1.5670564000001832,['c'],1,left,['8'],4,0.3843219999998837,0.1,0,AccFast,15,18,Woman,Right,
39,14,1,0.9172729000001709,['n'],1,right,['8'],4,0.4508670000004713,0.1,0,AccFast,15,18,Woman,Right,
40,14,1,1.7496304000005694,['c'],1,left,['3'],3,0.6343808999999965,0.1,0,AccFast,15,18,Woman,Right,
41,14,1,1.4008131999999023,['c'],0,right,['8'],4,0.4010883000000831,0.1,0,AccFast,15,18,Woman,Right,
42,14,1,0.9504583999996612,['c'],1,left,['9'],5,0.33434699999997974,0.4,0,AccFast,15,18,Woman,Right,
43,14,1,1.050228899999638,['n'],1,right,['8'],4,0.31787469999926543,0.4,0,AccFast,15,18,Woman,Right,
44,14,1,1.751310900000135,['n'],1,right,['3'],3,0.45095370000035473,0.4,0,AccFast,15,18,Woman,Right,
45,14,1,0.9499666000001525,['c'],1,left,['8'],4,0.3839342999999644,0.2,0,AccFast,15,18,Woman,Right,
46,14,1,0.8836405000001832,['n'],1,right,['8'],4,0.3178303999993659,0.1,0,AccFast,15,18,Woman,Right,
47,14,1,2.449617799999942,['n'],1,right,['2'],2,0.5345032000004721,0.2,0,AccFast,15,18,Woman,Right,
48,14,1,1.800065899999936,['c'],0,right,['8'],4,0.35135189999982686,0.2,0,AccFast,15,18,Woman,Right,
49,14,1,0.8835692000002382,['c'],1,left,['2'],2,0.8675393000003169,0.1,0,AccFast,15,18,Woman,Right,
50,14,1,2.51692390000062,['n'],1,right,['2'],2,0.5013013999996474,0.4,0,AccFast,15,18,Woman,Right,
51,14,1,1.383591100000558,['n'],1,right,['3'],3,1.5007016999998086,0.2,0,AccFast,15,18,Woman,Right,
52,14,1,0.6499856999998883,['c'],1,left,['8'],4,0.35162920000038866,0.2,0,AccFast,15,18,Woman,Right,
53,14,1,1.3834568000002037,['n'],0,left,['3'],3,0.5012684999992416,0.2,0,AccFast,15,18,Woman,Right,
54,14,1,0.9335190000001603,['c'],1,left,['9'],5,0.6172852999998213,0.4,0,AccFast,15,18,Woman,Right,
55,14,1,0.8167566000001898,['n'],1,right,['9'],5,0.5513397999993686,0.4,0,AccFast,15,18,Woman,Right,
56,14,1,1.6499968999996781,['c'],1,left,['8'],4,1.0342357999998057,0.1,0,AccFast,15,18,Woman,Right,
57,14,1,1.0338071000005584,['n'],1,right,['8'],4,0.41772020000007615,0.4,0,AccFast,15,18,Woman,Right,
58,14,1,1.7339020999997956,['c'],0,right,['2'],2,0.601358099999743,0.4,0,AccFast,15,18,Woman,Right,
59,14,1,1.133899299999939,['c'],1,left,['8'],4,0.3679397000005338,0.2,0,AccFast,15,18,Woman,Right,
0,15,1,2.4837307999996483,['c'],0,right,['2'],2,1.6002386000000115,0.2,0,AccAcc,15,18,Woman,Right,
1,15,1,2.417149099999733,['c'],0,right,['8'],4,1.2183445000000575,0.1,0,AccAcc,15,18,Woman,Right,
2,15,1,1.8667193000001134,['c'],1,left,['8'],4,0.9678268999996362,0.1,0,AccAcc,15,18,Woman,Right,
3,15,1,1.9334906000003684,['c'],0,right,['3'],3,0.6003324000002976,0.1,0,AccAcc,15,18,Woman,Right,
4,15,1,1.29971949999981,['c'],1,left,['9'],5,0.650760700000319,0.1,0,AccAcc,15,18,Woman,Right,
5,15,1,1.8337007999998605,['n'],1,right,['8'],4,0.7342999000002237,0.2,0,AccAcc,15,18,Woman,Right,
6,15,1,1.733752000000095,['n'],1,right,['3'],3,0.6344189000001279,0.1,0,AccAcc,15,18,Woman,Right,
7,15,1,1.066229299999577,['c'],1,left,['8'],4,0.6173761999998533,0.2,0,AccAcc,15,18,Woman,Right,
8,15,1,2.3670522000002165,['c'],0,right,['8'],4,0.7010703999994803,0.2,0,AccAcc,15,18,Woman,Right,
9,15,1,2.366602299999613,['n'],1,right,['8'],4,1.4177706000000398,0.2,0,AccAcc,15,18,Woman,Right,
10,15,1,1.066970300000321,['c'],1,left,['8'],4,0.6335502000001725,0.4,0,AccAcc,15,18,Woman,Right,
11,15,1,2.0341978999995263,['c'],0,right,['8'],4,0.7341933000006975,0.4,0,AccAcc,15,18,Woman,Right,
12,15,1,2.0667239000003974,['c'],0,right,['8'],4,0.7178408999998283,0.2,0,AccAcc,15,18,Woman,Right,
13,15,1,1.100637900000038,['c'],1,left,['8'],4,0.5845245999998951,0.1,0,AccAcc,15,18,Woman,Right,
14,15,1,1.9838533000001917,['c'],1,left,['9'],5,0.48458949999985634,0.1,0,AccAcc,15,18,Woman,Right,
15,15,1,0.8504323999995904,['c'],0,right,['9'],5,0.48472359999959735,0.4,0,AccAcc,15,18,Woman,Right,
16,15,1,1.166360799999893,['c'],1,left,['8'],4,0.4181438000005073,0.1,0,AccAcc,15,18,Woman,Right,
17,15,1,1.2497498000002452,['c'],0,right,['8'],4,0.451256999999714,0.2,0,AccAcc,15,18,Woman,Right,
18,15,1,1.2006922000000486,['c'],0,right,['9'],5,0.4346106000002692,0.4,0,AccAcc,15,18,Woman,Right,
19,15,1,1.4000489999998535,['n'],1,right,['8'],4,0.5516250999999102,0.2,0,AccAcc,15,18,Woman,Right,
20,15,1,2.4161620000004405,['n'],1,right,['2'],2,0.6356660000001284,0.4,0,AccAcc,15,18,Woman,Right,
21,15,1,1.3001445999998396,['c'],1,left,['8'],4,0.5510991000001013,0.4,0,AccAcc,15,18,Woman,Right,
22,15,1,1.4334985000004963,['c'],0,right,['8'],4,0.31805609999992157,0.2,0,AccAcc,15,18,Woman,Right,
23,15,1,2.032981000000291,['c'],1,left,['8'],4,0.4345567000000301,0.2,0,AccAcc,15,18,Woman,Right,
24,15,1,1.4167946999996275,['c'],1,left,['8'],4,0.41849460000048566,0.1,0,AccAcc,15,18,Woman,Right,
25,15,1,1.1333881000000474,['c'],1,left,['8'],4,0.4512238999996043,0.2,0,AccAcc,15,18,Woman,Right,
26,15,1,1.6834788999994998,['c'],1,left,['3'],3,0.46782660000008036,0.1,0,AccAcc,15,18,Woman,Right,
27,15,1,0.7839844999998604,['c'],1,left,['9'],5,0.467718199999581,0.4,0,AccAcc,15,18,Woman,Right,
28,15,1,0.8173558999997113,['c'],1,left,['9'],5,0.4010607999998683,0.4,0,AccAcc,15,18,Woman,Right,
29,15,1,3.4003697999996803,['n'],1,right,['2'],2,0.751024199999847,0.2,0,AccAcc,15,18,Woman,Right,
30,15,1,1.1171911999999793,['n'],1,right,['8'],4,0.46792329999971116,0.4,0,AccAcc,15,18,Woman,Right,
31,15,1,1.6669277000000875,['n'],1,right,['3'],3,0.46784699999989243,0.4,0,AccAcc,15,18,Woman,Right,
32,15,1,0.800452899999982,['c'],1,left,['8'],4,0.43456570000034844,0.4,0,AccAcc,15,18,Woman,Right,
33,15,1,1.149660600000061,['c'],0,right,['8'],4,0.7515335000007326,0.4,0,AccAcc,15,18,Woman,Right,
34,15,1,0.8835235999995348,['c'],1,left,['8'],4,0.46805829999993875,0.1,0,AccAcc,15,18,Woman,Right,
35,15,1,2.333366699999715,['n'],1,right,['3'],3,0.5843980999998166,0.1,0,AccAcc,15,18,Woman,Right,
36,15,1,1.283720500000527,['c'],1,left,['8'],4,0.550785100000212,0.2,0,AccAcc,15,18,Woman,Right,
37,15,1,0.7838314999999056,['c'],1,left,['8'],4,0.45148130000052333,0.1,0,AccAcc,15,18,Woman,Right,
38,15,1,1.2500557000003027,['c'],1,left,['8'],4,0.5010247999998683,0.2,0,AccAcc,15,18,Woman,Right,
39,15,1,2.2668065999996543,['c'],1,left,['8'],4,0.734716699999808,0.1,0,AccAcc,15,18,Woman,Right,
40,15,1,0.7338003000004392,['c'],1,left,['9'],5,0.36768519999986893,0.2,0,AccAcc,15,18,Woman,Right,
41,15,1,1.8499300000003132,['c'],0,right,['9'],5,0.634607999999389,0.4,0,AccAcc,15,18,Woman,Right,
42,15,1,1.6672435999998925,['n'],1,right,['3'],3,0.5678342000001066,0.4,0,AccAcc,15,18,Woman,Right,
43,15,1,0.7504046000003655,['c'],1,left,['8'],4,0.4336905000000115,0.1,0,AccAcc,15,18,Woman,Right,
44,15,1,1.0997900000002119,['n'],1,right,['8'],4,0.5507539999998698,0.4,0,AccAcc,15,18,Woman,Right,
45,15,1,1.9834517999997843,['c'],0,right,['8'],4,0.8679519999996046,0.1,0,AccAcc,15,18,Woman,Right,
46,15,1,0.8833299000007173,['c'],1,left,['9'],5,1.4346946999994543,0.4,0,AccAcc,15,18,Woman,Right,
47,15,1,1.8828727999998591,['c'],1,left,['8'],4,0.40105010000024777,0.1,0,AccAcc,15,18,Woman,Right,
48,15,1,2.7000748999998905,['c'],0,right,['3'],3,0.4341708000001745,0.1,0,AccAcc,15,18,Woman,Right,
49,15,1,1.0835119000003033,['c'],1,left,['8'],4,0.7679524000004676,0.2,0,AccAcc,15,18,Woman,Right,
50,15,1,1.4499478000007002,['c'],1,left,['9'],5,0.43470260000049166,0.4,0,AccAcc,15,18,Woman,Right,
51,15,1,1.2329663000000437,['c'],1,left,['8'],4,0.5173303999999916,0.2,0,AccAcc,15,18,Woman,Right,
52,15,1,1.6667167000005065,['n'],1,right,['8'],4,0.4169712000002619,0.4,0,AccAcc,15,18,Woman,Right,
53,15,1,2.099548899999718,['n'],1,right,['8'],4,0.350822700000208,0.4,0,AccAcc,15,18,Woman,Right,
54,15,1,1.6337084999995568,['c'],0,right,['8'],4,0.3501373000008243,0.1,0,AccAcc,15,18,Woman,Right,
55,15,1,1.5507698999999775,['c'],1,left,['8'],4,0.30129870000018855,0.2,0,AccAcc,15,18,Woman,Right,
56,15,1,2.6500637999997707,['c'],0,right,['2'],2,0.5841070000005857,0.2,0,AccAcc,15,18,Woman,Right,
57,15,1,0.8667292999998608,['c'],1,left,['8'],4,0.33497189999980037,0.4,0,AccAcc,15,18,Woman,Right,
58,15,1,1.233587599999737,['c'],1,left,['9'],5,0.3513912000007622,0.1,0,AccAcc,15,18,Woman,Right,
59,15,1,1.583770100000038,['c'],0,right,['2'],2,0.7845311999999467,0.2,0,AccAcc,15,18,Woman,Right,
