withinblocktrial,block,block_repetition,rt,resp,cor,cresp,conf_press,cj,rtconf,coherence,slow_trial,manipulation,sub,age,gender,handedness,
0,1,1,4.100951799999166,['c'],1,left,none,-99,-99,0.5,0,none,39,18,Man,Right,
1,1,1,0.9494429999995191,['n'],1,right,none,-99,-99,0.5,0,none,39,18,Man,Right,
2,1,1,1.1003210999988369,['n'],1,right,none,-99,-99,0.5,0,none,39,18,Man,Right,
3,1,1,1.250144099998579,['n'],1,right,none,-99,-99,0.5,0,none,39,18,Man,Right,
4,1,1,0.5817870000009862,['c'],1,left,none,-99,-99,0.5,0,none,39,18,Man,Right,
5,1,1,0.9181159999989177,['c'],1,left,none,-99,-99,0.5,0,none,39,18,Man,Right,
6,1,1,0.6010358999992604,['c'],1,left,none,-99,-99,0.5,0,none,39,18,Man,Right,
7,1,1,0.5678574000012304,['c'],1,left,none,-99,-99,0.5,0,none,39,18,Man,Right,
8,1,1,0.515983100000085,['n'],1,right,none,-99,-99,0.5,0,none,39,18,Man,Right,
9,1,1,0.5994553999989876,['n'],1,right,none,-99,-99,0.5,0,none,39,18,Man,Right,
10,1,1,0.5344714000002568,['c'],1,left,none,-99,-99,0.5,0,none,39,18,Man,Right,
11,1,1,0.6687583000002633,['c'],1,left,none,-99,-99,0.5,0,none,39,18,Man,Right,
12,1,1,0.516394099999161,['c'],1,left,none,-99,-99,0.5,0,none,39,18,Man,Right,
13,1,1,0.46758740000041144,['n'],1,right,none,-99,-99,0.5,0,none,39,18,Man,Right,
14,1,1,0.8172303999999713,['c'],1,left,none,-99,-99,0.5,0,none,39,18,Man,Right,
15,1,1,0.5333228999988933,['n'],1,right,none,-99,-99,0.5,0,none,39,18,Man,Right,
16,1,1,0.6505261000002065,['n'],1,right,none,-99,-99,0.5,0,none,39,18,Man,Right,
17,1,1,0.8171944999994594,['n'],1,right,none,-99,-99,0.5,0,none,39,18,Man,Right,
18,1,1,0.48524880000150006,['c'],1,left,none,-99,-99,0.5,0,none,39,18,Man,Right,
19,1,1,0.5675286999994569,['n'],1,right,none,-99,-99,0.5,0,none,39,18,Man,Right,
20,1,1,0.7339439999996102,['n'],0,left,none,-99,-99,0.5,0,none,39,18,Man,Right,
21,1,1,0.6501260999993974,['n'],1,right,none,-99,-99,0.5,0,none,39,18,Man,Right,
22,1,1,0.6844918999995571,['n'],1,right,none,-99,-99,0.5,0,none,39,18,Man,Right,
23,1,1,0.6166599000007409,['c'],1,left,none,-99,-99,0.5,0,none,39,18,Man,Right,
0,2,1,1.7661441000000195,['c'],1,left,none,-99,-99,0.1,0,none,39,18,Man,Right,
1,2,1,0.6180595999994694,['c'],1,left,none,-99,-99,0.2,0,none,39,18,Man,Right,
2,2,1,0.4848268999994616,['n'],0,left,none,-99,-99,0.1,0,none,39,18,Man,Right,
3,2,1,0.6680470000010246,['n'],0,left,none,-99,-99,0.2,0,none,39,18,Man,Right,
4,2,1,1.08407729999999,['n'],1,right,none,-99,-99,0.1,0,none,39,18,Man,Right,
5,2,1,0.5669319000007818,['c'],1,left,none,-99,-99,0.2,0,none,39,18,Man,Right,
6,2,1,0.6162979000000632,['n'],1,right,none,-99,-99,0.2,0,none,39,18,Man,Right,
7,2,1,0.701412700000219,['n'],1,right,none,-99,-99,0.1,0,none,39,18,Man,Right,
8,2,1,0.4679919999998674,['c'],1,left,none,-99,-99,0.4,0,none,39,18,Man,Right,
9,2,1,0.6508278000001155,['n'],1,right,none,-99,-99,0.4,0,none,39,18,Man,Right,
10,2,1,0.5328225000012026,['n'],1,right,none,-99,-99,0.4,0,none,39,18,Man,Right,
11,2,1,0.38305190000028233,['c'],1,left,none,-99,-99,0.2,0,none,39,18,Man,Right,
12,2,1,0.6666536000011547,['n'],0,left,none,-99,-99,0.1,0,none,39,18,Man,Right,
13,2,1,0.7491485000009561,['n'],1,right,none,-99,-99,0.4,0,none,39,18,Man,Right,
14,2,1,0.6330672000003688,['n'],1,right,none,-99,-99,0.2,0,none,39,18,Man,Right,
15,2,1,0.6177515999988827,['n'],1,right,none,-99,-99,0.2,0,none,39,18,Man,Right,
16,2,1,0.7992638000014267,['c'],1,left,none,-99,-99,0.4,0,none,39,18,Man,Right,
17,2,1,0.6833588999998028,['c'],1,left,none,-99,-99,0.4,0,none,39,18,Man,Right,
18,2,1,0.5677952999994886,['c'],0,right,none,-99,-99,0.4,0,none,39,18,Man,Right,
19,2,1,0.6338792999995349,['c'],1,left,none,-99,-99,0.4,0,none,39,18,Man,Right,
20,2,1,1.2986793000000034,['c'],0,right,none,-99,-99,0.1,0,none,39,18,Man,Right,
21,2,1,0.5504615000008926,['n'],1,right,none,-99,-99,0.2,0,none,39,18,Man,Right,
22,2,1,0.7503908999988198,['n'],0,left,none,-99,-99,0.1,0,none,39,18,Man,Right,
23,2,1,0.6517972000001464,['n'],1,right,none,-99,-99,0.1,0,none,39,18,Man,Right,
0,3,1,0.6672121999999945,['c'],1,left,['8'],4,3.400503099999696,0.4,0,none,39,18,Man,Right,
1,3,1,0.9323027999998885,['c'],1,left,['8'],4,1.01861370000006,0.1,0,none,39,18,Man,Right,
2,3,1,0.9821492999999464,['n'],0,left,['8'],4,3.9520294000012655,0.1,0,none,39,18,Man,Right,
3,3,1,0.4825872999990679,['n'],1,right,['8'],4,1.868806599999516,0.1,0,none,39,18,Man,Right,
4,3,1,0.5505558000004385,['n'],1,right,['9'],5,1.0353465999996843,0.1,0,none,39,18,Man,Right,
5,3,1,0.6841504000003624,['n'],1,right,['9'],5,1.0001854999991338,0.4,0,none,39,18,Man,Right,
6,3,1,0.5336170999999013,['n'],1,right,['9'],5,1.0673655999999028,0.1,0,none,39,18,Man,Right,
7,3,1,0.8343872999994346,['n'],1,right,['3'],3,3.2351140000009764,0.2,0,none,39,18,Man,Right,
8,3,1,0.799292499999865,['n'],1,right,['8'],4,1.8686071000010998,0.4,0,none,39,18,Man,Right,
9,3,1,0.5655595000007452,['n'],1,right,['9'],5,0.7841651999988244,0.4,0,none,39,18,Man,Right,
10,3,1,0.5846010000004753,['n'],1,right,['9'],5,0.7347284000006766,0.2,0,none,39,18,Man,Right,
11,3,1,0.5671980999995867,['c'],0,right,['8'],4,1.3333007999990514,0.1,0,none,39,18,Man,Right,
12,3,1,0.6652833999996801,['c'],1,left,['8'],4,1.252400999999736,0.2,0,none,39,18,Man,Right,
13,3,1,0.3670650999993086,['n'],1,right,['8'],4,1.433592100000169,0.4,0,none,39,18,Man,Right,
14,3,1,0.36607420000109414,['c'],1,left,['8'],4,1.0027561000006244,0.2,0,none,39,18,Man,Right,
15,3,1,0.4173187999986112,['n'],1,right,['8'],4,0.8021122999998624,0.4,0,none,39,18,Man,Right,
16,3,1,0.43346870000095805,['n'],1,right,['9'],5,0.9165061000003334,0.1,0,none,39,18,Man,Right,
17,3,1,0.45167440000113857,['c'],1,left,['9'],5,0.7679934000007052,0.4,0,none,39,18,Man,Right,
18,3,1,0.5995426999998017,['n'],0,left,['3'],3,1.5673712000007072,0.2,0,none,39,18,Man,Right,
19,3,1,0.4172065000002476,['c'],1,left,['9'],5,1.234515799998917,0.2,0,none,39,18,Man,Right,
20,3,1,0.4500389999993786,['c'],1,left,['8'],4,1.4511882000006153,0.4,0,none,39,18,Man,Right,
21,3,1,0.5006697000007989,['c'],1,left,['9'],5,0.8346793000000616,0.2,0,none,39,18,Man,Right,
22,3,1,0.5497949999989942,['c'],1,left,['9'],5,0.9179451999989396,0.2,0,none,39,18,Man,Right,
23,3,1,0.7668388000001869,['c'],1,left,['8'],4,0.8845983999999589,0.1,0,none,39,18,Man,Right,
0,4,1,2.417191599999569,['c'],1,left,['8'],4,1.449866299999485,0.2,0,AccFast,39,18,Man,Right,
1,4,1,0.8682915999997931,['c'],1,left,['8'],4,0.317488400000002,0.1,0,AccFast,39,18,Man,Right,
2,4,1,0.6677266000006057,['c'],1,left,['8'],4,0.1674726000001101,0.2,0,AccFast,39,18,Man,Right,
3,4,1,0.502210799999375,['c'],1,left,['9'],5,0.500697699999364,0.2,0,AccFast,39,18,Man,Right,
4,4,1,0.5513209000000643,['c'],1,left,['9'],5,0.23541490000025078,0.1,0,AccFast,39,18,Man,Right,
5,4,1,0.5177112000001216,['c'],1,left,['8'],4,0.2515313000003516,0.4,0,AccFast,39,18,Man,Right,
6,4,1,0.4315950999989582,['c'],0,right,['3'],3,0.7862241000002541,0.1,0,AccFast,39,18,Man,Right,
7,4,1,0.5837489000005007,['n'],1,right,['8'],4,0.3507575000003271,0.2,0,AccFast,39,18,Man,Right,
8,4,1,1.25117549999959,['c'],1,left,['9'],5,0.08571440000014263,0.4,0,AccFast,39,18,Man,Right,
9,4,1,0.800077699999747,['n'],1,right,['8'],4,0.150578000000678,0.2,0,AccFast,39,18,Man,Right,
10,4,1,0.6160386999999901,['c'],1,left,['8'],4,0.18510330000026443,0.1,0,AccFast,39,18,Man,Right,
11,4,1,0.9503289000003861,['c'],1,left,['8'],4,0.0513518000007025,0.2,0,AccFast,39,18,Man,Right,
12,4,1,0.9838779999990948,['c'],0,right,['8'],4,0.11802780000107305,0.1,0,AccFast,39,18,Man,Right,
13,4,1,0.8340023000000656,['n'],1,right,['8'],4,0.1663606999991316,0.1,0,AccFast,39,18,Man,Right,
14,4,1,0.6005811999984871,['c'],1,left,['8'],4,0.16815560000031837,0.4,0,AccFast,39,18,Man,Right,
15,4,1,0.7494459999998071,['n'],1,right,['8'],4,0.167723799999294,0.4,0,AccFast,39,18,Man,Right,
16,4,1,0.5839331000006496,['n'],1,right,['8'],4,0.13325699999950302,0.1,0,AccFast,39,18,Man,Right,
17,4,1,1.0338928000001033,['n'],0,left,['8'],4,0.13511169999947015,0.2,0,AccFast,39,18,Man,Right,
18,4,1,0.7346400000005815,['n'],1,right,['8'],4,0.21777649999967252,0.4,0,AccFast,39,18,Man,Right,
19,4,1,0.5171675000001414,['n'],1,right,['8'],4,0.11836570000014035,0.4,0,AccFast,39,18,Man,Right,
20,4,1,1.1489745999988372,['n'],1,right,['9'],5,0.06747619999987364,0.4,0,AccFast,39,18,Man,Right,
21,4,1,1.216452799999388,['c'],1,left,['9'],5,0.11890839999978198,0.2,0,AccFast,39,18,Man,Right,
22,4,1,1.348902599998837,['n'],1,right,['9'],5,0.10242029999972146,0.2,0,AccFast,39,18,Man,Right,
23,4,1,0.8830239999988407,['n'],1,right,['9'],5,0.035635500000353204,0.1,0,AccFast,39,18,Man,Right,
24,4,1,1.2663990000000922,['c'],1,left,['9'],5,0.11750680000113789,0.1,0,AccFast,39,18,Man,Right,
25,4,1,1.3328985000007378,['c'],0,right,['0'],6,0.7838878000002296,0.4,0,AccFast,39,18,Man,Right,
26,4,1,1.117553300000509,['c'],1,left,['9'],5,0.23339140000098269,0.1,0,AccFast,39,18,Man,Right,
27,4,1,1.8174006000008376,['n'],0,left,['0'],6,0.08461940000051982,0.4,0,AccFast,39,18,Man,Right,
28,4,1,1.182808899999145,['c'],1,left,['9'],5,0.18514549999963492,0.4,0,AccFast,39,18,Man,Right,
29,4,1,0.7498277000013331,['c'],0,right,['9'],5,0.08499830000073416,0.2,0,AccFast,39,18,Man,Right,
30,4,1,0.8172278000001825,['c'],0,right,['9'],5,0.10237729999971634,0.2,0,AccFast,39,18,Man,Right,
31,4,1,2.4485358000001725,['c'],1,left,['3'],3,0.3855583000004117,0.4,0,AccFast,39,18,Man,Right,
32,4,1,0.9841651000006095,['n'],1,right,['9'],5,0.13367969999853813,0.1,0,AccFast,39,18,Man,Right,
33,4,1,0.716377000000648,['n'],1,right,['9'],5,0.03464730000087002,0.2,0,AccFast,39,18,Man,Right,
34,4,1,0.9825825999996596,['n'],1,right,['9'],5,0.05224640000051295,0.4,0,AccFast,39,18,Man,Right,
35,4,1,1.0335524999991321,['n'],1,right,['9'],5,0.08563020000110555,0.2,0,AccFast,39,18,Man,Right,
36,4,1,1.250152500000695,['n'],1,right,['9'],5,0.017212899998412468,0.1,0,AccFast,39,18,Man,Right,
37,4,1,1.2014533000001393,['n'],0,left,['9'],5,0.10073620000002848,0.1,0,AccFast,39,18,Man,Right,
38,4,1,0.948438299999907,['n'],1,right,['9'],5,0.050715800000034506,0.4,0,AccFast,39,18,Man,Right,
39,4,1,2.150099599999521,['n'],0,left,['9'],5,0.017958499998712796,0.2,0,AccFast,39,18,Man,Right,
40,4,1,1.4677886000008584,['n'],1,right,['9'],5,0.05128519999925629,0.1,0,AccFast,39,18,Man,Right,
41,4,1,3.182988700000351,['c'],1,left,['8'],4,0.10004839999965043,0.2,0,AccFast,39,18,Man,Right,
42,4,1,2.0361257000004116,['c'],1,left,['8'],4,0.08439650000036636,0.1,0,AccFast,39,18,Man,Right,
43,4,1,1.1828939000006358,['n'],0,left,['9'],5,0.06796099999883154,0.1,0,AccFast,39,18,Man,Right,
44,4,1,1.2174175000000105,['c'],1,left,['8'],4,0.10177110000040557,0.2,0,AccFast,39,18,Man,Right,
45,4,1,1.4490700000005745,['n'],1,right,['8'],4,0.06654150000031223,0.1,0,AccFast,39,18,Man,Right,
46,4,1,0.9352280999992217,['n'],1,right,['8'],4,0.066699900000458,0.1,0,AccFast,39,18,Man,Right,
47,4,1,0.8825878999996348,['n'],1,right,['8'],4,0.05179839999982505,0.2,0,AccFast,39,18,Man,Right,
48,4,1,0.784159599999839,['n'],0,left,['8'],4,0.06875570000011066,0.2,0,AccFast,39,18,Man,Right,
49,4,1,0.7330152999984421,['n'],0,left,['8'],4,0.10014640000008512,0.1,0,AccFast,39,18,Man,Right,
50,4,1,0.8345537999994121,['n'],0,left,['8'],4,0.06797310000001744,0.2,0,AccFast,39,18,Man,Right,
51,4,1,0.9177265999987867,['n'],1,right,['8'],4,0.11791679999987537,0.4,0,AccFast,39,18,Man,Right,
52,4,1,0.8172187999989546,['n'],0,left,['9'],5,0.10125340000013239,0.4,0,AccFast,39,18,Man,Right,
53,4,1,0.7672368000003189,['n'],0,left,['9'],5,0.11596930000087013,0.4,0,AccFast,39,18,Man,Right,
54,4,1,1.1493618000004062,['n'],1,right,['8'],4,0.1332092000011471,0.4,0,AccFast,39,18,Man,Right,
55,4,1,0.934964600000967,['n'],1,right,['9'],5,0.10092559999975492,0.2,0,AccFast,39,18,Man,Right,
56,4,1,0.9331610999997793,['n'],0,left,['8'],4,0.1667849000004935,0.4,0,AccFast,39,18,Man,Right,
57,4,1,0.665951099999802,['n'],1,right,['8'],4,0.11918199999854551,0.4,0,AccFast,39,18,Man,Right,
58,4,1,0.6505393000006734,['n'],1,right,['8'],4,0.08337120000032883,0.4,0,AccFast,39,18,Man,Right,
59,4,1,0.7339045999997325,['n'],0,left,['8'],4,0.10173120000035851,0.1,0,AccFast,39,18,Man,Right,
0,5,1,3.217116599998917,['n'],0,left,['8'],4,1.3833362000004854,0.4,0,AccAcc,39,18,Man,Right,
1,5,1,0.817016799999692,['n'],1,right,['9'],5,0.6011684000004607,0.4,0,AccAcc,39,18,Man,Right,
2,5,1,1.2001108999993448,['n'],1,right,['9'],5,0.6346716999996715,0.1,0,AccAcc,39,18,Man,Right,
3,5,1,1.1485816999993403,['n'],0,left,['8'],4,0.7011301000002277,0.4,0,AccAcc,39,18,Man,Right,
4,5,1,0.9849288999994315,['n'],0,left,['8'],4,0.6179389000008086,0.2,0,AccAcc,39,18,Man,Right,
5,5,1,0.98391090000041,['n'],1,right,['8'],4,0.7017166999994515,0.4,0,AccAcc,39,18,Man,Right,
6,5,1,1.0346621999997296,['n'],1,right,['8'],4,0.584847300000547,0.2,0,AccAcc,39,18,Man,Right,
7,5,1,1.2811564999992697,['n'],1,right,['8'],4,0.5341250999990734,0.2,0,AccAcc,39,18,Man,Right,
8,5,1,2.9001114000002417,['n'],0,left,['8'],4,0.6181271000004926,0.1,0,AccAcc,39,18,Man,Right,
9,5,1,1.8168495000008988,['c'],0,right,['8'],4,0.7180767000008927,0.2,0,AccAcc,39,18,Man,Right,
10,5,1,1.099471599998651,['n'],1,right,['8'],4,0.7684678999994503,0.2,0,AccAcc,39,18,Man,Right,
11,5,1,1.1168809999999212,['n'],1,right,['9'],5,1.2345951000006608,0.4,0,AccAcc,39,18,Man,Right,
12,5,1,1.5991008000000875,['n'],1,right,['9'],5,0.36878489999980957,0.2,0,AccAcc,39,18,Man,Right,
13,5,1,1.0491262999985338,['n'],1,right,['9'],5,0.45034470000064175,0.1,0,AccAcc,39,18,Man,Right,
14,5,1,4.3328625000012835,['c'],0,right,['3'],3,1.3171246000001702,0.1,0,AccAcc,39,18,Man,Right,
15,5,1,1.84851449999951,['c'],1,left,['8'],4,0.6675706999994873,0.2,0,AccAcc,39,18,Man,Right,
16,5,1,1.085590400000001,['n'],1,right,['9'],5,0.5681176999987656,0.4,0,AccAcc,39,18,Man,Right,
17,5,1,1.9489591999990807,['c'],1,left,['3'],3,0.7013399999996182,0.1,0,AccAcc,39,18,Man,Right,
18,5,1,1.6836535000002186,['c'],1,left,['3'],3,0.8347327999999834,0.4,0,AccAcc,39,18,Man,Right,
19,5,1,0.9503058999998757,['n'],1,right,['9'],5,0.5514671999990242,0.4,0,AccAcc,39,18,Man,Right,
20,5,1,4.049498599999424,['c'],1,left,['3'],3,0.8183692000002338,0.2,0,AccAcc,39,18,Man,Right,
21,5,1,1.2504050000006828,['c'],1,left,['3'],3,0.41796699999940756,0.2,0,AccAcc,39,18,Man,Right,
22,5,1,1.4335208000011335,['n'],1,right,['8'],4,0.7011798999992607,0.1,0,AccAcc,39,18,Man,Right,
23,5,1,0.9328611999990244,['n'],1,right,['8'],4,0.8185933000004297,0.1,0,AccAcc,39,18,Man,Right,
24,5,1,2.700226200000543,['n'],0,left,['8'],4,0.9339066999982606,0.1,0,AccAcc,39,18,Man,Right,
25,5,1,2.1662907000009,['n'],0,left,['8'],4,0.7020904999990307,0.2,0,AccAcc,39,18,Man,Right,
26,5,1,0.9665193999990151,['c'],1,left,['9'],5,1.202064799999789,0.4,0,AccAcc,39,18,Man,Right,
27,5,1,0.8838582000007591,['n'],1,right,['9'],5,0.6845572999991418,0.2,0,AccAcc,39,18,Man,Right,
28,5,1,1.5156311999999161,['c'],1,left,['3'],3,0.8685370000002877,0.4,0,AccAcc,39,18,Man,Right,
29,5,1,0.8500351999991835,['n'],1,right,['8'],4,0.6857053999992786,0.4,0,AccAcc,39,18,Man,Right,
30,5,1,1.4174337000004016,['n'],0,left,['9'],5,0.48469889999978477,0.1,0,AccAcc,39,18,Man,Right,
31,5,1,0.9990840999998909,['n'],1,right,['0'],6,1.0194694999991043,0.2,0,AccAcc,39,18,Man,Right,
32,5,1,0.8508668999984366,['c'],1,left,['9'],5,0.9675519000011263,0.4,0,AccAcc,39,18,Man,Right,
33,5,1,1.3510069999992993,['c'],1,left,['8'],4,1.0179141999997228,0.4,0,AccAcc,39,18,Man,Right,
34,5,1,0.7000590999996348,['n'],1,right,['9'],5,0.40128030000050785,0.2,0,AccAcc,39,18,Man,Right,
35,5,1,1.2505080999999336,['n'],1,right,['8'],4,0.45137009999962174,0.2,0,AccAcc,39,18,Man,Right,
36,5,1,2.1337966000010056,['c'],1,left,['8'],4,0.9347677000005206,0.1,0,AccAcc,39,18,Man,Right,
37,5,1,2.0662064000007376,['c'],1,left,['8'],4,0.668134800000189,0.1,0,AccAcc,39,18,Man,Right,
38,5,1,1.1990583000006154,['c'],1,left,['9'],5,0.6350315999989107,0.1,0,AccAcc,39,18,Man,Right,
39,5,1,1.0671946000002208,['c'],1,left,['8'],4,0.7846645999998145,0.1,0,AccAcc,39,18,Man,Right,
40,5,1,0.8837357000011252,['c'],0,right,['3'],3,0.4011331000001519,0.1,0,AccAcc,39,18,Man,Right,
41,5,1,1.6504296000002796,['c'],1,left,['9'],5,0.4349363999990601,0.4,0,AccAcc,39,18,Man,Right,
42,5,1,0.8167353999997431,['n'],1,right,['0'],6,0.6346635000008973,0.4,0,AccAcc,39,18,Man,Right,
43,5,1,1.3996351999994658,['c'],0,right,['3'],3,0.651352400000178,0.1,0,AccAcc,39,18,Man,Right,
44,5,1,1.9170577000004414,['n'],1,right,['9'],5,0.6016488999994181,0.4,0,AccAcc,39,18,Man,Right,
45,5,1,1.3172159000005195,['c'],1,left,['9'],5,0.551217700000052,0.2,0,AccAcc,39,18,Man,Right,
46,5,1,1.1820093000005727,['c'],1,left,['9'],5,0.45257390000006126,0.4,0,AccAcc,39,18,Man,Right,
47,5,1,0.8677444999993895,['n'],1,right,['9'],5,0.6666588999996748,0.2,0,AccAcc,39,18,Man,Right,
48,5,1,0.9325769000006403,['c'],1,left,['9'],5,1.6349741000012727,0.2,0,AccAcc,39,18,Man,Right,
49,5,1,1.148623499999303,['c'],1,left,['0'],6,0.48360669999965467,0.4,0,AccAcc,39,18,Man,Right,
50,5,1,2.0000266000006377,['c'],0,right,['3'],3,1.333910699999251,0.1,0,AccAcc,39,18,Man,Right,
51,5,1,0.9340608000002248,['c'],1,left,['8'],4,1.1514062999995076,0.2,0,AccAcc,39,18,Man,Right,
52,5,1,1.7157654999991792,['c'],1,left,['8'],4,0.8177887000001647,0.2,0,AccAcc,39,18,Man,Right,
53,5,1,0.9825596999999107,['n'],1,right,['9'],5,0.6356205000010959,0.4,0,AccAcc,39,18,Man,Right,
54,5,1,1.2338098000000173,['c'],1,left,['9'],5,0.6667570000008709,0.4,0,AccAcc,39,18,Man,Right,
55,5,1,2.8834179999994376,['n'],1,right,['8'],4,0.7007345000001806,0.1,0,AccAcc,39,18,Man,Right,
56,5,1,1.4012641000008443,['n'],0,left,['3'],3,0.634641399999964,0.1,0,AccAcc,39,18,Man,Right,
57,5,1,1.4337488999990455,['n'],0,left,['9'],5,0.6676984999994602,0.2,0,AccAcc,39,18,Man,Right,
58,5,1,2.14843269999983,['n'],1,right,['3'],3,1.3187987999990582,0.1,0,AccAcc,39,18,Man,Right,
59,5,1,1.6990836000004492,['c'],0,right,['2'],2,0.8019653999999719,0.1,0,AccAcc,39,18,Man,Right,
0,6,1,0.26764379999985977,['c'],1,left,['8'],4,2.367680499999551,0.1,0,FastAcc,39,18,Man,Right,
1,6,1,0.4002746999994997,['n'],0,left,['8'],4,0.9183989000011934,0.1,0,FastAcc,39,18,Man,Right,
2,6,1,0.40059800000017276,['n'],0,left,['8'],4,1.1343998000011197,0.1,0,FastAcc,39,18,Man,Right,
3,6,1,0.48442489999979443,['n'],1,right,['9'],5,1.8679317999994964,0.2,0,FastAcc,39,18,Man,Right,
4,6,1,0.2994494000013219,['n'],1,right,['8'],4,1.2833803000012267,0.2,0,FastAcc,39,18,Man,Right,
5,6,1,0.26542150000022957,['c'],1,left,['8'],4,1.2848231000007218,0.4,0,FastAcc,39,18,Man,Right,
6,6,1,0.28406730000097014,['n'],0,left,['2'],2,1.384465099999943,0.4,0,FastAcc,39,18,Man,Right,
7,6,1,0.299202600001081,['n'],0,left,['9'],5,1.1523856999992859,0.1,0,FastAcc,39,18,Man,Right,
8,6,1,0.2843676000011328,['c'],1,left,['9'],5,1.284148599999753,0.4,0,FastAcc,39,18,Man,Right,
9,6,1,0.2687186000002839,['n'],1,right,['9'],5,1.0011580999998841,0.4,0,FastAcc,39,18,Man,Right,
10,6,1,0.1999898000012763,['c'],0,right,['2'],2,1.134587599999577,0.1,0,FastAcc,39,18,Man,Right,
11,6,1,0.23383589999866672,['n'],1,right,['9'],5,0.7515378000007331,0.2,0,FastAcc,39,18,Man,Right,
12,6,1,0.36750690000008035,['c'],1,left,['2'],2,1.3512594000003446,0.2,0,FastAcc,39,18,Man,Right,
13,6,1,0.23403089999919757,['c'],1,left,['9'],5,0.9664545000014186,0.4,0,FastAcc,39,18,Man,Right,
14,6,1,0.2497693999994226,['n'],1,right,['3'],3,1.8842234999992797,0.1,0,FastAcc,39,18,Man,Right,
15,6,1,0.049896099999386934,['c'],1,left,['8'],4,2.3678571000000375,0.4,0,FastAcc,39,18,Man,Right,
16,6,1,0.31540860000131943,['c'],1,left,['8'],4,1.0848733999991964,0.2,0,FastAcc,39,18,Man,Right,
17,6,1,0.26754040000014356,['n'],0,left,['9'],5,0.8347235000001092,0.1,0,FastAcc,39,18,Man,Right,
18,6,1,0.3159421999989718,['c'],0,right,['2'],2,0.8530073000001721,0.1,0,FastAcc,39,18,Man,Right,
19,6,1,0.23253360000126122,['n'],0,left,['2'],2,0.8187336999999388,0.2,0,FastAcc,39,18,Man,Right,
20,6,1,0.33209829999941576,['n'],1,right,['9'],5,1.1180807999990066,0.4,0,FastAcc,39,18,Man,Right,
21,6,1,0.016930599998886464,['c'],1,left,['8'],4,1.285958099999334,0.2,0,FastAcc,39,18,Man,Right,
22,6,1,0.2646848999993381,['n'],0,left,['9'],5,1.136058199999752,0.1,0,FastAcc,39,18,Man,Right,
23,6,1,0.2675639000008232,['c'],1,left,['9'],5,1.134598200000255,0.2,0,FastAcc,39,18,Man,Right,
24,6,1,0.24917119999918214,['n'],0,left,['9'],5,0.9526192000012088,0.4,0,FastAcc,39,18,Man,Right,
25,6,1,0.2663570999993681,['c'],0,right,['2'],2,1.2677167000001646,0.2,0,FastAcc,39,18,Man,Right,
26,6,1,0.33432749999883526,['n'],0,left,['8'],4,0.7833441999991919,0.1,0,FastAcc,39,18,Man,Right,
27,6,1,0.2335599000016373,['c'],0,right,['2'],2,1.8514649999997346,0.1,0,FastAcc,39,18,Man,Right,
28,6,1,0.2172485000010056,['n'],1,right,['9'],5,1.1841542000001937,0.1,0,FastAcc,39,18,Man,Right,
29,6,1,0.31784030000017083,['c'],0,right,['2'],2,0.6520880999996734,0.4,0,FastAcc,39,18,Man,Right,
30,6,1,0.33328379999875324,['c'],1,left,['2'],2,1.1161489000005531,0.2,0,FastAcc,39,18,Man,Right,
31,6,1,0.3021957000000839,['n'],1,right,['9'],5,0.8843933999996807,0.2,0,FastAcc,39,18,Man,Right,
32,6,1,0.1822799000001396,['c'],1,left,['2'],2,0.7348154999999679,0.4,0,FastAcc,39,18,Man,Right,
33,6,1,0.3341963000002579,['n'],0,left,['9'],5,0.5856153999993694,0.2,0,FastAcc,39,18,Man,Right,
34,6,1,0.43404460000056133,['n'],0,left,['2'],2,1.6179768000001786,0.4,0,FastAcc,39,18,Man,Right,
35,6,1,0.23267350000060105,['c'],0,right,['2'],2,1.268455700001141,0.4,0,FastAcc,39,18,Man,Right,
36,6,1,0.2827711999998428,['n'],1,right,['9'],5,0.7676852000004146,0.1,0,FastAcc,39,18,Man,Right,
37,6,1,0.26702320000003965,['c'],1,left,['3'],3,1.5178891000014119,0.2,0,FastAcc,39,18,Man,Right,
38,6,1,0.2154794000016409,['c'],1,left,['9'],5,2.2352394000008644,0.4,0,FastAcc,39,18,Man,Right,
39,6,1,0.018345300000873976,['n'],1,right,['8'],4,1.166444300000876,0.2,0,FastAcc,39,18,Man,Right,
40,6,1,0.23423010000078648,['c'],0,right,['3'],3,1.8825448999996297,0.1,0,FastAcc,39,18,Man,Right,
41,6,1,0.21825840000019525,['n'],1,right,['9'],5,0.9508007999993424,0.2,0,FastAcc,39,18,Man,Right,
42,6,1,0.2505424999999377,['c'],1,left,['9'],5,1.034641799999008,0.1,0,FastAcc,39,18,Man,Right,
43,6,1,0.0837946000010561,['n'],1,right,['8'],4,0.9846316000002844,0.2,0,FastAcc,39,18,Man,Right,
44,6,1,0.24957660000109172,['c'],1,left,['9'],5,1.969009399999777,0.4,0,FastAcc,39,18,Man,Right,
45,6,1,0.23465650000071037,['c'],1,left,['8'],4,1.0341273999983969,0.1,0,FastAcc,39,18,Man,Right,
46,6,1,0.1669261999995797,['n'],1,right,['8'],4,0.8674989999999525,0.2,0,FastAcc,39,18,Man,Right,
47,6,1,0.20061490000080084,['c'],1,left,['9'],5,1.0346219000002748,0.4,0,FastAcc,39,18,Man,Right,
48,6,1,0.5169896999996126,['n'],1,right,['8'],4,0.9847375000008469,0.1,0,FastAcc,39,18,Man,Right,
49,6,1,0.23192159999962314,['c'],0,right,['2'],2,0.7673011999995651,0.4,0,FastAcc,39,18,Man,Right,
50,6,1,0.25108820000059495,['c'],0,right,['1'],1,0.6179845000006026,0.4,0,FastAcc,39,18,Man,Right,
51,6,1,0.21635319999950298,['n'],1,right,['9'],5,0.8840079000001424,0.2,0,FastAcc,39,18,Man,Right,
52,6,1,0.41771109999899636,['n'],1,right,['8'],4,2.2659048000004987,0.4,0,FastAcc,39,18,Man,Right,
53,6,1,0.21716279999964172,['c'],0,right,['2'],2,1.2172791000011784,0.1,0,FastAcc,39,18,Man,Right,
54,6,1,0.15105359999870416,['n'],1,right,['9'],5,0.7171706000008271,0.4,0,FastAcc,39,18,Man,Right,
55,6,1,0.23452780000116036,['n'],1,right,['9'],5,0.7844294999995327,0.2,0,FastAcc,39,18,Man,Right,
56,6,1,0.16631170000073325,['n'],0,left,['8'],4,1.0841627000008884,0.2,0,FastAcc,39,18,Man,Right,
57,6,1,0.10077310000087891,['n'],1,right,['9'],5,1.3824683999991976,0.4,0,FastAcc,39,18,Man,Right,
58,6,1,0.11784549999902083,['c'],1,left,['3'],3,1.05134949999956,0.1,0,FastAcc,39,18,Man,Right,
59,6,1,0.08207489999949757,['n'],1,right,['8'],4,1.0852532999997493,0.1,0,FastAcc,39,18,Man,Right,
0,7,1,0.3175367000003462,['c'],0,right,['8'],4,0.3337993000004644,0.4,0,FastFast,39,18,Man,Right,
1,7,1,0.21611920000032114,['n'],0,left,['3'],3,0.23504649999995308,0.1,0,FastFast,39,18,Man,Right,
2,7,1,0.2177534000002197,['c'],0,right,['8'],4,0.18544939999992494,0.2,0,FastFast,39,18,Man,Right,
3,7,1,0.2334552000011172,['c'],1,left,['8'],4,0.11799910000081582,0.2,0,FastFast,39,18,Man,Right,
4,7,1,0.26674649999949906,['n'],1,right,['2'],2,0.06664649999947869,0.4,0,FastFast,39,18,Man,Right,
5,7,1,0.2512980999999854,['n'],1,right,['8'],4,0.20142869999835966,0.1,0,FastFast,39,18,Man,Right,
6,7,1,0.2670109999999113,['c'],1,left,['8'],4,0.018192900000940426,0.2,0,FastFast,39,18,Man,Right,
7,7,1,0.24931199999991804,['c'],0,right,['8'],4,0.05157680000047549,0.4,0,FastFast,39,18,Man,Right,
8,7,1,0.266649299999699,['n'],1,right,['8'],4,0.13507639999988896,0.2,0,FastFast,39,18,Man,Right,
9,7,1,0.1991435999989335,['c'],1,left,['8'],4,0.18560939999952097,0.1,0,FastFast,39,18,Man,Right,
10,7,1,0.10132659999908356,['c'],0,right,['8'],4,0.10135670000090613,0.4,0,FastFast,39,18,Man,Right,
11,7,1,0.26676729999962845,['n'],1,right,['8'],4,0.035042499999690335,0.1,0,FastFast,39,18,Man,Right,
12,7,1,0.3333877000004577,['n'],0,left,['8'],4,0.11800119999861636,0.4,0,FastFast,39,18,Man,Right,
13,7,1,0.23321179999948072,['n'],1,right,['8'],4,0.11748219999935827,0.1,0,FastFast,39,18,Man,Right,
14,7,1,0.3350449999998091,['c'],0,right,['8'],4,0.08435459999964223,0.1,0,FastFast,39,18,Man,Right,
15,7,1,0.25066530000003695,['c'],0,right,['8'],4,0.05094259999896167,0.2,0,FastFast,39,18,Man,Right,
16,7,1,0.21735809999881894,['n'],1,right,['3'],3,0.06767670000044745,0.1,0,FastFast,39,18,Man,Right,
17,7,1,0.2345402999999351,['c'],1,left,['8'],4,0.06782460000067658,0.4,0,FastFast,39,18,Man,Right,
18,7,1,0.2996913000006316,['c'],0,right,['8'],4,0.05116450000059558,0.4,0,FastFast,39,18,Man,Right,
19,7,1,0.2179642999999487,['n'],0,left,['2'],2,0.08430899999984831,0.2,0,FastFast,39,18,Man,Right,
20,7,1,0.2832113999993453,['c'],0,right,['9'],5,0.06809409999914351,0.2,0,FastFast,39,18,Man,Right,
21,7,1,0.4171459999997751,['n'],0,left,['9'],5,0.15195529999982682,0.4,0,FastFast,39,18,Man,Right,
22,7,1,0.2829801000007137,['c'],1,left,['9'],5,0.0514244999994844,0.2,0,FastFast,39,18,Man,Right,
23,7,1,0.26590089999990596,['c'],0,right,['8'],4,0.017841999999291147,0.4,0,FastFast,39,18,Man,Right,
24,7,1,0.43300060000001395,['c'],1,left,['8'],4,0.11797879999903671,0.1,0,FastFast,39,18,Man,Right,
25,7,1,0.5008510999996361,['c'],1,left,['8'],4,0.10150749999957043,0.2,0,FastFast,39,18,Man,Right,
26,7,1,0.3347001999991335,['c'],1,left,['8'],4,0.08420879999903264,0.4,0,FastFast,39,18,Man,Right,
27,7,1,0.35110119999990275,['c'],1,left,['8'],4,0.10239590000128374,0.1,0,FastFast,39,18,Man,Right,
28,7,1,0.39994020000085584,['n'],0,left,['8'],4,0.03491349999967497,0.4,0,FastFast,39,18,Man,Right,
29,7,1,0.2498120000000199,['c'],0,right,['8'],4,0.05127319999883184,0.1,0,FastFast,39,18,Man,Right,
30,7,1,0.28439590000016324,['n'],1,right,['8'],4,0.9849868000001152,0.1,0,FastFast,39,18,Man,Right,
31,7,1,0.33370860000104585,['c'],0,right,['8'],4,0.0670295999989321,0.1,0,FastFast,39,18,Man,Right,
32,7,1,0.34950129999924684,['n'],0,left,['8'],4,0.06831480000073498,0.4,0,FastFast,39,18,Man,Right,
33,7,1,0.36774460000015097,['c'],1,left,['8'],4,0.08496749999903841,0.2,0,FastFast,39,18,Man,Right,
34,7,1,0.3326550000001589,['c'],0,right,['8'],4,0.11790560000008554,0.2,0,FastFast,39,18,Man,Right,
35,7,1,0.38364369999908376,['n'],0,left,['8'],4,0.9683413000002474,0.1,0,FastFast,39,18,Man,Right,
36,7,1,0.31732410000040545,['c'],0,right,['8'],4,0.08513469999888912,0.2,0,FastFast,39,18,Man,Right,
37,7,1,0.483118199999808,['n'],0,left,['8'],4,1.0004336000001786,0.1,0,FastFast,39,18,Man,Right,
38,7,1,0.4847191999997449,['c'],1,left,['8'],4,0.10127309999916179,0.4,0,FastFast,39,18,Man,Right,
39,7,1,0.551270600000862,['c'],1,left,['8'],4,0.05173370000011346,0.2,0,FastFast,39,18,Man,Right,
40,7,1,0.41737409999950614,['c'],0,right,['8'],4,0.06798969999908877,0.2,0,FastFast,39,18,Man,Right,
41,7,1,0.45110879999992903,['n'],0,left,['8'],4,0.1010046000010334,0.4,0,FastFast,39,18,Man,Right,
42,7,1,0.3682244999999966,['c'],0,right,['8'],4,0.11689310000110709,0.4,0,FastFast,39,18,Man,Right,
43,7,1,0.4679919999998674,['n'],0,left,['8'],4,0.13468689999899652,0.1,0,FastFast,39,18,Man,Right,
44,7,1,0.38256660000115517,['c'],1,left,['8'],4,0.10257889999957115,0.2,0,FastFast,39,18,Man,Right,
45,7,1,0.43400329999894893,['n'],1,right,['8'],4,0.684581799998341,0.4,0,FastFast,39,18,Man,Right,
46,7,1,0.38389420000021346,['c'],0,right,['8'],4,0.10130820000085805,0.2,0,FastFast,39,18,Man,Right,
47,7,1,0.38388250000025437,['c'],0,right,['8'],4,0.08468790000006265,0.1,0,FastFast,39,18,Man,Right,
48,7,1,0.6669409999994969,['n'],1,right,['8'],4,0.3682168000013917,0.1,0,FastFast,39,18,Man,Right,
49,7,1,0.5339282000004459,['c'],1,left,['8'],4,0.10172480000073847,0.4,0,FastFast,39,18,Man,Right,
50,7,1,0.30037820000143256,['c'],1,left,['8'],4,0.10169029999997292,0.2,0,FastFast,39,18,Man,Right,
51,7,1,0.24988789999952132,['n'],1,right,['3'],3,0.11656869999933406,0.2,0,FastFast,39,18,Man,Right,
52,7,1,0.4832337000007101,['n'],0,left,['3'],3,0.13380300000062562,0.4,0,FastFast,39,18,Man,Right,
53,7,1,0.43382540000129666,['c'],1,left,['8'],4,0.0682135000006383,0.4,0,FastFast,39,18,Man,Right,
54,7,1,0.28408850000050734,['n'],1,right,"['3', '8']",3,0.1678646000000299,0.4,0,FastFast,39,18,Man,Right,
55,7,1,0.19997680000051332,['c'],1,left,['8'],4,0.06810690000020259,0.1,0,FastFast,39,18,Man,Right,
56,7,1,0.2335095000016736,['n'],0,left,['3'],3,0.10102510000069742,0.2,0,FastFast,39,18,Man,Right,
57,7,1,0.2848181999997905,['c'],0,right,['8'],4,0.1016313000000082,0.2,0,FastFast,39,18,Man,Right,
58,7,1,0.3672236000002158,['c'],1,left,['2'],2,0.13448220000100264,0.1,0,FastFast,39,18,Man,Right,
59,7,1,0.30150180000055116,['c'],0,right,['9'],5,0.11795170000004873,0.1,0,FastFast,39,18,Man,Right,
0,8,1,3.8847971000013786,['n'],0,left,['8'],4,0.10131730000102834,0.2,0,AccFast,39,18,Man,Right,
1,8,1,0.7668173000001843,['n'],1,right,['9'],5,0.13521149999905901,0.4,0,AccFast,39,18,Man,Right,
2,8,1,0.8325117000003956,['n'],1,right,['9'],5,0.06827549999979965,0.1,0,AccFast,39,18,Man,Right,
3,8,1,1.7843528000012157,['c'],1,left,['9'],5,0.05072499999914726,0.2,0,AccFast,39,18,Man,Right,
4,8,1,0.6996075000006385,['n'],1,right,['9'],5,0.7184683999985282,0.4,0,AccFast,39,18,Man,Right,
5,8,1,1.3664286000002903,['n'],1,right,['8'],4,0.06812750000062806,0.1,0,AccFast,39,18,Man,Right,
6,8,1,1.1346757000010257,['n'],0,left,['9'],5,0.08465079999950831,0.4,0,AccFast,39,18,Man,Right,
7,8,1,0.7503042999996978,['n'],0,left,['9'],5,0.10162810000110767,0.2,0,AccFast,39,18,Man,Right,
8,8,1,0.8670070000007399,['n'],1,right,['9'],5,0.10101149999900372,0.2,0,AccFast,39,18,Man,Right,
9,8,1,0.7511445000000094,['n'],1,right,['9'],5,0.10145720000036818,0.2,0,AccFast,39,18,Man,Right,
10,8,1,0.7669568000001163,['n'],0,left,['9'],5,0.0857875999990938,0.2,0,AccFast,39,18,Man,Right,
11,8,1,0.8505404999996244,['n'],0,left,['9'],5,0.08460310000009486,0.1,0,AccFast,39,18,Man,Right,
12,8,1,1.3502602000007755,['c'],1,left,['9'],5,0.08512200000041048,0.4,0,AccFast,39,18,Man,Right,
13,8,1,2.8831066000002465,['n'],0,left,['8'],4,0.03414089999932912,0.1,0,AccFast,39,18,Man,Right,
14,8,1,1.6658122000008007,['n'],0,left,['9'],5,0.08378430000084336,0.4,0,AccFast,39,18,Man,Right,
15,8,1,0.9000109999997221,['n'],0,left,['9'],5,0.0852205999999569,0.1,0,AccFast,39,18,Man,Right,
16,8,1,0.7006347000005917,['n'],1,right,['9'],5,0.13477179999972577,0.4,0,AccFast,39,18,Man,Right,
17,8,1,2.36689860000115,['c'],1,left,['8'],4,0.050370299999485724,0.1,0,AccFast,39,18,Man,Right,
18,8,1,1.3660743000000366,['c'],1,left,['8'],4,0.10277080000014394,0.1,0,AccFast,39,18,Man,Right,
19,8,1,0.7496373000012682,['n'],0,left,['9'],5,0.685459099999207,0.2,0,AccFast,39,18,Man,Right,
20,8,1,0.8674592000006669,['n'],0,left,['9'],5,0.051328399998965324,0.1,0,AccFast,39,18,Man,Right,
21,8,1,1.26707019999958,['c'],1,left,['9'],5,0.08625530000063009,0.4,0,AccFast,39,18,Man,Right,
22,8,1,0.9655794999998761,['n'],0,left,['9'],5,0.11795690000144532,0.2,0,AccFast,39,18,Man,Right,
23,8,1,1.1505531999991945,['n'],0,left,['9'],5,0.1997891000009986,0.2,0,AccFast,39,18,Man,Right,
24,8,1,1.049652400000923,['c'],1,left,['9'],5,0.13628779999999097,0.4,0,AccFast,39,18,Man,Right,
25,8,1,0.7497208000004321,['n'],1,right,['9'],5,0.11867859999983921,0.2,0,AccFast,39,18,Man,Right,
26,8,1,0.8513156999997591,['n'],1,right,['9'],5,0.08437430000049062,0.1,0,AccFast,39,18,Man,Right,
27,8,1,0.8507105000007869,['n'],1,right,['9'],5,0.06922940000004019,0.2,0,AccFast,39,18,Man,Right,
28,8,1,0.8673313000017515,['n'],1,right,['9'],5,0.08391819999997097,0.2,0,AccFast,39,18,Man,Right,
29,8,1,1.4827743000005285,['c'],1,left,['9'],5,0.15149730000121053,0.4,0,AccFast,39,18,Man,Right,
30,8,1,0.8502889000010327,['c'],1,left,['9'],5,0.11732159999883152,0.4,0,AccFast,39,18,Man,Right,
31,8,1,0.8182080999995378,['n'],1,right,['9'],5,0.08508489999985613,0.1,0,AccFast,39,18,Man,Right,
32,8,1,1.6008711000013136,['n'],0,left,['9'],5,0.7499274000001606,0.2,0,AccFast,39,18,Man,Right,
33,8,1,0.651076699999976,['n'],1,right,['9'],5,0.11622239999996964,0.4,0,AccFast,39,18,Man,Right,
34,8,1,1.88299410000036,['n'],0,left,['8'],4,0.10225499999978638,0.2,0,AccFast,39,18,Man,Right,
35,8,1,1.200101000000359,['n'],1,right,['8'],4,0.13470109999980195,0.1,0,AccFast,39,18,Man,Right,
36,8,1,0.6689445000010892,['n'],1,right,['9'],5,0.15055169999868667,0.4,0,AccFast,39,18,Man,Right,
37,8,1,1.0837748999983887,['n'],1,right,['8'],4,0.1180860999993456,0.2,0,AccFast,39,18,Man,Right,
38,8,1,0.7837226999999984,['n'],1,right,['9'],5,0.06786269999975048,0.2,0,AccFast,39,18,Man,Right,
39,8,1,1.3345804999989923,['n'],0,left,['8'],4,0.1507681999992201,0.2,0,AccFast,39,18,Man,Right,
40,8,1,0.616064899999401,['n'],1,right,['9'],5,0.05148650000046473,0.4,0,AccFast,39,18,Man,Right,
41,8,1,0.8171849000009388,['n'],1,right,['9'],5,0.08362320000014734,0.1,0,AccFast,39,18,Man,Right,
42,8,1,0.9012899000008474,['n'],1,right,['9'],5,0.13468250000005355,0.1,0,AccFast,39,18,Man,Right,
43,8,1,0.7346380999988469,['n'],1,right,['9'],5,0.11733859999912966,0.4,0,AccFast,39,18,Man,Right,
44,8,1,0.7178313999993406,['n'],1,right,['9'],5,0.10133849999874656,0.4,0,AccFast,39,18,Man,Right,
45,8,1,1.033018300000549,['n'],1,right,['9'],5,0.10080310000012105,0.1,0,AccFast,39,18,Man,Right,
46,8,1,1.400589700000637,['n'],0,left,['8'],4,0.11711110000032932,0.1,0,AccFast,39,18,Man,Right,
47,8,1,0.9840627000012319,['n'],0,left,['8'],4,0.15132660000017495,0.1,0,AccFast,39,18,Man,Right,
48,8,1,0.9503206000008504,['n'],0,left,['9'],5,0.06814979999944626,0.4,0,AccFast,39,18,Man,Right,
49,8,1,0.9153662000007898,['n'],0,left,['8'],4,0.11925169999994978,0.4,0,AccFast,39,18,Man,Right,
50,8,1,0.9170343999994657,['n'],1,right,['8'],4,0.10257399999863992,0.2,0,AccFast,39,18,Man,Right,
51,8,1,0.6167209000013827,['n'],1,right,['9'],5,0.1346969000005629,0.2,0,AccFast,39,18,Man,Right,
52,8,1,0.7164365999997244,['n'],0,left,['9'],5,0.15007989999867277,0.4,0,AccFast,39,18,Man,Right,
53,8,1,0.7012921999994433,['n'],1,right,['9'],5,0.06803010000112408,0.4,0,AccFast,39,18,Man,Right,
54,8,1,0.8335277999995014,['n'],1,right,['9'],5,0.11683780000021216,0.1,0,AccFast,39,18,Man,Right,
55,8,1,0.9845167999992555,['n'],1,right,['9'],5,0.16815260000112175,0.1,0,AccFast,39,18,Man,Right,
56,8,1,0.8996747000001051,['n'],0,left,['8'],4,0.10145089999969059,0.2,0,AccFast,39,18,Man,Right,
57,8,1,0.7681358000008913,['n'],1,right,['9'],5,0.10141459999977087,0.1,0,AccFast,39,18,Man,Right,
58,8,1,0.8163144999998622,['n'],1,right,['0'],6,0.05196510000132548,0.1,0,AccFast,39,18,Man,Right,
59,8,1,1.4658196000000316,['n'],0,left,['9'],5,0.20234439999876486,0.4,0,AccFast,39,18,Man,Right,
0,9,1,2.6343987000000197,['n'],0,left,['8'],4,2.0011737999993784,0.1,0,AccAcc,39,18,Man,Right,
1,9,1,0.8175853000011557,['c'],1,left,['8'],4,1.1506086999997933,0.4,0,AccAcc,39,18,Man,Right,
2,9,1,1.065199599999687,['n'],1,right,['9'],5,1.7022670000005746,0.1,0,AccAcc,39,18,Man,Right,
3,9,1,1.4996012000010523,['n'],0,left,['9'],5,1.617944499999794,0.2,0,AccAcc,39,18,Man,Right,
4,9,1,2.5838139000006777,['n'],0,left,['8'],4,0.46809770000072604,0.2,0,AccAcc,39,18,Man,Right,
5,9,1,1.8491350000003877,['c'],1,left,['3'],3,1.6515198000015516,0.1,0,AccAcc,39,18,Man,Right,
6,9,1,0.7007901999986643,['n'],1,right,['9'],5,1.4014074000006076,0.2,0,AccAcc,39,18,Man,Right,
7,9,1,0.7824263000002247,['n'],1,right,['9'],5,1.4179334999989806,0.2,0,AccAcc,39,18,Man,Right,
8,9,1,0.8676955000009912,['c'],1,left,['9'],5,1.0178273000001354,0.4,0,AccAcc,39,18,Man,Right,
9,9,1,0.9167786999987584,['n'],1,right,['8'],4,1.7499277999995684,0.1,0,AccAcc,39,18,Man,Right,
10,9,1,0.6175762999992003,['n'],1,right,['0'],6,0.8837617000008322,0.4,0,AccAcc,39,18,Man,Right,
11,9,1,0.9669831999999587,['n'],0,left,['8'],4,0.8830015999992611,0.2,0,AccAcc,39,18,Man,Right,
12,9,1,0.8332798999999795,['n'],1,right,['0'],6,1.1342672999999195,0.4,0,AccAcc,39,18,Man,Right,
13,9,1,0.88414929999999,['n'],1,right,['9'],5,0.7345669999995152,0.4,0,AccAcc,39,18,Man,Right,
14,9,1,0.8176328999998077,['n'],1,right,['0'],6,1.2352485999999772,0.4,0,AccAcc,39,18,Man,Right,
15,9,1,1.0340333999993163,['n'],0,left,['9'],5,1.10109089999969,0.1,0,AccAcc,39,18,Man,Right,
16,9,1,0.8497771000002103,['n'],1,right,['9'],5,1.5665007999996305,0.1,0,AccAcc,39,18,Man,Right,
17,9,1,0.7163122000001749,['c'],1,left,['9'],5,0.9347921999997197,0.4,0,AccAcc,39,18,Man,Right,
18,9,1,1.0518823000002158,['n'],0,left,['9'],5,0.834613700000773,0.1,0,AccAcc,39,18,Man,Right,
19,9,1,0.9485847999985708,['n'],0,left,['9'],5,0.7498432000011235,0.2,0,AccAcc,39,18,Man,Right,
20,9,1,1.6172745000003488,['n'],0,left,['8'],4,0.732851999999184,0.1,0,AccAcc,39,18,Man,Right,
21,9,1,0.6852580999984639,['c'],1,left,['8'],4,1.251201899998705,0.1,0,AccAcc,39,18,Man,Right,
22,9,1,0.8338448000013159,['n'],1,right,['9'],5,0.6506307999989076,0.4,0,AccAcc,39,18,Man,Right,
23,9,1,1.5332170000001497,['n'],0,left,['9'],5,0.8339964999995573,0.2,0,AccAcc,39,18,Man,Right,
24,9,1,0.8161400000008143,['n'],1,right,['9'],5,0.9020590000000084,0.1,0,AccAcc,39,18,Man,Right,
25,9,1,0.9838239999990037,['n'],1,right,['9'],5,1.166244000000006,0.4,0,AccAcc,39,18,Man,Right,
26,9,1,1.184706099998948,['n'],0,left,['8'],4,0.49993589999940014,0.1,0,AccAcc,39,18,Man,Right,
27,9,1,1.0184874000005948,['n'],0,left,['8'],4,0.8012617999993381,0.2,0,AccAcc,39,18,Man,Right,
28,9,1,1.5843728999989253,['n'],0,left,['8'],4,0.599989899999855,0.2,0,AccAcc,39,18,Man,Right,
29,9,1,0.7845642000011139,['n'],1,right,['9'],5,0.5325788999998622,0.4,0,AccAcc,39,18,Man,Right,
30,9,1,1.1185442999994848,['n'],0,left,['9'],5,0.018066700000417768,0.1,0,AccAcc,39,18,Man,Right,
31,9,1,3.431892800001151,['n'],1,right,['8'],4,1.1853363999998692,0.2,0,AccAcc,39,18,Man,Right,
32,9,1,1.9989700999994966,['n'],0,left,['8'],4,0.5837412999990192,0.2,0,AccAcc,39,18,Man,Right,
33,9,1,1.2344252000002598,['n'],1,right,['8'],4,0.7346164000009594,0.1,0,AccAcc,39,18,Man,Right,
34,9,1,1.8318601999999373,['n'],0,left,['9'],5,1.318610099999205,0.2,0,AccAcc,39,18,Man,Right,
35,9,1,1.0827747000003,['n'],1,right,['9'],5,0.5675974000005226,0.4,0,AccAcc,39,18,Man,Right,
36,9,1,1.3159878000005847,['c'],1,left,['9'],5,0.4351982999996835,0.2,0,AccAcc,39,18,Man,Right,
37,9,1,1.4328647999991517,['c'],0,right,['8'],4,0.41751360000125715,0.1,0,AccAcc,39,18,Man,Right,
38,9,1,0.9830808999995497,['n'],1,right,['9'],5,0.5189847999990889,0.4,0,AccAcc,39,18,Man,Right,
39,9,1,0.8509149000001344,['n'],1,right,['9'],5,0.5014092000001256,0.4,0,AccAcc,39,18,Man,Right,
40,9,1,0.8990051999990101,['c'],1,left,['9'],5,0.4687080000003334,0.4,0,AccAcc,39,18,Man,Right,
41,9,1,0.8169415000011213,['n'],1,right,['9'],5,0.367902399999366,0.4,0,AccAcc,39,18,Man,Right,
42,9,1,0.8834689000013896,['n'],1,right,['9'],5,0.45044960000086576,0.4,0,AccAcc,39,18,Man,Right,
43,9,1,1.0832886999996845,['c'],1,left,['9'],5,0.5660965000006399,0.2,0,AccAcc,39,18,Man,Right,
44,9,1,0.9343337000009342,['n'],1,right,['0'],6,0.6342379999987315,0.4,0,AccAcc,39,18,Man,Right,
45,9,1,1.0000612999992882,['n'],1,right,['9'],5,0.4025166999999783,0.2,0,AccAcc,39,18,Man,Right,
46,9,1,0.9677900999995472,['n'],1,right,['9'],5,0.3672950000000128,0.1,0,AccAcc,39,18,Man,Right,
47,9,1,1.4496818999996322,['n'],1,right,['9'],5,0.4993432999999641,0.1,0,AccAcc,39,18,Man,Right,
48,9,1,0.8527005999985704,['n'],0,left,['9'],5,0.817890800000896,0.2,0,AccAcc,39,18,Man,Right,
49,9,1,0.9497522999990906,['n'],1,right,['9'],5,0.4669090999996115,0.1,0,AccAcc,39,18,Man,Right,
50,9,1,0.8342409999986558,['n'],1,right,['9'],5,0.3347360000007029,0.2,0,AccAcc,39,18,Man,Right,
51,9,1,1.050395700000081,['n'],0,left,['9'],5,0.36673220000011497,0.2,0,AccAcc,39,18,Man,Right,
52,9,1,1.9676915999989433,['n'],1,right,['9'],5,0.2677509999994072,0.2,0,AccAcc,39,18,Man,Right,
53,9,1,2.600256600000648,['c'],0,right,['3'],3,1.2179906999990635,0.1,0,AccAcc,39,18,Man,Right,
54,9,1,1.249975300001097,['n'],1,right,['9'],5,2.4675389000003634,0.4,0,AccAcc,39,18,Man,Right,
55,9,1,2.215112100000624,['c'],1,left,['2'],2,1.2684282000009262,0.1,0,AccAcc,39,18,Man,Right,
56,9,1,1.700501200000872,['c'],1,left,['9'],5,0.8519304000001284,0.4,0,AccAcc,39,18,Man,Right,
57,9,1,1.6488131999994948,['c'],1,left,['3'],3,1.2514846000012767,0.1,0,AccAcc,39,18,Man,Right,
58,9,1,0.8339237999989564,['c'],1,left,['9'],5,0.4180673000009847,0.4,0,AccAcc,39,18,Man,Right,
59,9,1,2.583693599999606,['c'],1,left,['3'],3,0.649993999999424,0.2,0,AccAcc,39,18,Man,Right,
0,10,1,0.5011202000005142,['n'],1,right,['3'],3,1.366708199999266,0.2,0,FastAcc,39,18,Man,Right,
1,10,1,0.06563920000007784,['c'],0,right,['3'],3,1.385569600000963,0.1,0,FastAcc,39,18,Man,Right,
2,10,1,0.033341899999868474,['n'],0,left,['3'],3,1.2847959999999148,0.4,0,FastAcc,39,18,Man,Right,
3,10,1,0.20012769999993907,['c'],0,right,['3'],3,1.199291999999332,0.1,0,FastAcc,39,18,Man,Right,
4,10,1,0.23520579999967595,['c'],0,right,['2'],2,0.6187780000000203,0.1,0,FastAcc,39,18,Man,Right,
5,10,1,0.35012619999906747,['c'],0,right,['9'],5,0.9347369999995863,0.1,0,FastAcc,39,18,Man,Right,
6,10,1,0.4163306999998895,['n'],1,right,['3'],3,1.0018432999986544,0.2,0,FastAcc,39,18,Man,Right,
7,10,1,0.1993280999995477,['c'],0,right,['2'],2,0.918001699999877,0.4,0,FastAcc,39,18,Man,Right,
8,10,1,0.16720160000113538,['n'],0,left,['3'],3,1.4000815999988845,0.4,0,FastAcc,39,18,Man,Right,
9,10,1,0.11749729999974079,['c'],1,left,['8'],4,1.4993052999998326,0.1,0,FastAcc,39,18,Man,Right,
10,10,1,0.1339477999990777,['n'],0,left,['8'],4,1.0347481000007974,0.2,0,FastAcc,39,18,Man,Right,
11,10,1,0.15042050000010931,['c'],0,right,['2'],2,1.3330719999994471,0.4,0,FastAcc,39,18,Man,Right,
12,10,1,0.115858199998911,['n'],0,left,['8'],4,1.1182716000002983,0.2,0,FastAcc,39,18,Man,Right,
13,10,1,0.216644100000849,['c'],1,left,['2'],2,1.1336630999994668,0.1,0,FastAcc,39,18,Man,Right,
14,10,1,0.2018315999994229,['n'],0,left,['8'],4,0.8335077000010642,0.1,0,FastAcc,39,18,Man,Right,
15,10,1,0.19885559999966063,['c'],1,left,['9'],5,0.7511310000008962,0.4,0,FastAcc,39,18,Man,Right,
16,10,1,0.4001630999991903,['c'],0,right,['2'],2,0.818565800000215,0.2,0,FastAcc,39,18,Man,Right,
17,10,1,0.24933210000017425,['n'],1,right,['9'],5,0.5849066999999195,0.2,0,FastAcc,39,18,Man,Right,
18,10,1,0.19932209999933548,['n'],0,left,['2'],2,0.7834607000004326,0.2,0,FastAcc,39,18,Man,Right,
19,10,1,0.08392020000064804,['n'],0,left,['8'],4,1.0998122000000876,0.2,0,FastAcc,39,18,Man,Right,
20,10,1,0.2004560000004858,['c'],1,left,['9'],5,0.8692868999987695,0.1,0,FastAcc,39,18,Man,Right,
21,10,1,0.3822780000009516,['c'],0,right,['2'],2,1.15139359999921,0.1,0,FastAcc,39,18,Man,Right,
22,10,1,0.366073499999402,['n'],0,left,['8'],4,0.8353451999992103,0.1,0,FastAcc,39,18,Man,Right,
23,10,1,0.3007249000002048,['n'],0,left,['2'],2,1.1172638999996707,0.4,0,FastAcc,39,18,Man,Right,
24,10,1,0.2504529999987426,['c'],0,right,['2'],2,1.7172580000005837,0.2,0,FastAcc,39,18,Man,Right,
25,10,1,0.25011910000102944,['n'],1,right,['9'],5,1.4849922000012157,0.4,0,FastAcc,39,18,Man,Right,
26,10,1,0.051158500000383356,['c'],0,right,['8'],4,1.5178527000007307,0.1,0,FastAcc,39,18,Man,Right,
27,10,1,0.4006133000002592,['c'],0,right,['2'],2,1.3844570999990538,0.2,0,FastAcc,39,18,Man,Right,
28,10,1,0.2332269999988057,['n'],1,right,['9'],5,0.9187467000010656,0.2,0,FastAcc,39,18,Man,Right,
29,10,1,0.3677740000002814,['n'],0,left,['9'],5,0.8013448000001517,0.1,0,FastAcc,39,18,Man,Right,
30,10,1,0.5176513999995223,['n'],0,left,['2'],2,1.6679908000005526,0.4,0,FastAcc,39,18,Man,Right,
31,10,1,0.21723980000024312,['c'],1,left,['2'],2,0.8657559000002948,0.1,0,FastAcc,39,18,Man,Right,
32,10,1,0.05069739999999001,['n'],1,right,['8'],4,0.9836098000014317,0.4,0,FastAcc,39,18,Man,Right,
33,10,1,0.10058469999967201,['c'],0,right,['2'],2,1.251068600000508,0.4,0,FastAcc,39,18,Man,Right,
34,10,1,0.2840252000005421,['n'],1,right,['9'],5,0.46796360000007553,0.4,0,FastAcc,39,18,Man,Right,
35,10,1,0.24901239999962854,['n'],0,left,['2'],2,0.5688038999996934,0.2,0,FastAcc,39,18,Man,Right,
36,10,1,0.3503889000003255,['c'],1,left,['9'],5,0.5340161999993143,0.4,0,FastAcc,39,18,Man,Right,
37,10,1,0.30034120000163966,['n'],0,left,['9'],5,0.41789539999990666,0.2,0,FastAcc,39,18,Man,Right,
38,10,1,0.41523229999984324,['n'],1,right,['9'],5,0.25283589999889955,0.4,0,FastAcc,39,18,Man,Right,
39,10,1,0.46580080000057933,['n'],0,left,['9'],5,0.33329589999993914,0.1,0,FastAcc,39,18,Man,Right,
40,10,1,0.5688186000006681,['c'],1,left,['9'],5,0.20134409999991476,0.1,0,FastAcc,39,18,Man,Right,
41,10,1,0.6509967999991204,['n'],1,right,['9'],5,0.8678966999996192,0.2,0,FastAcc,39,18,Man,Right,
42,10,1,0.4504515000007814,['n'],1,right,['9'],5,0.20142980000127864,0.1,0,FastAcc,39,18,Man,Right,
43,10,1,0.7837828000010632,['n'],1,right,['9'],5,0.15019479999864416,0.1,0,FastAcc,39,18,Man,Right,
44,10,1,0.5175959999996849,['c'],0,right,['2'],2,1.5512127000001783,0.1,0,FastAcc,39,18,Man,Right,
45,10,1,0.26630049999948824,['n'],1,right,['9'],5,1.1512736000004224,0.2,0,FastAcc,39,18,Man,Right,
46,10,1,0.35007500000028813,['c'],0,right,['2'],2,3.400958599999285,0.2,0,FastAcc,39,18,Man,Right,
47,10,1,0.5501291999989917,['n'],0,left,['8'],4,1.9503079999994952,0.2,0,FastAcc,39,18,Man,Right,
48,10,1,0.33441900000070746,['c'],0,right,['9'],5,0.9013204000002588,0.4,0,FastAcc,39,18,Man,Right,
49,10,1,0.3833560999992187,['n'],1,right,['9'],5,0.7338099000007787,0.4,0,FastAcc,39,18,Man,Right,
50,10,1,0.2666287000010925,['n'],0,left,['2'],2,1.23362090000046,0.4,0,FastAcc,39,18,Man,Right,
51,10,1,0.26647419999972044,['c'],1,left,['9'],5,0.8844931999992696,0.1,0,FastAcc,39,18,Man,Right,
52,10,1,0.10006269999939832,['n'],0,left,['8'],4,0.9028763000005711,0.4,0,FastAcc,39,18,Man,Right,
53,10,1,0.3318308000016259,['c'],1,left,['8'],4,1.3523265000003448,0.2,0,FastAcc,39,18,Man,Right,
54,10,1,0.18290239999987534,['n'],0,left,['9'],5,0.9343104999989009,0.4,0,FastAcc,39,18,Man,Right,
55,10,1,0.36830149999877904,['n'],1,right,['9'],5,0.18313579999994545,0.4,0,FastAcc,39,18,Man,Right,
56,10,1,0.5169368000006216,['n'],0,left,['9'],5,0.18378440000014962,0.1,0,FastAcc,39,18,Man,Right,
57,10,1,0.4670846999997593,['n'],0,left,['9'],5,0.20032109999920067,0.2,0,FastAcc,39,18,Man,Right,
58,10,1,0.7509615999988455,['n'],1,right,['9'],5,0.8680163000008179,0.4,0,FastAcc,39,18,Man,Right,
59,10,1,0.8679212999995798,['n'],0,left,['9'],5,2.1178451999985555,0.2,0,FastAcc,39,18,Man,Right,
0,11,1,0.4507361999985733,['c'],1,left,['9'],5,0.08550250000007509,0.2,0,FastFast,39,18,Man,Right,
1,11,1,0.2675030999998853,['c'],1,left,['9'],5,0.8014520000015182,0.4,0,FastFast,39,18,Man,Right,
2,11,1,0.4669754999995348,['n'],1,right,['9'],5,0.15129019999949378,0.1,0,FastFast,39,18,Man,Right,
3,11,1,0.40001289999963774,['n'],1,right,['8'],4,0.1353622999995423,0.1,0,FastFast,39,18,Man,Right,
4,11,1,0.28277189999971597,['n'],0,left,['8'],4,0.08546199999909732,0.4,0,FastFast,39,18,Man,Right,
5,11,1,0.25065299999914714,['c'],1,left,['3'],3,0.10168139999950654,0.4,0,FastFast,39,18,Man,Right,
6,11,1,0.3173430000006192,['c'],1,left,['8'],4,0.20118469999943045,0.4,0,FastFast,39,18,Man,Right,
7,11,1,0.31672839999919233,['c'],0,right,['8'],4,0.1194046000000526,0.2,0,FastFast,39,18,Man,Right,
8,11,1,0.2835544999998092,['n'],1,right,['3'],3,0.18506999999954132,0.1,0,FastFast,39,18,Man,Right,
9,11,1,0.21567240000149468,['n'],0,left,['2'],2,0.13534970000000612,0.1,0,FastFast,39,18,Man,Right,
10,11,1,0.21681960000023537,['c'],0,right,['2'],2,0.20098639999923762,0.1,0,FastFast,39,18,Man,Right,
11,11,1,0.23267719999967085,['n'],1,right,['2'],2,0.2521741000000475,0.1,0,FastFast,39,18,Man,Right,
12,11,1,0.2668195999995078,['c'],0,right,['9'],5,0.18464969999877212,0.2,0,FastFast,39,18,Man,Right,
13,11,1,0.2330375000001368,['n'],0,left,['8'],4,0.1347939999996015,0.1,0,FastFast,39,18,Man,Right,
14,11,1,0.26802799999859417,['c'],0,right,['3'],3,0.13471879999997327,0.4,0,FastFast,39,18,Man,Right,
15,11,1,0.41657519999898796,['c'],1,left,['2'],2,0.317979400000695,0.2,0,FastFast,39,18,Man,Right,
16,11,1,0.5173043999984657,['n'],1,right,['9'],5,0.4347060000000056,0.4,0,FastFast,39,18,Man,Right,
17,11,1,0.48409390000051644,['n'],0,left,['9'],5,0.33271959999910905,0.2,0,FastFast,39,18,Man,Right,
18,11,1,0.2993264000015188,['c'],1,left,['2'],2,0.2520879999992758,0.2,0,FastFast,39,18,Man,Right,
19,11,1,0.248847000000751,['c'],0,right,['9'],5,0.3687019999997574,0.4,0,FastFast,39,18,Man,Right,
20,11,1,0.23458810000011,['n'],1,right,['9'],5,0.41675949999989825,0.4,0,FastFast,39,18,Man,Right,
21,11,1,0.3989600999993854,['n'],1,right,['9'],5,0.15195020000101067,0.2,0,FastFast,39,18,Man,Right,
22,11,1,0.2664757999991707,['c'],0,right,['9'],5,0.21819289999984903,0.4,0,FastFast,39,18,Man,Right,
23,11,1,0.2661998000003223,['n'],0,left,['2'],2,0.1687411000002612,0.2,0,FastFast,39,18,Man,Right,
24,11,1,0.4674849999992148,['c'],0,right,['2'],2,0.31675109999923734,0.4,0,FastFast,39,18,Man,Right,
25,11,1,0.33401669999875594,['n'],0,left,['2'],2,0.23405670000101964,0.4,0,FastFast,39,18,Man,Right,
26,11,1,0.3985591000000568,['n'],0,left,['2'],2,0.2861033999997744,0.1,0,FastFast,39,18,Man,Right,
27,11,1,0.31720599999971455,['n'],0,left,['2'],2,0.2679513000002771,0.1,0,FastFast,39,18,Man,Right,
28,11,1,0.26631970000016736,['n'],1,right,['9'],5,0.18531699999948614,0.4,0,FastFast,39,18,Man,Right,
29,11,1,0.2504709000004368,['n'],0,left,['9'],5,0.16851630000019213,0.4,0,FastFast,39,18,Man,Right,
30,11,1,0.03400580000015907,['n'],0,left,['2'],2,0.3006251999995584,0.1,0,FastFast,39,18,Man,Right,
31,11,1,0.2692169999991165,['c'],0,right,['8'],4,0.16807869999865943,0.2,0,FastFast,39,18,Man,Right,
32,11,1,0.2501934000010806,['n'],1,right,['8'],4,0.16807370000060473,0.1,0,FastFast,39,18,Man,Right,
33,11,1,0.2844764000001305,['c'],0,right,['3'],3,0.16984690000026603,0.2,0,FastFast,39,18,Man,Right,
34,11,1,0.30044120000093244,['n'],1,right,['8'],4,0.18468059999941033,0.2,0,FastFast,39,18,Man,Right,
35,11,1,0.2176395999995293,['n'],0,left,['3'],3,0.21686079999926733,0.4,0,FastFast,39,18,Man,Right,
36,11,1,0.24977969999963534,['c'],0,right,['8'],4,0.1673971000000165,0.1,0,FastFast,39,18,Man,Right,
37,11,1,0.3507648999984667,['n'],1,right,['3'],3,0.21800860000075772,0.2,0,FastFast,39,18,Man,Right,
38,11,1,0.23304429999916465,['n'],0,left,['2'],2,0.20079559999976482,0.4,0,FastFast,39,18,Man,Right,
39,11,1,0.25051109999913024,['n'],1,right,['9'],5,0.18343710000044666,0.2,0,FastFast,39,18,Man,Right,
40,11,1,0.34875710000051185,['n'],0,left,['9'],5,0.16886110000086774,0.1,0,FastFast,39,18,Man,Right,
41,11,1,0.2829548000008799,['n'],0,left,['8'],4,0.13444370000070194,0.4,0,FastFast,39,18,Man,Right,
42,11,1,0.2345259999983682,['c'],1,left,['3'],3,0.15147990000150457,0.1,0,FastFast,39,18,Man,Right,
43,11,1,0.01782460000140418,['n'],0,left,['9'],5,0.34956229999988864,0.1,0,FastFast,39,18,Man,Right,
44,11,1,0.06731740000032005,['n'],1,right,['8'],4,0.18484730000091076,0.2,0,FastFast,39,18,Man,Right,
45,11,1,0.2671620000000985,['c'],1,left,['3'],3,0.218010200000208,0.2,0,FastFast,39,18,Man,Right,
46,11,1,0.31709220000084315,['n'],0,left,['8'],4,0.28289829999994254,0.2,0,FastFast,39,18,Man,Right,
47,11,1,0.28359980000095675,['c'],0,right,['3'],3,0.18376899999930174,0.1,0,FastFast,39,18,Man,Right,
48,11,1,0.2990148000008048,['n'],0,left,['2'],2,0.2664777000009053,0.2,0,FastFast,39,18,Man,Right,
49,11,1,0.23583230000076583,['c'],1,left,['2'],2,0.3181333000011364,0.2,0,FastFast,39,18,Man,Right,
50,11,1,0.29898749999847496,['n'],1,right,['2'],2,0.2696985999991739,0.1,0,FastFast,39,18,Man,Right,
51,11,1,0.26829819999875326,['c'],1,left,['2'],2,0.15152060000036727,0.1,0,FastFast,39,18,Man,Right,
52,11,1,0.2336408000010124,['n'],0,left,['2'],2,0.3518997000010131,0.4,0,FastFast,39,18,Man,Right,
53,11,1,0.3171514000005118,['n'],0,left,['2'],2,0.21754940000028,0.4,0,FastFast,39,18,Man,Right,
54,11,1,0.1665772999986075,['c'],1,left,['2'],2,0.21808149999924353,0.4,0,FastFast,39,18,Man,Right,
55,11,1,0.2652428000001237,['n'],1,right,['3'],3,0.23416080000060902,0.4,0,FastFast,39,18,Man,Right,
56,11,1,0.18256019999898854,['c'],0,right,['8'],4,0.10180449999825214,0.2,0,FastFast,39,18,Man,Right,
57,11,1,0.3159934000013891,['c'],0,right,['8'],4,0.18548240000018268,0.2,0,FastFast,39,18,Man,Right,
58,11,1,0.26657130000057805,['c'],0,right,['9'],5,0.21634679999988293,0.1,0,FastFast,39,18,Man,Right,
59,11,1,0.2848608000003878,['n'],1,right,['9'],5,0.2514592999996239,0.1,0,FastFast,39,18,Man,Right,
0,12,1,2.1179714999998396,['c'],1,left,['9'],5,0.33513010000024224,0.4,0,AccFast,39,18,Man,Right,
1,12,1,0.7839905000000726,['n'],1,right,['9'],5,0.08452910000050906,0.4,0,AccFast,39,18,Man,Right,
2,12,1,0.7011151000006066,['n'],1,right,['0'],6,2.601236800001061,0.4,0,AccFast,39,18,Man,Right,
3,12,1,1.8669703999985359,['n'],0,left,['8'],4,0.21816089999992982,0.2,0,AccFast,39,18,Man,Right,
4,12,1,0.5657265999998344,['n'],1,right,['8'],4,0.6187398999991274,0.1,0,AccFast,39,18,Man,Right,
5,12,1,2.116286800001035,['n'],1,right,['8'],4,0.0669729000001098,0.1,0,AccFast,39,18,Man,Right,
6,12,1,0.7678033000011055,['n'],1,right,['8'],4,0.05160830000022543,0.1,0,AccFast,39,18,Man,Right,
7,12,1,1.1505648999991536,['c'],0,right,['9'],5,0.13507800000115822,0.2,0,AccFast,39,18,Man,Right,
8,12,1,1.949058199999854,['n'],1,right,['8'],4,0.06870129999879282,0.2,0,AccFast,39,18,Man,Right,
9,12,1,1.1179834000013216,['n'],1,right,['8'],4,0.06731089999993856,0.1,0,AccFast,39,18,Man,Right,
10,12,1,1.1323468000009598,['n'],1,right,['9'],5,0.08494580000115093,0.4,0,AccFast,39,18,Man,Right,
11,12,1,1.2662311000003683,['n'],0,left,['8'],4,0.10171289999925648,0.1,0,AccFast,39,18,Man,Right,
12,12,1,1.1510650000000169,['n'],1,right,['9'],5,0.10088890000042738,0.2,0,AccFast,39,18,Man,Right,
13,12,1,1.9157137999991392,['n'],0,left,['9'],5,0.08552109999982349,0.2,0,AccFast,39,18,Man,Right,
14,12,1,0.9002261000005092,['n'],0,left,['9'],5,0.13428000000021711,0.4,0,AccFast,39,18,Man,Right,
15,12,1,1.2834449000001769,['n'],1,right,['8'],4,0.15046580000125687,0.1,0,AccFast,39,18,Man,Right,
16,12,1,0.7838389999997162,['n'],0,left,['9'],5,0.10176059999866993,0.2,0,AccFast,39,18,Man,Right,
17,12,1,0.8837961000008363,['n'],1,right,['9'],5,0.13469570000052045,0.1,0,AccFast,39,18,Man,Right,
18,12,1,0.6842190999996092,['n'],1,right,['9'],5,0.1182120000012219,0.1,0,AccFast,39,18,Man,Right,
19,12,1,1.383727500000532,['c'],1,left,['9'],5,0.5018491999999242,0.1,0,AccFast,39,18,Man,Right,
20,12,1,0.9513577999987319,['n'],1,right,['9'],5,0.10214369999994233,0.4,0,AccFast,39,18,Man,Right,
21,12,1,1.6660854999990988,['c'],1,left,['9'],5,0.15143689999968046,0.4,0,AccFast,39,18,Man,Right,
22,12,1,1.4168394000007538,['n'],1,right,['9'],5,0.1508419000001595,0.2,0,AccFast,39,18,Man,Right,
23,12,1,1.000498499999594,['n'],0,left,['9'],5,0.0854471000002377,0.1,0,AccFast,39,18,Man,Right,
24,12,1,1.2828590000008262,['n'],0,left,['8'],4,0.08535630000005767,0.2,0,AccFast,39,18,Man,Right,
25,12,1,1.4332795000009355,['n'],1,right,['0'],6,0.13489529999969818,0.4,0,AccFast,39,18,Man,Right,
26,12,1,1.0009133999992628,['n'],1,right,['9'],5,0.1517824999991717,0.1,0,AccFast,39,18,Man,Right,
27,12,1,1.0340115999988484,['n'],0,left,['8'],4,0.15141030000086175,0.1,0,AccFast,39,18,Man,Right,
28,12,1,1.1169556000004377,['n'],0,left,['8'],4,0.14985899999919639,0.2,0,AccFast,39,18,Man,Right,
29,12,1,2.234370600001057,['c'],1,left,['8'],4,0.35184189999927185,0.2,0,AccFast,39,18,Man,Right,
30,12,1,0.9837358000004315,['c'],1,left,['9'],5,0.18461410000054457,0.4,0,AccFast,39,18,Man,Right,
31,12,1,1.0671361000004254,['n'],1,right,['0'],6,0.11809159999938856,0.4,0,AccFast,39,18,Man,Right,
32,12,1,1.433375700000397,['n'],0,left,['9'],5,0.1334881000002497,0.2,0,AccFast,39,18,Man,Right,
33,12,1,1.015863900000113,['n'],1,right,['9'],5,0.1358905999986746,0.1,0,AccFast,39,18,Man,Right,
34,12,1,1.4001825000013923,['c'],1,left,['9'],5,0.13415549999990617,0.1,0,AccFast,39,18,Man,Right,
35,12,1,1.349315999999817,['c'],1,left,['0'],6,0.151544999998805,0.4,0,AccFast,39,18,Man,Right,
36,12,1,1.199834799999735,['c'],1,left,['0'],6,0.13546550000137358,0.4,0,AccFast,39,18,Man,Right,
37,12,1,1.9005672999992385,['n'],0,left,['9'],5,0.018350700000155484,0.4,0,AccFast,39,18,Man,Right,
38,12,1,1.8998649999994086,['c'],0,right,['9'],5,0.134799400000702,0.1,0,AccFast,39,18,Man,Right,
39,12,1,1.2670032999994874,['c'],1,left,['9'],5,0.09983680000004824,0.2,0,AccFast,39,18,Man,Right,
40,12,1,1.4011261999985436,['c'],0,right,['9'],5,0.0680026000009093,0.1,0,AccFast,39,18,Man,Right,
41,12,1,0.8512334000006376,['c'],0,right,['9'],5,0.10095860000001267,0.1,0,AccFast,39,18,Man,Right,
42,12,1,1.3326004999998986,['n'],1,right,['9'],5,0.10026509999988775,0.4,0,AccFast,39,18,Man,Right,
43,12,1,1.1177646999985882,['c'],1,left,['9'],5,0.15217239999947196,0.4,0,AccFast,39,18,Man,Right,
44,12,1,0.9180830000004789,['n'],1,right,['0'],6,0.08545570000023872,0.4,0,AccFast,39,18,Man,Right,
45,12,1,1.2671673000004375,['n'],0,left,['9'],5,0.10022190000017872,0.1,0,AccFast,39,18,Man,Right,
46,12,1,1.317618200000652,['c'],1,left,['9'],5,0.05129130000022997,0.4,0,AccFast,39,18,Man,Right,
47,12,1,3.1327709999986837,['n'],1,right,['8'],4,0.10223450000012235,0.2,0,AccFast,39,18,Man,Right,
48,12,1,1.2001314999997703,['n'],0,left,['9'],5,0.11798979999912262,0.4,0,AccFast,39,18,Man,Right,
49,12,1,2.2834182000005967,['c'],1,left,['9'],5,0.19984199999998964,0.2,0,AccFast,39,18,Man,Right,
50,12,1,1.3185312999994494,['n'],1,right,['8'],4,0.16682869999931427,0.1,0,AccFast,39,18,Man,Right,
51,12,1,1.2339679999986402,['n'],1,right,['9'],5,0.08304409999982454,0.2,0,AccFast,39,18,Man,Right,
52,12,1,1.1334887000011804,['n'],0,left,['9'],5,0.13416649999999208,0.2,0,AccFast,39,18,Man,Right,
53,12,1,1.4021496000004845,['n'],0,left,['3'],3,0.16836660000080883,0.2,0,AccFast,39,18,Man,Right,
54,12,1,0.982808799999475,['n'],1,right,['9'],5,0.1514907000000676,0.2,0,AccFast,39,18,Man,Right,
55,12,1,1.2837511999987328,['n'],1,right,['8'],4,0.1356125999991491,0.2,0,AccFast,39,18,Man,Right,
56,12,1,1.0665200000003097,['n'],0,left,['8'],4,0.2177788999997574,0.4,0,AccFast,39,18,Man,Right,
57,12,1,1.2171993000010843,['n'],1,right,['9'],5,0.13365319999866188,0.1,0,AccFast,39,18,Man,Right,
58,12,1,1.249806299998454,['c'],1,left,['9'],5,0.11896449999949255,0.4,0,AccFast,39,18,Man,Right,
59,12,1,1.5007394000003842,['c'],1,left,['9'],5,0.08318049999979849,0.2,0,AccFast,39,18,Man,Right,
0,13,1,2.833359300000666,['c'],1,left,['9'],5,1.3847230999999738,0.1,0,AccAcc,39,18,Man,Right,
1,13,1,1.316204700000526,['c'],1,left,['9'],5,0.9013188000008086,0.4,0,AccAcc,39,18,Man,Right,
2,13,1,1.4507180000000517,['n'],1,right,['9'],5,1.0187858000008418,0.2,0,AccAcc,39,18,Man,Right,
3,13,1,1.4829853999999614,['n'],1,right,['8'],4,0.7347009000004618,0.1,0,AccAcc,39,18,Man,Right,
4,13,1,1.2163958000001003,['n'],1,right,['0'],6,0.7512511000004451,0.4,0,AccAcc,39,18,Man,Right,
5,13,1,3.500214199999391,['n'],1,right,['8'],4,0.5002373999996053,0.1,0,AccAcc,39,18,Man,Right,
6,13,1,2.09948329999861,['n'],1,right,['3'],3,0.5188542999985657,0.1,0,AccAcc,39,18,Man,Right,
7,13,1,1.5997714000004635,['c'],1,left,['9'],5,0.6017155999998067,0.4,0,AccAcc,39,18,Man,Right,
8,13,1,0.8491012000013143,['c'],1,left,['9'],5,0.9526671999992686,0.4,0,AccAcc,39,18,Man,Right,
9,13,1,1.8837161999999807,['c'],1,left,['9'],5,0.6346612999986974,0.1,0,AccAcc,39,18,Man,Right,
10,13,1,1.5820249000007607,['c'],1,left,['8'],4,1.2193607999997766,0.1,0,AccAcc,39,18,Man,Right,
11,13,1,2.4156717999994726,['c'],1,left,['8'],4,0.7004782000003615,0.2,0,AccAcc,39,18,Man,Right,
12,13,1,1.6854143000000477,['n'],1,right,['9'],5,0.5668972999992548,0.2,0,AccAcc,39,18,Man,Right,
13,13,1,0.9678426999998919,['c'],1,left,['0'],6,0.3832150000016554,0.4,0,AccAcc,39,18,Man,Right,
14,13,1,1.6152703999996447,['c'],1,left,['0'],6,0.38590060000024096,0.4,0,AccAcc,39,18,Man,Right,
15,13,1,1.3669587000003958,['n'],0,left,['3'],3,0.4347248000012769,0.1,0,AccAcc,39,18,Man,Right,
16,13,1,1.1851348000000144,['n'],1,right,['9'],5,0.6679108000007545,0.2,0,AccAcc,39,18,Man,Right,
17,13,1,1.6003973000006226,['c'],1,left,['0'],6,0.501386599999023,0.4,0,AccAcc,39,18,Man,Right,
18,13,1,1.2664161000011518,['n'],1,right,['9'],5,0.684733199999755,0.1,0,AccAcc,39,18,Man,Right,
19,13,1,1.1001092999995308,['n'],1,right,['0'],6,0.48483760000090115,0.4,0,AccAcc,39,18,Man,Right,
20,13,1,1.9674730999995518,['n'],1,right,['8'],4,0.9676067999989755,0.1,0,AccAcc,39,18,Man,Right,
21,13,1,1.0166041000011319,['n'],1,right,['0'],6,0.5000145000012708,0.4,0,AccAcc,39,18,Man,Right,
22,13,1,1.781669600000896,['c'],1,left,['9'],5,1.2354398000006768,0.1,0,AccAcc,39,18,Man,Right,
23,13,1,2.583209899999929,['c'],1,left,['8'],4,1.8507182000012108,0.2,0,AccAcc,39,18,Man,Right,
24,13,1,1.2157810000007885,['n'],1,right,['9'],5,0.5022494000004372,0.2,0,AccAcc,39,18,Man,Right,
25,13,1,1.9831351000011637,['n'],1,right,['9'],5,0.9347708999994211,0.2,0,AccAcc,39,18,Man,Right,
26,13,1,1.5332662999990134,['c'],1,left,['9'],5,0.7672810000003665,0.4,0,AccAcc,39,18,Man,Right,
27,13,1,1.8497239999996964,['c'],1,left,['9'],5,0.666680100001031,0.4,0,AccAcc,39,18,Man,Right,
28,13,1,1.2344025999991572,['n'],1,right,['9'],5,0.7012834000015573,0.2,0,AccAcc,39,18,Man,Right,
29,13,1,1.349866500000644,['n'],1,right,['9'],5,0.5834732000002987,0.4,0,AccAcc,39,18,Man,Right,
30,13,1,0.8509817000012845,['n'],1,right,['0'],6,0.7014975999991293,0.4,0,AccAcc,39,18,Man,Right,
31,13,1,0.9996887999986939,['n'],1,right,['8'],4,0.6667833999999857,0.1,0,AccAcc,39,18,Man,Right,
32,13,1,0.9660170000006474,['n'],1,right,['9'],5,0.4524309999997058,0.2,0,AccAcc,39,18,Man,Right,
33,13,1,1.2499636999982613,['c'],1,left,['9'],5,0.7508025000006455,0.4,0,AccAcc,39,18,Man,Right,
34,13,1,1.9004967999990185,['n'],1,right,['9'],5,0.5179330999999365,0.2,0,AccAcc,39,18,Man,Right,
35,13,1,1.3332836000008683,['n'],1,right,['2'],2,1.2834505999999237,0.1,0,AccAcc,39,18,Man,Right,
36,13,1,3.0321536000010383,['n'],0,left,['2'],2,0.9353317000004608,0.2,0,AccAcc,39,18,Man,Right,
37,13,1,1.2154798999999912,['c'],1,left,['8'],4,1.0692458000012266,0.1,0,AccAcc,39,18,Man,Right,
38,13,1,1.0832609999997658,['n'],0,left,['9'],5,0.7840837000003376,0.1,0,AccAcc,39,18,Man,Right,
39,13,1,1.2691267999998672,['c'],1,left,['8'],4,2.4345871999994415,0.2,0,AccAcc,39,18,Man,Right,
40,13,1,1.2498875000001135,['c'],1,left,['9'],5,2.1508585999999923,0.4,0,AccAcc,39,18,Man,Right,
41,13,1,1.3351743000002898,['c'],0,right,['8'],4,0.7005662000010489,0.1,0,AccAcc,39,18,Man,Right,
42,13,1,0.8838438000002498,['n'],1,right,['9'],5,0.5513110000010784,0.4,0,AccAcc,39,18,Man,Right,
43,13,1,2.4662607000009302,['c'],1,left,['3'],3,1.2345927999995183,0.1,0,AccAcc,39,18,Man,Right,
44,13,1,0.7670848000016122,['c'],1,left,['9'],5,0.751282799999899,0.1,0,AccAcc,39,18,Man,Right,
45,13,1,1.0339982000004966,['n'],1,right,['9'],5,0.768132200000764,0.2,0,AccAcc,39,18,Man,Right,
46,13,1,1.4000120999990031,['n'],1,right,['9'],5,0.9175890000005893,0.2,0,AccAcc,39,18,Man,Right,
47,13,1,1.216491599998335,['n'],1,right,['9'],5,0.7348945000012463,0.4,0,AccAcc,39,18,Man,Right,
48,13,1,1.1001297999991948,['n'],1,right,['0'],6,0.8182864000009431,0.4,0,AccAcc,39,18,Man,Right,
49,13,1,0.9841490999988309,['n'],1,right,['8'],4,0.5182230999998865,0.2,0,AccAcc,39,18,Man,Right,
50,13,1,1.1177504999996017,['c'],1,left,['8'],4,0.7515557000006083,0.2,0,AccAcc,39,18,Man,Right,
51,13,1,1.0498686999999336,['c'],0,right,['2'],2,0.9184418000004371,0.1,0,AccAcc,39,18,Man,Right,
52,13,1,2.532520900000236,['c'],1,left,['3'],3,1.901923600000373,0.2,0,AccAcc,39,18,Man,Right,
53,13,1,1.8836749000001873,['c'],1,left,['8'],4,1.1846608000014385,0.2,0,AccAcc,39,18,Man,Right,
54,13,1,0.8823446999995213,['n'],1,right,['9'],5,0.8687451999994664,0.4,0,AccAcc,39,18,Man,Right,
55,13,1,1.5669597999985854,['n'],0,left,['8'],4,0.8177743999985978,0.2,0,AccAcc,39,18,Man,Right,
56,13,1,1.6670159000004787,['n'],0,left,['8'],4,1.8512180999987322,0.1,0,AccAcc,39,18,Man,Right,
57,13,1,2.2178177000005235,['n'],0,left,['8'],4,0.6680166000005556,0.1,0,AccAcc,39,18,Man,Right,
58,13,1,0.8678177000001597,['c'],1,left,['8'],4,1.167311500001233,0.4,0,AccAcc,39,18,Man,Right,
59,13,1,0.7502547000003688,['n'],1,right,['9'],5,0.5014281000003393,0.2,0,AccAcc,39,18,Man,Right,
0,14,1,0.3172028999997565,['c'],0,right,['2'],2,0.9512999000016862,0.2,0,FastAcc,39,18,Man,Right,
1,14,1,0.19858500000009371,['n'],1,right,['8'],4,1.150412300001335,0.2,0,FastAcc,39,18,Man,Right,
2,14,1,0.21621090000007825,['c'],0,right,['3'],3,1.9350756999992882,0.2,0,FastAcc,39,18,Man,Right,
3,14,1,0.20053989999905752,['n'],0,left,['2'],2,1.0831431999995402,0.4,0,FastAcc,39,18,Man,Right,
4,14,1,0.20139610000114772,['c'],1,left,['9'],5,1.566526000000522,0.2,0,FastAcc,39,18,Man,Right,
5,14,1,0.19991120000122464,['n'],1,right,['8'],4,1.585225700000592,0.2,0,FastAcc,39,18,Man,Right,
6,14,1,0.03281750000132888,['c'],0,right,['8'],4,1.2681006000002526,0.1,0,FastAcc,39,18,Man,Right,
7,14,1,0.2006854999999632,['n'],0,left,['8'],4,3.3318201000001864,0.1,0,FastAcc,39,18,Man,Right,
8,14,1,0.1519029999999475,['n'],0,left,['8'],4,1.2327450000011595,0.2,0,FastAcc,39,18,Man,Right,
9,14,1,0.08340880000105244,['c'],1,left,['2'],2,3.0356580000006943,0.4,0,FastAcc,39,18,Man,Right,
10,14,1,0.199831500000073,['n'],1,right,['9'],5,0.8181722000008449,0.2,0,FastAcc,39,18,Man,Right,
11,14,1,0.25073280000106024,['c'],0,right,['1'],1,1.183348999998998,0.4,0,FastAcc,39,18,Man,Right,
12,14,1,0.28511339999931806,['n'],0,left,['8'],4,1.5673274000000674,0.4,0,FastAcc,39,18,Man,Right,
13,14,1,0.1680249000000913,['n'],0,left,['9'],5,0.9502160000010917,0.2,0,FastAcc,39,18,Man,Right,
14,14,1,0.266991099999359,['n'],1,right,['9'],5,0.9188159000004816,0.4,0,FastAcc,39,18,Man,Right,
15,14,1,0.2007372000007308,['c'],0,right,['3'],3,1.1344329999992624,0.1,0,FastAcc,39,18,Man,Right,
16,14,1,0.04956570000103966,['n'],1,right,['8'],4,1.0685883999994985,0.4,0,FastAcc,39,18,Man,Right,
17,14,1,0.1995706000016071,['c'],1,left,['9'],5,1.0674445000004198,0.1,0,FastAcc,39,18,Man,Right,
18,14,1,0.23445080000055896,['n'],1,right,['9'],5,0.6343845000010333,0.2,0,FastAcc,39,18,Man,Right,
19,14,1,0.23412590000043565,['c'],0,right,['8'],4,0.9181668999990507,0.1,0,FastAcc,39,18,Man,Right,
20,14,1,0.3155146999997669,['n'],1,right,['9'],5,0.9340109999993729,0.1,0,FastAcc,39,18,Man,Right,
21,14,1,0.28327119999994466,['c'],0,right,['2'],2,0.9337009999999282,0.4,0,FastAcc,39,18,Man,Right,
22,14,1,0.18442989999857673,['n'],1,right,['9'],5,1.1497358000015083,0.1,0,FastAcc,39,18,Man,Right,
23,14,1,0.250892300000487,['c'],0,right,['2'],2,0.7998102000001381,0.2,0,FastAcc,39,18,Man,Right,
24,14,1,0.2506149999990157,['n'],0,left,['9'],5,1.016576600000917,0.2,0,FastAcc,39,18,Man,Right,
25,14,1,0.10134459999972023,['n'],0,left,['3'],3,2.3336539000010816,0.1,0,FastAcc,39,18,Man,Right,
26,14,1,0.24934229999962554,['n'],0,left,['9'],5,0.8350740000005317,0.1,0,FastAcc,39,18,Man,Right,
27,14,1,0.40000030000010156,['n'],0,left,['2'],2,1.3500508999986778,0.1,0,FastAcc,39,18,Man,Right,
28,14,1,0.234610800000155,['n'],0,left,['9'],5,0.9331879000001209,0.1,0,FastAcc,39,18,Man,Right,
29,14,1,0.2830816000005143,['n'],0,left,['2'],2,1.951435400000264,0.4,0,FastAcc,39,18,Man,Right,
30,14,1,0.2824457999995502,['n'],1,right,['9'],5,0.6835657000010542,0.4,0,FastAcc,39,18,Man,Right,
31,14,1,0.21701320000101987,['c'],1,left,['9'],5,2.0497375000013562,0.4,0,FastAcc,39,18,Man,Right,
32,14,1,0.21589880000101402,['n'],0,left,['9'],5,1.4192536999998993,0.1,0,FastAcc,39,18,Man,Right,
33,14,1,0.41641789999994216,['n'],1,right,['9'],5,0.6831856000007974,0.4,0,FastAcc,39,18,Man,Right,
34,14,1,0.26653860000078566,['c'],0,right,['8'],4,0.9834656000002724,0.1,0,FastAcc,39,18,Man,Right,
35,14,1,0.165793100000883,['n'],0,left,['8'],4,1.2029404000004433,0.2,0,FastAcc,39,18,Man,Right,
36,14,1,0.16650639999897976,['n'],0,left,['8'],4,1.1687657000002218,0.4,0,FastAcc,39,18,Man,Right,
37,14,1,0.200334400000429,['c'],0,right,['1'],1,1.318952999999965,0.2,0,FastAcc,39,18,Man,Right,
38,14,1,0.20038010000098438,['n'],1,right,['9'],5,1.233186299999943,0.4,0,FastAcc,39,18,Man,Right,
39,14,1,0.016313800000716583,['c'],1,left,['8'],4,1.3671931999997469,0.4,0,FastAcc,39,18,Man,Right,
40,14,1,0.11887530000058177,['n'],0,left,['9'],5,1.2495883999999933,0.1,0,FastAcc,39,18,Man,Right,
41,14,1,0.18345439999939117,['n'],1,right,['9'],5,0.899669399999766,0.4,0,FastAcc,39,18,Man,Right,
42,14,1,0.10049250000156462,['n'],1,right,['9'],5,0.6685829999987618,0.4,0,FastAcc,39,18,Man,Right,
43,14,1,0.1508907999996154,['c'],0,right,['8'],4,1.4679161999993084,0.4,0,FastAcc,39,18,Man,Right,
44,14,1,0.21663009999974747,['c'],1,left,['8'],4,1.0666793000000325,0.1,0,FastAcc,39,18,Man,Right,
45,14,1,0.30006780000076105,['c'],1,left,['8'],4,0.8356784000006883,0.1,0,FastAcc,39,18,Man,Right,
46,14,1,0.2829660999996122,['n'],1,right,['9'],5,0.9336179000001721,0.2,0,FastAcc,39,18,Man,Right,
47,14,1,0.03449510000064038,['c'],0,right,['8'],4,1.1006211999992956,0.4,0,FastAcc,39,18,Man,Right,
48,14,1,0.24807790000159002,['n'],0,left,['9'],5,1.100748900000326,0.2,0,FastAcc,39,18,Man,Right,
49,14,1,0.38464290000047185,['c'],1,left,['8'],4,1.4345673999996507,0.1,0,FastAcc,39,18,Man,Right,
50,14,1,0.24894620000122814,['n'],1,right,['9'],5,0.8844397000011668,0.2,0,FastAcc,39,18,Man,Right,
51,14,1,0.28289310000036494,['n'],0,left,['9'],5,1.2504138000003877,0.2,0,FastAcc,39,18,Man,Right,
52,14,1,0.3848531000003277,['n'],0,left,['9'],5,0.5333695000008447,0.1,0,FastAcc,39,18,Man,Right,
53,14,1,0.5347617999996146,['n'],0,left,['9'],5,0.16682639999999083,0.2,0,FastAcc,39,18,Man,Right,
54,14,1,0.4661772999988898,['c'],1,left,['9'],5,1.5838308999991568,0.4,0,FastAcc,39,18,Man,Right,
55,14,1,0.46735179999996035,['c'],1,left,['9'],5,0.6846289999994042,0.1,0,FastAcc,39,18,Man,Right,
56,14,1,0.4173964999990858,['c'],1,left,['9'],5,0.38441249999959837,0.2,0,FastAcc,39,18,Man,Right,
57,14,1,0.3182403999999224,['c'],0,right,['1'],1,1.0850610999987111,0.4,0,FastAcc,39,18,Man,Right,
58,14,1,0.2013675999987754,['n'],1,right,['9'],5,0.9174074000002292,0.2,0,FastAcc,39,18,Man,Right,
59,14,1,0.2847430000001623,['c'],0,right,['8'],4,0.7169584000002942,0.1,0,FastAcc,39,18,Man,Right,
0,15,1,0.4999225999999908,['n'],1,right,['8'],4,0.16778380000141624,0.2,0,FastFast,39,18,Man,Right,
1,15,1,0.21779919999971753,['c'],0,right,['3'],3,0.16870060000110243,0.4,0,FastFast,39,18,Man,Right,
2,15,1,0.05006219999995665,['n'],1,right,['8'],4,0.18551160000060918,0.4,0,FastFast,39,18,Man,Right,
3,15,1,0.16718740000032994,['n'],1,right,['2'],2,0.20281079999949725,0.2,0,FastFast,39,18,Man,Right,
4,15,1,0.0833703999996942,['n'],0,left,['2'],2,0.21779520000018238,0.2,0,FastFast,39,18,Man,Right,
5,15,1,0.25037519999932556,['c'],0,right,['8'],4,0.13460330000089016,0.2,0,FastFast,39,18,Man,Right,
6,15,1,0.2505514000004041,['c'],1,left,['8'],4,0.034408299999995506,0.1,0,FastFast,39,18,Man,Right,
7,15,1,0.30031980000057956,['c'],0,right,['8'],4,0.13396569999895291,0.4,0,FastFast,39,18,Man,Right,
8,15,1,0.26779699999860895,['n'],0,left,['2'],2,0.18514940000022762,0.4,0,FastFast,39,18,Man,Right,
9,15,1,0.21726460000172665,['n'],1,right,['9'],5,0.2848171000005095,0.1,0,FastFast,39,18,Man,Right,
10,15,1,0.10028009999950882,['n'],1,right,['9'],5,0.1506337999999232,0.2,0,FastFast,39,18,Man,Right,
11,15,1,0.20055539999884786,['n'],0,left,['8'],4,0.11691609999979846,0.1,0,FastFast,39,18,Man,Right,
12,15,1,0.25038830000085,['n'],0,left,['8'],4,0.0847728000007919,0.2,0,FastFast,39,18,Man,Right,
13,15,1,0.26762500000040745,['n'],0,left,['8'],4,0.08561870000085037,0.2,0,FastFast,39,18,Man,Right,
14,15,1,0.2838560000000143,['n'],0,left,['8'],4,0.08338460000049963,0.1,0,FastFast,39,18,Man,Right,
15,15,1,0.28391540000120585,['n'],0,left,['8'],4,0.06865860000107205,0.2,0,FastFast,39,18,Man,Right,
16,15,1,0.31753349999962666,['n'],0,left,['8'],4,0.10131950000140932,0.4,0,FastFast,39,18,Man,Right,
17,15,1,0.19926180000038585,['c'],0,right,['3'],3,0.06888249999974505,0.2,0,FastFast,39,18,Man,Right,
18,15,1,0.16656800000055227,['n'],0,left,['8'],4,0.10181370000100287,0.2,0,FastFast,39,18,Man,Right,
19,15,1,0.21745499999997264,['n'],0,left,['8'],4,0.051429699999061995,0.1,0,FastFast,39,18,Man,Right,
20,15,1,0.6513661999997566,['c'],0,right,['2'],2,0.20127150000007532,0.1,0,FastFast,39,18,Man,Right,
21,15,1,0.41598380000141333,['n'],1,right,['9'],5,0.13614380000035453,0.2,0,FastFast,39,18,Man,Right,
22,15,1,0.317197500000475,['c'],1,left,['9'],5,0.26822679999895627,0.2,0,FastFast,39,18,Man,Right,
23,15,1,0.26666889999978594,['c'],0,right,['9'],5,0.1179336000004696,0.1,0,FastFast,39,18,Man,Right,
24,15,1,0.26668379999864555,['n'],0,left,['8'],4,0.10083510000004026,0.1,0,FastFast,39,18,Man,Right,
25,15,1,0.40122279999923194,['n'],1,right,['9'],5,0.13409990000036487,0.2,0,FastFast,39,18,Man,Right,
26,15,1,0.2999104999998963,['c'],1,left,['9'],5,0.31796599999870523,0.1,0,FastFast,39,18,Man,Right,
27,15,1,0.30023419999997714,['n'],0,left,['9'],5,0.21750690000044415,0.2,0,FastFast,39,18,Man,Right,
28,15,1,0.24941190000026836,['c'],1,left,['2'],2,0.16818760000023758,0.4,0,FastFast,39,18,Man,Right,
29,15,1,0.19901059999938298,['n'],1,right,['9'],5,0.18497460000071442,0.1,0,FastFast,39,18,Man,Right,
30,15,1,0.18384229999901436,['n'],0,left,['9'],5,0.16687160000037693,0.2,0,FastFast,39,18,Man,Right,
31,15,1,0.20017799999914132,['n'],0,left,['9'],5,0.10015449999991688,0.2,0,FastFast,39,18,Man,Right,
32,15,1,0.11687170000004699,['c'],1,left,['2'],2,0.16679819999990286,0.2,0,FastFast,39,18,Man,Right,
33,15,1,0.2332289000005403,['n'],1,right,['9'],5,0.10335269999995944,0.4,0,FastFast,39,18,Man,Right,
34,15,1,0.033455400000093505,['n'],1,right,['9'],5,0.3012813000004826,0.1,0,FastFast,39,18,Man,Right,
35,15,1,0.2657385999991675,['n'],1,right,['9'],5,0.1016046999993705,0.4,0,FastFast,39,18,Man,Right,
36,15,1,0.2155824000001303,['n'],1,right,['9'],5,0.13343499999973574,0.1,0,FastFast,39,18,Man,Right,
37,15,1,0.2508594000009907,['n'],0,left,['9'],5,0.11774860000150511,0.4,0,FastFast,39,18,Man,Right,
38,15,1,0.2655697999998665,['c'],0,right,['2'],2,0.11886760000015784,0.4,0,FastFast,39,18,Man,Right,
39,15,1,0.18276399999922432,['c'],0,right,['2'],2,0.0855701999989833,0.4,0,FastFast,39,18,Man,Right,
40,15,1,0.5498673999991297,['n'],1,right,['9'],5,0.36875619999955234,0.2,0,FastFast,39,18,Man,Right,
41,15,1,0.41588430000047083,['n'],1,right,['9'],5,0.10158030000093277,0.4,0,FastFast,39,18,Man,Right,
42,15,1,0.433843099999649,['n'],0,left,['9'],5,0.10129810000034922,0.2,0,FastFast,39,18,Man,Right,
43,15,1,0.5167192000008072,['n'],1,right,['9'],5,0.03385100000014063,0.4,0,FastFast,39,18,Man,Right,
44,15,1,0.5002968000007968,['n'],0,left,['9'],5,0.034979399999429006,0.4,0,FastFast,39,18,Man,Right,
45,15,1,0.2669691999999486,['c'],0,right,['2'],2,0.15166089999911492,0.1,0,FastFast,39,18,Man,Right,
46,15,1,0.7165564999995695,['c'],1,left,['9'],5,0.11847910000142292,0.4,0,FastFast,39,18,Man,Right,
47,15,1,0.26644630000009784,['n'],0,left,['2'],2,0.06841100000019651,0.4,0,FastFast,39,18,Man,Right,
48,15,1,0.3997488000004523,['n'],1,right,['9'],5,0.05053120000047784,0.4,0,FastFast,39,18,Man,Right,
49,15,1,0.3836033999996289,['n'],1,right,['8'],4,0.1353779000000941,0.1,0,FastFast,39,18,Man,Right,
50,15,1,0.24997669999902428,['n'],1,right,['8'],4,0.06888900000012654,0.1,0,FastFast,39,18,Man,Right,
51,15,1,0.2828769999996439,['n'],0,left,['9'],5,0.11779089999981807,0.1,0,FastFast,39,18,Man,Right,
52,15,1,0.11804630000006,['n'],1,right,['8'],4,0.1515479999998206,0.4,0,FastFast,39,18,Man,Right,
53,15,1,0.33367660000112664,['n'],1,right,['8'],4,0.2834688000002643,0.1,0,FastFast,39,18,Man,Right,
54,15,1,0.1174181000005774,['c'],1,left,['8'],4,0.15070209999976214,0.4,0,FastFast,39,18,Man,Right,
55,15,1,0.26588859999901615,['c'],1,left,['9'],5,0.03367380000054254,0.2,0,FastFast,39,18,Man,Right,
56,15,1,0.18410270000094897,['n'],1,right,['8'],4,0.1182740999993257,0.1,0,FastFast,39,18,Man,Right,
57,15,1,0.20017919999918377,['n'],0,left,['3'],3,0.18541209999966668,0.1,0,FastFast,39,18,Man,Right,
58,15,1,0.18174800000087998,['n'],0,left,['2'],2,0.15279779999946186,0.1,0,FastFast,39,18,Man,Right,
59,15,1,0.28259019999859447,['n'],0,left,['2'],2,0.1839006000009249,0.4,0,FastFast,39,18,Man,Right,
