withinblocktrial,block,block_repetition,rt,resp,cor,cresp,conf_press,cj,rtconf,coherence,slow_trial,manipulation,sub,age,gender,handedness,
0,1,1,3.966437800001586,['c'],0,right,none,-99,-99,0.5,0,none,31,18,Woman,Right,
1,1,1,1.8821346999993693,['c'],1,left,none,-99,-99,0.5,0,none,31,18,Woman,Right,
2,1,1,1.6674629999997705,['n'],1,right,none,-99,-99,0.5,0,none,31,18,Woman,Right,
3,1,1,0.6835042999991856,['c'],1,left,none,-99,-99,0.5,0,none,31,18,Woman,Right,
4,1,1,0.7341746999991301,['c'],1,left,none,-99,-99,0.5,0,none,31,18,Woman,Right,
5,1,1,0.46537520000129007,['c'],0,right,none,-99,-99,0.5,0,none,31,18,Woman,Right,
6,1,1,0.6494039000008343,['n'],1,right,none,-99,-99,0.5,0,none,31,18,Woman,Right,
7,1,1,0.5987187000009726,['c'],1,left,none,-99,-99,0.5,0,none,31,18,Woman,Right,
8,1,1,0.851250899999286,['n'],1,right,none,-99,-99,0.5,0,none,31,18,Woman,Right,
9,1,1,0.35054909999962547,['c'],1,left,none,-99,-99,0.5,0,none,31,18,Woman,Right,
10,1,1,0.6835307000001194,['n'],1,right,none,-99,-99,0.5,0,none,31,18,Woman,Right,
11,1,1,0.41706080000039947,['c'],1,left,none,-99,-99,0.5,0,none,31,18,Woman,Right,
12,1,1,0.915988799999468,['c'],1,left,none,-99,-99,0.5,0,none,31,18,Woman,Right,
13,1,1,0.9182444999987638,['n'],1,right,none,-99,-99,0.5,0,none,31,18,Woman,Right,
14,1,1,0.3156177000000753,['c'],1,left,none,-99,-99,0.5,0,none,31,18,Woman,Right,
15,1,1,0.6514750000005733,['n'],1,right,none,-99,-99,0.5,0,none,31,18,Woman,Right,
16,1,1,0.4679803000017273,['c'],0,right,none,-99,-99,0.5,0,none,31,18,Woman,Right,
17,1,1,0.9329218000002584,['c'],1,left,none,-99,-99,0.5,0,none,31,18,Woman,Right,
18,1,1,0.7508582000009483,['c'],0,right,none,-99,-99,0.5,0,none,31,18,Woman,Right,
19,1,1,0.7513331999998627,['c'],1,left,none,-99,-99,0.5,0,none,31,18,Woman,Right,
20,1,1,1.033734699998604,['n'],1,right,none,-99,-99,0.5,0,none,31,18,Woman,Right,
21,1,1,0.6509182999998302,['c'],1,left,none,-99,-99,0.5,0,none,31,18,Woman,Right,
22,1,1,1.0004265000006853,['c'],0,right,none,-99,-99,0.5,0,none,31,18,Woman,Right,
23,1,1,0.6826724999991711,['c'],1,left,none,-99,-99,0.5,0,none,31,18,Woman,Right,
0,1,2,0.4016397000013967,['c'],0,right,none,-99,-99,0.5,0,none,31,18,Woman,Right,
1,1,2,0.6161603000000468,['n'],1,right,none,-99,-99,0.5,0,none,31,18,Woman,Right,
2,1,2,0.35160980000000563,['c'],1,left,none,-99,-99,0.5,0,none,31,18,Woman,Right,
3,1,2,0.6990072000007785,['c'],1,left,none,-99,-99,0.5,0,none,31,18,Woman,Right,
4,1,2,0.6839331999999558,['c'],1,left,none,-99,-99,0.5,0,none,31,18,Woman,Right,
5,1,2,0.5006231999996089,['c'],1,left,none,-99,-99,0.5,0,none,31,18,Woman,Right,
6,1,2,0.6162060000006022,['n'],1,right,none,-99,-99,0.5,0,none,31,18,Woman,Right,
7,1,2,0.3017376999996486,['c'],1,left,none,-99,-99,0.5,0,none,31,18,Woman,Right,
8,1,2,0.3838372000009258,['n'],0,left,none,-99,-99,0.5,0,none,31,18,Woman,Right,
9,1,2,0.8324113999988185,['n'],1,right,none,-99,-99,0.5,0,none,31,18,Woman,Right,
10,1,2,0.3833336000006966,['c'],0,right,none,-99,-99,0.5,0,none,31,18,Woman,Right,
11,1,2,0.8671749000004638,['c'],1,left,none,-99,-99,0.5,0,none,31,18,Woman,Right,
12,1,2,0.9322177000012744,['n'],0,left,none,-99,-99,0.5,0,none,31,18,Woman,Right,
13,1,2,0.3352491000005102,['c'],0,right,none,-99,-99,0.5,0,none,31,18,Woman,Right,
14,1,2,0.9166891000004398,['c'],1,left,none,-99,-99,0.5,0,none,31,18,Woman,Right,
15,1,2,0.5332675000008749,['n'],1,right,none,-99,-99,0.5,0,none,31,18,Woman,Right,
16,1,2,0.9153795000001992,['n'],1,right,none,-99,-99,0.5,0,none,31,18,Woman,Right,
17,1,2,0.5338535999999294,['c'],1,left,none,-99,-99,0.5,0,none,31,18,Woman,Right,
18,1,2,0.7171195999999327,['c'],1,left,none,-99,-99,0.5,0,none,31,18,Woman,Right,
19,1,2,0.5334660000007716,['n'],1,right,none,-99,-99,0.5,0,none,31,18,Woman,Right,
20,1,2,0.9508033000001888,['n'],1,right,none,-99,-99,0.5,0,none,31,18,Woman,Right,
21,1,2,0.700906699999905,['n'],1,right,none,-99,-99,0.5,0,none,31,18,Woman,Right,
22,1,2,0.5165920999988884,['c'],1,left,none,-99,-99,0.5,0,none,31,18,Woman,Right,
23,1,2,0.6334986000001663,['n'],1,right,none,-99,-99,0.5,0,none,31,18,Woman,Right,
0,1,3,0.7333926000010251,['n'],1,right,none,-99,-99,0.5,0,none,31,18,Woman,Right,
1,1,3,0.38332439999976486,['c'],1,left,none,-99,-99,0.5,0,none,31,18,Woman,Right,
2,1,3,0.8994808000006742,['n'],0,left,none,-99,-99,0.5,0,none,31,18,Woman,Right,
3,1,3,0.7826096000007965,['c'],1,left,none,-99,-99,0.5,0,none,31,18,Woman,Right,
4,1,3,0.4669811000003392,['n'],1,right,none,-99,-99,0.5,0,none,31,18,Woman,Right,
5,1,3,0.6672797000010178,['n'],1,right,none,-99,-99,0.5,0,none,31,18,Woman,Right,
6,1,3,0.6160744999997405,['c'],1,left,none,-99,-99,0.5,0,none,31,18,Woman,Right,
7,1,3,0.6514499000004434,['n'],0,left,none,-99,-99,0.5,0,none,31,18,Woman,Right,
8,1,3,0.8337460000002466,['n'],1,right,none,-99,-99,0.5,0,none,31,18,Woman,Right,
9,1,3,0.6168188999999984,['n'],1,right,none,-99,-99,0.5,0,none,31,18,Woman,Right,
10,1,3,0.4170558000005258,['c'],1,left,none,-99,-99,0.5,0,none,31,18,Woman,Right,
11,1,3,0.6497982000000775,['n'],1,right,none,-99,-99,0.5,0,none,31,18,Woman,Right,
12,1,3,0.7172900000005029,['n'],0,left,none,-99,-99,0.5,0,none,31,18,Woman,Right,
13,1,3,0.767689700000119,['c'],1,left,none,-99,-99,0.5,0,none,31,18,Woman,Right,
14,1,3,0.6837930999990931,['n'],1,right,none,-99,-99,0.5,0,none,31,18,Woman,Right,
15,1,3,0.8333118999998987,['c'],1,left,none,-99,-99,0.5,0,none,31,18,Woman,Right,
16,1,3,0.6346716000007291,['n'],1,right,none,-99,-99,0.5,0,none,31,18,Woman,Right,
17,1,3,1.0156286999990698,['c'],0,right,none,-99,-99,0.5,0,none,31,18,Woman,Right,
18,1,3,0.8333109000013792,['c'],1,left,none,-99,-99,0.5,0,none,31,18,Woman,Right,
19,1,3,0.8665362000010646,['c'],1,left,none,-99,-99,0.5,0,none,31,18,Woman,Right,
20,1,3,0.6498434000004636,['n'],1,right,none,-99,-99,0.5,0,none,31,18,Woman,Right,
21,1,3,1.1171496999995725,['n'],1,right,none,-99,-99,0.5,0,none,31,18,Woman,Right,
22,1,3,0.6658840999989479,['c'],1,left,none,-99,-99,0.5,0,none,31,18,Woman,Right,
23,1,3,0.5337803999991593,['n'],1,right,none,-99,-99,0.5,0,none,31,18,Woman,Right,
0,1,4,0.533892299999934,['n'],1,right,none,-99,-99,0.5,0,none,31,18,Woman,Right,
1,1,4,0.3831264000000374,['c'],1,left,none,-99,-99,0.5,0,none,31,18,Woman,Right,
2,1,4,0.3825615999994625,['n'],1,right,none,-99,-99,0.5,0,none,31,18,Woman,Right,
3,1,4,0.4170076999998855,['c'],0,right,none,-99,-99,0.5,0,none,31,18,Woman,Right,
4,1,4,0.8509672000000137,['c'],1,left,none,-99,-99,0.5,0,none,31,18,Woman,Right,
5,1,4,0.5849057999985234,['n'],1,right,none,-99,-99,0.5,0,none,31,18,Woman,Right,
6,1,4,0.3659028000001854,['c'],1,left,none,-99,-99,0.5,0,none,31,18,Woman,Right,
7,1,4,0.34966500000155065,['n'],0,left,none,-99,-99,0.5,0,none,31,18,Woman,Right,
8,1,4,0.5839080999994621,['n'],1,right,none,-99,-99,0.5,0,none,31,18,Woman,Right,
9,1,4,0.6183325000001787,['c'],1,left,none,-99,-99,0.5,0,none,31,18,Woman,Right,
10,1,4,0.5504282000001695,['n'],1,right,none,-99,-99,0.5,0,none,31,18,Woman,Right,
11,1,4,0.7343227000001207,['n'],1,right,none,-99,-99,0.5,0,none,31,18,Woman,Right,
12,1,4,1.1509146999997029,['c'],0,right,none,-99,-99,0.5,0,none,31,18,Woman,Right,
13,1,4,0.799846300000354,['c'],1,left,none,-99,-99,0.5,0,none,31,18,Woman,Right,
14,1,4,0.8171746999996685,['c'],1,left,none,-99,-99,0.5,0,none,31,18,Woman,Right,
15,1,4,0.5180075999996916,['n'],1,right,none,-99,-99,0.5,0,none,31,18,Woman,Right,
16,1,4,0.5675960999997187,['c'],0,right,none,-99,-99,0.5,0,none,31,18,Woman,Right,
17,1,4,0.4830036999992444,['n'],1,right,none,-99,-99,0.5,0,none,31,18,Woman,Right,
18,1,4,1.5999818000000232,['n'],0,left,none,-99,-99,0.5,0,none,31,18,Woman,Right,
19,1,4,0.7176127999991877,['n'],1,right,none,-99,-99,0.5,0,none,31,18,Woman,Right,
20,1,4,0.6495084999987739,['c'],1,left,none,-99,-99,0.5,0,none,31,18,Woman,Right,
21,1,4,0.8177914000007149,['c'],1,left,none,-99,-99,0.5,0,none,31,18,Woman,Right,
22,1,4,0.750543000000107,['c'],1,left,none,-99,-99,0.5,0,none,31,18,Woman,Right,
23,1,4,0.5165689999994356,['c'],1,left,none,-99,-99,0.5,0,none,31,18,Woman,Right,
0,1,5,0.5514428999995289,['n'],1,right,none,-99,-99,0.5,0,none,31,18,Woman,Right,
1,1,5,0.867675199999212,['n'],1,right,none,-99,-99,0.5,0,none,31,18,Woman,Right,
2,1,5,0.666854199998852,['c'],1,left,none,-99,-99,0.5,0,none,31,18,Woman,Right,
3,1,5,0.666944999999032,['n'],1,right,none,-99,-99,0.5,0,none,31,18,Woman,Right,
4,1,5,0.649053900000581,['n'],1,right,none,-99,-99,0.5,0,none,31,18,Woman,Right,
5,1,5,0.832897199999934,['c'],1,left,none,-99,-99,0.5,0,none,31,18,Woman,Right,
6,1,5,0.4180127999989054,['n'],1,right,none,-99,-99,0.5,0,none,31,18,Woman,Right,
7,1,5,0.5996446999997715,['c'],1,left,none,-99,-99,0.5,0,none,31,18,Woman,Right,
8,1,5,0.3664948999994522,['n'],1,right,none,-99,-99,0.5,0,none,31,18,Woman,Right,
9,1,5,0.4325109000001248,['c'],1,left,none,-99,-99,0.5,0,none,31,18,Woman,Right,
10,1,5,0.7840816999996605,['c'],1,left,none,-99,-99,0.5,0,none,31,18,Woman,Right,
11,1,5,0.4829110999999102,['c'],1,left,none,-99,-99,0.5,0,none,31,18,Woman,Right,
12,1,5,0.467076700000689,['n'],1,right,none,-99,-99,0.5,0,none,31,18,Woman,Right,
13,1,5,0.3667569999997795,['c'],1,left,none,-99,-99,0.5,0,none,31,18,Woman,Right,
14,1,5,0.5667250000005879,['c'],1,left,none,-99,-99,0.5,0,none,31,18,Woman,Right,
15,1,5,0.5811100999999326,['c'],1,left,none,-99,-99,0.5,0,none,31,18,Woman,Right,
16,1,5,0.5491867000000639,['n'],1,right,none,-99,-99,0.5,0,none,31,18,Woman,Right,
17,1,5,0.5162884000001213,['c'],1,left,none,-99,-99,0.5,0,none,31,18,Woman,Right,
18,1,5,0.3672839999999269,['n'],1,right,none,-99,-99,0.5,0,none,31,18,Woman,Right,
19,1,5,0.3514194999988831,['c'],0,right,none,-99,-99,0.5,0,none,31,18,Woman,Right,
20,1,5,0.5503801000013482,['c'],1,left,none,-99,-99,0.5,0,none,31,18,Woman,Right,
21,1,5,0.8164846999989095,['c'],1,left,none,-99,-99,0.5,0,none,31,18,Woman,Right,
22,1,5,0.8176461000002746,['n'],1,right,none,-99,-99,0.5,0,none,31,18,Woman,Right,
23,1,5,0.8996609000005265,['n'],1,right,none,-99,-99,0.5,0,none,31,18,Woman,Right,
0,2,1,0.9348809000002802,['n'],1,right,none,-99,-99,0.4,0,none,31,18,Woman,Right,
1,2,1,1.0821264999995037,['n'],1,right,none,-99,-99,0.2,0,none,31,18,Woman,Right,
2,2,1,1.3171959999999672,['n'],0,left,none,-99,-99,0.1,0,none,31,18,Woman,Right,
3,2,1,0.933727200001158,['n'],0,left,none,-99,-99,0.1,0,none,31,18,Woman,Right,
4,2,1,1.3321319000006042,['c'],0,right,none,-99,-99,0.2,0,none,31,18,Woman,Right,
5,2,1,0.9495879999994941,['n'],1,right,none,-99,-99,0.4,0,none,31,18,Woman,Right,
6,2,1,1.0509486999999353,['c'],1,left,none,-99,-99,0.1,0,none,31,18,Woman,Right,
7,2,1,0.9680224000003363,['c'],0,right,none,-99,-99,0.4,0,none,31,18,Woman,Right,
8,2,1,0.8344149999993533,['n'],0,left,none,-99,-99,0.2,0,none,31,18,Woman,Right,
9,2,1,0.9511328999997204,['c'],0,right,none,-99,-99,0.2,0,none,31,18,Woman,Right,
10,2,1,1.0166399999998248,['c'],1,left,none,-99,-99,0.4,0,none,31,18,Woman,Right,
11,2,1,1.0011133999996673,['n'],1,right,none,-99,-99,0.1,0,none,31,18,Woman,Right,
12,2,1,0.916353299999173,['c'],1,left,none,-99,-99,0.2,0,none,31,18,Woman,Right,
13,2,1,1.0343474000001152,['n'],1,right,none,-99,-99,0.1,0,none,31,18,Woman,Right,
14,2,1,0.95047280000108,['c'],0,right,none,-99,-99,0.2,0,none,31,18,Woman,Right,
15,2,1,1.1011228999996092,['c'],1,left,none,-99,-99,0.4,0,none,31,18,Woman,Right,
16,2,1,1.1332211999997526,['c'],1,left,none,-99,-99,0.4,0,none,31,18,Woman,Right,
17,2,1,0.7013384000001679,['c'],1,left,none,-99,-99,0.1,0,none,31,18,Woman,Right,
18,2,1,0.6831941999989795,['c'],0,right,none,-99,-99,0.2,0,none,31,18,Woman,Right,
19,2,1,0.9004554999992251,['n'],1,right,none,-99,-99,0.4,0,none,31,18,Woman,Right,
20,2,1,0.7510579999998299,['c'],1,left,none,-99,-99,0.1,0,none,31,18,Woman,Right,
21,2,1,0.9014807000003202,['c'],1,left,none,-99,-99,0.1,0,none,31,18,Woman,Right,
22,2,1,0.7682658000012452,['n'],1,right,none,-99,-99,0.4,0,none,31,18,Woman,Right,
23,2,1,0.8997577999998612,['c'],1,left,none,-99,-99,0.2,0,none,31,18,Woman,Right,
0,3,1,0.8002926000008301,['c'],1,left,['9'],5,2.7337957999989158,0.4,0,none,31,18,Woman,Right,
1,3,1,0.9676287999991473,['c'],0,right,['8'],4,4.0340947000004235,0.2,0,none,31,18,Woman,Right,
2,3,1,0.8175633000009839,['c'],0,right,['9'],5,1.5678015000012238,0.1,0,none,31,18,Woman,Right,
3,3,1,0.7671571000009862,['c'],1,left,['9'],5,1.384512900000118,0.4,0,none,31,18,Woman,Right,
4,3,1,0.6995301999995718,['c'],1,left,['9'],5,3.21615329999986,0.2,0,none,31,18,Woman,Right,
5,3,1,0.7836165000007895,['c'],0,right,['9'],5,3.952582699999766,0.4,0,none,31,18,Woman,Right,
6,3,1,0.6674581000006583,['c'],0,right,['9'],5,1.8844918999984657,0.4,0,none,31,18,Woman,Right,
7,3,1,1.2168675000011717,['c'],1,left,['8'],4,2.017548399999214,0.4,0,none,31,18,Woman,Right,
8,3,1,1.1512746999997034,['n'],1,right,['8'],4,4.284251799999765,0.2,0,none,31,18,Woman,Right,
9,3,1,1.1995184000006702,['n'],1,right,['3'],3,1.8011948999992455,0.4,0,none,31,18,Woman,Right,
10,3,1,0.8159692000008363,['n'],1,right,['8'],4,1.5830934000005072,0.4,0,none,31,18,Woman,Right,
11,3,1,0.4850475000002916,['c'],0,right,['8'],4,2.233976999999868,0.4,0,none,31,18,Woman,Right,
12,3,1,0.6993546000012429,['c'],1,left,['9'],5,1.9497783000006166,0.1,0,none,31,18,Woman,Right,
13,3,1,0.8661850999997114,['n'],0,left,['3'],3,2.3181879999992816,0.2,0,none,31,18,Woman,Right,
14,3,1,0.6320188000008784,['n'],1,right,['9'],5,2.8016636000011204,0.1,0,none,31,18,Woman,Right,
15,3,1,0.5826641999992717,['c'],1,left,['9'],5,1.0345515999997588,0.1,0,none,31,18,Woman,Right,
16,3,1,0.8989574000006542,['c'],0,right,['8'],4,2.933870000000752,0.1,0,none,31,18,Woman,Right,
17,3,1,0.6844602000001032,['n'],1,right,['2'],2,2.868182700000034,0.2,0,none,31,18,Woman,Right,
18,3,1,0.44944610000129614,['c'],1,left,['9'],5,2.084018899999137,0.2,0,none,31,18,Woman,Right,
19,3,1,0.45119510000040464,['c'],1,left,['9'],5,2.834118300001137,0.1,0,none,31,18,Woman,Right,
20,3,1,0.6166568000007828,['c'],1,left,['0'],6,2.3176143999990018,0.1,0,none,31,18,Woman,Right,
21,3,1,0.6167432999991433,['n'],1,right,['9'],5,1.0846907000013744,0.2,0,none,31,18,Woman,Right,
22,3,1,0.9831857000008313,['n'],0,left,['3'],3,1.6839042999999947,0.2,0,none,31,18,Woman,Right,
23,3,1,0.6490424000003259,['n'],0,left,['8'],4,2.8520783999993,0.1,0,none,31,18,Woman,Right,
0,4,1,1.799508500000229,['c'],1,left,['9'],5,0.7020327000009274,0.4,0,AccFast,31,18,Woman,Right,
1,4,1,1.1998032000010426,['n'],1,right,['0'],6,0.4854226999996172,0.1,0,AccFast,31,18,Woman,Right,
2,4,1,0.6990299000008235,['n'],1,right,['8'],4,1.5848424000014347,0.4,0,AccFast,31,18,Woman,Right,
3,4,1,0.8503438000007009,['c'],1,left,['8'],4,0.44996440000068105,0.4,0,AccFast,31,18,Woman,Right,
4,4,1,1.2007475000009435,['n'],1,right,['8'],4,0.6347022000009019,0.2,0,AccFast,31,18,Woman,Right,
5,4,1,1.0499298999984603,['n'],1,right,['3'],3,0.9513377000002947,0.2,0,AccFast,31,18,Woman,Right,
6,4,1,0.8506240000006073,['n'],1,right,['8'],4,0.9834396000005654,0.4,0,AccFast,31,18,Woman,Right,
7,4,1,0.8507233999989694,['c'],1,left,['9'],5,0.9844762000011542,0.4,0,AccFast,31,18,Woman,Right,
8,4,1,1.1502432999986922,['n'],1,right,['8'],4,1.3680768999984139,0.4,0,AccFast,31,18,Woman,Right,
9,4,1,1.0509812000000238,['n'],0,left,['9'],5,0.6178423000001203,0.4,0,AccFast,31,18,Woman,Right,
10,4,1,0.9668915000002016,['n'],1,right,['3'],3,0.8015306000015698,0.2,0,AccFast,31,18,Woman,Right,
11,4,1,0.6005389000001742,['c'],1,left,['3'],3,0.5502372999999352,0.4,0,AccFast,31,18,Woman,Right,
12,4,1,0.8171025999999983,['n'],0,left,['9'],5,0.6178302000007534,0.4,0,AccFast,31,18,Woman,Right,
13,4,1,1.5166258999997808,['c'],0,right,['3'],3,0.7178340999998909,0.2,0,AccFast,31,18,Woman,Right,
14,4,1,1.583136999999624,['n'],0,left,['9'],5,1.3835495999992418,0.1,0,AccFast,31,18,Woman,Right,
15,4,1,1.3668004000010114,['n'],0,left,['3'],3,0.967838300000949,0.1,0,AccFast,31,18,Woman,Right,
16,4,1,0.8327021999994031,['n'],1,right,['3'],3,0.4003732000001037,0.4,0,AccFast,31,18,Woman,Right,
17,4,1,0.6325112999984412,['n'],0,left,['8'],4,1.1677417000009882,0.4,0,AccFast,31,18,Woman,Right,
18,4,1,0.616492000001017,['n'],1,right,['8'],4,0.3009446999985812,0.2,0,AccFast,31,18,Woman,Right,
19,4,1,0.9674164000007295,['n'],0,left,['8'],4,0.3667349999996077,0.2,0,AccFast,31,18,Woman,Right,
20,4,1,1.5667178000003332,['n'],1,right,['9'],5,0.2833277999998245,0.2,0,AccFast,31,18,Woman,Right,
21,4,1,1.9497023000003537,['c'],0,right,['9'],5,0.25092160000167496,0.2,0,AccFast,31,18,Woman,Right,
22,4,1,1.2010835999990377,['n'],1,right,['8'],4,0.6681778000001941,0.2,0,AccFast,31,18,Woman,Right,
23,4,1,1.23317329999918,['n'],0,left,['8'],4,0.7000184000007721,0.1,0,AccFast,31,18,Woman,Right,
24,4,1,0.9335584999989806,['n'],1,right,['8'],4,0.2515112000000954,0.4,0,AccFast,31,18,Woman,Right,
25,4,1,1.2491605000013806,['n'],1,right,['8'],4,0.31904300000132935,0.2,0,AccFast,31,18,Woman,Right,
26,4,1,1.5001609999999346,['c'],1,left,['8'],4,0.5177808000007644,0.4,0,AccFast,31,18,Woman,Right,
27,4,1,0.9671546000008675,['n'],1,right,['8'],4,0.2162553999987722,0.4,0,AccFast,31,18,Woman,Right,
28,4,1,1.417626599999494,['c'],1,left,['9'],5,0.4681385000003502,0.4,0,AccFast,31,18,Woman,Right,
29,4,1,1.1005663000014465,['c'],1,left,['9'],5,0.4842616999994789,0.4,0,AccFast,31,18,Woman,Right,
30,4,1,1.5336194999999861,['n'],1,right,['3'],3,0.4511367000013706,0.1,0,AccFast,31,18,Woman,Right,
31,4,1,1.1498795000006794,['n'],0,left,['3'],3,0.4831917000010435,0.2,0,AccFast,31,18,Woman,Right,
32,4,1,1.5663825000010547,['c'],1,left,['3'],3,0.5841794999996637,0.4,0,AccFast,31,18,Woman,Right,
33,4,1,0.6332490000004327,['n'],0,left,['8'],4,0.434595900000204,0.1,0,AccFast,31,18,Woman,Right,
34,4,1,1.5834233999994467,['n'],0,left,['8'],4,0.6834165000000212,0.1,0,AccFast,31,18,Woman,Right,
35,4,1,1.2839039999998931,['n'],0,left,['9'],5,0.41652719999910914,0.1,0,AccFast,31,18,Woman,Right,
36,4,1,1.1680716999999277,['c'],1,left,['8'],4,0.8011490000008052,0.1,0,AccFast,31,18,Woman,Right,
37,4,1,0.949801099999604,['n'],1,right,['8'],4,0.2513016000011703,0.1,0,AccFast,31,18,Woman,Right,
38,4,1,0.9838650999990932,['c'],1,left,['8'],4,0.46822959999917657,0.2,0,AccFast,31,18,Woman,Right,
39,4,1,1.40020689999983,['n'],1,right,['3'],3,0.7165788000002067,0.2,0,AccFast,31,18,Woman,Right,
40,4,1,1.3008166999989044,['c'],0,right,['8'],4,0.5016264000005322,0.2,0,AccFast,31,18,Woman,Right,
41,4,1,1.2321787000000768,['n'],1,right,['8'],4,1.0517968999993172,0.2,0,AccFast,31,18,Woman,Right,
42,4,1,0.7495351999987179,['c'],0,right,['8'],4,0.5183056999994733,0.4,0,AccFast,31,18,Woman,Right,
43,4,1,1.7494642999990901,['c'],1,left,['3'],3,0.318067099999098,0.2,0,AccFast,31,18,Woman,Right,
44,4,1,2.466562999999951,['c'],1,left,['9'],5,0.2180239999997866,0.4,0,AccFast,31,18,Woman,Right,
45,4,1,2.033194099998582,['n'],1,right,['3'],3,0.3675782000009349,0.1,0,AccFast,31,18,Woman,Right,
46,4,1,1.9320915999996942,['c'],1,left,['9'],5,0.31869779999942693,0.4,0,AccFast,31,18,Woman,Right,
47,4,1,2.68330160000005,['n'],0,left,['3'],3,0.5345058000002609,0.1,0,AccFast,31,18,Woman,Right,
48,4,1,2.1168871999998373,['c'],1,left,['8'],4,0.5179243000002316,0.2,0,AccFast,31,18,Woman,Right,
49,4,1,1.6982279000003473,['c'],1,left,['8'],4,1.2856724000012036,0.1,0,AccFast,31,18,Woman,Right,
50,4,1,1.6822549999997136,['c'],0,right,['8'],4,0.5839020999992499,0.1,0,AccFast,31,18,Woman,Right,
51,4,1,1.333503900001233,['n'],1,right,['8'],4,1.201632199999949,0.2,0,AccFast,31,18,Woman,Right,
52,4,1,1.418176900000617,['n'],1,right,['3'],3,0.9516975000005914,0.1,0,AccFast,31,18,Woman,Right,
53,4,1,1.3662544000017078,['c'],0,right,['3'],3,0.4845503999986249,0.1,0,AccFast,31,18,Woman,Right,
54,4,1,1.3012150999984442,['n'],1,right,['3'],3,1.2178811000012502,0.1,0,AccFast,31,18,Woman,Right,
55,4,1,1.1166463000008662,['c'],0,right,['8'],4,1.0682296000013594,0.1,0,AccFast,31,18,Woman,Right,
56,4,1,1.4000942000002397,['c'],1,left,['8'],4,0.30150160000084725,0.2,0,AccFast,31,18,Woman,Right,
57,4,1,1.5008803000000626,['n'],0,left,['3'],3,0.7013466000007611,0.2,0,AccFast,31,18,Woman,Right,
58,4,1,1.9322111999990739,['n'],1,right,['3'],3,0.20191650000015215,0.1,0,AccFast,31,18,Woman,Right,
59,4,1,1.1835608999990654,['c'],1,left,['8'],4,0.4523885999988124,0.1,0,AccFast,31,18,Woman,Right,
0,5,1,1.2339587999995274,['c'],0,right,['8'],4,1.3176000000003114,0.2,0,AccAcc,31,18,Woman,Right,
1,5,1,2.4990649000010308,['n'],1,right,['8'],4,0.9680958999997529,0.1,0,AccAcc,31,18,Woman,Right,
2,5,1,0.9676779999990686,['c'],1,left,['9'],5,1.6511561000006623,0.2,0,AccAcc,31,18,Woman,Right,
3,5,1,3.1484376000007614,['c'],0,right,['3'],3,1.9344946000001073,0.2,0,AccAcc,31,18,Woman,Right,
4,5,1,1.8001260000000912,['c'],0,right,['9'],5,1.3496240000004036,0.4,0,AccAcc,31,18,Woman,Right,
5,5,1,1.7667170999993687,['c'],1,left,['9'],5,1.2844105000003765,0.1,0,AccAcc,31,18,Woman,Right,
6,5,1,1.915791100000206,['c'],0,right,['8'],4,1.3333388999999443,0.2,0,AccAcc,31,18,Woman,Right,
7,5,1,1.6662510000005568,['c'],0,right,['9'],5,1.0012704000000667,0.4,0,AccAcc,31,18,Woman,Right,
8,5,1,1.0666126000014629,['c'],1,left,['9'],5,1.8522783999997046,0.1,0,AccAcc,31,18,Woman,Right,
9,5,1,1.448270599999887,['c'],1,left,['8'],4,2.4851012999988598,0.4,0,AccAcc,31,18,Woman,Right,
10,5,1,3.949937699999282,['n'],1,right,['8'],4,2.0181580999997095,0.2,0,AccAcc,31,18,Woman,Right,
11,5,1,0.9005875000002561,['c'],1,left,['9'],5,0.651879299999564,0.2,0,AccAcc,31,18,Woman,Right,
12,5,1,2.0829166999992594,['c'],1,left,['9'],5,2.367741300000489,0.2,0,AccAcc,31,18,Woman,Right,
13,5,1,2.7485655000000406,['n'],1,right,['8'],4,1.319208400000207,0.1,0,AccAcc,31,18,Woman,Right,
14,5,1,2.948607499998616,['c'],0,right,['8'],4,1.7523442000001523,0.1,0,AccAcc,31,18,Woman,Right,
15,5,1,1.5001453000004403,['n'],1,right,['9'],5,1.1013232999994216,0.4,0,AccAcc,31,18,Woman,Right,
16,5,1,1.8484683999995468,['c'],1,left,['8'],4,3.118661599999541,0.2,0,AccAcc,31,18,Woman,Right,
17,5,1,2.0331581000009464,['n'],1,right,['9'],5,0.6834873000007065,0.1,0,AccAcc,31,18,Woman,Right,
18,5,1,3.899891999999454,['c'],0,right,none,-99,-99,0.1,1,AccAcc,31,18,Woman,Right,
19,5,1,1.6837297999991279,['n'],1,right,['9'],5,0.9334772999991401,0.2,0,AccAcc,31,18,Woman,Right,
20,5,1,1.650488299999779,['n'],0,left,['9'],5,0.950784399999975,0.1,0,AccAcc,31,18,Woman,Right,
21,5,1,2.0003557,['n'],0,left,['9'],5,2.117649599998913,0.4,0,AccAcc,31,18,Woman,Right,
22,5,1,1.9834442999999737,['c'],1,left,['8'],4,0.9509130000005825,0.4,0,AccAcc,31,18,Woman,Right,
23,5,1,2.3326917000013054,['c'],1,left,['8'],4,1.0677623000010499,0.2,0,AccAcc,31,18,Woman,Right,
24,5,1,1.7824271000008594,['n'],1,right,['9'],5,1.4346494000001258,0.1,0,AccAcc,31,18,Woman,Right,
25,5,1,1.4331122000003234,['c'],0,right,['2'],2,1.3013697999995202,0.2,0,AccAcc,31,18,Woman,Right,
26,5,1,1.9343195999990712,['n'],0,left,['8'],4,1.151212700000542,0.4,0,AccAcc,31,18,Woman,Right,
27,5,1,1.5673313000006601,['n'],1,right,['8'],4,0.7680373999992298,0.1,0,AccAcc,31,18,Woman,Right,
28,5,1,0.8989711000012903,['c'],1,left,['8'],4,1.0844402000002447,0.2,0,AccAcc,31,18,Woman,Right,
29,5,1,1.8324272999998357,['n'],0,left,['3'],3,1.7679481999985,0.1,0,AccAcc,31,18,Woman,Right,
30,5,1,1.5830313000005845,['c'],1,left,['8'],4,1.151474499998585,0.4,0,AccAcc,31,18,Woman,Right,
31,5,1,1.5173475999999937,['n'],1,right,['8'],4,0.551458800000546,0.4,0,AccAcc,31,18,Woman,Right,
32,5,1,3.432650400000057,['n'],0,left,['3'],3,0.6678451000007044,0.4,0,AccAcc,31,18,Woman,Right,
33,5,1,3.0835194999999658,['c'],1,left,['3'],3,0.8680563999987498,0.1,0,AccAcc,31,18,Woman,Right,
34,5,1,1.7338477999983297,['n'],0,left,['8'],4,1.1185083000000304,0.4,0,AccAcc,31,18,Woman,Right,
35,5,1,2.4488201000003755,['n'],1,right,['8'],4,0.767570899999555,0.4,0,AccAcc,31,18,Woman,Right,
36,5,1,2.350725099999181,['c'],0,right,['3'],3,1.533908800000063,0.2,0,AccAcc,31,18,Woman,Right,
37,5,1,2.867039199998544,['n'],1,right,['2'],2,0.8662905000001047,0.2,0,AccAcc,31,18,Woman,Right,
38,5,1,3.8509227000013198,['c'],1,left,['2'],2,1.0011070000000473,0.2,0,AccAcc,31,18,Woman,Right,
39,5,1,2.9663114000013593,['c'],0,right,['8'],4,1.617281400000138,0.2,0,AccAcc,31,18,Woman,Right,
40,5,1,1.4330463000005693,['c'],1,left,['9'],5,1.9182022999993933,0.4,0,AccAcc,31,18,Woman,Right,
41,5,1,3.4833772000001773,['c'],0,right,['0'],6,1.533065000001443,0.4,0,AccAcc,31,18,Woman,Right,
42,5,1,3.1344079000009515,['c'],0,right,['9'],5,1.417165599999862,0.4,0,AccAcc,31,18,Woman,Right,
43,5,1,3.2329910999997082,['c'],1,left,['9'],5,1.4014298000001872,0.4,0,AccAcc,31,18,Woman,Right,
44,5,1,4.84879280000132,['c'],0,right,['3'],3,2.335539899999276,0.4,0,AccAcc,31,18,Woman,Right,
45,5,1,2.7167307999989134,['c'],0,right,['8'],4,1.7521869000011066,0.1,0,AccAcc,31,18,Woman,Right,
46,5,1,3.468073199999708,['c'],0,right,['9'],5,0.7675407999995514,0.4,0,AccAcc,31,18,Woman,Right,
47,5,1,2.834313299999849,['n'],0,left,['8'],4,1.5346071999993,0.1,0,AccAcc,31,18,Woman,Right,
48,5,1,2.63416959999995,['n'],0,left,['8'],4,1.166654100001324,0.4,0,AccAcc,31,18,Woman,Right,
49,5,1,2.3847067000006064,['n'],0,left,['8'],4,0.7012988999995287,0.2,0,AccAcc,31,18,Woman,Right,
50,5,1,3.183373900001243,['n'],1,right,['8'],4,0.6835893000006763,0.1,0,AccAcc,31,18,Woman,Right,
51,5,1,2.6841223999999784,['n'],0,left,['8'],4,0.4338177999998152,0.1,0,AccAcc,31,18,Woman,Right,
52,5,1,2.1990253999993,['c'],0,right,['3'],3,0.9517856000002212,0.4,0,AccAcc,31,18,Woman,Right,
53,5,1,2.3343356999994285,['n'],0,left,['3'],3,0.9659635999996681,0.1,0,AccAcc,31,18,Woman,Right,
54,5,1,3.6675037999993947,['n'],0,left,['8'],4,1.31604249999873,0.1,0,AccAcc,31,18,Woman,Right,
55,5,1,3.149622499999168,['n'],1,right,['8'],4,0.634680399998615,0.1,0,AccAcc,31,18,Woman,Right,
56,5,1,1.5682441999997536,['c'],1,left,['8'],4,0.9011607000011281,0.1,0,AccAcc,31,18,Woman,Right,
57,5,1,2.9837262999990344,['c'],0,right,['8'],4,1.5006423000013456,0.2,0,AccAcc,31,18,Woman,Right,
58,5,1,2.499892699999691,['n'],0,left,['9'],5,1.301483899998857,0.2,0,AccAcc,31,18,Woman,Right,
59,5,1,3.100111300000208,['c'],1,left,['9'],5,0.6679492000002938,0.2,0,AccAcc,31,18,Woman,Right,
0,6,1,1.0004097999990336,['c'],0,right,['8'],4,2.667053600000145,0.2,0,FastAcc,31,18,Woman,Right,
1,6,1,0.951236400000198,['n'],1,right,['2'],2,1.018811400001141,0.4,0,FastAcc,31,18,Woman,Right,
2,6,1,0.9490714000003209,['c'],1,left,['9'],5,2.0011584000003495,0.4,0,FastAcc,31,18,Woman,Right,
3,6,1,0.8156891999988147,['c'],1,left,['9'],5,4.033481799999208,0.4,0,FastAcc,31,18,Woman,Right,
4,6,1,0.6347991000002366,['n'],1,right,['8'],4,1.2004966999993485,0.4,0,FastAcc,31,18,Woman,Right,
5,6,1,0.6830035999992106,['c'],1,left,['9'],5,0.9670415999989928,0.4,0,FastAcc,31,18,Woman,Right,
6,6,1,1.4507823000003555,['n'],1,right,['8'],4,1.3344015999991825,0.1,0,FastAcc,31,18,Woman,Right,
7,6,1,0.7170270000005985,['c'],1,left,['9'],5,0.6335792000008951,0.4,0,FastAcc,31,18,Woman,Right,
8,6,1,1.1337821999986772,['n'],1,right,['9'],5,1.5013032000006206,0.2,0,FastAcc,31,18,Woman,Right,
9,6,1,0.9507057999999233,['n'],1,right,['3'],3,1.4511542999989615,0.2,0,FastAcc,31,18,Woman,Right,
10,6,1,0.7340175999997882,['n'],0,left,['2'],2,1.3344035999998596,0.1,0,FastAcc,31,18,Woman,Right,
11,6,1,1.6824450999993132,['n'],0,left,['9'],5,2.1008538999994926,0.1,0,FastAcc,31,18,Woman,Right,
12,6,1,1.2342163000012079,['c'],1,left,['8'],4,0.8331137999994098,0.2,0,FastAcc,31,18,Woman,Right,
13,6,1,1.016536899998755,['n'],1,right,['9'],5,1.067644200000359,0.1,0,FastAcc,31,18,Woman,Right,
14,6,1,2.267296300000453,['n'],1,right,['8'],4,1.3836409999985335,0.1,0,FastAcc,31,18,Woman,Right,
15,6,1,1.2663177999984327,['c'],0,right,['8'],4,1.233837499999936,0.1,0,FastAcc,31,18,Woman,Right,
16,6,1,0.6337963999994827,['n'],1,right,['8'],4,0.8679933000003075,0.2,0,FastAcc,31,18,Woman,Right,
17,6,1,0.916965500000515,['c'],1,left,['9'],5,1.0677924000010535,0.1,0,FastAcc,31,18,Woman,Right,
18,6,1,0.9503856000010273,['c'],0,right,['9'],5,1.134327800000392,0.1,0,FastAcc,31,18,Woman,Right,
19,6,1,1.4339885999997932,['n'],0,left,['3'],3,1.5679732999997213,0.4,0,FastAcc,31,18,Woman,Right,
20,6,1,0.9841505000003963,['c'],0,right,['9'],5,1.0334122000003845,0.2,0,FastAcc,31,18,Woman,Right,
21,6,1,1.183919799999785,['n'],0,left,['8'],4,1.0341274000002159,0.1,0,FastAcc,31,18,Woman,Right,
22,6,1,1.050415099998645,['c'],0,right,['8'],4,0.934858600001462,0.1,0,FastAcc,31,18,Woman,Right,
23,6,1,1.032855000001291,['c'],1,left,['9'],5,0.9516668999985995,0.4,0,FastAcc,31,18,Woman,Right,
24,6,1,1.35028500000044,['n'],0,left,['2'],2,1.1846104999985982,0.1,0,FastAcc,31,18,Woman,Right,
25,6,1,1.5335572000003594,['n'],0,left,['3'],3,1.418270100000882,0.1,0,FastAcc,31,18,Woman,Right,
26,6,1,1.5998588999991625,['c'],1,left,['8'],4,0.7843083000007027,0.2,0,FastAcc,31,18,Woman,Right,
27,6,1,0.8335422000000108,['n'],1,right,['9'],5,1.3180825999988883,0.4,0,FastAcc,31,18,Woman,Right,
28,6,1,1.2341438999992533,['c'],0,right,['9'],5,1.1179169999995793,0.4,0,FastAcc,31,18,Woman,Right,
29,6,1,1.450424099999509,['c'],1,left,['8'],4,1.501320699999269,0.2,0,FastAcc,31,18,Woman,Right,
30,6,1,0.7837034999993193,['n'],1,right,['8'],4,3.068139200000587,0.2,0,FastAcc,31,18,Woman,Right,
31,6,1,1.1499850000000151,['c'],0,right,['8'],4,0.6845225000015489,0.4,0,FastAcc,31,18,Woman,Right,
32,6,1,1.0834919000008085,['n'],0,left,['2'],2,1.000645899999654,0.2,0,FastAcc,31,18,Woman,Right,
33,6,1,1.3342685000006895,['c'],0,right,['8'],4,0.8518375000003289,0.4,0,FastAcc,31,18,Woman,Right,
34,6,1,1.367676300000312,['n'],0,left,['2'],2,1.3500409999996918,0.1,0,FastAcc,31,18,Woman,Right,
35,6,1,0.9325231000002532,['c'],0,right,['8'],4,1.3010214000005362,0.2,0,FastAcc,31,18,Woman,Right,
36,6,1,1.6662895999998,['n'],1,right,['8'],4,0.9507131999998819,0.4,0,FastAcc,31,18,Woman,Right,
37,6,1,1.4002032000007603,['c'],1,left,['9'],5,3.100354600001083,0.4,0,FastAcc,31,18,Woman,Right,
38,6,1,1.0003642000010586,['c'],1,left,['8'],4,1.3514599000009184,0.2,0,FastAcc,31,18,Woman,Right,
39,6,1,1.2342148000007,['c'],0,right,['8'],4,0.8847152999987884,0.2,0,FastAcc,31,18,Woman,Right,
40,6,1,2.398541499998828,['c'],1,left,['8'],4,1.8181254000010085,0.4,0,FastAcc,31,18,Woman,Right,
41,6,1,1.3996806000013748,['c'],1,left,['9'],5,1.9841644000007364,0.1,0,FastAcc,31,18,Woman,Right,
42,6,1,2.233837899999344,['n'],0,left,['8'],4,0.9503828999986581,0.2,0,FastAcc,31,18,Woman,Right,
43,6,1,1.8837478000004921,['n'],1,right,['9'],5,2.65104539999993,0.2,0,FastAcc,31,18,Woman,Right,
44,6,1,2.7169141999984276,['n'],1,right,['8'],4,0.8844628000006196,0.1,0,FastAcc,31,18,Woman,Right,
45,6,1,1.567077400000926,['n'],0,left,['8'],4,1.78463229999943,0.1,0,FastAcc,31,18,Woman,Right,
46,6,1,1.8677956999999878,['c'],1,left,['9'],5,1.201628900000287,0.1,0,FastAcc,31,18,Woman,Right,
47,6,1,1.449649700000009,['c'],1,left,['8'],4,1.0836252999997669,0.4,0,FastAcc,31,18,Woman,Right,
48,6,1,1.2324310000003607,['n'],1,right,['8'],4,0.4682658999990963,0.1,0,FastAcc,31,18,Woman,Right,
49,6,1,2.2169268999987253,['n'],1,right,['8'],4,0.23469570000088424,0.2,0,FastAcc,31,18,Woman,Right,
50,6,1,1.0500887999987754,['c'],0,right,['3'],3,2.3510927999996056,0.1,0,FastAcc,31,18,Woman,Right,
51,6,1,0.666338299999552,['c'],1,left,['8'],4,3.0179494000003615,0.2,0,FastAcc,31,18,Woman,Right,
52,6,1,0.7169736000014382,['c'],1,left,['8'],4,1.7846497999998974,0.4,0,FastAcc,31,18,Woman,Right,
53,6,1,0.7336845999998332,['n'],1,right,['8'],4,4.982860399999481,0.4,0,FastAcc,31,18,Woman,Right,
54,6,1,0.8338064999989001,['c'],0,right,['9'],5,1.0512627999996766,0.2,0,FastAcc,31,18,Woman,Right,
55,6,1,0.8830087000005733,['c'],1,left,['9'],5,0.817063300000882,0.4,0,FastAcc,31,18,Woman,Right,
56,6,1,1.1499557999995886,['n'],0,left,['8'],4,1.2343190999999933,0.2,0,FastAcc,31,18,Woman,Right,
57,6,1,1.0827439999993658,['c'],1,left,['3'],3,1.2353330000005371,0.4,0,FastAcc,31,18,Woman,Right,
58,6,1,0.6496705999998085,['n'],1,right,['8'],4,1.2162076000004163,0.2,0,FastAcc,31,18,Woman,Right,
59,6,1,1.1011643999991065,['n'],1,right,['8'],4,0.7516444999982923,0.1,0,FastAcc,31,18,Woman,Right,
0,7,1,0.7332715999982611,['n'],0,left,['8'],4,0.3518320999992284,0.1,0,FastFast,31,18,Woman,Right,
1,7,1,0.5326022999997804,['c'],1,left,['8'],4,0.4177906000004441,0.2,0,FastFast,31,18,Woman,Right,
2,7,1,0.867523999999321,['c'],1,left,['3'],3,0.6500283000004856,0.4,0,FastFast,31,18,Woman,Right,
3,7,1,0.9162267000010615,['n'],0,left,['8'],4,0.7347790999992867,0.4,0,FastFast,31,18,Woman,Right,
4,7,1,0.6018609000002471,['c'],1,left,['2'],2,1.3014195000014297,0.2,0,FastFast,31,18,Woman,Right,
5,7,1,1.383013500000743,['c'],1,left,['3'],3,0.6181068000005325,0.2,0,FastFast,31,18,Woman,Right,
6,7,1,0.91611439999906,['n'],0,left,['8'],4,0.5346294000009948,0.2,0,FastFast,31,18,Woman,Right,
7,7,1,1.200788600001033,['n'],0,left,['8'],4,0.23449989999971876,0.2,0,FastFast,31,18,Woman,Right,
8,7,1,0.8992034000002604,['n'],1,right,['8'],4,0.35089110000080836,0.2,0,FastFast,31,18,Woman,Right,
9,7,1,0.8322919000002003,['n'],0,left,['8'],4,0.5520027000002301,0.2,0,FastFast,31,18,Woman,Right,
10,7,1,1.0508993000003102,['c'],1,left,['2'],2,0.951753600000302,0.1,0,FastFast,31,18,Woman,Right,
11,7,1,1.3335850999992545,['n'],1,right,['9'],5,0.6679772999996203,0.4,0,FastFast,31,18,Woman,Right,
12,7,1,0.8002161999993405,['n'],1,right,['9'],5,0.36785149999923306,0.2,0,FastFast,31,18,Woman,Right,
13,7,1,1.517223400000148,['n'],1,right,['8'],4,0.5344916000012745,0.1,0,FastFast,31,18,Woman,Right,
14,7,1,1.234370600001057,['n'],1,right,['8'],4,0.43444019999878947,0.1,0,FastFast,31,18,Woman,Right,
15,7,1,1.716491799999858,['n'],0,left,['8'],4,0.2677063999999518,0.2,0,FastFast,31,18,Woman,Right,
16,7,1,1.6166694999992615,['n'],1,right,['3'],3,1.2499548999985564,0.4,0,FastFast,31,18,Woman,Right,
17,7,1,1.40121949999957,['n'],1,right,['8'],4,0.6167311999997764,0.2,0,FastFast,31,18,Woman,Right,
18,7,1,3.184628099999827,['c'],1,left,['9'],5,2.5175989999988815,0.1,0,FastFast,31,18,Woman,Right,
19,7,1,2.1495586000000912,['n'],1,right,['8'],4,1.7328956000001199,0.4,0,FastFast,31,18,Woman,Right,
20,7,1,2.2515233000012813,['c'],1,left,['8'],4,0.5666722000005393,0.4,0,FastFast,31,18,Woman,Right,
21,7,1,1.1996741000002658,['n'],0,left,['3'],3,1.1855641999991349,0.1,0,FastFast,31,18,Woman,Right,
22,7,1,2.116910900000221,['c'],0,right,['8'],4,0.8520497999998042,0.2,0,FastFast,31,18,Woman,Right,
23,7,1,1.2159360000005108,['c'],1,left,['9'],5,0.9516898000001675,0.4,0,FastFast,31,18,Woman,Right,
24,7,1,1.4833818000006431,['n'],0,left,['8'],4,0.30126149999887275,0.1,0,FastFast,31,18,Woman,Right,
25,7,1,2.4833235000005516,['c'],1,left,['9'],5,0.9347424000006868,0.1,0,FastFast,31,18,Woman,Right,
26,7,1,1.6001779999987775,['c'],0,right,['8'],4,0.9845128000015393,0.1,0,FastFast,31,18,Woman,Right,
27,7,1,1.5837085000002844,['n'],1,right,['8'],4,0.5177091999994445,0.1,0,FastFast,31,18,Woman,Right,
28,7,1,1.7841296000005968,['n'],1,right,['8'],4,0.4494747999997344,0.2,0,FastFast,31,18,Woman,Right,
29,7,1,2.151948099999572,['n'],1,right,['9'],5,0.7017135999994935,0.4,0,FastFast,31,18,Woman,Right,
30,7,1,2.1323623999996926,['c'],1,left,['3'],3,0.6354900999995152,0.2,0,FastFast,31,18,Woman,Right,
31,7,1,1.0325401999998576,['n'],1,right,['8'],4,0.26755039999989094,0.4,0,FastFast,31,18,Woman,Right,
32,7,1,1.4339708000006794,['c'],0,right,['9'],5,0.21680600000036065,0.1,0,FastFast,31,18,Woman,Right,
33,7,1,1.9174793000001955,['c'],1,left,['8'],4,0.3514273000000685,0.2,0,FastFast,31,18,Woman,Right,
34,7,1,1.3502759000002698,['n'],0,left,['8'],4,0.5179031000006944,0.2,0,FastFast,31,18,Woman,Right,
35,7,1,1.7656396000002132,['n'],0,left,['8'],4,0.45204849999936414,0.1,0,FastFast,31,18,Woman,Right,
36,7,1,0.8327427000003809,['c'],1,left,['9'],5,0.7176171999999497,0.4,0,FastFast,31,18,Woman,Right,
37,7,1,1.9013832999989972,['c'],0,right,['9'],5,0.651612000001478,0.4,0,FastFast,31,18,Woman,Right,
38,7,1,3.998588899999959,['c'],0,right,['8'],4,0.6353171000009752,0.1,0,FastFast,31,18,Woman,Right,
39,7,1,1.867730300000403,['n'],1,right,['9'],5,0.9513724999997066,0.2,0,FastFast,31,18,Woman,Right,
40,7,1,1.2682406000003539,['c'],1,left,['9'],5,0.8009524999997666,0.2,0,FastFast,31,18,Woman,Right,
41,7,1,1.4496266999994987,['n'],1,right,['8'],4,0.734632400000919,0.1,0,FastFast,31,18,Woman,Right,
42,7,1,2.400415100000828,['c'],0,right,['3'],3,0.8019633000003523,0.1,0,FastFast,31,18,Woman,Right,
43,7,1,1.550674699999945,['n'],1,right,['8'],4,0.6346326000002591,0.1,0,FastFast,31,18,Woman,Right,
44,7,1,1.150545799999236,['n'],1,right,['8'],4,0.4848067999992054,0.4,0,FastFast,31,18,Woman,Right,
45,7,1,0.6347987999997713,['n'],1,right,['8'],4,0.46626760000071954,0.4,0,FastFast,31,18,Woman,Right,
46,7,1,0.635112100000697,['c'],0,right,['9'],5,0.3514407000002393,0.1,0,FastFast,31,18,Woman,Right,
47,7,1,0.983432899998661,['c'],1,left,['8'],4,0.5845752000004723,0.2,0,FastFast,31,18,Woman,Right,
48,7,1,1.6667342000000644,['c'],1,left,['9'],5,0.9010754999999335,0.2,0,FastFast,31,18,Woman,Right,
49,7,1,1.6677701999997225,['c'],0,right,['8'],4,0.5667862000009336,0.1,0,FastFast,31,18,Woman,Right,
50,7,1,1.300435600000128,['c'],1,left,['9'],5,0.6508561999999074,0.4,0,FastFast,31,18,Woman,Right,
51,7,1,1.3168836000004376,['n'],1,right,['9'],5,1.0847254999989673,0.4,0,FastFast,31,18,Woman,Right,
52,7,1,1.8502418999996735,['c'],0,right,['8'],4,0.3011396000001696,0.4,0,FastFast,31,18,Woman,Right,
53,7,1,1.5652611000004981,['n'],1,right,['9'],5,0.7014238000010664,0.2,0,FastFast,31,18,Woman,Right,
54,7,1,1.1505203999986406,['c'],0,right,['8'],4,0.3005443000001833,0.1,0,FastFast,31,18,Woman,Right,
55,7,1,1.066759599998477,['n'],1,right,['8'],4,0.31685859999925015,0.1,0,FastFast,31,18,Woman,Right,
56,7,1,0.8673789000004035,['c'],1,left,['9'],5,0.2328880000004574,0.4,0,FastFast,31,18,Woman,Right,
57,7,1,0.9846495000001596,['n'],0,left,['9'],5,0.38361169999916456,0.4,0,FastFast,31,18,Woman,Right,
58,7,1,1.3839893999993365,['c'],1,left,['8'],4,0.25140559999999823,0.4,0,FastFast,31,18,Woman,Right,
59,7,1,2.0661285999995016,['n'],0,left,['9'],5,0.8518684000009671,0.4,0,FastFast,31,18,Woman,Right,
0,8,1,4.117457100001047,['n'],0,left,['8'],4,0.23361949999889475,0.2,0,AccFast,31,18,Woman,Right,
1,8,1,2.0657412000000477,['n'],1,right,['8'],4,0.551451299999826,0.2,0,AccFast,31,18,Woman,Right,
2,8,1,1.201143599999341,['c'],0,right,['9'],5,0.5680959999990591,0.2,0,AccFast,31,18,Woman,Right,
3,8,1,1.5336131999993086,['n'],1,right,['8'],4,0.3667233000014676,0.2,0,AccFast,31,18,Woman,Right,
4,8,1,1.7492781000000832,['n'],1,right,['8'],4,0.2683880999993562,0.1,0,AccFast,31,18,Woman,Right,
5,8,1,2.200988200000211,['n'],0,left,['9'],5,0.5997160999995685,0.1,0,AccFast,31,18,Woman,Right,
6,8,1,2.0018823000009434,['n'],0,left,['9'],5,0.7010275000011461,0.1,0,AccFast,31,18,Woman,Right,
7,8,1,1.5168469000000186,['n'],1,right,['8'],4,0.6680510999995022,0.2,0,AccFast,31,18,Woman,Right,
8,8,1,1.2668857000007847,['c'],1,left,['8'],4,0.21783050000158255,0.2,0,AccFast,31,18,Woman,Right,
9,8,1,0.9169901999994181,['n'],1,right,['8'],4,0.40102610000030836,0.1,0,AccFast,31,18,Woman,Right,
10,8,1,0.6671992000010505,['n'],1,right,['9'],5,0.3526517000009335,0.2,0,AccFast,31,18,Woman,Right,
11,8,1,1.0165106000004016,['n'],1,right,['8'],4,0.4176584000015282,0.4,0,AccFast,31,18,Woman,Right,
12,8,1,0.7178380000004836,['c'],1,left,['8'],4,0.5178796999989572,0.4,0,AccFast,31,18,Woman,Right,
13,8,1,0.8337603999989369,['c'],1,left,['8'],4,0.4346136000003753,0.4,0,AccFast,31,18,Woman,Right,
14,8,1,1.6334167000004527,['c'],1,left,['8'],4,0.43450339999981225,0.4,0,AccFast,31,18,Woman,Right,
15,8,1,1.5665597999995953,['n'],1,right,['9'],5,0.6019716999999218,0.2,0,AccFast,31,18,Woman,Right,
16,8,1,1.9670294999996258,['c'],0,right,['3'],3,0.40122190000147384,0.1,0,AccFast,31,18,Woman,Right,
17,8,1,2.1011570999999094,['n'],1,right,['8'],4,0.4348960999996052,0.4,0,AccFast,31,18,Woman,Right,
18,8,1,1.4323628000001918,['c'],1,left,['9'],5,0.33570919999874604,0.4,0,AccFast,31,18,Woman,Right,
19,8,1,2.21688979999999,['n'],0,left,['8'],4,0.4680441999989853,0.2,0,AccFast,31,18,Woman,Right,
20,8,1,1.8337826000006316,['c'],0,right,['8'],4,1.7686862999998993,0.4,0,AccFast,31,18,Woman,Right,
21,8,1,1.0846239000002242,['c'],0,right,['8'],4,0.30111960000067484,0.1,0,AccFast,31,18,Woman,Right,
22,8,1,1.8652941999989707,['c'],1,left,['3'],3,0.318747400000575,0.2,0,AccFast,31,18,Woman,Right,
23,8,1,1.9497969999993074,['n'],0,left,['3'],3,0.26905060000171943,0.2,0,AccFast,31,18,Woman,Right,
24,8,1,1.4169972999989113,['c'],1,left,['8'],4,0.25149100000089675,0.1,0,AccFast,31,18,Woman,Right,
25,8,1,1.6668761999990238,['c'],1,left,['8'],4,0.30175749999943946,0.1,0,AccFast,31,18,Woman,Right,
26,8,1,1.1002837000014551,['n'],1,right,['9'],5,0.33447589999923366,0.4,0,AccFast,31,18,Woman,Right,
27,8,1,0.9840261000008468,['c'],1,left,['9'],5,0.28288570000040636,0.4,0,AccFast,31,18,Woman,Right,
28,8,1,1.684288899999956,['n'],1,right,['9'],5,0.4015006000008725,0.1,0,AccFast,31,18,Woman,Right,
29,8,1,1.167433799999344,['c'],1,left,['8'],4,0.35055110000030254,0.4,0,AccFast,31,18,Woman,Right,
30,8,1,1.5837273999986792,['n'],0,left,['8'],4,0.26815719999831344,0.2,0,AccFast,31,18,Woman,Right,
31,8,1,1.5484611000010773,['c'],0,right,['8'],4,0.3338972000001377,0.2,0,AccFast,31,18,Woman,Right,
32,8,1,1.367200699998648,['n'],1,right,['3'],3,0.7012983999993594,0.4,0,AccFast,31,18,Woman,Right,
33,8,1,1.1835214000002452,['n'],1,right,['3'],3,0.3012831999985792,0.1,0,AccFast,31,18,Woman,Right,
34,8,1,1.43319849999898,['c'],1,left,['8'],4,0.7676618999994389,0.4,0,AccFast,31,18,Woman,Right,
35,8,1,1.3825206000001344,['n'],1,right,['9'],5,0.48501870000109193,0.1,0,AccFast,31,18,Woman,Right,
36,8,1,2.650039200001629,['c'],1,left,['8'],4,1.300307100000282,0.2,0,AccFast,31,18,Woman,Right,
37,8,1,1.550830299998779,['n'],1,right,['9'],5,0.7847968000005494,0.4,0,AccFast,31,18,Woman,Right,
38,8,1,1.6001691999990726,['n'],1,right,['9'],5,0.6340586999995139,0.2,0,AccFast,31,18,Woman,Right,
39,8,1,1.2164195999994263,['n'],1,right,['9'],5,0.33430979999866395,0.1,0,AccFast,31,18,Woman,Right,
40,8,1,1.832944800000405,['c'],0,right,['8'],4,0.5666363000000274,0.1,0,AccFast,31,18,Woman,Right,
41,8,1,2.817508699999962,['n'],1,right,['8'],4,0.6835193999995681,0.1,0,AccFast,31,18,Woman,Right,
42,8,1,3.6834182999991754,['n'],0,left,['3'],3,0.2845656000008603,0.1,0,AccFast,31,18,Woman,Right,
43,8,1,1.717691100000593,['n'],1,right,['8'],4,0.28479019999940647,0.4,0,AccFast,31,18,Woman,Right,
44,8,1,2.416580099999919,['n'],1,right,['8'],4,0.23376329999882728,0.1,0,AccFast,31,18,Woman,Right,
45,8,1,1.8663112000012916,['c'],1,left,['8'],4,0.3168345000012778,0.1,0,AccFast,31,18,Woman,Right,
46,8,1,1.1337953999991441,['n'],1,right,['9'],5,0.3001942999999301,0.1,0,AccFast,31,18,Woman,Right,
47,8,1,1.0518185999990237,['c'],1,left,['9'],5,0.267932099999598,0.4,0,AccFast,31,18,Woman,Right,
48,8,1,1.2331921999993938,['n'],1,right,['9'],5,0.31802609999976994,0.2,0,AccFast,31,18,Woman,Right,
49,8,1,0.7824633999989601,['c'],1,left,['0'],6,0.5333346999996138,0.4,0,AccFast,31,18,Woman,Right,
50,8,1,1.7825114000006579,['c'],1,left,['0'],6,0.38415619999977935,0.4,0,AccFast,31,18,Woman,Right,
51,8,1,1.6841322999989643,['c'],1,left,['9'],5,0.5179047000001447,0.4,0,AccFast,31,18,Woman,Right,
52,8,1,1.783352599999489,['n'],1,right,['8'],4,0.7004971999995178,0.2,0,AccFast,31,18,Woman,Right,
53,8,1,1.4336475000000064,['c'],0,right,['8'],4,0.5012698999998975,0.1,0,AccFast,31,18,Woman,Right,
54,8,1,2.583027700000457,['c'],1,left,['8'],4,0.4849083999997674,0.2,0,AccFast,31,18,Woman,Right,
55,8,1,2.3837680999986333,['c'],1,left,['9'],5,0.21775370000068506,0.4,0,AccFast,31,18,Woman,Right,
56,8,1,2.1489392000003136,['n'],0,left,['8'],4,0.4838983999998163,0.2,0,AccFast,31,18,Woman,Right,
57,8,1,1.7994213000001764,['c'],1,left,['9'],5,0.2527570000002015,0.4,0,AccFast,31,18,Woman,Right,
58,8,1,2.6503247000000556,['n'],0,left,['9'],5,0.4335317999994004,0.2,0,AccFast,31,18,Woman,Right,
59,8,1,1.8163821999987704,['c'],1,left,['3'],3,0.36738899999909336,0.1,0,AccFast,31,18,Woman,Right,
0,9,1,3.3176965999991808,['n'],0,left,['8'],4,1.1011398999999074,0.2,0,AccAcc,31,18,Woman,Right,
1,9,1,2.165859200000341,['n'],1,right,['9'],5,0.48569530000168015,0.4,0,AccAcc,31,18,Woman,Right,
2,9,1,2.950162099999943,['n'],0,left,['9'],5,0.599531300000308,0.1,0,AccAcc,31,18,Woman,Right,
3,9,1,3.2516070999990916,['n'],1,right,['9'],5,0.8496068000004016,0.4,0,AccAcc,31,18,Woman,Right,
4,9,1,2.784985100000995,['c'],0,right,['8'],4,0.5845380000009754,0.4,0,AccAcc,31,18,Woman,Right,
5,9,1,1.6828848000004655,['n'],1,right,['8'],4,0.586078100001032,0.2,0,AccAcc,31,18,Woman,Right,
6,9,1,2.281280000001061,['n'],0,left,['9'],5,0.9841262999998435,0.1,0,AccAcc,31,18,Woman,Right,
7,9,1,2.7332561000002897,['c'],1,left,['9'],5,0.6020128000000113,0.1,0,AccAcc,31,18,Woman,Right,
8,9,1,0.9999772000010125,['n'],1,right,['9'],5,0.3683356999990792,0.4,0,AccAcc,31,18,Woman,Right,
9,9,1,2.199723499999891,['c'],1,left,['9'],5,0.5179398000000219,0.2,0,AccAcc,31,18,Woman,Right,
10,9,1,2.3820154999993974,['c'],0,right,['3'],3,0.4687064999998256,0.1,0,AccAcc,31,18,Woman,Right,
11,9,1,1.3507021000004897,['c'],1,left,['9'],5,0.40179560000069614,0.2,0,AccAcc,31,18,Woman,Right,
12,9,1,1.3327436999989004,['c'],1,left,['9'],5,0.4339994999991177,0.4,0,AccAcc,31,18,Woman,Right,
13,9,1,1.3848732999995264,['c'],1,left,['9'],5,0.66770329999963,0.4,0,AccAcc,31,18,Woman,Right,
14,9,1,1.1003903000000719,['n'],1,right,['9'],5,0.5508783000004769,0.4,0,AccAcc,31,18,Woman,Right,
15,9,1,2.349979799999346,['n'],1,right,['9'],5,0.38465890000043146,0.2,0,AccAcc,31,18,Woman,Right,
16,9,1,2.948509900001227,['c'],0,right,['8'],4,0.46736240000063844,0.2,0,AccAcc,31,18,Woman,Right,
17,9,1,1.5998659999986558,['n'],1,right,['8'],4,0.5177151999996568,0.1,0,AccAcc,31,18,Woman,Right,
18,9,1,1.8493393999997352,['c'],1,left,['3'],3,0.5669187999992573,0.2,0,AccAcc,31,18,Woman,Right,
19,9,1,2.035333300000275,['n'],1,right,['8'],4,0.36787900000126683,0.2,0,AccAcc,31,18,Woman,Right,
20,9,1,1.48259920000055,['n'],1,right,['9'],5,0.46822250000150234,0.1,0,AccAcc,31,18,Woman,Right,
21,9,1,1.0995095999987825,['n'],1,right,['8'],4,0.8843740000011167,0.4,0,AccAcc,31,18,Woman,Right,
22,9,1,1.8503990999997768,['c'],0,right,['8'],4,0.5180646000007982,0.1,0,AccAcc,31,18,Woman,Right,
23,9,1,1.6990447000007407,['c'],1,left,['9'],5,0.35173740000027465,0.4,0,AccAcc,31,18,Woman,Right,
24,9,1,1.433293699999922,['c'],0,right,['9'],5,0.3504063000000315,0.2,0,AccAcc,31,18,Woman,Right,
25,9,1,2.8005836000011186,['c'],1,left,['9'],5,0.8678657000000385,0.1,0,AccAcc,31,18,Woman,Right,
26,9,1,1.4991709999994782,['n'],1,right,['9'],5,0.9508323000009113,0.4,0,AccAcc,31,18,Woman,Right,
27,9,1,1.6328897999992478,['c'],1,left,['8'],4,0.7848441999994975,0.1,0,AccAcc,31,18,Woman,Right,
28,9,1,1.100414799999271,['n'],1,right,['9'],5,0.41826229999969655,0.2,0,AccAcc,31,18,Woman,Right,
29,9,1,1.9002275000002555,['n'],0,left,['9'],5,0.8022894999994605,0.1,0,AccAcc,31,18,Woman,Right,
30,9,1,2.2330237999995006,['n'],1,right,['9'],5,0.7181722000004811,0.2,0,AccAcc,31,18,Woman,Right,
31,9,1,2.768004800000199,['n'],1,right,['9'],5,0.43341010000040114,0.4,0,AccAcc,31,18,Woman,Right,
32,9,1,2.1502583000001323,['c'],1,left,['9'],5,0.5010672000007617,0.2,0,AccAcc,31,18,Woman,Right,
33,9,1,2.1658648000011453,['c'],1,left,['9'],5,0.3686569999990752,0.4,0,AccAcc,31,18,Woman,Right,
34,9,1,3.8509620999993786,['n'],0,left,['8'],4,1.2325495000004594,0.1,0,AccAcc,31,18,Woman,Right,
35,9,1,2.8182041000000027,['c'],1,left,['3'],3,0.918218099999649,0.2,0,AccAcc,31,18,Woman,Right,
36,9,1,4.617155799998727,['n'],0,left,['8'],4,0.5661445999994612,0.2,0,AccAcc,31,18,Woman,Right,
37,9,1,3.3511216999995668,['n'],0,left,['8'],4,0.5668418999994174,0.2,0,AccAcc,31,18,Woman,Right,
38,9,1,3.167290800000046,['c'],0,right,['8'],4,0.5347509000002901,0.2,0,AccAcc,31,18,Woman,Right,
39,9,1,1.2990585000006831,['c'],1,left,['9'],5,0.3021766000001662,0.4,0,AccAcc,31,18,Woman,Right,
40,9,1,1.2157749999987573,['n'],1,right,['9'],5,1.0177543000008882,0.4,0,AccAcc,31,18,Woman,Right,
41,9,1,2.0667900999997073,['n'],1,right,['9'],5,0.5012138999991294,0.1,0,AccAcc,31,18,Woman,Right,
42,9,1,2.048664900001313,['c'],1,left,['9'],5,0.518827699999747,0.1,0,AccAcc,31,18,Woman,Right,
43,9,1,2.1496508000000176,['c'],1,left,['9'],5,0.3680534999984957,0.4,0,AccAcc,31,18,Woman,Right,
44,9,1,2.350054700000328,['n'],0,left,['8'],4,0.533399100000679,0.4,0,AccAcc,31,18,Woman,Right,
45,9,1,1.4661328000001959,['c'],1,left,['8'],4,0.4346663999986049,0.2,0,AccAcc,31,18,Woman,Right,
46,9,1,2.683908099999826,['c'],1,left,['8'],4,0.4678103000005649,0.1,0,AccAcc,31,18,Woman,Right,
47,9,1,2.1668965999997454,['c'],1,left,['9'],5,0.5828531999995903,0.4,0,AccAcc,31,18,Woman,Right,
48,9,1,1.6837405000005674,['n'],1,right,['9'],5,0.633447399999568,0.1,0,AccAcc,31,18,Woman,Right,
49,9,1,2.0342022000004363,['n'],1,right,['9'],5,0.6000470999988465,0.4,0,AccAcc,31,18,Woman,Right,
50,9,1,3.8003201999999874,['n'],1,right,['9'],5,0.4514631999991252,0.1,0,AccAcc,31,18,Woman,Right,
51,9,1,2.266834399999425,['c'],1,left,['3'],3,0.5832989999998972,0.1,0,AccAcc,31,18,Woman,Right,
52,9,1,4.449307099999714,['c'],0,right,['2'],2,1.9836431999992783,0.4,0,AccAcc,31,18,Woman,Right,
53,9,1,1.7494821999989654,['n'],0,left,['9'],5,0.6345012999991013,0.4,0,AccAcc,31,18,Woman,Right,
54,9,1,2.5834469000001263,['n'],1,right,['3'],3,0.5510235999990982,0.1,0,AccAcc,31,18,Woman,Right,
55,9,1,1.5337725999997929,['c'],1,left,['8'],4,0.600020099998801,0.2,0,AccAcc,31,18,Woman,Right,
56,9,1,2.1841094000010344,['n'],0,left,['8'],4,0.4345673000007082,0.1,0,AccAcc,31,18,Woman,Right,
57,9,1,1.882459000000381,['n'],1,right,['8'],4,0.6517779999994673,0.1,0,AccAcc,31,18,Woman,Right,
58,9,1,2.7831514999998035,['n'],1,right,['8'],4,0.5167879999989964,0.2,0,AccAcc,31,18,Woman,Right,
59,9,1,2.383019900000363,['n'],1,right,['9'],5,0.4004010999997263,0.2,0,AccAcc,31,18,Woman,Right,
0,10,1,0.9345144999988406,['n'],1,right,['3'],3,1.934144599999854,0.1,0,FastAcc,31,18,Woman,Right,
1,10,1,0.9997070999997959,['c'],0,right,['8'],4,1.767948200000319,0.4,0,FastAcc,31,18,Woman,Right,
2,10,1,1.166559799999959,['n'],0,left,['8'],4,0.984483199999886,0.4,0,FastAcc,31,18,Woman,Right,
3,10,1,1.1662694999995438,['c'],1,left,['8'],4,0.4681448999999702,0.2,0,FastAcc,31,18,Woman,Right,
4,10,1,0.8829432000002271,['n'],0,left,['8'],4,0.5353661999997712,0.1,0,FastAcc,31,18,Woman,Right,
5,10,1,1.484450599999036,['c'],1,left,['8'],4,0.36836680000124034,0.4,0,FastAcc,31,18,Woman,Right,
6,10,1,1.1830792000000656,['n'],0,left,['9'],5,0.8677506000003632,0.2,0,FastAcc,31,18,Woman,Right,
7,10,1,0.8162234000010358,['n'],1,right,['9'],5,0.4353741999984777,0.2,0,FastAcc,31,18,Woman,Right,
8,10,1,1.4002639999998792,['c'],0,right,['3'],3,0.9680791999999201,0.1,0,FastAcc,31,18,Woman,Right,
9,10,1,1.484422399998948,['c'],1,left,['8'],4,3.5993947999995726,0.2,0,FastAcc,31,18,Woman,Right,
10,10,1,0.9493484000013268,['c'],1,left,['3'],3,0.835222600000634,0.1,0,FastAcc,31,18,Woman,Right,
11,10,1,1.4503023999986908,['n'],0,left,['3'],3,0.8182386999997107,0.2,0,FastAcc,31,18,Woman,Right,
12,10,1,0.9328067000005831,['c'],1,left,['8'],4,1.7845498000006046,0.1,0,FastAcc,31,18,Woman,Right,
13,10,1,0.7829476999995677,['c'],0,right,['8'],4,1.317775999999867,0.2,0,FastAcc,31,18,Woman,Right,
14,10,1,1.3002908999987994,['n'],0,left,['8'],4,1.0514094999998633,0.4,0,FastAcc,31,18,Woman,Right,
15,10,1,1.7833387999999104,['n'],0,left,['9'],5,0.5667425999999978,0.1,0,FastAcc,31,18,Woman,Right,
16,10,1,2.098993399999017,['c'],0,right,['8'],4,4.284844599998905,0.1,0,FastAcc,31,18,Woman,Right,
17,10,1,1.0341313000008086,['c'],1,left,['8'],4,0.5512844999993831,0.2,0,FastAcc,31,18,Woman,Right,
18,10,1,0.6835429000002478,['n'],1,right,['8'],4,0.5679261000004772,0.2,0,FastAcc,31,18,Woman,Right,
19,10,1,1.0338444999997591,['c'],0,right,['8'],4,0.6678660999987187,0.1,0,FastAcc,31,18,Woman,Right,
20,10,1,0.74931529999958,['n'],1,right,['9'],5,2.168491999998878,0.4,0,FastAcc,31,18,Woman,Right,
21,10,1,0.8819193999988784,['c'],0,right,['9'],5,1.084142100000463,0.1,0,FastAcc,31,18,Woman,Right,
22,10,1,1.667770300000484,['c'],1,left,['9'],5,0.5834863999989466,0.2,0,FastAcc,31,18,Woman,Right,
23,10,1,1.9174992000007478,['c'],0,right,['3'],3,4.600765200000751,0.4,0,FastAcc,31,18,Woman,Right,
24,10,1,1.4850947999984783,['c'],0,right,['9'],5,3.767461600000388,0.4,0,FastAcc,31,18,Woman,Right,
25,10,1,1.9829780999989453,['c'],1,left,['9'],5,3.5996266000001924,0.2,0,FastAcc,31,18,Woman,Right,
26,10,1,1.9999121000000741,['n'],1,right,['8'],4,1.0520433000001503,0.4,0,FastAcc,31,18,Woman,Right,
27,10,1,1.5329641999996966,['n'],1,right,['3'],3,1.234813100001702,0.1,0,FastAcc,31,18,Woman,Right,
28,10,1,1.4676011000010476,['c'],0,right,['8'],4,0.734743899998648,0.1,0,FastAcc,31,18,Woman,Right,
29,10,1,1.066146299999673,['c'],1,left,['8'],4,2.9676698000002943,0.2,0,FastAcc,31,18,Woman,Right,
30,10,1,0.7675992000004044,['n'],1,right,['9'],5,0.9507306999985303,0.1,0,FastAcc,31,18,Woman,Right,
31,10,1,1.4489236999997956,['c'],1,left,['8'],4,0.8675279999988561,0.1,0,FastAcc,31,18,Woman,Right,
32,10,1,1.0335530000011204,['n'],1,right,['9'],5,0.9685892999987118,0.4,0,FastAcc,31,18,Woman,Right,
33,10,1,1.066760300000169,['c'],1,left,['9'],5,1.8332676000009087,0.4,0,FastAcc,31,18,Woman,Right,
34,10,1,1.3676047999997536,['n'],0,left,['2'],2,1.3014660000008007,0.4,0,FastAcc,31,18,Woman,Right,
35,10,1,1.3657258000002912,['n'],1,right,['8'],4,2.4684336999998777,0.2,0,FastAcc,31,18,Woman,Right,
36,10,1,1.667137400001593,['c'],0,right,['9'],5,2.6015227000007144,0.1,0,FastAcc,31,18,Woman,Right,
37,10,1,1.5501180999999633,['c'],1,left,['9'],5,0.9346583000005921,0.1,0,FastAcc,31,18,Woman,Right,
38,10,1,1.4654900999994425,['n'],1,right,['9'],5,2.4007063999997627,0.4,0,FastAcc,31,18,Woman,Right,
39,10,1,1.250225900001169,['n'],1,right,['8'],4,2.1332704999986163,0.4,0,FastAcc,31,18,Woman,Right,
40,10,1,1.29984499999955,['n'],1,right,['8'],4,1.316640400000324,0.2,0,FastAcc,31,18,Woman,Right,
41,10,1,1.1846392000006745,['n'],1,right,['9'],5,1.2847963000003801,0.4,0,FastAcc,31,18,Woman,Right,
42,10,1,1.5670031999998173,['c'],1,left,['8'],4,1.4188672000000224,0.1,0,FastAcc,31,18,Woman,Right,
43,10,1,1.1823600999996415,['n'],1,right,['9'],5,1.768644800000402,0.1,0,FastAcc,31,18,Woman,Right,
44,10,1,1.2155349999993632,['c'],1,left,['9'],5,1.318405599999096,0.2,0,FastAcc,31,18,Woman,Right,
45,10,1,0.7671162000006007,['n'],0,left,['8'],4,1.966771500001414,0.1,0,FastAcc,31,18,Woman,Right,
46,10,1,1.667761500000779,['c'],1,left,['9'],5,2.467644199999995,0.1,0,FastAcc,31,18,Woman,Right,
47,10,1,0.7339589000002888,['c'],1,left,['8'],4,1.0677747999998246,0.2,0,FastAcc,31,18,Woman,Right,
48,10,1,1.268266200000653,['c'],0,right,['8'],4,0.9173875000014959,0.4,0,FastAcc,31,18,Woman,Right,
49,10,1,0.767373000000589,['n'],1,right,['9'],5,0.900572700000339,0.4,0,FastAcc,31,18,Woman,Right,
50,10,1,0.8002347000001464,['c'],1,left,['9'],5,1.1009489000007306,0.4,0,FastAcc,31,18,Woman,Right,
51,10,1,0.8158463999989181,['c'],1,left,['9'],5,0.652292300001136,0.4,0,FastAcc,31,18,Woman,Right,
52,10,1,0.9007168999996793,['n'],1,right,['8'],4,0.9346091000006709,0.2,0,FastAcc,31,18,Woman,Right,
53,10,1,0.9502996999999596,['n'],1,right,['9'],5,0.866854300000341,0.1,0,FastAcc,31,18,Woman,Right,
54,10,1,0.9180171999996674,['c'],1,left,['3'],3,1.3000140999993164,0.2,0,FastAcc,31,18,Woman,Right,
55,10,1,1.4843414000006305,['n'],1,right,['8'],4,1.8506791999989218,0.2,0,FastAcc,31,18,Woman,Right,
56,10,1,0.717133999998623,['c'],1,left,['9'],5,1.3832433999996283,0.4,0,FastAcc,31,18,Woman,Right,
57,10,1,0.7004290000004403,['c'],1,left,['2'],2,1.7504098000008526,0.2,0,FastAcc,31,18,Woman,Right,
58,10,1,0.9010232000000542,['n'],1,right,['8'],4,0.8180795000007492,0.2,0,FastAcc,31,18,Woman,Right,
59,10,1,0.7986125999996148,['c'],1,left,['2'],2,1.2019885999998223,0.4,0,FastAcc,31,18,Woman,Right,
0,11,1,0.7332208000007086,['c'],1,left,['8'],4,0.4025478000003204,0.4,0,FastFast,31,18,Woman,Right,
1,11,1,0.7507195999987744,['c'],1,left,['9'],5,0.8499986000006174,0.1,0,FastFast,31,18,Woman,Right,
2,11,1,0.7173911999998381,['c'],1,left,['8'],4,1.2011999999995169,0.4,0,FastFast,31,18,Woman,Right,
3,11,1,0.5339387000003626,['c'],1,left,['8'],4,0.41804380000030505,0.4,0,FastFast,31,18,Woman,Right,
4,11,1,0.8002796999990096,['n'],1,right,['8'],4,0.3331679000002623,0.4,0,FastFast,31,18,Woman,Right,
5,11,1,0.9667485000009037,['c'],1,left,['8'],4,0.31823369999983697,0.1,0,FastFast,31,18,Woman,Right,
6,11,1,0.5506435999996029,['n'],1,right,['8'],4,0.35025449999920966,0.2,0,FastFast,31,18,Woman,Right,
7,11,1,0.7512747000000672,['n'],1,right,['9'],5,0.3179276999999274,0.1,0,FastFast,31,18,Woman,Right,
8,11,1,1.1991410000009637,['n'],1,right,['9'],5,0.4011193000005733,0.1,0,FastFast,31,18,Woman,Right,
9,11,1,0.4830783000015799,['c'],0,right,['8'],4,0.617804999999862,0.1,0,FastFast,31,18,Woman,Right,
10,11,1,0.5498337999997602,['n'],1,right,['8'],4,0.584465399999317,0.4,0,FastFast,31,18,Woman,Right,
11,11,1,1.0489832000002934,['n'],0,left,['2'],2,1.0839372999998886,0.1,0,FastFast,31,18,Woman,Right,
12,11,1,1.0167203000000882,['c'],0,right,['8'],4,0.8834434999989753,0.2,0,FastFast,31,18,Woman,Right,
13,11,1,0.967794899999717,['n'],0,left,['9'],5,0.6835455000000366,0.2,0,FastFast,31,18,Woman,Right,
14,11,1,1.1328501000007236,['c'],1,left,['9'],5,0.8688039999997272,0.4,0,FastFast,31,18,Woman,Right,
15,11,1,0.9168859000001248,['c'],1,left,['8'],4,0.8179595000001427,0.2,0,FastFast,31,18,Woman,Right,
16,11,1,0.6345316000006278,['n'],1,right,['3'],3,0.8851756000003661,0.2,0,FastFast,31,18,Woman,Right,
17,11,1,0.734236599999349,['n'],1,right,['8'],4,0.8848529000006238,0.2,0,FastFast,31,18,Woman,Right,
18,11,1,0.9168805999997858,['c'],1,left,['8'],4,0.4187977999990835,0.2,0,FastFast,31,18,Woman,Right,
19,11,1,0.684369799999331,['n'],0,left,['8'],4,1.4841211000002659,0.1,0,FastFast,31,18,Woman,Right,
20,11,1,0.9172105999987252,['c'],0,right,['9'],5,1.2020865000013146,0.1,0,FastFast,31,18,Woman,Right,
21,11,1,0.6170595999992656,['n'],1,right,['3'],3,1.9682099000001472,0.1,0,FastFast,31,18,Woman,Right,
22,11,1,0.5668984999992972,['c'],0,right,['8'],4,0.6512277999991056,0.2,0,FastFast,31,18,Woman,Right,
23,11,1,0.6834997000005387,['n'],1,right,['9'],5,0.5172628999989684,0.2,0,FastFast,31,18,Woman,Right,
24,11,1,0.9341184000004432,['c'],1,left,['9'],5,0.46763580000151705,0.1,0,FastFast,31,18,Woman,Right,
25,11,1,0.7655584000003728,['n'],0,left,['3'],3,1.0495048000011593,0.1,0,FastFast,31,18,Woman,Right,
26,11,1,0.7183034000008774,['n'],1,right,['3'],3,1.1011234000015975,0.4,0,FastFast,31,18,Woman,Right,
27,11,1,1.116769899999781,['c'],0,right,['8'],4,0.5682783000011113,0.2,0,FastFast,31,18,Woman,Right,
28,11,1,0.8009749000011652,['c'],1,left,['9'],5,0.6026371000007202,0.2,0,FastFast,31,18,Woman,Right,
29,11,1,0.7818809000000329,['n'],1,right,['3'],3,1.1675742999996146,0.2,0,FastFast,31,18,Woman,Right,
30,11,1,0.5175923999995575,['n'],1,right,['8'],4,0.9010563000010734,0.2,0,FastFast,31,18,Woman,Right,
31,11,1,0.6495687999995425,['n'],1,right,['9'],5,0.450218699999823,0.2,0,FastFast,31,18,Woman,Right,
32,11,1,0.8651852999992116,['c'],1,left,['9'],5,0.9526490999996895,0.1,0,FastFast,31,18,Woman,Right,
33,11,1,0.6161615000000893,['n'],1,right,['9'],5,0.4664398999993864,0.4,0,FastFast,31,18,Woman,Right,
34,11,1,0.9011800999996922,['n'],1,right,['9'],5,0.5176919999994425,0.2,0,FastFast,31,18,Woman,Right,
35,11,1,1.0494467000007717,['c'],0,right,['3'],3,1.2006388000008883,0.2,0,FastFast,31,18,Woman,Right,
36,11,1,0.8841836999999941,['n'],1,right,['8'],4,1.084416699999565,0.4,0,FastFast,31,18,Woman,Right,
37,11,1,0.882870900000853,['c'],0,right,['8'],4,0.5168804000004457,0.2,0,FastFast,31,18,Woman,Right,
38,11,1,1.1006720000004862,['c'],0,right,['8'],4,0.43464250000033644,0.2,0,FastFast,31,18,Woman,Right,
39,11,1,2.368386100000862,['c'],1,left,['9'],5,0.618179400000372,0.4,0,FastFast,31,18,Woman,Right,
40,11,1,1.6171507999988535,['c'],1,left,['9'],5,0.2840943999999581,0.4,0,FastFast,31,18,Woman,Right,
41,11,1,2.600430899999992,['c'],1,left,['3'],3,0.8827695999989373,0.2,0,FastFast,31,18,Woman,Right,
42,11,1,1.3348722999999154,['n'],0,left,['9'],5,0.9679126000010001,0.1,0,FastFast,31,18,Woman,Right,
43,11,1,1.1001663000006374,['c'],1,left,['8'],4,0.6831540999992285,0.4,0,FastFast,31,18,Woman,Right,
44,11,1,0.7845622000004369,['n'],0,left,['3'],3,0.8512996999997995,0.4,0,FastFast,31,18,Woman,Right,
45,11,1,1.5836675999998988,['c'],1,left,['9'],5,1.0332854999996925,0.4,0,FastFast,31,18,Woman,Right,
46,11,1,1.2497865999994247,['n'],1,right,['9'],5,0.6841445000009116,0.4,0,FastFast,31,18,Woman,Right,
47,11,1,2.1998437000002014,['c'],1,left,['9'],5,0.7021420000000944,0.4,0,FastFast,31,18,Woman,Right,
48,11,1,1.1182944000011048,['n'],0,left,['9'],5,0.6516347999986465,0.1,0,FastFast,31,18,Woman,Right,
49,11,1,1.4000882000000274,['c'],1,left,['9'],5,0.3839609000006021,0.4,0,FastFast,31,18,Woman,Right,
50,11,1,1.0671590000001743,['c'],1,left,['8'],4,0.43350420000024315,0.4,0,FastFast,31,18,Woman,Right,
51,11,1,0.6827011999994284,['n'],1,right,['9'],5,0.6002697000003536,0.4,0,FastFast,31,18,Woman,Right,
52,11,1,0.6662293999997928,['c'],1,left,['9'],5,0.36826839999957883,0.1,0,FastFast,31,18,Woman,Right,
53,11,1,1.2659118000010494,['n'],1,right,['9'],5,0.3349907000010717,0.1,0,FastFast,31,18,Woman,Right,
54,11,1,0.8987319000007119,['c'],0,right,['8'],4,0.7173662000004697,0.1,0,FastFast,31,18,Woman,Right,
55,11,1,0.7330700000002253,['n'],1,right,['9'],5,0.5522932999992918,0.1,0,FastFast,31,18,Woman,Right,
56,11,1,0.565218100000493,['c'],1,left,['9'],5,0.5191352000001643,0.4,0,FastFast,31,18,Woman,Right,
57,11,1,0.5484625000008236,['n'],1,right,['9'],5,0.38412289999905624,0.1,0,FastFast,31,18,Woman,Right,
58,11,1,0.5684908000002906,['c'],1,left,['9'],5,0.6360122999994928,0.2,0,FastFast,31,18,Woman,Right,
59,11,1,0.9008912999997847,['c'],1,left,['9'],5,0.4011955999994825,0.1,0,FastFast,31,18,Woman,Right,
0,12,1,1.883317400001033,['c'],1,left,['9'],5,0.43532670000058715,0.2,0,AccFast,31,18,Woman,Right,
1,12,1,1.199712700001328,['n'],1,right,['8'],4,0.6186121000009734,0.4,0,AccFast,31,18,Woman,Right,
2,12,1,0.8673092999997607,['n'],0,left,['8'],4,0.6833691000010731,0.4,0,AccFast,31,18,Woman,Right,
3,12,1,0.8158524000009493,['c'],1,left,['9'],5,0.45270569999956933,0.2,0,AccFast,31,18,Woman,Right,
4,12,1,1.0332904999995662,['c'],1,left,['8'],4,0.7348526999994647,0.1,0,AccFast,31,18,Woman,Right,
5,12,1,0.5331609999993816,['n'],1,right,['9'],5,0.5178556999999273,0.1,0,AccFast,31,18,Woman,Right,
6,12,1,0.8158060000005207,['n'],1,right,['9'],5,0.4185725999996066,0.4,0,AccFast,31,18,Woman,Right,
7,12,1,0.8001508999986982,['c'],0,right,['9'],5,0.4013148000012734,0.2,0,AccFast,31,18,Woman,Right,
8,12,1,0.7670285999993212,['n'],0,left,['8'],4,0.5517098999989685,0.1,0,AccFast,31,18,Woman,Right,
9,12,1,0.5484362000006513,['c'],1,left,['8'],4,0.3687755000009929,0.4,0,AccFast,31,18,Woman,Right,
10,12,1,0.983689200000299,['n'],0,left,['8'],4,0.36785090000012133,0.4,0,AccFast,31,18,Woman,Right,
11,12,1,0.984306899999865,['n'],1,right,['3'],3,0.6848207000002731,0.2,0,AccFast,31,18,Woman,Right,
12,12,1,1.0323871000000509,['c'],1,left,['8'],4,0.6185084999997343,0.4,0,AccFast,31,18,Woman,Right,
13,12,1,0.9835980000007112,['n'],0,left,['8'],4,1.1014386999995622,0.1,0,AccFast,31,18,Woman,Right,
14,12,1,0.9651322999998229,['c'],0,right,['3'],3,0.6841661999987991,0.1,0,AccFast,31,18,Woman,Right,
15,12,1,0.8336165000000619,['c'],1,left,['8'],4,0.41834770000059507,0.1,0,AccFast,31,18,Woman,Right,
16,12,1,0.6837266000002273,['n'],1,right,['9'],5,0.5166022000012163,0.4,0,AccFast,31,18,Woman,Right,
17,12,1,1.017551299999468,['c'],0,right,['9'],5,0.38462390000131563,0.2,0,AccFast,31,18,Woman,Right,
18,12,1,0.7836225000010018,['c'],1,left,['9'],5,0.6018334000000323,0.1,0,AccFast,31,18,Woman,Right,
19,12,1,1.2500457000005554,['c'],1,left,['8'],4,0.46789819999867177,0.1,0,AccFast,31,18,Woman,Right,
20,12,1,0.8996084999998857,['n'],1,right,['8'],4,0.48335489999954007,0.4,0,AccFast,31,18,Woman,Right,
21,12,1,0.7176799999997456,['c'],1,left,['9'],5,0.3509572000002663,0.4,0,AccFast,31,18,Woman,Right,
22,12,1,1.3844614999998157,['c'],1,left,['9'],5,0.40135250000093947,0.4,0,AccFast,31,18,Woman,Right,
23,12,1,1.0163838999997097,['n'],0,left,['8'],4,0.6669695000000502,0.2,0,AccFast,31,18,Woman,Right,
24,12,1,0.6998590000002878,['n'],1,right,['8'],4,0.3681183999997302,0.1,0,AccFast,31,18,Woman,Right,
25,12,1,0.6336427000005642,['c'],1,left,['9'],5,0.501250400000572,0.2,0,AccFast,31,18,Woman,Right,
26,12,1,1.0342251000001852,['c'],1,left,['8'],4,0.518114800001058,0.2,0,AccFast,31,18,Woman,Right,
27,12,1,0.5514806999999564,['n'],1,right,['8'],4,0.5166931000003387,0.4,0,AccFast,31,18,Woman,Right,
28,12,1,1.383798000000752,['c'],1,left,['9'],5,0.4013609000012366,0.4,0,AccFast,31,18,Woman,Right,
29,12,1,1.367048199999772,['c'],1,left,['9'],5,0.56683940000039,0.4,0,AccFast,31,18,Woman,Right,
30,12,1,0.8661508000004687,['c'],1,left,['8'],4,0.7188323999998829,0.4,0,AccFast,31,18,Woman,Right,
31,12,1,2.466785399999935,['n'],0,left,['9'],5,0.9179168999999092,0.2,0,AccFast,31,18,Woman,Right,
32,12,1,1.1509906000010233,['c'],1,left,['8'],4,0.4839259000000311,0.1,0,AccFast,31,18,Woman,Right,
33,12,1,1.1674192999998922,['n'],1,right,['9'],5,0.9175044999992679,0.1,0,AccFast,31,18,Woman,Right,
34,12,1,1.482835000000705,['c'],0,right,['8'],4,0.5855203000010079,0.2,0,AccFast,31,18,Woman,Right,
35,12,1,0.7670751999994536,['n'],1,right,['8'],4,0.40138869999827875,0.4,0,AccFast,31,18,Woman,Right,
36,12,1,0.766006899999411,['n'],1,right,['8'],4,0.36710800000037125,0.2,0,AccFast,31,18,Woman,Right,
37,12,1,0.8679599000006419,['c'],1,left,['8'],4,0.38354679999974906,0.2,0,AccFast,31,18,Woman,Right,
38,12,1,0.565735099999074,['n'],1,right,['9'],5,0.5021884999987378,0.4,0,AccFast,31,18,Woman,Right,
39,12,1,0.899338600000192,['n'],1,right,['3'],3,0.7009700999988127,0.1,0,AccFast,31,18,Woman,Right,
40,12,1,0.7151680000006309,['n'],1,right,['3'],3,0.8185684000000037,0.1,0,AccFast,31,18,Woman,Right,
41,12,1,1.3011639999986073,['c'],1,left,['3'],3,0.41770849999920756,0.4,0,AccFast,31,18,Woman,Right,
42,12,1,1.2324891999996908,['n'],0,left,['8'],4,0.5692091999990225,0.2,0,AccFast,31,18,Woman,Right,
43,12,1,1.049682999999277,['n'],1,right,['8'],4,0.4508616000002803,0.4,0,AccFast,31,18,Woman,Right,
44,12,1,1.1500766999997722,['c'],1,left,['8'],4,2.700217199999315,0.1,0,AccFast,31,18,Woman,Right,
45,12,1,1.0672507999988738,['c'],0,right,['3'],3,0.8835660000004282,0.2,0,AccFast,31,18,Woman,Right,
46,12,1,0.6163398999997298,['n'],1,right,['8'],4,0.46778570000060427,0.1,0,AccFast,31,18,Woman,Right,
47,12,1,0.9502732000000833,['n'],1,right,['8'],4,0.3679338000001735,0.2,0,AccFast,31,18,Woman,Right,
48,12,1,1.1150532999999996,['c'],1,left,['8'],4,0.3351427999987209,0.1,0,AccFast,31,18,Woman,Right,
49,12,1,0.8336130999996385,['c'],0,right,['3'],3,0.6331708999987313,0.2,0,AccFast,31,18,Woman,Right,
50,12,1,0.5677292000000307,['n'],1,right,['8'],4,0.3496541000004072,0.1,0,AccFast,31,18,Woman,Right,
51,12,1,0.766033800000514,['c'],0,right,['8'],4,0.4028524999994261,0.4,0,AccFast,31,18,Woman,Right,
52,12,1,0.6006868000004033,['c'],0,right,['8'],4,0.5516478000008647,0.1,0,AccFast,31,18,Woman,Right,
53,12,1,0.5511013999985153,['n'],1,right,['8'],4,0.434630499999912,0.1,0,AccFast,31,18,Woman,Right,
54,12,1,0.5340646000004199,['c'],1,left,['8'],4,0.4510747000003903,0.2,0,AccFast,31,18,Woman,Right,
55,12,1,0.5835583000007318,['n'],1,right,['8'],4,0.451429000000644,0.4,0,AccFast,31,18,Woman,Right,
56,12,1,0.6333403999997245,['c'],1,left,['9'],5,0.38537059999907797,0.2,0,AccFast,31,18,Woman,Right,
57,12,1,1.000084600000264,['c'],1,left,['8'],4,0.6348959000006289,0.2,0,AccFast,31,18,Woman,Right,
58,12,1,1.2159474000000046,['c'],0,right,['9'],5,0.30221069999970496,0.1,0,AccFast,31,18,Woman,Right,
59,12,1,1.7835973999990529,['c'],0,right,['8'],4,0.3668242999992799,0.2,0,AccFast,31,18,Woman,Right,
0,13,1,1.2171643000001495,['c'],1,left,['9'],5,0.6502963000002637,0.4,0,AccAcc,31,18,Woman,Right,
1,13,1,1.765136199999688,['n'],0,left,['8'],4,0.7508611000012024,0.1,0,AccAcc,31,18,Woman,Right,
2,13,1,0.6991400999995676,['c'],1,left,['9'],5,0.5689894999995886,0.4,0,AccAcc,31,18,Woman,Right,
3,13,1,1.1007143999995606,['c'],1,left,['3'],3,0.9343026000005921,0.1,0,AccAcc,31,18,Woman,Right,
4,13,1,1.0503028000002814,['n'],1,right,['8'],4,0.7008413000003202,0.1,0,AccAcc,31,18,Woman,Right,
5,13,1,1.132744599999569,['n'],1,right,['3'],3,0.9831281999995554,0.2,0,AccAcc,31,18,Woman,Right,
6,13,1,0.9330391000003146,['n'],1,right,['8'],4,1.00098860000071,0.2,0,AccAcc,31,18,Woman,Right,
7,13,1,0.6165978999997606,['n'],1,right,['8'],4,0.4669716000007611,0.4,0,AccAcc,31,18,Woman,Right,
8,13,1,0.8996106000013242,['c'],1,left,['9'],5,1.5851031999991392,0.4,0,AccAcc,31,18,Woman,Right,
9,13,1,1.1673874000007345,['c'],1,left,['3'],3,0.4855245999988256,0.1,0,AccAcc,31,18,Woman,Right,
10,13,1,0.5993453999999474,['n'],1,right,['8'],4,0.38582359999963955,0.2,0,AccAcc,31,18,Woman,Right,
11,13,1,1.0822760999999446,['c'],0,right,['8'],4,0.41933719999906316,0.2,0,AccAcc,31,18,Woman,Right,
12,13,1,0.7499987000010151,['n'],1,right,['8'],4,0.402116000001115,0.1,0,AccAcc,31,18,Woman,Right,
13,13,1,1.2493240000003425,['c'],0,right,['8'],4,0.3694424999994226,0.1,0,AccAcc,31,18,Woman,Right,
14,13,1,1.2826557999997021,['n'],1,right,['9'],5,0.7182398999993893,0.2,0,AccAcc,31,18,Woman,Right,
15,13,1,0.9500865999998496,['n'],1,right,['9'],5,0.7847102999985509,0.2,0,AccAcc,31,18,Woman,Right,
16,13,1,0.8328918999995949,['n'],1,right,['9'],5,0.5518433999986883,0.4,0,AccAcc,31,18,Woman,Right,
17,13,1,0.9983664999999746,['c'],1,left,['9'],5,0.6347184000005655,0.1,0,AccAcc,31,18,Woman,Right,
18,13,1,0.9007296999989194,['c'],1,left,['0'],6,0.784485100000893,0.4,0,AccAcc,31,18,Woman,Right,
19,13,1,1.2330027999996673,['c'],1,left,['8'],4,1.1025059999992664,0.2,0,AccAcc,31,18,Woman,Right,
20,13,1,1.93119950000073,['n'],0,left,['8'],4,0.952647899999647,0.1,0,AccAcc,31,18,Woman,Right,
21,13,1,1.3317372000001342,['n'],1,right,['8'],4,0.717590599999312,0.4,0,AccAcc,31,18,Woman,Right,
22,13,1,0.7999574000004941,['c'],1,left,['9'],5,0.48409019999962766,0.4,0,AccAcc,31,18,Woman,Right,
23,13,1,1.500439000001279,['c'],0,right,['8'],4,0.6514091000008193,0.1,0,AccAcc,31,18,Woman,Right,
24,13,1,0.7497989999992569,['c'],1,left,['8'],4,0.4511485000002722,0.2,0,AccAcc,31,18,Woman,Right,
25,13,1,1.2157330999998521,['n'],0,left,['9'],5,1.0517156999994768,0.2,0,AccAcc,31,18,Woman,Right,
26,13,1,0.8824915999994118,['n'],1,right,['9'],5,0.984977500000241,0.1,0,AccAcc,31,18,Woman,Right,
27,13,1,1.650568099999873,['n'],0,left,['8'],4,0.7337368999997125,0.2,0,AccAcc,31,18,Woman,Right,
28,13,1,1.6503386000003957,['c'],0,right,['8'],4,0.7016737000012654,0.1,0,AccAcc,31,18,Woman,Right,
29,13,1,0.7831170000008569,['c'],1,left,['9'],5,0.8176492999991751,0.2,0,AccAcc,31,18,Woman,Right,
30,13,1,0.850029799999902,['c'],1,left,['3'],3,0.9345013999991352,0.1,0,AccAcc,31,18,Woman,Right,
31,13,1,1.4502179000010074,['c'],1,left,['3'],3,1.00003900000047,0.4,0,AccAcc,31,18,Woman,Right,
32,13,1,0.6841683000002377,['n'],1,right,['9'],5,0.8000959000000876,0.4,0,AccAcc,31,18,Woman,Right,
33,13,1,2.2170046999999613,['n'],1,right,['9'],5,0.4022724999995262,0.4,0,AccAcc,31,18,Woman,Right,
34,13,1,1.916833700001007,['c'],1,left,['8'],4,0.38455809999868507,0.4,0,AccAcc,31,18,Woman,Right,
35,13,1,0.7506193999997777,['n'],1,right,['8'],4,0.4509615000006306,0.2,0,AccAcc,31,18,Woman,Right,
36,13,1,0.9669873000002553,['c'],1,left,['8'],4,0.4334633999988,0.2,0,AccAcc,31,18,Woman,Right,
37,13,1,0.7677874999990308,['n'],1,right,['9'],5,0.6855828999996447,0.4,0,AccAcc,31,18,Woman,Right,
38,13,1,0.9336063999999169,['n'],1,right,['9'],5,0.8677404000009119,0.4,0,AccAcc,31,18,Woman,Right,
39,13,1,1.4336991000000125,['n'],1,right,['9'],5,0.46753069999977015,0.2,0,AccAcc,31,18,Woman,Right,
40,13,1,0.7669427999990148,['n'],1,right,['9'],5,0.3681044999993901,0.2,0,AccAcc,31,18,Woman,Right,
41,13,1,1.23328809999839,['n'],0,left,['3'],3,1.3013990999988891,0.1,0,AccAcc,31,18,Woman,Right,
42,13,1,1.0165557000000263,['c'],0,right,['8'],4,0.5179686999999831,0.4,0,AccAcc,31,18,Woman,Right,
43,13,1,0.6844586999995954,['c'],1,left,['9'],5,0.5502011000007769,0.4,0,AccAcc,31,18,Woman,Right,
44,13,1,0.5997420999992755,['n'],1,right,['8'],4,0.6840881999996782,0.4,0,AccAcc,31,18,Woman,Right,
45,13,1,0.5854194999992615,['c'],1,left,['8'],4,0.46804149999843503,0.2,0,AccAcc,31,18,Woman,Right,
46,13,1,0.7326408999997511,['n'],1,right,['9'],5,0.3854265999998461,0.2,0,AccAcc,31,18,Woman,Right,
47,13,1,1.7837151999992784,['n'],0,left,['9'],5,0.4522800000013376,0.1,0,AccAcc,31,18,Woman,Right,
48,13,1,1.4494113000000652,['n'],0,left,['9'],5,0.3679783999996289,0.1,0,AccAcc,31,18,Woman,Right,
49,13,1,1.0174783999991632,['n'],1,right,['9'],5,0.46676560000014433,0.1,0,AccAcc,31,18,Woman,Right,
50,13,1,1.6327220000002853,['c'],0,right,['8'],4,1.1337700000003679,0.1,0,AccAcc,31,18,Woman,Right,
51,13,1,1.7514197000000422,['c'],1,left,['8'],4,0.9011952999990172,0.1,0,AccAcc,31,18,Woman,Right,
52,13,1,1.7323257999996713,['c'],0,right,['8'],4,0.5173890000005485,0.4,0,AccAcc,31,18,Woman,Right,
53,13,1,1.2826119999990624,['n'],0,left,['9'],5,0.4521065999997518,0.2,0,AccAcc,31,18,Woman,Right,
54,13,1,1.000934400000915,['n'],1,right,['9'],5,0.3666486000001896,0.1,0,AccAcc,31,18,Woman,Right,
55,13,1,0.9342133000009198,['n'],0,left,['9'],5,0.5012385999998514,0.2,0,AccAcc,31,18,Woman,Right,
56,13,1,0.734346999999616,['c'],1,left,['9'],5,0.7997390999989875,0.4,0,AccAcc,31,18,Woman,Right,
57,13,1,1.0511931000000914,['c'],1,left,['8'],4,0.4001451000003726,0.4,0,AccAcc,31,18,Woman,Right,
58,13,1,0.7668142000002263,['n'],0,left,['8'],4,0.7018127999999706,0.2,0,AccAcc,31,18,Woman,Right,
59,13,1,0.6169377000005625,['n'],1,right,['9'],5,0.5159449000002496,0.1,0,AccAcc,31,18,Woman,Right,
0,14,1,0.8491437000011501,['n'],1,right,['8'],4,0.3518802999988111,0.2,0,FastAcc,31,18,Woman,Right,
1,14,1,0.5504170000003796,['c'],1,left,['9'],5,0.817946999999549,0.2,0,FastAcc,31,18,Woman,Right,
2,14,1,0.6839646000007633,['c'],1,left,['9'],5,1.3668398999998317,0.1,0,FastAcc,31,18,Woman,Right,
3,14,1,0.5508633999997983,['n'],1,right,['8'],4,0.9665331000014703,0.1,0,FastAcc,31,18,Woman,Right,
4,14,1,0.51553419999982,['c'],1,left,['9'],5,0.6342373000006774,0.4,0,FastAcc,31,18,Woman,Right,
5,14,1,0.6507235999997647,['c'],1,left,['3'],3,2.400614800000767,0.4,0,FastAcc,31,18,Woman,Right,
6,14,1,0.6336073000002216,['n'],1,right,['8'],4,0.4669761000004655,0.2,0,FastAcc,31,18,Woman,Right,
7,14,1,0.5838203999992402,['c'],1,left,['9'],5,0.4340556999995897,0.4,0,FastAcc,31,18,Woman,Right,
8,14,1,0.8680273999998462,['c'],1,left,['8'],4,0.8493101999993087,0.1,0,FastAcc,31,18,Woman,Right,
9,14,1,0.5670754000002489,['c'],1,left,['9'],5,0.41726120000021183,0.4,0,FastAcc,31,18,Woman,Right,
10,14,1,0.6171341000008397,['n'],1,right,['9'],5,0.4174707000001945,0.4,0,FastAcc,31,18,Woman,Right,
11,14,1,0.5672040999997989,['c'],0,right,['9'],5,0.43419899999935296,0.1,0,FastAcc,31,18,Woman,Right,
12,14,1,0.8827899999996589,['c'],0,right,['9'],5,0.6858544000006077,0.1,0,FastAcc,31,18,Woman,Right,
13,14,1,0.9828605000002426,['n'],1,right,['9'],5,0.4509533999989799,0.2,0,FastAcc,31,18,Woman,Right,
14,14,1,0.5998956000003091,['c'],1,left,['9'],5,0.5682383999992453,0.1,0,FastAcc,31,18,Woman,Right,
15,14,1,0.7329735000002984,['n'],1,right,['8'],4,0.6171373999986827,0.4,0,FastAcc,31,18,Woman,Right,
16,14,1,0.5841436000009708,['c'],0,right,['9'],5,0.501266699999178,0.2,0,FastAcc,31,18,Woman,Right,
17,14,1,1.0493917999992846,['n'],0,left,['9'],5,0.7675855999987107,0.2,0,FastAcc,31,18,Woman,Right,
18,14,1,0.4850028000000748,['n'],1,right,['9'],5,0.6013966000009532,0.4,0,FastAcc,31,18,Woman,Right,
19,14,1,0.5342326999998477,['c'],1,left,['9'],5,0.4510862000006455,0.4,0,FastAcc,31,18,Woman,Right,
20,14,1,0.6998215000003256,['n'],0,left,['3'],3,0.9993794999991223,0.4,0,FastAcc,31,18,Woman,Right,
21,14,1,1.0501867000002676,['c'],0,right,['8'],4,1.1182404999999562,0.1,0,FastAcc,31,18,Woman,Right,
22,14,1,0.6013483999995515,['n'],1,right,['8'],4,0.7854925999999978,0.1,0,FastAcc,31,18,Woman,Right,
23,14,1,0.6342409999997471,['c'],1,left,['9'],5,0.5340255000010075,0.4,0,FastAcc,31,18,Woman,Right,
24,14,1,1.482445399999051,['c'],1,left,['8'],4,0.5662516000011237,0.2,0,FastAcc,31,18,Woman,Right,
25,14,1,0.8844210999995994,['n'],1,right,['8'],4,0.46831469999960973,0.1,0,FastAcc,31,18,Woman,Right,
26,14,1,0.9825677000008,['n'],1,right,['8'],4,0.3195305000008375,0.2,0,FastAcc,31,18,Woman,Right,
27,14,1,1.1488102000002982,['n'],1,right,['8'],4,0.30159590000039316,0.2,0,FastAcc,31,18,Woman,Right,
28,14,1,0.7667493999997532,['c'],1,left,['9'],5,0.33415340000101423,0.2,0,FastAcc,31,18,Woman,Right,
29,14,1,1.133965299999545,['c'],1,left,['9'],5,0.30002979999881063,0.1,0,FastAcc,31,18,Woman,Right,
30,14,1,0.7659512999998697,['n'],1,right,['9'],5,0.46747210000103223,0.4,0,FastAcc,31,18,Woman,Right,
31,14,1,0.8822923000006995,['c'],1,left,['8'],4,0.4341054999986227,0.2,0,FastAcc,31,18,Woman,Right,
32,14,1,0.600414799999271,['n'],1,right,['9'],5,0.3341540999990684,0.2,0,FastAcc,31,18,Woman,Right,
33,14,1,1.1188658999999461,['c'],0,right,['8'],4,0.6498052999995707,0.2,0,FastAcc,31,18,Woman,Right,
34,14,1,0.5667166999992332,['n'],1,right,['9'],5,0.38417000000117696,0.2,0,FastAcc,31,18,Woman,Right,
35,14,1,0.6514518999993015,['n'],1,right,['9'],5,0.3168029000007664,0.4,0,FastAcc,31,18,Woman,Right,
36,14,1,1.1988674000003812,['n'],0,left,['9'],5,0.31774810000024445,0.1,0,FastAcc,31,18,Woman,Right,
37,14,1,0.6180392000005668,['c'],1,left,['9'],5,0.6661588999995729,0.1,0,FastAcc,31,18,Woman,Right,
38,14,1,1.1513274000008096,['n'],0,left,['8'],4,0.41801959999975224,0.4,0,FastAcc,31,18,Woman,Right,
39,14,1,1.4652869000001374,['c'],1,left,['8'],4,0.30238269999972545,0.4,0,FastAcc,31,18,Woman,Right,
40,14,1,0.5998015000004671,['n'],1,right,['8'],4,0.3675301000002946,0.2,0,FastAcc,31,18,Woman,Right,
41,14,1,0.6667216999994707,['n'],1,right,['9'],5,0.30024649999904796,0.4,0,FastAcc,31,18,Woman,Right,
42,14,1,1.4836508999997022,['n'],0,left,['9'],5,0.21841049999966344,0.1,0,FastAcc,31,18,Woman,Right,
43,14,1,1.0346222000007401,['n'],0,left,['3'],3,1.267762199999197,0.2,0,FastAcc,31,18,Woman,Right,
44,14,1,0.8659406999995554,['n'],1,right,['8'],4,0.485212200001115,0.1,0,FastAcc,31,18,Woman,Right,
45,14,1,0.6008891999990738,['n'],1,right,['8'],4,0.3009230999996362,0.1,0,FastAcc,31,18,Woman,Right,
46,14,1,0.6685527000008733,['n'],1,right,['8'],4,0.3015887000001385,0.2,0,FastAcc,31,18,Woman,Right,
47,14,1,1.2817818000003172,['c'],1,left,['8'],4,0.9173168999986956,0.1,0,FastAcc,31,18,Woman,Right,
48,14,1,0.6830405999990035,['n'],1,right,['9'],5,0.649755999998888,0.2,0,FastAcc,31,18,Woman,Right,
49,14,1,0.8338982999994187,['n'],1,right,['9'],5,0.3012521000000561,0.1,0,FastAcc,31,18,Woman,Right,
50,14,1,1.0522251999991568,['c'],1,left,['9'],5,0.35032829999909154,0.4,0,FastAcc,31,18,Woman,Right,
51,14,1,0.7009538999991491,['n'],1,right,['8'],4,0.36697110000022803,0.1,0,FastAcc,31,18,Woman,Right,
52,14,1,0.7172315000007075,['n'],0,left,['9'],5,0.4675401000004058,0.2,0,FastAcc,31,18,Woman,Right,
53,14,1,0.8505032000011852,['n'],0,left,['9'],5,0.2844203999993624,0.1,0,FastAcc,31,18,Woman,Right,
54,14,1,0.7839046999997663,['c'],1,left,['9'],5,0.45024759999978414,0.4,0,FastAcc,31,18,Woman,Right,
55,14,1,0.6343923999993422,['n'],1,right,['9'],5,0.5165710000001127,0.4,0,FastAcc,31,18,Woman,Right,
56,14,1,1.0676306999994267,['n'],0,left,['8'],4,0.3849522000000434,0.4,0,FastAcc,31,18,Woman,Right,
57,14,1,0.916995899999165,['n'],0,left,['8'],4,0.33505259999947157,0.1,0,FastAcc,31,18,Woman,Right,
58,14,1,0.7658714999997756,['n'],1,right,['8'],4,0.3338839000007283,0.2,0,FastAcc,31,18,Woman,Right,
59,14,1,0.6006570999998075,['n'],0,left,['8'],4,0.35073559999909776,0.4,0,FastAcc,31,18,Woman,Right,
0,15,1,0.8507300999990548,['n'],1,right,['8'],4,0.21805940000012924,0.4,0,FastFast,31,18,Woman,Right,
1,15,1,0.4676280999992741,['n'],1,right,['9'],5,0.5680785000004107,0.4,0,FastFast,31,18,Woman,Right,
2,15,1,0.7173520999986067,['n'],1,right,['9'],5,0.36797180000030494,0.2,0,FastFast,31,18,Woman,Right,
3,15,1,0.5337385000002541,['c'],1,left,['8'],4,0.4834646999988763,0.2,0,FastFast,31,18,Woman,Right,
4,15,1,0.44979459999922256,['n'],1,right,['8'],4,0.5345292999991216,0.2,0,FastFast,31,18,Woman,Right,
5,15,1,0.5824620000003051,['n'],1,right,['8'],4,0.6506841999998869,0.1,0,FastFast,31,18,Woman,Right,
6,15,1,1.083395899999232,['c'],1,left,['8'],4,0.7347677999987354,0.2,0,FastFast,31,18,Woman,Right,
7,15,1,0.5499784000003274,['n'],0,left,['8'],4,0.4347055999987788,0.2,0,FastFast,31,18,Woman,Right,
8,15,1,0.5830395000011777,['n'],0,left,['8'],4,0.4507076000008965,0.1,0,FastFast,31,18,Woman,Right,
9,15,1,0.7488543999988906,['n'],1,right,['8'],4,0.6338109999996959,0.1,0,FastFast,31,18,Woman,Right,
10,15,1,0.6683173000001261,['n'],1,right,['8'],4,0.2826692999988154,0.1,0,FastFast,31,18,Woman,Right,
11,15,1,0.7153283999996347,['n'],0,left,['8'],4,0.4191031999998813,0.1,0,FastFast,31,18,Woman,Right,
12,15,1,0.6518617999990965,['c'],1,left,['8'],4,0.8503319999999803,0.4,0,FastFast,31,18,Woman,Right,
13,15,1,0.584106400001474,['n'],1,right,['9'],5,0.6678792000002431,0.4,0,FastFast,31,18,Woman,Right,
14,15,1,0.9003749999992579,['n'],1,right,['9'],5,0.36822159999974247,0.2,0,FastFast,31,18,Woman,Right,
15,15,1,1.234128399999463,['c'],1,left,['9'],5,0.38519129999986035,0.1,0,FastFast,31,18,Woman,Right,
16,15,1,0.634010900001158,['n'],0,left,['9'],5,0.33474280000154977,0.2,0,FastFast,31,18,Woman,Right,
17,15,1,0.6839656000011018,['c'],1,left,['8'],4,0.3178816999989067,0.4,0,FastFast,31,18,Woman,Right,
18,15,1,0.6501300999989326,['n'],1,right,['8'],4,0.318125499999951,0.2,0,FastFast,31,18,Woman,Right,
19,15,1,0.5836502999991353,['n'],1,right,['9'],5,0.7501415000006091,0.4,0,FastFast,31,18,Woman,Right,
20,15,1,0.5992123999985779,['n'],1,right,['9'],5,0.4011086999998952,0.4,0,FastFast,31,18,Woman,Right,
21,15,1,0.7998384000002261,['n'],0,left,['8'],4,0.6180270999993809,0.1,0,FastFast,31,18,Woman,Right,
22,15,1,1.9834444000007352,['n'],1,right,['8'],4,1.2685005000003002,0.4,0,FastFast,31,18,Woman,Right,
23,15,1,0.8329297000000224,['c'],1,left,['9'],5,0.3344283999995241,0.4,0,FastFast,31,18,Woman,Right,
24,15,1,0.6161549000007653,['n'],1,right,['9'],5,0.5179066999990027,0.1,0,FastFast,31,18,Woman,Right,
25,15,1,0.6837677999992593,['c'],1,left,['9'],5,0.3845359000006283,0.4,0,FastFast,31,18,Woman,Right,
26,15,1,1.0837811000001238,['c'],1,left,['9'],5,0.4014300999988336,0.2,0,FastFast,31,18,Woman,Right,
27,15,1,0.533444500000769,['n'],1,right,['9'],5,0.9017690000000584,0.1,0,FastFast,31,18,Woman,Right,
28,15,1,0.6164174000005005,['c'],1,left,['8'],4,0.5515365000010206,0.2,0,FastFast,31,18,Woman,Right,
29,15,1,0.5499400999997306,['n'],1,right,['9'],5,0.38545370000065304,0.2,0,FastFast,31,18,Woman,Right,
30,15,1,0.4507045999998809,['c'],1,left,['9'],5,0.3182354000000487,0.4,0,FastFast,31,18,Woman,Right,
31,15,1,0.7995191000009072,['c'],1,left,['9'],5,0.4849869999998191,0.4,0,FastFast,31,18,Woman,Right,
32,15,1,0.76772979999987,['n'],1,right,['9'],5,0.46700310000051104,0.4,0,FastFast,31,18,Woman,Right,
33,15,1,0.5829517000001943,['n'],1,right,['9'],5,0.3169801000003645,0.4,0,FastFast,31,18,Woman,Right,
34,15,1,0.6004104000003281,['c'],1,left,['8'],4,0.6348042000008718,0.4,0,FastFast,31,18,Woman,Right,
35,15,1,0.8004560999997921,['c'],1,left,['3'],3,0.9331971999999951,0.1,0,FastFast,31,18,Woman,Right,
36,15,1,0.7166187000002537,['n'],1,right,['8'],4,0.43374929999845335,0.1,0,FastFast,31,18,Woman,Right,
37,15,1,1.1661732000011398,['n'],0,left,['8'],4,0.3509073000004719,0.1,0,FastFast,31,18,Woman,Right,
38,15,1,0.9329842000006465,['n'],0,left,['8'],4,0.3846250999995391,0.1,0,FastFast,31,18,Woman,Right,
39,15,1,0.5998527000010654,['n'],1,right,['8'],4,0.3188083999993978,0.1,0,FastFast,31,18,Woman,Right,
40,15,1,0.5503769000006287,['n'],1,right,['9'],5,0.33436600000095495,0.2,0,FastFast,31,18,Woman,Right,
41,15,1,0.46711970000069414,['n'],1,right,['9'],5,0.33465590000014345,0.2,0,FastFast,31,18,Woman,Right,
42,15,1,0.5160597000012785,['n'],0,left,['9'],5,0.31796940000094764,0.2,0,FastFast,31,18,Woman,Right,
43,15,1,0.8674019999998563,['n'],0,left,['2'],2,1.7506490999985544,0.4,0,FastFast,31,18,Woman,Right,
44,15,1,1.3004209999999148,['n'],0,left,['8'],4,0.3015711999996711,0.2,0,FastFast,31,18,Woman,Right,
45,15,1,0.48430109999935667,['c'],1,left,['8'],4,0.8499025000000984,0.4,0,FastFast,31,18,Woman,Right,
46,15,1,0.6180261999998038,['c'],1,left,['8'],4,0.5671638999992865,0.4,0,FastFast,31,18,Woman,Right,
47,15,1,1.134000099998957,['n'],1,right,['8'],4,0.6191435000000638,0.2,0,FastFast,31,18,Woman,Right,
48,15,1,0.7679148000006535,['n'],1,right,['8'],4,0.2681164000005083,0.2,0,FastFast,31,18,Woman,Right,
49,15,1,0.7164848000011261,['n'],1,right,['8'],4,0.24965770000017073,0.1,0,FastFast,31,18,Woman,Right,
50,15,1,0.6180977999993047,['n'],1,right,['8'],4,0.2514117000009719,0.1,0,FastFast,31,18,Woman,Right,
51,15,1,0.582590899999559,['n'],0,left,['8'],4,0.2511613999995461,0.1,0,FastFast,31,18,Woman,Right,
52,15,1,1.3676528000014514,['n'],1,right,['8'],4,0.235211100000015,0.4,0,FastFast,31,18,Woman,Right,
53,15,1,0.8833289999984117,['c'],0,right,['9'],5,0.7344749999992928,0.1,0,FastFast,31,18,Woman,Right,
54,15,1,1.3000941999998759,['n'],0,left,['8'],4,0.6834545000001526,0.2,0,FastFast,31,18,Woman,Right,
55,15,1,1.0178517000003922,['n'],1,right,['8'],4,0.5675235999988217,0.1,0,FastFast,31,18,Woman,Right,
56,15,1,1.2016253000001598,['c'],1,left,['2'],2,0.9510045999995782,0.1,0,FastFast,31,18,Woman,Right,
57,15,1,0.9828226999998151,['c'],0,right,['8'],4,0.418724299999667,0.4,0,FastFast,31,18,Woman,Right,
58,15,1,1.0671913999995013,['c'],1,left,['9'],5,0.5846128999983193,0.2,0,FastFast,31,18,Woman,Right,
59,15,1,0.6177220000008674,['c'],1,left,['8'],4,0.41789560000142956,0.2,0,FastFast,31,18,Woman,Right,
