withinblocktrial,block,block_repetition,rt,resp,cor,cresp,conf_press,cj,rtconf,coherence,slow_trial,manipulation,sub,age,gender,handedness,
0,1,1,5.016454500000236,x,-99,left,none,-99,-99,0.5,1,none,6,20,Woman,Right,
1,1,1,3.049049400000058,['c'],1,left,none,-99,-99,0.5,0,none,6,20,Woman,Right,
2,1,1,2.7501608000002307,['c'],1,left,none,-99,-99,0.5,0,none,6,20,Woman,Right,
3,1,1,2.467475999999806,['n'],0,left,none,-99,-99,0.5,0,none,6,20,Woman,Right,
4,1,1,1.334570900000017,['n'],1,right,none,-99,-99,0.5,0,none,6,20,Woman,Right,
5,1,1,3.2832180000000335,['n'],1,right,none,-99,-99,0.5,0,none,6,20,Woman,Right,
6,1,1,2.2684723999996095,['n'],1,right,none,-99,-99,0.5,0,none,6,20,Woman,Right,
7,1,1,2.5489644999997836,['c'],1,left,none,-99,-99,0.5,0,none,6,20,Woman,Right,
8,1,1,1.9172409000002517,['n'],1,right,none,-99,-99,0.5,0,none,6,20,Woman,Right,
9,1,1,1.583511300000282,['n'],1,right,none,-99,-99,0.5,0,none,6,20,Woman,Right,
10,1,1,1.4005135000002156,['n'],1,right,none,-99,-99,0.5,0,none,6,20,Woman,Right,
11,1,1,1.6660772999998699,['c'],1,left,none,-99,-99,0.5,0,none,6,20,Woman,Right,
12,1,1,2.0342938999997386,['c'],1,left,none,-99,-99,0.5,0,none,6,20,Woman,Right,
13,1,1,1.0003093999998782,['n'],1,right,none,-99,-99,0.5,0,none,6,20,Woman,Right,
14,1,1,1.5000083999998424,['c'],1,left,none,-99,-99,0.5,0,none,6,20,Woman,Right,
15,1,1,0.718575200000032,['c'],1,left,none,-99,-99,0.5,0,none,6,20,Woman,Right,
16,1,1,1.1506027000000358,['n'],0,left,none,-99,-99,0.5,0,none,6,20,Woman,Right,
17,1,1,0.7329237999997531,['n'],1,right,none,-99,-99,0.5,0,none,6,20,Woman,Right,
18,1,1,1.2511413000001994,['c'],1,left,none,-99,-99,0.5,0,none,6,20,Woman,Right,
19,1,1,0.9679516000001058,['n'],1,right,none,-99,-99,0.5,0,none,6,20,Woman,Right,
20,1,1,1.067507299999761,['n'],1,right,none,-99,-99,0.5,0,none,6,20,Woman,Right,
21,1,1,0.7509210999996867,['n'],1,right,none,-99,-99,0.5,0,none,6,20,Woman,Right,
22,1,1,1.8178858999999647,['n'],0,left,none,-99,-99,0.5,0,none,6,20,Woman,Right,
23,1,1,0.9338558999997986,['n'],1,right,none,-99,-99,0.5,0,none,6,20,Woman,Right,
0,1,2,1.8178748000000269,['c'],1,left,none,-99,-99,0.5,0,none,6,20,Woman,Right,
1,1,2,0.9347702000000027,['n'],1,right,none,-99,-99,0.5,0,none,6,20,Woman,Right,
2,1,2,1.017924000000221,['n'],1,right,none,-99,-99,0.5,0,none,6,20,Woman,Right,
3,1,2,0.9677499999997963,['c'],1,left,none,-99,-99,0.5,0,none,6,20,Woman,Right,
4,1,2,0.9504060999997819,['c'],1,left,none,-99,-99,0.5,0,none,6,20,Woman,Right,
5,1,2,0.8333557999999357,['n'],1,right,none,-99,-99,0.5,0,none,6,20,Woman,Right,
6,1,2,0.598832399999992,['n'],1,right,none,-99,-99,0.5,0,none,6,20,Woman,Right,
7,1,2,0.5838041000001795,['n'],1,right,none,-99,-99,0.5,0,none,6,20,Woman,Right,
8,1,2,0.682804600000054,['n'],1,right,none,-99,-99,0.5,0,none,6,20,Woman,Right,
9,1,2,0.6847349999998187,['c'],1,left,none,-99,-99,0.5,0,none,6,20,Woman,Right,
10,1,2,0.6675242000001163,['c'],1,left,none,-99,-99,0.5,0,none,6,20,Woman,Right,
11,1,2,0.6337229999999181,['n'],1,right,none,-99,-99,0.5,0,none,6,20,Woman,Right,
12,1,2,0.4828781999999592,['n'],1,right,none,-99,-99,0.5,0,none,6,20,Woman,Right,
13,1,2,0.5677909999999429,['c'],1,left,none,-99,-99,0.5,0,none,6,20,Woman,Right,
14,1,2,0.4665839000003871,['n'],0,left,none,-99,-99,0.5,0,none,6,20,Woman,Right,
15,1,2,0.9998949000000721,['c'],1,left,none,-99,-99,0.5,0,none,6,20,Woman,Right,
16,1,2,0.5170922000002065,['c'],0,right,none,-99,-99,0.5,0,none,6,20,Woman,Right,
17,1,2,1.7173471000000973,['c'],0,right,none,-99,-99,0.5,0,none,6,20,Woman,Right,
18,1,2,2.4844669999997677,['c'],1,left,none,-99,-99,0.5,0,none,6,20,Woman,Right,
19,1,2,1.7667880000003606,['c'],1,left,none,-99,-99,0.5,0,none,6,20,Woman,Right,
20,1,2,0.716837100000248,['n'],1,right,none,-99,-99,0.5,0,none,6,20,Woman,Right,
21,1,2,0.6490754000001289,['c'],1,left,none,-99,-99,0.5,0,none,6,20,Woman,Right,
22,1,2,1.6502369999998336,['n'],1,right,none,-99,-99,0.5,0,none,6,20,Woman,Right,
23,1,2,1.9996874000003118,['c'],1,left,none,-99,-99,0.5,0,none,6,20,Woman,Right,
0,2,1,1.1181901999998445,['c'],0,right,none,-99,-99,0.1,0,none,6,20,Woman,Right,
1,2,1,1.7505119999996168,['c'],1,left,none,-99,-99,0.4,0,none,6,20,Woman,Right,
2,2,1,0.7494778999998744,['n'],1,right,none,-99,-99,0.1,0,none,6,20,Woman,Right,
3,2,1,0.7510849000000235,['n'],0,left,none,-99,-99,0.2,0,none,6,20,Woman,Right,
4,2,1,0.6177360000001499,['c'],0,right,none,-99,-99,0.2,0,none,6,20,Woman,Right,
5,2,1,0.6829889000000549,['n'],0,left,none,-99,-99,0.4,0,none,6,20,Woman,Right,
6,2,1,3.3815303000001222,['n'],0,left,none,-99,-99,0.1,0,none,6,20,Woman,Right,
7,2,1,1.833547499999895,['c'],1,left,none,-99,-99,0.2,0,none,6,20,Woman,Right,
8,2,1,1.8673761000000013,['c'],0,right,none,-99,-99,0.1,0,none,6,20,Woman,Right,
9,2,1,2.267782299999908,['c'],0,right,none,-99,-99,0.2,0,none,6,20,Woman,Right,
10,2,1,3.3839904000001297,['c'],0,right,none,-99,-99,0.4,0,none,6,20,Woman,Right,
11,2,1,3.0498806999999033,['c'],1,left,none,-99,-99,0.2,0,none,6,20,Woman,Right,
12,2,1,2.532904999999573,['c'],1,left,none,-99,-99,0.4,0,none,6,20,Woman,Right,
13,2,1,2.9668487999997524,['n'],1,right,none,-99,-99,0.1,0,none,6,20,Woman,Right,
14,2,1,2.066837100000157,['n'],1,right,none,-99,-99,0.1,0,none,6,20,Woman,Right,
15,2,1,1.1515792000000147,['n'],0,left,none,-99,-99,0.2,0,none,6,20,Woman,Right,
16,2,1,1.3166447000003245,['c'],1,left,none,-99,-99,0.4,0,none,6,20,Woman,Right,
17,2,1,3.583940200000143,['n'],0,left,none,-99,-99,0.2,0,none,6,20,Woman,Right,
18,2,1,1.017691200000172,['c'],1,left,none,-99,-99,0.1,0,none,6,20,Woman,Right,
19,2,1,1.050509200000306,['c'],0,right,none,-99,-99,0.2,0,none,6,20,Woman,Right,
20,2,1,3.5664040999999997,['c'],0,right,none,-99,-99,0.4,0,none,6,20,Woman,Right,
21,2,1,2.4172843999999714,['n'],0,left,none,-99,-99,0.1,0,none,6,20,Woman,Right,
22,2,1,1.9511059999999816,['c'],0,right,none,-99,-99,0.4,0,none,6,20,Woman,Right,
23,2,1,0.7510565000002316,['c'],0,right,none,-99,-99,0.4,0,none,6,20,Woman,Right,
0,2,2,3.7177311000000373,['c'],0,right,none,-99,-99,0.1,0,none,6,20,Woman,Right,
1,2,2,1.3499634999998307,['n'],0,left,none,-99,-99,0.4,0,none,6,20,Woman,Right,
2,2,2,0.7996809999999641,['c'],1,left,none,-99,-99,0.1,0,none,6,20,Woman,Right,
3,2,2,3.383373399999982,['c'],0,right,none,-99,-99,0.2,0,none,6,20,Woman,Right,
4,2,2,0.8511232000000746,['n'],1,right,none,-99,-99,0.2,0,none,6,20,Woman,Right,
5,2,2,3.0333455999998478,['n'],1,right,none,-99,-99,0.4,0,none,6,20,Woman,Right,
6,2,2,1.084049099999902,['c'],1,left,none,-99,-99,0.1,0,none,6,20,Woman,Right,
7,2,2,3.566457299999911,['n'],1,right,none,-99,-99,0.2,0,none,6,20,Woman,Right,
8,2,2,1.0837455999999293,['c'],0,right,none,-99,-99,0.1,0,none,6,20,Woman,Right,
9,2,2,1.2002301000002262,['c'],1,left,none,-99,-99,0.2,0,none,6,20,Woman,Right,
10,2,2,1.4322630000001482,['c'],0,right,none,-99,-99,0.4,0,none,6,20,Woman,Right,
11,2,2,1.0683377000000291,['c'],1,left,none,-99,-99,0.2,0,none,6,20,Woman,Right,
12,2,2,1.6669228000000658,['c'],0,right,none,-99,-99,0.4,0,none,6,20,Woman,Right,
13,2,2,1.5181397000001198,['c'],1,left,none,-99,-99,0.1,0,none,6,20,Woman,Right,
14,2,2,1.6827135000003182,['n'],0,left,none,-99,-99,0.1,0,none,6,20,Woman,Right,
15,2,2,0.7840055000001485,['c'],1,left,none,-99,-99,0.2,0,none,6,20,Woman,Right,
16,2,2,1.4332742999999937,['n'],0,left,none,-99,-99,0.4,0,none,6,20,Woman,Right,
17,2,2,1.8003513000003295,['n'],1,right,none,-99,-99,0.2,0,none,6,20,Woman,Right,
18,2,2,0.9670274000000063,['c'],1,left,none,-99,-99,0.1,0,none,6,20,Woman,Right,
19,2,2,1.6337106999999378,['c'],1,left,none,-99,-99,0.2,0,none,6,20,Woman,Right,
20,2,2,1.1014497999999548,['n'],1,right,none,-99,-99,0.4,0,none,6,20,Woman,Right,
21,2,2,3.199890900000355,['n'],1,right,none,-99,-99,0.1,0,none,6,20,Woman,Right,
22,2,2,2.016912499999762,['n'],1,right,none,-99,-99,0.4,0,none,6,20,Woman,Right,
23,2,2,1.5831353000003219,['n'],0,left,none,-99,-99,0.4,0,none,6,20,Woman,Right,
0,3,1,3.1500232000003052,['n'],1,right,['3'],4,1.1514814000001934,0.4,0,none,6,20,Woman,Right,
1,3,1,2.015183799999704,['n'],0,left,['2'],5,0.7854305999999269,0.4,0,none,6,20,Woman,Right,
2,3,1,2.315583300000071,['n'],0,left,['2'],5,0.7853455999998005,0.4,0,none,6,20,Woman,Right,
3,3,1,2.31693069999983,['n'],0,left,['8'],3,0.3494788999996672,0.1,0,none,6,20,Woman,Right,
4,3,1,0.9343899999998939,['n'],1,right,['2'],5,0.25008740000021135,0.4,0,none,6,20,Woman,Right,
5,3,1,0.9338048000004164,['n'],0,left,['1'],6,0.18412760000001072,0.1,0,none,6,20,Woman,Right,
6,3,1,0.9994841999996424,['n'],1,right,['2'],5,0.28342390000034356,0.4,0,none,6,20,Woman,Right,
7,3,1,0.6513958999998977,['n'],1,right,['2'],5,0.26823960000001534,0.1,0,none,6,20,Woman,Right,
8,3,1,0.7171597000001384,['n'],1,right,['2'],5,0.1514273000002504,0.1,0,none,6,20,Woman,Right,
9,3,1,1.483261599999878,['n'],0,left,['2'],5,0.23500100000001112,0.4,0,none,6,20,Woman,Right,
10,3,1,2.5993109999999433,['n'],1,right,['2'],5,0.3179343000001609,0.2,0,none,6,20,Woman,Right,
11,3,1,1.267134900000201,['n'],1,right,['2'],5,0.3161352000001898,0.4,0,none,6,20,Woman,Right,
12,3,1,1.7845886999998584,['n'],1,right,['3'],4,0.2847732000000178,0.1,0,none,6,20,Woman,Right,
13,3,1,4.766892499999813,['n'],1,right,['3'],4,0.5013539000001401,0.2,0,none,6,20,Woman,Right,
14,3,1,0.9836798000001181,['n'],1,right,['8'],3,0.40147709999973813,0.4,0,none,6,20,Woman,Right,
15,3,1,0.7325447000002896,['n'],0,left,['8'],3,0.9354114000002482,0.1,0,none,6,20,Woman,Right,
16,3,1,1.6503806000000623,['c'],1,left,['2'],5,0.26585190000014336,0.2,0,none,6,20,Woman,Right,
17,3,1,1.2188202000002093,['n'],0,left,['8'],3,0.5177986999997302,0.2,0,none,6,20,Woman,Right,
18,3,1,1.4331942000003437,['c'],1,left,['3'],4,0.21807140000009895,0.1,0,none,6,20,Woman,Right,
19,3,1,0.8331889000000956,['n'],1,right,['3'],4,0.4005349999997634,0.2,0,none,6,20,Woman,Right,
20,3,1,2.6167819999996027,['c'],1,left,['2'],5,0.7835312000001977,0.1,0,none,6,20,Woman,Right,
21,3,1,1.1329187999999704,['n'],1,right,['8'],3,0.2513318999999683,0.2,0,none,6,20,Woman,Right,
22,3,1,1.017428099999961,['n'],0,left,['9'],2,0.21781629999986762,0.2,0,none,6,20,Woman,Right,
23,3,1,3.866163400000005,['n'],0,left,['0'],1,1.0159834999999475,0.2,0,none,6,20,Woman,Right,
0,4,1,1.13424410000016,['n'],0,left,['2'],5,0.4341164000002209,0.1,0,FastFast,6,20,Woman,Right,
1,4,1,0.6178092999998626,['n'],1,right,['3'],4,0.2178727999998955,0.2,0,FastFast,6,20,Woman,Right,
2,4,1,1.0151922999998533,['c'],1,left,['3'],4,0.08439659999976357,0.4,0,FastFast,6,20,Woman,Right,
3,4,1,0.8178139999999985,['n'],0,left,['8'],3,0.26608400000031907,0.1,0,FastFast,6,20,Woman,Right,
4,4,1,0.985851399999774,['n'],0,left,['3'],4,0.11664699999982986,0.4,0,FastFast,6,20,Woman,Right,
5,4,1,0.4678192000001218,['n'],0,left,['2'],5,0.08458199999995486,0.1,0,FastFast,6,20,Woman,Right,
6,4,1,0.5163840999998683,['n'],1,right,['2'],5,0.03467399999999543,0.1,0,FastFast,6,20,Woman,Right,
7,4,1,0.600402000000031,['n'],1,right,['2'],5,0.16764850000026854,0.1,0,FastFast,6,20,Woman,Right,
8,4,1,0.9656298999998398,['c'],1,left,['3'],4,0.05156740000029458,0.2,0,FastFast,6,20,Woman,Right,
9,4,1,0.7505443000000014,['n'],1,right,['8'],3,0.15173360000017055,0.4,0,FastFast,6,20,Woman,Right,
10,4,1,0.5336895000000368,['n'],1,right,['8'],3,0.21676769999976386,0.1,0,FastFast,6,20,Woman,Right,
11,4,1,0.41662559999986115,['n'],1,right,['2'],5,0.21760119999999006,0.2,0,FastFast,6,20,Woman,Right,
12,4,1,0.46783140000025014,['n'],0,left,['8'],3,0.2015819999996893,0.1,0,FastFast,6,20,Woman,Right,
13,4,1,0.33357310000019424,['n'],0,left,['3'],4,0.1520181999999295,0.1,0,FastFast,6,20,Woman,Right,
14,4,1,0.5505057999998826,['c'],0,right,['3'],4,0.08489240000017162,0.4,0,FastFast,6,20,Woman,Right,
15,4,1,0.49999769999976706,['c'],1,left,['3'],4,0.10175049999998009,0.4,0,FastFast,6,20,Woman,Right,
16,4,1,0.6177139999999781,['n'],1,right,['8'],3,0.11806760000035865,0.2,0,FastFast,6,20,Woman,Right,
17,4,1,0.5337271000003057,['n'],1,right,['9'],2,0.13496429999986503,0.4,0,FastFast,6,20,Woman,Right,
18,4,1,0.5827193000000079,['c'],1,left,['2'],5,0.3007403000001432,0.4,0,FastFast,6,20,Woman,Right,
19,4,1,0.9508962999998403,['n'],0,left,['8'],3,0.11810409999998228,0.2,0,FastFast,6,20,Woman,Right,
20,4,1,0.915861699999823,['n'],1,right,['3'],4,0.18479430000024877,0.4,0,FastFast,6,20,Woman,Right,
21,4,1,0.833537299999989,['c'],1,left,['2'],5,0.10126589999981661,0.4,0,FastFast,6,20,Woman,Right,
22,4,1,0.8669305000003078,['c'],1,left,['2'],5,0.06805839999969976,0.4,0,FastFast,6,20,Woman,Right,
23,4,1,0.6173905999999079,['c'],1,left,['1'],6,0.16879740000013044,0.1,0,FastFast,6,20,Woman,Right,
24,4,1,1.2828920000001744,['n'],1,right,['2'],5,0.10129649999998946,0.4,0,FastFast,6,20,Woman,Right,
25,4,1,0.6662271999998666,['n'],1,right,['2'],5,0.05161580000003596,0.2,0,FastFast,6,20,Woman,Right,
26,4,1,0.9174164999999448,['n'],0,left,['2'],5,0.1348041999999623,0.1,0,FastFast,6,20,Woman,Right,
27,4,1,0.6653071999999156,['n'],1,right,['2'],5,0.2191856999997981,0.4,0,FastFast,6,20,Woman,Right,
28,4,1,1.0839757999997346,['c'],0,right,['1'],6,0.10146979999990435,0.2,0,FastFast,6,20,Woman,Right,
29,4,1,0.8337902000002941,['c'],1,left,['1'],6,0.10144019999961529,0.1,0,FastFast,6,20,Woman,Right,
30,4,1,0.7327733000001899,['n'],1,right,['0'],1,0.13502740000012636,0.4,0,FastFast,6,20,Woman,Right,
31,4,1,0.6170734000002085,['n'],0,left,['0'],1,0.2682403999997405,0.1,0,FastFast,6,20,Woman,Right,
32,4,1,0.865974400000141,['n'],1,right,['9'],2,0.3008193000000574,0.4,0,FastFast,6,20,Woman,Right,
33,4,1,0.9001599000002898,['c'],1,left,['3'],4,0.11864029999969716,0.2,0,FastFast,6,20,Woman,Right,
34,4,1,0.6155558999998902,['n'],1,right,['8'],3,0.05213689999982307,0.1,0,FastFast,6,20,Woman,Right,
35,4,1,0.799590900000112,['n'],1,right,['8'],3,0.13486860000011802,0.1,0,FastFast,6,20,Woman,Right,
36,4,1,0.5839421999999104,['n'],0,left,['8'],3,0.15127940000002127,0.2,0,FastFast,6,20,Woman,Right,
37,4,1,1.0838636000003135,['c'],1,left,['3'],4,0.15190519999987373,0.4,0,FastFast,6,20,Woman,Right,
38,4,1,1.2002744999999777,['n'],1,right,['8'],3,0.20177289999992354,0.1,0,FastFast,6,20,Woman,Right,
39,4,1,0.5500732000000426,['c'],1,left,['3'],4,0.06661320000011983,0.2,0,FastFast,6,20,Woman,Right,
40,4,1,0.4171787000000222,['n'],0,left,['8'],3,0.1333835000000363,0.2,0,FastFast,6,20,Woman,Right,
41,4,1,0.3501820999999836,['n'],1,right,['9'],2,0.16810769999983677,0.2,0,FastFast,6,20,Woman,Right,
42,4,1,1.0004871000001003,['n'],0,left,['9'],2,0.20177029999968,0.2,0,FastFast,6,20,Woman,Right,
43,4,1,1.0497558000001845,['n'],0,left,['9'],2,0.6857939999999871,0.2,0,FastFast,6,20,Woman,Right,
44,4,1,1.3335677999998552,['n'],1,right,['9'],2,0.11816159999989395,0.1,0,FastFast,6,20,Woman,Right,
45,4,1,0.4340109999998276,['n'],0,left,['9'],2,0.11798839999983102,0.2,0,FastFast,6,20,Woman,Right,
46,4,1,0.36704660000032163,['c'],1,left,['3'],4,0.08482320000030086,0.4,0,FastFast,6,20,Woman,Right,
47,4,1,0.26559350000025006,['n'],1,right,['9'],2,0.0853783000002295,0.1,0,FastFast,6,20,Woman,Right,
48,4,1,0.3163492000003316,['n'],1,right,['8'],3,0.1350959999999759,0.2,0,FastFast,6,20,Woman,Right,
49,4,1,0.21733150000000023,['n'],0,left,['9'],2,0.1348588999999265,0.2,0,FastFast,6,20,Woman,Right,
50,4,1,0.300549200000205,['n'],1,right,['9'],2,0.11807100000032733,0.4,0,FastFast,6,20,Woman,Right,
51,4,1,0.3169723000000886,['n'],0,left,['9'],2,0.16804679999995642,0.4,0,FastFast,6,20,Woman,Right,
52,4,1,0.2503406000000723,['n'],0,left,['9'],2,0.23490399999991496,0.1,0,FastFast,6,20,Woman,Right,
53,4,1,0.31676840000000084,['n'],0,left,['9'],2,0.13474509999969086,0.1,0,FastFast,6,20,Woman,Right,
54,4,1,0.5332177999998748,['n'],1,right,['9'],2,0.6334697000002052,0.4,0,FastFast,6,20,Woman,Right,
55,4,1,0.5672386000001097,['n'],1,right,['8'],3,0.23475210000015068,0.1,0,FastFast,6,20,Woman,Right,
56,4,1,0.6669951000003493,['n'],1,right,['9'],2,0.13565459999972518,0.2,0,FastFast,6,20,Woman,Right,
57,4,1,0.6164670999996815,['n'],1,right,['8'],3,0.1666586000001189,0.2,0,FastFast,6,20,Woman,Right,
58,4,1,0.7843624999995882,['c'],0,right,['3'],4,0.21659989999989193,0.4,0,FastFast,6,20,Woman,Right,
59,4,1,0.7503452999999354,['n'],1,right,['8'],3,0.2009155999999166,0.2,0,FastFast,6,20,Woman,Right,
0,5,1,0.883805399999801,['n'],0,left,['8'],3,0.10142249999989872,0.4,0,AccFast,6,20,Woman,Right,
1,5,1,2.5669897000002493,['n'],1,right,['9'],2,0.718063699999675,0.4,0,AccFast,6,20,Woman,Right,
2,5,1,1.116581799999949,['n'],0,left,['2'],5,0.11805890000005093,0.2,0,AccFast,6,20,Woman,Right,
3,5,1,3.051598600000034,['n'],1,right,['3'],4,0.2679711999999199,0.1,0,AccFast,6,20,Woman,Right,
4,5,1,1.5505081999999675,['n'],0,left,['9'],2,0.13597110000000612,0.1,0,AccFast,6,20,Woman,Right,
5,5,1,0.9337497000001349,['n'],1,right,['8'],3,0.13485179999997854,0.2,0,AccFast,6,20,Woman,Right,
6,5,1,1.0343636000002334,['n'],0,left,['8'],3,0.13347340000018448,0.1,0,AccFast,6,20,Woman,Right,
7,5,1,0.8336479999998119,['n'],1,right,['9'],2,0.10212459999956991,0.2,0,AccFast,6,20,Woman,Right,
8,5,1,0.7995405000001483,['n'],1,right,['8'],3,0.051889000000301166,0.4,0,AccFast,6,20,Woman,Right,
9,5,1,0.6672601999998733,['n'],1,right,['8'],3,0.08478749999994761,0.4,0,AccFast,6,20,Woman,Right,
10,5,1,0.7163267000000815,['n'],1,right,['8'],3,0.06676280000010593,0.2,0,AccFast,6,20,Woman,Right,
11,5,1,0.8510172000001148,['n'],0,left,['8'],3,0.1334447999997792,0.4,0,AccFast,6,20,Woman,Right,
12,5,1,0.6664841000001616,['n'],1,right,['8'],3,0.06888309999976627,0.2,0,AccFast,6,20,Woman,Right,
13,5,1,1.017279099999996,['c'],1,left,['3'],4,0.08481249999977081,0.4,0,AccFast,6,20,Woman,Right,
14,5,1,3.3987466999997196,['n'],0,left,['2'],5,0.25221090000013646,0.4,0,AccFast,6,20,Woman,Right,
15,5,1,1.0164018999998916,['n'],1,right,['8'],3,0.15231760000006034,0.4,0,AccFast,6,20,Woman,Right,
16,5,1,1.0172890000003463,['n'],1,right,['0'],1,0.1841776999999638,0.1,0,AccFast,6,20,Woman,Right,
17,5,1,1.6663426999998592,['c'],0,right,['2'],5,0.10151619999987815,0.2,0,AccFast,6,20,Woman,Right,
18,5,1,0.6982487999998739,['n'],0,left,['8'],3,0.08426180000014938,0.2,0,AccFast,6,20,Woman,Right,
19,5,1,0.9843273000001318,['n'],0,left,['0'],1,0.2852516999996624,0.1,0,AccFast,6,20,Woman,Right,
20,5,1,0.7004569000000629,['n'],0,left,['9'],2,0.08462919999965379,0.1,0,AccFast,6,20,Woman,Right,
21,5,1,1.5666102000000137,['n'],1,right,['9'],2,0.11820410000018455,0.1,0,AccFast,6,20,Woman,Right,
22,5,1,0.9671395999998822,['n'],1,right,['0'],1,0.35100820000025124,0.4,0,AccFast,6,20,Woman,Right,
23,5,1,0.5503963999999542,['c'],1,left,['3'],4,0.10162179999997534,0.1,0,AccFast,6,20,Woman,Right,
24,5,1,0.5003845000001093,['n'],1,right,['3'],4,0.5680397000000994,0.2,0,AccFast,6,20,Woman,Right,
25,5,1,0.8008815000002869,['n'],0,left,['9'],2,0.7667958000001818,0.1,0,AccFast,6,20,Woman,Right,
26,5,1,0.8179948000001787,['n'],0,left,['9'],2,0.1019442000001618,0.1,0,AccFast,6,20,Woman,Right,
27,5,1,0.26775279999992563,['n'],1,right,['8'],3,0.13573679999990418,0.2,0,AccFast,6,20,Woman,Right,
28,5,1,0.36710820000007516,['c'],0,right,['3'],4,0.1507763999998133,0.4,0,AccFast,6,20,Woman,Right,
29,5,1,0.7838397000000441,['n'],1,right,['9'],2,0.16816170000038255,0.2,0,AccFast,6,20,Woman,Right,
30,5,1,0.5501242999998794,['n'],1,right,['9'],2,0.13450650000004316,0.4,0,AccFast,6,20,Woman,Right,
31,5,1,0.48438690000011775,['c'],1,left,['3'],4,0.10194180000007691,0.2,0,AccFast,6,20,Woman,Right,
32,5,1,0.9167180999997981,['n'],0,left,['0'],1,0.1516765999999734,0.1,0,AccFast,6,20,Woman,Right,
33,5,1,0.750729500000034,['n'],1,right,['0'],1,0.15145200000006298,0.2,0,AccFast,6,20,Woman,Right,
34,5,1,1.4000663000001623,['c'],1,left,['0'],1,0.15092090000007374,0.2,0,AccFast,6,20,Woman,Right,
35,5,1,0.41710310000007667,['c'],0,right,['9'],2,0.2679139000001669,0.4,0,AccFast,6,20,Woman,Right,
36,5,1,0.9009504000000561,['c'],1,left,['9'],2,0.16701400000010835,0.2,0,AccFast,6,20,Woman,Right,
37,5,1,0.8173672000002625,['c'],0,right,['8'],3,0.4848661999999422,0.4,0,AccFast,6,20,Woman,Right,
38,5,1,2.4835297999998147,['n'],1,right,['8'],3,0.11909379999997327,0.4,0,AccFast,6,20,Woman,Right,
39,5,1,0.7339838999996573,['n'],0,left,['8'],3,0.1351105999997344,0.4,0,AccFast,6,20,Woman,Right,
40,5,1,0.4487448999998378,['n'],0,left,['8'],3,0.3511908000000403,0.1,0,AccFast,6,20,Woman,Right,
41,5,1,0.634349899999961,['n'],1,right,['8'],3,0.10089319999997315,0.1,0,AccFast,6,20,Woman,Right,
42,5,1,0.6845911000000342,['n'],0,left,['8'],3,0.08476610000025175,0.2,0,AccFast,6,20,Woman,Right,
43,5,1,1.050041400000282,['n'],0,left,['8'],3,0.167928700000175,0.1,0,AccFast,6,20,Woman,Right,
44,5,1,0.4495040000001609,['n'],1,right,['8'],3,0.15167650000012145,0.2,0,AccFast,6,20,Woman,Right,
45,5,1,0.7015996000000086,['n'],1,right,['8'],3,0.18465639999976702,0.2,0,AccFast,6,20,Woman,Right,
46,5,1,0.2836915000002591,['n'],0,left,['8'],3,0.1514025000001311,0.1,0,AccFast,6,20,Woman,Right,
47,5,1,0.29992300000003524,['n'],0,left,['8'],3,0.1691475000002356,0.2,0,AccFast,6,20,Woman,Right,
48,5,1,0.3169527999998536,['n'],0,left,['8'],3,0.2527399999999034,0.1,0,AccFast,6,20,Woman,Right,
49,5,1,0.015823700000055396,['n'],1,right,['9'],2,0.30199750000019776,0.1,0,AccFast,6,20,Woman,Right,
50,5,1,0.7347763000002487,['n'],1,right,['9'],2,0.11730110000007699,0.4,0,AccFast,6,20,Woman,Right,
51,5,1,0.31694119999974646,['c'],1,left,['9'],2,0.15139739999995072,0.1,0,AccFast,6,20,Woman,Right,
52,5,1,0.26632310000013604,['c'],1,left,['3'],4,0.651507699999911,0.4,0,AccFast,6,20,Woman,Right,
53,5,1,0.9167700999996669,['n'],0,left,['8'],3,0.11806190000015704,0.4,0,AccFast,6,20,Woman,Right,
54,5,1,0.35106690000020535,['n'],1,right,['8'],3,0.10007919999998194,0.2,0,AccFast,6,20,Woman,Right,
55,5,1,0.05009960000006686,['n'],1,right,['9'],2,0.15146379999987403,0.1,0,AccFast,6,20,Woman,Right,
56,5,1,0.7488052000003336,['n'],0,left,['9'],2,0.15073789999996734,0.4,0,AccFast,6,20,Woman,Right,
57,5,1,1.6326881999998477,['n'],0,left,['9'],2,0.11812559999998484,0.2,0,AccFast,6,20,Woman,Right,
58,5,1,1.0003216000000066,['n'],1,right,['3'],4,0.2515220999998746,0.4,0,AccFast,6,20,Woman,Right,
59,5,1,1.4337274999998044,['c'],1,left,['2'],5,0.21844710000004852,0.1,0,AccFast,6,20,Woman,Right,
0,6,1,2.75067319999971,['n'],0,left,['3'],4,1.268050900000162,0.1,0,AccAcc,6,20,Woman,Right,
1,6,1,2.1326741000002585,['n'],1,right,['2'],5,0.33457570000018677,0.4,0,AccAcc,6,20,Woman,Right,
2,6,1,1.4816823999999542,['n'],1,right,['3'],4,0.35155669999994643,0.4,0,AccAcc,6,20,Woman,Right,
3,6,1,1.4008151999996699,['n'],1,right,['2'],5,0.23469150000028094,0.1,0,AccAcc,6,20,Woman,Right,
4,6,1,1.0504025000000183,['n'],1,right,['2'],5,0.20121199999994133,0.2,0,AccAcc,6,20,Woman,Right,
5,6,1,1.4827021000000968,['n'],0,left,['2'],5,0.368952100000115,0.2,0,AccAcc,6,20,Woman,Right,
6,6,1,1.2171685999996953,['n'],0,left,['2'],5,0.3013148000000001,0.1,0,AccAcc,6,20,Woman,Right,
7,6,1,1.1003962999998294,['n'],1,right,['2'],5,0.26805609999973967,0.2,0,AccAcc,6,20,Woman,Right,
8,6,1,1.2504060000001118,['n'],1,right,['2'],5,0.3844367000001512,0.4,0,AccAcc,6,20,Woman,Right,
9,6,1,0.9663783999999396,['n'],0,left,['2'],5,0.2512662999997701,0.4,0,AccAcc,6,20,Woman,Right,
10,6,1,0.7847302000000127,['n'],1,right,['2'],5,0.200720000000274,0.4,0,AccAcc,6,20,Woman,Right,
11,6,1,0.9004801999999472,['n'],0,left,['2'],5,0.3018031000001429,0.2,0,AccAcc,6,20,Woman,Right,
12,6,1,0.46716109999988475,['n'],0,left,['2'],5,0.30128960000001825,0.1,0,AccAcc,6,20,Woman,Right,
13,6,1,1.1831803000000036,['n'],1,right,['2'],5,0.35214640000003783,0.2,0,AccAcc,6,20,Woman,Right,
14,6,1,1.6169788000001972,['n'],0,left,['2'],5,0.2334910000004129,0.4,0,AccAcc,6,20,Woman,Right,
15,6,1,1.5008714999999029,['n'],1,right,['2'],5,0.3181923000001916,0.4,0,AccAcc,6,20,Woman,Right,
16,6,1,1.5006287000001066,['n'],1,right,['3'],4,0.2014567999999599,0.1,0,AccAcc,6,20,Woman,Right,
17,6,1,1.1494219999999586,['n'],0,left,['3'],4,0.2849164999997811,0.4,0,AccAcc,6,20,Woman,Right,
18,6,1,0.7997193999999581,['n'],1,right,['3'],4,0.20136649999994916,0.4,0,AccAcc,6,20,Woman,Right,
19,6,1,0.8339418999998998,['n'],0,left,['3'],4,0.23462060000019846,0.2,0,AccAcc,6,20,Woman,Right,
20,6,1,1.467383499999869,['n'],1,right,['3'],4,0.19985459999998056,0.2,0,AccAcc,6,20,Woman,Right,
21,6,1,1.4346593999998731,['n'],1,right,['9'],2,0.3513692000001356,0.2,0,AccAcc,6,20,Woman,Right,
22,6,1,0.7341307000001507,['n'],0,left,['8'],3,0.21840379999957804,0.1,0,AccAcc,6,20,Woman,Right,
23,6,1,0.5665280999996867,['n'],0,left,['8'],3,0.1513966000002256,0.2,0,AccAcc,6,20,Woman,Right,
24,6,1,0.6838357999999971,['n'],1,right,['8'],3,0.11713979999967705,0.1,0,AccAcc,6,20,Woman,Right,
25,6,1,1.4666927999996915,['n'],1,right,['3'],4,0.23354359999984808,0.2,0,AccAcc,6,20,Woman,Right,
26,6,1,1.1846050999997715,['c'],1,left,['9'],2,0.6847544999995989,0.1,0,AccAcc,6,20,Woman,Right,
27,6,1,0.399596400000064,['n'],0,left,['8'],3,0.3493419999999787,0.1,0,AccAcc,6,20,Woman,Right,
28,6,1,0.8011412999999266,['n'],0,left,['9'],2,0.15253059999986363,0.4,0,AccAcc,6,20,Woman,Right,
29,6,1,0.9339585000002444,['n'],0,left,['8'],3,0.23381679999965854,0.2,0,AccAcc,6,20,Woman,Right,
30,6,1,0.8172129999998106,['n'],1,right,['8'],3,0.2515404999999191,0.1,0,AccAcc,6,20,Woman,Right,
31,6,1,0.48446289999992587,['n'],0,left,['3'],4,0.3841603999999279,0.2,0,AccAcc,6,20,Woman,Right,
32,6,1,0.7841726999999992,['n'],1,right,['2'],5,0.41790549999996074,0.4,0,AccAcc,6,20,Woman,Right,
33,6,1,1.0996822999995857,['n'],0,left,['9'],2,0.21809729999995398,0.4,0,AccAcc,6,20,Woman,Right,
34,6,1,0.8325806000002558,['n'],0,left,['2'],5,0.2353651000003083,0.1,0,AccAcc,6,20,Woman,Right,
35,6,1,0.7170554000003904,['n'],0,left,['2'],5,0.21787099999983184,0.2,0,AccAcc,6,20,Woman,Right,
36,6,1,0.700430200000028,['n'],1,right,['1'],6,0.24977669999998398,0.4,0,AccAcc,6,20,Woman,Right,
37,6,1,0.6992338999998537,['n'],1,right,['3'],4,0.25204589999975724,0.2,0,AccAcc,6,20,Woman,Right,
38,6,1,0.6003099999998085,['n'],1,right,['2'],5,0.15133889999970052,0.1,0,AccAcc,6,20,Woman,Right,
39,6,1,0.5671348000000762,['n'],1,right,['2'],5,0.15134309999984907,0.4,0,AccAcc,6,20,Woman,Right,
40,6,1,2.8171371999997064,['n'],1,right,['0'],1,0.2166026999998394,0.1,0,AccAcc,6,20,Woman,Right,
41,6,1,0.8012711000001218,['n'],0,left,['9'],2,0.20062219999999797,0.4,0,AccAcc,6,20,Woman,Right,
42,6,1,0.4001181000003271,['n'],0,left,['9'],2,0.20136430000002292,0.1,0,AccAcc,6,20,Woman,Right,
43,6,1,0.6169617000000471,['n'],1,right,['9'],2,0.20132439999997587,0.4,0,AccAcc,6,20,Woman,Right,
44,6,1,0.767244699999992,['n'],0,left,['8'],3,0.26878480000004856,0.4,0,AccAcc,6,20,Woman,Right,
45,6,1,1.1648591000002853,['n'],0,left,['9'],2,0.23663100000021586,0.1,0,AccAcc,6,20,Woman,Right,
46,6,1,0.4673419000000649,['n'],0,left,['3'],4,0.2846962999997231,0.1,0,AccAcc,6,20,Woman,Right,
47,6,1,0.4839019000000917,['n'],1,right,['9'],2,0.20143350000034843,0.2,0,AccAcc,6,20,Woman,Right,
48,6,1,0.5339002000000619,['n'],0,left,['8'],3,0.3334512999999788,0.1,0,AccAcc,6,20,Woman,Right,
49,6,1,0.26671570000007705,['n'],1,right,['8'],3,0.13487139999961073,0.1,0,AccAcc,6,20,Woman,Right,
50,6,1,0.382929299999887,['n'],0,left,['8'],3,0.13427429999956075,0.1,0,AccAcc,6,20,Woman,Right,
51,6,1,0.40052689999993163,['c'],0,right,['9'],2,0.2513697000003958,0.1,0,AccAcc,6,20,Woman,Right,
52,6,1,0.6171737000004214,['c'],0,right,['3'],4,0.2514024000001882,0.2,0,AccAcc,6,20,Woman,Right,
53,6,1,0.26706689999991795,['n'],1,right,['9'],2,0.11790650000011738,0.2,0,AccAcc,6,20,Woman,Right,
54,6,1,0.6150995000002695,['n'],0,left,['8'],3,0.10195029999977123,0.2,0,AccAcc,6,20,Woman,Right,
55,6,1,1.1163037000001168,['n'],1,right,['8'],3,0.13468520000014905,0.4,0,AccAcc,6,20,Woman,Right,
56,6,1,0.8673173000001952,['n'],0,left,['9'],2,0.3014488999997411,0.2,0,AccAcc,6,20,Woman,Right,
57,6,1,0.6837430999999015,['n'],0,left,['8'],3,0.11752070000011372,0.2,0,AccAcc,6,20,Woman,Right,
58,6,1,0.716483000000153,['n'],1,right,['8'],3,0.26838660000021264,0.4,0,AccAcc,6,20,Woman,Right,
59,6,1,0.6491283999998814,['n'],0,left,['8'],3,0.18558660000007876,0.4,0,AccAcc,6,20,Woman,Right,
0,7,1,0.5338904999998704,['n'],0,left,['8'],3,0.15134970000008252,0.2,0,FastAcc,6,20,Woman,Right,
1,7,1,0.5166494000000057,['c'],0,right,['3'],4,0.18501100000003134,0.4,0,FastAcc,6,20,Woman,Right,
2,7,1,0.6006333000000268,['c'],1,left,['0'],1,0.6520015000000967,0.1,0,FastAcc,6,20,Woman,Right,
3,7,1,0.6169924000000719,['n'],0,left,['9'],2,0.20193289999997432,0.1,0,FastAcc,6,20,Woman,Right,
4,7,1,0.5504218999999466,['n'],0,left,['8'],3,0.18376230000012583,0.2,0,FastAcc,6,20,Woman,Right,
5,7,1,0.5005091000002722,['n'],0,left,['0'],1,0.1678581999999551,0.2,0,FastAcc,6,20,Woman,Right,
6,7,1,0.7176546000000599,['n'],1,right,['2'],5,1.6181499000003896,0.2,0,FastAcc,6,20,Woman,Right,
7,7,1,1.1498321999997643,['c'],0,right,['2'],5,0.21710740000025908,0.1,0,FastAcc,6,20,Woman,Right,
8,7,1,0.59914020000042,['c'],0,right,['3'],4,0.10222280000016326,0.2,0,FastAcc,6,20,Woman,Right,
9,7,1,0.2657560999996349,['n'],0,left,['8'],3,0.20256019999987984,0.1,0,FastAcc,6,20,Woman,Right,
10,7,1,0.3162937000001875,['c'],1,left,['3'],4,0.11778610000010303,0.2,0,FastAcc,6,20,Woman,Right,
11,7,1,0.31713929999978063,['c'],1,left,['2'],5,0.11844599999994898,0.1,0,FastAcc,6,20,Woman,Right,
12,7,1,0.884298200000103,['c'],0,right,['3'],4,0.28485989999990124,0.4,0,FastAcc,6,20,Woman,Right,
13,7,1,0.34911319999991974,['c'],0,right,['3'],4,0.18564939999987473,0.2,0,FastAcc,6,20,Woman,Right,
14,7,1,0.5009323999997832,['n'],0,left,['9'],2,0.13432449999982055,0.2,0,FastAcc,6,20,Woman,Right,
15,7,1,0.2991679000001568,['n'],1,right,['8'],3,0.3183310999997957,0.4,0,FastAcc,6,20,Woman,Right,
16,7,1,0.3171486000001096,['n'],0,left,['0'],1,0.15159610000000612,0.1,0,FastAcc,6,20,Woman,Right,
17,7,1,0.4994314000000486,['c'],1,left,['0'],1,0.5514219000001503,0.1,0,FastAcc,6,20,Woman,Right,
18,7,1,0.6670776000000842,['n'],1,right,['3'],4,0.6166069000000789,0.2,0,FastAcc,6,20,Woman,Right,
19,7,1,0.8165006999997786,['c'],1,left,['2'],5,0.21906440000020666,0.2,0,FastAcc,6,20,Woman,Right,
20,7,1,0.8320851999997103,['n'],0,left,['0'],1,0.23506199999974342,0.1,0,FastAcc,6,20,Woman,Right,
21,7,1,0.8010558999999375,['n'],1,right,['2'],5,0.33488670000042475,0.4,0,FastAcc,6,20,Woman,Right,
22,7,1,0.29994610000039756,['n'],0,left,['3'],4,0.4332822000001215,0.4,0,FastAcc,6,20,Woman,Right,
23,7,1,0.26758220000010624,['n'],1,right,['9'],2,0.11829230000012103,0.1,0,FastAcc,6,20,Woman,Right,
24,7,1,0.5992191000000275,['n'],0,left,['8'],3,0.1349385000003167,0.4,0,FastAcc,6,20,Woman,Right,
25,7,1,0.31766260000040347,['n'],0,left,['8'],3,0.15029230000027383,0.2,0,FastAcc,6,20,Woman,Right,
26,7,1,0.4176130999999259,['c'],0,right,['3'],4,0.11888790000011795,0.1,0,FastAcc,6,20,Woman,Right,
27,7,1,0.8175170000004073,['c'],0,right,['0'],1,0.33509949999961464,0.1,0,FastAcc,6,20,Woman,Right,
28,7,1,0.36538800000016636,['n'],1,right,['0'],1,0.13487750000012966,0.1,0,FastAcc,6,20,Woman,Right,
29,7,1,0.2669366000000082,['n'],1,right,['9'],2,0.13450980000015988,0.4,0,FastAcc,6,20,Woman,Right,
30,7,1,0.299100400000043,['n'],0,left,['8'],3,0.15261820000023363,0.1,0,FastAcc,6,20,Woman,Right,
31,7,1,0.3171204999998736,['c'],1,left,['2'],5,0.1355980000003001,0.2,0,FastAcc,6,20,Woman,Right,
32,7,1,0.4825871000002735,['c'],1,left,['1'],6,0.11887619999970411,0.4,0,FastAcc,6,20,Woman,Right,
33,7,1,0.31704880000006597,['n'],1,right,['0'],1,0.166748699999971,0.1,0,FastAcc,6,20,Woman,Right,
34,7,1,0.21805280000035054,['n'],1,right,['8'],3,0.15157120000003488,0.1,0,FastAcc,6,20,Woman,Right,
35,7,1,0.36634600000024875,['c'],0,right,['3'],4,0.15130839999983436,0.2,0,FastAcc,6,20,Woman,Right,
36,7,1,0.41664829999990616,['n'],1,right,['9'],2,0.300280400000247,0.1,0,FastAcc,6,20,Woman,Right,
37,7,1,0.45139819999985775,['c'],1,left,['3'],4,0.15114219999986744,0.4,0,FastAcc,6,20,Woman,Right,
38,7,1,0.2672584000001734,['n'],0,left,['9'],2,0.16800130000001445,0.1,0,FastAcc,6,20,Woman,Right,
39,7,1,0.25057939999987866,['n'],0,left,['0'],1,0.20022570000037376,0.2,0,FastAcc,6,20,Woman,Right,
40,7,1,0.5187757999997302,['n'],1,right,['0'],1,0.1851888000001054,0.4,0,FastAcc,6,20,Woman,Right,
41,7,1,0.4671918999997615,['n'],1,right,['0'],1,0.23486090000005788,0.2,0,FastAcc,6,20,Woman,Right,
42,7,1,0.30044950000001336,['n'],1,right,['9'],2,0.151708299999882,0.4,0,FastAcc,6,20,Woman,Right,
43,7,1,1.049158499999976,['n'],1,right,['9'],2,0.16889240000000427,0.2,0,FastAcc,6,20,Woman,Right,
44,7,1,0.21768100000008417,['n'],0,left,['8'],3,0.034664900000279886,0.4,0,FastAcc,6,20,Woman,Right,
45,7,1,0.36799959999962084,['c'],0,right,['3'],4,0.1347725000000537,0.4,0,FastAcc,6,20,Woman,Right,
46,7,1,0.417131000000154,['c'],0,right,['9'],2,0.11754040000005261,0.4,0,FastAcc,6,20,Woman,Right,
47,7,1,0.6993763000000399,['c'],1,left,['1'],6,0.6004569000001538,0.4,0,FastAcc,6,20,Woman,Right,
48,7,1,0.5829140000000734,['n'],0,left,['0'],1,0.184206500000073,0.1,0,FastAcc,6,20,Woman,Right,
49,7,1,0.46788889999970706,['n'],0,left,['8'],3,0.6994958000000224,0.4,0,FastAcc,6,20,Woman,Right,
50,7,1,0.769503700000314,['n'],1,right,['3'],4,0.11850839999988239,0.1,0,FastAcc,6,20,Woman,Right,
51,7,1,0.8498795000000428,['c'],1,left,['1'],6,0.3180145999999695,0.4,0,FastAcc,6,20,Woman,Right,
52,7,1,0.7164112999998906,['n'],1,right,['0'],1,0.1680688999999802,0.2,0,FastAcc,6,20,Woman,Right,
53,7,1,0.6338084999997591,['n'],1,right,['8'],3,0.1361160999999811,0.4,0,FastAcc,6,20,Woman,Right,
54,7,1,0.816430500000024,['c'],1,left,['2'],5,0.21896460000016305,0.4,0,FastAcc,6,20,Woman,Right,
55,7,1,0.8837869999997565,['n'],1,right,['2'],5,0.250085399999989,0.2,0,FastAcc,6,20,Woman,Right,
56,7,1,0.6178741000003356,['c'],1,left,['2'],5,0.11731529999997292,0.2,0,FastAcc,6,20,Woman,Right,
57,7,1,0.833705000000009,['n'],0,left,['3'],4,0.2177163000001201,0.4,0,FastAcc,6,20,Woman,Right,
58,7,1,0.6668868000001567,['c'],0,right,['3'],4,0.08507680000002438,0.2,0,FastAcc,6,20,Woman,Right,
59,7,1,0.7667845999999372,['n'],1,right,['9'],2,0.2006439000001592,0.1,0,FastAcc,6,20,Woman,Right,
0,8,1,0.26810710000017934,['n'],0,left,['9'],2,0.1186041999999361,0.1,0,FastFast,6,20,Woman,Right,
1,8,1,0.4156746999997267,['c'],0,right,['2'],5,0.0859386999995877,0.2,0,FastFast,6,20,Woman,Right,
2,8,1,0.3821050000001378,['n'],0,left,['0'],1,0.7521561000003203,0.2,0,FastFast,6,20,Woman,Right,
3,8,1,0.8004912000001241,['n'],1,right,['8'],3,0.11811460000035368,0.4,0,FastFast,6,20,Woman,Right,
4,8,1,0.5507552999997642,['c'],0,right,['1'],6,0.100621499999761,0.1,0,FastFast,6,20,Woman,Right,
5,8,1,0.6343668999998044,['n'],1,right,['1'],6,0.18517109999993409,0.2,0,FastFast,6,20,Woman,Right,
6,8,1,0.4505200000003242,['n'],1,right,['3'],4,0.28490480000027674,0.4,0,FastFast,6,20,Woman,Right,
7,8,1,0.9490660999999818,['c'],0,right,['1'],6,0.034155700000155775,0.1,0,FastFast,6,20,Woman,Right,
8,8,1,0.5174552999997104,['c'],1,left,['1'],6,0.10039050000023053,0.4,0,FastFast,6,20,Woman,Right,
9,8,1,0.5163844999997309,['c'],1,left,['0'],1,0.5173523999997087,0.2,0,FastFast,6,20,Woman,Right,
10,8,1,0.6843346999999085,['n'],0,left,['0'],1,0.7513551000001826,0.4,0,FastFast,6,20,Woman,Right,
11,8,1,0.6500691999999617,['n'],1,right,['8'],3,0.23367309999957797,0.1,0,FastFast,6,20,Woman,Right,
12,8,1,0.7512678000002779,['c'],1,left,['2'],5,0.10123139999996056,0.4,0,FastFast,6,20,Woman,Right,
13,8,1,0.717401300000347,['n'],1,right,['2'],5,0.05134440000028917,0.2,0,FastFast,6,20,Woman,Right,
14,8,1,0.7498394000003827,['c'],1,left,['2'],5,0.0848932999997487,0.1,0,FastFast,6,20,Woman,Right,
15,8,1,0.800050100000135,['n'],0,left,['2'],5,0.08484060000000682,0.4,0,FastFast,6,20,Woman,Right,
16,8,1,0.7009568000003128,['n'],1,right,['0'],1,0.15115749999995387,0.4,0,FastFast,6,20,Woman,Right,
17,8,1,0.38375330000008034,['c'],1,left,['3'],4,0.1182355999999345,0.2,0,FastFast,6,20,Woman,Right,
18,8,1,0.2834591000000728,['n'],0,left,['8'],3,0.10044340000013108,0.1,0,FastFast,6,20,Woman,Right,
19,8,1,0.23446859999967273,['n'],0,left,['9'],2,0.15157890000000407,0.1,0,FastFast,6,20,Woman,Right,
20,8,1,0.41759270000011384,['c'],1,left,['2'],5,0.1851434000000154,0.2,0,FastFast,6,20,Woman,Right,
21,8,1,0.40038789999971414,['c'],1,left,['2'],5,0.11801670000022568,0.1,0,FastFast,6,20,Woman,Right,
22,8,1,0.533792899999753,['c'],0,right,['2'],5,0.13501389999964886,0.4,0,FastFast,6,20,Woman,Right,
23,8,1,0.3513161000000764,['n'],1,right,['9'],2,0.13475710000011532,0.2,0,FastFast,6,20,Woman,Right,
24,8,1,0.633097600000383,['n'],1,right,['9'],2,0.2187407000001258,0.1,0,FastFast,6,20,Woman,Right,
25,8,1,0.23313670000015918,['n'],1,right,['8'],3,0.18395690000033937,0.1,0,FastFast,6,20,Woman,Right,
26,8,1,0.35084109999979773,['c'],0,right,['3'],4,0.08414840000023105,0.1,0,FastFast,6,20,Woman,Right,
27,8,1,0.40083010000034847,['c'],1,left,['1'],6,0.1357613999998648,0.2,0,FastFast,6,20,Woman,Right,
28,8,1,0.365803600000163,['c'],0,right,['2'],5,0.13579229999959352,0.4,0,FastFast,6,20,Woman,Right,
29,8,1,0.5005178000001251,['n'],1,right,['2'],5,0.13488260000031005,0.4,0,FastFast,6,20,Woman,Right,
30,8,1,0.5184411000000182,['n'],1,right,['2'],5,0.16814750000003187,0.2,0,FastFast,6,20,Woman,Right,
31,8,1,0.31737139999995634,['n'],0,left,['2'],5,0.15185859999974127,0.4,0,FastFast,6,20,Woman,Right,
32,8,1,0.25110750000021653,['n'],1,right,['9'],2,0.13495729999976902,0.1,0,FastFast,6,20,Woman,Right,
33,8,1,0.3170255999998517,['c'],0,right,['3'],4,0.15151920000016617,0.4,0,FastFast,6,20,Woman,Right,
34,8,1,0.2844884999999522,['n'],0,left,['0'],1,0.13515330000018366,0.2,0,FastFast,6,20,Woman,Right,
35,8,1,0.8839209000002484,['n'],1,right,['2'],5,0.16709820000005493,0.1,0,FastFast,6,20,Woman,Right,
36,8,1,0.35070939999968687,['c'],0,right,['9'],2,0.16730770000003758,0.1,0,FastFast,6,20,Woman,Right,
37,8,1,0.2848609000002398,['c'],0,right,['3'],4,0.15052150000019537,0.2,0,FastFast,6,20,Woman,Right,
38,8,1,0.26851940000005925,['n'],1,right,['8'],3,0.15016909999985728,0.4,0,FastFast,6,20,Woman,Right,
39,8,1,0.6678842000001168,['c'],0,right,['2'],5,0.18502799999987474,0.4,0,FastFast,6,20,Woman,Right,
40,8,1,0.24954040000011446,['n'],0,left,['9'],2,0.11806020000040007,0.4,0,FastFast,6,20,Woman,Right,
41,8,1,0.5340871000003062,['n'],0,left,['2'],5,0.1013796000002003,0.2,0,FastFast,6,20,Woman,Right,
42,8,1,0.5176329999999325,['c'],1,left,['2'],5,0.10156209999968269,0.1,0,FastFast,6,20,Woman,Right,
43,8,1,0.5996663000000808,['c'],0,right,['2'],5,0.08526019999999335,0.2,0,FastFast,6,20,Woman,Right,
44,8,1,0.4985010999998849,['n'],1,right,['2'],5,0.08517629999960263,0.4,0,FastFast,6,20,Woman,Right,
45,8,1,0.7345882999998139,['n'],0,left,['1'],6,0.08375309999973979,0.2,0,FastFast,6,20,Woman,Right,
46,8,1,0.6649643000000651,['c'],1,left,['0'],1,0.10156230000029609,0.2,0,FastFast,6,20,Woman,Right,
47,8,1,0.6170479999996132,['n'],0,left,['9'],2,0.133957399999872,0.2,0,FastFast,6,20,Woman,Right,
48,8,1,0.36798029999999926,['n'],0,left,['0'],1,0.1513278000002174,0.1,0,FastFast,6,20,Woman,Right,
49,8,1,0.3164679999999862,['c'],1,left,['3'],4,0.11894819999997708,0.4,0,FastFast,6,20,Woman,Right,
50,8,1,0.2499587000002066,['n'],0,left,['9'],2,0.1013398000000052,0.4,0,FastFast,6,20,Woman,Right,
51,8,1,0.16761189999988346,['n'],1,right,['8'],3,0.13494009999976697,0.1,0,FastFast,6,20,Woman,Right,
52,8,1,0.4003879999995661,['n'],1,right,['8'],3,0.21802600000000893,0.2,0,FastFast,6,20,Woman,Right,
53,8,1,0.6000472999999147,['n'],0,left,['8'],3,0.21762569999964398,0.2,0,FastFast,6,20,Woman,Right,
54,8,1,0.43417490000001635,['n'],1,right,['8'],3,2.5991742999999587,0.1,0,FastFast,6,20,Woman,Right,
55,8,1,0.3520082000000002,['n'],1,right,['0'],1,0.18477610000036293,0.4,0,FastFast,6,20,Woman,Right,
56,8,1,0.7340706999998474,['n'],0,left,['9'],2,0.2327314000003753,0.1,0,FastFast,6,20,Woman,Right,
57,8,1,0.4512062999997397,['n'],0,left,['0'],1,0.11781719999999041,0.4,0,FastFast,6,20,Woman,Right,
58,8,1,0.8497590000001765,['n'],0,left,['0'],1,0.11792579999973896,0.2,0,FastFast,6,20,Woman,Right,
59,8,1,0.5991908000000876,['c'],1,left,['3'],4,0.10166590000017095,0.1,0,FastFast,6,20,Woman,Right,
0,9,1,2.96588279999969,['n'],1,right,['2'],5,0.16940389999990657,0.1,0,AccFast,6,20,Woman,Right,
1,9,1,0.7838198000004013,['c'],1,left,['3'],4,0.10164819999999963,0.1,0,AccFast,6,20,Woman,Right,
2,9,1,0.6002598999998554,['c'],0,right,['2'],5,0.1514179000000695,0.4,0,AccFast,6,20,Woman,Right,
3,9,1,0.7838677000004282,['c'],1,left,['2'],5,0.13499219999994239,0.1,0,AccFast,6,20,Woman,Right,
4,9,1,0.3835870999996587,['c'],1,left,['3'],4,0.05136270000002696,0.4,0,AccFast,6,20,Woman,Right,
5,9,1,0.36734389999992345,['n'],0,left,['9'],2,0.25181709999969826,0.2,0,AccFast,6,20,Woman,Right,
6,9,1,0.2995506000002024,['c'],1,left,['3'],4,0.13494619999983115,0.4,0,AccFast,6,20,Woman,Right,
7,9,1,0.6327479000001404,['c'],0,right,['3'],4,0.1347835000001396,0.2,0,AccFast,6,20,Woman,Right,
8,9,1,0.299123100000088,['n'],1,right,['9'],2,0.2022990000000391,0.4,0,AccFast,6,20,Woman,Right,
9,9,1,0.3828935999999885,['c'],0,right,['3'],4,0.11797670000032667,0.2,0,AccFast,6,20,Woman,Right,
10,9,1,0.4156593999996403,['c'],0,right,['0'],1,0.20202680000011242,0.2,0,AccFast,6,20,Woman,Right,
11,9,1,0.36674470000025394,['c'],1,left,['9'],2,0.21881190000021888,0.4,0,AccFast,6,20,Woman,Right,
12,9,1,0.5008125999997901,['c'],0,right,['9'],2,0.16825410000001284,0.1,0,AccFast,6,20,Woman,Right,
13,9,1,0.43297590000020136,['c'],0,right,['8'],3,0.2684401000001344,0.1,0,AccFast,6,20,Woman,Right,
14,9,1,2.666694799999732,['n'],1,right,['2'],5,0.10171600000012404,0.1,0,AccFast,6,20,Woman,Right,
15,9,1,1.2999050999997053,['n'],0,left,['0'],1,0.13485959999979968,0.1,0,AccFast,6,20,Woman,Right,
16,9,1,0.6673335999998926,['c'],1,left,['8'],3,0.20071490000009362,0.2,0,AccFast,6,20,Woman,Right,
17,9,1,0.5013672000000042,['c'],1,left,['3'],4,0.15037580000034723,0.4,0,AccFast,6,20,Woman,Right,
18,9,1,0.8345365999998648,['n'],1,right,['2'],5,0.16819659999964642,0.1,0,AccFast,6,20,Woman,Right,
19,9,1,0.5997981999998956,['c'],0,right,['0'],1,0.16829120000011244,0.4,0,AccFast,6,20,Woman,Right,
20,9,1,1.3675809999999728,['n'],0,left,['0'],1,0.2508284000000458,0.2,0,AccFast,6,20,Woman,Right,
21,9,1,0.8664014999999381,['n'],1,right,['9'],2,0.10140480000018215,0.1,0,AccFast,6,20,Woman,Right,
22,9,1,0.6343136000000413,['n'],1,right,['8'],3,0.1500519000001077,0.2,0,AccFast,6,20,Woman,Right,
23,9,1,0.7665486999999302,['c'],1,left,['3'],4,0.08522360000006302,0.4,0,AccFast,6,20,Woman,Right,
24,9,1,0.8672498000000814,['n'],1,right,['9'],2,0.10129099999994651,0.2,0,AccFast,6,20,Woman,Right,
25,9,1,0.7857297000000472,['n'],0,left,['9'],2,0.11822080000001733,0.4,0,AccFast,6,20,Woman,Right,
26,9,1,0.7172188000004098,['n'],1,right,['9'],2,0.11661529999992126,0.1,0,AccFast,6,20,Woman,Right,
27,9,1,0.31707409999989977,['c'],1,left,['2'],5,0.10236590000022261,0.4,0,AccFast,6,20,Woman,Right,
28,9,1,0.41723069999989093,['n'],0,left,['9'],2,0.11808220000011715,0.2,0,AccFast,6,20,Woman,Right,
29,9,1,1.1502798999999868,['n'],0,left,['0'],1,0.13477289999991626,0.2,0,AccFast,6,20,Woman,Right,
30,9,1,0.5845678000000589,['n'],1,right,['0'],1,0.21785480000016832,0.4,0,AccFast,6,20,Woman,Right,
31,9,1,0.6330369000002065,['n'],0,left,['0'],1,0.1510707000002185,0.2,0,AccFast,6,20,Woman,Right,
32,9,1,0.3992507000002661,['n'],1,right,['0'],1,0.13554690000000846,0.1,0,AccFast,6,20,Woman,Right,
33,9,1,0.534327200000007,['n'],1,right,['9'],2,0.1846891999998661,0.4,0,AccFast,6,20,Woman,Right,
34,9,1,0.3003625999999713,['n'],0,left,['8'],3,0.13419659999999567,0.1,0,AccFast,6,20,Woman,Right,
35,9,1,0.634592800000064,['c'],0,right,['3'],4,0.11876549999988129,0.2,0,AccFast,6,20,Woman,Right,
36,9,1,1.983811600000081,['n'],1,right,['2'],5,0.13503450000007433,0.4,0,AccFast,6,20,Woman,Right,
37,9,1,1.1168115000000398,['n'],0,left,['2'],5,0.11828269999978147,0.2,0,AccFast,6,20,Woman,Right,
38,9,1,0.7671293000003061,['n'],1,right,['2'],5,0.03470920000017941,0.4,0,AccFast,6,20,Woman,Right,
39,9,1,0.8347784000002321,['n'],0,left,['2'],5,0.03469540000014604,0.1,0,AccFast,6,20,Woman,Right,
40,9,1,0.7005024000000049,['n'],0,left,['2'],5,0.06799610000007306,0.1,0,AccFast,6,20,Woman,Right,
41,9,1,0.5005244999997558,['n'],1,right,['2'],5,0.1348204999999325,0.4,0,AccFast,6,20,Woman,Right,
42,9,1,0.43432949999987613,['n'],0,left,['2'],5,0.1517413999999917,0.2,0,AccFast,6,20,Woman,Right,
43,9,1,0.7506152000000839,['n'],0,left,['2'],5,0.11730530000022554,0.2,0,AccFast,6,20,Woman,Right,
44,9,1,0.7504927999998472,['n'],0,left,['2'],5,0.13490249999995285,0.4,0,AccFast,6,20,Woman,Right,
45,9,1,0.6669016999999258,['n'],0,left,['2'],5,0.0346559999998135,0.2,0,AccFast,6,20,Woman,Right,
46,9,1,0.6156334000002062,['n'],0,left,['2'],5,0.2027259999999842,0.2,0,AccFast,6,20,Woman,Right,
47,9,1,0.31642909999982294,['n'],0,left,['1'],6,0.1358885999998165,0.2,0,AccFast,6,20,Woman,Right,
48,9,1,0.3492351999998391,['n'],0,left,['1'],6,0.1192004999998062,0.1,0,AccFast,6,20,Woman,Right,
49,9,1,0.34909769999967466,['n'],1,right,['2'],5,0.10152100000004793,0.4,0,AccFast,6,20,Woman,Right,
50,9,1,0.31757669999979043,['n'],0,left,['2'],5,0.08450100000027305,0.1,0,AccFast,6,20,Woman,Right,
51,9,1,0.3995700000000397,['n'],1,right,['2'],5,0.2849033000002237,0.1,0,AccFast,6,20,Woman,Right,
52,9,1,0.816963400000077,['n'],1,right,['2'],5,2.851058700000067,0.1,0,AccFast,6,20,Woman,Right,
53,9,1,1.032716000000164,['n'],0,left,['2'],5,0.10065429999986009,0.4,0,AccFast,6,20,Woman,Right,
54,9,1,1.001303999999891,['n'],1,right,['2'],5,0.1517773999999008,0.4,0,AccFast,6,20,Woman,Right,
55,9,1,0.7335315000000264,['n'],1,right,['8'],3,0.15169709999963743,0.1,0,AccFast,6,20,Woman,Right,
56,9,1,0.4823041999998168,['n'],1,right,['3'],4,0.20067930000004708,0.2,0,AccFast,6,20,Woman,Right,
57,9,1,0.5668648000000758,['n'],1,right,['3'],4,0.15051549999998315,0.4,0,AccFast,6,20,Woman,Right,
58,9,1,0.6342110000000503,['n'],1,right,['2'],5,0.11863880000009885,0.1,0,AccFast,6,20,Woman,Right,
59,9,1,0.8836128999996617,['n'],0,left,['3'],4,0.11770039999964865,0.2,0,AccFast,6,20,Woman,Right,
0,10,1,2.067657000000054,['n'],0,left,['2'],5,0.25228900000001886,0.4,0,AccAcc,6,20,Woman,Right,
1,10,1,0.8171311999999489,['n'],1,right,['3'],4,0.233867200000077,0.4,0,AccAcc,6,20,Woman,Right,
2,10,1,0.8667875999999524,['n'],1,right,['3'],4,0.21781959999998435,0.2,0,AccAcc,6,20,Woman,Right,
3,10,1,1.0005654999999933,['n'],1,right,['8'],3,0.21815930000002481,0.1,0,AccAcc,6,20,Woman,Right,
4,10,1,0.7353161999999429,['c'],0,right,['3'],4,0.18502089999992677,0.2,0,AccAcc,6,20,Woman,Right,
5,10,1,0.46717039999975896,['n'],0,left,['8'],3,0.18475590000025477,0.2,0,AccAcc,6,20,Woman,Right,
6,10,1,0.9175886999996692,['n'],0,left,['8'],3,0.3844417999998768,0.4,0,AccAcc,6,20,Woman,Right,
7,10,1,0.48478469999963636,['n'],0,left,['8'],3,0.2014763000001949,0.1,0,AccAcc,6,20,Woman,Right,
8,10,1,0.7842333000003237,['n'],1,right,['8'],3,0.2347754000002169,0.4,0,AccAcc,6,20,Woman,Right,
9,10,1,0.3670358999997916,['n'],1,right,['9'],2,0.1682714999997188,0.2,0,AccAcc,6,20,Woman,Right,
10,10,1,0.9006168999999318,['n'],0,left,['9'],2,0.2339563000000453,0.4,0,AccAcc,6,20,Woman,Right,
11,10,1,0.6504519999998593,['n'],0,left,['9'],2,0.13362179999967339,0.1,0,AccAcc,6,20,Woman,Right,
12,10,1,0.9332071000003452,['n'],0,left,['8'],3,0.2023070000000189,0.1,0,AccAcc,6,20,Woman,Right,
13,10,1,0.20006180000018503,['n'],0,left,['8'],3,0.21824030000016137,0.1,0,AccAcc,6,20,Woman,Right,
14,10,1,0.81704179999997,['n'],1,right,['8'],3,0.20212430000037784,0.1,0,AccAcc,6,20,Woman,Right,
15,10,1,0.6503708999998707,['n'],0,left,['0'],1,0.10109099999999671,0.4,0,AccAcc,6,20,Woman,Right,
16,10,1,1.1851043000001482,['n'],1,right,['3'],4,0.16811039999993227,0.2,0,AccAcc,6,20,Woman,Right,
17,10,1,0.6170984999998836,['n'],1,right,['2'],5,0.13466970000035872,0.4,0,AccAcc,6,20,Woman,Right,
18,10,1,0.5833291999997527,['n'],0,left,['2'],5,0.11895759999970323,0.2,0,AccAcc,6,20,Woman,Right,
19,10,1,0.26674800000000687,['n'],1,right,['3'],4,0.1502888999998504,0.2,0,AccAcc,6,20,Woman,Right,
20,10,1,0.4499737000001005,['n'],1,right,['8'],3,0.08446400000002541,0.2,0,AccAcc,6,20,Woman,Right,
21,10,1,0.3844116000000213,['n'],0,left,['9'],2,0.1513583999999355,0.1,0,AccAcc,6,20,Woman,Right,
22,10,1,0.4677038999998331,['n'],1,right,['8'],3,0.1343987999998717,0.4,0,AccAcc,6,20,Woman,Right,
23,10,1,0.31847590000006676,['n'],0,left,['8'],3,0.08286769999995158,0.4,0,AccAcc,6,20,Woman,Right,
24,10,1,0.18471690000023955,['n'],0,left,['8'],3,0.13482410000005984,0.1,0,AccAcc,6,20,Woman,Right,
25,10,1,0.6001641999996536,['n'],0,left,['8'],3,0.18464220000032583,0.1,0,AccAcc,6,20,Woman,Right,
26,10,1,0.3336639999997715,['n'],0,left,['8'],3,0.18485229999987496,0.2,0,AccAcc,6,20,Woman,Right,
27,10,1,0.5339822999999342,['n'],0,left,['8'],3,0.46796409999979005,0.2,0,AccAcc,6,20,Woman,Right,
28,10,1,0.48386029999983293,['n'],0,left,['8'],3,0.16816689999996015,0.2,0,AccAcc,6,20,Woman,Right,
29,10,1,0.28447189999997136,['c'],0,right,['3'],4,0.10158070000034058,0.2,0,AccAcc,6,20,Woman,Right,
30,10,1,0.5671468000000459,['n'],1,right,['8'],3,0.08489880000024641,0.2,0,AccAcc,6,20,Woman,Right,
31,10,1,1.2834100000000035,['n'],0,left,['8'],3,2.9844240999996146,0.2,0,AccAcc,6,20,Woman,Right,
32,10,1,1.3341934999998557,['n'],0,left,['9'],2,0.5345722999995814,0.1,0,AccAcc,6,20,Woman,Right,
33,10,1,0.6513458999997965,['n'],1,right,['8'],3,0.08463720000008834,0.2,0,AccAcc,6,20,Woman,Right,
34,10,1,0.5666192000003321,['n'],1,right,['3'],4,0.10158179999962158,0.1,0,AccAcc,6,20,Woman,Right,
35,10,1,0.3668094999998175,['n'],1,right,['8'],3,0.11849759999995513,0.1,0,AccAcc,6,20,Woman,Right,
36,10,1,0.6692182000001594,['n'],1,right,['9'],2,0.11897739999994883,0.4,0,AccAcc,6,20,Woman,Right,
37,10,1,0.8657904000001508,['n'],0,left,['0'],1,0.15228969999998299,0.4,0,AccAcc,6,20,Woman,Right,
38,10,1,0.9335618000000068,['n'],1,right,['2'],5,0.1015479000002415,0.1,0,AccAcc,6,20,Woman,Right,
39,10,1,0.5347058000002107,['n'],0,left,['2'],5,0.08453969999982291,0.4,0,AccAcc,6,20,Woman,Right,
40,10,1,0.5337913999996999,['n'],0,left,['2'],5,0.05000880000034158,0.4,0,AccAcc,6,20,Woman,Right,
41,10,1,0.9174634999999398,['n'],0,left,['2'],5,0.11747209999975894,0.4,0,AccAcc,6,20,Woman,Right,
42,10,1,0.5671641999997519,['n'],0,left,['8'],3,0.11805490000006102,0.4,0,AccAcc,6,20,Woman,Right,
43,10,1,0.9003610999998273,['n'],0,left,['2'],5,0.11835689999998067,0.1,0,AccAcc,6,20,Woman,Right,
44,10,1,0.7160133999996106,['n'],1,right,['2'],5,0.13523679999980232,0.2,0,AccAcc,6,20,Woman,Right,
45,10,1,0.6353573000001234,['n'],1,right,['2'],5,0.18467920000011873,0.1,0,AccAcc,6,20,Woman,Right,
46,10,1,1.0337227999998504,['n'],1,right,['8'],3,0.10146860000031666,0.2,0,AccAcc,6,20,Woman,Right,
47,10,1,0.618011199999728,['n'],1,right,['3'],4,0.15178979999973308,0.4,0,AccAcc,6,20,Woman,Right,
48,10,1,0.5330097000000933,['n'],1,right,['3'],4,0.1348803000000771,0.1,0,AccAcc,6,20,Woman,Right,
49,10,1,0.4491841999997632,['n'],1,right,['3'],4,0.10212970000020505,0.2,0,AccAcc,6,20,Woman,Right,
50,10,1,0.582046900000023,['n'],1,right,['3'],4,0.15083050000021103,0.1,0,AccAcc,6,20,Woman,Right,
51,10,1,0.5502510000001166,['n'],1,right,['2'],5,0.13443329999972775,0.4,0,AccAcc,6,20,Woman,Right,
52,10,1,0.38349280000011277,['n'],0,left,['2'],5,0.1509117000000515,0.1,0,AccAcc,6,20,Woman,Right,
53,10,1,0.7505946999999651,['n'],0,left,['8'],3,0.11761040000010325,0.4,0,AccAcc,6,20,Woman,Right,
54,10,1,1.383732599999803,['n'],0,left,['3'],4,0.1523882000001322,0.1,0,AccAcc,6,20,Woman,Right,
55,10,1,1.2327744999997776,['n'],1,right,['8'],3,0.09998159999986456,0.1,0,AccAcc,6,20,Woman,Right,
56,10,1,1.0177616999999373,['c'],1,left,['2'],5,0.218095600000197,0.2,0,AccAcc,6,20,Woman,Right,
57,10,1,0.8659013999999843,['n'],1,right,['8'],3,0.0182383999999729,0.4,0,AccAcc,6,20,Woman,Right,
58,10,1,0.6834005999999135,['c'],1,left,['3'],4,0.06775480000032985,0.4,0,AccAcc,6,20,Woman,Right,
59,10,1,0.7331255999997666,['n'],1,right,['3'],4,0.10195789999988847,0.2,0,AccAcc,6,20,Woman,Right,
0,11,1,0.30056740000009086,['n'],1,right,['9'],2,0.06769170000006852,0.1,0,FastAcc,6,20,Woman,Right,
1,11,1,0.6829890999997588,['n'],1,right,['8'],3,0.11688509999976304,0.4,0,FastAcc,6,20,Woman,Right,
2,11,1,0.6495071000003918,['c'],0,right,['3'],4,0.01738439999962793,0.1,0,FastAcc,6,20,Woman,Right,
3,11,1,0.38347590000012133,['n'],1,right,['8'],3,0.1510587000002488,0.4,0,FastAcc,6,20,Woman,Right,
4,11,1,0.40157670000007784,['c'],0,right,['3'],4,0.10128089999989243,0.2,0,FastAcc,6,20,Woman,Right,
5,11,1,0.3672991999997066,['c'],0,right,['2'],5,0.06822299999976167,0.1,0,FastAcc,6,20,Woman,Right,
6,11,1,0.3488798999997016,['n'],1,right,['9'],2,0.11745569999993677,0.2,0,FastAcc,6,20,Woman,Right,
7,11,1,0.3340161999999509,['n'],0,left,['8'],3,0.06873059999998077,0.1,0,FastAcc,6,20,Woman,Right,
8,11,1,0.4672810000001846,['c'],0,right,['3'],4,0.11793429999988803,0.1,0,FastAcc,6,20,Woman,Right,
9,11,1,0.9511067000003095,['c'],0,right,['3'],4,0.1351927999999134,0.1,0,FastAcc,6,20,Woman,Right,
10,11,1,0.7844686999997066,['n'],0,left,['0'],1,0.25224690000004557,0.2,0,FastAcc,6,20,Woman,Right,
11,11,1,0.5333424999998897,['n'],0,left,['8'],3,0.051694899999802146,0.1,0,FastAcc,6,20,Woman,Right,
12,11,1,1.4010514000001422,['n'],0,left,['9'],2,0.15141450000010082,0.4,0,FastAcc,6,20,Woman,Right,
13,11,1,0.5659264000000803,['n'],1,right,['8'],3,0.13578999999981534,0.4,0,FastAcc,6,20,Woman,Right,
14,11,1,0.9996154000000388,['n'],1,right,['0'],1,0.11652800000001662,0.2,0,FastAcc,6,20,Woman,Right,
15,11,1,0.6346598000000085,['n'],0,left,['0'],1,0.2513709999998355,0.4,0,FastAcc,6,20,Woman,Right,
16,11,1,1.083736300000055,['n'],0,left,['0'],1,0.11796370000001843,0.2,0,FastAcc,6,20,Woman,Right,
17,11,1,0.9173077000000376,['n'],0,left,['8'],3,0.26686330000029557,0.2,0,FastAcc,6,20,Woman,Right,
18,11,1,0.3335931999999957,['n'],1,right,['9'],2,0.084054400000241,0.2,0,FastAcc,6,20,Woman,Right,
19,11,1,0.6326640000002044,['n'],0,left,['9'],2,0.13536919999978636,0.4,0,FastAcc,6,20,Woman,Right,
20,11,1,1.3665415000000394,['n'],1,right,['9'],2,0.10150109999995038,0.1,0,FastAcc,6,20,Woman,Right,
21,11,1,0.6826062999998612,['n'],1,right,['8'],3,0.03539900000032503,0.2,0,FastAcc,6,20,Woman,Right,
22,11,1,0.6504208999999719,['n'],0,left,['8'],3,0.10163469999997687,0.4,0,FastAcc,6,20,Woman,Right,
23,11,1,0.31727379999983896,['c'],1,left,['9'],2,0.15162710000004154,0.2,0,FastAcc,6,20,Woman,Right,
24,11,1,0.733813199999986,['c'],0,right,['3'],4,0.1348253000001023,0.4,0,FastAcc,6,20,Woman,Right,
25,11,1,0.6007356000000073,['c'],1,left,['2'],5,0.10146430000031614,0.2,0,FastAcc,6,20,Woman,Right,
26,11,1,0.33461050000005343,['n'],1,right,['9'],2,0.1330990000001293,0.2,0,FastAcc,6,20,Woman,Right,
27,11,1,0.2512937999999849,['n'],0,left,['8'],3,0.16790760000003502,0.1,0,FastAcc,6,20,Woman,Right,
28,11,1,0.36648620000005394,['c'],0,right,['3'],4,0.1350732999999309,0.2,0,FastAcc,6,20,Woman,Right,
29,11,1,0.615129799999977,['n'],1,right,['0'],1,0.3020916999998917,0.1,0,FastAcc,6,20,Woman,Right,
30,11,1,0.5334406999995736,['n'],0,left,['9'],2,0.16812230000005002,0.4,0,FastAcc,6,20,Woman,Right,
31,11,1,0.6341836999999941,['n'],0,left,['8'],3,0.11804350000011254,0.4,0,FastAcc,6,20,Woman,Right,
32,11,1,0.36727750000000015,['c'],0,right,['0'],1,0.15133990000003905,0.2,0,FastAcc,6,20,Woman,Right,
33,11,1,0.6156768000000739,['c'],1,left,['3'],4,0.15253279999978986,0.2,0,FastAcc,6,20,Woman,Right,
34,11,1,0.29902200000015,['n'],0,left,['0'],1,0.11710840000068856,0.4,0,FastAcc,6,20,Woman,Right,
35,11,1,0.48461589999988064,['n'],0,left,['9'],2,0.1514938999998776,0.4,0,FastAcc,6,20,Woman,Right,
36,11,1,0.43302829999993264,['n'],1,right,['8'],3,0.15133229999992182,0.2,0,FastAcc,6,20,Woman,Right,
37,11,1,0.45097680000071705,['n'],1,right,['0'],1,0.13528359999963868,0.1,0,FastAcc,6,20,Woman,Right,
38,11,1,0.5496892999999545,['n'],0,left,['9'],2,0.10156540000025416,0.4,0,FastAcc,6,20,Woman,Right,
39,11,1,0.45053850000022067,['n'],1,right,['9'],2,0.1335834999999861,0.1,0,FastAcc,6,20,Woman,Right,
40,11,1,0.4840186999999787,['n'],1,right,['9'],2,0.15082559999973455,0.2,0,FastAcc,6,20,Woman,Right,
41,11,1,0.8497793999995338,['n'],0,left,['0'],1,0.35120329999972455,0.1,0,FastAcc,6,20,Woman,Right,
42,11,1,0.7816742000004524,['n'],0,left,['9'],2,0.10149690000071132,0.1,0,FastAcc,6,20,Woman,Right,
43,11,1,1.5326081000002887,['n'],0,left,['9'],2,0.11886689999937516,0.2,0,FastAcc,6,20,Woman,Right,
44,11,1,0.7336475000001883,['n'],0,left,['9'],2,0.15101030000005267,0.2,0,FastAcc,6,20,Woman,Right,
45,11,1,0.8153518999997686,['n'],1,right,['9'],2,0.10178319999977248,0.1,0,FastAcc,6,20,Woman,Right,
46,11,1,0.817465600000105,['n'],0,left,['9'],2,0.13484749999952328,0.4,0,FastAcc,6,20,Woman,Right,
47,11,1,0.6814945000005537,['n'],1,right,['9'],2,0.15209709999999177,0.1,0,FastAcc,6,20,Woman,Right,
48,11,1,0.6836513999996896,['n'],0,left,['8'],3,0.15171959999952378,0.1,0,FastAcc,6,20,Woman,Right,
49,11,1,0.717160000000149,['n'],1,right,['9'],2,0.1182329999992362,0.1,0,FastAcc,6,20,Woman,Right,
50,11,1,0.7342034000002968,['n'],1,right,['9'],2,0.1348109000000477,0.4,0,FastAcc,6,20,Woman,Right,
51,11,1,1.2516215000005104,['n'],0,left,['8'],3,0.13483550000000832,0.4,0,FastAcc,6,20,Woman,Right,
52,11,1,0.7491473000000042,['n'],0,left,['8'],3,0.15196519999972224,0.2,0,FastAcc,6,20,Woman,Right,
53,11,1,0.9669853999994302,['n'],0,left,['8'],3,0.11880770000061602,0.1,0,FastAcc,6,20,Woman,Right,
54,11,1,0.5999982000003001,['n'],1,right,['8'],3,0.11684249999962049,0.2,0,FastAcc,6,20,Woman,Right,
55,11,1,0.4487457999994149,['n'],0,left,['8'],3,0.10113309999997,0.4,0,FastAcc,6,20,Woman,Right,
56,11,1,0.46722699999918405,['n'],1,right,['8'],3,0.151008499999989,0.1,0,FastAcc,6,20,Woman,Right,
57,11,1,0.4835870999995677,['n'],1,right,['8'],3,0.20137939999949594,0.4,0,FastAcc,6,20,Woman,Right,
58,11,1,0.6499135000003662,['n'],0,left,['8'],3,0.13471670000035374,0.4,0,FastAcc,6,20,Woman,Right,
59,11,1,0.600322000000233,['n'],0,left,['8'],3,0.13481899999987945,0.4,0,FastAcc,6,20,Woman,Right,
0,12,1,0.3513623999997435,['n'],0,left,['9'],2,0.1181893000002674,0.2,0,FastFast,6,20,Woman,Right,
1,12,1,0.4170831999999791,['c'],1,left,['3'],4,0.11811680000027991,0.4,0,FastFast,6,20,Woman,Right,
2,12,1,0.9502093999999488,['n'],0,left,['8'],3,0.11793020000004617,0.1,0,FastFast,6,20,Woman,Right,
3,12,1,0.8337838999996166,['n'],0,left,['2'],5,0.3507840000002034,0.2,0,FastFast,6,20,Woman,Right,
4,12,1,0.6166448999993008,['n'],0,left,['2'],5,0.03469870000026276,0.1,0,FastFast,6,20,Woman,Right,
5,12,1,0.5502893000002587,['n'],0,left,['2'],5,0.08473160000085045,0.1,0,FastFast,6,20,Woman,Right,
6,12,1,0.467441300000246,['n'],1,right,['2'],5,0.03473710000071151,0.2,0,FastFast,6,20,Woman,Right,
7,12,1,0.683308799999395,['n'],0,left,['2'],5,0.084848299999976,0.1,0,FastFast,6,20,Woman,Right,
8,12,1,1.0176015000006373,['n'],0,left,['2'],5,1.5178807000002053,0.4,0,FastFast,6,20,Woman,Right,
9,12,1,0.7495159999998577,['n'],0,left,['2'],5,0.11744629999975587,0.4,0,FastFast,6,20,Woman,Right,
10,12,1,0.5185783999995692,['n'],0,left,['3'],4,0.1355647999998837,0.2,0,FastFast,6,20,Woman,Right,
11,12,1,0.5328285999994478,['n'],1,right,['3'],4,0.15106089999972028,0.1,0,FastFast,6,20,Woman,Right,
12,12,1,0.6501693000000159,['n'],1,right,['3'],4,0.10152669999934005,0.2,0,FastFast,6,20,Woman,Right,
13,12,1,0.3503815999993094,['n'],0,left,['3'],4,0.06840290000036475,0.2,0,FastFast,6,20,Woman,Right,
14,12,1,0.5666039000007004,['n'],1,right,['3'],4,0.1681576999999379,0.4,0,FastFast,6,20,Woman,Right,
15,12,1,0.6005726000003051,['n'],0,left,['3'],4,0.052195799999935844,0.4,0,FastFast,6,20,Woman,Right,
16,12,1,0.38440300000002026,['n'],1,right,['8'],3,0.11717659999976604,0.1,0,FastFast,6,20,Woman,Right,
17,12,1,0.41688260000046284,['n'],1,right,['8'],3,0.13493469999957597,0.1,0,FastFast,6,20,Woman,Right,
18,12,1,0.6338458999998693,['n'],1,right,['8'],3,0.18485519999921962,0.1,0,FastFast,6,20,Woman,Right,
19,12,1,0.30016840000007505,['c'],0,right,['3'],4,0.0848481000002721,0.4,0,FastFast,6,20,Woman,Right,
20,12,1,0.5837632000002486,['n'],0,left,['8'],3,0.16822339999998803,0.2,0,FastFast,6,20,Woman,Right,
21,12,1,0.300501599999734,['n'],1,right,['8'],3,0.11693629999990662,0.2,0,FastFast,6,20,Woman,Right,
22,12,1,0.28422740000041813,['c'],0,right,['3'],4,0.13437750000048254,0.4,0,FastFast,6,20,Woman,Right,
23,12,1,0.650399600000128,['c'],0,right,['2'],5,0.10121640000033949,0.4,0,FastFast,6,20,Woman,Right,
24,12,1,0.6832323000007818,['n'],1,right,['9'],2,0.13541019999956916,0.4,0,FastFast,6,20,Woman,Right,
25,12,1,0.600531700000829,['n'],1,right,['8'],3,0.1174845000005007,0.1,0,FastFast,6,20,Woman,Right,
26,12,1,0.9497540000002118,['c'],1,left,['3'],4,0.08481740000024729,0.2,0,FastFast,6,20,Woman,Right,
27,12,1,0.9169168999997055,['n'],0,left,['9'],2,0.08462500000041473,0.1,0,FastFast,6,20,Woman,Right,
28,12,1,0.4679249999999229,['n'],1,right,['8'],3,0.11675209999975777,0.2,0,FastFast,6,20,Woman,Right,
29,12,1,0.6162967999998727,['n'],0,left,['8'],3,0.11813269999947806,0.2,0,FastFast,6,20,Woman,Right,
30,12,1,0.6337709999997969,['c'],0,right,['3'],4,0.06895429999985936,0.4,0,FastFast,6,20,Woman,Right,
31,12,1,0.3002317000000403,['n'],1,right,['8'],3,0.16811669999970036,0.2,0,FastFast,6,20,Woman,Right,
32,12,1,0.5837443999998868,['n'],1,right,['8'],3,0.18498640000052546,0.1,0,FastFast,6,20,Woman,Right,
33,12,1,0.5006321999999273,['c'],1,left,['3'],4,0.15129219999926136,0.4,0,FastFast,6,20,Woman,Right,
34,12,1,0.8510431999993671,['n'],0,left,['2'],5,0.15080380000017612,0.2,0,FastFast,6,20,Woman,Right,
35,12,1,0.6669026999998096,['n'],1,right,['2'],5,0.08484490000046208,0.4,0,FastFast,6,20,Woman,Right,
36,12,1,1.2496752999995806,['n'],0,left,['2'],5,0.08478950000062468,0.2,0,FastFast,6,20,Woman,Right,
37,12,1,0.7332217000002856,['n'],0,left,['2'],5,0.08541169999989506,0.4,0,FastFast,6,20,Woman,Right,
38,12,1,0.6330766000000949,['n'],1,right,['2'],5,0.11828890000015235,0.1,0,FastFast,6,20,Woman,Right,
39,12,1,0.4178326000001107,['n'],0,left,['2'],5,0.13352500000019063,0.2,0,FastFast,6,20,Woman,Right,
40,12,1,0.7498847000006208,['n'],1,right,['2'],5,0.08480909999980213,0.2,0,FastFast,6,20,Woman,Right,
41,12,1,0.3669629000005443,['n'],1,right,['2'],5,0.10133640000003652,0.4,0,FastFast,6,20,Woman,Right,
42,12,1,0.5838315000000875,['n'],1,right,['2'],5,0.11823260000073788,0.4,0,FastFast,6,20,Woman,Right,
43,12,1,0.6163908000007723,['n'],1,right,['2'],5,0.08474519999981567,0.2,0,FastFast,6,20,Woman,Right,
44,12,1,0.732167400000435,['n'],1,right,['2'],5,0.05203849999998056,0.2,0,FastFast,6,20,Woman,Right,
45,12,1,0.616541700000198,['n'],1,right,['2'],5,0.10145449999981793,0.1,0,FastFast,6,20,Woman,Right,
46,12,1,0.5499632999999449,['n'],0,left,['2'],5,0.10139849999995931,0.4,0,FastFast,6,20,Woman,Right,
47,12,1,0.4004106000002139,['n'],1,right,['8'],3,0.1680724999996528,0.4,0,FastFast,6,20,Woman,Right,
48,12,1,1.0503177000000505,['n'],1,right,['3'],4,0.1185021000001143,0.4,0,FastFast,6,20,Woman,Right,
49,12,1,0.8673496000001251,['n'],0,left,['9'],2,0.13468939999984286,0.2,0,FastFast,6,20,Woman,Right,
50,12,1,0.9837717000000339,['n'],0,left,['8'],3,0.13482010000006994,0.4,0,FastFast,6,20,Woman,Right,
51,12,1,0.883603100000073,['n'],0,left,['9'],2,0.1014433000000281,0.4,0,FastFast,6,20,Woman,Right,
52,12,1,1.016483600000356,['n'],1,right,['9'],2,0.1679560999991736,0.2,0,FastFast,6,20,Woman,Right,
53,12,1,0.7003120999997918,['n'],0,left,['0'],1,0.1515373999991425,0.1,0,FastFast,6,20,Woman,Right,
54,12,1,0.6846792999995159,['n'],1,right,['9'],2,0.15142689999993308,0.1,0,FastFast,6,20,Woman,Right,
55,12,1,0.36858529999972234,['n'],0,left,['8'],3,0.2004456000004211,0.1,0,FastFast,6,20,Woman,Right,
56,12,1,0.3837782000000516,['n'],1,right,['9'],2,0.15163530000063474,0.1,0,FastFast,6,20,Woman,Right,
57,12,1,0.3168673999998646,['n'],0,left,['8'],3,0.11817799999971612,0.1,0,FastFast,6,20,Woman,Right,
58,12,1,0.21612410000034288,['n'],0,left,['8'],3,0.10199079999983951,0.1,0,FastFast,6,20,Woman,Right,
59,12,1,0.24942969999938214,['n'],0,left,['9'],2,0.08516000000054191,0.1,0,FastFast,6,20,Woman,Right,
0,13,1,0.8511906000003364,['n'],1,right,['9'],2,0.13374149999981455,0.4,0,AccFast,6,20,Woman,Right,
1,13,1,1.1822732999999062,['c'],1,left,['2'],5,0.15249579999999696,0.2,0,AccFast,6,20,Woman,Right,
2,13,1,0.8329903000003469,['n'],1,right,['3'],4,0.25178349999987404,0.4,0,AccFast,6,20,Woman,Right,
3,13,1,0.9344341999994867,['c'],0,right,['1'],6,0.16783609999947657,0.2,0,AccFast,6,20,Woman,Right,
4,13,1,3.8154328000000532,['c'],1,left,['2'],5,0.15264810000007856,0.4,0,AccFast,6,20,Woman,Right,
5,13,1,1.3825605000001815,['n'],1,right,['8'],3,0.10095350000028702,0.4,0,AccFast,6,20,Woman,Right,
6,13,1,0.7509195999991789,['n'],0,left,['8'],3,0.11636490000000776,0.1,0,AccFast,6,20,Woman,Right,
7,13,1,0.30187740000019403,['n'],1,right,['9'],2,0.03476349999982631,0.1,0,AccFast,6,20,Woman,Right,
8,13,1,0.7160487000001012,['n'],0,left,['9'],2,0.16886990000057267,0.4,0,AccFast,6,20,Woman,Right,
9,13,1,0.3168429000006654,['n'],1,right,['8'],3,0.15141570000014326,0.2,0,AccFast,6,20,Woman,Right,
10,13,1,0.41601319999972475,['n'],1,right,['8'],3,0.135477599999831,0.2,0,AccFast,6,20,Woman,Right,
11,13,1,0.16626960000030522,['c'],1,left,['3'],4,1.0848525999999765,0.2,0,AccFast,6,20,Woman,Right,
12,13,1,0.5835956000000806,['n'],1,right,['2'],5,0.26827379999940604,0.1,0,AccFast,6,20,Woman,Right,
13,13,1,0.7505836000000272,['n'],0,left,['9'],2,0.05120519999945827,0.4,0,AccFast,6,20,Woman,Right,
14,13,1,0.8842145999997229,['n'],0,left,['9'],2,0.017942699999366596,0.1,0,AccFast,6,20,Woman,Right,
15,13,1,0.5998625000001994,['n'],1,right,['9'],2,0.11834859999999026,0.4,0,AccFast,6,20,Woman,Right,
16,13,1,1.267301299999417,['c'],1,left,['2'],5,0.218116199999713,0.4,0,AccFast,6,20,Woman,Right,
17,13,1,3.5163183999993635,['n'],0,left,['0'],1,0.16887229999974807,0.1,0,AccFast,6,20,Woman,Right,
18,13,1,1.050369900000078,['n'],1,right,['2'],5,0.051586999999926775,0.1,0,AccFast,6,20,Woman,Right,
19,13,1,0.9658985000005487,['n'],0,left,['2'],5,0.06861329999992449,0.1,0,AccFast,6,20,Woman,Right,
20,13,1,0.8013343000002351,['n'],1,right,['3'],4,0.06823199999962526,0.2,0,AccFast,6,20,Woman,Right,
21,13,1,1.1165521000002627,['c'],1,left,['3'],4,0.10214469999937137,0.4,0,AccFast,6,20,Woman,Right,
22,13,1,0.8168915999995079,['c'],1,left,['2'],5,0.13519620000079158,0.1,0,AccFast,6,20,Woman,Right,
23,13,1,1.2009342999999717,['n'],1,right,['2'],5,0.10156499999993684,0.2,0,AccFast,6,20,Woman,Right,
24,13,1,0.784246099999109,['n'],1,right,['2'],5,0.11708509999971284,0.1,0,AccFast,6,20,Woman,Right,
25,13,1,0.48316849999991973,['n'],0,left,['2'],5,0.06750650000049063,0.2,0,AccFast,6,20,Woman,Right,
26,13,1,0.8342692999995052,['n'],0,left,['2'],5,0.15154699999948207,0.2,0,AccFast,6,20,Woman,Right,
27,13,1,0.7495669999998427,['n'],1,right,['2'],5,0.05136229999970965,0.4,0,AccFast,6,20,Woman,Right,
28,13,1,0.6169634000007136,['n'],0,left,['2'],5,0.13531899999998132,0.2,0,AccFast,6,20,Woman,Right,
29,13,1,0.6337104999993244,['n'],0,left,['2'],5,0.13483040000028268,0.1,0,AccFast,6,20,Woman,Right,
30,13,1,0.40038989999993646,['n'],1,right,['2'],5,0.10137380000014673,0.4,0,AccFast,6,20,Woman,Right,
31,13,1,0.265957100000378,['n'],0,left,['3'],4,0.13553849999971135,0.1,0,AccFast,6,20,Woman,Right,
32,13,1,0.5503286000002845,['n'],1,right,['2'],5,0.08461059999990539,0.4,0,AccFast,6,20,Woman,Right,
33,13,1,0.36675560000003316,['n'],0,left,['2'],5,0.10180839999975433,0.2,0,AccFast,6,20,Woman,Right,
34,13,1,0.33446920000005775,['n'],1,right,['3'],4,0.16896910000014032,0.4,0,AccFast,6,20,Woman,Right,
35,13,1,0.3507343999999648,['n'],0,left,['9'],2,0.11814659999981814,0.2,0,AccFast,6,20,Woman,Right,
36,13,1,0.3318535999997039,['n'],0,left,['8'],3,0.11773050000010699,0.1,0,AccFast,6,20,Woman,Right,
37,13,1,0.4492038999997021,['n'],0,left,['8'],3,0.1673571000001175,0.4,0,AccFast,6,20,Woman,Right,
38,13,1,0.48358080000070913,['n'],0,left,['9'],2,0.23438639999949373,0.1,0,AccFast,6,20,Woman,Right,
39,13,1,0.8160133999999744,['n'],0,left,['8'],3,0.10087459999977,0.2,0,AccFast,6,20,Woman,Right,
40,13,1,0.6501702000005025,['n'],0,left,['9'],2,0.11728760000005423,0.2,0,AccFast,6,20,Woman,Right,
41,13,1,1.4001138000003266,['n'],0,left,['8'],3,3.1167568999999276,0.2,0,AccFast,6,20,Woman,Right,
42,13,1,0.9171993999998449,['n'],1,right,['9'],2,0.15104069999961212,0.2,0,AccFast,6,20,Woman,Right,
43,13,1,0.8493164999999863,['c'],0,right,['2'],5,0.11775630000011006,0.2,0,AccFast,6,20,Woman,Right,
44,13,1,1.9166860999994242,['n'],0,left,['9'],2,0.11702259999947273,0.2,0,AccFast,6,20,Woman,Right,
45,13,1,0.8491236999998364,['n'],0,left,['3'],4,0.13426649999928486,0.4,0,AccFast,6,20,Woman,Right,
46,13,1,0.6658353000002535,['c'],0,right,['3'],4,0.10191180000038003,0.1,0,AccFast,6,20,Woman,Right,
47,13,1,0.934112300000379,['c'],0,right,['3'],4,0.10193340000023454,0.1,0,AccFast,6,20,Woman,Right,
48,13,1,0.4662791999999172,['c'],0,right,['3'],4,0.10068830000000162,0.1,0,AccFast,6,20,Woman,Right,
49,13,1,0.5496638000004168,['n'],1,right,['8'],3,0.21730120000029274,0.4,0,AccFast,6,20,Woman,Right,
50,13,1,0.40181310000025405,['n'],0,left,['9'],2,0.11738160000004427,0.2,0,AccFast,6,20,Woman,Right,
51,13,1,0.2999142999997275,['n'],1,right,['8'],3,0.18413350000082573,0.1,0,AccFast,6,20,Woman,Right,
52,13,1,0.03256299999975454,['c'],1,left,['3'],4,0.1511943000004976,0.1,0,AccFast,6,20,Woman,Right,
53,13,1,0.44972450000022945,['c'],0,right,['3'],4,0.15090839999993477,0.4,0,AccFast,6,20,Woman,Right,
54,13,1,0.932412199999817,['n'],1,right,['2'],5,0.10094519999984186,0.4,0,AccFast,6,20,Woman,Right,
55,13,1,0.6671597000004112,['n'],0,left,['2'],5,0.06750259999989794,0.4,0,AccFast,6,20,Woman,Right,
56,13,1,0.7165144999999029,['n'],1,right,['9'],2,0.1342289999993227,0.1,0,AccFast,6,20,Woman,Right,
57,13,1,0.5332105999996202,['n'],1,right,['8'],3,0.2009013999995659,0.1,0,AccFast,6,20,Woman,Right,
58,13,1,0.699038599999767,['n'],1,right,['8'],3,0.08430330000010144,0.2,0,AccFast,6,20,Woman,Right,
59,13,1,0.6323703000007299,['n'],1,right,['8'],3,0.15073579999989306,0.4,0,AccFast,6,20,Woman,Right,
0,14,1,0.6833427999999913,['n'],1,right,['8'],3,0.11778929999945831,0.1,0,AccAcc,6,20,Woman,Right,
1,14,1,0.3667345000003479,['n'],1,right,['9'],2,0.11819329999980255,0.4,0,AccAcc,6,20,Woman,Right,
2,14,1,0.3336874999995416,['n'],1,right,['9'],2,0.18462640000052488,0.4,0,AccAcc,6,20,Woman,Right,
3,14,1,0.08404369999971095,['n'],1,right,['8'],3,0.21760900000026595,0.1,0,AccAcc,6,20,Woman,Right,
4,14,1,0.5663453999995909,['c'],1,left,['9'],2,0.13424329999998008,0.1,0,AccAcc,6,20,Woman,Right,
5,14,1,0.5333015999995041,['n'],0,left,['9'],2,0.18393620000006194,0.2,0,AccAcc,6,20,Woman,Right,
6,14,1,2.885483099999874,['n'],0,left,['3'],4,0.2685222000000067,0.1,0,AccAcc,6,20,Woman,Right,
7,14,1,0.885102299999744,['c'],1,left,['3'],4,0.0842477999995026,0.4,0,AccAcc,6,20,Woman,Right,
8,14,1,3.833281199999874,['n'],1,right,['2'],5,0.15021419999993668,0.1,0,AccAcc,6,20,Woman,Right,
9,14,1,0.7845197999995435,['n'],0,left,['2'],5,0.03305200000067998,0.4,0,AccAcc,6,20,Woman,Right,
10,14,1,0.535848999999871,['n'],1,right,['2'],5,0.11789359999966109,0.4,0,AccAcc,6,20,Woman,Right,
11,14,1,0.6655764000006457,['n'],0,left,['2'],5,0.101839399999335,0.2,0,AccAcc,6,20,Woman,Right,
12,14,1,0.5165194000001065,['n'],0,left,['2'],5,0.13491239999984828,0.2,0,AccAcc,6,20,Woman,Right,
13,14,1,0.733737900000051,['n'],1,right,['2'],5,0.1687939000003098,0.1,0,AccAcc,6,20,Woman,Right,
14,14,1,0.6829988999998022,['n'],0,left,['2'],5,0.10138860000006389,0.2,0,AccAcc,6,20,Woman,Right,
15,14,1,0.5664312999997492,['n'],0,left,['8'],3,0.36801699999978155,0.4,0,AccAcc,6,20,Woman,Right,
16,14,1,0.7496849999997721,['n'],1,right,['8'],3,1.2846592999994755,0.1,0,AccAcc,6,20,Woman,Right,
17,14,1,1.8171361000004254,['n'],1,right,['3'],4,0.135317500000383,0.2,0,AccAcc,6,20,Woman,Right,
18,14,1,0.9990799000006518,['n'],1,right,['2'],5,0.0853796000001239,0.2,0,AccAcc,6,20,Woman,Right,
19,14,1,0.2515670000002501,['n'],1,right,['2'],5,0.13301969999974972,0.2,0,AccAcc,6,20,Woman,Right,
20,14,1,0.40105510000012146,['n'],1,right,['2'],5,0.33400359999996,0.4,0,AccAcc,6,20,Woman,Right,
21,14,1,0.5507815999999366,['c'],1,left,['2'],5,0.10209590000067692,0.2,0,AccAcc,6,20,Woman,Right,
22,14,1,0.900320699999611,['c'],0,right,['3'],4,0.15012790000037057,0.1,0,AccAcc,6,20,Woman,Right,
23,14,1,0.8177789000001212,['n'],0,left,['8'],3,0.23468970000067202,0.2,0,AccAcc,6,20,Woman,Right,
24,14,1,0.8170368000000963,['n'],0,left,['3'],4,0.08498619999954826,0.4,0,AccAcc,6,20,Woman,Right,
25,14,1,1.450734700000794,['n'],0,left,['2'],5,0.4181237000002511,0.2,0,AccAcc,6,20,Woman,Right,
26,14,1,0.6324554000002536,['n'],0,left,"['3', '8']",4,0.13580910000018775,0.4,0,AccAcc,6,20,Woman,Right,
27,14,1,0.466625699999895,['n'],1,right,['3'],4,0.10136169999987032,0.1,0,AccAcc,6,20,Woman,Right,
28,14,1,0.6007493999995859,['n'],1,right,['3'],4,0.11810849999983475,0.1,0,AccAcc,6,20,Woman,Right,
29,14,1,0.9004161000002568,['n'],0,left,['2'],5,0.15083669999967242,0.4,0,AccAcc,6,20,Woman,Right,
30,14,1,0.5835047000000486,['n'],1,right,['8'],3,0.1334765999999945,0.2,0,AccAcc,6,20,Woman,Right,
31,14,1,0.5334732999999687,['n'],1,right,['3'],4,0.10180489999947895,0.1,0,AccAcc,6,20,Woman,Right,
32,14,1,0.5681391999996777,['n'],0,left,['3'],4,0.10153189999982715,0.4,0,AccAcc,6,20,Woman,Right,
33,14,1,0.5669877999998789,['n'],1,right,['2'],5,0.10127509999983886,0.2,0,AccAcc,6,20,Woman,Right,
34,14,1,0.6503699999993842,['n'],1,right,['2'],5,0.08460850000028586,0.4,0,AccAcc,6,20,Woman,Right,
35,14,1,0.7003500999999233,['n'],1,right,['3'],4,0.3516939999999522,0.2,0,AccAcc,6,20,Woman,Right,
36,14,1,1.0498913999999786,['n'],1,right,['3'],4,0.08368590000009135,0.4,0,AccAcc,6,20,Woman,Right,
37,14,1,0.7156970000005458,['n'],0,left,['3'],4,0.06883800000014162,0.4,0,AccAcc,6,20,Woman,Right,
38,14,1,0.9833747000002404,['n'],0,left,['3'],4,0.10185360000014043,0.4,0,AccAcc,6,20,Woman,Right,
39,14,1,0.7500559999998586,['n'],0,left,['3'],4,0.08366239999941172,0.1,0,AccAcc,6,20,Woman,Right,
40,14,1,0.8836825999997018,['n'],0,left,['3'],4,0.08470600000055128,0.1,0,AccAcc,6,20,Woman,Right,
41,14,1,1.1836952000003294,['n'],0,left,['3'],4,0.15158960000007937,0.1,0,AccAcc,6,20,Woman,Right,
42,14,1,0.651216100000056,['n'],0,left,['9'],2,0.15025220000006811,0.1,0,AccAcc,6,20,Woman,Right,
43,14,1,0.4340607000003729,['n'],0,left,['8'],3,0.134777799999938,0.1,0,AccAcc,6,20,Woman,Right,
44,14,1,1.0157242000004771,['n'],1,right,['8'],3,0.11890390000007756,0.2,0,AccAcc,6,20,Woman,Right,
45,14,1,0.5509166000001642,['c'],0,right,['3'],4,0.11811260000013135,0.4,0,AccAcc,6,20,Woman,Right,
46,14,1,0.6503675000003568,['n'],1,right,['8'],3,0.15067399999952613,0.1,0,AccAcc,6,20,Woman,Right,
47,14,1,0.35066939999978786,['n'],1,right,['8'],3,0.10062870000001567,0.2,0,AccAcc,6,20,Woman,Right,
48,14,1,0.4838067000000592,['n'],0,left,['9'],2,0.03472140000030777,0.4,0,AccAcc,6,20,Woman,Right,
49,14,1,0.7334823000001052,['n'],1,right,['8'],3,0.2676492999999027,0.4,0,AccAcc,6,20,Woman,Right,
50,14,1,1.4176010999999562,['n'],0,left,['3'],4,0.06833419999929902,0.1,0,AccAcc,6,20,Woman,Right,
51,14,1,0.9504215000006297,['n'],1,right,['3'],4,0.051614700000754965,0.2,0,AccAcc,6,20,Woman,Right,
52,14,1,0.6333342999996603,['n'],0,left,['2'],5,2.351321199999802,0.2,0,AccAcc,6,20,Woman,Right,
53,14,1,0.7668267999997624,['n'],1,right,['2'],5,0.11827650000032008,0.2,0,AccAcc,6,20,Woman,Right,
54,14,1,0.44944720000057714,['n'],0,left,['3'],4,0.10159360000034212,0.1,0,AccAcc,6,20,Woman,Right,
55,14,1,0.40028090000032535,['n'],0,left,['3'],4,0.10125930000049266,0.4,0,AccAcc,6,20,Woman,Right,
56,14,1,0.33409320000009757,['n'],0,left,['3'],4,0.08483350000005885,0.2,0,AccAcc,6,20,Woman,Right,
57,14,1,0.5339328000000023,['n'],1,right,['3'],4,0.08471019999979035,0.2,0,AccAcc,6,20,Woman,Right,
58,14,1,0.6008068999999523,['n'],1,right,['3'],4,0.5344423999995342,0.4,0,AccAcc,6,20,Woman,Right,
59,14,1,0.7333797000001141,['n'],0,left,['3'],4,0.10117780000018683,0.1,0,AccAcc,6,20,Woman,Right,
0,15,1,0.3841529999999693,['n'],0,left,['9'],2,0.08459130000028381,0.1,0,FastAcc,6,20,Woman,Right,
1,15,1,0.4673458999996001,['c'],0,right,['3'],4,0.03529830000024958,0.2,0,FastAcc,6,20,Woman,Right,
2,15,1,0.41589440000007016,['n'],0,left,['8'],3,0.08552980000058596,0.1,0,FastAcc,6,20,Woman,Right,
3,15,1,0.35213049999947543,['n'],1,right,['9'],2,0.10114380000050005,0.1,0,FastAcc,6,20,Woman,Right,
4,15,1,0.5167085000002771,['c'],0,right,['3'],4,0.06636770000022807,0.2,0,FastAcc,6,20,Woman,Right,
5,15,1,0.8173022000000856,['c'],1,left,['2'],5,0.11755679999987478,0.4,0,FastAcc,6,20,Woman,Right,
6,15,1,0.6346481000000495,['n'],1,right,['2'],5,0.05142539999997098,0.2,0,FastAcc,6,20,Woman,Right,
7,15,1,0.834048000000621,['n'],1,right,['9'],2,0.11836529999982304,0.4,0,FastAcc,6,20,Woman,Right,
8,15,1,0.5507403000001432,['n'],1,right,['2'],5,0.11851360000036948,0.2,0,FastAcc,6,20,Woman,Right,
9,15,1,0.4177555000005668,['n'],1,right,['9'],2,0.43510069999956613,0.4,0,FastAcc,6,20,Woman,Right,
10,15,1,0.6499889999995503,['n'],1,right,['3'],4,0.13478420000046754,0.4,0,FastAcc,6,20,Woman,Right,
11,15,1,0.4337077000000136,['n'],1,right,['3'],4,0.08474050000040734,0.1,0,FastAcc,6,20,Woman,Right,
12,15,1,0.7001064000005499,['n'],1,right,['8'],3,0.1506920000001628,0.2,0,FastAcc,6,20,Woman,Right,
13,15,1,0.7326460000003863,['n'],1,right,['8'],3,0.035128200000144716,0.4,0,FastAcc,6,20,Woman,Right,
14,15,1,0.46676639999986946,['n'],1,right,['8'],3,0.08487870000044495,0.4,0,FastAcc,6,20,Woman,Right,
15,15,1,0.6493252999998731,['n'],0,left,['8'],3,0.03434620000007271,0.4,0,FastAcc,6,20,Woman,Right,
16,15,1,1.1823658999992404,['c'],1,left,['3'],4,0.08434279999983119,0.4,0,FastAcc,6,20,Woman,Right,
17,15,1,2.250495999999657,['n'],0,left,['8'],3,0.06793670000024576,0.4,0,FastAcc,6,20,Woman,Right,
18,15,1,0.7837493999995786,['n'],1,right,['2'],5,0.23479600000064238,0.2,0,FastAcc,6,20,Woman,Right,
19,15,1,0.617580099999941,['n'],0,left,['2'],5,0.06787859999985812,0.1,0,FastAcc,6,20,Woman,Right,
20,15,1,0.6158011000006809,['n'],0,left,['2'],5,0.05180179999933898,0.4,0,FastAcc,6,20,Woman,Right,
21,15,1,1.3990713999992295,['n'],1,right,['9'],2,0.08539680000012595,0.4,0,FastAcc,6,20,Woman,Right,
22,15,1,0.6150834999998551,['n'],1,right,['3'],4,0.15052689999993163,0.2,0,FastAcc,6,20,Woman,Right,
23,15,1,0.8511490000000776,['c'],0,right,['3'],4,2.3000815000004877,0.2,0,FastAcc,6,20,Woman,Right,
24,15,1,1.0668163000000277,['n'],1,right,['3'],4,0.15171250000003056,0.4,0,FastAcc,6,20,Woman,Right,
25,15,1,1.1177988999997979,['c'],1,left,['3'],4,0.08479519999946206,0.2,0,FastAcc,6,20,Woman,Right,
26,15,1,0.7989752000003136,['n'],1,right,['3'],4,0.11877240000012534,0.2,0,FastAcc,6,20,Woman,Right,
27,15,1,0.5504004000003988,['n'],1,right,['3'],4,0.11905620000015915,0.4,0,FastAcc,6,20,Woman,Right,
28,15,1,0.5837117000000944,['n'],0,left,['3'],4,0.08475900000030379,0.4,0,FastAcc,6,20,Woman,Right,
29,15,1,0.5837809999993624,['n'],1,right,['3'],4,0.0846836999999141,0.1,0,FastAcc,6,20,Woman,Right,
30,15,1,0.5836473999997907,['n'],0,left,['3'],4,0.10157530000014958,0.1,0,FastAcc,6,20,Woman,Right,
31,15,1,0.7335978000000978,['n'],0,left,['3'],4,0.18476749999990716,0.1,0,FastAcc,6,20,Woman,Right,
32,15,1,0.6664289000000281,['n'],0,left,['3'],4,0.13470169999982318,0.1,0,FastAcc,6,20,Woman,Right,
33,15,1,0.48329280000052677,['n'],1,right,['3'],4,0.08588460000009945,0.1,0,FastAcc,6,20,Woman,Right,
34,15,1,0.6664957999992112,['n'],0,left,['2'],5,0.3506965000005948,0.2,0,FastAcc,6,20,Woman,Right,
35,15,1,0.6838956999999937,['n'],0,left,['3'],4,0.08481490000031044,0.4,0,FastAcc,6,20,Woman,Right,
36,15,1,0.598849699999846,['n'],0,left,['3'],4,0.15234920000057173,0.1,0,FastAcc,6,20,Woman,Right,
37,15,1,0.6337814999997136,['n'],0,left,['3'],4,0.13452239999969606,0.1,0,FastAcc,6,20,Woman,Right,
38,15,1,0.8670624000005773,['n'],0,left,['3'],4,0.2343682999999146,0.1,0,FastAcc,6,20,Woman,Right,
39,15,1,0.6338948000002347,['n'],1,right,['3'],4,0.10142360000008921,0.1,0,FastAcc,6,20,Woman,Right,
40,15,1,0.6512460999992982,['n'],0,left,['3'],4,0.051140200000190816,0.2,0,FastAcc,6,20,Woman,Right,
41,15,1,0.7178192999999737,['n'],1,right,['3'],4,0.1681428000001688,0.2,0,FastAcc,6,20,Woman,Right,
42,15,1,1.050308899999436,['n'],1,right,['8'],3,0.1007662000001801,0.1,0,FastAcc,6,20,Woman,Right,
43,15,1,1.433778099999472,['c'],1,left,['2'],5,0.05047420000028069,0.2,0,FastAcc,6,20,Woman,Right,
44,15,1,0.8671437000002697,['n'],1,right,['2'],5,0.08498050000071089,0.2,0,FastAcc,6,20,Woman,Right,
45,15,1,0.45037279999996827,['c'],1,left,['3'],4,0.13482850000036706,0.1,0,FastAcc,6,20,Woman,Right,
46,15,1,0.7482005000001664,['c'],1,left,['3'],4,0.1527734999999666,0.2,0,FastAcc,6,20,Woman,Right,
47,15,1,0.6667577999996865,['c'],1,left,['3'],4,0.05113450000044395,0.2,0,FastAcc,6,20,Woman,Right,
48,15,1,0.6006030999997165,['c'],0,right,['3'],4,0.08481539999957022,0.4,0,FastAcc,6,20,Woman,Right,
49,15,1,0.7170389000002615,['c'],0,right,['3'],4,0.08471539999936795,0.1,0,FastAcc,6,20,Woman,Right,
50,15,1,0.7663241000000198,['c'],1,left,['3'],4,0.05121109999981854,0.4,0,FastAcc,6,20,Woman,Right,
51,15,1,1.233493400000043,['n'],1,right,['3'],4,0.1667711000000054,0.2,0,FastAcc,6,20,Woman,Right,
52,15,1,0.8844236999993882,['c'],1,left,['3'],4,0.051389799999924435,0.4,0,FastAcc,6,20,Woman,Right,
53,15,1,0.7503914999997505,['n'],0,left,['3'],4,0.10153669999999693,0.1,0,FastAcc,6,20,Woman,Right,
54,15,1,0.7165778999997201,['n'],0,left,['3'],4,0.03464269999949465,0.2,0,FastAcc,6,20,Woman,Right,
55,15,1,1.1324811000004047,['c'],1,left,['3'],4,0.03531180000027234,0.1,0,FastAcc,6,20,Woman,Right,
56,15,1,0.8000092000002041,['n'],0,left,['3'],4,0.13462849999996251,0.1,0,FastAcc,6,20,Woman,Right,
57,15,1,0.7829658000000563,['n'],1,right,['2'],5,0.11780209999960789,0.2,0,FastAcc,6,20,Woman,Right,
58,15,1,0.6839700000000448,['n'],0,left,['2'],5,0.11827309999989666,0.4,0,FastAcc,6,20,Woman,Right,
59,15,1,0.46792219999952067,['n'],1,right,['2'],5,0.11848140000074636,0.4,0,FastAcc,6,20,Woman,Right,
