withinblocktrial,block,block_repetition,rt,resp,cor,cresp,conf_press,cj,rtconf,coherence,slow_trial,manipulation,sub,age,gender,handedness,
0,1,1,1.6160806999996566,['n'],1,right,none,-99,-99,0.5,0,none,29,18,Woman,Left,
1,1,1,0.7511067999994339,['c'],1,left,none,-99,-99,0.5,0,none,29,18,Woman,Left,
2,1,1,0.8679861000000528,['n'],1,right,none,-99,-99,0.5,0,none,29,18,Woman,Left,
3,1,1,1.384575600000062,['c'],0,right,none,-99,-99,0.5,0,none,29,18,Woman,Left,
4,1,1,1.6003897000000507,['n'],0,left,none,-99,-99,0.5,0,none,29,18,Woman,Left,
5,1,1,2.066376699999637,['c'],1,left,none,-99,-99,0.5,0,none,29,18,Woman,Left,
6,1,1,1.1170978000000105,['c'],0,right,none,-99,-99,0.5,0,none,29,18,Woman,Left,
7,1,1,1.6843866999997772,['c'],1,left,none,-99,-99,0.5,0,none,29,18,Woman,Left,
8,1,1,1.3838719999994282,['n'],1,right,none,-99,-99,0.5,0,none,29,18,Woman,Left,
9,1,1,1.4999456000005011,['n'],0,left,none,-99,-99,0.5,0,none,29,18,Woman,Left,
10,1,1,1.0003113000002486,['c'],0,right,none,-99,-99,0.5,0,none,29,18,Woman,Left,
11,1,1,1.3844225999991977,['c'],0,right,none,-99,-99,0.5,0,none,29,18,Woman,Left,
12,1,1,1.6180467000003773,['n'],1,right,none,-99,-99,0.5,0,none,29,18,Woman,Left,
13,1,1,0.7828585000006569,['c'],1,left,none,-99,-99,0.5,0,none,29,18,Woman,Left,
14,1,1,1.4678380000004836,['c'],1,left,none,-99,-99,0.5,0,none,29,18,Woman,Left,
15,1,1,1.1506479999998191,['c'],1,left,none,-99,-99,0.5,0,none,29,18,Woman,Left,
16,1,1,1.0504881999995632,['n'],0,left,none,-99,-99,0.5,0,none,29,18,Woman,Left,
17,1,1,1.4169959999999264,['c'],1,left,none,-99,-99,0.5,0,none,29,18,Woman,Left,
18,1,1,1.0680376000000251,['c'],1,left,none,-99,-99,0.5,0,none,29,18,Woman,Left,
19,1,1,1.7178905999999188,['c'],0,right,none,-99,-99,0.5,0,none,29,18,Woman,Left,
20,1,1,1.6679150999998456,['c'],1,left,none,-99,-99,0.5,0,none,29,18,Woman,Left,
21,1,1,1.0335582999996404,['c'],0,right,none,-99,-99,0.5,0,none,29,18,Woman,Left,
22,1,1,0.9668179000000237,['c'],0,right,none,-99,-99,0.5,0,none,29,18,Woman,Left,
23,1,1,0.9006129999997938,['c'],0,right,none,-99,-99,0.5,0,none,29,18,Woman,Left,
0,1,2,1.2011718000003384,['c'],1,left,none,-99,-99,0.5,0,none,29,18,Woman,Left,
1,1,2,0.8004989000000933,['c'],1,left,none,-99,-99,0.5,0,none,29,18,Woman,Left,
2,1,2,0.833158899999944,['n'],1,right,none,-99,-99,0.5,0,none,29,18,Woman,Left,
3,1,2,0.8011648000001514,['c'],1,left,none,-99,-99,0.5,0,none,29,18,Woman,Left,
4,1,2,3.015687899999648,['n'],0,left,none,-99,-99,0.5,0,none,29,18,Woman,Left,
5,1,2,1.6668490000001839,['c'],0,right,none,-99,-99,0.5,0,none,29,18,Woman,Left,
6,1,2,2.0669293000000835,['n'],0,left,none,-99,-99,0.5,0,none,29,18,Woman,Left,
7,1,2,1.0338140999992902,['c'],0,right,none,-99,-99,0.5,0,none,29,18,Woman,Left,
8,1,2,3.2339158999993742,['n'],1,right,none,-99,-99,0.5,0,none,29,18,Woman,Left,
9,1,2,0.8014895999995133,['c'],1,left,none,-99,-99,0.5,0,none,29,18,Woman,Left,
10,1,2,0.7173946000002616,['c'],0,right,none,-99,-99,0.5,0,none,29,18,Woman,Left,
11,1,2,0.7505034999994677,['c'],0,right,none,-99,-99,0.5,0,none,29,18,Woman,Left,
12,1,2,1.0168952999993053,['c'],0,right,none,-99,-99,0.5,0,none,29,18,Woman,Left,
13,1,2,1.265781600000082,['n'],1,right,none,-99,-99,0.5,0,none,29,18,Woman,Left,
14,1,2,0.9003267000007327,['c'],1,left,none,-99,-99,0.5,0,none,29,18,Woman,Left,
15,1,2,0.6841298999997889,['c'],1,left,none,-99,-99,0.5,0,none,29,18,Woman,Left,
16,1,2,0.8831045999995695,['c'],0,right,none,-99,-99,0.5,0,none,29,18,Woman,Left,
17,1,2,0.8514841999995042,['c'],1,left,none,-99,-99,0.5,0,none,29,18,Woman,Left,
18,1,2,0.6839540000000852,['c'],1,left,none,-99,-99,0.5,0,none,29,18,Woman,Left,
19,1,2,1.0511058000001867,['n'],1,right,none,-99,-99,0.5,0,none,29,18,Woman,Left,
20,1,2,0.8511892999995325,['n'],1,right,none,-99,-99,0.5,0,none,29,18,Woman,Left,
21,1,2,0.8677127000000837,['c'],1,left,none,-99,-99,0.5,0,none,29,18,Woman,Left,
22,1,2,1.1166547000002538,['n'],1,right,none,-99,-99,0.5,0,none,29,18,Woman,Left,
23,1,2,0.7168986999995468,['c'],1,left,none,-99,-99,0.5,0,none,29,18,Woman,Left,
0,1,3,1.718209399999978,['n'],1,right,none,-99,-99,0.5,0,none,29,18,Woman,Left,
1,1,3,0.6665270000003147,['c'],1,left,none,-99,-99,0.5,0,none,29,18,Woman,Left,
2,1,3,0.8005473999992319,['c'],0,right,none,-99,-99,0.5,0,none,29,18,Woman,Left,
3,1,3,0.649108100000376,['c'],1,left,none,-99,-99,0.5,0,none,29,18,Woman,Left,
4,1,3,0.8006413999992219,['c'],0,right,none,-99,-99,0.5,0,none,29,18,Woman,Left,
5,1,3,0.567132500000298,['c'],0,right,none,-99,-99,0.5,0,none,29,18,Woman,Left,
6,1,3,0.6672588999999789,['c'],1,left,none,-99,-99,0.5,0,none,29,18,Woman,Left,
7,1,3,0.7671684999995705,['n'],1,right,none,-99,-99,0.5,0,none,29,18,Woman,Left,
8,1,3,1.7490715000003547,['c'],1,left,none,-99,-99,0.5,0,none,29,18,Woman,Left,
9,1,3,0.6146639999997205,['c'],1,left,none,-99,-99,0.5,0,none,29,18,Woman,Left,
10,1,3,0.48338779999994586,['c'],1,left,none,-99,-99,0.5,0,none,29,18,Woman,Left,
11,1,3,0.683532600000035,['n'],1,right,none,-99,-99,0.5,0,none,29,18,Woman,Left,
12,1,3,0.48356839999996737,['c'],1,left,none,-99,-99,0.5,0,none,29,18,Woman,Left,
13,1,3,0.7672504000001936,['n'],1,right,none,-99,-99,0.5,0,none,29,18,Woman,Left,
14,1,3,0.6836905000000115,['c'],0,right,none,-99,-99,0.5,0,none,29,18,Woman,Left,
15,1,3,0.7672920000004524,['n'],1,right,none,-99,-99,0.5,0,none,29,18,Woman,Left,
16,1,3,0.8833499000002121,['c'],0,right,none,-99,-99,0.5,0,none,29,18,Woman,Left,
17,1,3,0.6495434000007663,['n'],1,right,none,-99,-99,0.5,0,none,29,18,Woman,Left,
18,1,3,0.5838653000000704,['c'],1,left,none,-99,-99,0.5,0,none,29,18,Woman,Left,
19,1,3,0.5505992999997034,['c'],1,left,none,-99,-99,0.5,0,none,29,18,Woman,Left,
20,1,3,0.6179070000007414,['c'],1,left,none,-99,-99,0.5,0,none,29,18,Woman,Left,
21,1,3,0.800381699999889,['n'],1,right,none,-99,-99,0.5,0,none,29,18,Woman,Left,
22,1,3,0.6175235999999131,['c'],1,left,none,-99,-99,0.5,0,none,29,18,Woman,Left,
23,1,3,0.5502749999996013,['c'],1,left,none,-99,-99,0.5,0,none,29,18,Woman,Left,
0,1,4,0.7679055999997217,['n'],1,right,none,-99,-99,0.5,0,none,29,18,Woman,Left,
1,1,4,0.8343118000002505,['n'],1,right,none,-99,-99,0.5,0,none,29,18,Woman,Left,
2,1,4,0.5837122000002637,['c'],1,left,none,-99,-99,0.5,0,none,29,18,Woman,Left,
3,1,4,0.516432899999927,['c'],1,left,none,-99,-99,0.5,0,none,29,18,Woman,Left,
4,1,4,0.5502153999996153,['c'],1,left,none,-99,-99,0.5,0,none,29,18,Woman,Left,
5,1,4,0.5348192000001291,['c'],0,right,none,-99,-99,0.5,0,none,29,18,Woman,Left,
6,1,4,0.6011561000004804,['c'],0,right,none,-99,-99,0.5,0,none,29,18,Woman,Left,
7,1,4,0.8514544999998179,['c'],1,left,none,-99,-99,0.5,0,none,29,18,Woman,Left,
8,1,4,0.7002941999999166,['n'],0,left,none,-99,-99,0.5,0,none,29,18,Woman,Left,
9,1,4,0.9343983999997363,['c'],1,left,none,-99,-99,0.5,0,none,29,18,Woman,Left,
10,1,4,1.866835099999662,['c'],1,left,none,-99,-99,0.5,0,none,29,18,Woman,Left,
11,1,4,0.5676636999996845,['c'],0,right,none,-99,-99,0.5,0,none,29,18,Woman,Left,
12,1,4,0.5845165000000634,['n'],1,right,none,-99,-99,0.5,0,none,29,18,Woman,Left,
13,1,4,0.6498599000005925,['c'],0,right,none,-99,-99,0.5,0,none,29,18,Woman,Left,
14,1,4,0.8012485999997807,['c'],1,left,none,-99,-99,0.5,0,none,29,18,Woman,Left,
15,1,4,0.617090200000348,['c'],1,left,none,-99,-99,0.5,0,none,29,18,Woman,Left,
16,1,4,0.5826998000002277,['c'],0,right,none,-99,-99,0.5,0,none,29,18,Woman,Left,
17,1,4,0.60039659999984,['c'],0,right,none,-99,-99,0.5,0,none,29,18,Woman,Left,
18,1,4,0.900016699999469,['c'],0,right,none,-99,-99,0.5,0,none,29,18,Woman,Left,
19,1,4,0.7344249999996464,['c'],1,left,none,-99,-99,0.5,0,none,29,18,Woman,Left,
20,1,4,0.7161592000002202,['c'],1,left,none,-99,-99,0.5,0,none,29,18,Woman,Left,
21,1,4,1.1006848999995782,['n'],1,right,none,-99,-99,0.5,0,none,29,18,Woman,Left,
22,1,4,0.917315900000176,['n'],1,right,none,-99,-99,0.5,0,none,29,18,Woman,Left,
23,1,4,0.6666838000001007,['c'],1,left,none,-99,-99,0.5,0,none,29,18,Woman,Left,
0,1,5,1.2346066000000064,['n'],1,right,none,-99,-99,0.5,0,none,29,18,Woman,Left,
1,1,5,0.43431390000023384,['c'],1,left,none,-99,-99,0.5,0,none,29,18,Woman,Left,
2,1,5,1.5481581000003644,['c'],1,left,none,-99,-99,0.5,0,none,29,18,Woman,Left,
3,1,5,0.665393899999799,['n'],1,right,none,-99,-99,0.5,0,none,29,18,Woman,Left,
4,1,5,0.6010615999994116,['c'],0,right,none,-99,-99,0.5,0,none,29,18,Woman,Left,
5,1,5,0.617202599999473,['c'],1,left,none,-99,-99,0.5,0,none,29,18,Woman,Left,
6,1,5,0.5343674999994619,['c'],1,left,none,-99,-99,0.5,0,none,29,18,Woman,Left,
7,1,5,0.6667428999999174,['c'],1,left,none,-99,-99,0.5,0,none,29,18,Woman,Left,
8,1,5,0.45029369999974733,['n'],1,right,none,-99,-99,0.5,0,none,29,18,Woman,Left,
9,1,5,0.8010604999999487,['c'],0,right,none,-99,-99,0.5,0,none,29,18,Woman,Left,
10,1,5,0.5342557999993005,['n'],1,right,none,-99,-99,0.5,0,none,29,18,Woman,Left,
11,1,5,0.5185494999996081,['c'],1,left,none,-99,-99,0.5,0,none,29,18,Woman,Left,
12,1,5,0.46785259999978734,['n'],1,right,none,-99,-99,0.5,0,none,29,18,Woman,Left,
13,1,5,0.4006674000002022,['c'],0,right,none,-99,-99,0.5,0,none,29,18,Woman,Left,
14,1,5,0.46781709999959276,['c'],0,right,none,-99,-99,0.5,0,none,29,18,Woman,Left,
15,1,5,0.5658948000000237,['c'],1,left,none,-99,-99,0.5,0,none,29,18,Woman,Left,
16,1,5,0.5841851000004681,['n'],1,right,none,-99,-99,0.5,0,none,29,18,Woman,Left,
17,1,5,0.5507573000004413,['c'],1,left,none,-99,-99,0.5,0,none,29,18,Woman,Left,
18,1,5,0.567500299999665,['n'],1,right,none,-99,-99,0.5,0,none,29,18,Woman,Left,
19,1,5,0.4677541000000929,['c'],1,left,none,-99,-99,0.5,0,none,29,18,Woman,Left,
20,1,5,0.6490849000001617,['c'],1,left,none,-99,-99,0.5,0,none,29,18,Woman,Left,
21,1,5,0.6339013999995586,['n'],1,right,none,-99,-99,0.5,0,none,29,18,Woman,Left,
22,1,5,0.8003257999998823,['n'],0,left,none,-99,-99,0.5,0,none,29,18,Woman,Left,
23,1,5,0.5001505999998699,['c'],1,left,none,-99,-99,0.5,0,none,29,18,Woman,Left,
0,1,6,0.9845362999994904,['c'],1,left,none,-99,-99,0.5,0,none,29,18,Woman,Left,
1,1,6,0.6163662000008117,['n'],1,right,none,-99,-99,0.5,0,none,29,18,Woman,Left,
2,1,6,0.5504612000004272,['n'],1,right,none,-99,-99,0.5,0,none,29,18,Woman,Left,
3,1,6,0.5843399000004865,['c'],1,left,none,-99,-99,0.5,0,none,29,18,Woman,Left,
4,1,6,0.6164023999999699,['c'],0,right,none,-99,-99,0.5,0,none,29,18,Woman,Left,
5,1,6,0.7664942999999766,['c'],0,right,none,-99,-99,0.5,0,none,29,18,Woman,Left,
6,1,6,0.5178578000004563,['c'],1,left,none,-99,-99,0.5,0,none,29,18,Woman,Left,
7,1,6,0.6665391000005911,['c'],1,left,none,-99,-99,0.5,0,none,29,18,Woman,Left,
8,1,6,0.6173714999995354,['c'],1,left,none,-99,-99,0.5,0,none,29,18,Woman,Left,
9,1,6,0.6846259999992981,['n'],1,right,none,-99,-99,0.5,0,none,29,18,Woman,Left,
10,1,6,0.6001300999996602,['c'],1,left,none,-99,-99,0.5,0,none,29,18,Woman,Left,
11,1,6,0.4003984999999375,['c'],1,left,none,-99,-99,0.5,0,none,29,18,Woman,Left,
12,1,6,0.5004269000000932,['c'],1,left,none,-99,-99,0.5,0,none,29,18,Woman,Left,
13,1,6,0.6341092000002391,['c'],1,left,none,-99,-99,0.5,0,none,29,18,Woman,Left,
14,1,6,0.7005667000003086,['n'],1,right,none,-99,-99,0.5,0,none,29,18,Woman,Left,
15,1,6,0.5664479000006395,['n'],1,right,none,-99,-99,0.5,0,none,29,18,Woman,Left,
16,1,6,0.916869300000144,['c'],0,right,none,-99,-99,0.5,0,none,29,18,Woman,Left,
17,1,6,0.9163689999995768,['c'],1,left,none,-99,-99,0.5,0,none,29,18,Woman,Left,
18,1,6,0.6841125999999349,['c'],1,left,none,-99,-99,0.5,0,none,29,18,Woman,Left,
19,1,6,0.6338678000001892,['n'],1,right,none,-99,-99,0.5,0,none,29,18,Woman,Left,
20,1,6,1.1510603000006085,['c'],0,right,none,-99,-99,0.5,0,none,29,18,Woman,Left,
21,1,6,0.4846201000000292,['n'],1,right,none,-99,-99,0.5,0,none,29,18,Woman,Left,
22,1,6,0.6330551999999443,['n'],1,right,none,-99,-99,0.5,0,none,29,18,Woman,Left,
23,1,6,0.600197599999774,['c'],1,left,none,-99,-99,0.5,0,none,29,18,Woman,Left,
0,1,7,0.6015197999995507,['n'],1,right,none,-99,-99,0.5,0,none,29,18,Woman,Left,
1,1,7,0.5663863999998284,['c'],1,left,none,-99,-99,0.5,0,none,29,18,Woman,Left,
2,1,7,0.5499847999999474,['n'],1,right,none,-99,-99,0.5,0,none,29,18,Woman,Left,
3,1,7,0.633605300000454,['n'],1,right,none,-99,-99,0.5,0,none,29,18,Woman,Left,
4,1,7,0.5671871000004103,['c'],1,left,none,-99,-99,0.5,0,none,29,18,Woman,Left,
5,1,7,0.5501795999998649,['c'],1,left,none,-99,-99,0.5,0,none,29,18,Woman,Left,
6,1,7,0.6010859999996683,['n'],1,right,none,-99,-99,0.5,0,none,29,18,Woman,Left,
7,1,7,0.5171994000002087,['c'],1,left,none,-99,-99,0.5,0,none,29,18,Woman,Left,
8,1,7,0.7179669999995895,['n'],1,right,none,-99,-99,0.5,0,none,29,18,Woman,Left,
9,1,7,0.833158899999944,['c'],0,right,none,-99,-99,0.5,0,none,29,18,Woman,Left,
10,1,7,0.598359800000253,['n'],0,left,none,-99,-99,0.5,0,none,29,18,Woman,Left,
11,1,7,0.75039470000047,['n'],1,right,none,-99,-99,0.5,0,none,29,18,Woman,Left,
12,1,7,0.41576030000032915,['c'],1,left,none,-99,-99,0.5,0,none,29,18,Woman,Left,
13,1,7,0.8664825000005294,['c'],1,left,none,-99,-99,0.5,0,none,29,18,Woman,Left,
14,1,7,0.43163860000004206,['n'],1,right,none,-99,-99,0.5,0,none,29,18,Woman,Left,
15,1,7,0.43374409999978525,['c'],1,left,none,-99,-99,0.5,0,none,29,18,Woman,Left,
16,1,7,0.8676793000004182,['n'],1,right,none,-99,-99,0.5,0,none,29,18,Woman,Left,
17,1,7,0.41679650000060064,['c'],1,left,none,-99,-99,0.5,0,none,29,18,Woman,Left,
18,1,7,0.384339700000055,['n'],1,right,none,-99,-99,0.5,0,none,29,18,Woman,Left,
19,1,7,0.6829428000000917,['c'],0,right,none,-99,-99,0.5,0,none,29,18,Woman,Left,
20,1,7,0.3006625999996686,['n'],0,left,none,-99,-99,0.5,0,none,29,18,Woman,Left,
21,1,7,0.6006869999991977,['c'],1,left,none,-99,-99,0.5,0,none,29,18,Woman,Left,
22,1,7,0.6188175000006595,['c'],1,left,none,-99,-99,0.5,0,none,29,18,Woman,Left,
23,1,7,0.5505883999994694,['c'],0,right,none,-99,-99,0.5,0,none,29,18,Woman,Left,
0,1,8,0.8181273000000147,['c'],1,left,none,-99,-99,0.5,0,none,29,18,Woman,Left,
1,1,8,0.4671140000000378,['n'],1,right,none,-99,-99,0.5,0,none,29,18,Woman,Left,
2,1,8,0.6164578999996593,['c'],1,left,none,-99,-99,0.5,0,none,29,18,Woman,Left,
3,1,8,0.5844741000000795,['n'],0,left,none,-99,-99,0.5,0,none,29,18,Woman,Left,
4,1,8,0.5170106000005035,['c'],1,left,none,-99,-99,0.5,0,none,29,18,Woman,Left,
5,1,8,0.6011031999996703,['n'],1,right,none,-99,-99,0.5,0,none,29,18,Woman,Left,
6,1,8,0.398435299999619,['c'],1,left,none,-99,-99,0.5,0,none,29,18,Woman,Left,
7,1,8,0.4011821999993117,['n'],1,right,none,-99,-99,0.5,0,none,29,18,Woman,Left,
8,1,8,0.4665666999999303,['c'],0,right,none,-99,-99,0.5,0,none,29,18,Woman,Left,
9,1,8,0.6671468999993522,['n'],1,right,none,-99,-99,0.5,0,none,29,18,Woman,Left,
10,1,8,1.2651868999992075,['n'],1,right,none,-99,-99,0.5,0,none,29,18,Woman,Left,
11,1,8,0.6003319000001284,['c'],1,left,none,-99,-99,0.5,0,none,29,18,Woman,Left,
12,1,8,0.867574599999898,['c'],1,left,none,-99,-99,0.5,0,none,29,18,Woman,Left,
13,1,8,0.599785399999746,['n'],1,right,none,-99,-99,0.5,0,none,29,18,Woman,Left,
14,1,8,0.5175913000002765,['c'],1,left,none,-99,-99,0.5,0,none,29,18,Woman,Left,
15,1,8,0.6504806000002645,['c'],1,left,none,-99,-99,0.5,0,none,29,18,Woman,Left,
16,1,8,0.534247100000357,['c'],1,left,none,-99,-99,0.5,0,none,29,18,Woman,Left,
17,1,8,0.5171771999994235,['c'],0,right,none,-99,-99,0.5,0,none,29,18,Woman,Left,
18,1,8,0.5151980000000549,['n'],1,right,none,-99,-99,0.5,0,none,29,18,Woman,Left,
19,1,8,0.5998073000000659,['c'],0,right,none,-99,-99,0.5,0,none,29,18,Woman,Left,
20,1,8,0.8175873000000138,['n'],0,left,none,-99,-99,0.5,0,none,29,18,Woman,Left,
21,1,8,0.4499595999996018,['c'],1,left,none,-99,-99,0.5,0,none,29,18,Woman,Left,
22,1,8,0.5346240999997462,['c'],0,right,none,-99,-99,0.5,0,none,29,18,Woman,Left,
23,1,8,0.8321964000006119,['c'],0,right,none,-99,-99,0.5,0,none,29,18,Woman,Left,
0,1,9,0.7846140000001469,['n'],1,right,none,-99,-99,0.5,0,none,29,18,Woman,Left,
1,1,9,0.450550700000349,['c'],0,right,none,-99,-99,0.5,0,none,29,18,Woman,Left,
2,1,9,0.3344835999996576,['c'],1,left,none,-99,-99,0.5,0,none,29,18,Woman,Left,
3,1,9,0.8830575999991197,['n'],1,right,none,-99,-99,0.5,0,none,29,18,Woman,Left,
4,1,9,0.5500536999998076,['c'],1,left,none,-99,-99,0.5,0,none,29,18,Woman,Left,
5,1,9,0.5852752000000692,['c'],1,left,none,-99,-99,0.5,0,none,29,18,Woman,Left,
6,1,9,0.6161154999999781,['n'],1,right,none,-99,-99,0.5,0,none,29,18,Woman,Left,
7,1,9,0.4668444000008094,['c'],0,right,none,-99,-99,0.5,0,none,29,18,Woman,Left,
8,1,9,0.46662879999985307,['c'],1,left,none,-99,-99,0.5,0,none,29,18,Woman,Left,
9,1,9,0.5998173999996652,['c'],0,right,none,-99,-99,0.5,0,none,29,18,Woman,Left,
10,1,9,0.550293999999667,['n'],1,right,none,-99,-99,0.5,0,none,29,18,Woman,Left,
11,1,9,0.5679227999999057,['c'],1,left,none,-99,-99,0.5,0,none,29,18,Woman,Left,
12,1,9,0.39913479999995616,['c'],0,right,none,-99,-99,0.5,0,none,29,18,Woman,Left,
13,1,9,1.249743700000181,['n'],0,left,none,-99,-99,0.5,0,none,29,18,Woman,Left,
14,1,9,0.7003901999996742,['n'],0,left,none,-99,-99,0.5,0,none,29,18,Woman,Left,
15,1,9,0.6327772000004188,['c'],0,right,none,-99,-99,0.5,0,none,29,18,Woman,Left,
16,1,9,0.6348879000006491,['c'],1,left,none,-99,-99,0.5,0,none,29,18,Woman,Left,
17,1,9,0.5503370999995241,['c'],1,left,none,-99,-99,0.5,0,none,29,18,Woman,Left,
18,1,9,0.6007689000007304,['c'],1,left,none,-99,-99,0.5,0,none,29,18,Woman,Left,
19,1,9,0.5504078999992998,['c'],1,left,none,-99,-99,0.5,0,none,29,18,Woman,Left,
20,1,9,0.4845321000002514,['c'],0,right,none,-99,-99,0.5,0,none,29,18,Woman,Left,
21,1,9,0.8676210999992691,['n'],1,right,none,-99,-99,0.5,0,none,29,18,Woman,Left,
22,1,9,0.5005504999999175,['c'],1,left,none,-99,-99,0.5,0,none,29,18,Woman,Left,
23,1,9,0.6668410000002041,['n'],1,right,none,-99,-99,0.5,0,none,29,18,Woman,Left,
0,1,10,0.7683592000003046,['n'],1,right,none,-99,-99,0.5,0,none,29,18,Woman,Left,
1,1,10,0.450735700000223,['n'],1,right,none,-99,-99,0.5,0,none,29,18,Woman,Left,
2,1,10,0.434567799999968,['c'],1,left,none,-99,-99,0.5,0,none,29,18,Woman,Left,
3,1,10,0.984503599999698,['c'],0,right,none,-99,-99,0.5,0,none,29,18,Woman,Left,
4,1,10,0.5505298999996739,['c'],0,right,none,-99,-99,0.5,0,none,29,18,Woman,Left,
5,1,10,0.6010280000000421,['c'],0,right,none,-99,-99,0.5,0,none,29,18,Woman,Left,
6,1,10,0.7168501999994987,['n'],1,right,none,-99,-99,0.5,0,none,29,18,Woman,Left,
7,1,10,0.4492726999997103,['c'],0,right,none,-99,-99,0.5,0,none,29,18,Woman,Left,
8,1,10,0.5004300000000512,['n'],1,right,none,-99,-99,0.5,0,none,29,18,Woman,Left,
9,1,10,0.8170927000001029,['n'],1,right,none,-99,-99,0.5,0,none,29,18,Woman,Left,
10,1,10,0.7838338999999905,['c'],0,right,none,-99,-99,0.5,0,none,29,18,Woman,Left,
11,1,10,0.6835532000004605,['n'],0,left,none,-99,-99,0.5,0,none,29,18,Woman,Left,
12,1,10,0.7327143000002252,['c'],1,left,none,-99,-99,0.5,0,none,29,18,Woman,Left,
13,1,10,0.6005574999999226,['c'],1,left,none,-99,-99,0.5,0,none,29,18,Woman,Left,
14,1,10,0.5345039000003453,['n'],1,right,none,-99,-99,0.5,0,none,29,18,Woman,Left,
15,1,10,0.6000885000003109,['n'],0,left,none,-99,-99,0.5,0,none,29,18,Woman,Left,
16,1,10,0.668359799999962,['n'],1,right,none,-99,-99,0.5,0,none,29,18,Woman,Left,
17,1,10,0.6006525000002512,['c'],1,left,none,-99,-99,0.5,0,none,29,18,Woman,Left,
18,1,10,0.6003491000001304,['c'],1,left,none,-99,-99,0.5,0,none,29,18,Woman,Left,
19,1,10,0.5340363999994224,['c'],1,left,none,-99,-99,0.5,0,none,29,18,Woman,Left,
20,1,10,0.6167086000004929,['c'],1,left,none,-99,-99,0.5,0,none,29,18,Woman,Left,
21,1,10,0.49927819999993517,['c'],1,left,none,-99,-99,0.5,0,none,29,18,Woman,Left,
22,1,10,0.748958500000299,['c'],1,left,none,-99,-99,0.5,0,none,29,18,Woman,Left,
23,1,10,0.9181180000005043,['c'],1,left,none,-99,-99,0.5,0,none,29,18,Woman,Left,
0,1,11,0.7010248999995383,['n'],0,left,none,-99,-99,0.5,0,none,29,18,Woman,Left,
1,1,11,0.6338700000005701,['n'],1,right,none,-99,-99,0.5,0,none,29,18,Woman,Left,
2,1,11,0.5338032999998177,['c'],0,right,none,-99,-99,0.5,0,none,29,18,Woman,Left,
3,1,11,0.4338050000005751,['c'],1,left,none,-99,-99,0.5,0,none,29,18,Woman,Left,
4,1,11,0.7503010000000359,['n'],1,right,none,-99,-99,0.5,0,none,29,18,Woman,Left,
5,1,11,0.46729770000001736,['c'],1,left,none,-99,-99,0.5,0,none,29,18,Woman,Left,
6,1,11,0.5671008999997866,['n'],1,right,none,-99,-99,0.5,0,none,29,18,Woman,Left,
7,1,11,0.45013469999958033,['c'],1,left,none,-99,-99,0.5,0,none,29,18,Woman,Left,
8,1,11,0.7165214999995442,['n'],0,left,none,-99,-99,0.5,0,none,29,18,Woman,Left,
9,1,11,0.9005940999995801,['c'],0,right,none,-99,-99,0.5,0,none,29,18,Woman,Left,
10,1,11,0.5174963999997999,['n'],0,left,none,-99,-99,0.5,0,none,29,18,Woman,Left,
11,1,11,0.7159625000003871,['n'],1,right,none,-99,-99,0.5,0,none,29,18,Woman,Left,
12,1,11,0.5847412000002805,['n'],1,right,none,-99,-99,0.5,0,none,29,18,Woman,Left,
13,1,11,0.7339154000001145,['n'],0,left,none,-99,-99,0.5,0,none,29,18,Woman,Left,
14,1,11,0.3502203999996709,['n'],0,left,none,-99,-99,0.5,0,none,29,18,Woman,Left,
15,1,11,0.23396520000005694,['c'],0,right,none,-99,-99,0.5,0,none,29,18,Woman,Left,
16,1,11,0.2989843000004839,['c'],1,left,none,-99,-99,0.5,0,none,29,18,Woman,Left,
17,1,11,0.91676120000011,['n'],1,right,none,-99,-99,0.5,0,none,29,18,Woman,Left,
18,1,11,0.6024256999999125,['c'],1,left,none,-99,-99,0.5,0,none,29,18,Woman,Left,
19,1,11,0.5827423000000636,['c'],0,right,none,-99,-99,0.5,0,none,29,18,Woman,Left,
20,1,11,0.6012571999999636,['n'],1,right,none,-99,-99,0.5,0,none,29,18,Woman,Left,
21,1,11,0.5507065000001603,['n'],0,left,none,-99,-99,0.5,0,none,29,18,Woman,Left,
22,1,11,0.5676698999996006,['c'],1,left,none,-99,-99,0.5,0,none,29,18,Woman,Left,
23,1,11,0.667211099999804,['c'],0,right,none,-99,-99,0.5,0,none,29,18,Woman,Left,
0,1,12,0.5506985000001805,['n'],0,left,none,-99,-99,0.5,0,none,29,18,Woman,Left,
1,1,12,0.5011739000001398,['c'],1,left,none,-99,-99,0.5,0,none,29,18,Woman,Left,
2,1,12,0.5171260999995866,['c'],1,left,none,-99,-99,0.5,0,none,29,18,Woman,Left,
3,1,12,0.6170892999998614,['n'],1,right,none,-99,-99,0.5,0,none,29,18,Woman,Left,
4,1,12,0.633809800000563,['n'],1,right,none,-99,-99,0.5,0,none,29,18,Woman,Left,
5,1,12,0.7177543999996487,['n'],1,right,none,-99,-99,0.5,0,none,29,18,Woman,Left,
6,1,12,0.6500144999999975,['n'],1,right,none,-99,-99,0.5,0,none,29,18,Woman,Left,
7,1,12,0.5164792999994461,['n'],1,right,none,-99,-99,0.5,0,none,29,18,Woman,Left,
8,1,12,0.6667199000003166,['c'],1,left,none,-99,-99,0.5,0,none,29,18,Woman,Left,
9,1,12,0.5827359000004435,['n'],1,right,none,-99,-99,0.5,0,none,29,18,Woman,Left,
10,1,12,0.7011699999993652,['c'],1,left,none,-99,-99,0.5,0,none,29,18,Woman,Left,
11,1,12,0.6157952999992631,['n'],1,right,none,-99,-99,0.5,0,none,29,18,Woman,Left,
12,1,12,0.7010862999995879,['c'],1,left,none,-99,-99,0.5,0,none,29,18,Woman,Left,
13,1,12,0.6016940999998042,['n'],1,right,none,-99,-99,0.5,0,none,29,18,Woman,Left,
14,1,12,0.46715839999978925,['c'],1,left,none,-99,-99,0.5,0,none,29,18,Woman,Left,
15,1,12,0.7840704000000187,['n'],0,left,none,-99,-99,0.5,0,none,29,18,Woman,Left,
16,1,12,0.2834154000001945,['c'],0,right,none,-99,-99,0.5,0,none,29,18,Woman,Left,
17,1,12,0.30052770000020246,['c'],1,left,none,-99,-99,0.5,0,none,29,18,Woman,Left,
18,1,12,0.7666279999994003,['n'],1,right,none,-99,-99,0.5,0,none,29,18,Woman,Left,
19,1,12,0.5837574999995923,['n'],1,right,none,-99,-99,0.5,0,none,29,18,Woman,Left,
20,1,12,0.6499911999999313,['c'],1,left,none,-99,-99,0.5,0,none,29,18,Woman,Left,
21,1,12,0.634396999999808,['c'],1,left,none,-99,-99,0.5,0,none,29,18,Woman,Left,
22,1,12,0.7837099999997008,['c'],1,left,none,-99,-99,0.5,0,none,29,18,Woman,Left,
23,1,12,1.0001580999996804,['n'],1,right,none,-99,-99,0.5,0,none,29,18,Woman,Left,
0,2,1,0.9509077000002435,['n'],1,right,none,-99,-99,0.4,0,none,29,18,Woman,Left,
1,2,1,0.4828513999991628,['c'],1,left,none,-99,-99,0.1,0,none,29,18,Woman,Left,
2,2,1,0.4002767000001768,['n'],1,right,none,-99,-99,0.4,0,none,29,18,Woman,Left,
3,2,1,0.4011442999999417,['c'],1,left,none,-99,-99,0.4,0,none,29,18,Woman,Left,
4,2,1,0.7337156999992658,['n'],1,right,none,-99,-99,0.2,0,none,29,18,Woman,Left,
5,2,1,0.5159741999996186,['n'],1,right,none,-99,-99,0.1,0,none,29,18,Woman,Left,
6,2,1,0.3333635000008144,['c'],0,right,none,-99,-99,0.2,0,none,29,18,Woman,Left,
7,2,1,0.551152699999875,['n'],0,left,none,-99,-99,0.4,0,none,29,18,Woman,Left,
8,2,1,0.634327900000244,['c'],1,left,none,-99,-99,0.1,0,none,29,18,Woman,Left,
9,2,1,0.4167181000002529,['c'],0,right,none,-99,-99,0.2,0,none,29,18,Woman,Left,
10,2,1,0.28430500000013126,['c'],1,left,none,-99,-99,0.2,0,none,29,18,Woman,Left,
11,2,1,0.7174052999998821,['c'],0,right,none,-99,-99,0.4,0,none,29,18,Woman,Left,
12,2,1,0.6171825999999783,['n'],1,right,none,-99,-99,0.2,0,none,29,18,Woman,Left,
13,2,1,0.4340879000001223,['n'],1,right,none,-99,-99,0.4,0,none,29,18,Woman,Left,
14,2,1,0.7832072000001062,['c'],1,left,none,-99,-99,0.4,0,none,29,18,Woman,Left,
15,2,1,0.5848666000001685,['n'],1,right,none,-99,-99,0.1,0,none,29,18,Woman,Left,
16,2,1,0.4675117999995564,['c'],1,left,none,-99,-99,0.1,0,none,29,18,Woman,Left,
17,2,1,0.7833731000000625,['c'],1,left,none,-99,-99,0.1,0,none,29,18,Woman,Left,
18,2,1,0.7516965999993772,['c'],1,left,none,-99,-99,0.2,0,none,29,18,Woman,Left,
19,2,1,0.5840624000002208,['c'],1,left,none,-99,-99,0.1,0,none,29,18,Woman,Left,
20,2,1,0.41697449999992386,['c'],0,right,none,-99,-99,0.2,0,none,29,18,Woman,Left,
21,2,1,0.46715409999978874,['c'],1,left,none,-99,-99,0.1,0,none,29,18,Woman,Left,
22,2,1,0.6505974000001515,['n'],1,right,none,-99,-99,0.4,0,none,29,18,Woman,Left,
23,2,1,0.5336194999999861,['c'],1,left,none,-99,-99,0.2,0,none,29,18,Woman,Left,
0,3,1,0.5847549999998591,['n'],1,right,['8'],4,3.0851904999999533,0.4,0,none,29,18,Woman,Left,
1,3,1,0.6846938999997292,['c'],1,left,['3'],3,2.8345914999999877,0.2,0,none,29,18,Woman,Left,
2,3,1,1.7504185000007055,['n'],0,left,['9'],5,1.7513505000006262,0.1,0,none,29,18,Woman,Left,
3,3,1,0.8998544000005495,['c'],1,left,['9'],5,1.2005265999996482,0.2,0,none,29,18,Woman,Left,
4,3,1,1.3504632000003767,['c'],0,right,['3'],3,1.901233300000058,0.1,0,none,29,18,Woman,Left,
5,3,1,3.865880099999231,['n'],1,right,['9'],5,2.0514702999998917,0.1,0,none,29,18,Woman,Left,
6,3,1,1.649512400000276,['n'],1,right,['0'],6,0.8530391000003874,0.4,0,none,29,18,Woman,Left,
7,3,1,1.5515233999994962,['c'],1,left,['9'],5,1.518116899999768,0.4,0,none,29,18,Woman,Left,
8,3,1,1.0656776000005266,['n'],1,right,['0'],6,0.9351794000003792,0.4,0,none,29,18,Woman,Left,
9,3,1,2.9336362000003646,['c'],0,right,['8'],4,1.5496321000000535,0.2,0,none,29,18,Woman,Left,
10,3,1,0.6330344000007244,['c'],0,right,['3'],3,1.5354072000000087,0.1,0,none,29,18,Woman,Left,
11,3,1,2.1837381000004825,['c'],0,right,['8'],4,1.1507912999995824,0.1,0,none,29,18,Woman,Left,
12,3,1,2.333570300000247,['n'],1,right,['8'],4,1.1014079999995374,0.4,0,none,29,18,Woman,Left,
13,3,1,0.9832268000000113,['n'],0,left,['8'],4,0.5684687000002668,0.2,0,none,29,18,Woman,Left,
14,3,1,1.3828427999997075,['c'],1,left,['8'],4,1.9681199000006018,0.1,0,none,29,18,Woman,Left,
15,3,1,2.566259500000342,['n'],1,right,['8'],4,1.4010431000006065,0.2,0,none,29,18,Woman,Left,
16,3,1,1.9841657999995732,['c'],1,left,['3'],3,1.6180606999996598,0.4,0,none,29,18,Woman,Left,
17,3,1,0.9336309000000256,['c'],1,left,['9'],5,0.9172952999997506,0.4,0,none,29,18,Woman,Left,
18,3,1,1.483555100000558,['c'],0,right,['9'],5,1.1347275999996782,0.1,0,none,29,18,Woman,Left,
19,3,1,2.2005409000003056,['c'],1,left,['8'],4,1.1343368000007104,0.2,0,none,29,18,Woman,Left,
20,3,1,5.0160792999995465,x,-99,left,none,-99,-99,0.2,1,none,29,18,Woman,Left,
21,3,1,1.5349236000001838,['c'],1,left,['8'],4,1.434336400000575,0.1,0,none,29,18,Woman,Left,
22,3,1,0.8173231000000669,['n'],1,right,['8'],4,0.967934499999501,0.2,0,none,29,18,Woman,Left,
23,3,1,2.5003108999999313,['c'],1,left,['3'],3,1.151268199999322,0.4,0,none,29,18,Woman,Left,
0,4,1,1.8174866999997903,['n'],0,left,['9'],5,1.6010611000001518,0.2,0,AccAcc,29,18,Woman,Left,
1,4,1,2.433035699999891,['n'],1,right,['9'],5,1.3660662000002048,0.4,0,AccAcc,29,18,Woman,Left,
2,4,1,2.0171988000001875,['c'],1,left,['9'],5,1.2013557999998739,0.4,0,AccAcc,29,18,Woman,Left,
3,4,1,5.016274300000077,x,-99,right,none,-99,-99,0.2,1,AccAcc,29,18,Woman,Left,
4,4,1,2.3159512000001996,['c'],1,left,['3'],3,1.4351919999999154,0.1,0,AccAcc,29,18,Woman,Left,
5,4,1,3.116541400000642,['c'],1,left,['9'],5,1.58456920000026,0.2,0,AccAcc,29,18,Woman,Left,
6,4,1,2.0830943000000843,['c'],0,right,['9'],5,1.1510615999995935,0.4,0,AccAcc,29,18,Woman,Left,
7,4,1,2.465991099999883,['c'],0,right,['9'],5,0.9688343999996505,0.1,0,AccAcc,29,18,Woman,Left,
8,4,1,0.8842211000001043,['n'],0,left,['0'],6,0.6661518000000797,0.2,0,AccAcc,29,18,Woman,Left,
9,4,1,3.251014099999338,['c'],0,right,['8'],4,1.0846215000001393,0.4,0,AccAcc,29,18,Woman,Left,
10,4,1,1.8835312000001068,['c'],1,left,['8'],4,1.2520242000000508,0.2,0,AccAcc,29,18,Woman,Left,
11,4,1,1.94761329999983,['c'],1,left,['8'],4,1.101373199999216,0.1,0,AccAcc,29,18,Woman,Left,
12,4,1,2.8177495999998428,['n'],1,right,['0'],6,0.3669518999995489,0.1,0,AccAcc,29,18,Woman,Left,
13,4,1,4.050418499999978,['c'],1,left,['8'],4,1.4847288999999364,0.1,0,AccAcc,29,18,Woman,Left,
14,4,1,0.8337781000000177,['n'],1,right,['0'],6,0.29938899999979185,0.4,0,AccAcc,29,18,Woman,Left,
15,4,1,1.2845899000003556,['c'],1,left,['9'],5,0.8344108999999662,0.4,0,AccAcc,29,18,Woman,Left,
16,4,1,0.8158329000007143,['n'],1,right,['0'],6,0.33457280000038736,0.1,0,AccAcc,29,18,Woman,Left,
17,4,1,1.3163825999999972,['c'],0,right,['8'],4,0.6346049999992829,0.2,0,AccAcc,29,18,Woman,Left,
18,4,1,1.3995529000003444,['n'],1,right,['0'],6,0.9011860999999044,0.2,0,AccAcc,29,18,Woman,Left,
19,4,1,0.7176612000002933,['c'],1,left,['0'],6,0.3680274999996982,0.4,0,AccAcc,29,18,Woman,Left,
20,4,1,1.1004892000000837,['n'],1,right,['0'],6,0.26800679999996646,0.4,0,AccAcc,29,18,Woman,Left,
21,4,1,2.6498570999992808,['c'],1,left,['3'],3,0.8847068999994008,0.4,0,AccAcc,29,18,Woman,Left,
22,4,1,1.067049400000542,['c'],1,left,['8'],4,0.7012540999994599,0.4,0,AccAcc,29,18,Woman,Left,
23,4,1,1.0840052000003197,['n'],0,left,['9'],5,0.6346363000002384,0.4,0,AccAcc,29,18,Woman,Left,
24,4,1,2.9666809999998804,['c'],0,right,['8'],4,1.1512211999997817,0.2,0,AccAcc,29,18,Woman,Left,
25,4,1,2.9328972000002977,['n'],0,left,['9'],5,0.5693947999998272,0.1,0,AccAcc,29,18,Woman,Left,
26,4,1,2.4011233000001084,['c'],0,right,['3'],3,1.251212300001498,0.1,0,AccAcc,29,18,Woman,Left,
27,4,1,1.0515520999997534,['c'],0,right,['8'],4,1.3178521999998338,0.4,0,AccAcc,29,18,Woman,Left,
28,4,1,3.932936499999414,['n'],0,left,['8'],4,1.3511928999996599,0.2,0,AccAcc,29,18,Woman,Left,
29,4,1,1.8668694000007235,['n'],1,right,['9'],5,1.0347727999997005,0.4,0,AccAcc,29,18,Woman,Left,
30,4,1,0.6988199000006716,['c'],1,left,['0'],6,0.5522043999990274,0.4,0,AccAcc,29,18,Woman,Left,
31,4,1,1.83286919999955,['n'],0,left,['9'],5,2.1013129000002664,0.4,0,AccAcc,29,18,Woman,Left,
32,4,1,1.450975700001436,['n'],1,right,['9'],5,0.9345314999991388,0.1,0,AccAcc,29,18,Woman,Left,
33,4,1,2.55021459999989,['n'],1,right,['8'],4,1.5346143000006123,0.1,0,AccAcc,29,18,Woman,Left,
34,4,1,1.0841178000009677,['n'],0,left,['8'],4,0.8349338999996689,0.4,0,AccAcc,29,18,Woman,Left,
35,4,1,1.032910300000367,['n'],1,right,['9'],5,0.45158489999994345,0.2,0,AccAcc,29,18,Woman,Left,
36,4,1,2.1335765999992873,['n'],1,right,['9'],5,0.2179340000002412,0.1,0,AccAcc,29,18,Woman,Left,
37,4,1,1.1669588000004296,['c'],1,left,['9'],5,0.5345859999997629,0.2,0,AccAcc,29,18,Woman,Left,
38,4,1,0.7667543999996269,['n'],1,right,['9'],5,0.7680526000003738,0.4,0,AccAcc,29,18,Woman,Left,
39,4,1,3.966749400000481,['c'],0,right,['3'],3,0.9682054000004428,0.2,0,AccAcc,29,18,Woman,Left,
40,4,1,1.4669465999995737,['c'],1,left,none,-99,-99,0.1,1,AccAcc,29,18,Woman,Left,
41,4,1,1.2014665999995486,['c'],0,right,['3'],3,4.500814900000478,0.2,0,AccAcc,29,18,Woman,Left,
42,4,1,2.0838101000008464,['c'],0,right,['8'],4,1.4011664999998175,0.1,0,AccAcc,29,18,Woman,Left,
43,4,1,1.0658112000000983,['n'],0,left,['9'],5,0.33453259999987495,0.4,0,AccAcc,29,18,Woman,Left,
44,4,1,2.9823648999990837,['n'],0,left,['8'],4,0.9841603999993822,0.1,0,AccAcc,29,18,Woman,Left,
45,4,1,1.7170647000002646,['c'],1,left,['8'],4,1.151126299999305,0.1,0,AccAcc,29,18,Woman,Left,
46,4,1,3.33331569999973,['n'],1,right,['8'],4,0.7013950999989902,0.2,0,AccAcc,29,18,Woman,Left,
47,4,1,2.6990768000014214,['n'],0,left,['9'],5,0.7350979999991978,0.2,0,AccAcc,29,18,Woman,Left,
48,4,1,1.4160812999998598,['n'],0,left,['9'],5,0.6667290000004868,0.4,0,AccAcc,29,18,Woman,Left,
49,4,1,1.1674901000005775,['c'],0,right,['9'],5,0.983862400000362,0.2,0,AccAcc,29,18,Woman,Left,
50,4,1,1.1345034000005398,['c'],1,left,['9'],5,0.9678280999996787,0.2,0,AccAcc,29,18,Woman,Left,
51,4,1,1.7335770999998203,['c'],1,left,['8'],4,0.999679799999285,0.1,0,AccAcc,29,18,Woman,Left,
52,4,1,1.4663443000008556,['c'],1,left,['8'],4,1.368076499999006,0.1,0,AccAcc,29,18,Woman,Left,
53,4,1,1.9157827999988513,['c'],1,left,['8'],4,2.167450799999642,0.1,0,AccAcc,29,18,Woman,Left,
54,4,1,1.533883500000229,['c'],0,right,['9'],5,2.2498878999995213,0.2,0,AccAcc,29,18,Woman,Left,
55,4,1,0.9340006000002177,['c'],1,left,['0'],6,0.6179658000000927,0.2,0,AccAcc,29,18,Woman,Left,
56,4,1,1.6673855000008189,['c'],0,right,['3'],3,1.367831000001388,0.1,0,AccAcc,29,18,Woman,Left,
57,4,1,1.5165998000011314,['n'],1,right,['8'],4,2.434489000001122,0.2,0,AccAcc,29,18,Woman,Left,
58,4,1,2.2668508000006113,['c'],0,right,['9'],5,0.41857880000134173,0.1,0,AccAcc,29,18,Woman,Left,
59,4,1,0.8340686000010464,['c'],0,right,['0'],6,0.367518499999278,0.4,0,AccAcc,29,18,Woman,Left,
0,5,1,0.36795449999954144,['c'],0,right,['3'],3,1.7176570999999967,0.2,0,FastAcc,29,18,Woman,Left,
1,5,1,0.282132600001205,['n'],0,left,['8'],4,2.0519755000004807,0.4,0,FastAcc,29,18,Woman,Left,
2,5,1,0.6837611000009929,['c'],0,right,['8'],4,0.9011492999998154,0.4,0,FastAcc,29,18,Woman,Left,
3,5,1,0.7844404999996186,['c'],0,right,['8'],4,1.9839976000002935,0.1,0,FastAcc,29,18,Woman,Left,
4,5,1,0.7167458000003535,['n'],1,right,['8'],4,2.0014887000015733,0.2,0,FastAcc,29,18,Woman,Left,
5,5,1,0.40024220000123023,['c'],1,left,['9'],5,1.0668332999994163,0.1,0,FastAcc,29,18,Woman,Left,
6,5,1,1.0507756999995763,['n'],1,right,['3'],3,1.3857719999996334,0.1,0,FastAcc,29,18,Woman,Left,
7,5,1,0.43314789999931236,['c'],1,left,['0'],6,0.7679183000000194,0.4,0,FastAcc,29,18,Woman,Left,
8,5,1,1.5333047000003717,['n'],1,right,['8'],4,1.8835818999996263,0.2,0,FastAcc,29,18,Woman,Left,
9,5,1,0.4160432000007859,['c'],0,right,['0'],6,0.6346529999991617,0.1,0,FastAcc,29,18,Woman,Left,
10,5,1,0.6835811000000831,['n'],1,right,['8'],4,2.4511289999991277,0.2,0,FastAcc,29,18,Woman,Left,
11,5,1,0.6327122000002419,['c'],1,left,['8'],4,0.9672561999996105,0.1,0,FastAcc,29,18,Woman,Left,
12,5,1,0.43437229999835836,['c'],1,left,['9'],5,0.7350399999995716,0.4,0,FastAcc,29,18,Woman,Left,
13,5,1,0.5333964999990712,['c'],0,right,['2'],2,1.4175857999998698,0.2,0,FastAcc,29,18,Woman,Left,
14,5,1,0.3509667999987869,['n'],0,left,['8'],4,0.9344906000005722,0.4,0,FastAcc,29,18,Woman,Left,
15,5,1,0.3842414999999164,['c'],1,left,['8'],4,1.9512436000004527,0.4,0,FastAcc,29,18,Woman,Left,
16,5,1,0.6158593999989534,['n'],1,right,['3'],3,1.651245499999277,0.4,0,FastAcc,29,18,Woman,Left,
17,5,1,0.833733100000245,['n'],0,left,['8'],4,1.2681594000005134,0.4,0,FastAcc,29,18,Woman,Left,
18,5,1,0.7341653000003134,['n'],1,right,['1'],1,2.867721000000529,0.4,0,FastAcc,29,18,Woman,Left,
19,5,1,0.6338149999992311,['n'],1,right,['3'],3,2.134745000001203,0.4,0,FastAcc,29,18,Woman,Left,
20,5,1,0.6503511999999319,['c'],1,left,['9'],5,2.0677161000003252,0.4,0,FastAcc,29,18,Woman,Left,
21,5,1,0.8003513000003295,['c'],1,left,['3'],3,1.417817699999432,0.4,0,FastAcc,29,18,Woman,Left,
22,5,1,0.4678193999989162,['n'],0,left,['8'],4,1.4345842999991874,0.1,0,FastAcc,29,18,Woman,Left,
23,5,1,0.24965439999868977,['c'],0,right,['2'],2,1.1857094999995752,0.2,0,FastAcc,29,18,Woman,Left,
24,5,1,0.3833857999998145,['n'],1,right,['3'],3,1.4843959999998333,0.4,0,FastAcc,29,18,Woman,Left,
25,5,1,0.6337312999985443,['c'],0,right,['3'],3,2.200983400000041,0.2,0,FastAcc,29,18,Woman,Left,
26,5,1,0.5832871999991767,['c'],1,left,['9'],5,0.6689224000001559,0.4,0,FastAcc,29,18,Woman,Left,
27,5,1,0.9495495999999548,['c'],1,left,['8'],4,1.3512073000001692,0.1,0,FastAcc,29,18,Woman,Left,
28,5,1,0.5984319999988656,['n'],0,left,['8'],4,1.1357617000012397,0.2,0,FastAcc,29,18,Woman,Left,
29,5,1,1.1501948000004631,['n'],0,left,['8'],4,0.5164788000001863,0.1,0,FastAcc,29,18,Woman,Left,
30,5,1,0.4674691000000166,['c'],1,left,['3'],3,0.8015761000006023,0.1,0,FastAcc,29,18,Woman,Left,
31,5,1,0.6161028000005899,['c'],1,left,['3'],3,0.6351489999997284,0.2,0,FastAcc,29,18,Woman,Left,
32,5,1,0.5501789999998437,['n'],1,right,['3'],3,1.400958599999285,0.2,0,FastAcc,29,18,Woman,Left,
33,5,1,0.46671749999950407,['c'],1,left,['9'],5,0.7348746999996365,0.2,0,FastAcc,29,18,Woman,Left,
34,5,1,1.232434800000192,['c'],0,right,['8'],4,1.2529424000003928,0.1,0,FastAcc,29,18,Woman,Left,
35,5,1,0.3168409999998403,['n'],1,right,['0'],6,0.6673755000010715,0.2,0,FastAcc,29,18,Woman,Left,
36,5,1,0.5501707999992504,['c'],1,left,['3'],3,0.9845225999997638,0.1,0,FastAcc,29,18,Woman,Left,
37,5,1,0.6671545999997761,['c'],0,right,['8'],4,0.6513830000003509,0.2,0,FastAcc,29,18,Woman,Left,
38,5,1,0.7323367999997572,['n'],1,right,['9'],5,0.5679180000006454,0.4,0,FastAcc,29,18,Woman,Left,
39,5,1,0.4998617999990529,['c'],0,right,['8'],4,0.6348433999992267,0.4,0,FastAcc,29,18,Woman,Left,
40,5,1,0.7168443000009574,['n'],1,right,['0'],6,1.4503996000003099,0.1,0,FastAcc,29,18,Woman,Left,
41,5,1,1.1509576000007655,['n'],1,right,['0'],6,0.316935700000613,0.4,0,FastAcc,29,18,Woman,Left,
42,5,1,0.5168921000004048,['c'],1,left,['9'],5,0.7015701000000263,0.2,0,FastAcc,29,18,Woman,Left,
43,5,1,0.8503307999999379,['n'],0,left,['3'],3,0.6843730000000505,0.1,0,FastAcc,29,18,Woman,Left,
44,5,1,0.9504878999996436,['c'],1,left,['9'],5,0.8002762999985862,0.2,0,FastAcc,29,18,Woman,Left,
45,5,1,0.6163414999991801,['n'],1,right,['8'],4,0.8513211000008596,0.1,0,FastAcc,29,18,Woman,Left,
46,5,1,1.1495842999993329,['c'],1,left,['1'],1,1.9511815999994724,0.1,0,FastAcc,29,18,Woman,Left,
47,5,1,0.5661834000002273,['n'],0,left,['8'],4,0.8860400000012305,0.1,0,FastAcc,29,18,Woman,Left,
48,5,1,0.36634130000129517,['c'],0,right,['3'],3,0.7680736000002071,0.4,0,FastAcc,29,18,Woman,Left,
49,5,1,0.5164864999987913,['c'],1,left,['8'],4,0.9677194999985659,0.2,0,FastAcc,29,18,Woman,Left,
50,5,1,0.41692799999873387,['n'],1,right,['8'],4,0.617987900001026,0.1,0,FastAcc,29,18,Woman,Left,
51,5,1,0.7319880999984889,['c'],0,right,['8'],4,0.45159349999994447,0.1,0,FastAcc,29,18,Woman,Left,
52,5,1,0.6165573000016593,['n'],0,left,['9'],5,0.6332734999996319,0.2,0,FastAcc,29,18,Woman,Left,
53,5,1,1.5674640999986877,['n'],0,left,['8'],4,0.8513252000011562,0.1,0,FastAcc,29,18,Woman,Left,
54,5,1,0.5007182999997895,['c'],1,left,['0'],6,0.5847134000014194,0.1,0,FastAcc,29,18,Woman,Left,
55,5,1,0.9672583999999915,['n'],1,right,['3'],3,0.3503160000000207,0.2,0,FastAcc,29,18,Woman,Left,
56,5,1,0.6010815999998158,['c'],0,right,['9'],5,1.0690241000011156,0.4,0,FastAcc,29,18,Woman,Left,
57,5,1,0.6343273000002227,['c'],1,left,['8'],4,0.3846882999987429,0.2,0,FastAcc,29,18,Woman,Left,
58,5,1,0.6833850999992137,['n'],1,right,['0'],6,0.4348720999987563,0.4,0,FastAcc,29,18,Woman,Left,
59,5,1,0.5335502999987511,['c'],1,left,['9'],5,0.5340388999993593,0.2,0,FastAcc,29,18,Woman,Left,
0,6,1,0.5175407999995514,['n'],0,left,['8'],4,1.118194399999993,0.1,0,FastFast,29,18,Woman,Left,
1,6,1,0.3836209000000963,['n'],1,right,['3'],3,0.28495139999904495,0.2,0,FastFast,29,18,Woman,Left,
2,6,1,0.4486046999991231,['n'],1,right,['9'],5,0.5018834000002244,0.2,0,FastFast,29,18,Woman,Left,
3,6,1,0.5513620999990962,['c'],1,left,['0'],6,0.500141700000313,0.2,0,FastFast,29,18,Woman,Left,
4,6,1,0.8840359000005265,['c'],1,left,['9'],5,0.6013074000002234,0.4,0,FastFast,29,18,Woman,Left,
5,6,1,0.5003491000006761,['c'],0,right,['8'],4,0.5344253999992361,0.2,0,FastFast,29,18,Woman,Left,
6,6,1,0.5498134999998001,['c'],0,right,['3'],3,0.4347909999996773,0.1,0,FastFast,29,18,Woman,Left,
7,6,1,0.5335142999992968,['c'],1,left,['0'],6,0.4512518999999884,0.1,0,FastFast,29,18,Woman,Left,
8,6,1,0.5500564999983908,['n'],1,right,['8'],4,0.5012047000000166,0.4,0,FastFast,29,18,Woman,Left,
9,6,1,0.5506953000003705,['c'],0,right,['3'],3,0.6178526999992755,0.1,0,FastFast,29,18,Woman,Left,
10,6,1,0.5670705000011367,['c'],0,right,['2'],2,0.5847755000013422,0.1,0,FastFast,29,18,Woman,Left,
11,6,1,1.3168794000011985,['c'],1,left,['3'],3,1.2512330999998085,0.2,0,FastFast,29,18,Woman,Left,
12,6,1,0.9333664999994653,['n'],0,left,['9'],5,0.5346441000001505,0.4,0,FastFast,29,18,Woman,Left,
13,6,1,0.36639090000062424,['c'],1,left,['3'],3,0.5852320000012696,0.2,0,FastFast,29,18,Woman,Left,
14,6,1,0.6012581000013597,['n'],1,right,['9'],5,0.35131660000115517,0.4,0,FastFast,29,18,Woman,Left,
15,6,1,0.4844393000003038,['c'],1,left,['0'],6,0.3844870000011724,0.2,0,FastFast,29,18,Woman,Left,
16,6,1,0.8335465000000113,['c'],1,left,['0'],6,0.41837180000038643,0.4,0,FastFast,29,18,Woman,Left,
17,6,1,0.6173562000003585,['c'],1,left,['8'],4,0.451246299999184,0.4,0,FastFast,29,18,Woman,Left,
18,6,1,0.28379020000102173,['n'],0,left,['8'],4,0.3348241000003327,0.4,0,FastFast,29,18,Woman,Left,
19,6,1,0.4838177000001451,['c'],0,right,['1'],1,0.8835148999987723,0.4,0,FastFast,29,18,Woman,Left,
20,6,1,0.6665393999992375,['n'],1,right,['3'],3,0.33529180000005,0.2,0,FastFast,29,18,Woman,Left,
21,6,1,1.0156752000002598,['c'],1,left,['9'],5,0.8019463000000542,0.1,0,FastFast,29,18,Woman,Left,
22,6,1,0.8665349999992031,['n'],0,left,['0'],6,0.3517797000004066,0.2,0,FastFast,29,18,Woman,Left,
23,6,1,0.8837896999993973,['n'],0,left,['3'],3,0.3500805000003311,0.1,0,FastFast,29,18,Woman,Left,
24,6,1,0.601415299999644,['c'],0,right,['3'],3,0.3180234000010387,0.2,0,FastFast,29,18,Woman,Left,
25,6,1,1.416988400000264,['n'],1,right,['3'],3,1.1345221999999922,0.4,0,FastFast,29,18,Woman,Left,
26,6,1,0.6670687000005273,['n'],1,right,['3'],3,0.2846460999990086,0.4,0,FastFast,29,18,Woman,Left,
27,6,1,0.7838919999994687,['n'],1,right,['0'],6,0.3681689999993978,0.4,0,FastFast,29,18,Woman,Left,
28,6,1,0.7656078999989404,['c'],0,right,['2'],2,0.5686814000000595,0.1,0,FastFast,29,18,Woman,Left,
29,6,1,1.233531400001084,['c'],1,left,['9'],5,0.5000970000000962,0.4,0,FastFast,29,18,Woman,Left,
30,6,1,0.6339459999999235,['n'],0,left,['0'],6,0.4012449000001652,0.2,0,FastFast,29,18,Woman,Left,
31,6,1,0.7161483999989287,['c'],0,right,['3'],3,0.31871200000023236,0.4,0,FastFast,29,18,Woman,Left,
32,6,1,0.5165950000009616,['c'],1,left,['0'],6,0.9328819999991538,0.4,0,FastFast,29,18,Woman,Left,
33,6,1,0.8001960000001418,['n'],1,right,['0'],6,0.30134650000036345,0.1,0,FastFast,29,18,Woman,Left,
34,6,1,0.7506853999984742,['n'],1,right,['8'],4,0.3015106000002561,0.4,0,FastFast,29,18,Woman,Left,
35,6,1,0.6180435000005673,['c'],1,left,['3'],3,0.3494571999999607,0.2,0,FastFast,29,18,Woman,Left,
36,6,1,0.5518205000007583,['n'],1,right,['0'],6,0.31803020000006654,0.4,0,FastFast,29,18,Woman,Left,
37,6,1,0.8503869000014674,['c'],1,left,['3'],3,0.617761800000153,0.1,0,FastFast,29,18,Woman,Left,
38,6,1,0.5992608000015025,['n'],1,right,['9'],5,0.3522228999991057,0.1,0,FastFast,29,18,Woman,Left,
39,6,1,0.5504679000005126,['c'],0,right,['9'],5,0.4348054999991291,0.2,0,FastFast,29,18,Woman,Left,
40,6,1,0.6323119000007864,['n'],1,right,['3'],3,0.6352865999997448,0.2,0,FastFast,29,18,Woman,Left,
41,6,1,0.850402000000031,['n'],0,left,['9'],5,0.5347300000012183,0.1,0,FastFast,29,18,Woman,Left,
42,6,1,0.6010292999999365,['n'],0,left,['2'],2,0.6679196999994019,0.2,0,FastFast,29,18,Woman,Left,
43,6,1,1.065040699999372,['n'],1,right,['2'],2,0.41938280000067607,0.2,0,FastFast,29,18,Woman,Left,
44,6,1,0.8500241000001552,['n'],0,left,['3'],3,0.25126559999989695,0.2,0,FastFast,29,18,Woman,Left,
45,6,1,0.9675057000004017,['c'],1,left,['3'],3,0.3677647000004072,0.1,0,FastFast,29,18,Woman,Left,
46,6,1,1.0341189000009763,['n'],1,right,['9'],5,0.40112149999913527,0.4,0,FastFast,29,18,Woman,Left,
47,6,1,0.684909499999776,['c'],1,left,['8'],4,0.5013919999983045,0.1,0,FastFast,29,18,Woman,Left,
48,6,1,0.5336748999998235,['c'],1,left,['9'],5,0.6673136999997951,0.2,0,FastFast,29,18,Woman,Left,
49,6,1,0.4337727000001905,['c'],1,left,['9'],5,0.31744160000016564,0.4,0,FastFast,29,18,Woman,Left,
50,6,1,0.5817493999984436,['c'],1,left,['0'],6,0.16845719999946596,0.2,0,FastFast,29,18,Woman,Left,
51,6,1,0.5165039999992587,['c'],0,right,['8'],4,0.3000711999993655,0.1,0,FastFast,29,18,Woman,Left,
52,6,1,0.6839514999992389,['n'],1,right,['0'],6,0.30150399999911315,0.1,0,FastFast,29,18,Woman,Left,
53,6,1,0.4003114999995887,['c'],1,left,['0'],6,0.3344937000001664,0.1,0,FastFast,29,18,Woman,Left,
54,6,1,0.46653709999918647,['n'],1,right,['0'],6,0.4839764999996987,0.4,0,FastFast,29,18,Woman,Left,
55,6,1,0.38398489999963203,['c'],1,left,['9'],5,0.316971400001421,0.4,0,FastFast,29,18,Woman,Left,
56,6,1,0.43435630000021774,['n'],1,right,['0'],6,0.23573140000007697,0.2,0,FastFast,29,18,Woman,Left,
57,6,1,0.6176163999989512,['c'],0,right,['2'],2,0.2334370000007766,0.1,0,FastFast,29,18,Woman,Left,
58,6,1,0.6338212999999087,['n'],1,right,['9'],5,0.31809699999939767,0.1,0,FastFast,29,18,Woman,Left,
59,6,1,0.45031050000034156,['c'],1,left,['3'],3,0.26795429999947373,0.1,0,FastFast,29,18,Woman,Left,
0,7,1,1.034378900001684,['c'],1,left,['0'],6,2.0182483999997203,0.4,0,AccFast,29,18,Woman,Left,
1,7,1,1.800132599999415,['n'],0,left,['8'],4,0.3844532999992225,0.2,0,AccFast,29,18,Woman,Left,
2,7,1,1.431882200000473,['n'],0,left,['8'],4,0.23577949999889825,0.4,0,AccFast,29,18,Woman,Left,
3,7,1,2.1830511999996816,['c'],1,left,['3'],3,0.40102110000043467,0.1,0,AccFast,29,18,Woman,Left,
4,7,1,0.5170684999993682,['c'],1,left,['3'],3,0.26792849999947066,0.1,0,AccFast,29,18,Woman,Left,
5,7,1,0.7836012000007031,['n'],1,right,['9'],5,0.6680312000007689,0.1,0,AccFast,29,18,Woman,Left,
6,7,1,2.333274500000698,['c'],0,right,['9'],5,0.38428509999903326,0.4,0,AccFast,29,18,Woman,Left,
7,7,1,1.6004565999992337,['n'],0,left,['9'],5,0.16787599999952363,0.2,0,AccFast,29,18,Woman,Left,
8,7,1,1.1667402000002767,['n'],1,right,['0'],6,0.15127990000110003,0.4,0,AccFast,29,18,Woman,Left,
9,7,1,2.7167147000000114,['n'],0,left,['0'],6,0.20118619999993825,0.1,0,AccFast,29,18,Woman,Left,
10,7,1,1.0494214999998803,['n'],1,right,['9'],5,0.28501669999968726,0.2,0,AccFast,29,18,Woman,Left,
11,7,1,0.7348146999993332,['c'],1,left,['9'],5,0.20151200000145764,0.2,0,AccFast,29,18,Woman,Left,
12,7,1,0.8506660999992164,['n'],0,left,['0'],6,0.15096120000089286,0.2,0,AccFast,29,18,Woman,Left,
13,7,1,0.7175873999985924,['c'],1,left,['0'],6,0.11812250000002678,0.4,0,AccFast,29,18,Woman,Left,
14,7,1,1.2492000999991433,['n'],0,left,['0'],6,0.13381399999889254,0.1,0,AccFast,29,18,Woman,Left,
15,7,1,0.7341233999995893,['c'],0,right,['9'],5,0.3836693000012019,0.4,0,AccFast,29,18,Woman,Left,
16,7,1,1.0494402999993326,['n'],0,left,['0'],6,0.1688821999996435,0.4,0,AccFast,29,18,Woman,Left,
17,7,1,0.9837895999989996,['c'],1,left,['3'],3,0.2014484999999695,0.4,0,AccFast,29,18,Woman,Left,
18,7,1,0.7821967999989283,['n'],0,left,['9'],5,0.7332929000003787,0.1,0,AccFast,29,18,Woman,Left,
19,7,1,0.583171799999036,['c'],1,left,['3'],3,0.13464229999954114,0.1,0,AccFast,29,18,Woman,Left,
20,7,1,0.9331947999999102,['n'],1,right,['0'],6,0.1513251999986096,0.4,0,AccFast,29,18,Woman,Left,
21,7,1,0.8823812999999063,['n'],1,right,['0'],6,0.18546840000090015,0.4,0,AccFast,29,18,Woman,Left,
22,7,1,0.5337748000001739,['c'],1,left,['3'],3,0.11808380000002217,0.4,0,AccFast,29,18,Woman,Left,
23,7,1,0.8837038000001485,['n'],1,right,['0'],6,0.16710510000120848,0.2,0,AccFast,29,18,Woman,Left,
24,7,1,1.4840350999984366,['n'],0,left,['3'],3,0.18469639999966603,0.1,0,AccFast,29,18,Woman,Left,
25,7,1,0.7673236999999062,['n'],1,right,['3'],3,0.2015321999988373,0.4,0,AccFast,29,18,Woman,Left,
26,7,1,0.7156020999991597,['c'],1,left,['9'],5,0.41880090000086057,0.2,0,AccFast,29,18,Woman,Left,
27,7,1,0.9502642000006745,['n'],1,right,['3'],3,0.16860369999994873,0.2,0,AccFast,29,18,Woman,Left,
28,7,1,1.0504113000006328,['c'],0,right,['3'],3,0.2012443000003259,0.2,0,AccFast,29,18,Woman,Left,
29,7,1,0.6182097000000795,['n'],1,right,['9'],5,0.23485180000170658,0.4,0,AccFast,29,18,Woman,Left,
30,7,1,0.8001125000009779,['c'],1,left,['8'],4,0.5345291999983601,0.1,0,AccFast,29,18,Woman,Left,
31,7,1,1.5663868999999977,['n'],0,left,['8'],4,0.2345948000001954,0.4,0,AccFast,29,18,Woman,Left,
32,7,1,0.6502237999993667,['n'],1,right,['8'],4,0.15181410000150208,0.4,0,AccFast,29,18,Woman,Left,
33,7,1,0.8674126999994769,['c'],0,right,['3'],3,0.13464329999987967,0.4,0,AccFast,29,18,Woman,Left,
34,7,1,1.0489090999999462,['c'],1,left,['3'],3,0.1355290999999852,0.1,0,AccFast,29,18,Woman,Left,
35,7,1,0.7170164999988629,['c'],0,right,['3'],3,0.16827080000075512,0.2,0,AccFast,29,18,Woman,Left,
36,7,1,0.8163872999994055,['c'],0,right,['3'],3,0.18565320000016072,0.1,0,AccFast,29,18,Woman,Left,
37,7,1,2.1669271999999182,['n'],0,left,['9'],5,0.21671270000115328,0.2,0,AccFast,29,18,Woman,Left,
38,7,1,0.9841808000001038,['n'],0,left,['8'],4,0.1681817000007868,0.1,0,AccFast,29,18,Woman,Left,
39,7,1,0.967061699999249,['c'],0,right,['0'],6,0.16648740000164253,0.1,0,AccFast,29,18,Woman,Left,
40,7,1,0.6343893000012031,['c'],0,right,['9'],5,0.4675283999986277,0.1,0,AccFast,29,18,Woman,Left,
41,7,1,1.5508195999991585,['n'],1,right,['0'],6,0.10011649999978545,0.2,0,AccFast,29,18,Woman,Left,
42,7,1,3.3663340999992215,['c'],1,left,['0'],6,0.13325000000077125,0.1,0,AccFast,29,18,Woman,Left,
43,7,1,1.6848293999992165,['n'],0,left,['9'],5,0.5180294000001595,0.1,0,AccFast,29,18,Woman,Left,
44,7,1,0.884014199999001,['c'],1,left,['9'],5,0.13484890000108862,0.2,0,AccFast,29,18,Woman,Left,
45,7,1,0.7659325000004173,['c'],0,right,['9'],5,0.1346702999999252,0.2,0,AccFast,29,18,Woman,Left,
46,7,1,1.150364000000991,['n'],1,right,['8'],4,0.13462070000059612,0.1,0,AccFast,29,18,Woman,Left,
47,7,1,0.934274600000208,['c'],1,left,['3'],3,0.15123770000172954,0.4,0,AccFast,29,18,Woman,Left,
48,7,1,1.099115699998947,['c'],0,right,['3'],3,0.13556969999990542,0.4,0,AccFast,29,18,Woman,Left,
49,7,1,1.6489223000007769,['n'],1,right,['8'],4,0.1513699999995879,0.2,0,AccFast,29,18,Woman,Left,
50,7,1,0.7658092000001488,['n'],1,right,['8'],4,0.18568790000063018,0.2,0,AccFast,29,18,Woman,Left,
51,7,1,0.7683053999990079,['n'],1,right,['9'],5,0.2341978000004019,0.2,0,AccFast,29,18,Woman,Left,
52,7,1,0.6673190999990766,['n'],1,right,['8'],4,0.1681389000004856,0.4,0,AccFast,29,18,Woman,Left,
53,7,1,1.099490999999034,['n'],1,right,['8'],4,0.1515953999987687,0.4,0,AccFast,29,18,Woman,Left,
54,7,1,0.9671322000012879,['n'],1,right,['8'],4,0.13482999999905587,0.2,0,AccFast,29,18,Woman,Left,
55,7,1,0.7505551999984164,['n'],1,right,['8'],4,0.15180689999942842,0.2,0,AccFast,29,18,Woman,Left,
56,7,1,0.6496245999987877,['n'],0,left,['8'],4,0.1682263000002422,0.1,0,AccFast,29,18,Woman,Left,
57,7,1,0.6004523999999947,['c'],1,left,['3'],3,0.1347022999998444,0.1,0,AccFast,29,18,Woman,Left,
58,7,1,1.6991400000006252,['n'],1,right,['8'],4,0.20092029999977967,0.1,0,AccFast,29,18,Woman,Left,
59,7,1,1.016391900000599,['n'],0,left,['9'],5,0.20099190000109957,0.2,0,AccFast,29,18,Woman,Left,
0,8,1,1.4345214999993914,['c'],1,left,['8'],4,1.9677470000005997,0.1,0,AccAcc,29,18,Woman,Left,
1,8,1,0.9659762999999657,['n'],0,left,['9'],5,0.6186705999989499,0.1,0,AccAcc,29,18,Woman,Left,
2,8,1,0.9833066999999573,['c'],0,right,['0'],6,1.0329095999986748,0.1,0,AccAcc,29,18,Woman,Left,
3,8,1,1.0192045999992843,['n'],1,right,['8'],4,0.6846021000001201,0.1,0,AccAcc,29,18,Woman,Left,
4,8,1,0.9502924999997049,['c'],1,left,['9'],5,0.801397300001554,0.4,0,AccAcc,29,18,Woman,Left,
5,8,1,0.6993364999998448,['n'],0,left,['9'],5,0.5357569000007061,0.4,0,AccAcc,29,18,Woman,Left,
6,8,1,1.0161315999994258,['n'],1,right,['0'],6,0.4015577999998641,0.1,0,AccAcc,29,18,Woman,Left,
7,8,1,0.7834344999992027,['c'],1,left,['0'],6,0.3512855999997555,0.4,0,AccAcc,29,18,Woman,Left,
8,8,1,0.9674413000011555,['n'],1,right,['9'],5,0.3679437999999209,0.2,0,AccAcc,29,18,Woman,Left,
9,8,1,3.3838187999990623,['n'],0,left,['8'],4,0.7182507999987138,0.1,0,AccAcc,29,18,Woman,Left,
10,8,1,2.549569299999348,['c'],0,right,['8'],4,0.3180601000003662,0.4,0,AccAcc,29,18,Woman,Left,
11,8,1,1.9825516999990214,['n'],1,right,['9'],5,0.18554880000010598,0.2,0,AccAcc,29,18,Woman,Left,
12,8,1,1.3998303000007581,['n'],1,right,['8'],4,0.18391479999991134,0.2,0,AccAcc,29,18,Woman,Left,
13,8,1,1.4991178000000218,['c'],1,left,['9'],5,0.13484779999998864,0.4,0,AccAcc,29,18,Woman,Left,
14,8,1,2.7160845000016707,['c'],1,left,['3'],3,0.6182145000002492,0.4,0,AccAcc,29,18,Woman,Left,
15,8,1,1.1505481000003783,['c'],1,left,['9'],5,0.15115270000023884,0.2,0,AccAcc,29,18,Woman,Left,
16,8,1,0.6170951000003697,['n'],1,right,['8'],4,0.48450989999946614,0.1,0,AccAcc,29,18,Woman,Left,
17,8,1,0.70106449999912,['c'],1,left,['8'],4,0.6338506000010966,0.4,0,AccAcc,29,18,Woman,Left,
18,8,1,1.500372200000129,['c'],0,right,['8'],4,0.4333267000001797,0.4,0,AccAcc,29,18,Woman,Left,
19,8,1,3.384191200000714,['n'],0,left,['2'],2,1.0677974000009272,0.2,0,AccAcc,29,18,Woman,Left,
20,8,1,1.017438000000766,['n'],0,left,['3'],3,1.0999590999999782,0.2,0,AccAcc,29,18,Woman,Left,
21,8,1,1.1343333999993774,['n'],1,right,['9'],5,0.43266569999832427,0.4,0,AccAcc,29,18,Woman,Left,
22,8,1,1.0844230000002426,['n'],1,right,['8'],4,0.7346436000007088,0.1,0,AccAcc,29,18,Woman,Left,
23,8,1,1.616508099999919,['n'],0,left,['8'],4,0.5021319999996194,0.4,0,AccAcc,29,18,Woman,Left,
24,8,1,1.4658828999999969,['n'],0,left,['8'],4,0.5019514000014169,0.2,0,AccAcc,29,18,Woman,Left,
25,8,1,3.351084700001593,['n'],1,right,['9'],5,0.48480279999967024,0.4,0,AccAcc,29,18,Woman,Left,
26,8,1,0.6835328999986814,['c'],0,right,['9'],5,0.34933900000032736,0.1,0,AccAcc,29,18,Woman,Left,
27,8,1,0.6511915000010049,['n'],0,left,['8'],4,0.234091599999374,0.2,0,AccAcc,29,18,Woman,Left,
28,8,1,1.5336356000007072,['c'],0,right,['3'],3,0.867854800000714,0.1,0,AccAcc,29,18,Woman,Left,
29,8,1,1.1670921000004455,['n'],1,right,['9'],5,0.36790120000114257,0.1,0,AccAcc,29,18,Woman,Left,
30,8,1,1.9328248999991047,['n'],0,left,['3'],3,1.3331247000005533,0.1,0,AccAcc,29,18,Woman,Left,
31,8,1,1.7833269999991899,['n'],0,left,['8'],4,0.5679861000007804,0.1,0,AccAcc,29,18,Woman,Left,
32,8,1,4.566710400000375,['n'],0,left,['3'],3,2.2677444000000833,0.1,0,AccAcc,29,18,Woman,Left,
33,8,1,1.184063499998956,['n'],0,left,['8'],4,0.6333496999995987,0.1,0,AccAcc,29,18,Woman,Left,
34,8,1,1.3999936000000162,['n'],0,left,['3'],3,0.3846954000000551,0.2,0,AccAcc,29,18,Woman,Left,
35,8,1,1.6514746000011655,['n'],1,right,['8'],4,1.2173424000011437,0.1,0,AccAcc,29,18,Woman,Left,
36,8,1,1.7344001999990724,['n'],1,right,['8'],4,0.8176335999996809,0.2,0,AccAcc,29,18,Woman,Left,
37,8,1,0.7652058999992732,['n'],0,left,['0'],6,0.6859048000005714,0.4,0,AccAcc,29,18,Woman,Left,
38,8,1,1.683231800001522,['n'],0,left,['8'],4,0.9514140999999654,0.1,0,AccAcc,29,18,Woman,Left,
39,8,1,1.2655940999993618,['n'],1,right,['9'],5,0.5842243999995844,0.1,0,AccAcc,29,18,Woman,Left,
40,8,1,1.0163903999982722,['n'],0,left,['8'],4,0.43453409999892756,0.1,0,AccAcc,29,18,Woman,Left,
41,8,1,1.2839531999998144,['n'],0,left,['8'],4,0.7669851999999082,0.2,0,AccAcc,29,18,Woman,Left,
42,8,1,2.48302700000022,['c'],1,left,['8'],4,0.8854049999990821,0.2,0,AccAcc,29,18,Woman,Left,
43,8,1,1.4836493999991944,['n'],1,right,['9'],5,0.6511781000008341,0.2,0,AccAcc,29,18,Woman,Left,
44,8,1,1.1000909000013053,['c'],0,right,['8'],4,2.1507574999995995,0.4,0,AccAcc,29,18,Woman,Left,
45,8,1,1.9494556999998167,['c'],0,right,['9'],5,0.7677995999983978,0.2,0,AccAcc,29,18,Woman,Left,
46,8,1,1.0504858000003878,['c'],1,left,['9'],5,0.7499227999996947,0.2,0,AccAcc,29,18,Woman,Left,
47,8,1,0.8504362000003312,['n'],1,right,['8'],4,0.43479280000065046,0.4,0,AccAcc,29,18,Woman,Left,
48,8,1,0.9010963000000629,['c'],0,right,['8'],4,0.6843465000001743,0.2,0,AccAcc,29,18,Woman,Left,
49,8,1,0.7005758000013884,['n'],1,right,['8'],4,0.7675196000000142,0.4,0,AccAcc,29,18,Woman,Left,
50,8,1,0.8991949000010209,['c'],0,right,['8'],4,0.417866599998888,0.2,0,AccAcc,29,18,Woman,Left,
51,8,1,1.2986082999996142,['n'],1,right,['9'],5,0.5527289999990899,0.2,0,AccAcc,29,18,Woman,Left,
52,8,1,2.799725299999409,['c'],0,right,['8'],4,2.0342729999993026,0.4,0,AccAcc,29,18,Woman,Left,
53,8,1,1.200346499999796,['n'],1,right,['9'],5,0.617965200000981,0.4,0,AccAcc,29,18,Woman,Left,
54,8,1,1.1835107000006246,['c'],1,left,['8'],4,2.8849198000007164,0.2,0,AccAcc,29,18,Woman,Left,
55,8,1,1.116645800000697,['c'],0,right,['8'],4,0.6512352000008832,0.4,0,AccAcc,29,18,Woman,Left,
56,8,1,1.5009374000001117,['c'],0,right,['8'],4,0.6843774000008125,0.2,0,AccAcc,29,18,Woman,Left,
57,8,1,1.4164338000009593,['c'],1,left,['3'],3,0.26893310000014026,0.1,0,AccAcc,29,18,Woman,Left,
58,8,1,1.6167480999993131,['n'],0,left,['8'],4,1.3180056999990484,0.4,0,AccAcc,29,18,Woman,Left,
59,8,1,3.765344000001278,['c'],1,left,['3'],3,1.1516695999998774,0.4,0,AccAcc,29,18,Woman,Left,
0,9,1,0.8345385000011447,['n'],0,left,['8'],4,0.2836203000006208,0.4,0,FastAcc,29,18,Woman,Left,
1,9,1,0.8181124000002455,['c'],1,left,['3'],3,0.26821449999988545,0.1,0,FastAcc,29,18,Woman,Left,
2,9,1,0.7174988000006124,['c'],1,left,['3'],3,0.21796589999939897,0.2,0,FastAcc,29,18,Woman,Left,
3,9,1,0.5333825999987312,['n'],1,right,['8'],4,0.18482479999875068,0.2,0,FastAcc,29,18,Woman,Left,
4,9,1,0.48476690000097733,['n'],0,left,['9'],5,0.2511573000010685,0.4,0,FastAcc,29,18,Woman,Left,
5,9,1,0.5663852999987284,['c'],1,left,['9'],5,0.2178665000010369,0.2,0,FastAcc,29,18,Woman,Left,
6,9,1,0.4504312999997637,['n'],0,left,['8'],4,0.21777489999840327,0.1,0,FastAcc,29,18,Woman,Left,
7,9,1,0.5671977000001789,['c'],1,left,['9'],5,0.65131029999975,0.4,0,FastAcc,29,18,Woman,Left,
8,9,1,0.8827270999991015,['n'],0,left,['8'],4,0.1684599000000162,0.1,0,FastAcc,29,18,Woman,Left,
9,9,1,0.7166487000013149,['c'],1,left,['8'],4,0.20118689999981143,0.2,0,FastAcc,29,18,Woman,Left,
10,9,1,0.8170356000009633,['n'],1,right,['8'],4,0.1843881999993755,0.1,0,FastAcc,29,18,Woman,Left,
11,9,1,0.6337651000012556,['n'],1,right,['8'],4,0.20127160000083677,0.4,0,FastAcc,29,18,Woman,Left,
12,9,1,0.6832775999992009,['n'],1,right,['8'],4,0.2515189999994618,0.4,0,FastAcc,29,18,Woman,Left,
13,9,1,0.8348575999989407,['c'],1,left,['9'],5,0.16817129999981262,0.1,0,FastAcc,29,18,Woman,Left,
14,9,1,0.666530700000294,['n'],1,right,['8'],4,0.15018620000046212,0.1,0,FastAcc,29,18,Woman,Left,
15,9,1,0.5506017000006977,['n'],1,right,['0'],6,0.23447309999937715,0.1,0,FastAcc,29,18,Woman,Left,
16,9,1,0.8662816999985807,['c'],1,left,['3'],3,0.33346249999885913,0.4,0,FastAcc,29,18,Woman,Left,
17,9,1,0.8508320000000822,['n'],1,right,['9'],5,0.1846253000003344,0.4,0,FastAcc,29,18,Woman,Left,
18,9,1,0.9988090000006196,['c'],1,left,['0'],6,0.10121500000059314,0.2,0,FastAcc,29,18,Woman,Left,
19,9,1,1.2006638999991992,['c'],1,left,['8'],4,0.23488240000006044,0.1,0,FastAcc,29,18,Woman,Left,
20,9,1,1.9335535999998683,['c'],0,right,['0'],6,0.15131360000123095,0.4,0,FastAcc,29,18,Woman,Left,
21,9,1,0.883531800000128,['n'],0,left,['9'],5,0.2180770000013581,0.2,0,FastAcc,29,18,Woman,Left,
22,9,1,1.5503750999996555,['n'],1,right,['8'],4,0.1681019000006927,0.2,0,FastAcc,29,18,Woman,Left,
23,9,1,2.783249500000238,['c'],1,left,['3'],3,0.0855305999994016,0.1,0,FastAcc,29,18,Woman,Left,
24,9,1,0.9168663000000379,['n'],1,right,['9'],5,0.23451229999955103,0.1,0,FastAcc,29,18,Woman,Left,
25,9,1,1.7668841000013344,['c'],1,left,['3'],3,0.49898339999890595,0.2,0,FastAcc,29,18,Woman,Left,
26,9,1,0.7517518000004202,['n'],1,right,['9'],5,0.2514902000002621,0.2,0,FastAcc,29,18,Woman,Left,
27,9,1,0.983603900000162,['n'],1,right,['8'],4,0.11825489999864658,0.4,0,FastAcc,29,18,Woman,Left,
28,9,1,1.5168212999997195,['c'],1,left,['2'],2,0.4013501000008546,0.1,0,FastAcc,29,18,Woman,Left,
29,9,1,0.7665376999993896,['n'],1,right,['0'],6,0.1678964000002452,0.2,0,FastAcc,29,18,Woman,Left,
30,9,1,1.3491685999997571,['c'],0,right,['9'],5,0.334575799999584,0.2,0,FastAcc,29,18,Woman,Left,
31,9,1,0.7508428000001004,['n'],0,left,['0'],6,0.1346921000003931,0.2,0,FastAcc,29,18,Woman,Left,
32,9,1,0.7004546000007394,['n'],1,right,['8'],4,0.31802629999947385,0.1,0,FastAcc,29,18,Woman,Left,
33,9,1,1.2842772000003606,['n'],0,left,['8'],4,0.13367289999951026,0.2,0,FastAcc,29,18,Woman,Left,
34,9,1,3.318210800000088,['n'],0,left,['3'],3,0.20153100000061386,0.2,0,FastAcc,29,18,Woman,Left,
35,9,1,1.616949499999464,['n'],0,left,['3'],3,0.13430049999988114,0.4,0,FastAcc,29,18,Woman,Left,
36,9,1,1.1653884000006656,['n'],0,left,['0'],6,1.2509659999996074,0.1,0,FastAcc,29,18,Woman,Left,
37,9,1,1.017610799999602,['c'],1,left,['9'],5,0.36862459999974817,0.4,0,FastAcc,29,18,Woman,Left,
38,9,1,1.1020009999992908,['c'],0,right,['9'],5,0.2999847999999474,0.2,0,FastAcc,29,18,Woman,Left,
39,9,1,1.0498731000006956,['n'],0,left,['8'],4,0.18589450000035868,0.1,0,FastAcc,29,18,Woman,Left,
40,9,1,1.9483769999987999,['n'],1,right,['8'],4,0.2530763000013394,0.4,0,FastAcc,29,18,Woman,Left,
41,9,1,0.8503410000012082,['c'],1,left,['0'],6,0.2346707000015158,0.4,0,FastAcc,29,18,Woman,Left,
42,9,1,0.5669249999991735,['n'],1,right,['9'],5,0.3513135000011971,0.2,0,FastAcc,29,18,Woman,Left,
43,9,1,0.9671933000008721,['n'],1,right,['8'],4,0.1841948000001139,0.1,0,FastAcc,29,18,Woman,Left,
44,9,1,0.6175397000006342,['n'],1,right,['8'],4,0.151308099999369,0.4,0,FastAcc,29,18,Woman,Left,
45,9,1,0.7502985000010085,['c'],1,left,['8'],4,0.31785430000127235,0.1,0,FastAcc,29,18,Woman,Left,
46,9,1,1.4336954999998852,['n'],0,left,['9'],5,0.48466630000075384,0.2,0,FastAcc,29,18,Woman,Left,
47,9,1,0.9331080000010843,['n'],1,right,['0'],6,0.43303149999883317,0.4,0,FastAcc,29,18,Woman,Left,
48,9,1,2.9164736999991874,['n'],1,right,['9'],5,0.16894970000066678,0.4,0,FastAcc,29,18,Woman,Left,
49,9,1,1.0005562999995163,['c'],0,right,['8'],4,0.3679529000000912,0.1,0,FastAcc,29,18,Woman,Left,
50,9,1,0.5835661000000982,['n'],1,right,['9'],5,0.2183234000003722,0.4,0,FastAcc,29,18,Woman,Left,
51,9,1,0.8507635999994818,['c'],0,right,['0'],6,0.13462149999941175,0.2,0,FastAcc,29,18,Woman,Left,
52,9,1,1.104779299999791,['n'],1,right,['8'],4,0.485361400000329,0.2,0,FastAcc,29,18,Woman,Left,
53,9,1,0.6835140000002866,['c'],1,left,['8'],4,0.43462299999919196,0.4,0,FastAcc,29,18,Woman,Left,
54,9,1,0.6833811000014975,['n'],1,right,['9'],5,0.30213589999948454,0.1,0,FastAcc,29,18,Woman,Left,
55,9,1,0.7997030000005907,['n'],1,right,['0'],6,0.40185849999943457,0.2,0,FastAcc,29,18,Woman,Left,
56,9,1,1.1662458000009792,['n'],0,left,['2'],2,0.4853418000002421,0.1,0,FastAcc,29,18,Woman,Left,
57,9,1,0.600175899999158,['n'],1,right,['3'],3,0.6162122000005184,0.4,0,FastAcc,29,18,Woman,Left,
58,9,1,1.0827631000011024,['c'],0,right,['8'],4,0.48414750000119966,0.4,0,FastAcc,29,18,Woman,Left,
59,9,1,1.2664284000002226,['n'],0,left,['9'],5,0.4344211000006908,0.1,0,FastAcc,29,18,Woman,Left,
0,10,1,0.8328691000006074,['n'],0,left,['8'],4,0.1341699000004155,0.1,0,FastFast,29,18,Woman,Left,
1,10,1,0.4842047000001912,['c'],1,left,['3'],3,0.1677782999995543,0.2,0,FastFast,29,18,Woman,Left,
2,10,1,0.7325555999996141,['n'],1,right,['9'],5,0.23536260000037146,0.1,0,FastFast,29,18,Woman,Left,
3,10,1,0.45034169999962614,['c'],1,left,['9'],5,0.18331989999933285,0.2,0,FastFast,29,18,Woman,Left,
4,10,1,0.36602920000041195,['n'],1,right,['9'],5,0.16891299999952025,0.2,0,FastFast,29,18,Woman,Left,
5,10,1,0.3826498999987962,['c'],1,left,['8'],4,0.28498489999947196,0.4,0,FastFast,29,18,Woman,Left,
6,10,1,0.4492255999994086,['n'],1,right,['0'],6,0.15269470000021101,0.1,0,FastFast,29,18,Woman,Left,
7,10,1,0.5654904000002716,['c'],0,right,['9'],5,0.20203270000092743,0.4,0,FastFast,29,18,Woman,Left,
8,10,1,0.44980219999888504,['n'],1,right,['8'],4,0.18406510000022536,0.1,0,FastFast,29,18,Woman,Left,
9,10,1,0.499859400000787,['c'],1,left,['8'],4,0.23319520000040939,0.4,0,FastFast,29,18,Woman,Left,
10,10,1,1.0522598999996262,['n'],0,left,['3'],3,0.2186409999994794,0.2,0,FastFast,29,18,Woman,Left,
11,10,1,0.8332495000013296,['n'],1,right,['9'],5,0.13631969999914872,0.2,0,FastFast,29,18,Woman,Left,
12,10,1,0.6009951000014553,['c'],1,left,['9'],5,0.1831808999995701,0.2,0,FastFast,29,18,Woman,Left,
13,10,1,0.48254569999880914,['c'],1,left,['8'],4,0.18539210000017192,0.1,0,FastFast,29,18,Woman,Left,
14,10,1,0.5825765000008687,['n'],1,right,['9'],5,0.24986829999943438,0.4,0,FastFast,29,18,Woman,Left,
15,10,1,1.1348847999997815,['n'],0,left,['8'],4,0.16612979999990785,0.1,0,FastFast,29,18,Woman,Left,
16,10,1,1.6350550999995903,['n'],1,right,['0'],6,0.16811439999946742,0.1,0,FastFast,29,18,Woman,Left,
17,10,1,0.9503143000001728,['n'],1,right,['8'],4,0.2670053000001644,0.1,0,FastFast,29,18,Woman,Left,
18,10,1,0.5850735999993049,['c'],1,left,['9'],5,0.23322530000041297,0.2,0,FastFast,29,18,Woman,Left,
19,10,1,0.6175731000002997,['c'],0,right,['8'],4,0.2832409999991796,0.1,0,FastFast,29,18,Woman,Left,
20,10,1,1.0172500000007858,['n'],1,right,['0'],6,0.1844784000004438,0.4,0,FastFast,29,18,Woman,Left,
21,10,1,0.451087200000984,['c'],1,left,['0'],6,0.2349672999989707,0.2,0,FastFast,29,18,Woman,Left,
22,10,1,0.7164295000002312,['n'],0,left,['8'],4,0.11717289999978675,0.2,0,FastFast,29,18,Woman,Left,
23,10,1,0.616345899999942,['c'],0,right,['8'],4,0.1521639000002324,0.2,0,FastFast,29,18,Woman,Left,
24,10,1,0.8822994000001927,['c'],0,right,['3'],3,0.18557909999981348,0.4,0,FastFast,29,18,Woman,Left,
25,10,1,3.8832059999986086,['c'],1,left,['9'],5,0.13306809999994584,0.2,0,FastFast,29,18,Woman,Left,
26,10,1,0.9347729000000982,['n'],0,left,['3'],3,0.16836130000046978,0.1,0,FastFast,29,18,Woman,Left,
27,10,1,0.6686749000000418,['c'],1,left,['9'],5,0.33390870000039286,0.4,0,FastFast,29,18,Woman,Left,
28,10,1,1.0677127999988443,['c'],0,right,['9'],5,0.1845949999988079,0.4,0,FastFast,29,18,Woman,Left,
29,10,1,1.0007377000001725,['n'],0,left,['9'],5,0.09944939999877533,0.4,0,FastFast,29,18,Woman,Left,
30,10,1,0.5509304000006523,['c'],0,right,['9'],5,0.14971299999888288,0.2,0,FastFast,29,18,Woman,Left,
31,10,1,1.5346654000004492,['c'],1,left,['9'],5,0.11748679999982414,0.2,0,FastFast,29,18,Woman,Left,
32,10,1,0.8327187999984744,['c'],1,left,['0'],6,1.200562899999568,0.4,0,FastFast,29,18,Woman,Left,
33,10,1,1.052435699999478,['n'],0,left,['8'],4,0.2166691999991599,0.2,0,FastFast,29,18,Woman,Left,
34,10,1,0.6846246000004612,['c'],0,right,['9'],5,0.20034879999911936,0.1,0,FastFast,29,18,Woman,Left,
35,10,1,0.9851273000003857,['n'],1,right,['0'],6,0.11706170000070415,0.1,0,FastFast,29,18,Woman,Left,
36,10,1,0.5831508000010217,['c'],0,right,['3'],3,0.1338888999998744,0.1,0,FastFast,29,18,Woman,Left,
37,10,1,0.6166480000010779,['c'],0,right,['8'],4,0.1343254999992496,0.1,0,FastFast,29,18,Woman,Left,
38,10,1,0.6323527000004106,['c'],1,left,['8'],4,0.1509611000001314,0.4,0,FastFast,29,18,Woman,Left,
39,10,1,0.36648649999915506,['n'],0,left,['9'],5,0.08518480000020645,0.2,0,FastFast,29,18,Woman,Left,
40,10,1,0.5175194000003103,['c'],1,left,['3'],3,0.116564500000095,0.2,0,FastFast,29,18,Woman,Left,
41,10,1,0.7333496999999625,['c'],1,left,['9'],5,0.15212479999900097,0.4,0,FastFast,29,18,Woman,Left,
42,10,1,0.8655306000000564,['c'],1,left,['8'],4,0.10168410000005679,0.1,0,FastFast,29,18,Woman,Left,
43,10,1,0.7341043000014906,['c'],0,right,['0'],6,0.08555749999868567,0.4,0,FastFast,29,18,Woman,Left,
44,10,1,1.4997277000002214,['n'],0,left,['0'],6,0.11925019999944197,0.1,0,FastFast,29,18,Woman,Left,
45,10,1,1.6168992000002618,['c'],1,left,['9'],5,0.20018440000058035,0.1,0,FastFast,29,18,Woman,Left,
46,10,1,0.8321697999999742,['n'],1,right,['9'],5,0.21815629999946395,0.2,0,FastFast,29,18,Woman,Left,
47,10,1,1.4330333999987488,['n'],0,left,['9'],5,0.03487970000060159,0.2,0,FastFast,29,18,Woman,Left,
48,10,1,1.2324607999998989,['n'],1,right,['8'],4,0.25011349999840604,0.2,0,FastFast,29,18,Woman,Left,
49,10,1,1.1335994000000937,['c'],0,right,['9'],5,0.11884210000062012,0.1,0,FastFast,29,18,Woman,Left,
50,10,1,0.49958390000028885,['n'],1,right,['0'],6,0.20024130000092555,0.4,0,FastFast,29,18,Woman,Left,
51,10,1,0.4494303999999829,['c'],1,left,['9'],5,0.2671296999997139,0.4,0,FastFast,29,18,Woman,Left,
52,10,1,0.4511302999999316,['n'],1,right,['9'],5,0.20023269999910553,0.4,0,FastFast,29,18,Woman,Left,
53,10,1,1.4173000999999203,['n'],1,right,['9'],5,0.23526529999980994,0.1,0,FastFast,29,18,Woman,Left,
54,10,1,1.8662110999994184,['n'],1,right,['0'],6,0.13522480000028736,0.4,0,FastFast,29,18,Woman,Left,
55,10,1,0.7494760999998107,['c'],0,right,['8'],4,0.1332220000003872,0.1,0,FastFast,29,18,Woman,Left,
56,10,1,0.8189093000000867,['n'],0,left,['8'],4,0.13487050000003364,0.4,0,FastFast,29,18,Woman,Left,
57,10,1,0.8991691999999603,['n'],1,right,['8'],4,0.15249770000082208,0.4,0,FastFast,29,18,Woman,Left,
58,10,1,3.049045900001147,['n'],1,right,['8'],4,0.06918020000011893,0.2,0,FastFast,29,18,Woman,Left,
59,10,1,0.8842279000000417,['c'],1,left,['0'],6,0.25019369999972696,0.4,0,FastFast,29,18,Woman,Left,
0,11,1,2.1337676999992254,['n'],0,left,['9'],5,0.13446490000023914,0.1,0,AccFast,29,18,Woman,Left,
1,11,1,1.933446000000913,['n'],1,right,['9'],5,0.13624549999985902,0.2,0,AccFast,29,18,Woman,Left,
2,11,1,1.484661500000584,['n'],1,right,['9'],5,0.01807829999961541,0.4,0,AccFast,29,18,Woman,Left,
3,11,1,0.8341382999988127,['c'],1,left,['9'],5,0.10112870000011753,0.2,0,AccFast,29,18,Woman,Left,
4,11,1,0.7829251000002841,['n'],0,left,['0'],6,0.11822209999991173,0.2,0,AccFast,29,18,Woman,Left,
5,11,1,0.8671321999991051,['c'],0,right,['8'],4,0.11667990000023565,0.1,0,AccFast,29,18,Woman,Left,
6,11,1,0.9336669000003894,['n'],1,right,['9'],5,0.151591499999995,0.4,0,AccFast,29,18,Woman,Left,
7,11,1,0.9175578999984282,['n'],1,right,['8'],4,0.11794199999894772,0.1,0,AccFast,29,18,Woman,Left,
8,11,1,0.9669431000002078,['n'],0,left,['3'],3,0.26732329999867943,0.1,0,AccFast,29,18,Woman,Left,
9,11,1,1.0839897000005294,['c'],1,left,['0'],6,0.1015876000001299,0.2,0,AccFast,29,18,Woman,Left,
10,11,1,0.9671039000004384,['c'],0,right,['0'],6,0.18308740000065882,0.1,0,AccFast,29,18,Woman,Left,
11,11,1,1.0169860999994853,['c'],0,right,['0'],6,0.1682368999991013,0.1,0,AccFast,29,18,Woman,Left,
12,11,1,1.1503227000011975,['n'],1,right,['0'],6,0.11714949999986857,0.4,0,AccFast,29,18,Woman,Left,
13,11,1,0.9647918999999092,['c'],0,right,['9'],5,0.1675396999999066,0.2,0,AccFast,29,18,Woman,Left,
14,11,1,0.832927400000699,['c'],0,right,['9'],5,0.15164809999987483,0.2,0,AccFast,29,18,Woman,Left,
15,11,1,0.7672572999999829,['c'],1,left,['0'],6,0.1847075000005134,0.2,0,AccFast,29,18,Woman,Left,
16,11,1,0.6665806000000885,['n'],1,right,['9'],5,0.21675320000031206,0.4,0,AccFast,29,18,Woman,Left,
17,11,1,1.0835846999998466,['n'],1,right,['9'],5,0.11736360000031709,0.4,0,AccFast,29,18,Woman,Left,
18,11,1,0.5660581000011007,['c'],0,right,['9'],5,0.15255729999989853,0.4,0,AccFast,29,18,Woman,Left,
19,11,1,1.500305199999275,['n'],0,left,['3'],3,0.16868289999911212,0.1,0,AccFast,29,18,Woman,Left,
20,11,1,0.7667313000001741,['n'],0,left,['9'],5,0.2010922000008577,0.1,0,AccFast,29,18,Woman,Left,
21,11,1,0.4670747999989544,['c'],1,left,['0'],6,0.13348349999978382,0.4,0,AccFast,29,18,Woman,Left,
22,11,1,1.5008631000000605,['c'],0,right,['2'],2,0.1668680000002496,0.1,0,AccFast,29,18,Woman,Left,
23,11,1,1.333393499999147,['c'],0,right,['9'],5,0.13381029999982275,0.1,0,AccFast,29,18,Woman,Left,
24,11,1,0.7828304000013304,['c'],0,right,['0'],6,0.13493519999974524,0.2,0,AccFast,29,18,Woman,Left,
25,11,1,0.9000077000000601,['c'],0,right,['8'],4,0.1516873000000487,0.2,0,AccFast,29,18,Woman,Left,
26,11,1,0.6500006999995094,['c'],1,left,['8'],4,0.1848719000008714,0.1,0,AccFast,29,18,Woman,Left,
27,11,1,1.466999999998734,['n'],0,left,['8'],4,0.13478330000179994,0.4,0,AccFast,29,18,Woman,Left,
28,11,1,0.6505145000010089,['n'],1,right,['9'],5,0.1514642999991338,0.2,0,AccFast,29,18,Woman,Left,
29,11,1,0.6682693000002473,['n'],0,left,['8'],4,0.15030540000043402,0.1,0,AccFast,29,18,Woman,Left,
30,11,1,1.7834075000009761,['c'],1,left,['9'],5,0.11919590000070457,0.4,0,AccFast,29,18,Woman,Left,
31,11,1,2.5829990999991423,['c'],0,right,['0'],6,0.43542209999941406,0.1,0,AccFast,29,18,Woman,Left,
32,11,1,1.581896699999561,['n'],1,right,['9'],5,0.13572860000022047,0.1,0,AccFast,29,18,Woman,Left,
33,11,1,0.7345947000012529,['n'],0,left,['8'],4,0.15193129999897792,0.2,0,AccFast,29,18,Woman,Left,
34,11,1,0.7839664000002813,['n'],0,left,['0'],6,0.2012816999995266,0.4,0,AccFast,29,18,Woman,Left,
35,11,1,1.033777900000132,['n'],1,right,['9'],5,0.21652689999973518,0.2,0,AccFast,29,18,Woman,Left,
36,11,1,0.698716400000194,['n'],1,right,['8'],4,0.13545549999980722,0.4,0,AccFast,29,18,Woman,Left,
37,11,1,0.9672045999996044,['n'],0,left,['9'],5,0.1503658000001451,0.4,0,AccFast,29,18,Woman,Left,
38,11,1,0.8493556000012177,['n'],0,left,['0'],6,0.15209459999823594,0.2,0,AccFast,29,18,Woman,Left,
39,11,1,1.967754799999966,['c'],1,left,['8'],4,0.13450270000066666,0.4,0,AccFast,29,18,Woman,Left,
40,11,1,2.7499726000005467,['n'],0,left,['9'],5,0.16617170000063197,0.1,0,AccFast,29,18,Woman,Left,
41,11,1,0.9838294000001042,['c'],1,left,['8'],4,0.11789390000012645,0.1,0,AccFast,29,18,Woman,Left,
42,11,1,0.515253900000971,['n'],1,right,['9'],5,0.21921049999946263,0.2,0,AccFast,29,18,Woman,Left,
43,11,1,0.7324851000012131,['n'],1,right,['0'],6,0.13570110000000568,0.4,0,AccFast,29,18,Woman,Left,
44,11,1,0.814602599999489,['n'],0,left,['0'],6,0.15162000000054832,0.2,0,AccFast,29,18,Woman,Left,
45,11,1,1.383022299998629,['c'],1,left,['9'],5,0.1352378999999928,0.1,0,AccFast,29,18,Woman,Left,
46,11,1,0.899974399999337,['n'],0,left,['9'],5,0.16817790000095556,0.2,0,AccFast,29,18,Woman,Left,
47,11,1,0.7003177000005962,['n'],1,right,['9'],5,0.11818270000003395,0.4,0,AccFast,29,18,Woman,Left,
48,11,1,0.7331154000003153,['n'],0,left,['9'],5,0.13572699999895121,0.2,0,AccFast,29,18,Woman,Left,
49,11,1,0.6490905000009661,['n'],1,right,['8'],4,3.6515883000010945,0.4,0,AccFast,29,18,Woman,Left,
50,11,1,1.1836175999997067,['n'],1,right,['9'],5,0.1352617000011378,0.4,0,AccFast,29,18,Woman,Left,
51,11,1,0.9503196000005119,['n'],0,left,['0'],6,0.16804619999857096,0.2,0,AccFast,29,18,Woman,Left,
52,11,1,1.2340496999986499,['c'],0,right,['3'],3,0.36793240000042715,0.2,0,AccFast,29,18,Woman,Left,
53,11,1,1.0818148999987898,['n'],0,left,['8'],4,0.034149500001149136,0.1,0,AccFast,29,18,Woman,Left,
54,11,1,1.6331256000012218,['n'],0,left,['8'],4,0.08550490000015998,0.1,0,AccFast,29,18,Woman,Left,
55,11,1,1.849260700000741,['n'],0,left,['0'],6,0.06776669999999285,0.2,0,AccFast,29,18,Woman,Left,
56,11,1,1.1673664000009012,['n'],1,right,['0'],6,0.04963010000028589,0.4,0,AccFast,29,18,Woman,Left,
57,11,1,0.8840693999991345,['n'],0,left,['0'],6,0.05164949999925739,0.4,0,AccFast,29,18,Woman,Left,
58,11,1,1.1659010000003036,['c'],1,left,['9'],5,0.15091089999987162,0.4,0,AccFast,29,18,Woman,Left,
59,11,1,0.7994405000008555,['n'],1,right,['8'],4,0.13475950000065495,0.1,0,AccFast,29,18,Woman,Left,
0,12,1,1.4843233999999939,['c'],0,right,['9'],5,1.5678955999992468,0.2,0,AccAcc,29,18,Woman,Left,
1,12,1,0.7659342000006291,['c'],1,left,['9'],5,0.5520684000002802,0.4,0,AccAcc,29,18,Woman,Left,
2,12,1,1.4340593999986595,['n'],1,right,['8'],4,0.33479979999901843,0.1,0,AccAcc,29,18,Woman,Left,
3,12,1,1.1484381000009307,['c'],1,left,['0'],6,0.3858870999993087,0.1,0,AccAcc,29,18,Woman,Left,
4,12,1,0.6842555999992328,['n'],0,left,['9'],5,0.3008181999994122,0.2,0,AccAcc,29,18,Woman,Left,
5,12,1,0.9821907999994437,['n'],1,right,['0'],6,0.2024451000015688,0.4,0,AccAcc,29,18,Woman,Left,
6,12,1,1.8332498999989184,['c'],1,left,['8'],4,0.16746599999896716,0.4,0,AccAcc,29,18,Woman,Left,
7,12,1,2.0338579999988724,['n'],1,right,['8'],4,0.26755459999913,0.1,0,AccAcc,29,18,Woman,Left,
8,12,1,0.9495991000003414,['n'],0,left,['8'],4,0.5513797999992676,0.2,0,AccAcc,29,18,Woman,Left,
9,12,1,0.750365599998986,['c'],1,left,['9'],5,0.5672415999997611,0.4,0,AccAcc,29,18,Woman,Left,
10,12,1,1.4840218999997887,['n'],0,left,['8'],4,0.3180879999999888,0.1,0,AccAcc,29,18,Woman,Left,
11,12,1,1.617044500000702,['n'],1,right,['9'],5,0.39957739999954356,0.2,0,AccAcc,29,18,Woman,Left,
12,12,1,1.5010093999990204,['c'],1,left,['8'],4,1.0830803999997443,0.2,0,AccAcc,29,18,Woman,Left,
13,12,1,1.018573600000309,['n'],1,right,['8'],4,0.25124069999947096,0.4,0,AccAcc,29,18,Woman,Left,
14,12,1,1.8663888999999472,['c'],1,left,['8'],4,0.1190599999990809,0.2,0,AccAcc,29,18,Woman,Left,
15,12,1,1.2341386999996757,['n'],1,right,['8'],4,0.183463400000619,0.1,0,AccAcc,29,18,Woman,Left,
16,12,1,1.416792500000156,['n'],1,right,['8'],4,0.1499709999989136,0.4,0,AccAcc,29,18,Woman,Left,
17,12,1,1.151693300000261,['n'],1,right,['9'],5,0.11808829999972659,0.1,0,AccAcc,29,18,Woman,Left,
18,12,1,0.8837543000008736,['n'],1,right,['8'],4,0.1669612000005145,0.2,0,AccAcc,29,18,Woman,Left,
19,12,1,0.9343339000006381,['c'],0,right,['9'],5,0.14948540000114008,0.2,0,AccAcc,29,18,Woman,Left,
20,12,1,1.0169230999999854,['c'],1,left,['9'],5,0.1346653000000515,0.1,0,AccAcc,29,18,Woman,Left,
21,12,1,0.7498335000000225,['n'],1,right,['0'],6,0.10220060000028752,0.1,0,AccAcc,29,18,Woman,Left,
22,12,1,1.4989447999996628,['n'],1,right,['0'],6,0.18542510000042967,0.1,0,AccAcc,29,18,Woman,Left,
23,12,1,1.2328546999997343,['n'],1,right,['0'],6,0.13465899999937392,0.2,0,AccAcc,29,18,Woman,Left,
24,12,1,1.0843767000005755,['c'],1,left,['9'],5,0.18535250000059023,0.1,0,AccAcc,29,18,Woman,Left,
25,12,1,1.0328933999990113,['n'],1,right,['8'],4,0.16855840000062017,0.1,0,AccAcc,29,18,Woman,Left,
26,12,1,0.9161229000001185,['n'],0,left,['3'],3,0.16909949999899254,0.2,0,AccAcc,29,18,Woman,Left,
27,12,1,1.7499463000003743,['n'],1,right,['8'],4,0.36691549999886774,0.4,0,AccAcc,29,18,Woman,Left,
28,12,1,3.000513900000442,['c'],0,right,['3'],3,0.40037179999853834,0.2,0,AccAcc,29,18,Woman,Left,
29,12,1,2.065770999999586,['c'],0,right,['9'],5,0.2015107999995962,0.2,0,AccAcc,29,18,Woman,Left,
30,12,1,1.5165792999996484,['c'],1,left,['9'],5,0.13454149999961373,0.4,0,AccAcc,29,18,Woman,Left,
31,12,1,1.167004700000689,['c'],1,left,['9'],5,0.30065409999951953,0.4,0,AccAcc,29,18,Woman,Left,
32,12,1,0.9483885999998165,['n'],0,left,['3'],3,0.15170480000051612,0.1,0,AccAcc,29,18,Woman,Left,
33,12,1,1.266899199999898,['n'],0,left,['9'],5,0.15048569999999017,0.1,0,AccAcc,29,18,Woman,Left,
34,12,1,0.9165099000001646,['c'],1,left,['0'],6,0.41932339999948454,0.4,0,AccAcc,29,18,Woman,Left,
35,12,1,1.0173420999999507,['n'],1,right,['0'],6,0.18351679999977932,0.1,0,AccAcc,29,18,Woman,Left,
36,12,1,1.7329095999994024,['c'],1,left,['8'],4,0.1841800999991392,0.4,0,AccAcc,29,18,Woman,Left,
37,12,1,2.116724899999099,['c'],1,left,['9'],5,0.13583479999942938,0.4,0,AccAcc,29,18,Woman,Left,
38,12,1,2.232843400001002,['c'],1,left,['8'],4,0.1834569000002375,0.2,0,AccAcc,29,18,Woman,Left,
39,12,1,0.8839872999997169,['n'],0,left,['9'],5,0.16820499999994354,0.1,0,AccAcc,29,18,Woman,Left,
40,12,1,1.4003166999991663,['c'],0,right,['3'],3,0.11809039999934612,0.2,0,AccAcc,29,18,Woman,Left,
41,12,1,0.7837003000004188,['c'],1,left,['3'],3,0.0833065999995597,0.1,0,AccAcc,29,18,Woman,Left,
42,12,1,0.9174041000005673,['n'],1,right,['8'],4,0.13350160000118194,0.2,0,AccAcc,29,18,Woman,Left,
43,12,1,2.500388099999327,['n'],1,right,['8'],4,0.16846850000001723,0.1,0,AccAcc,29,18,Woman,Left,
44,12,1,0.8832013000010193,['c'],1,left,['9'],5,0.1504912999989756,0.2,0,AccAcc,29,18,Woman,Left,
45,12,1,0.8675874000000476,['c'],1,left,['9'],5,0.20136360000105924,0.4,0,AccAcc,29,18,Woman,Left,
46,12,1,0.7167939000009937,['n'],1,right,['8'],4,0.1514867999994749,0.4,0,AccAcc,29,18,Woman,Left,
47,12,1,0.9848703000006935,['c'],1,left,['9'],5,0.2501494999996794,0.2,0,AccAcc,29,18,Woman,Left,
48,12,1,2.384486899998592,['n'],0,left,['0'],6,0.15156980000028852,0.4,0,AccAcc,29,18,Woman,Left,
49,12,1,1.2178239000004396,['n'],1,right,['8'],4,0.38307069999973464,0.1,0,AccAcc,29,18,Woman,Left,
50,12,1,1.1508059999996476,['c'],1,left,['8'],4,0.1514604000003601,0.2,0,AccAcc,29,18,Woman,Left,
51,12,1,0.7664559999993799,['n'],1,right,['8'],4,0.1513321000002179,0.1,0,AccAcc,29,18,Woman,Left,
52,12,1,1.5164013000012346,['n'],0,left,['8'],4,0.20197530000041297,0.2,0,AccAcc,29,18,Woman,Left,
53,12,1,1.801647199999934,['n'],0,left,['8'],4,0.38388510000004317,0.4,0,AccAcc,29,18,Woman,Left,
54,12,1,0.6846089999999094,['n'],1,right,['8'],4,0.234655100000964,0.4,0,AccAcc,29,18,Woman,Left,
55,12,1,1.0336975999998685,['n'],1,right,['9'],5,0.5163790999995399,0.4,0,AccAcc,29,18,Woman,Left,
56,12,1,1.2508035999999265,['n'],1,right,['9'],5,0.3336527000010392,0.4,0,AccAcc,29,18,Woman,Left,
57,12,1,1.0843179000003147,['c'],1,left,['3'],3,0.6341314000001148,0.4,0,AccAcc,29,18,Woman,Left,
58,12,1,1.3674566999998206,['c'],0,right,['8'],4,0.7512242000011611,0.1,0,AccAcc,29,18,Woman,Left,
59,12,1,1.598352299999533,['n'],1,right,['8'],4,0.417005600000266,0.2,0,AccAcc,29,18,Woman,Left,
0,13,1,1.1331676999998308,['n'],1,right,['8'],4,0.20206159999906959,0.1,0,FastAcc,29,18,Woman,Left,
1,13,1,0.5667472999994061,['c'],1,left,['3'],3,0.1512801999997464,0.2,0,FastAcc,29,18,Woman,Left,
2,13,1,0.5994792000001326,['n'],1,right,['8'],4,0.15124999999898137,0.2,0,FastAcc,29,18,Woman,Left,
3,13,1,1.2022200999999768,['n'],0,left,['3'],3,0.11825040000076115,0.1,0,FastAcc,29,18,Woman,Left,
4,13,1,1.6320265000013023,['c'],1,left,['9'],5,0.13450489999922866,0.4,0,FastAcc,29,18,Woman,Left,
5,13,1,0.7499463999993168,['n'],0,left,['8'],4,0.16863129999910598,0.2,0,FastAcc,29,18,Woman,Left,
6,13,1,0.6161656999993284,['n'],0,left,['0'],6,0.15285399999993388,0.1,0,FastAcc,29,18,Woman,Left,
7,13,1,0.9502016999995249,['n'],0,left,['0'],6,0.13454089999868302,0.2,0,FastAcc,29,18,Woman,Left,
8,13,1,0.7827730999997584,['n'],0,left,['8'],4,0.11863569999877654,0.1,0,FastAcc,29,18,Woman,Left,
9,13,1,1.116393500000413,['n'],1,right,['9'],5,0.1508204999990994,0.2,0,FastAcc,29,18,Woman,Left,
10,13,1,0.8337769999998272,['c'],1,left,['3'],3,0.26643239999975776,0.4,0,FastAcc,29,18,Woman,Left,
11,13,1,1.3182127000000037,['n'],1,right,['3'],3,0.14958170000136306,0.2,0,FastAcc,29,18,Woman,Left,
12,13,1,0.7345619000006991,['n'],0,left,['9'],5,0.21894480000082694,0.4,0,FastAcc,29,18,Woman,Left,
13,13,1,0.6499003999997512,['n'],1,right,['9'],5,0.1682700000001205,0.2,0,FastAcc,29,18,Woman,Left,
14,13,1,0.8500565999984246,['n'],0,left,['8'],4,0.2502773999985948,0.4,0,FastAcc,29,18,Woman,Left,
15,13,1,0.7336302999992768,['n'],1,right,['3'],3,0.26697410000087984,0.4,0,FastAcc,29,18,Woman,Left,
16,13,1,1.5666726999988896,['c'],1,left,['3'],3,0.15118679999977758,0.1,0,FastAcc,29,18,Woman,Left,
17,13,1,0.7672851000006631,['c'],1,left,['0'],6,0.1186773000008543,0.2,0,FastAcc,29,18,Woman,Left,
18,13,1,3.3660037000008742,['n'],0,left,['3'],3,0.8684536000000662,0.1,0,FastAcc,29,18,Woman,Left,
19,13,1,1.9505742000001192,['c'],1,left,['0'],6,0.15147820000129286,0.1,0,FastAcc,29,18,Woman,Left,
20,13,1,2.7827768999995897,['n'],0,left,['9'],5,0.40165949999936856,0.4,0,FastAcc,29,18,Woman,Left,
21,13,1,1.5483430999993288,['n'],1,right,['9'],5,0.1682080999999016,0.1,0,FastAcc,29,18,Woman,Left,
22,13,1,0.8664093999996112,['n'],1,right,['0'],6,0.18447910000031698,0.4,0,FastAcc,29,18,Woman,Left,
23,13,1,4.349720700000034,['c'],1,left,['8'],4,1.5332781999986764,0.1,0,FastAcc,29,18,Woman,Left,
24,13,1,0.882492300001104,['n'],1,right,['0'],6,0.16873730000042997,0.2,0,FastAcc,29,18,Woman,Left,
25,13,1,1.1170889000004536,['n'],1,right,['9'],5,0.21682519999922079,0.1,0,FastAcc,29,18,Woman,Left,
26,13,1,1.716974000000846,['c'],1,left,['8'],4,0.13341030000083265,0.1,0,FastAcc,29,18,Woman,Left,
27,13,1,1.050956999999471,['n'],1,right,['9'],5,0.11821469999995315,0.2,0,FastAcc,29,18,Woman,Left,
28,13,1,1.0834544999997888,['c'],0,right,['8'],4,1.4672950000003766,0.4,0,FastAcc,29,18,Woman,Left,
29,13,1,1.1506996000007348,['c'],1,left,['0'],6,0.11684329999843612,0.1,0,FastAcc,29,18,Woman,Left,
30,13,1,0.8338337000004685,['n'],1,right,['9'],5,0.16813309999997728,0.4,0,FastAcc,29,18,Woman,Left,
31,13,1,0.9671629000004032,['c'],0,right,['0'],6,0.16700350000064645,0.1,0,FastAcc,29,18,Woman,Left,
32,13,1,1.8324941999999282,['n'],1,right,['0'],6,0.10207140000056825,0.4,0,FastAcc,29,18,Woman,Left,
33,13,1,1.4179743000004237,['c'],0,right,['0'],6,0.10030829999959678,0.1,0,FastAcc,29,18,Woman,Left,
34,13,1,2.6665157999996154,['n'],1,right,['0'],6,0.06681680000110646,0.4,0,FastAcc,29,18,Woman,Left,
35,13,1,0.7336812000012287,['n'],1,right,['0'],6,0.11795900000106485,0.2,0,FastAcc,29,18,Woman,Left,
36,13,1,1.2821592000000237,['c'],1,left,['0'],6,0.10151159999986703,0.1,0,FastAcc,29,18,Woman,Left,
37,13,1,0.9849290999991354,['c'],1,left,['9'],5,0.13297009999951115,0.4,0,FastAcc,29,18,Woman,Left,
38,13,1,1.3172095000008994,['c'],1,left,['9'],5,0.40229420000105165,0.2,0,FastAcc,29,18,Woman,Left,
39,13,1,1.3149085999993986,['c'],0,right,['9'],5,0.1689064000001963,0.1,0,FastAcc,29,18,Woman,Left,
40,13,1,1.765427099999215,['c'],0,right,['0'],6,0.16893530000015744,0.1,0,FastAcc,29,18,Woman,Left,
41,13,1,1.8168580000001384,['c'],1,left,['9'],5,0.1348520000010467,0.4,0,FastAcc,29,18,Woman,Left,
42,13,1,0.7502812999991875,['n'],1,right,['0'],6,0.11759530000017548,0.4,0,FastAcc,29,18,Woman,Left,
43,13,1,1.6492189000000508,['n'],1,right,['9'],5,0.11866539999937231,0.4,0,FastAcc,29,18,Woman,Left,
44,13,1,1.149645599998621,['c'],1,left,['8'],4,0.15190419999998994,0.2,0,FastAcc,29,18,Woman,Left,
45,13,1,1.217576300001383,['c'],1,left,['9'],5,0.16864560000067286,0.2,0,FastAcc,29,18,Woman,Left,
46,13,1,1.2657150999984879,['c'],1,left,['0'],6,0.13544829999955255,0.4,0,FastAcc,29,18,Woman,Left,
47,13,1,0.9674336000007315,['n'],1,right,['9'],5,0.033593500000279164,0.1,0,FastAcc,29,18,Woman,Left,
48,13,1,0.8500185000011697,['c'],0,right,['8'],4,0.20020910000130243,0.1,0,FastAcc,29,18,Woman,Left,
49,13,1,1.2831292999999278,['c'],1,left,['9'],5,0.18538269999953627,0.2,0,FastAcc,29,18,Woman,Left,
50,13,1,0.7673110000014276,['n'],1,right,['9'],5,0.13393920000089565,0.4,0,FastAcc,29,18,Woman,Left,
51,13,1,1.3000584000001254,['c'],1,left,['9'],5,0.2847106999997777,0.2,0,FastAcc,29,18,Woman,Left,
52,13,1,1.0498004000000947,['n'],1,right,['9'],5,0.11678959999881044,0.4,0,FastAcc,29,18,Woman,Left,
53,13,1,1.216993599999114,['c'],1,left,['8'],4,0.28528259999984584,0.1,0,FastAcc,29,18,Woman,Left,
54,13,1,1.1167932000007568,['c'],1,left,['0'],6,0.11767839999993157,0.4,0,FastAcc,29,18,Woman,Left,
55,13,1,1.0828868999997212,['c'],1,left,['0'],6,0.10290490000079444,0.2,0,FastAcc,29,18,Woman,Left,
56,13,1,0.7504375999997137,['n'],1,right,['9'],5,0.1678594000004523,0.4,0,FastAcc,29,18,Woman,Left,
57,13,1,1.265987499999028,['c'],0,right,['8'],4,0.2346250999999029,0.2,0,FastAcc,29,18,Woman,Left,
58,13,1,0.7354575999997905,['n'],1,right,['9'],5,0.13468289999946137,0.2,0,FastAcc,29,18,Woman,Left,
59,13,1,1.08380230000148,['c'],0,right,['9'],5,0.16606829999909678,0.2,0,FastAcc,29,18,Woman,Left,
0,14,1,1.1679345999982615,['n'],0,left,['0'],6,0.03517910000118718,0.4,0,FastFast,29,18,Woman,Left,
1,14,1,0.7018404000009468,['c'],0,right,['0'],6,0.09952130000056059,0.2,0,FastFast,29,18,Woman,Left,
2,14,1,0.5186514999986684,['c'],1,left,['0'],6,0.1507579999997688,0.4,0,FastFast,29,18,Woman,Left,
3,14,1,1.2995973999986745,['n'],0,left,['0'],6,3.1668210000007093,0.2,0,FastFast,29,18,Woman,Left,
4,14,1,0.9839444999997795,['n'],1,right,['0'],6,0.11688380000123288,0.2,0,FastFast,29,18,Woman,Left,
5,14,1,0.6175268000006326,['c'],1,left,['8'],4,0.10103760000129114,0.2,0,FastFast,29,18,Woman,Left,
6,14,1,0.7500018000009732,['n'],0,left,['8'],4,0.08453190000000177,0.4,0,FastFast,29,18,Woman,Left,
7,14,1,0.7334121999992931,['c'],0,right,['9'],5,0.13431590000072902,0.1,0,FastFast,29,18,Woman,Left,
8,14,1,0.5325904999990598,['c'],1,left,['9'],5,0.11817759999939881,0.4,0,FastFast,29,18,Woman,Left,
9,14,1,0.7502251999994769,['c'],1,left,['8'],4,0.1174431999988883,0.1,0,FastFast,29,18,Woman,Left,
10,14,1,0.48363959999915096,['c'],0,right,['0'],6,0.11857389999931911,0.4,0,FastFast,29,18,Woman,Left,
11,14,1,0.5151822999996511,['c'],1,left,['9'],5,0.21878470000046946,0.2,0,FastFast,29,18,Woman,Left,
12,14,1,0.43300210000052175,['n'],1,right,['0'],6,0.1003763999997318,0.2,0,FastFast,29,18,Woman,Left,
13,14,1,0.6332679000006465,['n'],1,right,['0'],6,0.0341575999991619,0.4,0,FastFast,29,18,Woman,Left,
14,14,1,0.4002217000015662,['c'],0,right,['0'],6,0.1016724000000977,0.1,0,FastFast,29,18,Woman,Left,
15,14,1,0.5168294999984937,['c'],1,left,['9'],5,0.08565939999971306,0.1,0,FastFast,29,18,Woman,Left,
16,14,1,0.41570750000028056,['c'],0,right,['8'],4,0.10203269999874465,0.4,0,FastFast,29,18,Woman,Left,
17,14,1,0.53288319999956,['c'],1,left,['8'],4,0.08420330000080867,0.2,0,FastFast,29,18,Woman,Left,
18,14,1,0.6995591999984754,['n'],1,right,['8'],4,0.10278780000044208,0.1,0,FastFast,29,18,Woman,Left,
19,14,1,0.4160377000007429,['n'],0,left,['9'],5,0.11773720000019239,0.2,0,FastFast,29,18,Woman,Left,
20,14,1,1.4002900999985286,['n'],0,left,['0'],6,0.0183009000011225,0.1,0,FastFast,29,18,Woman,Left,
21,14,1,0.8342168999988644,['n'],1,right,['9'],5,0.1330856999993557,0.2,0,FastFast,29,18,Woman,Left,
22,14,1,0.4845946000004915,['c'],0,right,['9'],5,0.1343972999984544,0.4,0,FastFast,29,18,Woman,Left,
23,14,1,0.28486919999886595,['n'],0,left,['9'],5,0.06606809999902907,0.4,0,FastFast,29,18,Woman,Left,
24,14,1,2.3503909000010026,['n'],1,right,['3'],3,0.21833060000062687,0.1,0,FastFast,29,18,Woman,Left,
25,14,1,1.1825625999990734,['c'],0,right,['9'],5,0.1338562999990245,0.1,0,FastFast,29,18,Woman,Left,
26,14,1,0.9344958000001498,['n'],1,right,['9'],5,0.13357160000123258,0.4,0,FastFast,29,18,Woman,Left,
27,14,1,0.5340996000013547,['c'],1,left,['0'],6,0.18498129999898083,0.2,0,FastFast,29,18,Woman,Left,
28,14,1,0.6013402999997197,['n'],0,left,['0'],6,0.11768320000010135,0.2,0,FastFast,29,18,Woman,Left,
29,14,1,0.43364310000106343,['n'],1,right,['0'],6,0.11836000000039348,0.4,0,FastFast,29,18,Woman,Left,
30,14,1,1.1008167999989382,['c'],0,right,['9'],5,0.29925660000117205,0.4,0,FastFast,29,18,Woman,Left,
31,14,1,0.7999951999991026,['n'],1,right,['9'],5,0.15136470000106783,0.1,0,FastFast,29,18,Woman,Left,
32,14,1,0.4335752999995748,['c'],1,left,['8'],4,0.1015213999999105,0.1,0,FastFast,29,18,Woman,Left,
33,14,1,0.5342937000004895,['c'],1,left,['8'],4,0.21820579999985057,0.4,0,FastFast,29,18,Woman,Left,
34,14,1,0.7330352999997558,['n'],1,right,['0'],6,0.10158279999996012,0.2,0,FastFast,29,18,Woman,Left,
35,14,1,0.6837633999984973,['n'],1,right,['0'],6,0.09973379999973986,0.1,0,FastFast,29,18,Woman,Left,
36,14,1,0.8174681999989843,['c'],1,left,['9'],5,0.13442570000006526,0.1,0,FastFast,29,18,Woman,Left,
37,14,1,0.765890099999524,['n'],1,right,['0'],6,0.11828579999928479,0.1,0,FastFast,29,18,Woman,Left,
38,14,1,0.915725000000748,['c'],1,left,['2'],2,0.3176050000001851,0.1,0,FastFast,29,18,Woman,Left,
39,14,1,0.7510223999997834,['c'],0,right,['8'],4,0.45112069999959203,0.1,0,FastFast,29,18,Woman,Left,
40,14,1,0.8999094999999215,['n'],1,right,['0'],6,0.08473980000053416,0.2,0,FastFast,29,18,Woman,Left,
41,14,1,0.7993862999992416,['c'],0,right,['9'],5,0.06839820000095642,0.2,0,FastFast,29,18,Woman,Left,
42,14,1,0.7329282999999123,['n'],1,right,['8'],4,0.1347079000006488,0.4,0,FastFast,29,18,Woman,Left,
43,14,1,0.5662060000013298,['c'],0,right,['3'],3,0.08480099999906088,0.1,0,FastFast,29,18,Woman,Left,
44,14,1,0.7665467000006174,['c'],1,left,['9'],5,0.15167119999932765,0.2,0,FastFast,29,18,Woman,Left,
45,14,1,0.533656499999779,['n'],0,left,['8'],4,0.11829600000055507,0.2,0,FastFast,29,18,Woman,Left,
46,14,1,1.267366399999446,['n'],0,left,['8'],4,0.11802729999908479,0.4,0,FastFast,29,18,Woman,Left,
47,14,1,0.6663937000012083,['n'],0,left,['8'],4,0.1014976000005845,0.1,0,FastFast,29,18,Woman,Left,
48,14,1,0.8009958000002371,['n'],1,right,['8'],4,0.06804099999862956,0.4,0,FastFast,29,18,Woman,Left,
49,14,1,0.8853308999987348,['n'],0,left,['8'],4,0.15138049999950454,0.2,0,FastFast,29,18,Woman,Left,
50,14,1,1.2340088000000833,['c'],1,left,['8'],4,0.10027810000065074,0.1,0,FastFast,29,18,Woman,Left,
51,14,1,0.7673700000013923,['n'],1,right,['8'],4,0.11849290000100154,0.4,0,FastFast,29,18,Woman,Left,
52,14,1,0.9982328000005509,['c'],1,left,['8'],4,0.13457419999940612,0.2,0,FastFast,29,18,Woman,Left,
53,14,1,0.7181595000001835,['c'],1,left,['0'],6,0.11819160000050033,0.4,0,FastFast,29,18,Woman,Left,
54,14,1,0.7671719999998459,['c'],1,left,['0'],6,0.08349509999970905,0.4,0,FastFast,29,18,Woman,Left,
55,14,1,0.7335033999988809,['c'],0,right,['0'],6,0.10111400000096182,0.2,0,FastFast,29,18,Woman,Left,
56,14,1,1.2152606999989075,['c'],0,right,['0'],6,0.06788390000110667,0.2,0,FastFast,29,18,Woman,Left,
57,14,1,0.9494231000007858,['n'],1,right,['0'],6,0.9514005000000907,0.4,0,FastFast,29,18,Woman,Left,
58,14,1,0.8165559000008216,['c'],1,left,['9'],5,0.21891390000018873,0.1,0,FastFast,29,18,Woman,Left,
59,14,1,0.6349554999997054,['c'],1,left,['9'],5,0.2513906999993196,0.1,0,FastFast,29,18,Woman,Left,
0,15,1,0.8836164999993343,['c'],1,left,['0'],6,0.06867859999874781,0.2,0,AccFast,29,18,Woman,Left,
1,15,1,0.649384000000282,['n'],0,left,['0'],6,0.11743740000019898,0.1,0,AccFast,29,18,Woman,Left,
2,15,1,0.68419349999931,['c'],0,right,['9'],5,0.10145050000028277,0.2,0,AccFast,29,18,Woman,Left,
3,15,1,0.5162287999992259,['c'],0,right,['8'],4,0.10143199999947683,0.1,0,AccFast,29,18,Woman,Left,
4,15,1,0.5497391000008065,['c'],1,left,['8'],4,0.10254189999977825,0.2,0,AccFast,29,18,Woman,Left,
5,15,1,0.8675722999996651,['c'],0,right,['8'],4,0.08501040000010107,0.4,0,AccFast,29,18,Woman,Left,
6,15,1,1.050604400001248,['n'],1,right,['9'],5,0.05139640000015788,0.1,0,AccFast,29,18,Woman,Left,
7,15,1,0.9834676000009495,['n'],1,right,['3'],3,0.16800320000038482,0.1,0,AccFast,29,18,Woman,Left,
8,15,1,0.7987951999984944,['c'],1,left,['8'],4,0.15090050000071642,0.2,0,AccFast,29,18,Woman,Left,
9,15,1,0.5829623999998148,['n'],0,left,['0'],6,0.15160950000063167,0.2,0,AccFast,29,18,Woman,Left,
10,15,1,0.7678615000004356,['n'],1,right,['9'],5,0.05122219999975641,0.2,0,AccFast,29,18,Woman,Left,
11,15,1,0.7832503000008728,['c'],0,right,['8'],4,0.05210629999965022,0.4,0,AccFast,29,18,Woman,Left,
12,15,1,1.0170338000007177,['c'],1,left,['9'],5,0.25078729999950156,0.1,0,AccFast,29,18,Woman,Left,
13,15,1,0.8510057999992569,['n'],1,right,['0'],6,0.11689149999983783,0.4,0,AccFast,29,18,Woman,Left,
14,15,1,1.800003899999865,['c'],0,right,['3'],3,0.6854192999999213,0.1,0,AccFast,29,18,Woman,Left,
15,15,1,0.8674316000015097,['n'],1,right,['8'],4,0.10148269999990589,0.4,0,AccFast,29,18,Woman,Left,
16,15,1,0.5675627000000532,['n'],1,right,['9'],5,0.15014119999977993,0.4,0,AccFast,29,18,Woman,Left,
17,15,1,1.0849493999994593,['n'],1,right,['9'],5,0.1350230999996711,0.2,0,AccFast,29,18,Woman,Left,
18,15,1,0.9827891000004456,['n'],0,left,['8'],4,0.10229299999991781,0.4,0,AccFast,29,18,Woman,Left,
19,15,1,0.8326962000010099,['c'],1,left,['0'],6,0.11860709999928076,0.2,0,AccFast,29,18,Woman,Left,
20,15,1,1.4997033999989071,['c'],1,left,['3'],3,0.1513288999994984,0.1,0,AccFast,29,18,Woman,Left,
21,15,1,0.7158463000014308,['c'],1,left,['3'],3,0.15100450000136334,0.1,0,AccFast,29,18,Woman,Left,
22,15,1,0.7997871000006853,['c'],1,left,['9'],5,0.15186519999951997,0.4,0,AccFast,29,18,Woman,Left,
23,15,1,0.6671005000007426,['n'],1,right,['3'],3,0.10035769999922195,0.1,0,AccFast,29,18,Woman,Left,
24,15,1,0.8175909000001411,['c'],1,left,['0'],6,0.15157100000033097,0.2,0,AccFast,29,18,Woman,Left,
25,15,1,0.9998319000005722,['n'],0,left,['3'],3,0.15142779999951017,0.2,0,AccFast,29,18,Woman,Left,
26,15,1,0.8170554000007542,['n'],1,right,['3'],3,0.13467909999963013,0.2,0,AccFast,29,18,Woman,Left,
27,15,1,0.7669677000012598,['c'],0,right,['9'],5,0.15118570000049658,0.1,0,AccFast,29,18,Woman,Left,
28,15,1,0.9673837000009371,['c'],1,left,['0'],6,0.15183989999968617,0.2,0,AccFast,29,18,Woman,Left,
29,15,1,0.6834163000003173,['n'],1,right,['9'],5,0.20130170000084036,0.2,0,AccFast,29,18,Woman,Left,
30,15,1,1.5517775999996957,['n'],1,right,['8'],4,0.20115090000035707,0.4,0,AccFast,29,18,Woman,Left,
31,15,1,0.9011659000007057,['n'],0,left,['8'],4,0.1673174999996263,0.1,0,AccFast,29,18,Woman,Left,
32,15,1,0.8173929000004136,['n'],1,right,['9'],5,0.1501975000010134,0.1,0,AccFast,29,18,Woman,Left,
33,15,1,1.2841257000000041,['c'],1,left,['8'],4,0.13461040000038338,0.2,0,AccFast,29,18,Woman,Left,
34,15,1,0.8498215999989043,['n'],1,right,['0'],6,0.13531960000000254,0.4,0,AccFast,29,18,Woman,Left,
35,15,1,0.8484902000000147,['c'],1,left,['0'],6,0.18531590000020515,0.4,0,AccFast,29,18,Woman,Left,
36,15,1,0.73412289999942,['n'],0,left,['9'],5,0.01795710000078543,0.1,0,AccFast,29,18,Woman,Left,
37,15,1,0.9322600999985298,['c'],1,left,['8'],4,0.08514970000032918,0.2,0,AccFast,29,18,Woman,Left,
38,15,1,2.4652275999997073,['n'],0,left,['9'],5,0.20047320000048785,0.1,0,AccFast,29,18,Woman,Left,
39,15,1,0.8334642999998323,['c'],1,left,['9'],5,0.15142400000149792,0.4,0,AccFast,29,18,Woman,Left,
40,15,1,1.8816365000002406,['n'],1,right,['0'],6,0.16970199999923352,0.1,0,AccFast,29,18,Woman,Left,
41,15,1,0.8823087000000669,['c'],1,left,['9'],5,0.10207300000001851,0.2,0,AccFast,29,18,Woman,Left,
42,15,1,0.7000389000004361,['c'],1,left,['8'],4,0.13495309999962046,0.2,0,AccFast,29,18,Woman,Left,
43,15,1,0.8330907999988995,['c'],1,left,['0'],6,0.10153600000012375,0.4,0,AccFast,29,18,Woman,Left,
44,15,1,1.932822999999189,['c'],0,right,['3'],3,0.18477770000026794,0.1,0,AccFast,29,18,Woman,Left,
45,15,1,2.566252800001166,['c'],0,right,['8'],4,0.13488419999885082,0.1,0,AccFast,29,18,Woman,Left,
46,15,1,1.7491704000003665,['c'],1,left,['9'],5,0.13492600000063248,0.4,0,AccFast,29,18,Woman,Left,
47,15,1,1.1502765000004729,['n'],1,right,['0'],6,0.11786079999910726,0.2,0,AccFast,29,18,Woman,Left,
48,15,1,0.8324489000005997,['n'],0,left,['0'],6,0.0833370999989711,0.4,0,AccFast,29,18,Woman,Left,
49,15,1,1.0172770999997738,['n'],0,left,['0'],6,0.15002839999942807,0.4,0,AccFast,29,18,Woman,Left,
50,15,1,2.466180199999144,['c'],0,right,['8'],4,0.15283330000056594,0.2,0,AccFast,29,18,Woman,Left,
51,15,1,1.6328840000005584,['n'],1,right,['8'],4,0.13589820000015607,0.2,0,AccFast,29,18,Woman,Left,
52,15,1,1.0669871999998577,['n'],1,right,['9'],5,0.10148650000155612,0.4,0,AccFast,29,18,Woman,Left,
53,15,1,2.6167977999994037,['c'],0,right,['3'],3,0.8509357000002638,0.1,0,AccFast,29,18,Woman,Left,
54,15,1,1.96602989999883,['c'],1,left,['8'],4,0.13544589999946766,0.1,0,AccFast,29,18,Woman,Left,
55,15,1,1.6485070999988238,['c'],1,left,['9'],5,0.20243379999919853,0.4,0,AccFast,29,18,Woman,Left,
56,15,1,0.8997832999993989,['n'],1,right,['0'],6,0.10164119999899413,0.4,0,AccFast,29,18,Woman,Left,
57,15,1,0.9513843000004272,['n'],1,right,['0'],6,0.1502753999993729,0.4,0,AccFast,29,18,Woman,Left,
58,15,1,0.6677274999983638,['n'],1,right,['0'],6,0.13308759999927133,0.4,0,AccFast,29,18,Woman,Left,
59,15,1,1.3852526000009675,['c'],1,left,['8'],4,0.09978620000038063,0.1,0,AccFast,29,18,Woman,Left,
