withinblocktrial,block,block_repetition,rt,resp,cor,cresp,conf_press,cj,rtconf,coherence,slow_trial,manipulation,sub,age,gender,handedness,
0,1,1,1.5167430000001332,['c'],1,left,none,-99,-99,0.5,0,none,28,18,Woman,Right,
1,1,1,0.8164578999994774,['n'],0,left,none,-99,-99,0.5,0,none,28,18,Woman,Right,
2,1,1,0.9833590000007462,['c'],1,left,none,-99,-99,0.5,0,none,28,18,Woman,Right,
3,1,1,1.3497575000001234,['c'],1,left,none,-99,-99,0.5,0,none,28,18,Woman,Right,
4,1,1,1.24985740000011,['c'],1,left,none,-99,-99,0.5,0,none,28,18,Woman,Right,
5,1,1,0.7842405999999755,['n'],1,right,none,-99,-99,0.5,0,none,28,18,Woman,Right,
6,1,1,0.8515735000000859,['c'],1,left,none,-99,-99,0.5,0,none,28,18,Woman,Right,
7,1,1,0.9839427000006253,['n'],1,right,none,-99,-99,0.5,0,none,28,18,Woman,Right,
8,1,1,0.6339593000002424,['n'],1,right,none,-99,-99,0.5,0,none,28,18,Woman,Right,
9,1,1,0.4329578999995647,['c'],0,right,none,-99,-99,0.5,0,none,28,18,Woman,Right,
10,1,1,0.9343343999998979,['n'],1,right,none,-99,-99,0.5,0,none,28,18,Woman,Right,
11,1,1,0.6006262999999308,['c'],1,left,none,-99,-99,0.5,0,none,28,18,Woman,Right,
12,1,1,0.683259100000214,['n'],1,right,none,-99,-99,0.5,0,none,28,18,Woman,Right,
13,1,1,0.850817200000165,['c'],0,right,none,-99,-99,0.5,0,none,28,18,Woman,Right,
14,1,1,1.1833012999995844,['c'],1,left,none,-99,-99,0.5,0,none,28,18,Woman,Right,
15,1,1,0.8171096999994916,['c'],1,left,none,-99,-99,0.5,0,none,28,18,Woman,Right,
16,1,1,0.9158455000006143,['c'],0,right,none,-99,-99,0.5,0,none,28,18,Woman,Right,
17,1,1,1.6670945000005304,['c'],0,right,none,-99,-99,0.5,0,none,28,18,Woman,Right,
18,1,1,1.650436300000365,['c'],0,right,none,-99,-99,0.5,0,none,28,18,Woman,Right,
19,1,1,1.383677599999828,['n'],0,left,none,-99,-99,0.5,0,none,28,18,Woman,Right,
20,1,1,1.6159889000000476,['c'],0,right,none,-99,-99,0.5,0,none,28,18,Woman,Right,
21,1,1,1.1657674999996743,['c'],1,left,none,-99,-99,0.5,0,none,28,18,Woman,Right,
22,1,1,2.299108299999716,['c'],0,right,none,-99,-99,0.5,0,none,28,18,Woman,Right,
23,1,1,0.6496837000004234,['c'],1,left,none,-99,-99,0.5,0,none,28,18,Woman,Right,
0,1,2,0.7170416999997542,['n'],1,right,none,-99,-99,0.5,0,none,28,18,Woman,Right,
1,1,2,0.5339309000000867,['c'],1,left,none,-99,-99,0.5,0,none,28,18,Woman,Right,
2,1,2,0.7845613999998022,['c'],1,left,none,-99,-99,0.5,0,none,28,18,Woman,Right,
3,1,2,0.7512416999998095,['n'],1,right,none,-99,-99,0.5,0,none,28,18,Woman,Right,
4,1,2,0.4170584000003146,['c'],1,left,none,-99,-99,0.5,0,none,28,18,Woman,Right,
5,1,2,0.4838318000001891,['c'],1,left,none,-99,-99,0.5,0,none,28,18,Woman,Right,
6,1,2,0.834302199999911,['n'],1,right,none,-99,-99,0.5,0,none,28,18,Woman,Right,
7,1,2,0.5504115000003367,['c'],1,left,none,-99,-99,0.5,0,none,28,18,Woman,Right,
8,1,2,0.6173396000003777,['n'],1,right,none,-99,-99,0.5,0,none,28,18,Woman,Right,
9,1,2,0.9163453999999547,['c'],0,right,none,-99,-99,0.5,0,none,28,18,Woman,Right,
10,1,2,1.3519000999995114,['c'],0,right,none,-99,-99,0.5,0,none,28,18,Woman,Right,
11,1,2,0.7496037999999317,['n'],0,left,none,-99,-99,0.5,0,none,28,18,Woman,Right,
12,1,2,1.6175924000008308,['n'],1,right,none,-99,-99,0.5,0,none,28,18,Woman,Right,
13,1,2,1.0664787999994587,['n'],1,right,none,-99,-99,0.5,0,none,28,18,Woman,Right,
14,1,2,0.7663964999992459,['c'],0,right,none,-99,-99,0.5,0,none,28,18,Woman,Right,
15,1,2,0.5994565000000875,['n'],1,right,none,-99,-99,0.5,0,none,28,18,Woman,Right,
16,1,2,0.533715999999913,['c'],1,left,none,-99,-99,0.5,0,none,28,18,Woman,Right,
17,1,2,0.48393119999946066,['c'],1,left,none,-99,-99,0.5,0,none,28,18,Woman,Right,
18,1,2,0.4670851999999286,['n'],1,right,none,-99,-99,0.5,0,none,28,18,Woman,Right,
19,1,2,0.41707789999964007,['c'],1,left,none,-99,-99,0.5,0,none,28,18,Woman,Right,
20,1,2,0.8343887999999424,['n'],0,left,none,-99,-99,0.5,0,none,28,18,Woman,Right,
21,1,2,0.5847481000000698,['n'],1,right,none,-99,-99,0.5,0,none,28,18,Woman,Right,
22,1,2,0.36710060000041267,['c'],1,left,none,-99,-99,0.5,0,none,28,18,Woman,Right,
23,1,2,0.767498400000477,['c'],1,left,none,-99,-99,0.5,0,none,28,18,Woman,Right,
0,1,3,0.9341605999998137,['n'],0,left,none,-99,-99,0.5,0,none,28,18,Woman,Right,
1,1,3,0.45194030000038765,['c'],1,left,none,-99,-99,0.5,0,none,28,18,Woman,Right,
2,1,3,0.6181584000005387,['n'],0,left,none,-99,-99,0.5,0,none,28,18,Woman,Right,
3,1,3,0.5351463999995758,['n'],1,right,none,-99,-99,0.5,0,none,28,18,Woman,Right,
4,1,3,0.7845192999993742,['c'],0,right,none,-99,-99,0.5,0,none,28,18,Woman,Right,
5,1,3,0.6496369999995295,['c'],1,left,none,-99,-99,0.5,0,none,28,18,Woman,Right,
6,1,3,0.4659895000004326,['n'],1,right,none,-99,-99,0.5,0,none,28,18,Woman,Right,
7,1,3,0.41710559999955876,['c'],1,left,none,-99,-99,0.5,0,none,28,18,Woman,Right,
8,1,3,0.39928320000035455,['n'],1,right,none,-99,-99,0.5,0,none,28,18,Woman,Right,
9,1,3,0.7510973999997077,['n'],1,right,none,-99,-99,0.5,0,none,28,18,Woman,Right,
10,1,3,0.48295040000084555,['n'],1,right,none,-99,-99,0.5,0,none,28,18,Woman,Right,
11,1,3,0.4671811999996862,['n'],1,right,none,-99,-99,0.5,0,none,28,18,Woman,Right,
12,1,3,0.4999240999995891,['n'],1,right,none,-99,-99,0.5,0,none,28,18,Woman,Right,
13,1,3,0.40106809999997495,['c'],1,left,none,-99,-99,0.5,0,none,28,18,Woman,Right,
14,1,3,0.48310159999982716,['n'],1,right,none,-99,-99,0.5,0,none,28,18,Woman,Right,
15,1,3,0.41685639999923296,['c'],1,left,none,-99,-99,0.5,0,none,28,18,Woman,Right,
16,1,3,0.4514535000007527,['c'],1,left,none,-99,-99,0.5,0,none,28,18,Woman,Right,
17,1,3,0.7324681000000055,['c'],1,left,none,-99,-99,0.5,0,none,28,18,Woman,Right,
18,1,3,0.484177099999215,['c'],1,left,none,-99,-99,0.5,0,none,28,18,Woman,Right,
19,1,3,0.40135490000011487,['n'],1,right,none,-99,-99,0.5,0,none,28,18,Woman,Right,
20,1,3,0.45065879999947356,['c'],1,left,none,-99,-99,0.5,0,none,28,18,Woman,Right,
21,1,3,0.38458389999959763,['n'],1,right,none,-99,-99,0.5,0,none,28,18,Woman,Right,
22,1,3,0.8171541000001525,['n'],1,right,none,-99,-99,0.5,0,none,28,18,Woman,Right,
23,1,3,0.4344824999998309,['c'],1,left,none,-99,-99,0.5,0,none,28,18,Woman,Right,
0,2,1,2.217942499999481,['c'],0,right,none,-99,-99,0.1,0,none,28,18,Woman,Right,
1,2,1,0.7182693999993717,['c'],0,right,none,-99,-99,0.4,0,none,28,18,Woman,Right,
2,2,1,0.7503528000006554,['c'],1,left,none,-99,-99,0.1,0,none,28,18,Woman,Right,
3,2,1,0.5832304999994449,['c'],1,left,none,-99,-99,0.2,0,none,28,18,Woman,Right,
4,2,1,0.45051690000036615,['n'],1,right,none,-99,-99,0.4,0,none,28,18,Woman,Right,
5,2,1,0.5005300000002535,['n'],1,right,none,-99,-99,0.2,0,none,28,18,Woman,Right,
6,2,1,0.416152200000397,['c'],0,right,none,-99,-99,0.1,0,none,28,18,Woman,Right,
7,2,1,0.7325877000002947,['n'],0,left,none,-99,-99,0.2,0,none,28,18,Woman,Right,
8,2,1,0.4819132000002355,['c'],0,right,none,-99,-99,0.4,0,none,28,18,Woman,Right,
9,2,1,0.5000217999995584,['n'],1,right,none,-99,-99,0.2,0,none,28,18,Woman,Right,
10,2,1,0.4506191000000399,['n'],1,right,none,-99,-99,0.2,0,none,28,18,Woman,Right,
11,2,1,0.6681042000000161,['n'],0,left,none,-99,-99,0.1,0,none,28,18,Woman,Right,
12,2,1,1.0326978000002782,['n'],0,left,none,-99,-99,0.1,0,none,28,18,Woman,Right,
13,2,1,0.5004799999996976,['c'],1,left,none,-99,-99,0.1,0,none,28,18,Woman,Right,
14,2,1,0.5667175999997198,['c'],0,right,none,-99,-99,0.4,0,none,28,18,Woman,Right,
15,2,1,0.9674297000001388,['n'],0,left,none,-99,-99,0.2,0,none,28,18,Woman,Right,
16,2,1,0.7672511000000668,['c'],0,right,none,-99,-99,0.2,0,none,28,18,Woman,Right,
17,2,1,0.5166682999997647,['c'],0,right,none,-99,-99,0.4,0,none,28,18,Woman,Right,
18,2,1,1.017402000000402,['c'],1,left,none,-99,-99,0.1,0,none,28,18,Woman,Right,
19,2,1,0.5164879999992991,['c'],1,left,none,-99,-99,0.4,0,none,28,18,Woman,Right,
20,2,1,0.7845747000001211,['c'],1,left,none,-99,-99,0.1,0,none,28,18,Woman,Right,
21,2,1,0.4666414999992412,['c'],1,left,none,-99,-99,0.4,0,none,28,18,Woman,Right,
22,2,1,0.5008385000000999,['c'],0,right,none,-99,-99,0.2,0,none,28,18,Woman,Right,
23,2,1,0.8818861999998262,['c'],1,left,none,-99,-99,0.4,0,none,28,18,Woman,Right,
0,2,2,0.6677531999994244,['c'],1,left,none,-99,-99,0.1,0,none,28,18,Woman,Right,
1,2,2,0.5844495000001189,['c'],1,left,none,-99,-99,0.4,0,none,28,18,Woman,Right,
2,2,2,1.0180436000000554,['n'],1,right,none,-99,-99,0.1,0,none,28,18,Woman,Right,
3,2,2,0.8991688999994949,['n'],1,right,none,-99,-99,0.2,0,none,28,18,Woman,Right,
4,2,2,0.46793909999996686,['c'],0,right,none,-99,-99,0.4,0,none,28,18,Woman,Right,
5,2,2,1.8332486999997855,['n'],0,left,none,-99,-99,0.2,0,none,28,18,Woman,Right,
6,2,2,0.751006000000416,['c'],1,left,none,-99,-99,0.1,0,none,28,18,Woman,Right,
7,2,2,0.9000539999997272,['n'],1,right,none,-99,-99,0.2,0,none,28,18,Woman,Right,
8,2,2,0.5173855000002732,['c'],1,left,none,-99,-99,0.4,0,none,28,18,Woman,Right,
9,2,2,0.5005658999998559,['c'],1,left,none,-99,-99,0.2,0,none,28,18,Woman,Right,
10,2,2,0.5511045000002923,['c'],1,left,none,-99,-99,0.2,0,none,28,18,Woman,Right,
11,2,2,0.9174542000000656,['c'],0,right,none,-99,-99,0.1,0,none,28,18,Woman,Right,
12,2,2,1.334878700000445,['c'],0,right,none,-99,-99,0.1,0,none,28,18,Woman,Right,
13,2,2,0.6013544999996157,['c'],1,left,none,-99,-99,0.1,0,none,28,18,Woman,Right,
14,2,2,0.5341085000000021,['c'],1,left,none,-99,-99,0.4,0,none,28,18,Woman,Right,
15,2,2,0.4003112999998848,['c'],1,left,none,-99,-99,0.2,0,none,28,18,Woman,Right,
16,2,2,0.5988623000002917,['c'],0,right,none,-99,-99,0.2,0,none,28,18,Woman,Right,
17,2,2,0.7506246000002648,['c'],0,right,none,-99,-99,0.4,0,none,28,18,Woman,Right,
18,2,2,0.5828942000007373,['c'],1,left,none,-99,-99,0.1,0,none,28,18,Woman,Right,
19,2,2,0.566544199999953,['n'],1,right,none,-99,-99,0.4,0,none,28,18,Woman,Right,
20,2,2,0.5508254999995188,['c'],0,right,none,-99,-99,0.1,0,none,28,18,Woman,Right,
21,2,2,1.101477899999736,['n'],1,right,none,-99,-99,0.4,0,none,28,18,Woman,Right,
22,2,2,0.984628199999861,['n'],1,right,none,-99,-99,0.2,0,none,28,18,Woman,Right,
23,2,2,0.6992998999994597,['c'],1,left,none,-99,-99,0.4,0,none,28,18,Woman,Right,
0,3,1,4.349386699999741,['n'],1,right,none,-99,-99,0.1,1,none,28,18,Woman,Right,
1,3,1,2.068323500000588,['n'],0,left,['0'],1,2.2179572000004555,0.2,0,none,28,18,Woman,Right,
2,3,1,2.5663251000005403,['c'],0,right,['2'],5,1.9344289999999091,0.2,0,none,28,18,Woman,Right,
3,3,1,1.4833017000000837,['c'],1,left,['3'],4,2.7843127999994977,0.2,0,none,28,18,Woman,Right,
4,3,1,3.0172501000006378,['c'],1,left,['3'],4,1.0013374999998632,0.2,0,none,28,18,Woman,Right,
5,3,1,2.167117199999666,['c'],0,right,['9'],2,3.9843627000000197,0.1,0,none,28,18,Woman,Right,
6,3,1,1.0172421999996004,['c'],0,right,['3'],4,0.784714399999757,0.1,0,none,28,18,Woman,Right,
7,3,1,1.4505339000006643,['c'],0,right,['9'],2,2.8177200999998604,0.4,0,none,28,18,Woman,Right,
8,3,1,2.631840000000011,['n'],1,right,['3'],4,3.7667028000005303,0.1,0,none,28,18,Woman,Right,
9,3,1,1.333299299999453,['n'],1,right,['3'],4,1.984673599999951,0.4,0,none,28,18,Woman,Right,
10,3,1,1.0005377000006774,['n'],1,right,['3'],4,0.8512972999997146,0.4,0,none,28,18,Woman,Right,
11,3,1,1.7184947000005195,['n'],1,right,['3'],4,0.9180262999998376,0.4,0,none,28,18,Woman,Right,
12,3,1,0.8172546000005241,['c'],1,left,['3'],4,1.2523584000000483,0.1,0,none,28,18,Woman,Right,
13,3,1,1.1841370000001916,['c'],1,left,['3'],4,0.6845702000000529,0.2,0,none,28,18,Woman,Right,
14,3,1,0.9827691999998933,['c'],1,left,['3'],4,0.5688927999999578,0.4,0,none,28,18,Woman,Right,
15,3,1,0.7160672999998496,['n'],0,left,['3'],4,0.5015155000000959,0.4,0,none,28,18,Woman,Right,
16,3,1,2.5657258000001093,['c'],1,left,['9'],2,2.318578200000047,0.1,0,none,28,18,Woman,Right,
17,3,1,1.1832068000003346,['n'],1,right,['3'],4,1.9334543000004487,0.2,0,none,28,18,Woman,Right,
18,3,1,1.04999670000052,['c'],0,right,['3'],4,0.45159090000015567,0.1,0,none,28,18,Woman,Right,
19,3,1,0.9506249000005482,['n'],0,left,['3'],4,0.4681340999995882,0.2,0,none,28,18,Woman,Right,
20,3,1,0.6999970000006215,['c'],1,left,['3'],4,0.3667574000000968,0.2,0,none,28,18,Woman,Right,
21,3,1,0.6513542000002417,['n'],0,left,['3'],4,0.3852523999994446,0.4,0,none,28,18,Woman,Right,
22,3,1,1.1674137999998493,['n'],0,left,['3'],4,0.849861000000601,0.1,0,none,28,18,Woman,Right,
23,3,1,0.9002667000004294,['n'],1,right,['3'],4,0.45123650000005,0.4,0,none,28,18,Woman,Right,
0,4,1,1.6664934999998877,['c'],0,right,['3'],4,2.566989800000556,0.1,0,AccAcc,28,18,Woman,Right,
1,4,1,1.9495890999996845,['n'],0,left,['9'],2,1.851108099999692,0.2,0,AccAcc,28,18,Woman,Right,
2,4,1,2.566473500000029,['n'],1,right,['3'],4,2.368043299999954,0.1,0,AccAcc,28,18,Woman,Right,
3,4,1,3.048974599999383,['n'],0,left,['8'],3,2.9017358999999487,0.1,0,AccAcc,28,18,Woman,Right,
4,4,1,4.183822999999393,['c'],1,left,['9'],2,3.0511058000001867,0.4,0,AccAcc,28,18,Woman,Right,
5,4,1,1.3992641999993793,['n'],0,left,['3'],4,1.3168919999998252,0.2,0,AccAcc,28,18,Woman,Right,
6,4,1,1.2339486000000761,['n'],1,right,['3'],4,0.9012185999999929,0.4,0,AccAcc,28,18,Woman,Right,
7,4,1,1.3003359000003911,['n'],1,right,['3'],4,1.2845618000001195,0.4,0,AccAcc,28,18,Woman,Right,
8,4,1,2.0176988000002893,['n'],1,right,['3'],4,0.6667209000006551,0.4,0,AccAcc,28,18,Woman,Right,
9,4,1,1.3837899999998626,['c'],1,left,['3'],4,0.7846499000006588,0.2,0,AccAcc,28,18,Woman,Right,
10,4,1,1.2157594999998764,['c'],1,left,['3'],4,0.8188594000002922,0.1,0,AccAcc,28,18,Woman,Right,
11,4,1,1.0336756999995487,['n'],0,left,['9'],2,1.018096300000252,0.4,0,AccAcc,28,18,Woman,Right,
12,4,1,0.9821050000000469,['c'],1,left,['3'],4,0.8174810999998954,0.1,0,AccAcc,28,18,Woman,Right,
13,4,1,1.6187330000002476,['c'],1,left,['3'],4,1.1678880999998,0.4,0,AccAcc,28,18,Woman,Right,
14,4,1,0.7672695000001113,['n'],1,right,['3'],4,1.1686397000003126,0.4,0,AccAcc,28,18,Woman,Right,
15,4,1,1.31556079999973,['n'],0,left,['3'],4,1.2521053999998912,0.1,0,AccAcc,28,18,Woman,Right,
16,4,1,1.0836671999995815,['n'],1,right,['3'],4,1.3687749999999141,0.4,0,AccAcc,28,18,Woman,Right,
17,4,1,1.6842249999999694,['n'],0,left,['3'],4,1.0172879000001558,0.1,0,AccAcc,28,18,Woman,Right,
18,4,1,1.3658990000003541,['n'],1,right,['3'],4,0.6854465000005803,0.4,0,AccAcc,28,18,Woman,Right,
19,4,1,0.7984468000004199,['c'],0,right,['9'],2,1.5857559000005494,0.2,0,AccAcc,28,18,Woman,Right,
20,4,1,1.283850199999506,['n'],1,right,['3'],4,0.5513147000001482,0.1,0,AccAcc,28,18,Woman,Right,
21,4,1,2.165621399999509,['c'],1,left,['8'],3,1.7844218000000183,0.2,0,AccAcc,28,18,Woman,Right,
22,4,1,2.966130599999815,['n'],1,right,['3'],4,3.0011364000001777,0.2,0,AccAcc,28,18,Woman,Right,
23,4,1,1.4838893000005555,['n'],1,right,['3'],4,0.6347020000002885,0.4,0,AccAcc,28,18,Woman,Right,
24,4,1,3.2504367999999886,['c'],1,left,['8'],3,0.4826874999998836,0.1,0,AccAcc,28,18,Woman,Right,
25,4,1,3.935444199999438,['n'],0,left,['0'],1,2.0841960999996445,0.1,0,AccAcc,28,18,Woman,Right,
26,4,1,1.4850464000001011,['n'],1,right,['3'],4,1.5511935999993511,0.4,0,AccAcc,28,18,Woman,Right,
27,4,1,3.8994395999998233,['n'],1,right,['8'],3,1.8999979000000167,0.2,0,AccAcc,28,18,Woman,Right,
28,4,1,0.5681526999997004,['c'],0,right,['3'],4,3.950024800000392,0.2,0,AccAcc,28,18,Woman,Right,
29,4,1,1.0511943999999858,['c'],1,left,['8'],3,1.3678978999996616,0.2,0,AccAcc,28,18,Woman,Right,
30,4,1,3.583364399999482,['c'],1,left,['8'],3,1.4010705999999118,0.1,0,AccAcc,28,18,Woman,Right,
31,4,1,0.8169350999996823,['c'],1,left,['3'],4,0.6505648000002111,0.2,0,AccAcc,28,18,Woman,Right,
32,4,1,0.866357899999457,['n'],1,right,['3'],4,1.4344366000004811,0.4,0,AccAcc,28,18,Woman,Right,
33,4,1,1.3502230000003692,['c'],0,right,['3'],4,1.2492639000001873,0.1,0,AccAcc,28,18,Woman,Right,
34,4,1,1.3498713999997562,['n'],0,left,['3'],4,3.1858320999999705,0.4,0,AccAcc,28,18,Woman,Right,
35,4,1,1.1992470000004687,['c'],1,left,['3'],4,1.3354638000000705,0.4,0,AccAcc,28,18,Woman,Right,
36,4,1,1.600328200000149,['n'],1,right,['3'],4,1.3008286999993288,0.4,0,AccAcc,28,18,Woman,Right,
37,4,1,0.8005062000001999,['c'],1,left,['3'],4,1.0347068000000945,0.1,0,AccAcc,28,18,Woman,Right,
38,4,1,0.6336208000002443,['n'],1,right,['3'],4,1.0343738999999914,0.1,0,AccAcc,28,18,Woman,Right,
39,4,1,3.4836154999993596,['n'],1,right,['3'],4,0.7846686000002592,0.2,0,AccAcc,28,18,Woman,Right,
40,4,1,1.6019418999994741,['n'],1,right,['3'],4,1.3845212000005631,0.1,0,AccAcc,28,18,Woman,Right,
41,4,1,1.8339260000002469,['n'],1,right,['3'],4,1.8171623999996882,0.1,0,AccAcc,28,18,Woman,Right,
42,4,1,1.1171356999993804,['n'],1,right,['3'],4,1.3667770000001838,0.4,0,AccAcc,28,18,Woman,Right,
43,4,1,1.2008237000000008,['n'],0,left,['3'],4,4.91759009999987,0.1,0,AccAcc,28,18,Woman,Right,
44,4,1,3.233933900000011,['n'],1,right,['3'],4,1.3512108000004446,0.2,0,AccAcc,28,18,Woman,Right,
45,4,1,0.7503420000002734,['n'],1,right,['9'],2,2.001533599999675,0.4,0,AccAcc,28,18,Woman,Right,
46,4,1,1.7512815999998566,['n'],1,right,['3'],4,0.917844800000239,0.1,0,AccAcc,28,18,Woman,Right,
47,4,1,1.3500788000001194,['c'],1,left,['3'],4,0.6681367999999566,0.1,0,AccAcc,28,18,Woman,Right,
48,4,1,1.0005045999996582,['c'],1,left,['3'],4,1.2012650999995458,0.4,0,AccAcc,28,18,Woman,Right,
49,4,1,1.0166951000001063,['n'],1,right,['3'],4,0.6679297999999108,0.2,0,AccAcc,28,18,Woman,Right,
50,4,1,1.2330460000002859,['n'],1,right,['3'],4,1.1846832000001086,0.2,0,AccAcc,28,18,Woman,Right,
51,4,1,3.3501022000000376,['n'],0,left,['3'],4,1.4511504000001878,0.2,0,AccAcc,28,18,Woman,Right,
52,4,1,2.333469199999854,['c'],1,left,['9'],2,1.1667755999997098,0.2,0,AccAcc,28,18,Woman,Right,
53,4,1,1.5492295999993075,['c'],1,left,['9'],2,0.8832199000007677,0.2,0,AccAcc,28,18,Woman,Right,
54,4,1,1.0839488999999958,['c'],1,left,['3'],4,0.5679472000001624,0.4,0,AccAcc,28,18,Woman,Right,
55,4,1,1.8336311000002752,['n'],0,left,['9'],2,1.0340603000004194,0.1,0,AccAcc,28,18,Woman,Right,
56,4,1,1.5821901999997863,['c'],0,right,['9'],2,1.0014864000004309,0.2,0,AccAcc,28,18,Woman,Right,
57,4,1,1.816795099999581,['c'],0,right,['3'],4,1.000664300000608,0.2,0,AccAcc,28,18,Woman,Right,
58,4,1,1.2663265999999567,['c'],1,left,['3'],4,0.899802400000226,0.4,0,AccAcc,28,18,Woman,Right,
59,4,1,1.1844470000005458,['c'],1,left,['3'],4,1.0012033000002702,0.2,0,AccAcc,28,18,Woman,Right,
0,5,1,3.2009633000006943,['n'],0,left,['3'],4,3.3004258999999365,0.2,0,FastAcc,28,18,Woman,Right,
1,5,1,1.1007383999995,['n'],1,right,['3'],4,1.700904399999672,0.2,0,FastAcc,28,18,Woman,Right,
2,5,1,0.8502951000000394,['n'],1,right,['3'],4,0.4506159000002299,0.2,0,FastAcc,28,18,Woman,Right,
3,5,1,0.5335519000000204,['c'],1,left,['3'],4,0.368037700000059,0.4,0,FastAcc,28,18,Woman,Right,
4,5,1,0.5172889999994368,['n'],0,left,['3'],4,0.3336458000003404,0.1,0,FastAcc,28,18,Woman,Right,
5,5,1,0.8846701999991637,['n'],1,right,['3'],4,0.40155890000005456,0.2,0,FastAcc,28,18,Woman,Right,
6,5,1,0.6178566999997201,['c'],1,left,['3'],4,0.4841357999994216,0.1,0,FastAcc,28,18,Woman,Right,
7,5,1,0.5829493000001094,['n'],1,right,['3'],4,0.3013385999993261,0.4,0,FastAcc,28,18,Woman,Right,
8,5,1,1.051120300000548,['n'],0,left,['3'],4,0.20139519999975164,0.2,0,FastAcc,28,18,Woman,Right,
9,5,1,1.1994568999998592,['n'],0,left,['3'],4,0.21782700000039767,0.1,0,FastAcc,28,18,Woman,Right,
10,5,1,0.6834208999998737,['n'],1,right,['3'],4,0.333223700000417,0.4,0,FastAcc,28,18,Woman,Right,
11,5,1,0.9179914999995162,['c'],0,right,['9'],2,0.9513730999997279,0.1,0,FastAcc,28,18,Woman,Right,
12,5,1,0.9670105999994121,['c'],1,left,['3'],4,1.5179791999998997,0.4,0,FastAcc,28,18,Woman,Right,
13,5,1,0.6171435000005658,['n'],0,left,['9'],2,1.533075800000006,0.4,0,FastAcc,28,18,Woman,Right,
14,5,1,1.133757899999182,['c'],0,right,['3'],4,0.16819919999943522,0.1,0,FastAcc,28,18,Woman,Right,
15,5,1,1.1171412999992754,['n'],0,left,['3'],4,0.40160699999978533,0.1,0,FastAcc,28,18,Woman,Right,
16,5,1,0.5844153999996706,['n'],0,left,['3'],4,0.1680623000002015,0.2,0,FastAcc,28,18,Woman,Right,
17,5,1,1.1343490999997812,['c'],1,left,['3'],4,0.2844671000002563,0.4,0,FastAcc,28,18,Woman,Right,
18,5,1,0.8669364999996105,['n'],1,right,['3'],4,0.16798670000025595,0.2,0,FastAcc,28,18,Woman,Right,
19,5,1,1.4831447000005937,['n'],1,right,['3'],4,0.25044049999996787,0.1,0,FastAcc,28,18,Woman,Right,
20,5,1,0.7652507000002515,['c'],1,left,['3'],4,0.16759319999982836,0.4,0,FastAcc,28,18,Woman,Right,
21,5,1,1.2515527999994447,['n'],0,left,['9'],2,0.5512170000001788,0.2,0,FastAcc,28,18,Woman,Right,
22,5,1,1.167193600000246,['c'],1,left,['3'],4,0.1351155000002109,0.4,0,FastAcc,28,18,Woman,Right,
23,5,1,0.8003376000006028,['c'],1,left,['3'],4,0.2832611000003453,0.4,0,FastAcc,28,18,Woman,Right,
24,5,1,2.1835275000003094,['n'],0,left,['9'],2,0.3672114999999394,0.1,0,FastAcc,28,18,Woman,Right,
25,5,1,1.5848039000002245,['c'],1,left,['3'],4,0.23361509999995178,0.2,0,FastAcc,28,18,Woman,Right,
26,5,1,0.9178075999998327,['n'],1,right,['3'],4,0.6851716999999553,0.1,0,FastAcc,28,18,Woman,Right,
27,5,1,1.4335504999999102,['n'],1,right,['3'],4,0.2684361000001445,0.4,0,FastAcc,28,18,Woman,Right,
28,5,1,1.9330512999995335,['n'],1,right,['3'],4,0.1334569000000556,0.1,0,FastAcc,28,18,Woman,Right,
29,5,1,0.683430999999473,['n'],1,right,['3'],4,0.251365000000078,0.4,0,FastAcc,28,18,Woman,Right,
30,5,1,2.8665445000006002,['n'],0,left,['3'],4,0.06653610000012122,0.1,0,FastAcc,28,18,Woman,Right,
31,5,1,1.1008252000001448,['n'],1,right,['3'],4,0.30126449999988836,0.2,0,FastAcc,28,18,Woman,Right,
32,5,1,1.2335066999994524,['n'],1,right,['3'],4,0.15155380000032892,0.1,0,FastAcc,28,18,Woman,Right,
33,5,1,0.6347587000000203,['n'],1,right,['3'],4,0.23484319999988656,0.4,0,FastAcc,28,18,Woman,Right,
34,5,1,1.4671752000003835,['n'],0,left,['3'],4,0.18465399999968213,0.4,0,FastAcc,28,18,Woman,Right,
35,5,1,0.8672507000001133,['n'],1,right,['3'],4,0.3188923999996405,0.2,0,FastAcc,28,18,Woman,Right,
36,5,1,0.8664902000000438,['n'],1,right,['3'],4,0.2524575999996159,0.4,0,FastAcc,28,18,Woman,Right,
37,5,1,0.816179700000248,['n'],1,right,['3'],4,0.18535200000042096,0.4,0,FastAcc,28,18,Woman,Right,
38,5,1,1.100482099999681,['n'],0,left,['3'],4,0.3672705999997561,0.4,0,FastAcc,28,18,Woman,Right,
39,5,1,1.8342496000004758,['n'],0,left,['3'],4,0.5179521000000022,0.2,0,FastAcc,28,18,Woman,Right,
40,5,1,0.8838502999997218,['c'],1,left,['3'],4,0.16788229999929172,0.4,0,FastAcc,28,18,Woman,Right,
41,5,1,0.5994322000005923,['n'],1,right,['3'],4,0.15142569999989064,0.1,0,FastAcc,28,18,Woman,Right,
42,5,1,0.7842256999992969,['n'],1,right,['3'],4,0.18477849999999307,0.2,0,FastAcc,28,18,Woman,Right,
43,5,1,0.7171517999995558,['n'],1,right,['3'],4,0.13428380000004836,0.1,0,FastAcc,28,18,Woman,Right,
44,5,1,0.8337566000000152,['n'],1,right,['9'],2,0.634418800000276,0.2,0,FastAcc,28,18,Woman,Right,
45,5,1,0.7496504999999161,['n'],1,right,['9'],2,0.4346112000002904,0.1,0,FastAcc,28,18,Woman,Right,
46,5,1,1.9506238999993002,['n'],1,right,['3'],4,0.4674734999998691,0.2,0,FastAcc,28,18,Woman,Right,
47,5,1,0.6008715999996639,['n'],1,right,['3'],4,0.2012574999998833,0.4,0,FastAcc,28,18,Woman,Right,
48,5,1,1.1680993999998464,['c'],1,left,['3'],4,0.10112109999954555,0.4,0,FastAcc,28,18,Woman,Right,
49,5,1,0.8999651000003723,['n'],1,right,['8'],3,0.2172946000000593,0.1,0,FastAcc,28,18,Woman,Right,
50,5,1,1.283973700000388,['n'],0,left,['3'],4,0.06826399999954447,0.2,0,FastAcc,28,18,Woman,Right,
51,5,1,0.7991550999995525,['n'],1,right,['3'],4,0.13579089999984717,0.2,0,FastAcc,28,18,Woman,Right,
52,5,1,0.6996629999994184,['c'],1,left,['3'],4,0.08491660000072443,0.2,0,FastAcc,28,18,Woman,Right,
53,5,1,0.9335891000000629,['n'],1,right,['3'],4,0.1497698000002856,0.1,0,FastAcc,28,18,Woman,Right,
54,5,1,0.6002562000003309,['c'],1,left,['3'],4,0.1513236999999208,0.1,0,FastAcc,28,18,Woman,Right,
55,5,1,0.6334686000000147,['n'],1,right,['3'],4,0.15135879999979807,0.1,0,FastAcc,28,18,Woman,Right,
56,5,1,0.4177052000004551,['n'],0,left,['3'],4,0.08355759999994916,0.2,0,FastAcc,28,18,Woman,Right,
57,5,1,0.8171144999996613,['c'],1,left,['3'],4,1.3678822000001674,0.2,0,FastAcc,28,18,Woman,Right,
58,5,1,0.7994843000005858,['c'],1,left,['3'],4,0.15123009999933856,0.1,0,FastAcc,28,18,Woman,Right,
59,5,1,0.8002805999994962,['c'],1,left,['3'],4,0.050606900000275346,0.4,0,FastAcc,28,18,Woman,Right,
0,6,1,1.2334485999999742,['n'],1,right,['3'],4,1.0346286000003602,0.1,0,FastFast,28,18,Woman,Right,
1,6,1,1.3156689000006736,['n'],1,right,['3'],4,0.03461719999995694,0.2,0,FastFast,28,18,Woman,Right,
2,6,1,0.9662693000000218,['c'],0,right,['9'],2,0.9682026000000405,0.1,0,FastFast,28,18,Woman,Right,
3,6,1,1.0840959999995903,['c'],1,left,['3'],4,0.11602940000011586,0.1,0,FastFast,28,18,Woman,Right,
4,6,1,0.8325893999999607,['n'],1,right,['3'],4,0.8015059999997902,0.4,0,FastFast,28,18,Woman,Right,
5,6,1,1.1511235999996643,['n'],1,right,['3'],4,0.0847710999996707,0.1,0,FastFast,28,18,Woman,Right,
6,6,1,0.9008925000007366,['n'],0,left,['3'],4,0.08334579999973357,0.1,0,FastFast,28,18,Woman,Right,
7,6,1,0.7681892999999036,['c'],0,right,['3'],4,0.15119640000011714,0.4,0,FastFast,28,18,Woman,Right,
8,6,1,1.2001056999997672,['c'],1,left,['3'],4,0.08415950000016892,0.4,0,FastFast,28,18,Woman,Right,
9,6,1,0.5836810999999216,['n'],1,right,['3'],4,0.08491090000006807,0.4,0,FastFast,28,18,Woman,Right,
10,6,1,0.5664746000002197,['n'],1,right,['3'],4,0.05163360000005923,0.4,0,FastFast,28,18,Woman,Right,
11,6,1,0.6157874999998967,['n'],1,right,['3'],4,0.15002370000001974,0.2,0,FastFast,28,18,Woman,Right,
12,6,1,0.8511751999994885,['c'],1,left,['3'],4,0.11843230000067706,0.2,0,FastFast,28,18,Woman,Right,
13,6,1,0.49981039999966015,['n'],1,right,['3'],4,0.08491270000013174,0.4,0,FastFast,28,18,Woman,Right,
14,6,1,1.1836683000001358,['n'],1,right,['3'],4,0.05120660000011412,0.1,0,FastFast,28,18,Woman,Right,
15,6,1,0.4505828000001202,['c'],0,right,['3'],4,0.10146119999990333,0.1,0,FastFast,28,18,Woman,Right,
16,6,1,0.9344385999993392,['c'],1,left,['3'],4,0.11814890000005107,0.2,0,FastFast,28,18,Woman,Right,
17,6,1,1.0839796999998725,['c'],0,right,['3'],4,0.18401909999920463,0.1,0,FastFast,28,18,Woman,Right,
18,6,1,1.1514698999999382,['n'],1,right,['3'],4,0.051284600000144565,0.4,0,FastFast,28,18,Woman,Right,
19,6,1,0.6006683999994493,['c'],0,right,['3'],4,0.10102749999987282,0.2,0,FastFast,28,18,Woman,Right,
20,6,1,0.8507276999998794,['n'],0,left,['3'],4,0.034456000000318454,0.2,0,FastFast,28,18,Woman,Right,
21,6,1,1.0008553999996366,['c'],1,left,['3'],4,0.25076239999998506,0.1,0,FastFast,28,18,Woman,Right,
22,6,1,1.099235800000315,['n'],0,left,['9'],2,0.4013967999999295,0.1,0,FastFast,28,18,Woman,Right,
23,6,1,0.649985399999423,['n'],1,right,['9'],2,0.10021409999990283,0.2,0,FastFast,28,18,Woman,Right,
24,6,1,0.950898000000052,['c'],1,left,['3'],4,0.08484589999989112,0.4,0,FastFast,28,18,Woman,Right,
25,6,1,0.5998767999999473,['n'],0,left,['3'],4,0.36811609999949724,0.2,0,FastFast,28,18,Woman,Right,
26,6,1,1.3667545999996946,['c'],1,left,['9'],2,0.15139199999975972,0.1,0,FastFast,28,18,Woman,Right,
27,6,1,1.1170993999994607,['n'],0,left,['9'],2,0.4002897000000303,0.4,0,FastFast,28,18,Woman,Right,
28,6,1,1.4495890999996845,['n'],1,right,['9'],2,0.3352983000004315,0.1,0,FastFast,28,18,Woman,Right,
29,6,1,1.0991629000000103,['n'],1,right,['9'],2,0.20203339999989112,0.2,0,FastFast,28,18,Woman,Right,
30,6,1,0.8669838000005257,['n'],1,right,['3'],4,0.4847946999998385,0.2,0,FastFast,28,18,Woman,Right,
31,6,1,1.2166022999999768,['c'],1,left,['3'],4,0.0846283000000767,0.2,0,FastFast,28,18,Woman,Right,
32,6,1,0.9505602999997791,['n'],1,right,['3'],4,0.08401340000000346,0.4,0,FastFast,28,18,Woman,Right,
33,6,1,0.7672275999993872,['n'],0,left,['3'],4,0.0673332999995182,0.1,0,FastFast,28,18,Woman,Right,
34,6,1,0.6337388000001738,['n'],1,right,['3'],4,0.08331920000000537,0.4,0,FastFast,28,18,Woman,Right,
35,6,1,0.7676585000008345,['c'],1,left,['3'],4,0.08466260000022885,0.2,0,FastFast,28,18,Woman,Right,
36,6,1,0.6172060999997484,['n'],0,left,['3'],4,0.05132729999968433,0.2,0,FastFast,28,18,Woman,Right,
37,6,1,0.4674756999993406,['c'],1,left,['3'],4,0.03472280000005412,0.1,0,FastFast,28,18,Woman,Right,
38,6,1,1.0837240999999267,['c'],1,left,['3'],4,0.01775069999985135,0.4,0,FastFast,28,18,Woman,Right,
39,6,1,0.73193160000028,['n'],0,left,['3'],4,0.05220140000074025,0.4,0,FastFast,28,18,Woman,Right,
40,6,1,0.6164647000005061,['n'],0,left,['3'],4,0.03486750000047323,0.2,0,FastFast,28,18,Woman,Right,
41,6,1,0.7666479999998046,['n'],1,right,['3'],4,0.10140270000010787,0.2,0,FastFast,28,18,Woman,Right,
42,6,1,0.8172221999993781,['c'],1,left,['3'],4,0.08455010000034235,0.2,0,FastFast,28,18,Woman,Right,
43,6,1,0.6161511000000246,['n'],0,left,['3'],4,0.03394459999981336,0.4,0,FastFast,28,18,Woman,Right,
44,6,1,0.4679306000007273,['c'],0,right,['3'],4,0.09974549999969895,0.2,0,FastFast,28,18,Woman,Right,
45,6,1,0.5839280000000144,['n'],1,right,['3'],4,0.034711199999946984,0.1,0,FastFast,28,18,Woman,Right,
46,6,1,1.1174063000007664,['n'],0,left,['3'],4,0.11803899999995338,0.1,0,FastFast,28,18,Woman,Right,
47,6,1,0.8828676000002815,['n'],1,right,['3'],4,1.8180609999999433,0.4,0,FastFast,28,18,Woman,Right,
48,6,1,0.8668116999997437,['c'],1,left,['3'],4,0.05004540000027191,0.4,0,FastFast,28,18,Woman,Right,
49,6,1,0.5826360999999451,['n'],1,right,['3'],4,0.08537819999946805,0.2,0,FastFast,28,18,Woman,Right,
50,6,1,0.9337750999993659,['n'],1,right,['3'],4,0.018097499999385036,0.4,0,FastFast,28,18,Woman,Right,
51,6,1,0.5817411000007269,['n'],1,right,['3'],4,0.05077939999955561,0.4,0,FastFast,28,18,Woman,Right,
52,6,1,0.9512713000003714,['n'],1,right,['3'],4,0.01803719999952591,0.1,0,FastFast,28,18,Woman,Right,
53,6,1,0.4165037000002485,['n'],0,left,['3'],4,0.018028100000265113,0.4,0,FastFast,28,18,Woman,Right,
54,6,1,0.7008585000003222,['n'],0,left,['3'],4,0.901713700000073,0.4,0,FastFast,28,18,Woman,Right,
55,6,1,0.5510709000000134,['c'],0,right,['3'],4,0.1679138999998031,0.2,0,FastFast,28,18,Woman,Right,
56,6,1,0.867159499999616,['c'],1,left,['3'],4,1.1180303999999524,0.1,0,FastFast,28,18,Woman,Right,
57,6,1,0.6998767000004591,['n'],0,left,['3'],4,0.05207420000078855,0.1,0,FastFast,28,18,Woman,Right,
58,6,1,0.599352700000054,['n'],0,left,['3'],4,0.05217499999980646,0.1,0,FastFast,28,18,Woman,Right,
59,6,1,0.5671492999999828,['n'],0,left,['3'],4,0.08475720000024012,0.2,0,FastFast,28,18,Woman,Right,
0,7,1,1.6003192000007402,['n'],0,left,['9'],2,1.3507604999995237,0.1,0,AccFast,28,18,Woman,Right,
1,7,1,0.9982364999996207,['n'],1,right,['3'],4,0.4840824999992037,0.1,0,AccFast,28,18,Woman,Right,
2,7,1,1.2019292000004498,['n'],1,right,['3'],4,1.1514490999998088,0.2,0,AccFast,28,18,Woman,Right,
3,7,1,1.766949900000327,['n'],0,left,['3'],4,0.3513628000000608,0.1,0,AccFast,28,18,Woman,Right,
4,7,1,0.867352999999639,['n'],1,right,['3'],4,0.21704740000132006,0.4,0,AccFast,28,18,Woman,Right,
5,7,1,0.9333009000001766,['n'],1,right,['9'],2,1.000716900000043,0.2,0,AccFast,28,18,Woman,Right,
6,7,1,1.2325572000008833,['n'],1,right,['9'],2,0.23495709999951941,0.2,0,AccFast,28,18,Woman,Right,
7,7,1,2.367742599999474,['c'],1,left,['3'],4,1.2347249000013107,0.4,0,AccFast,28,18,Woman,Right,
8,7,1,1.5837899999987712,['c'],0,right,['3'],4,0.15168540000013309,0.1,0,AccFast,28,18,Woman,Right,
9,7,1,2.316471200001615,['c'],1,left,['3'],4,0.1677886999987095,0.1,0,AccFast,28,18,Woman,Right,
10,7,1,2.1338492999984737,['n'],0,left,['3'],4,0.09985039999992296,0.1,0,AccFast,28,18,Woman,Right,
11,7,1,1.8175267999995413,['n'],1,right,['3'],4,0.11800769999899785,0.2,0,AccFast,28,18,Woman,Right,
12,7,1,1.1163436000006186,['n'],1,right,['3'],4,0.184430400000565,0.1,0,AccFast,28,18,Woman,Right,
13,7,1,5.015953599999193,x,-99,left,none,-99,-99,0.1,1,AccFast,28,18,Woman,Right,
14,7,1,1.134649999999965,['c'],1,left,['3'],4,0.1344530999995186,0.4,0,AccFast,28,18,Woman,Right,
15,7,1,1.6005893000001379,['n'],0,left,['3'],4,0.2009662999989814,0.1,0,AccFast,28,18,Woman,Right,
16,7,1,0.7840484999996988,['c'],1,left,['3'],4,0.09991329999866139,0.2,0,AccFast,28,18,Woman,Right,
17,7,1,0.9993787999992492,['c'],1,left,['3'],4,0.05125620000035269,0.1,0,AccFast,28,18,Woman,Right,
18,7,1,0.9172523000015644,['n'],1,right,['3'],4,0.10016800000084913,0.2,0,AccFast,28,18,Woman,Right,
19,7,1,1.5506688999994367,['c'],0,right,['3'],4,0.06701020000036806,0.2,0,AccFast,28,18,Woman,Right,
20,7,1,0.8163833000016893,['c'],1,left,['3'],4,0.11853619999965304,0.4,0,AccFast,28,18,Woman,Right,
21,7,1,0.8677320999995572,['n'],1,right,['3'],4,0.1680848000014521,0.2,0,AccFast,28,18,Woman,Right,
22,7,1,0.717267099998935,['c'],1,left,['3'],4,0.11784850000003644,0.1,0,AccFast,28,18,Woman,Right,
23,7,1,0.7511945000005653,['n'],1,right,['3'],4,0.13395259999924747,0.4,0,AccFast,28,18,Woman,Right,
24,7,1,1.3339278000003105,['n'],1,right,['3'],4,0.11782929999935732,0.4,0,AccFast,28,18,Woman,Right,
25,7,1,0.4672575999993569,['c'],1,left,['3'],4,0.1499908999994659,0.2,0,AccFast,28,18,Woman,Right,
26,7,1,0.818405599999096,['n'],1,right,['3'],4,0.06811050000032992,0.1,0,AccFast,28,18,Woman,Right,
27,7,1,1.266744700000345,['n'],1,right,['3'],4,0.11812570000074629,0.4,0,AccFast,28,18,Woman,Right,
28,7,1,0.9503260000001319,['n'],1,right,['3'],4,0.08468879999963974,0.2,0,AccFast,28,18,Woman,Right,
29,7,1,0.7340932000006433,['n'],1,right,['3'],4,0.09974329999931797,0.4,0,AccFast,28,18,Woman,Right,
30,7,1,0.4675323000010394,['c'],1,left,['3'],4,0.0509330000004411,0.4,0,AccFast,28,18,Woman,Right,
31,7,1,0.9010316999992938,['n'],1,right,['3'],4,0.10034859999905166,0.2,0,AccFast,28,18,Woman,Right,
32,7,1,2.8174474999996164,['c'],0,right,['9'],2,0.20018479999998817,0.4,0,AccFast,28,18,Woman,Right,
33,7,1,0.8009332999990875,['c'],1,left,['3'],4,0.26822729999912553,0.4,0,AccFast,28,18,Woman,Right,
34,7,1,0.700427399999171,['n'],1,right,['3'],4,0.1013965999991342,0.2,0,AccFast,28,18,Woman,Right,
35,7,1,0.5669873999995616,['c'],1,left,['3'],4,0.08493390000148793,0.4,0,AccFast,28,18,Woman,Right,
36,7,1,0.9834955000005721,['n'],1,right,['3'],4,0.1353624999992462,0.2,0,AccFast,28,18,Woman,Right,
37,7,1,0.9337274999998044,['n'],1,right,['3'],4,0.051236499999504304,0.2,0,AccFast,28,18,Woman,Right,
38,7,1,0.7162831999994523,['c'],1,left,['3'],4,0.08445639999990817,0.4,0,AccFast,28,18,Woman,Right,
39,7,1,0.933823699999266,['c'],1,left,['3'],4,0.08437559999947553,0.4,0,AccFast,28,18,Woman,Right,
40,7,1,0.9336622999999236,['n'],1,right,['3'],4,0.11836960000073304,0.2,0,AccFast,28,18,Woman,Right,
41,7,1,1.1503887999988365,['c'],1,left,['3'],4,0.11861619999945106,0.1,0,AccFast,28,18,Woman,Right,
42,7,1,1.3500796999996965,['n'],1,right,['3'],4,0.06845449999855191,0.4,0,AccFast,28,18,Woman,Right,
43,7,1,0.9178929999998218,['c'],1,left,['3'],4,1.2012845999997808,0.1,0,AccFast,28,18,Woman,Right,
44,7,1,1.2495483000002423,['c'],0,right,['3'],4,0.018282800001543364,0.1,0,AccFast,28,18,Woman,Right,
45,7,1,0.7671636000013677,['n'],1,right,['3'],4,0.13531309999962104,0.1,0,AccFast,28,18,Woman,Right,
46,7,1,0.8994354000005842,['c'],1,left,['3'],4,0.03465869999854476,0.1,0,AccFast,28,18,Woman,Right,
47,7,1,1.517087199999878,['c'],1,left,['3'],4,0.1513663000005181,0.1,0,AccFast,28,18,Woman,Right,
48,7,1,0.8001065999997081,['c'],1,left,['3'],4,0.13456650000080117,0.4,0,AccFast,28,18,Woman,Right,
49,7,1,0.8005749999992986,['c'],1,left,['3'],4,0.06819259999974747,0.4,0,AccFast,28,18,Woman,Right,
50,7,1,1.5497792000005575,['c'],1,left,['3'],4,0.11798420000013721,0.1,0,AccFast,28,18,Woman,Right,
51,7,1,2.5170522000007622,['c'],0,right,['9'],2,0.21684540000023844,0.1,0,AccFast,28,18,Woman,Right,
52,7,1,0.9846777000002476,['c'],1,left,['3'],4,0.1177958000007493,0.2,0,AccFast,28,18,Woman,Right,
53,7,1,1.2331978000001982,['c'],1,left,['3'],4,0.06797259999984817,0.4,0,AccFast,28,18,Woman,Right,
54,7,1,0.7177267000006395,['c'],1,left,['3'],4,0.08474559999922349,0.4,0,AccFast,28,18,Woman,Right,
55,7,1,0.8008506999995006,['n'],1,right,['3'],4,0.11871989999963262,0.4,0,AccFast,28,18,Woman,Right,
56,7,1,0.7007673999996769,['c'],0,right,['3'],4,0.10007650000079593,0.2,0,AccFast,28,18,Woman,Right,
57,7,1,0.6511325000010402,['n'],0,left,['3'],4,0.08538489999955345,0.2,0,AccFast,28,18,Woman,Right,
58,7,1,0.5817071000001306,['c'],1,left,['3'],4,0.08543960000133666,0.2,0,AccFast,28,18,Woman,Right,
59,7,1,0.6316283000014664,['n'],1,right,['3'],4,0.1008495000005496,0.2,0,AccFast,28,18,Woman,Right,
0,8,1,1.5678155000005063,['c'],1,left,['3'],4,1.4500571999997192,0.1,0,AccAcc,28,18,Woman,Right,
1,8,1,2.033588399999644,['n'],1,right,['9'],2,0.5521482000003743,0.1,0,AccAcc,28,18,Woman,Right,
2,8,1,1.3002364000003581,['n'],0,left,['9'],2,1.2000170999999682,0.4,0,AccAcc,28,18,Woman,Right,
3,8,1,2.5339020999999775,['n'],1,right,['3'],4,1.817774000001009,0.2,0,AccAcc,28,18,Woman,Right,
4,8,1,1.9336773000013636,['c'],1,left,['3'],4,0.9334831000014674,0.2,0,AccAcc,28,18,Woman,Right,
5,8,1,1.1844197000009444,['n'],1,right,['3'],4,0.901539500000581,0.2,0,AccAcc,28,18,Woman,Right,
6,8,1,0.882549599999038,['n'],1,right,['3'],4,0.7021177999995416,0.2,0,AccAcc,28,18,Woman,Right,
7,8,1,3.1495338000004267,['n'],1,right,['3'],4,0.6499229000000923,0.4,0,AccAcc,28,18,Woman,Right,
8,8,1,1.6670803999986674,['c'],1,left,['3'],4,0.700146200000745,0.4,0,AccAcc,28,18,Woman,Right,
9,8,1,1.5174266000012722,['n'],1,right,['3'],4,0.801349699999264,0.2,0,AccAcc,28,18,Woman,Right,
10,8,1,1.3007910000014817,['n'],1,right,['3'],4,1.0012580000002345,0.4,0,AccAcc,28,18,Woman,Right,
11,8,1,1.3829765000009502,['n'],1,right,['3'],4,1.2179857999999513,0.1,0,AccAcc,28,18,Woman,Right,
12,8,1,1.2508985999993456,['n'],1,right,['3'],4,0.8514800000011746,0.4,0,AccAcc,28,18,Woman,Right,
13,8,1,2.2161481000002823,['c'],1,left,['9'],2,0.5184028999992734,0.2,0,AccAcc,28,18,Woman,Right,
14,8,1,1.733116199999131,['c'],1,left,['9'],2,0.7690803999994387,0.2,0,AccAcc,28,18,Woman,Right,
15,8,1,2.716239500001393,['n'],1,right,['8'],3,1.7018093000006047,0.2,0,AccAcc,28,18,Woman,Right,
16,8,1,1.216207100000247,['c'],1,left,['8'],3,0.9179805999992823,0.1,0,AccAcc,28,18,Woman,Right,
17,8,1,2.7024209999999584,['n'],1,right,['8'],3,0.5346434000002773,0.1,0,AccAcc,28,18,Woman,Right,
18,8,1,1.065866900000401,['c'],1,left,['3'],4,0.4855862000003981,0.2,0,AccAcc,28,18,Woman,Right,
19,8,1,2.4500995999987936,['c'],1,left,['3'],4,0.7677890000013576,0.4,0,AccAcc,28,18,Woman,Right,
20,8,1,2.250523200000316,['c'],1,left,['8'],3,1.13341279999986,0.1,0,AccAcc,28,18,Woman,Right,
21,8,1,2.1509112999992794,['c'],1,left,['3'],4,0.4844126000007236,0.2,0,AccAcc,28,18,Woman,Right,
22,8,1,1.1321327000005112,['n'],1,right,['3'],4,1.8344776000012644,0.1,0,AccAcc,28,18,Woman,Right,
23,8,1,2.2837339999987307,['c'],1,left,['9'],2,1.1345827999994071,0.4,0,AccAcc,28,18,Woman,Right,
24,8,1,1.4503780999984883,['n'],1,right,['3'],4,0.9846591000004992,0.1,0,AccAcc,28,18,Woman,Right,
25,8,1,1.6669097000012698,['n'],0,left,['3'],4,1.6179267000006803,0.1,0,AccAcc,28,18,Woman,Right,
26,8,1,1.56528199999957,['n'],1,right,['8'],3,0.6174386999991839,0.2,0,AccAcc,28,18,Woman,Right,
27,8,1,2.435188700001163,['c'],0,right,['3'],4,1.649802699999782,0.2,0,AccAcc,28,18,Woman,Right,
28,8,1,1.4510867999997572,['n'],1,right,['3'],4,0.3165146999999706,0.4,0,AccAcc,28,18,Woman,Right,
29,8,1,1.8673709000013332,['c'],1,left,['3'],4,0.40133289999903354,0.1,0,AccAcc,28,18,Woman,Right,
30,8,1,1.3001260000000912,['c'],1,left,['3'],4,0.5020893999990221,0.4,0,AccAcc,28,18,Woman,Right,
31,8,1,1.8828028999996604,['c'],0,right,['8'],3,0.3681460000007064,0.1,0,AccAcc,28,18,Woman,Right,
32,8,1,3.2178671000001486,['n'],0,left,['3'],4,0.9512434999996913,0.2,0,AccAcc,28,18,Woman,Right,
33,8,1,1.0491735999985394,['c'],1,left,['3'],4,0.5355295999997907,0.1,0,AccAcc,28,18,Woman,Right,
34,8,1,3.3164256999989448,['n'],0,left,['3'],4,1.2846585999996023,0.2,0,AccAcc,28,18,Woman,Right,
35,8,1,1.200325799998609,['c'],1,left,['3'],4,0.3347372999996878,0.4,0,AccAcc,28,18,Woman,Right,
36,8,1,0.765138200000365,['c'],1,left,['3'],4,0.08415719999902649,0.4,0,AccAcc,28,18,Woman,Right,
37,8,1,1.116541599998527,['c'],1,left,['3'],4,0.10147189999952388,0.4,0,AccAcc,28,18,Woman,Right,
38,8,1,1.3659083000002283,['n'],1,right,['3'],4,0.6014778999997361,0.4,0,AccAcc,28,18,Woman,Right,
39,8,1,0.6504304999998567,['c'],1,left,['3'],4,0.41693230000055337,0.4,0,AccAcc,28,18,Woman,Right,
40,8,1,1.5174038999994082,['c'],0,right,['9'],2,0.28462300000137475,0.1,0,AccAcc,28,18,Woman,Right,
41,8,1,1.3337262000004557,['c'],1,left,['3'],4,0.36823220000042056,0.1,0,AccAcc,28,18,Woman,Right,
42,8,1,0.7844184999994468,['c'],1,left,['3'],4,0.35147820000020147,0.2,0,AccAcc,28,18,Woman,Right,
43,8,1,2.3336896000000706,['n'],1,right,['3'],4,0.8679682999991201,0.1,0,AccAcc,28,18,Woman,Right,
44,8,1,0.6989866999992955,['c'],1,left,['3'],4,0.6854855000001407,0.2,0,AccAcc,28,18,Woman,Right,
45,8,1,0.6506091999999626,['c'],1,left,['3'],4,0.8014329000016005,0.4,0,AccAcc,28,18,Woman,Right,
46,8,1,0.533297500000117,['n'],1,right,['3'],4,0.6677605000004405,0.4,0,AccAcc,28,18,Woman,Right,
47,8,1,0.8675693000004685,['n'],1,right,['3'],4,0.7178368000004411,0.4,0,AccAcc,28,18,Woman,Right,
48,8,1,0.5338434999994206,['c'],0,right,['3'],4,0.6017132999986643,0.1,0,AccAcc,28,18,Woman,Right,
49,8,1,0.682591599999796,['c'],1,left,['3'],4,0.8517838000007032,0.4,0,AccAcc,28,18,Woman,Right,
50,8,1,0.717538599999898,['n'],1,right,['3'],4,0.750723699999071,0.2,0,AccAcc,28,18,Woman,Right,
51,8,1,1.4673896000003879,['c'],0,right,['9'],2,0.2347845000003872,0.2,0,AccAcc,28,18,Woman,Right,
52,8,1,1.3488006000006862,['c'],1,left,['9'],2,0.5175326999997196,0.1,0,AccAcc,28,18,Woman,Right,
53,8,1,1.1348928999996133,['n'],0,left,['3'],4,0.934674799998902,0.1,0,AccAcc,28,18,Woman,Right,
54,8,1,0.8678304999993998,['n'],1,right,['3'],4,0.5507663999997021,0.2,0,AccAcc,28,18,Woman,Right,
55,8,1,2.1669666999987385,['n'],1,right,['8'],3,2.1511030000001483,0.1,0,AccAcc,28,18,Woman,Right,
56,8,1,0.8835980000003474,['n'],1,right,['3'],4,0.3852230000011332,0.4,0,AccAcc,28,18,Woman,Right,
57,8,1,1.182672900000398,['c'],1,left,['3'],4,0.6179742000003898,0.4,0,AccAcc,28,18,Woman,Right,
58,8,1,0.982630300000892,['n'],1,right,['3'],4,0.6336840999993001,0.2,0,AccAcc,28,18,Woman,Right,
59,8,1,1.1681599999992613,['c'],0,right,['3'],4,1.4845585000002757,0.1,0,AccAcc,28,18,Woman,Right,
0,9,1,1.784276399999726,['c'],1,left,['8'],3,3.4179438999999547,0.1,0,FastAcc,28,18,Woman,Right,
1,9,1,1.867141000000629,['c'],0,right,['9'],2,2.267720800000461,0.1,0,FastAcc,28,18,Woman,Right,
2,9,1,0.6171627000003355,['n'],1,right,['3'],4,1.3837500999998156,0.2,0,FastAcc,28,18,Woman,Right,
3,9,1,2.215983899999628,['n'],0,left,['3'],4,0.5848880000012286,0.1,0,FastAcc,28,18,Woman,Right,
4,9,1,0.683799700000236,['n'],1,right,['3'],4,0.5666400999998586,0.2,0,FastAcc,28,18,Woman,Right,
5,9,1,0.500811199999589,['c'],1,left,['3'],4,0.36661800000001676,0.1,0,FastAcc,28,18,Woman,Right,
6,9,1,0.8670168000007834,['n'],0,left,['3'],4,0.43471449999924516,0.4,0,FastAcc,28,18,Woman,Right,
7,9,1,0.8333253000000695,['n'],1,right,['3'],4,0.868145899999945,0.2,0,FastAcc,28,18,Woman,Right,
8,9,1,0.7335679999996501,['c'],1,left,['3'],4,0.6171642000008433,0.4,0,FastAcc,28,18,Woman,Right,
9,9,1,0.9827831999991758,['n'],0,left,['3'],4,0.9690317000004143,0.1,0,FastAcc,28,18,Woman,Right,
10,9,1,0.6339342999999644,['n'],1,right,['2'],5,2.0348937999988266,0.4,0,FastAcc,28,18,Woman,Right,
11,9,1,0.6504225999997288,['c'],1,left,['2'],5,4.650980500000514,0.1,0,FastAcc,28,18,Woman,Right,
12,9,1,0.7845643000000564,['n'],1,right,['2'],5,0.46808750000127475,0.1,0,FastAcc,28,18,Woman,Right,
13,9,1,0.5845955999993748,['c'],0,right,['2'],5,0.6500985000002402,0.4,0,FastAcc,28,18,Woman,Right,
14,9,1,2.2161149000003206,['n'],0,left,['8'],3,1.2019564999991417,0.2,0,FastAcc,28,18,Woman,Right,
15,9,1,0.7841323000011471,['c'],1,left,['3'],4,1.2013594000000012,0.4,0,FastAcc,28,18,Woman,Right,
16,9,1,1.6170581999995193,['n'],1,right,['3'],4,1.8179595000001427,0.1,0,FastAcc,28,18,Woman,Right,
17,9,1,0.8340298000002804,['c'],0,right,['3'],4,2.1512675999983912,0.2,0,FastAcc,28,18,Woman,Right,
18,9,1,0.6332465999985288,['n'],1,right,['3'],4,0.6348641000004136,0.2,0,FastAcc,28,18,Woman,Right,
19,9,1,0.9152809999995952,['n'],1,right,['3'],4,0.3520661000002292,0.1,0,FastAcc,28,18,Woman,Right,
20,9,1,0.5152785999998741,['n'],1,right,['9'],2,0.935506499999974,0.2,0,FastAcc,28,18,Woman,Right,
21,9,1,1.233129899999767,['c'],0,right,['9'],2,0.8178892000014457,0.4,0,FastAcc,28,18,Woman,Right,
22,9,1,1.117166800000632,['c'],0,right,['3'],4,1.9836260000010952,0.1,0,FastAcc,28,18,Woman,Right,
23,9,1,1.9177748000001884,['n'],1,right,['0'],1,1.5164073000014469,0.1,0,FastAcc,28,18,Woman,Right,
24,9,1,0.8498067999989871,['n'],0,left,['9'],2,1.4516719000002922,0.2,0,FastAcc,28,18,Woman,Right,
25,9,1,0.8156161999995675,['c'],1,left,['3'],4,0.4008244000015111,0.4,0,FastAcc,28,18,Woman,Right,
26,9,1,0.9176984999994602,['n'],1,right,['9'],2,1.7845331999997143,0.2,0,FastAcc,28,18,Woman,Right,
27,9,1,0.7002429000003758,['c'],1,left,['3'],4,0.5181885000001785,0.4,0,FastAcc,28,18,Woman,Right,
28,9,1,1.7002591000000393,['n'],0,left,['8'],3,2.3686262000010174,0.1,0,FastAcc,28,18,Woman,Right,
29,9,1,0.6170529000009992,['c'],1,left,['3'],4,1.7998838000003161,0.2,0,FastAcc,28,18,Woman,Right,
30,9,1,1.1510804999998072,['n'],1,right,['3'],4,1.4668545000004087,0.1,0,FastAcc,28,18,Woman,Right,
31,9,1,0.6169838999994681,['c'],1,left,['3'],4,0.9502229999998235,0.4,0,FastAcc,28,18,Woman,Right,
32,9,1,0.6332696000008582,['n'],1,right,['3'],4,0.9666897999995854,0.1,0,FastAcc,28,18,Woman,Right,
33,9,1,0.8174586000004638,['c'],1,left,['3'],4,0.1001630999999179,0.4,0,FastAcc,28,18,Woman,Right,
34,9,1,0.7665245000007417,['c'],1,left,['3'],4,0.3166965000000346,0.4,0,FastAcc,28,18,Woman,Right,
35,9,1,0.6178545000002487,['c'],1,left,['3'],4,0.06805130000066129,0.4,0,FastAcc,28,18,Woman,Right,
36,9,1,1.383665800000017,['n'],1,right,['8'],3,3.0998693000001367,0.1,0,FastAcc,28,18,Woman,Right,
37,9,1,0.8346107999986998,['c'],1,left,['3'],4,0.5179232000009506,0.4,0,FastAcc,28,18,Woman,Right,
38,9,1,1.9494139999987965,['c'],0,right,['3'],4,0.7354575999997905,0.1,0,FastAcc,28,18,Woman,Right,
39,9,1,0.5338910000009491,['c'],1,left,['3'],4,0.45082340000044496,0.2,0,FastAcc,28,18,Woman,Right,
40,9,1,1.1170486000009987,['c'],0,right,['3'],4,0.9346810999995796,0.4,0,FastAcc,28,18,Woman,Right,
41,9,1,0.682269200000519,['n'],1,right,['3'],4,0.48549180000009073,0.2,0,FastAcc,28,18,Woman,Right,
42,9,1,0.6008775999998761,['c'],0,right,['3'],4,0.15142930000001797,0.1,0,FastAcc,28,18,Woman,Right,
43,9,1,0.6160066000011284,['n'],0,left,['3'],4,0.2354353999999148,0.2,0,FastAcc,28,18,Woman,Right,
44,9,1,0.39971279999917897,['c'],1,left,['9'],2,0.8845567000007577,0.2,0,FastAcc,28,18,Woman,Right,
45,9,1,0.7670610999994096,['n'],1,right,['3'],4,0.7512874999993073,0.4,0,FastAcc,28,18,Woman,Right,
46,9,1,0.7348183000012796,['n'],1,right,['3'],4,0.45129399999859743,0.2,0,FastAcc,28,18,Woman,Right,
47,9,1,0.5511869000001752,['n'],0,left,['3'],4,0.06647270000030403,0.2,0,FastAcc,28,18,Woman,Right,
48,9,1,0.6512889000005089,['n'],0,left,['3'],4,0.16830599999957485,0.4,0,FastAcc,28,18,Woman,Right,
49,9,1,0.5985705000002781,['n'],0,left,['3'],4,0.06749759999911475,0.1,0,FastAcc,28,18,Woman,Right,
50,9,1,0.8351947999999538,['n'],1,right,['3'],4,0.10038600000007136,0.4,0,FastAcc,28,18,Woman,Right,
51,9,1,1.1329496999987896,['c'],1,left,['3'],4,0.10215749999952095,0.2,0,FastAcc,28,18,Woman,Right,
52,9,1,0.7181182000003901,['n'],1,right,['3'],4,0.28446140000050946,0.4,0,FastAcc,28,18,Woman,Right,
53,9,1,0.5840224999992643,['n'],1,right,['3'],4,0.5180443999997806,0.4,0,FastAcc,28,18,Woman,Right,
54,9,1,1.2837745000015275,['n'],1,right,['3'],4,0.43416959999922256,0.4,0,FastAcc,28,18,Woman,Right,
55,9,1,0.5507871999998315,['n'],1,right,['3'],4,0.3183264999988751,0.1,0,FastAcc,28,18,Woman,Right,
56,9,1,0.9004705000006652,['n'],0,left,['3'],4,0.41820890000053623,0.2,0,FastAcc,28,18,Woman,Right,
57,9,1,1.2337963999998465,['n'],0,left,['3'],4,0.40126429999872926,0.1,0,FastAcc,28,18,Woman,Right,
58,9,1,0.7316537000006065,['n'],0,left,['3'],4,0.40190199999960896,0.2,0,FastAcc,28,18,Woman,Right,
59,9,1,2.066704499999105,['n'],0,left,['3'],4,0.03451810000115074,0.2,0,FastAcc,28,18,Woman,Right,
0,10,1,0.9004210000002786,['n'],1,right,['8'],3,0.08526470000106201,0.2,0,FastFast,28,18,Woman,Right,
1,10,1,0.5672747999997227,['n'],1,right,['3'],4,0.10133930000120017,0.1,0,FastFast,28,18,Woman,Right,
2,10,1,0.7007946999983687,['n'],1,right,['3'],4,0.10134230000039679,0.2,0,FastFast,28,18,Woman,Right,
3,10,1,0.46717090000129247,['c'],1,left,['3'],4,0.03274059999966994,0.4,0,FastFast,28,18,Woman,Right,
4,10,1,0.8186267000000953,['n'],0,left,['3'],4,0.01807069999995292,0.1,0,FastFast,28,18,Woman,Right,
5,10,1,0.5836039999994682,['n'],0,left,['3'],4,1.1182738000006793,0.1,0,FastFast,28,18,Woman,Right,
6,10,1,0.7332236000002013,['c'],0,right,['3'],4,0.05153679999966698,0.1,0,FastFast,28,18,Woman,Right,
7,10,1,0.5342022999993787,['n'],1,right,['3'],4,0.018022100000962382,0.4,0,FastFast,28,18,Woman,Right,
8,10,1,0.5495988999991823,['n'],1,right,['3'],4,0.2018048000009003,0.4,0,FastFast,28,18,Woman,Right,
9,10,1,1.1834865000000718,['n'],0,left,['3'],4,0.0513081000008242,0.1,0,FastFast,28,18,Woman,Right,
10,10,1,0.9655136000001221,['c'],0,right,['3'],4,0.46883080000043265,0.4,0,FastFast,28,18,Woman,Right,
11,10,1,1.166159600001265,['c'],1,left,['3'],4,0.033515700000862125,0.1,0,FastFast,28,18,Woman,Right,
12,10,1,0.6677166999998008,['n'],1,right,['3'],4,0.01794559999871126,0.2,0,FastFast,28,18,Woman,Right,
13,10,1,0.4847141999998712,['c'],1,left,['3'],4,0.8003948999994464,0.4,0,FastFast,28,18,Woman,Right,
14,10,1,0.5510033000009571,['n'],1,right,['3'],4,0.11767739999959304,0.2,0,FastFast,28,18,Woman,Right,
15,10,1,0.5832747000004019,['n'],0,left,['3'],4,0.018128799998521572,0.2,0,FastFast,28,18,Woman,Right,
16,10,1,0.7513233999998192,['c'],0,right,['3'],4,0.08454770000025746,0.2,0,FastFast,28,18,Woman,Right,
17,10,1,2.44983990000037,['c'],1,left,['9'],2,0.018357200000536977,0.2,0,FastFast,28,18,Woman,Right,
18,10,1,0.8834360999990167,['n'],1,right,['3'],4,0.10187350000160222,0.1,0,FastFast,28,18,Woman,Right,
19,10,1,0.616522400001486,['n'],1,right,['3'],4,0.11806480000086594,0.4,0,FastFast,28,18,Woman,Right,
20,10,1,2.0838090000015654,['n'],0,left,['9'],2,0.10176879999926314,0.2,0,FastFast,28,18,Woman,Right,
21,10,1,0.734241900001507,['n'],1,right,['3'],4,0.1350788999989163,0.2,0,FastFast,28,18,Woman,Right,
22,10,1,0.5335386999995535,['n'],0,left,['3'],4,0.13618099999985134,0.2,0,FastFast,28,18,Woman,Right,
23,10,1,0.5843566999992618,['n'],1,right,['3'],4,0.017903599999044673,0.1,0,FastFast,28,18,Woman,Right,
24,10,1,0.5842540999983612,['n'],1,right,['3'],4,0.11804250000022876,0.2,0,FastFast,28,18,Woman,Right,
25,10,1,0.6345284999988507,['n'],1,right,['3'],4,0.08471520000057353,0.2,0,FastFast,28,18,Woman,Right,
26,10,1,0.665980199999467,['n'],1,right,['3'],4,0.13583420000031765,0.4,0,FastFast,28,18,Woman,Right,
27,10,1,0.5324299999992945,['c'],1,left,['3'],4,0.13475870000002033,0.4,0,FastFast,28,18,Woman,Right,
28,10,1,0.5176203000009991,['c'],1,left,['3'],4,1.3512802999994165,0.2,0,FastFast,28,18,Woman,Right,
29,10,1,0.733809300001667,['n'],1,right,['3'],4,0.06684950000089884,0.4,0,FastFast,28,18,Woman,Right,
30,10,1,0.6179675000003044,['c'],1,left,['3'],4,0.11739289999968605,0.4,0,FastFast,28,18,Woman,Right,
31,10,1,0.5493565999986458,['n'],0,left,['3'],4,0.0514381000011781,0.2,0,FastFast,28,18,Woman,Right,
32,10,1,0.6817871000002924,['c'],1,left,['3'],4,0.15162919999966107,0.1,0,FastFast,28,18,Woman,Right,
33,10,1,0.6329482000001008,['c'],1,left,['3'],4,0.05025249999926018,0.4,0,FastFast,28,18,Woman,Right,
34,10,1,0.9500903000007384,['c'],1,left,['3'],4,0.03517680000004475,0.2,0,FastFast,28,18,Woman,Right,
35,10,1,0.41701040000043577,['c'],1,left,['3'],4,0.06769280000116851,0.2,0,FastFast,28,18,Woman,Right,
36,10,1,0.5499632999999449,['c'],1,left,['3'],4,0.1013076999988698,0.4,0,FastFast,28,18,Woman,Right,
37,10,1,0.8333118999998987,['n'],0,left,['3'],4,0.05186239999966347,0.1,0,FastFast,28,18,Woman,Right,
38,10,1,0.33260929999960354,['c'],1,left,['3'],4,0.11858469999970112,0.4,0,FastFast,28,18,Woman,Right,
39,10,1,0.6178073999999469,['n'],1,right,['3'],4,0.08454600000004575,0.1,0,FastFast,28,18,Woman,Right,
40,10,1,0.7164181000007375,['c'],1,left,['3'],4,0.1012323999984801,0.4,0,FastFast,28,18,Woman,Right,
41,10,1,0.6326189000010345,['c'],1,left,['3'],4,0.0842224999996688,0.2,0,FastFast,28,18,Woman,Right,
42,10,1,0.5159068999982992,['c'],1,left,['3'],4,0.10178649999943445,0.4,0,FastFast,28,18,Woman,Right,
43,10,1,0.633922100001655,['c'],1,left,['3'],4,0.08356450000064797,0.1,0,FastFast,28,18,Woman,Right,
44,10,1,0.6346874999999272,['c'],1,left,['3'],4,0.03472469999906025,0.4,0,FastFast,28,18,Woman,Right,
45,10,1,0.5327066000008926,['n'],1,right,['3'],4,0.018460100000083912,0.1,0,FastFast,28,18,Woman,Right,
46,10,1,1.7341194999989966,['n'],1,right,['3'],4,0.06921320000037667,0.4,0,FastFast,28,18,Woman,Right,
47,10,1,0.8997339999987162,['n'],1,right,['3'],4,0.06812139999965439,0.4,0,FastFast,28,18,Woman,Right,
48,10,1,0.5495731999999407,['c'],1,left,['3'],4,0.08502399999997579,0.2,0,FastFast,28,18,Woman,Right,
49,10,1,0.4674634999992122,['c'],0,right,['3'],4,0.11826160000055097,0.1,0,FastFast,28,18,Woman,Right,
50,10,1,0.4673046999996586,['c'],1,left,['3'],4,0.017811199999414384,0.4,0,FastFast,28,18,Woman,Right,
51,10,1,0.9340082999988226,['c'],1,left,['3'],4,0.08474229999956151,0.1,0,FastFast,28,18,Woman,Right,
52,10,1,0.4841173000004346,['c'],0,right,['3'],4,0.08467899999959627,0.1,0,FastFast,28,18,Woman,Right,
53,10,1,0.33242449999852397,['c'],0,right,['3'],4,0.11882870000044932,0.1,0,FastFast,28,18,Woman,Right,
54,10,1,0.467079999998532,['c'],0,right,['3'],4,0.16812140000001818,0.1,0,FastFast,28,18,Woman,Right,
55,10,1,0.5506633000004513,['c'],1,left,['3'],4,0.8671664000012242,0.1,0,FastFast,28,18,Woman,Right,
56,10,1,0.49977079999916896,['c'],0,right,['3'],4,0.11892790000092646,0.1,0,FastFast,28,18,Woman,Right,
57,10,1,0.3164060999988578,['c'],0,right,['3'],4,0.20250400000077207,0.4,0,FastFast,28,18,Woman,Right,
58,10,1,0.7005423000009614,['c'],0,right,['3'],4,0.06667729999935545,0.2,0,FastFast,28,18,Woman,Right,
59,10,1,0.4843837000007625,['n'],1,right,['3'],4,0.06906720000006317,0.2,0,FastFast,28,18,Woman,Right,
0,11,1,1.384431599999516,['c'],0,right,['3'],4,1.584478599999784,0.1,0,AccFast,28,18,Woman,Right,
1,11,1,1.200487100000828,['c'],0,right,['3'],4,0.3513736000004428,0.1,0,AccFast,28,18,Woman,Right,
2,11,1,0.7156672000000981,['n'],0,left,['3'],4,0.5357291999989684,0.1,0,AccFast,28,18,Woman,Right,
3,11,1,0.651057099999889,['c'],1,left,['3'],4,0.25176700000156416,0.4,0,AccFast,28,18,Woman,Right,
4,11,1,0.5322276999995665,['n'],0,left,['3'],4,0.08363610000014887,0.4,0,AccFast,28,18,Woman,Right,
5,11,1,0.7169977000012295,['n'],0,left,['3'],4,0.3349662000000535,0.4,0,AccFast,28,18,Woman,Right,
6,11,1,0.6504280999997718,['n'],1,right,['3'],4,0.35139859999981127,0.2,0,AccFast,28,18,Woman,Right,
7,11,1,0.46684060000006866,['c'],1,left,['3'],4,0.16667889999916952,0.1,0,AccFast,28,18,Woman,Right,
8,11,1,0.600982700001623,['n'],0,left,['3'],4,0.10014219999902707,0.4,0,AccFast,28,18,Woman,Right,
9,11,1,0.5843564999995579,['c'],1,left,['3'],4,0.06739339999876393,0.2,0,AccFast,28,18,Woman,Right,
10,11,1,0.683927500000209,['n'],1,right,['3'],4,0.06793920000018261,0.1,0,AccFast,28,18,Woman,Right,
11,11,1,0.45028499999898486,['c'],1,left,['3'],4,0.08546089999981632,0.4,0,AccFast,28,18,Woman,Right,
12,11,1,0.5510199000000284,['n'],1,right,['3'],4,0.08467230000132986,0.1,0,AccFast,28,18,Woman,Right,
13,11,1,0.33320809999895573,['c'],1,left,['3'],4,0.10244529999908991,0.1,0,AccFast,28,18,Woman,Right,
14,11,1,0.5159194999996544,['n'],0,left,['3'],4,0.11886199999935343,0.2,0,AccFast,28,18,Woman,Right,
15,11,1,0.34922240000014426,['c'],0,right,['3'],4,0.06818500000008498,0.2,0,AccFast,28,18,Woman,Right,
16,11,1,0.5996401000011247,['n'],0,left,['3'],4,0.10234810000110883,0.1,0,AccFast,28,18,Woman,Right,
17,11,1,0.8837180999998964,['n'],1,right,['3'],4,0.0675016000004689,0.1,0,AccFast,28,18,Woman,Right,
18,11,1,0.5503941000006307,['n'],1,right,['3'],4,0.06790109999928973,0.1,0,AccFast,28,18,Woman,Right,
19,11,1,0.5839928000004875,['n'],1,right,['3'],4,0.05142089999935706,0.4,0,AccFast,28,18,Woman,Right,
20,11,1,0.6837077000000136,['c'],1,left,['3'],4,0.03478770000037912,0.2,0,AccFast,28,18,Woman,Right,
21,11,1,0.5833849999999074,['n'],1,right,['3'],4,0.08407010000155424,0.4,0,AccFast,28,18,Woman,Right,
22,11,1,0.4169986999986577,['c'],1,left,['3'],4,0.03461960000095132,0.4,0,AccFast,28,18,Woman,Right,
23,11,1,0.4505243999992672,['n'],0,left,['3'],4,0.10148600000138686,0.1,0,AccFast,28,18,Woman,Right,
24,11,1,0.5657271000000037,['n'],0,left,['9'],2,1.0844637999998668,0.2,0,AccFast,28,18,Woman,Right,
25,11,1,1.9838041999992129,['n'],1,right,['3'],4,0.3844300000000658,0.2,0,AccFast,28,18,Woman,Right,
26,11,1,0.8340633000007074,['c'],1,left,['3'],4,0.06863169999996899,0.2,0,AccFast,28,18,Woman,Right,
27,11,1,0.5505808999987494,['c'],0,right,['3'],4,0.03457750000052329,0.2,0,AccFast,28,18,Woman,Right,
28,11,1,0.6328770999989501,['n'],1,right,['3'],4,0.052196399999957066,0.4,0,AccFast,28,18,Woman,Right,
29,11,1,0.8012266999994608,['n'],1,right,['3'],4,0.05077990000063437,0.4,0,AccFast,28,18,Woman,Right,
30,11,1,0.6326962000002823,['n'],1,right,['3'],4,0.018282499999259016,0.2,0,AccFast,28,18,Woman,Right,
31,11,1,0.5501347000008536,['c'],1,left,['3'],4,0.08474109999951907,0.2,0,AccFast,28,18,Woman,Right,
32,11,1,0.5840402000012546,['n'],1,right,['3'],4,0.03477580000071612,0.4,0,AccFast,28,18,Woman,Right,
33,11,1,0.5670270999999047,['c'],1,left,['3'],4,0.035030300001380965,0.1,0,AccFast,28,18,Woman,Right,
34,11,1,0.683753199999046,['n'],1,right,['3'],4,0.03510470000037458,0.4,0,AccFast,28,18,Woman,Right,
35,11,1,0.6173328999993828,['c'],1,left,['3'],4,0.09988669999984268,0.4,0,AccFast,28,18,Woman,Right,
36,11,1,0.6341348999994807,['c'],1,left,['3'],4,0.08474510000087321,0.2,0,AccFast,28,18,Woman,Right,
37,11,1,0.6000801000009233,['c'],1,left,['3'],4,0.08492379999916011,0.4,0,AccFast,28,18,Woman,Right,
38,11,1,0.5846799999999348,['c'],1,left,['3'],4,0.08486529999936465,0.1,0,AccFast,28,18,Woman,Right,
39,11,1,0.8000826000006782,['c'],0,right,['3'],4,0.16746340000099735,0.1,0,AccFast,28,18,Woman,Right,
40,11,1,0.682906500000172,['c'],0,right,['3'],4,0.05173269999977492,0.1,0,AccFast,28,18,Woman,Right,
41,11,1,1.2675959999996849,['n'],1,right,"['8', '9']",3,0.11831219999839959,0.1,0,AccFast,28,18,Woman,Right,
42,11,1,0.7012427999998181,['c'],1,left,['3'],4,0.03482420000000275,0.2,0,AccFast,28,18,Woman,Right,
43,11,1,1.699733200000992,['c'],1,left,['3'],4,0.05000139999901876,0.2,0,AccFast,28,18,Woman,Right,
44,11,1,1.333186800000476,['n'],1,right,['3'],4,0.5014172999999573,0.4,0,AccFast,28,18,Woman,Right,
45,11,1,1.0500546000002942,['c'],0,right,['3'],4,0.13482120000116993,0.1,0,AccFast,28,18,Woman,Right,
46,11,1,1.1174542999997357,['c'],0,right,['3'],4,0.15127099999881466,0.1,0,AccFast,28,18,Woman,Right,
47,11,1,0.8675601999984792,['c'],1,left,['3'],4,0.06673520000003919,0.4,0,AccFast,28,18,Woman,Right,
48,11,1,0.8152389000006224,['n'],1,right,['3'],4,0.33384970000042813,0.4,0,AccFast,28,18,Woman,Right,
49,11,1,0.6519871000000421,['c'],1,left,['2'],5,0.20123860000057903,0.1,0,AccFast,28,18,Woman,Right,
50,11,1,0.865439700000934,['c'],0,right,['1'],6,0.20229939999990165,0.2,0,AccFast,28,18,Woman,Right,
51,11,1,1.3663812999984657,['c'],1,left,['3'],4,0.20136689999890223,0.2,0,AccFast,28,18,Woman,Right,
52,11,1,0.7331692000007024,['n'],1,right,['8'],3,0.1508190000004106,0.4,0,AccFast,28,18,Woman,Right,
53,11,1,0.7514728999994986,['n'],0,left,['9'],2,1.5005574999995588,0.2,0,AccFast,28,18,Woman,Right,
54,11,1,1.1675640000012208,['c'],0,right,['2'],5,0.11809070000163047,0.2,0,AccFast,28,18,Woman,Right,
55,11,1,0.866523299999244,['c'],1,left,['3'],4,0.051579799999672105,0.1,0,AccFast,28,18,Woman,Right,
56,11,1,1.133710299998711,['n'],1,right,['3'],4,0.06818749999911233,0.4,0,AccFast,28,18,Woman,Right,
57,11,1,1.5332508999999845,['c'],0,right,['3'],4,0.13398859999870183,0.2,0,AccFast,28,18,Woman,Right,
58,11,1,0.7514891999999236,['n'],1,right,['3'],4,0.11826620000101684,0.2,0,AccFast,28,18,Woman,Right,
59,11,1,0.8666558999993867,['c'],1,left,['3'],4,0.20087860000057844,0.4,0,AccFast,28,18,Woman,Right,
0,12,1,2.0013179000015953,['c'],1,left,['3'],4,1.0184456999995746,0.2,0,AccAcc,28,18,Woman,Right,
1,12,1,1.4328671999992366,['c'],0,right,['3'],4,0.26789909999934025,0.1,0,AccAcc,28,18,Woman,Right,
2,12,1,0.6333205999999336,['c'],0,right,['3'],4,0.11797560000013618,0.1,0,AccAcc,28,18,Woman,Right,
3,12,1,0.850534900000639,['c'],1,left,['3'],4,0.45180989999971644,0.1,0,AccAcc,28,18,Woman,Right,
4,12,1,0.7991203000001406,['c'],1,left,['3'],4,0.051601700000901474,0.1,0,AccAcc,28,18,Woman,Right,
5,12,1,1.4178783999996085,['n'],1,right,['3'],4,0.06812700000045879,0.4,0,AccAcc,28,18,Woman,Right,
6,12,1,0.866649999999936,['n'],1,right,['3'],4,0.4000137999992148,0.4,0,AccAcc,28,18,Woman,Right,
7,12,1,0.6506673000003502,['n'],1,right,['3'],4,0.26691070000015316,0.2,0,AccAcc,28,18,Woman,Right,
8,12,1,0.6840782999988733,['n'],1,right,['3'],4,0.43454250000104366,0.4,0,AccAcc,28,18,Woman,Right,
9,12,1,1.4170030000004772,['n'],0,left,['9'],2,0.3165974000003189,0.1,0,AccAcc,28,18,Woman,Right,
10,12,1,0.751219099998707,['c'],1,left,['3'],4,0.1013409999995929,0.4,0,AccAcc,28,18,Woman,Right,
11,12,1,1.3994548999999097,['n'],1,right,['9'],2,0.1180036999994627,0.4,0,AccAcc,28,18,Woman,Right,
12,12,1,1.0835583999996743,['n'],1,right,['3'],4,0.26670869999907154,0.4,0,AccAcc,28,18,Woman,Right,
13,12,1,1.6181959999994433,['c'],1,left,['3'],4,0.11808559999917634,0.2,0,AccAcc,28,18,Woman,Right,
14,12,1,1.0004785000000993,['c'],1,left,['3'],4,0.2845962999999756,0.4,0,AccAcc,28,18,Woman,Right,
15,12,1,0.599777900000845,['c'],0,right,['3'],4,0.15219249999972817,0.1,0,AccAcc,28,18,Woman,Right,
16,12,1,1.983930299998974,['n'],0,left,['9'],2,0.035052100000029895,0.1,0,AccAcc,28,18,Woman,Right,
17,12,1,1.1996283999997104,['c'],0,right,['2'],5,0.20120800000040617,0.1,0,AccAcc,28,18,Woman,Right,
18,12,1,1.2666270999998233,['n'],1,right,['3'],4,3.1670114000007743,0.1,0,AccAcc,28,18,Woman,Right,
19,12,1,0.8664117999996961,['c'],1,left,['3'],4,0.6519817000007606,0.1,0,AccAcc,28,18,Woman,Right,
20,12,1,1.100105800000165,['c'],1,left,['3'],4,0.4178006000001915,0.4,0,AccAcc,28,18,Woman,Right,
21,12,1,0.8335757000004378,['n'],1,right,['3'],4,0.7513621999987663,0.4,0,AccAcc,28,18,Woman,Right,
22,12,1,1.1834029000001465,['c'],1,left,['3'],4,0.5845829999998386,0.2,0,AccAcc,28,18,Woman,Right,
23,12,1,1.283596999999645,['c'],1,left,['3'],4,0.5346033000005264,0.4,0,AccAcc,28,18,Woman,Right,
24,12,1,0.8826513000003615,['n'],1,right,['3'],4,0.4678438000009919,0.4,0,AccAcc,28,18,Woman,Right,
25,12,1,1.0337889999991603,['n'],1,right,['3'],4,0.46786010000141687,0.1,0,AccAcc,28,18,Woman,Right,
26,12,1,1.3013685000005353,['c'],1,left,['3'],4,0.6846251999995729,0.1,0,AccAcc,28,18,Woman,Right,
27,12,1,0.9339715999994951,['n'],1,right,['3'],4,1.0843268999997235,0.4,0,AccAcc,28,18,Woman,Right,
28,12,1,0.7324058000012883,['c'],1,left,['3'],4,1.4022127999996883,0.2,0,AccAcc,28,18,Woman,Right,
29,12,1,0.5675680999993347,['n'],1,right,['8'],3,2.0678330000009737,0.2,0,AccAcc,28,18,Woman,Right,
30,12,1,0.6171537000009266,['c'],0,right,['3'],4,0.7992671000010887,0.2,0,AccAcc,28,18,Woman,Right,
31,12,1,1.818996399999378,['n'],1,right,['8'],3,0.43444649999946705,0.2,0,AccAcc,28,18,Woman,Right,
32,12,1,1.3662483999996766,['n'],1,right,['2'],5,0.6846282000005885,0.2,0,AccAcc,28,18,Woman,Right,
33,12,1,2.5501500999998825,['n'],1,right,['3'],4,0.6501232999999047,0.2,0,AccAcc,28,18,Woman,Right,
34,12,1,0.8323071999984677,['n'],1,right,['3'],4,0.5018509000001359,0.1,0,AccAcc,28,18,Woman,Right,
35,12,1,1.249699400001191,['n'],0,left,['3'],4,0.4680461000007199,0.4,0,AccAcc,28,18,Woman,Right,
36,12,1,0.9488424999999552,['c'],1,left,['3'],4,0.6359628999998677,0.4,0,AccAcc,28,18,Woman,Right,
37,12,1,1.3995489000008092,['c'],1,left,['3'],4,1.0165258000015456,0.4,0,AccAcc,28,18,Woman,Right,
38,12,1,2.0667915000012727,['n'],0,left,['3'],4,0.7846208999999362,0.4,0,AccAcc,28,18,Woman,Right,
39,12,1,1.2486873999987438,['n'],0,left,['3'],4,0.8679892000000109,0.1,0,AccAcc,28,18,Woman,Right,
40,12,1,1.1177406000006158,['n'],1,right,['3'],4,0.7675000999988697,0.1,0,AccAcc,28,18,Woman,Right,
41,12,1,0.9991783999994368,['c'],1,left,['8'],3,0.5662647999997716,0.2,0,AccAcc,28,18,Woman,Right,
42,12,1,1.4330573000006552,['c'],1,left,['8'],3,0.13516770000023826,0.2,0,AccAcc,28,18,Woman,Right,
43,12,1,1.0984196000008524,['c'],1,left,['8'],3,0.40233160000025237,0.1,0,AccAcc,28,18,Woman,Right,
44,12,1,0.7180595999998332,['c'],0,right,['8'],3,0.5668475000002218,0.4,0,AccAcc,28,18,Woman,Right,
45,12,1,1.2507896999995864,['c'],1,left,['8'],3,0.3846391000006406,0.4,0,AccAcc,28,18,Woman,Right,
46,12,1,0.7179355999996915,['c'],0,right,['8'],3,0.41766540000026,0.4,0,AccAcc,28,18,Woman,Right,
47,12,1,0.6326695999996446,['c'],0,right,['8'],3,0.45228949999909673,0.2,0,AccAcc,28,18,Woman,Right,
48,12,1,0.6160483000003296,['c'],1,left,['8'],3,0.28440910000063013,0.1,0,AccAcc,28,18,Woman,Right,
49,12,1,0.6004616000009264,['c'],1,left,['8'],3,0.4683339999992313,0.1,0,AccAcc,28,18,Woman,Right,
50,12,1,3.116960999999719,['n'],1,right,['2'],5,0.14954579999903217,0.2,0,AccAcc,28,18,Woman,Right,
51,12,1,2.133845199999996,['n'],0,left,['2'],5,0.8193945999992138,0.2,0,AccAcc,28,18,Woman,Right,
52,12,1,1.51644479999959,['n'],0,left,['2'],5,0.06884170000012091,0.2,0,AccAcc,28,18,Woman,Right,
53,12,1,1.3839564999998402,['n'],0,left,['2'],5,0.9664745999998559,0.2,0,AccAcc,28,18,Woman,Right,
54,12,1,2.334362899999178,['c'],1,left,['9'],2,1.2670933999997942,0.2,0,AccAcc,28,18,Woman,Right,
55,12,1,0.966704700000264,['n'],1,right,['2'],5,0.6827595000013389,0.2,0,AccAcc,28,18,Woman,Right,
56,12,1,1.7681240999991132,['n'],1,right,['2'],5,0.784689599999183,0.2,0,AccAcc,28,18,Woman,Right,
57,12,1,2.0342493999996805,['n'],1,right,['3'],4,0.4525333999990835,0.1,0,AccAcc,28,18,Woman,Right,
58,12,1,1.199299300000348,['c'],1,left,['3'],4,0.6015186999993603,0.4,0,AccAcc,28,18,Woman,Right,
59,12,1,4.3495323000006465,['n'],1,right,['9'],2,0.9523693999999523,0.1,0,AccAcc,28,18,Woman,Right,
0,13,1,1.1984926000004634,['c'],0,right,['3'],4,1.019378200000574,0.1,0,FastAcc,28,18,Woman,Right,
1,13,1,0.6504659999991418,['n'],1,right,['1'],6,1.18252240000038,0.1,0,FastAcc,28,18,Woman,Right,
2,13,1,0.7355796000010741,['c'],1,left,['1'],6,1.2841786999997566,0.4,0,FastAcc,28,18,Woman,Right,
3,13,1,2.1842030999996496,['n'],1,right,['3'],4,0.35011169999961567,0.1,0,FastAcc,28,18,Woman,Right,
4,13,1,1.2180181000003358,['n'],1,right,['3'],4,1.465878099999827,0.2,0,FastAcc,28,18,Woman,Right,
5,13,1,1.1848804999990534,['c'],1,left,['3'],4,0.8178786999997101,0.1,0,FastAcc,28,18,Woman,Right,
6,13,1,0.8840691000004881,['n'],1,right,['3'],4,0.6355019000002358,0.4,0,FastAcc,28,18,Woman,Right,
7,13,1,1.6828927000005933,['n'],0,left,['9'],2,0.15308969999932742,0.2,0,FastAcc,28,18,Woman,Right,
8,13,1,0.8679190000002563,['n'],1,right,['3'],4,0.4511755000003177,0.1,0,FastAcc,28,18,Woman,Right,
9,13,1,0.9497842000000674,['n'],0,left,['3'],4,0.052058799999940675,0.1,0,FastAcc,28,18,Woman,Right,
10,13,1,1.201234399999521,['c'],1,left,['3'],4,0.4677824000009423,0.2,0,FastAcc,28,18,Woman,Right,
11,13,1,0.5995389999989129,['n'],0,left,['3'],4,0.2509153000009974,0.1,0,FastAcc,28,18,Woman,Right,
12,13,1,0.6502314999997907,['n'],1,right,['3'],4,0.400788900000407,0.4,0,FastAcc,28,18,Woman,Right,
13,13,1,0.5336410999989312,['n'],1,right,['3'],4,0.08563959999992221,0.2,0,FastAcc,28,18,Woman,Right,
14,13,1,0.600662499999089,['n'],1,right,['9'],2,1.1167086999994353,0.2,0,FastAcc,28,18,Woman,Right,
15,13,1,0.7010750999997981,['n'],0,left,['3'],4,1.3164505000004283,0.2,0,FastAcc,28,18,Woman,Right,
16,13,1,0.8653500000000349,['n'],0,left,['3'],4,1.5840071000002354,0.4,0,FastAcc,28,18,Woman,Right,
17,13,1,0.5354965999995329,['n'],1,right,['3'],4,0.0513727999987168,0.4,0,FastAcc,28,18,Woman,Right,
18,13,1,1.7650456999999733,['n'],0,left,['9'],2,0.7693895000011253,0.1,0,FastAcc,28,18,Woman,Right,
19,13,1,1.050220299999637,['n'],1,right,['2'],5,0.8029021999991528,0.4,0,FastAcc,28,18,Woman,Right,
20,13,1,0.968267599999308,['n'],1,right,['3'],4,0.7500884999990376,0.1,0,FastAcc,28,18,Woman,Right,
21,13,1,1.066388299999744,['n'],0,left,['3'],4,1.5834523000012268,0.2,0,FastAcc,28,18,Woman,Right,
22,13,1,2.133869400000549,['c'],1,left,['9'],2,0.5344916000012745,0.2,0,FastAcc,28,18,Woman,Right,
23,13,1,2.2504498999987845,['c'],1,left,['3'],4,0.017929399999047746,0.1,0,FastAcc,28,18,Woman,Right,
24,13,1,1.284436200001437,['n'],0,left,['9'],2,0.18362770000021555,0.4,0,FastAcc,28,18,Woman,Right,
25,13,1,0.7843506999997771,['n'],1,right,['9'],2,0.10132619999967574,0.2,0,FastAcc,28,18,Woman,Right,
26,13,1,1.983585399999356,['n'],1,right,['2'],5,1.1672582999999577,0.4,0,FastAcc,28,18,Woman,Right,
27,13,1,0.7686109000005672,['c'],1,left,['1'],6,1.0013775000006717,0.4,0,FastAcc,28,18,Woman,Right,
28,13,1,0.5829118999990897,['n'],1,right,['2'],5,0.8514255999998568,0.2,0,FastAcc,28,18,Woman,Right,
29,13,1,0.5994055999999546,['c'],1,left,['1'],6,0.6686688000008871,0.4,0,FastAcc,28,18,Woman,Right,
30,13,1,0.5838514999995823,['n'],1,right,['1'],6,1.8522694000002957,0.4,0,FastAcc,28,18,Woman,Right,
31,13,1,0.5335544000008667,['c'],1,left,['1'],6,1.3012723000010737,0.2,0,FastAcc,28,18,Woman,Right,
32,13,1,1.1003469999996014,['c'],1,left,['1'],6,0.7846114999993006,0.4,0,FastAcc,28,18,Woman,Right,
33,13,1,0.4834443999989162,['c'],1,left,['1'],6,0.6682016999984626,0.4,0,FastAcc,28,18,Woman,Right,
34,13,1,1.3675027000008413,['n'],1,right,['2'],5,1.2508156999992934,0.4,0,FastAcc,28,18,Woman,Right,
35,13,1,2.7996070999997755,['n'],1,right,['9'],2,1.2839708000010432,0.2,0,FastAcc,28,18,Woman,Right,
36,13,1,0.6177459999998973,['c'],1,left,['3'],4,1.2676569000013842,0.1,0,FastAcc,28,18,Woman,Right,
37,13,1,1.2318471999988105,['c'],1,left,['3'],4,0.6514346999992995,0.1,0,FastAcc,28,18,Woman,Right,
38,13,1,0.5504516000000876,['c'],1,left,['3'],4,0.950154799998927,0.1,0,FastAcc,28,18,Woman,Right,
39,13,1,1.3676144000000932,['c'],0,right,['8'],3,1.1008436000010988,0.2,0,FastAcc,28,18,Woman,Right,
40,13,1,0.666267999999036,['c'],1,left,['2'],5,0.9834227999999712,0.4,0,FastAcc,28,18,Woman,Right,
41,13,1,1.3178783000003023,['c'],0,right,['3'],4,0.41821619999973336,0.4,0,FastAcc,28,18,Woman,Right,
42,13,1,0.7658755000011297,['c'],1,left,['3'],4,0.7687917000002926,0.1,0,FastAcc,28,18,Woman,Right,
43,13,1,1.0662182999985816,['c'],1,left,['3'],4,0.05225649999920279,0.1,0,FastAcc,28,18,Woman,Right,
44,13,1,0.6159396999992168,['c'],1,left,['2'],5,0.5019076999997196,0.2,0,FastAcc,28,18,Woman,Right,
45,13,1,1.2984608999995544,['c'],0,right,['8'],3,0.6528073999998014,0.2,0,FastAcc,28,18,Woman,Right,
46,13,1,1.0996150999999372,['c'],0,right,['3'],4,0.1014298999998573,0.1,0,FastAcc,28,18,Woman,Right,
47,13,1,1.5338205000007292,['n'],1,right,['3'],4,0.16803609999988112,0.4,0,FastAcc,28,18,Woman,Right,
48,13,1,1.1675697999999102,['n'],1,right,['3'],4,0.9178683000009187,0.4,0,FastAcc,28,18,Woman,Right,
49,13,1,0.9991022999984125,['n'],0,left,['2'],5,0.21876849999898695,0.2,0,FastAcc,28,18,Woman,Right,
50,13,1,1.2341739000003145,['n'],1,right,['2'],5,1.2520780999984709,0.2,0,FastAcc,28,18,Woman,Right,
51,13,1,2.165842700000212,['c'],1,left,['9'],2,1.2338830000007874,0.1,0,FastAcc,28,18,Woman,Right,
52,13,1,1.067147499999919,['c'],1,left,['3'],4,0.08499119999942195,0.2,0,FastAcc,28,18,Woman,Right,
53,13,1,0.9337812000012491,['n'],1,right,['3'],4,0.21915470000021742,0.4,0,FastAcc,28,18,Woman,Right,
54,13,1,1.2671327000007295,['n'],1,right,['2'],5,0.08485060000020894,0.1,0,FastAcc,28,18,Woman,Right,
55,13,1,0.8512406999998348,['n'],1,right,['3'],4,0.06799460000002,0.2,0,FastAcc,28,18,Woman,Right,
56,13,1,0.5843358000001899,['c'],0,right,['3'],4,0.2836248000003252,0.1,0,FastAcc,28,18,Woman,Right,
57,13,1,0.6513902000006055,['n'],1,right,['3'],4,0.0511108000009699,0.1,0,FastAcc,28,18,Woman,Right,
58,13,1,1.133267799999885,['c'],1,left,['3'],4,0.05215719999978319,0.2,0,FastAcc,28,18,Woman,Right,
59,13,1,0.682645599999887,['c'],1,left,['3'],4,0.13553009999850474,0.4,0,FastAcc,28,18,Woman,Right,
0,14,1,1.2994578999987425,['n'],0,left,['3'],4,0.08510390000083135,0.2,0,FastFast,28,18,Woman,Right,
1,14,1,0.5658960999990086,['c'],1,left,['3'],4,0.035361600001124316,0.4,0,FastFast,28,18,Woman,Right,
2,14,1,0.6169513999993796,['n'],1,right,['3'],4,0.017648600000029546,0.1,0,FastFast,28,18,Woman,Right,
3,14,1,0.4849534999993921,['n'],1,right,['3'],4,0.03455719999874418,0.2,0,FastFast,28,18,Woman,Right,
4,14,1,0.6849803000004613,['c'],1,left,['3'],4,0.9016628000008495,0.2,0,FastFast,28,18,Woman,Right,
5,14,1,1.0161033000003954,['n'],1,right,['3'],4,0.034713499999270425,0.2,0,FastFast,28,18,Woman,Right,
6,14,1,0.3513796999995975,['c'],0,right,['3'],4,0.050950499999089516,0.1,0,FastFast,28,18,Woman,Right,
7,14,1,0.35084099999949103,['n'],0,left,['3'],4,1.0495540000010806,0.4,0,FastFast,28,18,Woman,Right,
8,14,1,0.299722899999324,['c'],1,left,['3'],4,0.05086879999907978,0.2,0,FastFast,28,18,Woman,Right,
9,14,1,0.5345950000009907,['c'],1,left,['3'],4,0.018149499999708496,0.2,0,FastFast,28,18,Woman,Right,
10,14,1,0.31666369999948074,['c'],1,left,['3'],4,1.250361200000043,0.2,0,FastFast,28,18,Woman,Right,
11,14,1,0.3514835000005405,['n'],0,left,['3'],4,0.2681735000005574,0.1,0,FastFast,28,18,Woman,Right,
12,14,1,0.8493613000009645,['n'],0,left,['3'],4,0.051269899999169866,0.1,0,FastFast,28,18,Woman,Right,
13,14,1,0.24949730000116688,['c'],0,right,['3'],4,0.0176329000005353,0.2,0,FastFast,28,18,Woman,Right,
14,14,1,0.48322920000100567,['c'],1,left,['3'],4,0.035151100000803126,0.4,0,FastFast,28,18,Woman,Right,
15,14,1,0.3005751999990025,['n'],1,right,['3'],4,0.9666729000000487,0.1,0,FastFast,28,18,Woman,Right,
16,14,1,0.6357179999995424,['n'],1,right,['3'],4,0.08442730000024312,0.1,0,FastFast,28,18,Woman,Right,
17,14,1,0.5328288000000612,['n'],1,right,['3'],4,0.0181021000007604,0.2,0,FastFast,28,18,Woman,Right,
18,14,1,0.41808820000005653,['n'],1,right,['3'],4,0.10000859999854583,0.4,0,FastFast,28,18,Woman,Right,
19,14,1,0.550531900000351,['c'],1,left,['3'],4,0.06781169999885606,0.4,0,FastFast,28,18,Woman,Right,
20,14,1,0.6325434999998834,['n'],1,right,['3'],4,0.03480230000059237,0.1,0,FastFast,28,18,Woman,Right,
21,14,1,0.5677603000003728,['n'],1,right,['3'],4,0.085336100000859,0.4,0,FastFast,28,18,Woman,Right,
22,14,1,0.38323809999928926,['n'],1,right,['3'],4,0.06793310000102792,0.2,0,FastFast,28,18,Woman,Right,
23,14,1,0.8162817000011273,['c'],0,right,['3'],4,0.08555689999957394,0.2,0,FastFast,28,18,Woman,Right,
24,14,1,0.35066980000010517,['n'],1,right,['3'],4,0.08518040000126348,0.4,0,FastFast,28,18,Woman,Right,
25,14,1,0.33316959999865503,['n'],0,left,['3'],4,0.07013580000057118,0.1,0,FastFast,28,18,Woman,Right,
26,14,1,0.33364569999866944,['n'],0,left,['3'],4,0.06859480000093754,0.2,0,FastFast,28,18,Woman,Right,
27,14,1,0.46703709999928833,['n'],1,right,['3'],4,0.08446079999885114,0.4,0,FastFast,28,18,Woman,Right,
28,14,1,0.8344011999997747,['c'],1,left,['3'],4,0.03471730000092066,0.4,0,FastFast,28,18,Woman,Right,
29,14,1,0.7673434000007546,['c'],0,right,['3'],4,0.06782820000080392,0.2,0,FastFast,28,18,Woman,Right,
30,14,1,0.717143699999724,['c'],1,left,['3'],4,0.018071599999530008,0.4,0,FastFast,28,18,Woman,Right,
31,14,1,0.8670808999995643,['c'],0,right,['3'],4,0.01742229999945266,0.1,0,FastFast,28,18,Woman,Right,
32,14,1,0.5510154999992665,['c'],1,left,['3'],4,0.03485989999899175,0.1,0,FastFast,28,18,Woman,Right,
33,14,1,0.366402300000118,['n'],0,left,['3'],4,0.03476120000050287,0.2,0,FastFast,28,18,Woman,Right,
34,14,1,0.7325322000015149,['n'],1,right,['3'],4,0.051594099999419996,0.2,0,FastFast,28,18,Woman,Right,
35,14,1,0.5011744000003091,['c'],1,left,['3'],4,0.08480869999948482,0.2,0,FastFast,28,18,Woman,Right,
36,14,1,0.4502472000003763,['c'],1,left,['3'],4,0.06802810000044701,0.4,0,FastFast,28,18,Woman,Right,
37,14,1,0.6847220999989077,['c'],0,right,['3'],4,0.01802470000075118,0.1,0,FastFast,28,18,Woman,Right,
38,14,1,0.4839205000007496,['c'],1,left,['3'],4,0.06759400000009919,0.4,0,FastFast,28,18,Woman,Right,
39,14,1,0.5824486000001343,['n'],1,right,['3'],4,0.017545099999551894,0.1,0,FastFast,28,18,Woman,Right,
40,14,1,0.3338944999995874,['c'],1,left,['3'],4,0.01801270000032673,0.1,0,FastFast,28,18,Woman,Right,
41,14,1,0.6987934999997378,['c'],1,left,['3'],4,0.03460810000069614,0.1,0,FastFast,28,18,Woman,Right,
42,14,1,0.3498839999992924,['c'],0,right,['3'],4,0.018451899999490706,0.1,0,FastFast,28,18,Woman,Right,
43,14,1,0.5160403000008955,['n'],1,right,['3'],4,0.1002318999999261,0.4,0,FastFast,28,18,Woman,Right,
44,14,1,0.966799899999387,['n'],1,right,['3'],4,0.7350859999987733,0.4,0,FastFast,28,18,Woman,Right,
45,14,1,0.6684452000008605,['n'],1,right,['3'],4,0.034718299999440205,0.4,0,FastFast,28,18,Woman,Right,
46,14,1,0.4506185000009282,['n'],1,right,['3'],4,0.03444139999919571,0.1,0,FastFast,28,18,Woman,Right,
47,14,1,0.5652476000013849,['c'],1,left,['3'],4,0.06741230000079668,0.4,0,FastFast,28,18,Woman,Right,
48,14,1,0.7359978000004048,['c'],1,left,['3'],4,0.10072530000070401,0.4,0,FastFast,28,18,Woman,Right,
49,14,1,0.29913759999908507,['c'],1,left,['3'],4,0.20252020000043558,0.1,0,FastFast,28,18,Woman,Right,
50,14,1,0.5825903000004473,['n'],1,right,['3'],4,0.03521869999894989,0.4,0,FastFast,28,18,Woman,Right,
51,14,1,0.6175161999999546,['c'],1,left,['3'],4,0.051296300000103656,0.2,0,FastFast,28,18,Woman,Right,
52,14,1,0.6189176999996562,['c'],0,right,['3'],4,0.0860264000002644,0.1,0,FastFast,28,18,Woman,Right,
53,14,1,0.38247359999877517,['c'],0,right,['3'],4,0.035267299999759416,0.4,0,FastFast,28,18,Woman,Right,
54,14,1,0.6003307999999379,['c'],1,left,['3'],4,0.06787760000042908,0.4,0,FastFast,28,18,Woman,Right,
55,14,1,1.1822179999999207,['n'],1,right,['3'],4,0.10221819999969739,0.2,0,FastFast,28,18,Woman,Right,
56,14,1,0.5831960000014078,['c'],1,left,['3'],4,0.1666217999991204,0.2,0,FastFast,28,18,Woman,Right,
57,14,1,0.6330607999989297,['c'],1,left,['3'],4,0.05184499999995751,0.1,0,FastFast,28,18,Woman,Right,
58,14,1,0.6996003000003839,['c'],1,left,['3'],4,0.018754099999569007,0.2,0,FastFast,28,18,Woman,Right,
59,14,1,0.4839549000007537,['c'],0,right,['3'],4,0.05109960000118008,0.1,0,FastFast,28,18,Woman,Right,
0,15,1,0.8507441000001563,['n'],1,right,['3'],4,0.7999051000006148,0.4,0,AccFast,28,18,Woman,Right,
1,15,1,0.7186108000005333,['n'],1,right,['3'],4,0.13370930000019143,0.4,0,AccFast,28,18,Woman,Right,
2,15,1,0.6009386000005179,['n'],1,right,['3'],4,0.2847084000004543,0.4,0,AccFast,28,18,Woman,Right,
3,15,1,0.6995846999998321,['c'],1,left,['3'],4,0.5180367999982991,0.2,0,AccFast,28,18,Woman,Right,
4,15,1,1.2321625000004133,['c'],1,left,['2'],5,0.5175223000005644,0.2,0,AccFast,28,18,Woman,Right,
5,15,1,0.634406900000613,['n'],1,right,['3'],4,2.351649100000941,0.1,0,AccFast,28,18,Woman,Right,
6,15,1,0.5006168999989313,['c'],1,left,['3'],4,1.0179578000006586,0.2,0,AccFast,28,18,Woman,Right,
7,15,1,0.5166121000002022,['n'],1,right,['2'],5,0.5334365999988222,0.1,0,AccFast,28,18,Woman,Right,
8,15,1,0.6165906999995059,['n'],1,right,['1'],6,0.7352138000005652,0.4,0,AccFast,28,18,Woman,Right,
9,15,1,0.4848767000003136,['c'],0,right,['2'],5,0.33485209999889776,0.1,0,AccFast,28,18,Woman,Right,
10,15,1,0.7838590999999724,['c'],1,left,['2'],5,0.45132550000016636,0.2,0,AccFast,28,18,Woman,Right,
11,15,1,1.617483699999866,['n'],0,left,['8'],3,0.7346197000006214,0.2,0,AccFast,28,18,Woman,Right,
12,15,1,0.6164035000001604,['c'],0,right,['3'],4,0.8182053000000451,0.4,0,AccFast,28,18,Woman,Right,
13,15,1,0.9326311000004353,['c'],0,right,['3'],4,0.567566399999123,0.2,0,AccFast,28,18,Woman,Right,
14,15,1,0.6502435000002151,['c'],1,left,['2'],5,0.7196294000004855,0.2,0,AccFast,28,18,Woman,Right,
15,15,1,0.5993563000010909,['c'],1,left,['2'],5,0.335063500000615,0.1,0,AccFast,28,18,Woman,Right,
16,15,1,1.2343734000005497,['n'],1,right,['2'],5,0.9346310000000813,0.1,0,AccFast,28,18,Woman,Right,
17,15,1,1.1172473999995418,['n'],1,right,['3'],4,0.4846410999998625,0.4,0,AccFast,28,18,Woman,Right,
18,15,1,1.850647500001287,['n'],1,right,['3'],4,0.8683918999995512,0.1,0,AccFast,28,18,Woman,Right,
19,15,1,0.5491845000015019,['n'],1,right,['3'],4,0.15020600000025297,0.4,0,AccFast,28,18,Woman,Right,
20,15,1,2.216368400000647,['c'],1,left,['3'],4,0.56877760000134,0.2,0,AccFast,28,18,Woman,Right,
21,15,1,0.8837794000010035,['c'],0,right,['3'],4,0.05130970000027446,0.2,0,AccFast,28,18,Woman,Right,
22,15,1,1.2659672000008868,['n'],0,left,['3'],4,0.15207880000161822,0.2,0,AccFast,28,18,Woman,Right,
23,15,1,0.7831279000001814,['n'],1,right,['3'],4,0.2527144000014232,0.1,0,AccFast,28,18,Woman,Right,
24,15,1,0.967439000000013,['n'],0,left,['3'],4,0.11676710000028834,0.2,0,AccFast,28,18,Woman,Right,
25,15,1,0.6824359000002005,['n'],0,left,['3'],4,0.2835261999989598,0.4,0,AccFast,28,18,Woman,Right,
26,15,1,0.5683520999991742,['n'],1,right,['3'],4,0.1832806000002165,0.4,0,AccFast,28,18,Woman,Right,
27,15,1,0.7500474000007671,['n'],1,right,['3'],4,1.7519677000000229,0.4,0,AccFast,28,18,Woman,Right,
28,15,1,1.1652506999998877,['n'],0,left,['2'],5,0.20212680000076944,0.4,0,AccFast,28,18,Woman,Right,
29,15,1,0.8163191999992705,['n'],0,left,['1'],6,1.6180153000004793,0.2,0,AccFast,28,18,Woman,Right,
30,15,1,1.132041200000458,['n'],0,left,['3'],4,0.319229800001267,0.1,0,AccFast,28,18,Woman,Right,
31,15,1,2.65065180000056,['c'],1,left,['8'],3,0.633848699999362,0.4,0,AccFast,28,18,Woman,Right,
32,15,1,1.3344968000001245,['c'],0,right,['8'],3,0.28481619999911345,0.1,0,AccFast,28,18,Woman,Right,
33,15,1,1.116519100000005,['c'],0,right,['3'],4,0.3176244999995106,0.1,0,AccFast,28,18,Woman,Right,
34,15,1,1.198501099999703,['c'],1,left,['8'],3,0.6842577000006713,0.1,0,AccFast,28,18,Woman,Right,
35,15,1,1.0997765000010986,['c'],0,right,['8'],3,0.9668459999993502,0.1,0,AccFast,28,18,Woman,Right,
36,15,1,1.5352918000007776,['c'],1,left,['8'],3,0.7840054000007513,0.4,0,AccFast,28,18,Woman,Right,
37,15,1,0.7507177999996202,['c'],1,left,['8'],3,0.866015999999945,0.2,0,AccFast,28,18,Woman,Right,
38,15,1,2.0024290999990626,['n'],0,left,['8'],3,1.0827611999993678,0.2,0,AccFast,28,18,Woman,Right,
39,15,1,0.9846307999996498,['n'],1,right,['1'],6,1.8838322999999946,0.4,0,AccFast,28,18,Woman,Right,
40,15,1,0.9316495999992185,['c'],1,left,['2'],5,0.7336723000007623,0.2,0,AccFast,28,18,Woman,Right,
41,15,1,1.1521066000004794,['n'],1,right,['2'],5,1.4161970000004658,0.2,0,AccFast,28,18,Woman,Right,
42,15,1,1.284100999999282,['c'],0,right,['3'],4,1.2670515999998315,0.1,0,AccFast,28,18,Woman,Right,
43,15,1,0.8659769000005326,['c'],1,left,['1'],6,0.752198899999712,0.4,0,AccFast,28,18,Woman,Right,
44,15,1,0.6345608999999968,['n'],1,right,['2'],5,1.5497277999984362,0.1,0,AccFast,28,18,Woman,Right,
45,15,1,0.7343590000000404,['c'],1,left,['2'],5,1.5999226000003546,0.1,0,AccFast,28,18,Woman,Right,
46,15,1,0.5839237000000139,['n'],1,right,['2'],5,0.45148299999891606,0.4,0,AccFast,28,18,Woman,Right,
47,15,1,0.9501261000004888,['n'],0,left,['3'],4,0.4017588999995496,0.2,0,AccFast,28,18,Woman,Right,
48,15,1,0.6998440999996092,['n'],0,left,['3'],4,0.15005870000095456,0.1,0,AccFast,28,18,Woman,Right,
49,15,1,1.3672026000003825,['n'],1,right,['3'],4,0.10131639999963227,0.1,0,AccFast,28,18,Woman,Right,
50,15,1,0.8687389000006078,['n'],0,left,['3'],4,0.05146390000118117,0.1,0,AccFast,28,18,Woman,Right,
51,15,1,1.0323377999993681,['c'],1,left,['3'],4,0.0688836999997875,0.4,0,AccFast,28,18,Woman,Right,
52,15,1,1.2004142999994656,['n'],1,right,['3'],4,0.051480799998898874,0.1,0,AccFast,28,18,Woman,Right,
53,15,1,1.0672039999990375,['n'],1,right,['3'],4,2.2684576000010566,0.1,0,AccFast,28,18,Woman,Right,
54,15,1,1.6495126000008895,['n'],0,left,['2'],5,0.03444069999932253,0.2,0,AccFast,28,18,Woman,Right,
55,15,1,0.9324053000000276,['c'],1,left,['2'],5,0.252968000000692,0.2,0,AccFast,28,18,Woman,Right,
56,15,1,0.7497379999986151,['c'],1,left,['2'],5,0.05157639999924868,0.4,0,AccFast,28,18,Woman,Right,
57,15,1,0.7825193999997282,['n'],1,right,['2'],5,0.3012638000000152,0.4,0,AccFast,28,18,Woman,Right,
58,15,1,1.333633899999768,['c'],0,right,['2'],5,0.0846971000009944,0.4,0,AccFast,28,18,Woman,Right,
59,15,1,0.8162436000002344,['c'],1,left,['2'],5,0.28586820000055013,0.2,0,AccFast,28,18,Woman,Right,
