withinblocktrial,block,block_repetition,rt,resp,cor,cresp,conf_press,cj,rtconf,coherence,metacognition,slow_trial,manipulation,sub,age,gender,handedness,
0,1,1,2.084228300000177,['c'],1,left,none,-99,-99,0.5,-99,0,none,14,19,Woman,Right,
1,1,1,1.8347020000001066,['c'],1,left,none,-99,-99,0.5,-99,0,none,14,19,Woman,Right,
2,1,1,0.8173557999998593,['n'],1,right,none,-99,-99,0.5,-99,0,none,14,19,Woman,Right,
3,1,1,1.0343509000013,['c'],1,left,none,-99,-99,0.5,-99,0,none,14,19,Woman,Right,
4,1,1,0.8498703999994177,['c'],1,left,none,-99,-99,0.5,-99,0,none,14,19,Woman,Right,
5,1,1,0.734075299998949,['c'],1,left,none,-99,-99,0.5,-99,0,none,14,19,Woman,Right,
6,1,1,0.7506349999985105,['n'],1,right,none,-99,-99,0.5,-99,0,none,14,19,Woman,Right,
7,1,1,0.5848011999987648,['c'],1,left,none,-99,-99,0.5,-99,0,none,14,19,Woman,Right,
8,1,1,1.2840095999999903,['c'],1,left,none,-99,-99,0.5,-99,0,none,14,19,Woman,Right,
9,1,1,0.7168001999998523,['n'],1,right,none,-99,-99,0.5,-99,0,none,14,19,Woman,Right,
10,1,1,0.7342200000002777,['n'],1,right,none,-99,-99,0.5,-99,0,none,14,19,Woman,Right,
11,1,1,0.6842319000006682,['n'],1,right,none,-99,-99,0.5,-99,0,none,14,19,Woman,Right,
12,1,1,0.8995367000006809,['c'],1,left,none,-99,-99,0.5,-99,0,none,14,19,Woman,Right,
13,1,1,0.7512332000005699,['c'],1,left,none,-99,-99,0.5,-99,0,none,14,19,Woman,Right,
14,1,1,0.6678224999996019,['n'],1,right,none,-99,-99,0.5,-99,0,none,14,19,Woman,Right,
15,1,1,0.8153726000000461,['n'],1,right,none,-99,-99,0.5,-99,0,none,14,19,Woman,Right,
16,1,1,0.6668633000008413,['c'],1,left,none,-99,-99,0.5,-99,0,none,14,19,Woman,Right,
17,1,1,0.7513168000004953,['n'],1,right,none,-99,-99,0.5,-99,0,none,14,19,Woman,Right,
18,1,1,0.9998429999996006,['n'],1,right,none,-99,-99,0.5,-99,0,none,14,19,Woman,Right,
19,1,1,0.8651874999995925,['c'],1,left,none,-99,-99,0.5,-99,0,none,14,19,Woman,Right,
20,1,1,0.9998629000001529,['n'],0,left,none,-99,-99,0.5,-99,0,none,14,19,Woman,Right,
21,1,1,0.6858262000005197,['n'],1,right,none,-99,-99,0.5,-99,0,none,14,19,Woman,Right,
22,1,1,0.9837100999993709,['n'],1,right,none,-99,-99,0.5,-99,0,none,14,19,Woman,Right,
23,1,1,0.700145099999645,['n'],1,right,none,-99,-99,0.5,-99,0,none,14,19,Woman,Right,
0,2,1,1.7680049999999028,['c'],1,left,none,-99,-99,0.1,-99,0,none,14,19,Woman,Right,
1,2,1,2.1169325999999273,['n'],1,right,none,-99,-99,0.1,-99,0,none,14,19,Woman,Right,
2,2,1,1.20065219999924,['n'],1,right,none,-99,-99,0.2,-99,0,none,14,19,Woman,Right,
3,2,1,0.816295499998887,['c'],1,left,none,-99,-99,0.2,-99,0,none,14,19,Woman,Right,
4,2,1,0.5686332000004768,['n'],1,right,none,-99,-99,0.4,-99,0,none,14,19,Woman,Right,
5,2,1,0.7339644000003318,['c'],1,left,none,-99,-99,0.2,-99,0,none,14,19,Woman,Right,
6,2,1,0.8339068000004772,['n'],1,right,none,-99,-99,0.2,-99,0,none,14,19,Woman,Right,
7,2,1,0.7007272999999259,['c'],1,left,none,-99,-99,0.2,-99,0,none,14,19,Woman,Right,
8,2,1,0.9012081000000762,['c'],0,right,none,-99,-99,0.1,-99,0,none,14,19,Woman,Right,
9,2,1,2.0324099999997998,['n'],0,left,none,-99,-99,0.1,-99,0,none,14,19,Woman,Right,
10,2,1,2.2662715000005846,['n'],1,right,none,-99,-99,0.1,-99,0,none,14,19,Woman,Right,
11,2,1,1.900660199999038,['c'],1,left,none,-99,-99,0.4,-99,0,none,14,19,Woman,Right,
12,2,1,1.51678659999925,['n'],1,right,none,-99,-99,0.4,-99,0,none,14,19,Woman,Right,
13,2,1,1.7824629999995523,['c'],1,left,none,-99,-99,0.1,-99,0,none,14,19,Woman,Right,
14,2,1,1.4010276999997586,['c'],1,left,none,-99,-99,0.1,-99,0,none,14,19,Woman,Right,
15,2,1,0.7164331000003585,['c'],1,left,none,-99,-99,0.4,-99,0,none,14,19,Woman,Right,
16,2,1,0.700317200000427,['n'],1,right,none,-99,-99,0.4,-99,0,none,14,19,Woman,Right,
17,2,1,0.6346197000002576,['c'],1,left,none,-99,-99,0.4,-99,0,none,14,19,Woman,Right,
18,2,1,0.651025799999843,['n'],1,right,none,-99,-99,0.2,-99,0,none,14,19,Woman,Right,
19,2,1,1.9167527999998129,['c'],0,right,none,-99,-99,0.1,-99,0,none,14,19,Woman,Right,
20,2,1,3.117122899999231,['c'],1,left,none,-99,-99,0.2,-99,0,none,14,19,Woman,Right,
21,2,1,0.667220900000757,['n'],1,right,none,-99,-99,0.2,-99,0,none,14,19,Woman,Right,
22,2,1,0.633937499998865,['c'],1,left,none,-99,-99,0.4,-99,0,none,14,19,Woman,Right,
23,2,1,0.6679117999992741,['n'],1,right,none,-99,-99,0.4,-99,0,none,14,19,Woman,Right,
0,3,1,2.2855725000008533,['n'],1,right,['e'],1,0.18086199999925157,0.4,1,0,none,14,19,Woman,Right,
1,3,1,2.167636800000764,['c'],1,left,['e'],1,2.5894843000005494,0.2,1,0,none,14,19,Woman,Right,
2,3,1,1.9844456000009814,['c'],0,right,['u'],0,0.9097844000007171,0.1,1,0,none,14,19,Woman,Right,
3,3,1,1.7014937000003556,['c'],1,left,['u'],0,0.7319979000003514,0.4,0,0,none,14,19,Woman,Right,
4,3,1,1.1342297999999573,['c'],1,left,['e'],1,0.40774140000030457,0.4,1,0,none,14,19,Woman,Right,
5,3,1,0.6516219000004639,['n'],1,right,['e'],1,0.4041388999994524,0.4,1,0,none,14,19,Woman,Right,
6,3,1,1.700751800000944,['n'],1,right,['u'],0,0.79112079999868,0.1,0,0,none,14,19,Woman,Right,
7,3,1,1.3344051999993098,['c'],1,left,['e'],1,0.6641724999990402,0.2,1,0,none,14,19,Woman,Right,
8,3,1,0.7517790000001696,['c'],1,left,['e'],1,0.4700379999994766,0.4,1,0,none,14,19,Woman,Right,
9,3,1,1.48434239999915,['c'],1,left,['u'],0,0.7501733999997668,0.1,0,0,none,14,19,Woman,Right,
10,3,1,1.267848800000138,['n'],1,right,['u'],0,1.0598981000002823,0.2,0,0,none,14,19,Woman,Right,
11,3,1,0.8676446000008582,['n'],1,right,['e'],1,0.38174529999923834,0.4,1,0,none,14,19,Woman,Right,
12,3,1,0.6021657999990566,['n'],1,right,['e'],1,0.5727740000002086,0.2,1,0,none,14,19,Woman,Right,
13,3,1,3.2848233000004257,['n'],0,left,['u'],0,0.584942500001489,0.1,1,0,none,14,19,Woman,Right,
14,3,1,0.8332884999999806,['n'],1,right,['e'],1,0.4554208000008657,0.4,1,0,none,14,19,Woman,Right,
15,3,1,2.7170149000012316,['n'],1,right,['u'],0,0.6545339000003878,0.1,0,0,none,14,19,Woman,Right,
16,3,1,0.7682573999991291,['n'],0,left,['u'],0,0.6369589000005362,0.1,1,0,none,14,19,Woman,Right,
17,3,1,0.9349726000000373,['c'],1,left,['e'],1,0.4517604000011488,0.2,1,0,none,14,19,Woman,Right,
18,3,1,1.899067099999229,['c'],1,left,['e'],1,0.44553110000015295,0.1,1,0,none,14,19,Woman,Right,
19,3,1,1.1519186999994417,['c'],1,left,['e'],1,0.48363030000109575,0.2,1,0,none,14,19,Woman,Right,
20,3,1,1.00089669999943,['n'],1,right,['e'],1,0.8623426000012842,0.2,1,0,none,14,19,Woman,Right,
21,3,1,0.7015360000004875,['n'],1,right,['e'],1,0.39001489999827754,0.4,1,0,none,14,19,Woman,Right,
22,3,1,1.149714799999856,['c'],1,left,['e'],1,0.8156534999998257,0.1,1,0,none,14,19,Woman,Right,
23,3,1,0.8511980999992375,['n'],1,right,['e'],1,0.33867819999977655,0.2,1,0,none,14,19,Woman,Right,
0,4,1,1.3501675000006799,['n'],0,left,['u'],0,4.48571770000126,0.1,1,0,FastAcc,14,19,Woman,Right,
1,4,1,0.7177367000003869,['c'],0,right,['u'],0,1.224384099999952,0.2,1,0,FastAcc,14,19,Woman,Right,
2,4,1,1.6835045000007085,['c'],1,left,['u'],0,1.239517899999555,0.1,0,0,FastAcc,14,19,Woman,Right,
3,4,1,0.8334764999999607,['c'],1,left,['e'],1,1.2067074999995384,0.2,1,0,FastAcc,14,19,Woman,Right,
4,4,1,1.050637700000152,['n'],1,right,['e'],1,1.4549650000008114,0.4,1,0,FastAcc,14,19,Woman,Right,
5,4,1,0.6505113000002893,['n'],1,right,['e'],1,2.4308301999990363,0.1,1,0,FastAcc,14,19,Woman,Right,
6,4,1,0.5848987999997917,['c'],1,left,['e'],1,0.887534899999082,0.4,1,0,FastAcc,14,19,Woman,Right,
7,4,1,1.0832847000001493,['c'],1,left,['u'],0,0.7639262000011513,0.1,0,0,FastAcc,14,19,Woman,Right,
8,4,1,0.5346372000003612,['c'],1,left,['e'],1,1.0176222999998572,0.2,1,0,FastAcc,14,19,Woman,Right,
9,4,1,0.8175866000001406,['n'],1,right,['e'],1,1.0586760999995022,0.1,1,0,FastAcc,14,19,Woman,Right,
10,4,1,0.7513366000002861,['n'],1,right,['e'],1,0.9250720999989426,0.4,1,0,FastAcc,14,19,Woman,Right,
11,4,1,0.6164807999994082,['n'],1,right,['e'],1,0.7387187000003905,0.4,1,0,FastAcc,14,19,Woman,Right,
12,4,1,0.9016322999996191,['n'],1,right,['e'],1,0.7710420000003069,0.4,1,0,FastAcc,14,19,Woman,Right,
13,4,1,0.6172791000008147,['c'],1,left,['e'],1,0.5261313000009977,0.2,1,0,FastAcc,14,19,Woman,Right,
14,4,1,0.785408899999311,['n'],1,right,['e'],1,0.8285747999998421,0.2,1,0,FastAcc,14,19,Woman,Right,
15,4,1,0.600237599999673,['c'],1,left,['e'],1,0.59779300000082,0.4,1,0,FastAcc,14,19,Woman,Right,
16,4,1,0.5343097000004491,['c'],1,left,['e'],1,0.5066860000006272,0.4,1,0,FastAcc,14,19,Woman,Right,
17,4,1,1.0504372000013973,['c'],1,left,['e'],1,0.8469902000015281,0.4,1,0,FastAcc,14,19,Woman,Right,
18,4,1,0.7010504999998375,['c'],0,right,['e'],1,0.6915048999999271,0.4,0,0,FastAcc,14,19,Woman,Right,
19,4,1,0.5009731999998621,['c'],1,left,['u'],0,0.6146184999997786,0.2,0,0,FastAcc,14,19,Woman,Right,
20,4,1,0.5507425999985571,['c'],1,left,['u'],0,0.6021426000006613,0.1,0,0,FastAcc,14,19,Woman,Right,
21,4,1,0.517280900001424,['c'],1,left,['u'],0,0.5115868000011687,0.2,0,0,FastAcc,14,19,Woman,Right,
22,4,1,0.667815700000574,['c'],0,right,['u'],0,0.595404800000324,0.1,1,0,FastAcc,14,19,Woman,Right,
23,4,1,0.7160346000000573,['c'],1,left,['u'],0,0.6103811000011774,0.1,0,0,FastAcc,14,19,Woman,Right,
24,4,1,1.2835025000003952,['c'],1,left,['u'],0,0.4568167999987054,0.1,0,0,FastAcc,14,19,Woman,Right,
25,4,1,0.53493730000082,['c'],1,left,['u'],0,0.4831640000011248,0.1,0,0,FastAcc,14,19,Woman,Right,
26,4,1,0.9842193000004045,['n'],1,right,['e'],1,0.5871701999985817,0.1,1,0,FastAcc,14,19,Woman,Right,
27,4,1,0.6182137999985571,['n'],1,right,['e'],1,0.5733013999997638,0.2,1,0,FastAcc,14,19,Woman,Right,
28,4,1,0.5493239000006724,['n'],1,right,['e'],1,0.6429306999998516,0.4,1,0,FastAcc,14,19,Woman,Right,
29,4,1,0.8007061000007525,['c'],1,left,['e'],1,0.6046917000003305,0.2,1,0,FastAcc,14,19,Woman,Right,
30,4,1,0.617792000000918,['n'],1,right,['e'],1,0.6855981999997312,0.1,1,0,FastAcc,14,19,Woman,Right,
31,4,1,0.5499708000006649,['c'],1,left,['e'],1,0.5275708000008308,0.4,1,0,FastAcc,14,19,Woman,Right,
32,4,1,0.8013498999989679,['c'],0,right,['u'],0,1.0684605000005831,0.1,1,0,FastAcc,14,19,Woman,Right,
33,4,1,0.6677619000001869,['c'],1,left,['e'],1,0.5695525999999518,0.2,1,0,FastAcc,14,19,Woman,Right,
34,4,1,0.7172019999998156,['c'],0,right,['u'],0,1.2085704000000987,0.4,1,0,FastAcc,14,19,Woman,Right,
35,4,1,1.0010679000006348,['n'],1,right,['e'],1,0.8670814000015525,0.2,1,0,FastAcc,14,19,Woman,Right,
36,4,1,0.7022762000015064,['c'],0,right,['u'],0,0.6785213000002841,0.2,1,0,FastAcc,14,19,Woman,Right,
37,4,1,0.9673275000004651,['c'],1,left,['e'],1,0.695023799999035,0.4,1,0,FastAcc,14,19,Woman,Right,
38,4,1,0.6516007999998692,['n'],1,right,['e'],1,0.7882521000010456,0.4,1,0,FastAcc,14,19,Woman,Right,
39,4,1,0.7014003999993292,['n'],1,right,['e'],1,0.682541999998648,0.2,1,0,FastAcc,14,19,Woman,Right,
40,4,1,0.5678370999994513,['n'],1,right,['e'],1,0.5715982999990956,0.4,1,0,FastAcc,14,19,Woman,Right,
41,4,1,0.5176114999994752,['n'],1,right,['e'],1,0.4987860000001092,0.1,1,0,FastAcc,14,19,Woman,Right,
42,4,1,0.4844335999987379,['n'],1,right,['e'],1,0.4767423000012059,0.2,1,0,FastAcc,14,19,Woman,Right,
43,4,1,0.6843924000004336,['c'],1,left,['e'],1,0.6251541000001453,0.4,1,0,FastAcc,14,19,Woman,Right,
44,4,1,0.651117699999304,['c'],1,left,['e'],1,1.568875000000844,0.2,1,0,FastAcc,14,19,Woman,Right,
45,4,1,0.5172947999999451,['c'],1,left,['u'],0,0.9444911000009597,0.1,0,0,FastAcc,14,19,Woman,Right,
46,4,1,0.4002092000009725,['c'],0,right,['u'],0,0.6697082000009686,0.4,1,0,FastAcc,14,19,Woman,Right,
47,4,1,0.900315099999716,['c'],1,left,['u'],0,0.7048589999994874,0.4,0,0,FastAcc,14,19,Woman,Right,
48,4,1,0.4989872000005562,['c'],0,right,['u'],0,0.531739000000016,0.1,1,0,FastAcc,14,19,Woman,Right,
49,4,1,0.6690729000001738,['n'],1,right,['e'],1,0.5336004000000685,0.2,1,0,FastAcc,14,19,Woman,Right,
50,4,1,0.6506315999995422,['n'],1,right,['u'],0,0.8085817000010138,0.2,0,0,FastAcc,14,19,Woman,Right,
51,4,1,0.5168525999997655,['c'],1,left,['u'],0,1.174277299998721,0.4,0,0,FastAcc,14,19,Woman,Right,
52,4,1,0.9510599999994156,['n'],1,right,['e'],1,1.1561605000006239,0.2,1,0,FastAcc,14,19,Woman,Right,
53,4,1,0.4851355999999214,['c'],1,left,['u'],0,0.5971055999998498,0.1,0,0,FastAcc,14,19,Woman,Right,
54,4,1,1.0010390999996162,['n'],1,right,['u'],0,0.6955543999993097,0.1,0,0,FastAcc,14,19,Woman,Right,
55,4,1,0.584450399999696,['c'],1,left,['u'],0,0.5184637000002112,0.4,0,0,FastAcc,14,19,Woman,Right,
56,4,1,0.7022811999995611,['n'],0,left,['u'],0,0.5840659000004962,0.1,1,0,FastAcc,14,19,Woman,Right,
57,4,1,0.9344135999999708,['n'],1,right,['e'],1,0.36584290000064357,0.2,1,0,FastAcc,14,19,Woman,Right,
58,4,1,0.5009584999988874,['n'],0,left,['u'],0,0.49340200000006007,0.1,1,0,FastAcc,14,19,Woman,Right,
59,4,1,0.5191267999998672,['c'],1,left,['u'],0,0.5839642000009917,0.2,0,0,FastAcc,14,19,Woman,Right,
0,5,1,1.0165916999994806,['n'],1,right,['e'],1,0.4607477999998082,0.1,1,0,FastFast,14,19,Woman,Right,
1,5,1,0.7678169999999227,['n'],0,left,['e'],1,0.41420490000018617,0.2,0,0,FastFast,14,19,Woman,Right,
2,5,1,0.8510019999994256,['c'],1,left,['u'],0,0.5417672999992647,0.1,0,0,FastFast,14,19,Woman,Right,
3,5,1,0.5511151999999129,['c'],1,left,['u'],0,0.4687854999992851,0.4,0,0,FastFast,14,19,Woman,Right,
4,5,1,0.5661564000001817,['n'],1,right,['e'],1,0.33425739999984216,0.4,1,0,FastFast,14,19,Woman,Right,
5,5,1,0.5173658000003343,['c'],1,left,['e'],1,0.5742929999996704,0.4,1,0,FastFast,14,19,Woman,Right,
6,5,1,0.684844699999303,['n'],0,left,['u'],0,0.6544928000002983,0.1,1,0,FastFast,14,19,Woman,Right,
7,5,1,0.5168515000004845,['c'],1,left,['e'],1,0.3700838999993721,0.4,1,0,FastFast,14,19,Woman,Right,
8,5,1,0.6843757999995432,['c'],1,left,['u'],0,0.4587827000013931,0.1,0,0,FastFast,14,19,Woman,Right,
9,5,1,0.5687486000006174,['c'],1,left,['e'],1,0.40431819999867,0.4,1,0,FastFast,14,19,Woman,Right,
10,5,1,0.6008835000011459,['n'],1,right,['e'],1,0.6543368999991799,0.1,1,0,FastFast,14,19,Woman,Right,
11,5,1,0.7847223999997368,['n'],1,right,['u'],0,0.5677262000008341,0.2,0,0,FastFast,14,19,Woman,Right,
12,5,1,0.5503793000007136,['c'],1,left,['e'],1,0.5251943999992363,0.2,1,0,FastFast,14,19,Woman,Right,
13,5,1,0.7669870000008814,['n'],1,right,['u'],0,0.5248302999989392,0.2,0,0,FastFast,14,19,Woman,Right,
14,5,1,0.6011610999994446,['n'],1,right,['e'],1,0.3860069999991538,0.2,1,0,FastFast,14,19,Woman,Right,
15,5,1,0.6501696999985143,['c'],1,left,['e'],1,0.8271418000003905,0.2,1,0,FastFast,14,19,Woman,Right,
16,5,1,0.7009400000006281,['n'],1,right,['e'],1,0.2728074000006018,0.1,1,0,FastFast,14,19,Woman,Right,
17,5,1,0.5010830000010174,['n'],1,right,['e'],1,0.34018859999923734,0.4,1,0,FastFast,14,19,Woman,Right,
18,5,1,0.4846663999996963,['c'],1,left,['e'],1,0.43805390000125044,0.4,1,0,FastFast,14,19,Woman,Right,
19,5,1,0.5346753000012541,['n'],1,right,['u'],0,0.5617146000004141,0.2,0,0,FastFast,14,19,Woman,Right,
20,5,1,0.5675834000012401,['c'],1,left,['e'],1,0.3584080999989965,0.4,1,0,FastFast,14,19,Woman,Right,
21,5,1,0.43460699999923236,['n'],1,right,['e'],1,0.489470500000607,0.4,1,0,FastFast,14,19,Woman,Right,
22,5,1,0.5347542999988946,['n'],0,left,['u'],0,1.3950353999989602,0.2,1,0,FastFast,14,19,Woman,Right,
23,5,1,0.5511628000003839,['c'],1,left,['e'],1,0.5197301999996853,0.1,1,0,FastFast,14,19,Woman,Right,
24,5,1,0.5677693999987241,['n'],1,right,['u'],0,0.7026759999989736,0.1,0,0,FastFast,14,19,Woman,Right,
25,5,1,0.5495240000000194,['c'],0,right,['e'],1,0.39909390000138956,0.1,0,0,FastFast,14,19,Woman,Right,
26,5,1,0.4679234000013821,['c'],1,left,['e'],1,0.511488800000734,0.1,1,0,FastFast,14,19,Woman,Right,
27,5,1,0.5512061999997968,['c'],1,left,['e'],1,0.4389508999993268,0.4,1,0,FastFast,14,19,Woman,Right,
28,5,1,0.7014077000003454,['n'],1,right,['e'],1,0.7799530000011146,0.2,1,0,FastFast,14,19,Woman,Right,
29,5,1,0.7348842999999761,['n'],1,right,['u'],0,0.40156480000041483,0.2,0,0,FastFast,14,19,Woman,Right,
30,5,1,0.5845812999996269,['c'],0,right,['u'],0,0.6364201000014873,0.1,1,0,FastFast,14,19,Woman,Right,
31,5,1,0.6175340000008873,['c'],1,left,['u'],0,0.4609619000002567,0.2,0,0,FastFast,14,19,Woman,Right,
32,5,1,1.4014516000006552,['n'],1,right,['e'],1,1.0454392999999982,0.4,1,0,FastFast,14,19,Woman,Right,
33,5,1,0.5512109000010241,['c'],1,left,['e'],1,0.6480233000002045,0.4,1,0,FastFast,14,19,Woman,Right,
34,5,1,0.5994348000003811,['n'],1,right,['e'],1,0.32943130000057863,0.4,1,0,FastFast,14,19,Woman,Right,
35,5,1,0.6497705000001588,['n'],1,right,['e'],1,0.27649860000019544,0.2,1,0,FastFast,14,19,Woman,Right,
36,5,1,2.351323400000183,['n'],1,right,['u'],0,0.4136636000002909,0.4,0,0,FastFast,14,19,Woman,Right,
37,5,1,0.7342035000001488,['c'],1,left,['e'],1,0.4185091999988799,0.2,1,0,FastFast,14,19,Woman,Right,
38,5,1,1.0331942000011622,['c'],1,left,['e'],1,1.019005100000868,0.4,1,0,FastFast,14,19,Woman,Right,
39,5,1,3.716777899999215,['c'],1,left,['u'],0,0.7038045000008424,0.2,0,0,FastFast,14,19,Woman,Right,
40,5,1,0.5831584999996267,['c'],1,left,['e'],1,0.5755296000006638,0.1,1,0,FastFast,14,19,Woman,Right,
41,5,1,1.7840950000008888,['n'],1,right,['e'],1,1.0593957000000955,0.2,1,0,FastFast,14,19,Woman,Right,
42,5,1,0.45082990000082646,['c'],0,right,['u'],0,0.44180100000085076,0.1,1,0,FastFast,14,19,Woman,Right,
43,5,1,0.33557049999944866,['n'],1,right,['e'],1,0.3653715000000375,0.1,1,0,FastFast,14,19,Woman,Right,
44,5,1,0.50020670000049,['c'],1,left,['u'],0,0.541816300001301,0.1,0,0,FastFast,14,19,Woman,Right,
45,5,1,0.3848402999992686,['n'],1,right,['e'],1,0.5393270000004122,0.4,1,0,FastFast,14,19,Woman,Right,
46,5,1,0.7016607000005024,['n'],0,left,['u'],0,0.7155782999998337,0.2,1,0,FastFast,14,19,Woman,Right,
47,5,1,0.4670191999994131,['c'],1,left,['e'],1,0.41470119999939925,0.2,1,0,FastFast,14,19,Woman,Right,
48,5,1,0.8511010000001988,['n'],1,right,['e'],1,0.3030040000012377,0.4,1,0,FastFast,14,19,Woman,Right,
49,5,1,0.7345877999996446,['n'],0,left,['u'],0,0.56723410000086,0.1,1,0,FastFast,14,19,Woman,Right,
50,5,1,0.8993943999994372,['n'],0,left,['e'],1,0.4791843999992125,0.2,0,0,FastFast,14,19,Woman,Right,
51,5,1,0.6012987000012799,['n'],0,left,['u'],0,1.1421204999987822,0.1,1,0,FastFast,14,19,Woman,Right,
52,5,1,0.7003667000008136,['n'],1,right,['e'],1,0.5113575999985187,0.4,1,0,FastFast,14,19,Woman,Right,
53,5,1,0.5514973999997892,['c'],0,right,['e'],1,0.9835695000001579,0.1,0,0,FastFast,14,19,Woman,Right,
54,5,1,1.1016986000013276,['c'],1,left,['e'],1,0.4705845999997109,0.2,1,0,FastFast,14,19,Woman,Right,
55,5,1,0.6011767999989388,['n'],1,right,['e'],1,0.4302440999999817,0.4,1,0,FastFast,14,19,Woman,Right,
56,5,1,0.8337205000007089,['n'],0,left,['u'],0,0.39849230000072566,0.2,1,0,FastFast,14,19,Woman,Right,
57,5,1,0.6013141000003088,['n'],1,right,['e'],1,0.3922204000009515,0.4,1,0,FastFast,14,19,Woman,Right,
58,5,1,0.7345122000006086,['n'],1,right,['u'],0,0.4298822000000655,0.1,0,0,FastFast,14,19,Woman,Right,
59,5,1,0.8683715000006487,['n'],1,right,['u'],0,0.4283400000003894,0.1,0,0,FastFast,14,19,Woman,Right,
0,6,1,5.000135399999635,x,-99,right,none,-99,-99,0.1,-99,1,AccFast,14,19,Woman,Right,
1,6,1,1.2503901000000042,['n'],1,right,['e'],1,2.1420804999997927,0.4,1,0,AccFast,14,19,Woman,Right,
2,6,1,1.3674700999999914,['n'],0,left,['e'],1,0.6929553999998461,0.1,0,0,AccFast,14,19,Woman,Right,
3,6,1,1.0838788999990356,['n'],1,right,['e'],1,0.40047749999939697,0.4,1,0,AccFast,14,19,Woman,Right,
4,6,1,2.1176360999997996,['n'],1,right,['e'],1,0.7021863999998459,0.1,1,0,AccFast,14,19,Woman,Right,
5,6,1,1.6846237999998266,['n'],1,right,['e'],1,0.4974278999998205,0.1,1,0,AccFast,14,19,Woman,Right,
6,6,1,1.0011962999997195,['n'],1,right,['e'],1,0.4717097000011563,0.4,1,0,AccFast,14,19,Woman,Right,
7,6,1,0.9660208000004786,['n'],1,right,['e'],1,0.4501884000001155,0.4,1,0,AccFast,14,19,Woman,Right,
8,6,1,1.2838706000002276,['n'],1,right,['e'],1,0.7819730999999592,0.2,1,0,AccFast,14,19,Woman,Right,
9,6,1,0.8000871999993251,['c'],1,left,['e'],1,0.5774555999996664,0.4,1,0,AccFast,14,19,Woman,Right,
10,6,1,1.0021505000004254,['c'],1,left,['e'],1,0.9485937000008562,0.4,1,0,AccFast,14,19,Woman,Right,
11,6,1,1.0670551000002888,['n'],1,right,['e'],1,1.2226250000003347,0.4,1,0,AccFast,14,19,Woman,Right,
12,6,1,0.9341614999993908,['c'],1,left,['e'],1,0.8033584999993764,0.2,1,0,AccFast,14,19,Woman,Right,
13,6,1,1.0843767000005755,['c'],1,left,['u'],0,0.874100199998793,0.2,0,0,AccFast,14,19,Woman,Right,
14,6,1,1.284361699999863,['c'],1,left,['e'],1,0.5824044999990292,0.1,1,0,AccFast,14,19,Woman,Right,
15,6,1,0.6843341999992845,['c'],1,left,['e'],1,0.48634080000010727,0.4,1,0,AccFast,14,19,Woman,Right,
16,6,1,0.8168741000008595,['n'],1,right,['e'],1,0.6933513000003586,0.2,1,0,AccFast,14,19,Woman,Right,
17,6,1,0.9342156000002433,['n'],1,right,['e'],1,0.4224787999992259,0.4,1,0,AccFast,14,19,Woman,Right,
18,6,1,1.0337945000010222,['c'],1,left,['e'],1,0.41476669999974547,0.4,1,0,AccFast,14,19,Woman,Right,
19,6,1,0.6847933000008197,['c'],1,left,['e'],1,0.4210417000012967,0.2,1,0,AccFast,14,19,Woman,Right,
20,6,1,0.8526691000006394,['c'],0,right,['e'],1,0.3405569000005926,0.1,0,0,AccFast,14,19,Woman,Right,
21,6,1,1.0333910000008473,['n'],0,left,['u'],0,0.5763004000000365,0.1,1,0,AccFast,14,19,Woman,Right,
22,6,1,0.7342196999998123,['n'],1,right,['u'],0,3.3906959000014467,0.1,0,0,AccFast,14,19,Woman,Right,
23,6,1,0.6833859999987908,['n'],1,right,['e'],1,0.5427382000016223,0.4,1,0,AccFast,14,19,Woman,Right,
24,6,1,0.8513246999991679,['n'],1,right,['u'],0,0.47384059999967576,0.2,0,0,AccFast,14,19,Woman,Right,
25,6,1,0.7677803000005952,['c'],1,left,['e'],1,0.4908390000000509,0.2,1,0,AccFast,14,19,Woman,Right,
26,6,1,0.7674105000005511,['n'],1,right,['u'],0,0.5391546000009839,0.1,0,0,AccFast,14,19,Woman,Right,
27,6,1,0.6163587000010011,['c'],1,left,['e'],1,0.3529853000000003,0.4,1,0,AccFast,14,19,Woman,Right,
28,6,1,0.7003853999995044,['c'],1,left,['e'],1,0.26450740000109363,0.2,1,0,AccFast,14,19,Woman,Right,
29,6,1,0.751151899999968,['n'],1,right,['e'],1,0.24227740000060294,0.2,1,0,AccFast,14,19,Woman,Right,
30,6,1,0.7679256000010355,['n'],0,left,['u'],0,0.6518514999988838,0.2,1,0,AccFast,14,19,Woman,Right,
31,6,1,0.8515843999994104,['c'],1,left,['e'],1,0.30612569999902917,0.4,1,0,AccFast,14,19,Woman,Right,
32,6,1,0.6504788999991433,['n'],1,right,['u'],0,0.3833518000010372,0.4,0,0,AccFast,14,19,Woman,Right,
33,6,1,0.9843965000000026,['c'],1,left,['e'],1,0.41014179999910994,0.4,1,0,AccFast,14,19,Woman,Right,
34,6,1,0.9171046999999817,['n'],1,right,['e'],1,0.664221400000315,0.2,1,0,AccFast,14,19,Woman,Right,
35,6,1,0.699278800000684,['c'],1,left,['e'],1,0.4849601999994775,0.1,1,0,AccFast,14,19,Woman,Right,
36,6,1,0.9675939000007929,['n'],1,right,['u'],0,0.4443645999999717,0.4,0,0,AccFast,14,19,Woman,Right,
37,6,1,0.9675174000003608,['c'],0,right,['u'],0,0.9025223999997252,0.2,1,0,AccFast,14,19,Woman,Right,
38,6,1,1.2513804999998683,['c'],0,right,['e'],1,0.48281110000061744,0.2,0,0,AccFast,14,19,Woman,Right,
39,6,1,1.5682295999995404,['c'],1,left,['u'],0,1.0432266000007075,0.1,0,0,AccFast,14,19,Woman,Right,
40,6,1,0.8346375999990414,['c'],1,left,['e'],1,0.5231182999996236,0.2,1,0,AccFast,14,19,Woman,Right,
41,6,1,0.8012094999994588,['c'],1,left,['e'],1,0.8407260000003589,0.1,1,0,AccFast,14,19,Woman,Right,
42,6,1,0.684960399999909,['c'],1,left,['e'],1,0.6703941999985545,0.1,1,0,AccFast,14,19,Woman,Right,
43,6,1,1.7505295999999362,['c'],1,left,['e'],1,0.336171099999774,0.2,1,0,AccFast,14,19,Woman,Right,
44,6,1,0.7675478000001021,['n'],1,right,['e'],1,0.39059720000113884,0.4,1,0,AccFast,14,19,Woman,Right,
45,6,1,0.6673663000001397,['n'],1,right,['u'],0,0.5269683999995323,0.2,0,0,AccFast,14,19,Woman,Right,
46,6,1,0.8327303000005486,['n'],0,left,['e'],1,0.6847202999997535,0.2,0,0,AccFast,14,19,Woman,Right,
47,6,1,1.3012472999998863,['n'],1,right,['u'],0,0.4944316000000981,0.1,0,0,AccFast,14,19,Woman,Right,
48,6,1,0.6337703000008332,['n'],1,right,['u'],0,0.5007387999994535,0.1,0,0,AccFast,14,19,Woman,Right,
49,6,1,0.88418830000046,['c'],1,left,['e'],1,0.3674473000010039,0.4,1,0,AccFast,14,19,Woman,Right,
50,6,1,1.2332678999991913,['n'],0,left,['u'],0,0.5304687999996531,0.1,1,0,AccFast,14,19,Woman,Right,
51,6,1,0.7165354999997362,['n'],0,left,['u'],0,0.46660850000080245,0.4,1,0,AccFast,14,19,Woman,Right,
52,6,1,1.601483399999779,['n'],1,right,['u'],0,0.529786500001137,0.1,0,0,AccFast,14,19,Woman,Right,
53,6,1,1.3508570000012696,['n'],0,left,['e'],1,1.1447415000002366,0.2,0,0,AccFast,14,19,Woman,Right,
54,6,1,0.8328581000005215,['c'],1,left,['e'],1,0.5574140999997326,0.2,1,0,AccFast,14,19,Woman,Right,
55,6,1,0.5680204000000231,['c'],0,right,['e'],1,0.4504541000005702,0.1,0,0,AccFast,14,19,Woman,Right,
56,6,1,1.2504301000008127,['n'],1,right,['e'],1,0.49649930000123277,0.2,1,0,AccFast,14,19,Woman,Right,
57,6,1,1.5840829999997368,['n'],1,right,['u'],0,0.6877047999987553,0.1,0,0,AccFast,14,19,Woman,Right,
58,6,1,0.9012266999998246,['c'],1,left,['e'],1,0.40306520000012824,0.4,1,0,AccFast,14,19,Woman,Right,
59,6,1,2.084134400000039,['c'],1,left,['u'],0,0.5459829999999783,0.1,0,0,AccFast,14,19,Woman,Right,
0,7,1,1.2847828999983903,['c'],0,right,['u'],0,0.4409981000007974,0.1,1,0,AccAcc,14,19,Woman,Right,
1,7,1,0.9004970999994839,['c'],1,left,['e'],1,0.5508651999989524,0.4,1,0,AccAcc,14,19,Woman,Right,
2,7,1,0.9495888999990711,['c'],1,left,['e'],1,0.3816055999996024,0.4,1,0,AccAcc,14,19,Woman,Right,
3,7,1,0.834381000000576,['c'],1,left,['e'],1,0.3820995000005496,0.4,1,0,AccAcc,14,19,Woman,Right,
4,7,1,1.0844176999999036,['n'],1,right,['e'],1,0.7257767999999487,0.1,1,0,AccAcc,14,19,Woman,Right,
5,7,1,0.7510261999996146,['c'],1,left,['e'],1,0.3815078999996331,0.1,1,0,AccAcc,14,19,Woman,Right,
6,7,1,0.8845825999997032,['n'],1,right,['e'],1,0.49304510000001756,0.2,1,0,AccAcc,14,19,Woman,Right,
7,7,1,0.7682669999994687,['n'],1,right,['e'],1,0.33340539999881,0.4,1,0,AccAcc,14,19,Woman,Right,
8,7,1,1.1349871999991592,['c'],1,left,['e'],1,0.5011321000001772,0.4,1,0,AccAcc,14,19,Woman,Right,
9,7,1,0.7017667000000074,['n'],1,right,['e'],1,0.3596672999992734,0.4,1,0,AccAcc,14,19,Woman,Right,
10,7,1,0.7009934999987308,['n'],1,right,['e'],1,0.3518665999999939,0.4,1,0,AccAcc,14,19,Woman,Right,
11,7,1,0.7176882000003388,['n'],1,right,['e'],1,0.39155550000032235,0.4,1,0,AccAcc,14,19,Woman,Right,
12,7,1,1.2513820999993186,['n'],1,right,['u'],0,0.552529599999616,0.4,0,0,AccAcc,14,19,Woman,Right,
13,7,1,0.9507322000008571,['n'],0,left,['u'],0,0.3988632000000507,0.1,1,0,AccAcc,14,19,Woman,Right,
14,7,1,0.7675533000001451,['c'],1,left,['e'],1,0.3873946999992768,0.2,1,0,AccAcc,14,19,Woman,Right,
15,7,1,0.7849019000004773,['c'],1,left,['e'],1,0.2782678000003216,0.2,1,0,AccAcc,14,19,Woman,Right,
16,7,1,0.7669069999992644,['n'],1,right,['e'],1,3.502630800001498,0.2,1,0,AccAcc,14,19,Woman,Right,
17,7,1,0.8001688000003924,['c'],1,left,['e'],1,0.5175091000000975,0.1,1,0,AccAcc,14,19,Woman,Right,
18,7,1,0.6176886000012018,['n'],1,right,['e'],1,0.4591616999987309,0.2,1,0,AccAcc,14,19,Woman,Right,
19,7,1,1.4507453000005626,['c'],1,left,['e'],1,0.384813500000746,0.1,1,0,AccAcc,14,19,Woman,Right,
20,7,1,0.7333509000000049,['c'],1,left,['u'],0,0.5351014000007126,0.4,0,0,AccAcc,14,19,Woman,Right,
21,7,1,0.832882900000186,['c'],1,left,['u'],0,0.5154155999989598,0.4,0,0,AccAcc,14,19,Woman,Right,
22,7,1,0.6009030000004714,['n'],1,right,['e'],1,0.4077918999992107,0.2,1,0,AccAcc,14,19,Woman,Right,
23,7,1,0.6005514999997104,['n'],1,right,['e'],1,0.29005210000104853,0.1,1,0,AccAcc,14,19,Woman,Right,
24,7,1,0.6334587000001193,['n'],1,right,['u'],0,0.6399049999999988,0.1,0,0,AccAcc,14,19,Woman,Right,
25,7,1,0.6002932999999757,['c'],1,left,['e'],1,0.3048226999999315,0.4,1,0,AccAcc,14,19,Woman,Right,
26,7,1,0.6839559000000008,['n'],0,left,['u'],0,0.3637192000005598,0.1,1,0,AccAcc,14,19,Woman,Right,
27,7,1,0.6680616000012378,['c'],1,left,['e'],1,0.388705100000152,0.4,1,0,AccAcc,14,19,Woman,Right,
28,7,1,0.9513516000006348,['n'],1,right,['u'],0,0.5145816999993258,0.1,0,0,AccAcc,14,19,Woman,Right,
29,7,1,0.6845854000002873,['c'],0,right,['u'],0,0.42018670000106795,0.2,1,0,AccAcc,14,19,Woman,Right,
30,7,1,0.5839481999992131,['n'],0,left,['u'],0,0.734449700001278,0.2,1,0,AccAcc,14,19,Woman,Right,
31,7,1,0.8671493000001647,['n'],1,right,['e'],1,0.7064315999996325,0.2,1,0,AccAcc,14,19,Woman,Right,
32,7,1,0.7677600999995775,['c'],1,left,['e'],1,0.8245501000001241,0.2,1,0,AccAcc,14,19,Woman,Right,
33,7,1,0.9336799999982759,['c'],0,right,['u'],0,0.5810552000002644,0.1,1,0,AccAcc,14,19,Woman,Right,
34,7,1,0.9847714000006818,['c'],1,left,['e'],1,0.5046230999996624,0.1,1,0,AccAcc,14,19,Woman,Right,
35,7,1,0.8507499999996071,['n'],1,right,['u'],0,0.5011838999998872,0.2,0,0,AccAcc,14,19,Woman,Right,
36,7,1,1.451185500000065,['n'],0,left,['u'],0,0.44158090000019,0.2,1,0,AccAcc,14,19,Woman,Right,
37,7,1,1.1847197000006418,['c'],1,left,['e'],1,0.3800733999996737,0.2,1,0,AccAcc,14,19,Woman,Right,
38,7,1,1.0015996000001905,['n'],0,left,['u'],0,0.2623359999997774,0.4,1,0,AccAcc,14,19,Woman,Right,
39,7,1,0.701060299999881,['c'],1,left,['e'],1,0.2898699999987002,0.4,1,0,AccAcc,14,19,Woman,Right,
40,7,1,0.5514027999997779,['c'],1,left,['e'],1,0.30687140000009094,0.4,1,0,AccAcc,14,19,Woman,Right,
41,7,1,1.0680313000011665,['c'],0,right,['e'],1,0.335364299999128,0.1,0,0,AccAcc,14,19,Woman,Right,
42,7,1,0.9006651999989117,['c'],0,right,['e'],1,0.6555857000003016,0.1,0,0,AccAcc,14,19,Woman,Right,
43,7,1,0.5679309999995894,['c'],0,right,['e'],1,0.4494802000008349,0.4,0,0,AccAcc,14,19,Woman,Right,
44,7,1,2.0842446999995445,['n'],1,right,['u'],0,0.4312625999991724,0.2,0,0,AccAcc,14,19,Woman,Right,
45,7,1,1.651164400000198,['n'],1,right,['u'],0,0.33368499999960477,0.2,0,0,AccAcc,14,19,Woman,Right,
46,7,1,0.9511867000001075,['n'],0,left,['u'],0,1.21295260000079,0.1,1,0,AccAcc,14,19,Woman,Right,
47,7,1,1.7012627999993128,['n'],1,right,['e'],1,0.2823723000001337,0.1,1,0,AccAcc,14,19,Woman,Right,
48,7,1,1.5012126000001444,['n'],1,right,['u'],0,0.7743169999994279,0.1,0,0,AccAcc,14,19,Woman,Right,
49,7,1,1.4670545999997557,['n'],1,right,['e'],1,0.22272069999962696,0.2,1,0,AccAcc,14,19,Woman,Right,
50,7,1,1.1344226000001072,['n'],0,left,['e'],1,0.3470374999997148,0.4,0,0,AccAcc,14,19,Woman,Right,
51,7,1,1.0326838000000862,['c'],1,left,['e'],1,0.3270377000008011,0.2,1,0,AccAcc,14,19,Woman,Right,
52,7,1,1.0012813999983337,['n'],1,right,['e'],1,0.2919506999987789,0.2,1,0,AccAcc,14,19,Woman,Right,
53,7,1,1.1016608999998425,['n'],0,left,['e'],1,0.36678849999952945,0.1,0,0,AccAcc,14,19,Woman,Right,
54,7,1,0.8672186000003421,['n'],0,left,['e'],1,0.2720626000009361,0.4,0,0,AccAcc,14,19,Woman,Right,
55,7,1,1.0163024000012228,['n'],1,right,['e'],1,1.0229983999997785,0.4,1,0,AccAcc,14,19,Woman,Right,
56,7,1,0.7831163999999262,['c'],1,left,['e'],1,0.31397049999941373,0.2,1,0,AccAcc,14,19,Woman,Right,
57,7,1,0.9178745000008348,['n'],1,right,['u'],0,0.6662188000009337,0.2,0,0,AccAcc,14,19,Woman,Right,
58,7,1,0.684825099999216,['n'],1,right,['u'],0,0.5028970999992453,0.1,0,0,AccAcc,14,19,Woman,Right,
59,7,1,0.8180114000006142,['n'],0,left,['u'],0,0.2923743999999715,0.1,1,0,AccAcc,14,19,Woman,Right,
0,8,1,0.9677857999995467,['n'],1,right,['e'],1,0.955873499999143,0.2,1,0,FastAcc,14,19,Woman,Right,
1,8,1,0.8506450000004406,['n'],0,left,['u'],0,0.35783260000062,0.1,1,0,FastAcc,14,19,Woman,Right,
2,8,1,0.6180723999987094,['c'],1,left,['e'],1,0.33749920000082057,0.2,1,0,FastAcc,14,19,Woman,Right,
3,8,1,0.5998866999998427,['n'],1,right,['u'],0,0.3988094000014826,0.4,0,0,FastAcc,14,19,Woman,Right,
4,8,1,0.450810399999682,['c'],1,left,['e'],1,0.2865984000000026,0.4,1,0,FastAcc,14,19,Woman,Right,
5,8,1,0.7666865999999573,['n'],0,left,['e'],1,0.37589110000044457,0.1,0,0,FastAcc,14,19,Woman,Right,
6,8,1,1.0336408999992273,['n'],1,right,['e'],1,0.5134046000002854,0.4,1,0,FastAcc,14,19,Woman,Right,
7,8,1,0.8001059000016539,['c'],1,left,['e'],1,0.3990341000007902,0.2,1,0,FastAcc,14,19,Woman,Right,
8,8,1,0.5671400999999605,['c'],0,right,['e'],1,0.3146692999998777,0.2,0,0,FastAcc,14,19,Woman,Right,
9,8,1,0.45033239999975194,['c'],0,right,['e'],1,0.2544331000008242,0.2,0,0,FastAcc,14,19,Woman,Right,
10,8,1,0.5839930000001914,['c'],1,left,['e'],1,0.4152242000000115,0.1,1,0,FastAcc,14,19,Woman,Right,
11,8,1,0.44882739999957266,['c'],1,left,['e'],1,0.33642109999891545,0.1,1,0,FastAcc,14,19,Woman,Right,
12,8,1,0.9348033999995096,['n'],0,left,['e'],1,0.3029862999992474,0.4,0,0,FastAcc,14,19,Woman,Right,
13,8,1,0.5175096999992093,['n'],1,right,['e'],1,0.24023319999832893,0.2,1,0,FastAcc,14,19,Woman,Right,
14,8,1,0.5850371000015002,['n'],1,right,['e'],1,0.3058288000011089,0.4,1,0,FastAcc,14,19,Woman,Right,
15,8,1,0.5680621999999858,['c'],1,left,['e'],1,0.27433120000023337,0.4,1,0,FastAcc,14,19,Woman,Right,
16,8,1,0.6338603999993211,['n'],1,right,['e'],1,0.2717927999983658,0.2,1,0,FastAcc,14,19,Woman,Right,
17,8,1,0.5842823000002682,['n'],1,right,['e'],1,0.2560551000005944,0.4,1,0,FastAcc,14,19,Woman,Right,
18,8,1,1.184466299999258,['c'],0,right,['u'],0,0.3451500999999553,0.2,1,0,FastAcc,14,19,Woman,Right,
19,8,1,0.6171877000015229,['c'],1,left,['e'],1,0.38882829999965907,0.1,1,0,FastAcc,14,19,Woman,Right,
20,8,1,1.0660319000016898,['n'],1,right,['u'],0,0.526439000001119,0.1,0,0,FastAcc,14,19,Woman,Right,
21,8,1,0.6345853999991959,['n'],1,right,['e'],1,0.3221878000003926,0.4,1,0,FastAcc,14,19,Woman,Right,
22,8,1,0.868100300000151,['n'],0,left,['u'],0,0.9324169000010443,0.1,1,0,FastAcc,14,19,Woman,Right,
23,8,1,0.5843132000009064,['n'],1,right,['e'],1,0.29844090000005963,0.1,1,0,FastAcc,14,19,Woman,Right,
24,8,1,0.6345971999999165,['n'],0,left,['u'],0,0.9831953000011708,0.1,1,0,FastAcc,14,19,Woman,Right,
25,8,1,0.6178540000000794,['c'],1,left,['e'],1,0.521676700000171,0.4,1,0,FastAcc,14,19,Woman,Right,
26,8,1,0.7504429000000528,['c'],1,left,['u'],0,0.4093050999999832,0.1,0,0,FastAcc,14,19,Woman,Right,
27,8,1,0.9176033000003372,['n'],0,left,['u'],0,0.9830691999995906,0.4,1,0,FastAcc,14,19,Woman,Right,
28,8,1,0.7346563000010065,['n'],1,right,['e'],1,0.4209774999999354,0.4,1,0,FastAcc,14,19,Woman,Right,
29,8,1,0.6007365999994363,['c'],1,left,['e'],1,0.31828979999954754,0.4,1,0,FastAcc,14,19,Woman,Right,
30,8,1,0.818229300000894,['n'],0,left,['u'],0,0.643495600001188,0.2,1,0,FastAcc,14,19,Woman,Right,
31,8,1,0.9342759000010119,['n'],0,left,['u'],0,0.8711604000000079,0.2,1,0,FastAcc,14,19,Woman,Right,
32,8,1,0.6179315000008501,['n'],1,right,['e'],1,0.5582133999996586,0.4,1,0,FastAcc,14,19,Woman,Right,
33,8,1,0.5844863000002078,['n'],1,right,['e'],1,0.2913081000006059,0.4,1,0,FastAcc,14,19,Woman,Right,
34,8,1,0.8669140999991214,['n'],0,left,['u'],0,0.45629080000071554,0.1,1,0,FastAcc,14,19,Woman,Right,
35,8,1,0.865916599999764,['n'],1,right,['e'],1,0.29407499999979336,0.1,1,0,FastAcc,14,19,Woman,Right,
36,8,1,0.818476999998893,['n'],1,right,['e'],1,0.2995122000011179,0.4,1,0,FastAcc,14,19,Woman,Right,
37,8,1,0.8342517000000953,['c'],1,left,['e'],1,0.32075629999962985,0.4,1,0,FastAcc,14,19,Woman,Right,
38,8,1,0.5505119999997987,['c'],1,left,['u'],0,0.4800563000007969,0.1,0,0,FastAcc,14,19,Woman,Right,
39,8,1,0.6011938999999984,['n'],1,right,['u'],0,0.4872090000008029,0.1,0,0,FastAcc,14,19,Woman,Right,
40,8,1,0.6680505000003905,['n'],1,right,['u'],0,0.3634920999993483,0.1,0,0,FastAcc,14,19,Woman,Right,
41,8,1,0.5182495000008203,['n'],1,right,['u'],0,0.3144374000003154,0.2,0,0,FastAcc,14,19,Woman,Right,
42,8,1,0.5010812000000442,['c'],0,right,['u'],0,0.5721733999998833,0.1,1,0,FastAcc,14,19,Woman,Right,
43,8,1,0.733232800001133,['n'],1,right,['u'],0,0.36306080000031216,0.1,0,0,FastAcc,14,19,Woman,Right,
44,8,1,0.5826200999999855,['n'],0,left,['u'],0,0.3761596999993344,0.2,1,0,FastAcc,14,19,Woman,Right,
45,8,1,0.7005372000003263,['n'],1,right,['e'],1,0.846508200000244,0.4,1,0,FastAcc,14,19,Woman,Right,
46,8,1,0.6011794000005466,['n'],0,left,['u'],0,0.39089919999969425,0.1,1,0,FastAcc,14,19,Woman,Right,
47,8,1,0.5181857999996282,['n'],0,left,['u'],0,0.46917410000060045,0.2,1,0,FastAcc,14,19,Woman,Right,
48,8,1,0.5837986000005913,['n'],1,right,['u'],0,0.34945499999957974,0.4,0,0,FastAcc,14,19,Woman,Right,
49,8,1,1.0832219000003533,['n'],1,right,['u'],0,0.4392102000001614,0.2,0,0,FastAcc,14,19,Woman,Right,
50,8,1,0.7010984999997163,['c'],1,left,['e'],1,0.33149629999934405,0.4,1,0,FastAcc,14,19,Woman,Right,
51,8,1,0.5680644999993092,['n'],0,left,['u'],0,0.3458798999999999,0.2,1,0,FastAcc,14,19,Woman,Right,
52,8,1,0.6159802000001946,['n'],1,right,['e'],1,0.34199509999962174,0.2,1,0,FastAcc,14,19,Woman,Right,
53,8,1,0.48502989999906276,['n'],0,left,['u'],0,0.6950481000003492,0.1,1,0,FastAcc,14,19,Woman,Right,
54,8,1,1.051195899999584,['c'],1,left,['e'],1,0.4514705999990838,0.1,1,0,FastAcc,14,19,Woman,Right,
55,8,1,0.5349418000005244,['c'],1,left,['e'],1,0.3664468000006309,0.2,1,0,FastAcc,14,19,Woman,Right,
56,8,1,0.5172233000012056,['n'],1,right,['u'],0,0.7176951000001281,0.2,0,0,FastAcc,14,19,Woman,Right,
57,8,1,0.783943200000067,['c'],0,right,['u'],0,0.547822399999859,0.2,1,0,FastAcc,14,19,Woman,Right,
58,8,1,0.7344938000005641,['n'],1,right,['e'],1,0.3230463999989297,0.4,1,0,FastAcc,14,19,Woman,Right,
59,8,1,1.1177664999995613,['c'],1,left,['e'],1,0.3160592000003817,0.2,1,0,FastAcc,14,19,Woman,Right,
0,9,1,1.0005208999991737,['c'],1,left,['e'],1,0.30415259999972477,0.4,1,0,FastFast,14,19,Woman,Right,
1,9,1,0.751324900000327,['n'],1,right,['e'],1,0.34520879999945464,0.2,1,0,FastFast,14,19,Woman,Right,
2,9,1,0.8179290999996738,['c'],1,left,['e'],1,0.3009002999988297,0.4,1,0,FastFast,14,19,Woman,Right,
3,9,1,0.6510004000010667,['c'],1,left,['u'],0,0.3771398999997473,0.2,0,0,FastFast,14,19,Woman,Right,
4,9,1,0.5675953999998455,['n'],1,right,['e'],1,0.32610989999921003,0.2,1,0,FastFast,14,19,Woman,Right,
5,9,1,0.5849124999986088,['n'],1,right,['u'],0,0.5645461999993131,0.2,0,0,FastFast,14,19,Woman,Right,
6,9,1,0.8680395000010321,['c'],1,left,['e'],1,0.33345009999902686,0.2,1,0,FastFast,14,19,Woman,Right,
7,9,1,0.6680488000001787,['n'],1,right,['e'],1,0.632693499999732,0.1,1,0,FastFast,14,19,Woman,Right,
8,9,1,0.7332231999989745,['n'],1,right,['u'],0,0.5476166000007652,0.1,0,0,FastFast,14,19,Woman,Right,
9,9,1,0.6347514999997657,['c'],1,left,['e'],1,0.5508339000007254,0.4,1,0,FastFast,14,19,Woman,Right,
10,9,1,0.68471160000081,['n'],1,right,['u'],0,0.5515218000000459,0.2,0,0,FastFast,14,19,Woman,Right,
11,9,1,0.7013127000009263,['n'],1,right,['u'],0,0.26384479999978794,0.4,0,0,FastFast,14,19,Woman,Right,
12,9,1,0.7343892999997479,['c'],1,left,['e'],1,0.4022142999983771,0.2,1,0,FastFast,14,19,Woman,Right,
13,9,1,0.7019166000009136,['n'],1,right,['u'],0,0.8084483000002365,0.1,0,0,FastFast,14,19,Woman,Right,
14,9,1,0.6348300999998173,['n'],1,right,['e'],1,0.38555709999855026,0.4,1,0,FastFast,14,19,Woman,Right,
15,9,1,1.1344288000000233,['c'],1,left,['e'],1,0.37528050000037183,0.4,1,0,FastFast,14,19,Woman,Right,
16,9,1,0.6838982999997825,['c'],1,left,['e'],1,0.35151240000050166,0.1,1,0,FastFast,14,19,Woman,Right,
17,9,1,0.8175370000008115,['c'],0,right,['u'],0,0.3394910999995773,0.1,1,0,FastFast,14,19,Woman,Right,
18,9,1,0.5683165999998891,['c'],1,left,['u'],0,0.46560279999903287,0.1,0,0,FastFast,14,19,Woman,Right,
19,9,1,1.0347517999998672,['n'],0,left,['e'],1,0.26507800000035786,0.1,0,0,FastFast,14,19,Woman,Right,
20,9,1,1.00123209999947,['c'],1,left,['e'],1,0.2795239000006404,0.2,1,0,FastFast,14,19,Woman,Right,
21,9,1,1.1344916999987618,['n'],1,right,['e'],1,0.33726349999960803,0.2,1,0,FastFast,14,19,Woman,Right,
22,9,1,0.7512024999996356,['c'],1,left,['e'],1,0.34435060000032536,0.2,1,0,FastFast,14,19,Woman,Right,
23,9,1,0.8515411999997013,['n'],1,right,['u'],0,0.3161252999998396,0.1,0,0,FastFast,14,19,Woman,Right,
24,9,1,0.699411899999177,['n'],0,left,['u'],0,0.32571720000123605,0.2,1,0,FastFast,14,19,Woman,Right,
25,9,1,0.6022797000005085,['c'],1,left,['e'],1,0.3550278000002436,0.4,1,0,FastFast,14,19,Woman,Right,
26,9,1,0.6181520999998611,['n'],1,right,['u'],0,0.25419890000011947,0.4,0,0,FastFast,14,19,Woman,Right,
27,9,1,0.600675699999556,['n'],1,right,['u'],0,0.3024939999995695,0.4,0,0,FastFast,14,19,Woman,Right,
28,9,1,0.850932899998952,['n'],1,right,['u'],0,0.2589527000000089,0.1,0,0,FastFast,14,19,Woman,Right,
29,9,1,1.7351478000000498,['n'],1,right,['u'],0,0.3588325000000623,0.2,0,0,FastFast,14,19,Woman,Right,
30,9,1,0.8679243999995379,['n'],0,left,['u'],0,0.295654999999897,0.1,1,0,FastFast,14,19,Woman,Right,
31,9,1,0.4187044000009337,['c'],1,left,['e'],1,0.525515200000882,0.1,1,0,FastFast,14,19,Woman,Right,
32,9,1,0.5178815999988728,['c'],1,left,['e'],1,0.27825599999960104,0.4,1,0,FastFast,14,19,Woman,Right,
33,9,1,0.7680590999989363,['n'],1,right,['e'],1,0.41471420000016224,0.4,1,0,FastFast,14,19,Woman,Right,
34,9,1,0.9840942999999243,['c'],1,left,['e'],1,0.39376979999906325,0.4,1,0,FastFast,14,19,Woman,Right,
35,9,1,0.6677309999995487,['c'],1,left,['e'],1,0.32135740000012447,0.1,1,0,FastFast,14,19,Woman,Right,
36,9,1,1.3016478999998071,['n'],1,right,['u'],0,0.27499490000082005,0.1,0,0,FastFast,14,19,Woman,Right,
37,9,1,0.967953999999736,['c'],0,right,['u'],0,0.2761012999999366,0.4,1,0,FastFast,14,19,Woman,Right,
38,9,1,0.6011581000002479,['n'],0,left,['e'],1,0.3397034000008716,0.2,0,0,FastFast,14,19,Woman,Right,
39,9,1,0.751397400001224,['n'],1,right,['e'],1,0.34672890000001644,0.2,1,0,FastFast,14,19,Woman,Right,
40,9,1,0.8841415999995661,['c'],1,left,['e'],1,0.3316259999992326,0.4,1,0,FastFast,14,19,Woman,Right,
41,9,1,0.6346348999995826,['c'],0,right,['e'],1,0.35926090000066324,0.2,0,0,FastFast,14,19,Woman,Right,
42,9,1,0.6678131000007852,['c'],0,right,['e'],1,0.38542319999942265,0.1,0,0,FastFast,14,19,Woman,Right,
43,9,1,0.783365600000252,['n'],1,right,['e'],1,0.3408433000004152,0.1,1,0,FastFast,14,19,Woman,Right,
44,9,1,0.6007341000004089,['n'],0,left,['e'],1,0.29012450000118406,0.4,0,0,FastFast,14,19,Woman,Right,
45,9,1,0.8014087999999902,['n'],1,right,['u'],0,0.5686799000013707,0.4,0,0,FastFast,14,19,Woman,Right,
46,9,1,0.5515653999991628,['n'],0,left,['e'],1,0.4944914999996399,0.1,0,0,FastFast,14,19,Woman,Right,
47,9,1,1.1508986999997433,['c'],1,left,['e'],1,0.4154084999991028,0.2,1,0,FastFast,14,19,Woman,Right,
48,9,1,0.5677962999998272,['n'],1,right,['e'],1,0.26647029999912775,0.4,1,0,FastFast,14,19,Woman,Right,
49,9,1,0.6348852000010083,['n'],0,left,['u'],0,0.6006307000006927,0.1,1,0,FastFast,14,19,Woman,Right,
50,9,1,0.5829192000001058,['n'],0,left,['u'],0,0.4281912000005832,0.2,1,0,FastFast,14,19,Woman,Right,
51,9,1,0.6344953000007081,['n'],1,right,['e'],1,0.35619059999953606,0.2,1,0,FastFast,14,19,Woman,Right,
52,9,1,0.6845252999992226,['n'],1,right,['e'],1,0.3970253000006778,0.1,1,0,FastFast,14,19,Woman,Right,
53,9,1,0.5511962999989919,['n'],1,right,['e'],1,0.2812862999999197,0.2,1,0,FastFast,14,19,Woman,Right,
54,9,1,0.7515035999986139,['c'],1,left,['e'],1,0.33831410000129836,0.1,1,0,FastFast,14,19,Woman,Right,
55,9,1,0.900334699999803,['n'],1,right,['u'],0,0.307391500000449,0.2,0,0,FastFast,14,19,Woman,Right,
56,9,1,0.7178938999986713,['c'],1,left,['u'],0,0.4130844999999681,0.4,0,0,FastFast,14,19,Woman,Right,
57,9,1,0.7500462000007246,['n'],0,left,['u'],0,0.2727818000003026,0.1,1,0,FastFast,14,19,Woman,Right,
58,9,1,0.7670541000006779,['c'],1,left,['u'],0,0.2981608000009146,0.4,0,0,FastFast,14,19,Woman,Right,
59,9,1,0.6830303000006097,['n'],1,right,['u'],0,0.27701619999970717,0.4,0,0,FastFast,14,19,Woman,Right,
0,10,1,0.6175210000001243,['n'],0,left,['u'],0,0.34357269999964046,0.2,1,0,AccFast,14,19,Woman,Right,
1,10,1,0.5018264000009367,['n'],1,right,['u'],0,0.3605449000006047,0.2,0,0,AccFast,14,19,Woman,Right,
2,10,1,0.6170525000015914,['n'],0,left,['u'],0,0.29229470000063884,0.1,1,0,AccFast,14,19,Woman,Right,
3,10,1,0.733058699999674,['c'],1,left,['e'],1,0.3498734999993758,0.1,1,0,AccFast,14,19,Woman,Right,
4,10,1,0.5013132999993104,['c'],0,right,['u'],0,1.6780026999986148,0.2,1,0,AccFast,14,19,Woman,Right,
5,10,1,1.267614999998841,['c'],1,left,['e'],1,0.33052889999999024,0.4,1,0,AccFast,14,19,Woman,Right,
6,10,1,0.6843024999998306,['c'],1,left,['e'],1,2.9004910999992717,0.2,1,0,AccFast,14,19,Woman,Right,
7,10,1,0.9170546000004833,['n'],1,right,['e'],1,0.6703899999993155,0.4,1,0,AccFast,14,19,Woman,Right,
8,10,1,1.0004783999993379,['c'],1,left,['e'],1,0.39793420000023616,0.1,1,0,AccFast,14,19,Woman,Right,
9,10,1,0.7512205999992148,['c'],1,left,['e'],1,0.3703994000006787,0.1,1,0,AccFast,14,19,Woman,Right,
10,10,1,0.7010710000013205,['c'],0,right,['e'],1,0.33035949999975855,0.2,0,0,AccFast,14,19,Woman,Right,
11,10,1,0.8341060000002471,['c'],0,right,['e'],1,0.3816538999999466,0.1,0,0,AccFast,14,19,Woman,Right,
12,10,1,0.7680858999992779,['n'],1,right,['e'],1,0.2740293999995629,0.4,1,0,AccFast,14,19,Woman,Right,
13,10,1,0.6999833000008948,['c'],1,left,['e'],1,0.4620825000001787,0.2,1,0,AccFast,14,19,Woman,Right,
14,10,1,1.468085799999244,['n'],1,right,['u'],0,0.5147372000010364,0.1,0,0,AccFast,14,19,Woman,Right,
15,10,1,0.4848546000011993,['c'],0,right,['u'],0,0.6372605000015028,0.4,1,0,AccFast,14,19,Woman,Right,
16,10,1,0.8679311000014422,['n'],1,right,['u'],0,0.5636348999996699,0.1,0,0,AccFast,14,19,Woman,Right,
17,10,1,0.6511755999999878,['c'],1,left,['e'],1,0.32522099999914644,0.2,1,0,AccFast,14,19,Woman,Right,
18,10,1,1.0333400999988953,['n'],1,right,['e'],1,0.25802499999917927,0.2,1,0,AccFast,14,19,Woman,Right,
19,10,1,1.08460709999963,['n'],0,left,['u'],0,0.4953525000000809,0.1,1,0,AccFast,14,19,Woman,Right,
20,10,1,0.85108339999897,['c'],0,right,['u'],0,0.5714890999988711,0.2,1,0,AccFast,14,19,Woman,Right,
21,10,1,0.817617099999552,['c'],0,right,['e'],1,0.45483380000041507,0.4,0,0,AccFast,14,19,Woman,Right,
22,10,1,1.0170642999983102,['n'],0,left,['u'],0,0.398293599999306,0.1,1,0,AccFast,14,19,Woman,Right,
23,10,1,0.6344785000001139,['c'],0,right,['u'],0,0.6313604999995732,0.1,1,0,AccFast,14,19,Woman,Right,
24,10,1,2.218156500000987,['n'],0,left,['u'],0,0.5678717999999208,0.2,1,0,AccFast,14,19,Woman,Right,
25,10,1,0.8013544999994338,['c'],0,right,['u'],0,0.9157766999996966,0.1,1,0,AccFast,14,19,Woman,Right,
26,10,1,0.9843677000008029,['n'],0,left,['e'],1,0.7940947999995842,0.1,0,0,AccFast,14,19,Woman,Right,
27,10,1,1.1171352000001207,['n'],1,right,['e'],1,0.43317449999995006,0.1,1,0,AccFast,14,19,Woman,Right,
28,10,1,0.8666567000000214,['c'],1,left,['e'],1,0.3193344999999681,0.4,1,0,AccFast,14,19,Woman,Right,
29,10,1,0.6504956000007951,['n'],0,left,['e'],1,0.39445750000049884,0.1,0,0,AccFast,14,19,Woman,Right,
30,10,1,1.0335476999989623,['n'],0,left,['e'],1,0.3574449999996432,0.4,0,0,AccFast,14,19,Woman,Right,
31,10,1,0.6669932000004337,['c'],0,right,['u'],0,0.8944120999985898,0.4,1,0,AccFast,14,19,Woman,Right,
32,10,1,0.9677100999997492,['n'],1,right,['e'],1,0.27838510000037786,0.4,1,0,AccFast,14,19,Woman,Right,
33,10,1,0.7834247000009782,['n'],1,right,['e'],1,0.41455430000132765,0.2,1,0,AccFast,14,19,Woman,Right,
34,10,1,1.0674023999999918,['n'],1,right,['e'],1,0.4050093999994715,0.1,1,0,AccFast,14,19,Woman,Right,
35,10,1,1.2512073000016244,['c'],1,left,['e'],1,0.3414675999993051,0.2,1,0,AccFast,14,19,Woman,Right,
36,10,1,1.718291400000453,['n'],0,left,['u'],0,0.6617461000005278,0.4,1,0,AccFast,14,19,Woman,Right,
37,10,1,0.917286800000511,['n'],1,right,['u'],0,0.5849180000004708,0.1,0,0,AccFast,14,19,Woman,Right,
38,10,1,0.667645999999877,['c'],1,left,['e'],1,0.36114959999940766,0.4,1,0,AccFast,14,19,Woman,Right,
39,10,1,0.550587200001246,['n'],0,left,['u'],0,0.31147059999966586,0.1,1,0,AccFast,14,19,Woman,Right,
40,10,1,0.4520334000008006,['n'],0,left,['u'],0,0.34783319999951345,0.4,1,0,AccFast,14,19,Woman,Right,
41,10,1,0.41743569999925967,['n'],0,left,['u'],0,0.4313884000002872,0.4,1,0,AccFast,14,19,Woman,Right,
42,10,1,0.5181435999984387,['c'],1,left,['u'],0,0.2518136999988201,0.2,0,0,AccFast,14,19,Woman,Right,
43,10,1,0.3347825000000739,['c'],0,right,['e'],1,0.31056769999850076,0.4,0,0,AccFast,14,19,Woman,Right,
44,10,1,0.5016847000006237,['n'],1,right,['u'],0,0.3130060000003141,0.4,0,0,AccFast,14,19,Woman,Right,
45,10,1,0.33451789999890025,['n'],1,right,['u'],0,0.28932130000066536,0.2,0,0,AccFast,14,19,Woman,Right,
46,10,1,0.43365839999933087,['n'],1,right,['u'],0,0.3115391000010277,0.4,0,0,AccFast,14,19,Woman,Right,
47,10,1,0.565978399999949,['n'],0,left,['u'],0,0.32802560000163794,0.2,1,0,AccFast,14,19,Woman,Right,
48,10,1,0.4682573999998567,['n'],0,left,['u'],0,0.36137479999888455,0.4,1,0,AccFast,14,19,Woman,Right,
49,10,1,0.5342436000009911,['c'],0,right,['u'],0,0.32772660000046017,0.1,1,0,AccFast,14,19,Woman,Right,
50,10,1,0.38395909999962896,['c'],0,right,['u'],0,0.3181342999996559,0.4,1,0,AccFast,14,19,Woman,Right,
51,10,1,0.38340960000095947,['c'],1,left,['e'],1,0.27620719999868015,0.1,1,0,AccFast,14,19,Woman,Right,
52,10,1,0.3850462000009429,['c'],1,left,['u'],0,0.2846508000002359,0.2,0,0,AccFast,14,19,Woman,Right,
53,10,1,0.5341289999996661,['n'],0,left,['e'],1,0.22235080000064045,0.2,0,0,AccFast,14,19,Woman,Right,
54,10,1,0.40174369999840565,['c'],0,right,['u'],0,0.31181629999991856,0.2,1,0,AccFast,14,19,Woman,Right,
55,10,1,0.38468400000056135,['n'],0,left,['e'],1,0.3340485999997327,0.4,0,0,AccFast,14,19,Woman,Right,
56,10,1,0.8843527999997605,['n'],1,right,['u'],0,0.35176750000027823,0.4,0,0,AccFast,14,19,Woman,Right,
57,10,1,0.4177787000007811,['n'],1,right,['u'],0,0.25931369999852905,0.1,0,0,AccFast,14,19,Woman,Right,
58,10,1,0.6182604000005085,['n'],0,left,['u'],0,0.3230142000011256,0.2,1,0,AccFast,14,19,Woman,Right,
59,10,1,0.6012695999997959,['n'],1,right,['u'],0,0.5126849999996921,0.2,0,0,AccFast,14,19,Woman,Right,
0,11,1,0.600985999999466,['n'],1,right,['e'],1,0.28837340000063705,0.1,1,0,AccAcc,14,19,Woman,Right,
1,11,1,0.40108909999980824,['n'],0,left,['u'],0,0.29526870000154304,0.1,1,0,AccAcc,14,19,Woman,Right,
2,11,1,0.2511986999998044,['n'],1,right,['e'],1,0.17919140000049083,0.2,1,0,AccAcc,14,19,Woman,Right,
3,11,1,0.4004189999996015,['n'],1,right,['u'],0,0.28632849999848986,0.1,0,0,AccAcc,14,19,Woman,Right,
4,11,1,0.468041500000254,['n'],1,right,['u'],0,0.3390283000007912,0.1,0,0,AccAcc,14,19,Woman,Right,
5,11,1,0.43463380000139296,['n'],1,right,['u'],0,0.5022519000012835,0.2,0,0,AccAcc,14,19,Woman,Right,
6,11,1,0.41841720000047644,['n'],0,left,['e'],1,0.2437781000007817,0.1,0,0,AccAcc,14,19,Woman,Right,
7,11,1,0.5179881000003661,['n'],1,right,['u'],0,0.34407680000003893,0.2,0,0,AccAcc,14,19,Woman,Right,
8,11,1,0.8026509999999689,['c'],1,left,['e'],1,1.0211670999997295,0.4,1,0,AccAcc,14,19,Woman,Right,
9,11,1,0.5178878999995504,['n'],0,left,['u'],0,0.37034250000033353,0.1,1,0,AccAcc,14,19,Woman,Right,
10,11,1,0.4345978000001196,['n'],1,right,['u'],0,0.42049579999911657,0.4,0,0,AccAcc,14,19,Woman,Right,
11,11,1,0.4176682000015717,['n'],0,left,['e'],1,0.21340179999970132,0.2,0,0,AccAcc,14,19,Woman,Right,
12,11,1,0.45094670000071346,['c'],1,left,['e'],1,0.4611557999996876,0.1,1,0,AccAcc,14,19,Woman,Right,
13,11,1,0.38379560000066704,['c'],1,left,['u'],0,0.3188645999998698,0.4,0,0,AccAcc,14,19,Woman,Right,
14,11,1,0.4017497999993793,['c'],0,right,['e'],1,0.3556442999997671,0.2,0,0,AccAcc,14,19,Woman,Right,
15,11,1,0.35084879999885743,['n'],1,right,['u'],0,0.28285700000014913,0.2,0,0,AccAcc,14,19,Woman,Right,
16,11,1,0.7683145999999397,['c'],1,left,['e'],1,0.2580768999996508,0.1,1,0,AccAcc,14,19,Woman,Right,
17,11,1,0.3844925000012154,['c'],0,right,['e'],1,0.2830649000006815,0.4,0,0,AccAcc,14,19,Woman,Right,
18,11,1,0.8012551000010717,['n'],1,right,['u'],0,0.5305114000002504,0.4,0,0,AccAcc,14,19,Woman,Right,
19,11,1,0.33463949999895704,['c'],1,left,['u'],0,0.3057814999992843,0.2,0,0,AccAcc,14,19,Woman,Right,
20,11,1,0.4344760000003589,['n'],1,right,['u'],0,0.2786739999992278,0.4,0,0,AccAcc,14,19,Woman,Right,
21,11,1,0.5346316999984992,['n'],0,left,['u'],0,0.5524789999999484,0.4,1,0,AccAcc,14,19,Woman,Right,
22,11,1,0.566504200000054,['n'],0,left,['e'],1,0.3027122000003146,0.2,0,0,AccAcc,14,19,Woman,Right,
23,11,1,0.3685205000001588,['n'],1,right,['u'],0,0.3737214999982825,0.2,0,0,AccAcc,14,19,Woman,Right,
24,11,1,0.4684504000015295,['n'],1,right,['u'],0,0.24662379999972472,0.1,0,0,AccAcc,14,19,Woman,Right,
25,11,1,0.6836750999991636,['n'],0,left,['u'],0,0.2915742000004684,0.4,1,0,AccAcc,14,19,Woman,Right,
26,11,1,0.33480000000054133,['c'],0,right,['u'],0,0.25321900000017195,0.1,1,0,AccAcc,14,19,Woman,Right,
27,11,1,0.2660070000001724,['n'],0,left,['e'],1,0.12370469999950728,0.2,0,0,AccAcc,14,19,Woman,Right,
28,11,1,0.30019220000031055,['c'],1,left,['u'],0,0.2690376999998989,0.4,0,0,AccAcc,14,19,Woman,Right,
29,11,1,0.45167319999927713,['n'],0,left,['e'],1,0.22599699999955192,0.1,0,0,AccAcc,14,19,Woman,Right,
30,11,1,0.6166647999998531,['n'],0,left,['e'],1,0.19534329999987676,0.4,0,0,AccAcc,14,19,Woman,Right,
31,11,1,0.5337564000001294,['c'],1,left,['e'],1,0.23173700000006647,0.4,1,0,AccAcc,14,19,Woman,Right,
32,11,1,0.4669467000003351,['c'],0,right,['e'],1,0.30248000000028696,0.2,0,0,AccAcc,14,19,Woman,Right,
33,11,1,0.3518781000002491,['c'],0,right,['u'],0,0.27855169999929785,0.1,1,0,AccAcc,14,19,Woman,Right,
34,11,1,0.5663861000011821,['n'],1,right,['e'],1,0.1988205999987258,0.2,1,0,AccAcc,14,19,Woman,Right,
35,11,1,0.5352344000002631,['n'],0,left,['e'],1,0.36379540000052657,0.4,0,0,AccAcc,14,19,Woman,Right,
36,11,1,0.38407899999947404,['c'],1,left,['u'],0,0.20808020000004035,0.2,0,0,AccAcc,14,19,Woman,Right,
37,11,1,0.4014127999998891,['n'],1,right,['e'],1,0.2342716000002838,0.4,1,0,AccAcc,14,19,Woman,Right,
38,11,1,0.6174290000017209,['c'],0,right,['u'],0,0.282712399999582,0.1,1,0,AccAcc,14,19,Woman,Right,
39,11,1,0.4845461000004434,['n'],0,left,['e'],1,0.2541713999999047,0.2,0,0,AccAcc,14,19,Woman,Right,
40,11,1,0.90023839999958,['n'],1,right,['u'],0,0.3706007000000682,0.4,0,0,AccAcc,14,19,Woman,Right,
41,11,1,0.9669520000006742,['n'],0,left,['e'],1,0.20750269999916782,0.2,0,0,AccAcc,14,19,Woman,Right,
42,11,1,0.6009954000001017,['c'],1,left,['e'],1,0.2581687999991118,0.2,1,0,AccAcc,14,19,Woman,Right,
43,11,1,0.71758729999965,['n'],1,right,['e'],1,0.3336831999986316,0.2,1,0,AccAcc,14,19,Woman,Right,
44,11,1,0.5844493999993574,['n'],1,right,['e'],1,0.3952195000001666,0.1,1,0,AccAcc,14,19,Woman,Right,
45,11,1,0.7840312999996968,['n'],1,right,['u'],0,0.6541932000000088,0.1,0,0,AccAcc,14,19,Woman,Right,
46,11,1,0.8178951000008965,['c'],1,left,['e'],1,0.32599780000055034,0.1,1,0,AccAcc,14,19,Woman,Right,
47,11,1,0.43481640000027255,['n'],0,left,['u'],0,0.5702168999996502,0.1,1,0,AccAcc,14,19,Woman,Right,
48,11,1,0.6999706000005972,['n'],0,left,['e'],1,0.49092930000006163,0.1,0,0,AccAcc,14,19,Woman,Right,
49,11,1,0.5184310999993613,['n'],0,left,['e'],1,0.29204589999972086,0.1,0,0,AccAcc,14,19,Woman,Right,
50,11,1,0.568340800000442,['n'],1,right,['e'],1,0.27640360000077635,0.2,1,0,AccAcc,14,19,Woman,Right,
51,11,1,0.8839712999997573,['c'],1,left,['e'],1,0.29694130000098085,0.2,1,0,AccAcc,14,19,Woman,Right,
52,11,1,0.7161393000005774,['n'],1,right,['e'],1,0.27536030000010214,0.4,1,0,AccAcc,14,19,Woman,Right,
53,11,1,0.7177324999993289,['n'],1,right,['e'],1,0.3653575999996974,0.4,1,0,AccAcc,14,19,Woman,Right,
54,11,1,1.0344312999986869,['n'],0,left,['e'],1,0.21571210000001884,0.2,0,0,AccAcc,14,19,Woman,Right,
55,11,1,0.4668319000011252,['n'],1,right,['u'],0,0.2228056000003562,0.4,0,0,AccAcc,14,19,Woman,Right,
56,11,1,0.4841680000008637,['c'],0,right,['u'],0,0.27701840000008815,0.4,1,0,AccAcc,14,19,Woman,Right,
57,11,1,0.451829200001157,['n'],1,right,['u'],0,0.25055390000125044,0.4,0,0,AccAcc,14,19,Woman,Right,
58,11,1,0.9179660999998305,['c'],1,left,['u'],0,0.2704961999988882,0.4,0,0,AccAcc,14,19,Woman,Right,
59,11,1,1.4847456999996211,['n'],0,left,['e'],1,0.31475919999866164,0.1,0,0,AccAcc,14,19,Woman,Right,
0,12,1,0.5681116999985534,['n'],0,left,['u'],0,0.24511399999937566,0.1,1,0,FastAcc,14,19,Woman,Right,
1,12,1,0.3844833999992261,['n'],0,left,['u'],0,0.2378086999997322,0.2,1,0,FastAcc,14,19,Woman,Right,
2,12,1,0.3348895999988599,['n'],1,right,['e'],1,0.1374169000009715,0.2,1,0,FastAcc,14,19,Woman,Right,
3,12,1,0.40089850000003935,['c'],1,left,['u'],0,0.24621730000035313,0.1,0,0,FastAcc,14,19,Woman,Right,
4,12,1,0.6507178000010754,['c'],1,left,['u'],0,0.22850929999913205,0.4,0,0,FastAcc,14,19,Woman,Right,
5,12,1,0.2989230999992287,['c'],0,right,['u'],0,0.22699939999984053,0.4,1,0,FastAcc,14,19,Woman,Right,
6,12,1,0.36702259999947273,['c'],1,left,['u'],0,0.2206419999984064,0.2,0,0,FastAcc,14,19,Woman,Right,
7,12,1,0.3516755999989982,['n'],1,right,['u'],0,0.3443363999995199,0.4,0,0,FastAcc,14,19,Woman,Right,
8,12,1,0.36786690000008093,['n'],0,left,['u'],0,0.15863680000074964,0.2,1,0,FastAcc,14,19,Woman,Right,
9,12,1,0.5843974999988859,['n'],1,right,['u'],0,0.4512823999993998,0.1,0,0,FastAcc,14,19,Woman,Right,
10,12,1,0.48491180000019085,['c'],1,left,['e'],1,0.2722334999998566,0.4,1,0,FastAcc,14,19,Woman,Right,
11,12,1,0.5516043999996327,['n'],0,left,['u'],0,0.35402849999991304,0.1,1,0,FastAcc,14,19,Woman,Right,
12,12,1,0.46673610000107146,['c'],0,right,['u'],0,0.2436641000003874,0.1,1,0,FastAcc,14,19,Woman,Right,
13,12,1,0.4845437000003585,['c'],1,left,['u'],0,0.2979582999996637,0.2,0,0,FastAcc,14,19,Woman,Right,
14,12,1,1.1181386999996903,['n'],0,left,['e'],1,0.4509154999996099,0.2,0,0,FastAcc,14,19,Woman,Right,
15,12,1,0.5662620000002789,['c'],0,right,['e'],1,0.4938897000010911,0.1,0,0,FastAcc,14,19,Woman,Right,
16,12,1,0.8838460999995732,['c'],1,left,['u'],0,0.42421940000167524,0.1,0,0,FastAcc,14,19,Woman,Right,
17,12,1,0.36698489999980666,['c'],1,left,['u'],0,0.2670672000003833,0.2,0,0,FastAcc,14,19,Woman,Right,
18,12,1,0.7013047999989794,['c'],1,left,['u'],0,0.26284599999962666,0.4,0,0,FastAcc,14,19,Woman,Right,
19,12,1,0.46830530000079307,['c'],0,right,['u'],0,0.28381850000005215,0.1,1,0,FastAcc,14,19,Woman,Right,
20,12,1,0.4017524000009871,['n'],1,right,['e'],1,0.17872350000106962,0.2,1,0,FastAcc,14,19,Woman,Right,
21,12,1,1.2348984999989625,['n'],0,left,['u'],0,0.33251019999988785,0.4,1,0,FastAcc,14,19,Woman,Right,
22,12,1,0.8167663000003813,['n'],1,right,['u'],0,0.30469950000042445,0.2,0,0,FastAcc,14,19,Woman,Right,
23,12,1,0.46797289999994973,['n'],1,right,['u'],0,0.29235940000035043,0.4,0,0,FastAcc,14,19,Woman,Right,
24,12,1,0.36807839999892167,['c'],1,left,['e'],1,0.3166897000010067,0.1,1,0,FastAcc,14,19,Woman,Right,
25,12,1,0.3015629000001354,['c'],0,right,['u'],0,0.47049150000020745,0.4,1,0,FastAcc,14,19,Woman,Right,
26,12,1,0.45091619999948307,['c'],1,left,['u'],0,0.24405959999967308,0.4,0,0,FastAcc,14,19,Woman,Right,
27,12,1,0.7001751999996486,['n'],0,left,['u'],0,0.22573759999977483,0.1,1,0,FastAcc,14,19,Woman,Right,
28,12,1,0.46649710000019695,['n'],0,left,['u'],0,0.2814029999990453,0.2,1,0,FastAcc,14,19,Woman,Right,
29,12,1,0.48449149999942165,['n'],1,right,['u'],0,0.2673838999999134,0.2,0,0,FastAcc,14,19,Woman,Right,
30,12,1,0.40093419999902835,['c'],1,left,['u'],0,0.25903199999993376,0.1,0,0,FastAcc,14,19,Woman,Right,
31,12,1,0.533854599998449,['c'],0,right,['e'],1,0.29541229999995267,0.2,0,0,FastAcc,14,19,Woman,Right,
32,12,1,0.4353990999989037,['c'],0,right,['u'],0,0.26769010000134585,0.1,1,0,FastAcc,14,19,Woman,Right,
33,12,1,0.5511930000011489,['c'],0,right,['u'],0,0.7814953999986756,0.2,1,0,FastAcc,14,19,Woman,Right,
34,12,1,0.4169099000009737,['n'],0,left,['u'],0,0.25566449999860197,0.2,1,0,FastAcc,14,19,Woman,Right,
35,12,1,0.6345123000010062,['n'],1,right,['u'],0,0.31867959999908635,0.2,0,0,FastAcc,14,19,Woman,Right,
36,12,1,0.317502500000046,['n'],0,left,['e'],1,0.28026370000043244,0.4,0,0,FastAcc,14,19,Woman,Right,
37,12,1,0.6005548000011913,['n'],1,right,['u'],0,2.855393899999399,0.1,0,0,FastAcc,14,19,Woman,Right,
38,12,1,0.31782360000033805,['n'],1,right,['u'],0,0.2664664999992965,0.1,0,0,FastAcc,14,19,Woman,Right,
39,12,1,0.28458150000005844,['c'],0,right,['e'],1,0.24677130000054603,0.1,0,0,FastAcc,14,19,Woman,Right,
40,12,1,0.3501362999995763,['c'],0,right,['u'],0,0.2575928999995085,0.2,1,0,FastAcc,14,19,Woman,Right,
41,12,1,0.3837554999990971,['n'],0,left,['u'],0,0.33091309999872465,0.4,1,0,FastAcc,14,19,Woman,Right,
42,12,1,0.3842367999986891,['n'],1,right,['u'],0,0.31962840000051074,0.4,0,0,FastAcc,14,19,Woman,Right,
43,12,1,0.4507599999997183,['c'],1,left,['e'],1,0.22755809999944177,0.4,1,0,FastAcc,14,19,Woman,Right,
44,12,1,0.6012035999992804,['c'],1,left,['u'],0,0.34086589999969874,0.1,0,0,FastAcc,14,19,Woman,Right,
45,12,1,0.5846381999999721,['n'],1,right,['u'],0,0.2102850999999646,0.4,0,0,FastAcc,14,19,Woman,Right,
46,12,1,0.5503104999988864,['c'],1,left,['u'],0,0.26306900000054156,0.1,0,0,FastAcc,14,19,Woman,Right,
47,12,1,0.4174590000002354,['n'],1,right,['e'],1,0.1736341000014363,0.4,1,0,FastAcc,14,19,Woman,Right,
48,12,1,1.0335500000001048,['c'],0,right,['u'],0,0.2078825999997207,0.2,1,0,FastAcc,14,19,Woman,Right,
49,12,1,0.434443399999509,['n'],1,right,['e'],1,0.21696089999932155,0.1,1,0,FastAcc,14,19,Woman,Right,
50,12,1,0.7171120999992127,['n'],0,left,['e'],1,0.3419318000014755,0.4,0,0,FastAcc,14,19,Woman,Right,
51,12,1,0.46791119999943476,['c'],0,right,['u'],0,0.280366299999514,0.4,1,0,FastAcc,14,19,Woman,Right,
52,12,1,0.4828620999996929,['n'],0,left,['e'],1,0.2532249000014417,0.2,0,0,FastAcc,14,19,Woman,Right,
53,12,1,0.6686124999996537,['n'],1,right,['u'],0,0.3136219000007259,0.4,0,0,FastAcc,14,19,Woman,Right,
54,12,1,0.33461220000026515,['c'],1,left,['u'],0,0.2578350000003411,0.4,0,0,FastAcc,14,19,Woman,Right,
55,12,1,1.1507581999994727,['c'],0,right,['u'],0,0.444252500001312,0.2,1,0,FastAcc,14,19,Woman,Right,
56,12,1,0.5347466000002896,['c'],0,right,['e'],1,0.29575949999889417,0.4,0,0,FastAcc,14,19,Woman,Right,
57,12,1,0.3838050000013027,['c'],1,left,['e'],1,0.31864889999997104,0.1,1,0,FastAcc,14,19,Woman,Right,
58,12,1,0.4510415999993711,['c'],1,left,['e'],1,0.3544910999989952,0.1,1,0,FastAcc,14,19,Woman,Right,
59,12,1,0.7682457999999315,['c'],0,right,['u'],0,0.3119953000004898,0.2,1,0,FastAcc,14,19,Woman,Right,
0,13,1,0.40160930000092776,['n'],1,right,['u'],0,0.30832379999992554,0.1,0,0,FastFast,14,19,Woman,Right,
1,13,1,0.30085549999967043,['n'],0,left,['u'],0,0.3512670000000071,0.1,1,0,FastFast,14,19,Woman,Right,
2,13,1,0.38505720000102883,['c'],0,right,['e'],1,0.30740350000087346,0.4,0,0,FastFast,14,19,Woman,Right,
3,13,1,1.0338398000003508,['c'],0,right,['u'],0,0.41678999999930966,0.4,1,0,FastFast,14,19,Woman,Right,
4,13,1,0.23435499999868625,['c'],0,right,['e'],1,0.7286168000009638,0.4,0,0,FastFast,14,19,Woman,Right,
5,13,1,0.36737910000010743,['n'],1,right,['u'],0,0.3511823999997432,0.2,0,0,FastFast,14,19,Woman,Right,
6,13,1,0.4011603999988438,['c'],1,left,['u'],0,0.2912655000000086,0.1,0,0,FastFast,14,19,Woman,Right,
7,13,1,0.4176108999999997,['c'],0,right,['u'],0,0.3617981999996118,0.4,1,0,FastFast,14,19,Woman,Right,
8,13,1,0.7670197000006738,['n'],0,left,['e'],1,0.3028314000002865,0.1,0,0,FastFast,14,19,Woman,Right,
9,13,1,0.31765679999989516,['c'],1,left,['u'],0,0.2962352999984432,0.2,0,0,FastFast,14,19,Woman,Right,
10,13,1,0.4178660999987187,['n'],1,right,['e'],1,0.23783879999973578,0.4,1,0,FastFast,14,19,Woman,Right,
11,13,1,0.3833818000002793,['c'],1,left,['u'],0,0.23187609999877168,0.2,0,0,FastFast,14,19,Woman,Right,
12,13,1,0.2672763999999006,['n'],1,right,['e'],1,0.23025810000035563,0.2,1,0,FastFast,14,19,Woman,Right,
13,13,1,0.3839288999988639,['c'],0,right,['u'],0,0.2393355000003794,0.4,1,0,FastFast,14,19,Woman,Right,
14,13,1,0.38363550000030955,['n'],1,right,['e'],1,0.2656723999989481,0.2,1,0,FastFast,14,19,Woman,Right,
15,13,1,0.40057549999983166,['c'],1,left,['u'],0,0.25671519999923476,0.4,0,0,FastFast,14,19,Woman,Right,
16,13,1,0.36747290000130306,['n'],0,left,['e'],1,0.20212379999975383,0.1,0,0,FastFast,14,19,Woman,Right,
17,13,1,0.3679885000001377,['c'],1,left,['u'],0,0.24577490000046964,0.1,0,0,FastFast,14,19,Woman,Right,
18,13,1,0.401106899998922,['n'],1,right,['e'],1,0.2539171999997052,0.4,1,0,FastFast,14,19,Woman,Right,
19,13,1,0.551073800001177,['n'],1,right,['e'],1,0.2083836000001611,0.2,1,0,FastFast,14,19,Woman,Right,
20,13,1,0.4168461000008392,['n'],0,left,['u'],0,0.3138357999996515,0.2,1,0,FastFast,14,19,Woman,Right,
21,13,1,0.3835519000003842,['c'],1,left,['u'],0,0.6721697000011773,0.2,0,0,FastFast,14,19,Woman,Right,
22,13,1,0.5836899999994785,['c'],1,left,['e'],1,0.3366244999997434,0.1,1,0,FastFast,14,19,Woman,Right,
23,13,1,0.3847258999994665,['n'],0,left,['e'],1,0.24622999999883177,0.4,0,0,FastFast,14,19,Woman,Right,
24,13,1,1.1019197999994503,['n'],1,right,['e'],1,1.9385441000013088,0.2,1,0,FastFast,14,19,Woman,Right,
25,13,1,0.4179354999996576,['n'],0,left,['e'],1,0.24702259999867238,0.4,0,0,FastFast,14,19,Woman,Right,
26,13,1,0.30129610000039975,['n'],1,right,['u'],0,0.6753874999994878,0.2,0,0,FastFast,14,19,Woman,Right,
27,13,1,0.31714500000089174,['n'],0,left,['e'],1,0.2063927999988664,0.4,0,0,FastFast,14,19,Woman,Right,
28,13,1,0.3674506000006659,['c'],1,left,['u'],0,0.2659432000000379,0.4,0,0,FastFast,14,19,Woman,Right,
29,13,1,0.3015094999991561,['n'],1,right,['u'],0,0.24559059999955934,0.1,0,0,FastFast,14,19,Woman,Right,
30,13,1,0.31770310000138124,['n'],1,right,['u'],0,0.24104850000003353,0.1,0,0,FastFast,14,19,Woman,Right,
31,13,1,0.50132400000075,['c'],0,right,['u'],0,0.24598210000112886,0.1,1,0,FastFast,14,19,Woman,Right,
32,13,1,0.3347451000008732,['n'],1,right,['u'],0,0.3369363000001613,0.2,0,0,FastFast,14,19,Woman,Right,
33,13,1,0.31801420000010694,['n'],1,right,['e'],1,0.15314240000043355,0.2,1,0,FastFast,14,19,Woman,Right,
34,13,1,0.36786819999906584,['c'],1,left,['u'],0,0.18278140000074927,0.1,0,0,FastFast,14,19,Woman,Right,
35,13,1,0.3344790000010107,['n'],1,right,['u'],0,0.26043270000081975,0.1,0,0,FastFast,14,19,Woman,Right,
36,13,1,0.3179913999993005,['n'],0,left,['u'],0,0.2559476000005816,0.4,1,0,FastFast,14,19,Woman,Right,
37,13,1,0.6497381000008318,['n'],1,right,['u'],0,0.2548887000011746,0.4,0,0,FastFast,14,19,Woman,Right,
38,13,1,0.3343500999999378,['n'],0,left,['u'],0,0.23325050000130432,0.1,1,0,FastFast,14,19,Woman,Right,
39,13,1,0.301312899999175,['n'],0,left,['e'],1,0.1660836000010022,0.1,0,0,FastFast,14,19,Woman,Right,
40,13,1,0.36716119999982766,['c'],1,left,['u'],0,0.24306240000078105,0.2,0,0,FastFast,14,19,Woman,Right,
41,13,1,1.0345443000005616,['n'],0,left,['e'],1,0.3867976000001363,0.1,0,0,FastFast,14,19,Woman,Right,
42,13,1,0.33499120000124094,['c'],1,left,['e'],1,0.21625889999995707,0.4,1,0,FastFast,14,19,Woman,Right,
43,13,1,0.3844637000001967,['c'],0,right,['u'],0,0.2425521999994089,0.1,1,0,FastFast,14,19,Woman,Right,
44,13,1,0.016480399999636575,['c'],0,right,['e'],1,0.29911470000115514,0.4,0,0,FastFast,14,19,Woman,Right,
45,13,1,0.36771479999879375,['n'],0,left,['u'],0,0.22637120000035793,0.2,1,0,FastFast,14,19,Woman,Right,
46,13,1,0.3335882000010315,['c'],0,right,['u'],0,0.2067255000001751,0.2,1,0,FastFast,14,19,Woman,Right,
47,13,1,0.484457200000179,['c'],0,right,['u'],0,0.22971580000012182,0.2,1,0,FastFast,14,19,Woman,Right,
48,13,1,0.40082949999850825,['n'],1,right,['e'],1,0.14267500000096334,0.1,1,0,FastFast,14,19,Woman,Right,
49,13,1,0.46848429999954533,['n'],0,left,['u'],0,0.6489636000005703,0.4,1,0,FastFast,14,19,Woman,Right,
50,13,1,0.4010120000002644,['n'],1,right,['e'],1,0.24123210000107065,0.1,1,0,FastFast,14,19,Woman,Right,
51,13,1,0.584651400000439,['n'],0,left,['u'],0,0.24281110000083572,0.2,1,0,FastFast,14,19,Woman,Right,
52,13,1,0.48502079999889247,['c'],1,left,['e'],1,0.29639290000159235,0.1,1,0,FastFast,14,19,Woman,Right,
53,13,1,0.3669727000014973,['c'],1,left,['u'],0,0.2403636999988521,0.4,0,0,FastFast,14,19,Woman,Right,
54,13,1,0.4165874000009353,['c'],1,left,['u'],0,0.3612248000008549,0.2,0,0,FastFast,14,19,Woman,Right,
55,13,1,0.5016914000007091,['n'],1,right,['e'],1,0.2647125999992568,0.1,1,0,FastFast,14,19,Woman,Right,
56,13,1,0.38428139999996347,['c'],1,left,['e'],1,0.28891719999955967,0.2,1,0,FastFast,14,19,Woman,Right,
57,13,1,0.43370390000018233,['c'],1,left,['e'],1,0.26245530000051076,0.4,1,0,FastFast,14,19,Woman,Right,
58,13,1,0.4345976000004157,['c'],0,right,['u'],0,0.33281150000038906,0.4,1,0,FastFast,14,19,Woman,Right,
59,13,1,0.3663166000005731,['n'],1,right,['e'],1,0.1476823000011791,0.2,1,0,FastFast,14,19,Woman,Right,
0,14,1,0.4347756000006484,['n'],1,right,['e'],1,0.17167269999845303,0.1,1,0,AccFast,14,19,Woman,Right,
1,14,1,0.35103350000099454,['n'],0,left,['u'],0,0.28116960000079416,0.1,1,0,AccFast,14,19,Woman,Right,
2,14,1,0.5679602000000159,['n'],0,left,['e'],1,0.3143259999997099,0.4,0,0,AccFast,14,19,Woman,Right,
3,14,1,0.40088599999944563,['n'],0,left,['u'],0,0.22325909999926807,0.1,1,0,AccFast,14,19,Woman,Right,
4,14,1,0.4005980999991152,['n'],0,left,['u'],0,0.18471390000013344,0.2,1,0,AccFast,14,19,Woman,Right,
5,14,1,0.3682807999994111,['c'],0,right,['u'],0,0.21307899999919755,0.2,1,0,AccFast,14,19,Woman,Right,
6,14,1,0.9678495000007388,['c'],1,left,['e'],1,0.2480993999997736,0.4,1,0,AccFast,14,19,Woman,Right,
7,14,1,0.4181545000010374,['c'],1,left,['e'],1,0.3358715000013035,0.4,1,0,AccFast,14,19,Woman,Right,
8,14,1,0.40190720000100555,['c'],1,left,['u'],0,0.5644657000011648,0.1,0,0,AccFast,14,19,Woman,Right,
9,14,1,0.33350639999844134,['n'],1,right,['e'],1,0.2596745999999257,0.4,1,0,AccFast,14,19,Woman,Right,
10,14,1,0.31761179999921296,['c'],1,left,['u'],0,0.2867763999984163,0.4,0,0,AccFast,14,19,Woman,Right,
11,14,1,0.3512437999997928,['c'],1,left,['u'],0,0.31146589999843854,0.1,0,0,AccFast,14,19,Woman,Right,
12,14,1,0.7020508000005066,['n'],1,right,['e'],1,0.321748899999875,0.4,1,0,AccFast,14,19,Woman,Right,
13,14,1,0.2849376000012853,['c'],1,left,['u'],0,0.38007549999929324,0.4,0,0,AccFast,14,19,Woman,Right,
14,14,1,0.41786230000070645,['c'],1,left,['e'],1,0.5423924999995506,0.1,1,0,AccFast,14,19,Woman,Right,
15,14,1,0.31801220000124886,['c'],0,right,['u'],0,0.30283179999969434,0.1,1,0,AccFast,14,19,Woman,Right,
16,14,1,0.4679329000009602,['c'],1,left,['u'],0,0.3383849999991071,0.4,0,0,AccFast,14,19,Woman,Right,
17,14,1,0.38371989999905054,['c'],1,left,['e'],1,0.26382569999987027,0.2,1,0,AccFast,14,19,Woman,Right,
18,14,1,0.36753889999999956,['n'],0,left,['e'],1,0.1448698999993212,0.1,0,0,AccFast,14,19,Woman,Right,
19,14,1,0.48386289999871224,['n'],1,right,['u'],0,0.29770599999937986,0.2,0,0,AccFast,14,19,Woman,Right,
20,14,1,0.5182080000013229,['n'],1,right,['u'],0,0.41142330000002403,0.4,0,0,AccFast,14,19,Woman,Right,
21,14,1,0.8017481000006228,['n'],1,right,['u'],0,0.33367920000091544,0.1,0,0,AccFast,14,19,Woman,Right,
22,14,1,0.9174411000003602,['n'],1,right,['u'],0,0.3020421000001079,0.2,0,0,AccFast,14,19,Woman,Right,
23,14,1,2.6166587000006984,['n'],1,right,['e'],1,0.21992709999904037,0.2,1,0,AccFast,14,19,Woman,Right,
24,14,1,0.5012900999990961,['n'],0,left,['u'],0,0.28952209999988554,0.2,1,0,AccFast,14,19,Woman,Right,
25,14,1,0.8666473999983282,['n'],1,right,['u'],0,0.2947068000012223,0.4,0,0,AccFast,14,19,Woman,Right,
26,14,1,0.683882999999696,['n'],1,right,['e'],1,0.25784349999958067,0.2,1,0,AccFast,14,19,Woman,Right,
27,14,1,0.4184920999996393,['n'],0,left,['u'],0,0.34514339999986987,0.2,1,0,AccFast,14,19,Woman,Right,
28,14,1,0.3501365000010992,['n'],1,right,['e'],1,0.22425870000006398,0.2,1,0,AccFast,14,19,Woman,Right,
29,14,1,0.36795530000017607,['n'],1,right,['u'],0,0.28238280000005034,0.2,0,0,AccFast,14,19,Woman,Right,
30,14,1,0.30132529999900726,['n'],0,left,['e'],1,0.19738169999982347,0.1,0,0,AccFast,14,19,Woman,Right,
31,14,1,0.5515044999992824,['n'],1,right,['e'],1,0.2503555999992386,0.2,1,0,AccFast,14,19,Woman,Right,
32,14,1,0.40115459999833547,['n'],1,right,['u'],0,0.36986179999985325,0.4,0,0,AccFast,14,19,Woman,Right,
33,14,1,1.4175174000010884,['n'],0,left,['e'],1,0.26904709999871557,0.2,0,0,AccFast,14,19,Woman,Right,
34,14,1,0.41833369999949355,['n'],1,right,['u'],0,0.2919456999989052,0.2,0,0,AccFast,14,19,Woman,Right,
35,14,1,0.417686999999205,['n'],0,left,['u'],0,0.33022109999910754,0.1,1,0,AccFast,14,19,Woman,Right,
36,14,1,0.6826579000007769,['n'],1,right,['u'],0,0.21323800000027404,0.4,0,0,AccFast,14,19,Woman,Right,
37,14,1,0.5022244000010687,['c'],0,right,['e'],1,0.2655174999999872,0.1,0,0,AccFast,14,19,Woman,Right,
38,14,1,0.38479740000002494,['c'],0,right,['u'],0,0.24169959999926505,0.1,1,0,AccFast,14,19,Woman,Right,
39,14,1,0.36819829999876674,['c'],1,left,['u'],0,0.21996279999984836,0.4,0,0,AccFast,14,19,Woman,Right,
40,14,1,0.40086220000011963,['c'],0,right,['u'],0,0.19773979999990843,0.2,1,0,AccFast,14,19,Woman,Right,
41,14,1,0.19932129999870085,['c'],1,left,['e'],1,0.2645247999989806,0.1,1,0,AccFast,14,19,Woman,Right,
42,14,1,0.43342829999892274,['n'],0,left,['e'],1,0.17445079999924928,0.2,0,0,AccFast,14,19,Woman,Right,
43,14,1,0.4183026999999129,['c'],1,left,['u'],0,0.2491119999995135,0.1,0,0,AccFast,14,19,Woman,Right,
44,14,1,0.3847179000003962,['n'],0,left,['u'],0,0.17799970000123722,0.2,1,0,AccFast,14,19,Woman,Right,
45,14,1,0.35078669999893464,['n'],1,right,['u'],0,0.25557499999922584,0.1,0,0,AccFast,14,19,Woman,Right,
46,14,1,0.3343105000003561,['c'],0,right,['e'],1,0.31535859999894456,0.1,0,0,AccFast,14,19,Woman,Right,
47,14,1,0.6675374999995256,['n'],0,left,['u'],0,0.21371279999948456,0.4,1,0,AccFast,14,19,Woman,Right,
48,14,1,0.3175897000000987,['c'],1,left,['e'],1,0.21045669999875827,0.4,1,0,AccFast,14,19,Woman,Right,
49,14,1,0.40185960000053456,['c'],0,right,['u'],0,0.3486923000000388,0.4,1,0,AccFast,14,19,Woman,Right,
50,14,1,0.8166302999998152,['c'],0,right,['u'],0,0.4169010999994498,0.4,1,0,AccFast,14,19,Woman,Right,
51,14,1,0.40086990000054357,['n'],0,left,['e'],1,0.14601290000064182,0.2,0,0,AccFast,14,19,Woman,Right,
52,14,1,0.23455869999997958,['c'],0,right,['u'],0,0.27697989999978745,0.2,1,0,AccFast,14,19,Woman,Right,
53,14,1,0.2349527999995189,['n'],0,left,['e'],1,0.11540400000012596,0.4,0,0,AccFast,14,19,Woman,Right,
54,14,1,0.30138999999871885,['n'],1,right,['e'],1,0.16465100000095845,0.4,1,0,AccFast,14,19,Woman,Right,
55,14,1,0.5173921000005066,['n'],1,right,['u'],0,0.2518049999998766,0.4,0,0,AccFast,14,19,Woman,Right,
56,14,1,0.31814330000088376,['n'],0,left,['e'],1,0.1353460999998788,0.1,0,0,AccFast,14,19,Woman,Right,
57,14,1,0.3515660000011849,['n'],1,right,['e'],1,0.37437859999954526,0.2,1,0,AccFast,14,19,Woman,Right,
58,14,1,0.5349318999997195,['c'],1,left,['u'],0,0.30936839999958465,0.1,0,0,AccFast,14,19,Woman,Right,
59,14,1,0.3515239999996993,['n'],1,right,['e'],1,0.15684370000053605,0.1,1,0,AccFast,14,19,Woman,Right,
0,15,1,0.3677858999999444,['n'],0,left,['u'],0,0.26018780000049446,0.2,1,0,AccAcc,14,19,Woman,Right,
1,15,1,0.30060129999947094,['n'],0,left,['e'],1,0.11244909999913943,0.1,0,0,AccAcc,14,19,Woman,Right,
2,15,1,0.35069819999989704,['n'],1,right,['u'],0,0.19203709999965213,0.4,0,0,AccAcc,14,19,Woman,Right,
3,15,1,0.2513027000004513,['n'],1,right,['e'],1,0.11323909999919124,0.2,1,0,AccAcc,14,19,Woman,Right,
4,15,1,0.26809079999839014,['n'],0,left,['u'],0,0.21193940000011935,0.2,1,0,AccAcc,14,19,Woman,Right,
5,15,1,0.267941800000699,['n'],1,right,['e'],1,0.1306180999999924,0.1,1,0,AccAcc,14,19,Woman,Right,
6,15,1,0.3005572000001848,['c'],0,right,['u'],0,0.19552000000112457,0.4,1,0,AccAcc,14,19,Woman,Right,
7,15,1,0.2835379999996803,['c'],0,right,['u'],0,0.19452430000092136,0.4,1,0,AccAcc,14,19,Woman,Right,
8,15,1,0.3010107000009157,['n'],0,left,['e'],1,0.14556380000067293,0.4,0,0,AccAcc,14,19,Woman,Right,
9,15,1,0.43534489999910875,['c'],1,left,['u'],0,0.25230069999997795,0.1,0,0,AccAcc,14,19,Woman,Right,
10,15,1,0.31837090000044554,['c'],0,right,['u'],0,0.4400000000005093,0.4,1,0,AccAcc,14,19,Woman,Right,
11,15,1,0.13499080000110553,['c'],0,right,['e'],1,0.2436030999997456,0.2,0,0,AccAcc,14,19,Woman,Right,
12,15,1,0.7681594000005134,['c'],0,right,['e'],1,0.23759839999911492,0.1,0,0,AccAcc,14,19,Woman,Right,
13,15,1,0.35016640000139887,['n'],0,left,['u'],0,0.16963840000062191,0.4,1,0,AccAcc,14,19,Woman,Right,
14,15,1,0.517223599999852,['n'],1,right,['u'],0,0.19177119999949355,0.1,0,0,AccAcc,14,19,Woman,Right,
15,15,1,0.36801679999916814,['n'],1,right,['u'],0,0.220104199999696,0.2,0,0,AccAcc,14,19,Woman,Right,
16,15,1,0.38427709999996296,['n'],1,right,['e'],1,0.2143340000002354,0.2,1,0,AccAcc,14,19,Woman,Right,
17,15,1,0.28393920000053186,['c'],1,left,['e'],1,0.1805067000004783,0.1,1,0,AccAcc,14,19,Woman,Right,
18,15,1,0.317633399999977,['c'],1,left,['e'],1,0.21100029999979597,0.2,1,0,AccAcc,14,19,Woman,Right,
19,15,1,0.3173697000001994,['c'],0,right,['e'],1,0.22454120000111288,0.1,0,0,AccAcc,14,19,Woman,Right,
20,15,1,0.38401150000026973,['c'],1,left,['u'],0,0.21873849999974482,0.4,0,0,AccAcc,14,19,Woman,Right,
21,15,1,0.5339958000004117,['c'],1,left,['u'],0,0.17515260000072885,0.1,0,0,AccAcc,14,19,Woman,Right,
22,15,1,0.3346973000006983,['c'],0,right,['u'],0,0.2532971999989968,0.1,1,0,AccAcc,14,19,Woman,Right,
23,15,1,0.4178558999992674,['c'],0,right,['u'],0,0.18106559999978344,0.2,1,0,AccAcc,14,19,Woman,Right,
24,15,1,0.3007927999988169,['c'],1,left,['u'],0,1.0123493999999482,0.4,0,0,AccAcc,14,19,Woman,Right,
25,15,1,0.26787180000064836,['n'],0,left,['u'],0,0.2589742000000115,0.4,1,0,AccAcc,14,19,Woman,Right,
26,15,1,0.03476249999948777,['c'],1,left,['e'],1,0.28211949999968056,0.4,1,0,AccAcc,14,19,Woman,Right,
27,15,1,0.3014175999996951,['n'],1,right,['u'],0,0.16463329999896814,0.4,0,0,AccAcc,14,19,Woman,Right,
28,15,1,0.16808420000052138,['c'],1,left,['u'],0,0.2177214000003005,0.4,0,0,AccAcc,14,19,Woman,Right,
29,15,1,0.3681914999997389,['n'],0,left,['u'],0,0.13258049999967625,0.1,1,0,AccAcc,14,19,Woman,Right,
30,15,1,0.3681790999999066,['c'],0,right,['u'],0,0.24271239999870886,0.2,1,0,AccAcc,14,19,Woman,Right,
31,15,1,0.48466149999876507,['n'],0,left,['e'],1,0.3925292999992962,0.2,0,0,AccAcc,14,19,Woman,Right,
32,15,1,0.5512581000002683,['n'],1,right,['u'],0,0.7093795000000682,0.4,0,0,AccAcc,14,19,Woman,Right,
33,15,1,0.31710560000101395,['c'],0,right,['u'],0,0.20830869999917923,0.2,1,0,AccAcc,14,19,Woman,Right,
34,15,1,0.4681395999996312,['c'],0,right,['u'],0,0.19848450000063167,0.2,1,0,AccAcc,14,19,Woman,Right,
35,15,1,0.3672943999990821,['n'],1,right,['e'],1,0.13011050000022806,0.4,1,0,AccAcc,14,19,Woman,Right,
36,15,1,0.35171900000023015,['c'],1,left,['u'],0,0.22511699999995471,0.1,0,0,AccAcc,14,19,Woman,Right,
37,15,1,0.6013160999991669,['n'],0,left,['e'],1,0.17875899999853573,0.1,0,0,AccAcc,14,19,Woman,Right,
38,15,1,0.3180771999996068,['c'],1,left,['u'],0,0.17700599999989208,0.2,0,0,AccAcc,14,19,Woman,Right,
39,15,1,0.3671249999988504,['c'],0,right,['u'],0,0.15803369999957795,0.2,1,0,AccAcc,14,19,Woman,Right,
40,15,1,0.3182221999995818,['n'],0,left,['e'],1,0.15754430000015418,0.1,0,0,AccAcc,14,19,Woman,Right,
41,15,1,0.5353778999997303,['n'],1,right,['e'],1,0.4050693000008323,0.1,1,0,AccAcc,14,19,Woman,Right,
42,15,1,0.46787200000107987,['c'],1,left,['e'],1,0.21223140000074636,0.4,1,0,AccAcc,14,19,Woman,Right,
43,15,1,0.5011572999992495,['c'],0,right,['e'],1,0.3299301999995805,0.4,0,0,AccAcc,14,19,Woman,Right,
44,15,1,0.30132400000002235,['c'],1,left,['u'],0,0.2269737000005989,0.1,0,0,AccAcc,14,19,Woman,Right,
45,15,1,1.2844014000002062,['c'],0,right,['e'],1,0.3133575000010751,0.1,0,0,AccAcc,14,19,Woman,Right,
46,15,1,0.36613730000135547,['c'],0,right,['u'],0,0.2885810000007041,0.2,1,0,AccAcc,14,19,Woman,Right,
47,15,1,0.4683927999994921,['n'],0,left,['u'],0,0.32442040000023553,0.1,1,0,AccAcc,14,19,Woman,Right,
48,15,1,0.3335290000013629,['n'],0,left,['u'],0,0.25247420000050624,0.1,1,0,AccAcc,14,19,Woman,Right,
49,15,1,0.1679866000013135,['n'],0,left,['e'],1,0.25458380000054603,0.2,0,0,AccAcc,14,19,Woman,Right,
50,15,1,0.31804919999922276,['n'],1,right,['u'],0,0.2338889000002382,0.4,0,0,AccAcc,14,19,Woman,Right,
51,15,1,0.4013451000009809,['n'],1,right,['e'],1,0.17878010000094946,0.1,1,0,AccAcc,14,19,Woman,Right,
52,15,1,0.3338559999992867,['n'],1,right,['u'],0,0.2402328000007401,0.4,0,0,AccAcc,14,19,Woman,Right,
53,15,1,0.3186101999999664,['n'],0,left,['e'],1,0.2685830000009446,0.2,0,0,AccAcc,14,19,Woman,Right,
54,15,1,0.3004510000009759,['n'],0,left,['u'],0,0.24920639999982086,0.4,1,0,AccAcc,14,19,Woman,Right,
55,15,1,0.33460229999946023,['n'],1,right,['e'],1,0.1958319000004849,0.4,1,0,AccAcc,14,19,Woman,Right,
56,15,1,0.5347183999983827,['n'],0,left,['e'],1,0.23211230000015348,0.2,0,0,AccAcc,14,19,Woman,Right,
57,15,1,0.3850076999988232,['n'],0,left,['u'],0,0.2096638000002713,0.2,1,0,AccAcc,14,19,Woman,Right,
58,15,1,0.3176787000011245,['n'],0,left,['e'],1,0.15918590000001132,0.2,0,0,AccAcc,14,19,Woman,Right,
59,15,1,0.36810829999922134,['n'],1,right,['e'],1,0.2688088000013522,0.1,1,0,AccAcc,14,19,Woman,Right,
