withinblocktrial,block,block_repetition,rt,resp,cor,cresp,conf_press,cj,rtconf,coherence,metacognition,slow_trial,manipulation,sub,age,gender,handedness,
0,1,1,3.2313892000001943,['c'],1,left,none,-99,-99,0.5,-99,0,none,25,18,Woman,Right,
1,1,1,0.6356386000006751,['n'],1,right,none,-99,-99,0.5,-99,0,none,25,18,Woman,Right,
2,1,1,1.0669849000005343,['c'],1,left,none,-99,-99,0.5,-99,0,none,25,18,Woman,Right,
3,1,1,1.2011598000008235,['n'],0,left,none,-99,-99,0.5,-99,0,none,25,18,Woman,Right,
4,1,1,0.8664570000000822,['n'],1,right,none,-99,-99,0.5,-99,0,none,25,18,Woman,Right,
5,1,1,0.6166338000002725,['c'],1,left,none,-99,-99,0.5,-99,0,none,25,18,Woman,Right,
6,1,1,0.6345860999990691,['n'],0,left,none,-99,-99,0.5,-99,0,none,25,18,Woman,Right,
7,1,1,2.2671430999998847,['n'],1,right,none,-99,-99,0.5,-99,0,none,25,18,Woman,Right,
8,1,1,2.234543399999893,['n'],1,right,none,-99,-99,0.5,-99,0,none,25,18,Woman,Right,
9,1,1,0.7838485000011133,['c'],0,right,none,-99,-99,0.5,-99,0,none,25,18,Woman,Right,
10,1,1,0.7670579000005091,['c'],1,left,none,-99,-99,0.5,-99,0,none,25,18,Woman,Right,
11,1,1,0.6337691999997332,['n'],1,right,none,-99,-99,0.5,-99,0,none,25,18,Woman,Right,
12,1,1,0.5847429999994347,['c'],1,left,none,-99,-99,0.5,-99,0,none,25,18,Woman,Right,
13,1,1,0.6841473000004044,['n'],1,right,none,-99,-99,0.5,-99,0,none,25,18,Woman,Right,
14,1,1,0.5171041000012337,['c'],1,left,none,-99,-99,0.5,-99,0,none,25,18,Woman,Right,
15,1,1,0.5013318000001163,['n'],1,right,none,-99,-99,0.5,-99,0,none,25,18,Woman,Right,
16,1,1,1.633047400000578,['n'],1,right,none,-99,-99,0.5,-99,0,none,25,18,Woman,Right,
17,1,1,0.6827856999989308,['c'],0,right,none,-99,-99,0.5,-99,0,none,25,18,Woman,Right,
18,1,1,0.7173030000012659,['c'],1,left,none,-99,-99,0.5,-99,0,none,25,18,Woman,Right,
19,1,1,0.9342696999992768,['n'],1,right,none,-99,-99,0.5,-99,0,none,25,18,Woman,Right,
20,1,1,0.6171844000000419,['c'],1,left,none,-99,-99,0.5,-99,0,none,25,18,Woman,Right,
21,1,1,0.7154907999993156,['c'],1,left,none,-99,-99,0.5,-99,0,none,25,18,Woman,Right,
22,1,1,0.5331289999994624,['c'],1,left,none,-99,-99,0.5,-99,0,none,25,18,Woman,Right,
23,1,1,0.5857312999996793,['n'],1,right,none,-99,-99,0.5,-99,0,none,25,18,Woman,Right,
0,1,2,1.533819800000856,['n'],1,right,none,-99,-99,0.5,-99,0,none,25,18,Woman,Right,
1,1,2,0.4363432999998622,['c'],1,left,none,-99,-99,0.5,-99,0,none,25,18,Woman,Right,
2,1,2,0.5172007000001031,['c'],1,left,none,-99,-99,0.5,-99,0,none,25,18,Woman,Right,
3,1,2,1.067337200000111,['n'],0,left,none,-99,-99,0.5,-99,0,none,25,18,Woman,Right,
4,1,2,0.5337452000003395,['c'],1,left,none,-99,-99,0.5,-99,0,none,25,18,Woman,Right,
5,1,2,0.46728600000096776,['n'],1,right,none,-99,-99,0.5,-99,0,none,25,18,Woman,Right,
6,1,2,0.48453890000018873,['n'],1,right,none,-99,-99,0.5,-99,0,none,25,18,Woman,Right,
7,1,2,0.467525600000954,['c'],1,left,none,-99,-99,0.5,-99,0,none,25,18,Woman,Right,
8,1,2,0.6004389000008814,['n'],0,left,none,-99,-99,0.5,-99,0,none,25,18,Woman,Right,
9,1,2,0.583737499999188,['n'],1,right,none,-99,-99,0.5,-99,0,none,25,18,Woman,Right,
10,1,2,1.3671854000003805,['n'],0,left,none,-99,-99,0.5,-99,0,none,25,18,Woman,Right,
11,1,2,1.5491675999983272,['n'],0,left,none,-99,-99,0.5,-99,0,none,25,18,Woman,Right,
12,1,2,0.5838352999999188,['c'],1,left,none,-99,-99,0.5,-99,0,none,25,18,Woman,Right,
13,1,2,0.5493612999998732,['n'],1,right,none,-99,-99,0.5,-99,0,none,25,18,Woman,Right,
14,1,2,1.6843824000006862,['n'],0,left,none,-99,-99,0.5,-99,0,none,25,18,Woman,Right,
15,1,2,0.6845223999989685,['c'],0,right,none,-99,-99,0.5,-99,0,none,25,18,Woman,Right,
16,1,2,0.567251500000566,['n'],1,right,none,-99,-99,0.5,-99,0,none,25,18,Woman,Right,
17,1,2,0.4676015000004554,['n'],1,right,none,-99,-99,0.5,-99,0,none,25,18,Woman,Right,
18,1,2,0.6321263000008912,['n'],1,right,none,-99,-99,0.5,-99,0,none,25,18,Woman,Right,
19,1,2,0.9847172999998293,['c'],0,right,none,-99,-99,0.5,-99,0,none,25,18,Woman,Right,
20,1,2,0.6184771000007458,['c'],1,left,none,-99,-99,0.5,-99,0,none,25,18,Woman,Right,
21,1,2,0.6182528999997885,['n'],1,right,none,-99,-99,0.5,-99,0,none,25,18,Woman,Right,
22,1,2,1.6504531999999017,['n'],1,right,none,-99,-99,0.5,-99,0,none,25,18,Woman,Right,
23,1,2,1.8005267999997159,['c'],1,left,none,-99,-99,0.5,-99,0,none,25,18,Woman,Right,
0,1,3,0.8342099000001326,['n'],1,right,none,-99,-99,0.5,-99,0,none,25,18,Woman,Right,
1,1,3,0.6660673000005772,['n'],1,right,none,-99,-99,0.5,-99,0,none,25,18,Woman,Right,
2,1,3,0.516912000000957,['c'],1,left,none,-99,-99,0.5,-99,0,none,25,18,Woman,Right,
3,1,3,0.43412419999913254,['n'],1,right,none,-99,-99,0.5,-99,0,none,25,18,Woman,Right,
4,1,3,0.38453649999974004,['c'],1,left,none,-99,-99,0.5,-99,0,none,25,18,Woman,Right,
5,1,3,0.33322360000056506,['n'],1,right,none,-99,-99,0.5,-99,0,none,25,18,Woman,Right,
6,1,3,0.36615010000059556,['c'],1,left,none,-99,-99,0.5,-99,0,none,25,18,Woman,Right,
7,1,3,0.4166760999996768,['n'],0,left,none,-99,-99,0.5,-99,0,none,25,18,Woman,Right,
8,1,3,0.4326932999993005,['n'],1,right,none,-99,-99,0.5,-99,0,none,25,18,Woman,Right,
9,1,3,0.43421200000011595,['c'],1,left,none,-99,-99,0.5,-99,0,none,25,18,Woman,Right,
10,1,3,0.41697260000000824,['n'],1,right,none,-99,-99,0.5,-99,0,none,25,18,Woman,Right,
11,1,3,1.1183483999993769,['n'],1,right,none,-99,-99,0.5,-99,0,none,25,18,Woman,Right,
12,1,3,0.46730980000029376,['n'],1,right,none,-99,-99,0.5,-99,0,none,25,18,Woman,Right,
13,1,3,0.5174169000001712,['c'],1,left,none,-99,-99,0.5,-99,0,none,25,18,Woman,Right,
14,1,3,0.6173275000001013,['n'],1,right,none,-99,-99,0.5,-99,0,none,25,18,Woman,Right,
15,1,3,0.43384299999888754,['c'],1,left,none,-99,-99,0.5,-99,0,none,25,18,Woman,Right,
16,1,3,0.584095600001092,['c'],1,left,none,-99,-99,0.5,-99,0,none,25,18,Woman,Right,
17,1,3,0.4012896999993245,['n'],1,right,none,-99,-99,0.5,-99,0,none,25,18,Woman,Right,
18,1,3,0.3666388999990886,['c'],1,left,none,-99,-99,0.5,-99,0,none,25,18,Woman,Right,
19,1,3,0.38468009999996866,['n'],1,right,none,-99,-99,0.5,-99,0,none,25,18,Woman,Right,
20,1,3,0.36698580000120273,['c'],1,left,none,-99,-99,0.5,-99,0,none,25,18,Woman,Right,
21,1,3,0.4664757999998983,['c'],1,left,none,-99,-99,0.5,-99,0,none,25,18,Woman,Right,
22,1,3,0.5332226999998966,['c'],1,left,none,-99,-99,0.5,-99,0,none,25,18,Woman,Right,
23,1,3,0.35097790000145324,['n'],1,right,none,-99,-99,0.5,-99,0,none,25,18,Woman,Right,
0,2,1,0.9498872000003757,['c'],1,left,none,-99,-99,0.2,-99,0,none,25,18,Woman,Right,
1,2,1,1.484727600000042,['c'],0,right,none,-99,-99,0.1,-99,0,none,25,18,Woman,Right,
2,2,1,0.6173531000004004,['c'],1,left,none,-99,-99,0.1,-99,0,none,25,18,Woman,Right,
3,2,1,0.7837738999987778,['n'],0,left,none,-99,-99,0.1,-99,0,none,25,18,Woman,Right,
4,2,1,1.0335482000009506,['n'],1,right,none,-99,-99,0.4,-99,0,none,25,18,Woman,Right,
5,2,1,0.5170464000002539,['c'],1,left,none,-99,-99,0.1,-99,0,none,25,18,Woman,Right,
6,2,1,0.5166137999985949,['n'],1,right,none,-99,-99,0.1,-99,0,none,25,18,Woman,Right,
7,2,1,0.5681163000008382,['c'],1,left,none,-99,-99,0.1,-99,0,none,25,18,Woman,Right,
8,2,1,0.5679105999988678,['n'],1,right,none,-99,-99,0.4,-99,0,none,25,18,Woman,Right,
9,2,1,0.4180223000003025,['c'],1,left,none,-99,-99,0.4,-99,0,none,25,18,Woman,Right,
10,2,1,0.5343966999989789,['n'],1,right,none,-99,-99,0.4,-99,0,none,25,18,Woman,Right,
11,2,1,0.7342502999999851,['n'],1,right,none,-99,-99,0.2,-99,0,none,25,18,Woman,Right,
12,2,1,0.5007198000002973,['n'],1,right,none,-99,-99,0.4,-99,0,none,25,18,Woman,Right,
13,2,1,1.76603729999988,['c'],1,left,none,-99,-99,0.2,-99,0,none,25,18,Woman,Right,
14,2,1,1.417918400000417,['n'],1,right,none,-99,-99,0.1,-99,0,none,25,18,Woman,Right,
15,2,1,0.5175227999989147,['n'],1,right,none,-99,-99,0.2,-99,0,none,25,18,Woman,Right,
16,2,1,0.3842260000001261,['n'],0,left,none,-99,-99,0.4,-99,0,none,25,18,Woman,Right,
17,2,1,0.6012600000012753,['n'],1,right,none,-99,-99,0.4,-99,0,none,25,18,Woman,Right,
18,2,1,1.3493742999999085,['n'],1,right,none,-99,-99,0.2,-99,0,none,25,18,Woman,Right,
19,2,1,0.4844133000005968,['c'],1,left,none,-99,-99,0.2,-99,0,none,25,18,Woman,Right,
20,2,1,0.5344569999997475,['n'],1,right,none,-99,-99,0.1,-99,0,none,25,18,Woman,Right,
21,2,1,0.7006046999995306,['n'],0,left,none,-99,-99,0.2,-99,0,none,25,18,Woman,Right,
22,2,1,0.5005550999994739,['n'],0,left,none,-99,-99,0.2,-99,0,none,25,18,Woman,Right,
23,2,1,0.5679029000002629,['n'],0,left,none,-99,-99,0.4,-99,0,none,25,18,Woman,Right,
0,3,1,1.2182248999997682,['c'],1,left,['u'],1,1.6233083000006445,0.2,1,0,none,25,18,Woman,Right,
1,3,1,0.7680502000002889,['n'],1,right,['u'],1,0.5906255000008969,0.4,1,0,none,25,18,Woman,Right,
2,3,1,1.4843299000003753,['c'],1,left,['e'],0,0.5946236999989196,0.2,0,0,none,25,18,Woman,Right,
3,3,1,0.9689451000012923,['n'],1,right,['u'],1,0.2825801000017236,0.4,1,0,none,25,18,Woman,Right,
4,3,1,0.7848011000005499,['c'],1,left,['e'],0,0.2635076000005938,0.2,0,0,none,25,18,Woman,Right,
5,3,1,1.9681321000007301,['c'],1,left,['u'],1,0.611712300000363,0.4,1,0,none,25,18,Woman,Right,
6,3,1,1.0850694000000658,['c'],1,left,['u'],1,0.5505758999988757,0.4,1,0,none,25,18,Woman,Right,
7,3,1,3.1006578000014997,['n'],1,right,['e'],0,0.4428579000013997,0.2,0,0,none,25,18,Woman,Right,
8,3,1,1.8005130999990797,['c'],1,left,['e'],0,0.47201590000076976,0.1,0,0,none,25,18,Woman,Right,
9,3,1,2.684129999999641,['c'],1,left,['e'],0,0.8163561999990634,0.1,0,0,none,25,18,Woman,Right,
10,3,1,3.30083089999971,['c'],1,left,['e'],0,0.94620919999943,0.2,0,0,none,25,18,Woman,Right,
11,3,1,1.8498607000001357,['n'],1,right,['e'],0,0.4573580000014772,0.1,0,0,none,25,18,Woman,Right,
12,3,1,0.6838943000002473,['n'],1,right,['u'],1,0.46562119999907736,0.4,1,0,none,25,18,Woman,Right,
13,3,1,1.3665878000010707,['n'],1,right,['u'],1,0.5743855999990046,0.1,1,0,none,25,18,Woman,Right,
14,3,1,2.51779549999992,['n'],1,right,['e'],0,0.3294636000009632,0.1,0,0,none,25,18,Woman,Right,
15,3,1,2.2992702000010468,['n'],0,left,['e'],0,0.7753928999991331,0.4,1,0,none,25,18,Woman,Right,
16,3,1,2.550322799999776,['n'],0,left,['e'],0,0.537091700000019,0.1,1,0,none,25,18,Woman,Right,
17,3,1,4.767681899998934,['n'],1,right,['e'],0,0.6348893999984284,0.2,0,0,none,25,18,Woman,Right,
18,3,1,0.7179882000000362,['n'],0,left,['e'],0,0.2833991999996215,0.1,1,0,none,25,18,Woman,Right,
19,3,1,2.4678145999987464,['n'],1,right,['e'],0,1.6834928000007494,0.2,0,0,none,25,18,Woman,Right,
20,3,1,0.6323948000008386,['n'],1,right,['u'],1,0.3499479000001884,0.2,1,0,none,25,18,Woman,Right,
21,3,1,1.7668933999993897,['n'],1,right,['e'],0,0.7986552000002121,0.4,0,0,none,25,18,Woman,Right,
22,3,1,1.683990100000301,['c'],1,left,['e'],0,0.32175700000152574,0.4,0,0,none,25,18,Woman,Right,
23,3,1,1.2836545999998634,['c'],0,right,['e'],0,0.2808677000011812,0.1,1,0,none,25,18,Woman,Right,
0,4,1,4.48465109999961,['n'],0,left,['e'],0,2.3005048999984865,0.1,1,0,AccAcc,25,18,Woman,Right,
1,4,1,5.016696500000762,x,-99,right,none,-99,-99,0.1,-99,1,AccAcc,25,18,Woman,Right,
2,4,1,1.3503407000007428,['n'],0,left,['e'],0,0.4392758000012691,0.1,1,0,AccAcc,25,18,Woman,Right,
3,4,1,1.8003766000001633,['c'],1,left,['e'],0,2.2083748999993986,0.2,0,0,AccAcc,25,18,Woman,Right,
4,4,1,1.4672700000010082,['n'],0,left,['e'],0,1.360213299998577,0.2,1,0,AccAcc,25,18,Woman,Right,
5,4,1,2.0183350999996037,['n'],1,right,['e'],0,0.7799443999992945,0.4,0,0,AccAcc,25,18,Woman,Right,
6,4,1,3.266906700000618,['c'],0,right,['e'],0,0.9085969000007026,0.4,1,0,AccAcc,25,18,Woman,Right,
7,4,1,2.9505724999999074,['c'],1,left,['e'],0,0.48573660000147356,0.1,0,0,AccAcc,25,18,Woman,Right,
8,4,1,3.2837155000015628,['n'],1,right,['e'],0,1.3128453000008449,0.1,0,0,AccAcc,25,18,Woman,Right,
9,4,1,1.4179105000002892,['c'],1,left,['e'],0,0.6153204000002006,0.4,0,0,AccAcc,25,18,Woman,Right,
10,4,1,2.584944100000939,['n'],1,right,['e'],0,0.7442672999986826,0.4,0,0,AccAcc,25,18,Woman,Right,
11,4,1,3.8516724000000977,['c'],0,right,['e'],0,1.4917270000005374,0.1,1,0,AccAcc,25,18,Woman,Right,
12,4,1,2.4508528000005754,['n'],0,left,['e'],0,1.3529680999999982,0.2,1,0,AccAcc,25,18,Woman,Right,
13,4,1,1.6347015999999712,['c'],1,left,['u'],1,1.2999901000002865,0.2,1,0,AccAcc,25,18,Woman,Right,
14,4,1,1.633566200000132,['n'],1,right,['e'],0,0.7532362999991165,0.2,0,0,AccAcc,25,18,Woman,Right,
15,4,1,2.7332607000007556,['c'],1,left,['e'],0,3.5450500000006286,0.1,0,0,AccAcc,25,18,Woman,Right,
16,4,1,3.084829900000841,['c'],1,left,['e'],0,1.2662972999987687,0.4,0,0,AccAcc,25,18,Woman,Right,
17,4,1,1.1002242999984446,['n'],1,right,['e'],0,1.062864500001524,0.2,0,0,AccAcc,25,18,Woman,Right,
18,4,1,3.0344843000002584,['c'],0,right,['e'],0,2.7564658999999665,0.1,1,0,AccAcc,25,18,Woman,Right,
19,4,1,1.2677605999997468,['n'],1,right,['u'],1,0.42249730000003183,0.4,1,0,AccAcc,25,18,Woman,Right,
20,4,1,2.1011584999996558,['c'],1,left,['e'],0,2.4520692999994935,0.4,0,0,AccAcc,25,18,Woman,Right,
21,4,1,0.833672700000534,['n'],1,right,['u'],1,1.235364899999695,0.2,1,0,AccAcc,25,18,Woman,Right,
22,4,1,3.451108799999929,['c'],0,right,['e'],0,1.0347213999993983,0.2,1,0,AccAcc,25,18,Woman,Right,
23,4,1,3.2011689000009937,['n'],0,left,['e'],0,0.9478890999998839,0.4,1,0,AccAcc,25,18,Woman,Right,
24,4,1,3.001217799999722,['c'],1,left,['e'],0,1.0802813000009337,0.1,0,0,AccAcc,25,18,Woman,Right,
25,4,1,2.20138709999992,['c'],1,left,['e'],0,0.9357860999989498,0.1,0,0,AccAcc,25,18,Woman,Right,
26,4,1,0.5671024000002944,['n'],1,right,['u'],1,1.374009400000432,0.4,1,0,AccAcc,25,18,Woman,Right,
27,4,1,1.1155574999993405,['n'],1,right,['u'],1,0.9104884000007587,0.4,1,0,AccAcc,25,18,Woman,Right,
28,4,1,1.185367199999746,['c'],0,right,['e'],0,2.603986599999189,0.4,1,0,AccAcc,25,18,Woman,Right,
29,4,1,2.8016975999998976,['n'],1,right,['e'],0,0.7104323000003205,0.2,0,0,AccAcc,25,18,Woman,Right,
30,4,1,0.8348261999999522,['c'],1,left,['u'],1,0.5716477000005398,0.4,1,0,AccAcc,25,18,Woman,Right,
31,4,1,2.6335184999988996,['c'],1,left,['e'],0,0.445970099999613,0.1,0,0,AccAcc,25,18,Woman,Right,
32,4,1,0.9176731000006839,['n'],0,left,['u'],1,0.6818304999997054,0.4,0,0,AccAcc,25,18,Woman,Right,
33,4,1,2.6009514999987005,['c'],0,right,['u'],1,3.032755199999883,0.4,0,0,AccAcc,25,18,Woman,Right,
34,4,1,1.5830933000015648,['c'],0,right,['e'],0,0.8189796999995451,0.1,1,0,AccAcc,25,18,Woman,Right,
35,4,1,2.7506680999995297,['n'],1,right,['u'],1,0.5199900999996316,0.4,1,0,AccAcc,25,18,Woman,Right,
36,4,1,4.001422499999535,['n'],1,right,['e'],0,1.1884223999986716,0.2,0,0,AccAcc,25,18,Woman,Right,
37,4,1,2.6006672000003164,['c'],0,right,['e'],0,3.439820300000065,0.2,1,0,AccAcc,25,18,Woman,Right,
38,4,1,1.1010958000006212,['n'],1,right,['e'],0,2.0129964999996446,0.4,0,0,AccAcc,25,18,Woman,Right,
39,4,1,3.467753700000685,['c'],0,right,['e'],0,1.6361572999994678,0.2,1,0,AccAcc,25,18,Woman,Right,
40,4,1,2.584389600000577,['c'],1,left,['u'],1,0.7821893999989697,0.4,1,0,AccAcc,25,18,Woman,Right,
41,4,1,2.134553500000038,['n'],0,left,['e'],0,1.1317605999993248,0.1,1,0,AccAcc,25,18,Woman,Right,
42,4,1,2.900835799999186,['c'],1,left,['e'],0,0.7170909999986179,0.2,0,0,AccAcc,25,18,Woman,Right,
43,4,1,1.8500375999992684,['n'],1,right,['u'],1,0.6967973999999231,0.1,1,0,AccAcc,25,18,Woman,Right,
44,4,1,2.0172201999994286,['c'],1,left,['e'],0,0.7665143000012904,0.1,0,0,AccAcc,25,18,Woman,Right,
45,4,1,2.999023100001068,['n'],1,right,['u'],1,1.0029465999996319,0.2,1,0,AccAcc,25,18,Woman,Right,
46,4,1,3.1012941999997565,['n'],1,right,['e'],0,1.8489108000012493,0.2,0,0,AccAcc,25,18,Woman,Right,
47,4,1,1.467825100000482,['c'],1,left,['u'],1,1.1118740000001708,0.4,1,0,AccAcc,25,18,Woman,Right,
48,4,1,2.7341360000009445,['c'],1,left,['e'],0,0.6880372999985411,0.2,0,0,AccAcc,25,18,Woman,Right,
49,4,1,2.451419299999543,['c'],1,left,['e'],0,2.1011983000007604,0.1,0,0,AccAcc,25,18,Woman,Right,
50,4,1,0.9850801000011415,['n'],1,right,['u'],1,0.49231220000001485,0.1,1,0,AccAcc,25,18,Woman,Right,
51,4,1,1.6014107999999396,['c'],0,right,['e'],0,0.9875015999987227,0.2,1,0,AccAcc,25,18,Woman,Right,
52,4,1,3.051354600000195,['c'],1,left,['e'],0,0.7004034000001411,0.4,0,0,AccAcc,25,18,Woman,Right,
53,4,1,1.3844074999997247,['n'],0,left,['e'],0,0.5874522000012803,0.1,1,0,AccAcc,25,18,Woman,Right,
54,4,1,2.7655238999996072,['c'],0,right,['e'],0,1.017661500000031,0.1,1,0,AccAcc,25,18,Woman,Right,
55,4,1,3.666721800000232,['c'],1,left,['e'],0,0.47907519999898796,0.1,0,0,AccAcc,25,18,Woman,Right,
56,4,1,0.967688900000212,['n'],1,right,['u'],1,0.4875218000015593,0.2,1,0,AccAcc,25,18,Woman,Right,
57,4,1,2.4003271000001405,['c'],1,left,['e'],0,2.8546607999996922,0.4,0,0,AccAcc,25,18,Woman,Right,
58,4,1,2.2175845999990997,['n'],0,left,['e'],0,0.6066464000014093,0.2,1,0,AccAcc,25,18,Woman,Right,
59,4,1,1.3500554999991436,['n'],0,left,['e'],0,0.4193142000003718,0.2,1,0,AccAcc,25,18,Woman,Right,
0,5,1,1.0488210000003164,['n'],1,right,['e'],0,2.361204999999245,0.4,0,0,FastAcc,25,18,Woman,Right,
1,5,1,1.01782810000077,['c'],1,left,['e'],0,3.5403279999991355,0.1,0,0,FastAcc,25,18,Woman,Right,
2,5,1,0.4684938999998849,['n'],1,right,['u'],1,0.8386230000014621,0.4,1,0,FastAcc,25,18,Woman,Right,
3,5,1,0.9350964999994176,['n'],1,right,['e'],0,2.4341923000010866,0.2,0,0,FastAcc,25,18,Woman,Right,
4,5,1,0.7009914999998728,['n'],1,right,['e'],0,2.7914462000007916,0.1,0,0,FastAcc,25,18,Woman,Right,
5,5,1,1.1004864999995334,['c'],1,left,['u'],1,1.486526099999537,0.4,1,0,FastAcc,25,18,Woman,Right,
6,5,1,1.1356696999991982,['c'],1,left,['u'],1,1.4484434000005422,0.4,1,0,FastAcc,25,18,Woman,Right,
7,5,1,1.9510014000006777,['n'],0,left,['e'],0,1.8268380999998044,0.1,1,0,FastAcc,25,18,Woman,Right,
8,5,1,0.6669411000002583,['n'],1,right,['e'],0,1.9540637000009156,0.1,0,0,FastAcc,25,18,Woman,Right,
9,5,1,0.767214999999851,['n'],0,left,['e'],0,2.5836961999993946,0.1,1,0,FastAcc,25,18,Woman,Right,
10,5,1,0.932215200000428,['n'],0,left,['e'],0,2.398854200000642,0.2,1,0,FastAcc,25,18,Woman,Right,
11,5,1,3.6004241999999067,['n'],0,left,['e'],0,1.232085300000108,0.1,1,0,FastAcc,25,18,Woman,Right,
12,5,1,1.1667928999995638,['c'],1,left,['e'],0,2.019482399999106,0.1,0,0,FastAcc,25,18,Woman,Right,
13,5,1,0.601512699999148,['n'],1,right,['e'],0,1.7242366999998922,0.4,0,0,FastAcc,25,18,Woman,Right,
14,5,1,1.6500813999991806,['n'],1,right,['e'],0,0.7761907000003703,0.1,0,0,FastAcc,25,18,Woman,Right,
15,5,1,0.6827300999993895,['n'],0,left,['e'],0,0.7217433999994682,0.4,1,0,FastAcc,25,18,Woman,Right,
16,5,1,0.8677184000007401,['n'],1,right,['u'],1,0.25947350000024016,0.2,1,0,FastAcc,25,18,Woman,Right,
17,5,1,1.268035000000964,['n'],1,right,['u'],1,1.9130136000003404,0.4,1,0,FastAcc,25,18,Woman,Right,
18,5,1,0.5341922000006889,['c'],1,left,['u'],1,1.4812283999999636,0.2,1,0,FastAcc,25,18,Woman,Right,
19,5,1,0.8339432999982819,['n'],1,right,['e'],0,1.5192237999999634,0.1,0,0,FastAcc,25,18,Woman,Right,
20,5,1,1.017948400000023,['n'],1,right,['e'],0,2.092276399998809,0.1,0,0,FastAcc,25,18,Woman,Right,
21,5,1,2.015539300000455,['n'],1,right,['e'],0,0.6843829999997979,0.2,0,0,FastAcc,25,18,Woman,Right,
22,5,1,0.6022893999997905,['n'],0,left,['e'],0,0.5697658999997657,0.1,1,0,FastAcc,25,18,Woman,Right,
23,5,1,0.617699200000061,['n'],0,left,['e'],0,0.7966209999995044,0.1,1,0,FastAcc,25,18,Woman,Right,
24,5,1,0.7175962999990588,['n'],0,left,['e'],0,1.1702186999991682,0.1,1,0,FastAcc,25,18,Woman,Right,
25,5,1,0.8179825999995955,['n'],1,right,['u'],1,2.629238200001055,0.1,1,0,FastAcc,25,18,Woman,Right,
26,5,1,0.6346147999993264,['n'],1,right,['u'],1,1.2373168999984046,0.2,1,0,FastAcc,25,18,Woman,Right,
27,5,1,1.6836759999987407,['n'],0,left,['e'],0,1.4428612000010617,0.2,1,0,FastAcc,25,18,Woman,Right,
28,5,1,1.3014117000002443,['c'],1,left,['e'],0,2.1519850000004226,0.2,0,0,FastAcc,25,18,Woman,Right,
29,5,1,0.8018387000010989,['n'],1,right,['u'],1,1.1724539999995613,0.2,1,0,FastAcc,25,18,Woman,Right,
30,5,1,3.067608100000143,['c'],1,left,['e'],0,1.549532300001374,0.1,0,0,FastAcc,25,18,Woman,Right,
31,5,1,0.9152075000001787,['c'],1,left,['e'],0,1.4387270999995962,0.4,0,0,FastAcc,25,18,Woman,Right,
32,5,1,0.6013645000002725,['n'],1,right,['u'],1,1.0225009999994654,0.4,1,0,FastAcc,25,18,Woman,Right,
33,5,1,1.0174337999997078,['n'],0,left,['u'],1,1.1674517999999807,0.1,0,0,FastAcc,25,18,Woman,Right,
34,5,1,0.5834293999996589,['n'],1,right,['e'],0,2.076554600000236,0.2,0,0,FastAcc,25,18,Woman,Right,
35,5,1,0.8680140000014944,['c'],0,right,['u'],1,1.5128054999986489,0.2,0,0,FastAcc,25,18,Woman,Right,
36,5,1,0.600497199999154,['n'],0,left,['e'],0,1.5585338000000775,0.4,1,0,FastAcc,25,18,Woman,Right,
37,5,1,0.667268499999409,['n'],0,left,['e'],0,1.3921953000008216,0.4,1,0,FastAcc,25,18,Woman,Right,
38,5,1,0.4840524999999616,['n'],0,left,['e'],0,1.160438200000499,0.2,1,0,FastAcc,25,18,Woman,Right,
39,5,1,1.1181780000006256,['c'],1,left,['e'],0,0.5603095000005851,0.1,0,0,FastAcc,25,18,Woman,Right,
40,5,1,0.5341442999997525,['n'],1,right,['e'],0,1.0303948999990098,0.4,0,0,FastAcc,25,18,Woman,Right,
41,5,1,0.534571700000015,['n'],1,right,['u'],1,0.9862573999998858,0.4,1,0,FastAcc,25,18,Woman,Right,
42,5,1,0.9335443999989366,['c'],0,right,['e'],0,1.856476200000543,0.2,1,0,FastAcc,25,18,Woman,Right,
43,5,1,1.017005000001518,['c'],1,left,['u'],1,1.1035532000005333,0.4,1,0,FastAcc,25,18,Woman,Right,
44,5,1,0.8680881000000227,['c'],0,right,['e'],0,1.2193834000008792,0.1,1,0,FastAcc,25,18,Woman,Right,
45,5,1,0.8508858000004693,['n'],1,right,['u'],1,1.2349662999986322,0.4,1,0,FastAcc,25,18,Woman,Right,
46,5,1,1.7491028000004007,['c'],0,right,['e'],0,0.7983175999997911,0.2,1,0,FastAcc,25,18,Woman,Right,
47,5,1,0.634582100001353,['n'],0,left,['e'],0,0.7430343000014545,0.2,1,0,FastAcc,25,18,Woman,Right,
48,5,1,0.5828285000006872,['n'],0,left,['e'],0,1.1417507999994996,0.4,1,0,FastAcc,25,18,Woman,Right,
49,5,1,0.8166436000010435,['n'],1,right,['e'],0,1.0656013999996503,0.4,0,0,FastAcc,25,18,Woman,Right,
50,5,1,1.200752900000225,['n'],1,right,['e'],0,0.9132943999993586,0.2,0,0,FastAcc,25,18,Woman,Right,
51,5,1,0.9003861999990477,['c'],1,left,['e'],0,1.1302025000004505,0.4,0,0,FastAcc,25,18,Woman,Right,
52,5,1,0.8669035000002623,['n'],1,right,['e'],0,1.3568015000000742,0.2,0,0,FastAcc,25,18,Woman,Right,
53,5,1,1.4174330000005284,['n'],1,right,['e'],0,2.0963485000011133,0.2,0,0,FastAcc,25,18,Woman,Right,
54,5,1,1.1012613999992027,['c'],1,left,['e'],0,1.3627747999998974,0.4,0,0,FastAcc,25,18,Woman,Right,
55,5,1,0.46756770000138204,['n'],0,left,['e'],0,1.052592399999412,0.1,1,0,FastAcc,25,18,Woman,Right,
56,5,1,0.7667046999995364,['n'],1,right,['e'],0,1.9259973000007449,0.2,0,0,FastAcc,25,18,Woman,Right,
57,5,1,0.452747499999532,['c'],1,left,['e'],0,1.7533015000008163,0.2,0,0,FastAcc,25,18,Woman,Right,
58,5,1,1.9508217000002332,['c'],1,left,['e'],0,0.6798424999997223,0.4,0,0,FastAcc,25,18,Woman,Right,
59,5,1,1.6332877999993798,['n'],1,right,['e'],0,1.1815010999998776,0.1,0,0,FastAcc,25,18,Woman,Right,
0,6,1,0.9842805999996926,['c'],0,right,['e'],0,0.6453170999993745,0.2,1,0,FastFast,25,18,Woman,Right,
1,6,1,0.9513958999996248,['c'],1,left,['e'],0,0.9996351000008872,0.2,0,0,FastFast,25,18,Woman,Right,
2,6,1,1.10102409999854,['n'],0,left,['e'],0,0.4862081000010221,0.2,1,0,FastFast,25,18,Woman,Right,
3,6,1,1.0693925000014133,['c'],0,right,['u'],1,0.4902602999991359,0.4,0,0,FastFast,25,18,Woman,Right,
4,6,1,0.5687405000007857,['n'],1,right,['u'],1,0.4345401000009588,0.4,1,0,FastFast,25,18,Woman,Right,
5,6,1,0.6842980999990687,['c'],1,left,['u'],1,0.6803343999999925,0.4,1,0,FastFast,25,18,Woman,Right,
6,6,1,1.1516096999985166,['c'],1,left,['u'],1,0.3370314999992843,0.4,1,0,FastFast,25,18,Woman,Right,
7,6,1,1.6177203000006557,['c'],1,left,['e'],0,0.7739882999994734,0.2,0,0,FastFast,25,18,Woman,Right,
8,6,1,1.4174497999993037,['c'],1,left,['e'],0,0.6243537999998807,0.1,0,0,FastFast,25,18,Woman,Right,
9,6,1,1.417647100000977,['c'],1,left,['e'],0,0.6574662999992142,0.2,0,0,FastFast,25,18,Woman,Right,
10,6,1,2.3346598999996786,['c'],0,right,['e'],0,0.4289641000013944,0.2,1,0,FastFast,25,18,Woman,Right,
11,6,1,1.1011889000001247,['n'],1,right,['e'],0,0.5454864000002999,0.1,0,0,FastFast,25,18,Woman,Right,
12,6,1,1.2161360999998578,['n'],0,left,['e'],0,0.4937873999988369,0.4,1,0,FastFast,25,18,Woman,Right,
13,6,1,0.6681388999986666,['c'],0,right,['e'],0,0.30546549999962735,0.2,1,0,FastFast,25,18,Woman,Right,
14,6,1,0.7836852000000363,['c'],1,left,['e'],0,0.3123336999997264,0.2,0,0,FastFast,25,18,Woman,Right,
15,6,1,1.8348638999996183,['c'],1,left,['e'],0,0.34126569999898493,0.1,0,0,FastFast,25,18,Woman,Right,
16,6,1,1.033839400000943,['n'],0,left,['e'],0,0.30458879999969213,0.4,1,0,FastFast,25,18,Woman,Right,
17,6,1,0.8683429000011529,['c'],1,left,['e'],0,0.19605670000055397,0.1,0,0,FastFast,25,18,Woman,Right,
18,6,1,1.1003074000000197,['n'],1,right,['e'],0,0.16203659999882802,0.2,0,0,FastFast,25,18,Woman,Right,
19,6,1,1.601365500000611,['c'],0,right,['u'],1,0.33382089999940945,0.4,0,0,FastFast,25,18,Woman,Right,
20,6,1,0.9680852000001323,['n'],1,right,['u'],1,0.3480510999997932,0.4,1,0,FastFast,25,18,Woman,Right,
21,6,1,1.2675830000007409,['c'],0,right,['e'],0,0.34989169999971637,0.4,1,0,FastFast,25,18,Woman,Right,
22,6,1,1.8678137000006245,['n'],1,right,['e'],0,0.35947639999903913,0.2,0,0,FastFast,25,18,Woman,Right,
23,6,1,1.049497899999551,['c'],0,right,['e'],0,1.139283599999544,0.4,1,0,FastFast,25,18,Woman,Right,
24,6,1,1.9180644000007305,['n'],0,left,['e'],0,0.23443240000051446,0.1,1,0,FastFast,25,18,Woman,Right,
25,6,1,1.1338352999991912,['n'],1,right,['e'],0,0.1981539000007615,0.2,0,0,FastFast,25,18,Woman,Right,
26,6,1,0.8515296999994462,['c'],1,left,['e'],0,0.2541349999992235,0.1,0,0,FastFast,25,18,Woman,Right,
27,6,1,0.6012793999998394,['c'],1,left,['e'],0,0.2384250000013708,0.4,0,0,FastFast,25,18,Woman,Right,
28,6,1,0.9350023999995756,['c'],1,left,['e'],0,0.22610160000112955,0.2,0,0,FastFast,25,18,Woman,Right,
29,6,1,0.6342201000006753,['n'],1,right,['u'],1,0.3236131000012392,0.2,1,0,FastFast,25,18,Woman,Right,
30,6,1,1.0849794999994629,['n'],1,right,['u'],1,0.5564988000005542,0.4,1,0,FastFast,25,18,Woman,Right,
31,6,1,0.6669074999990698,['c'],1,left,['u'],1,0.5109052000007068,0.4,1,0,FastFast,25,18,Woman,Right,
32,6,1,0.5519413000001805,['n'],0,left,['e'],0,0.5185094999997091,0.1,1,0,FastFast,25,18,Woman,Right,
33,6,1,1.3664093000006687,['c'],1,left,['e'],0,1.0376839000000473,0.1,0,0,FastFast,25,18,Woman,Right,
34,6,1,0.7523768999999447,['c'],1,left,['e'],0,0.24844209999901068,0.2,0,0,FastFast,25,18,Woman,Right,
35,6,1,0.48465650000071037,['n'],1,right,['e'],0,0.23721560000012687,0.4,0,0,FastFast,25,18,Woman,Right,
36,6,1,0.8514611999999033,['n'],1,right,['e'],0,0.7399998000000778,0.2,0,0,FastFast,25,18,Woman,Right,
37,6,1,0.9527257999998255,['c'],0,right,['e'],0,0.2751555000013468,0.1,1,0,FastFast,25,18,Woman,Right,
38,6,1,1.1173676999987947,['n'],1,right,['u'],1,0.15822549999938929,0.4,1,0,FastFast,25,18,Woman,Right,
39,6,1,1.2519570000004023,['c'],1,left,['e'],0,0.2324384999992617,0.2,0,0,FastFast,25,18,Woman,Right,
40,6,1,0.950179700001172,['n'],1,right,['e'],0,1.2272281000005023,0.1,0,0,FastFast,25,18,Woman,Right,
41,6,1,1.2013019000005443,['n'],0,left,['e'],0,0.20576169999912963,0.1,1,0,FastFast,25,18,Woman,Right,
42,6,1,0.6185776000002079,['n'],0,left,['e'],0,0.14246400000047288,0.1,1,0,FastFast,25,18,Woman,Right,
43,6,1,1.0838641000009375,['n'],1,right,['u'],1,0.17602930000066408,0.4,1,0,FastFast,25,18,Woman,Right,
44,6,1,0.7340891000003467,['n'],1,right,['u'],1,0.22219589999986056,0.4,1,0,FastFast,25,18,Woman,Right,
45,6,1,0.6497453000010864,['n'],1,right,['u'],1,0.22234070000013162,0.1,1,0,FastFast,25,18,Woman,Right,
46,6,1,1.3499819000007847,['n'],1,right,['e'],0,0.14617940000061935,0.1,0,0,FastFast,25,18,Woman,Right,
47,6,1,1.1184554999999818,['c'],1,left,['e'],0,0.3535355999993044,0.1,0,0,FastFast,25,18,Woman,Right,
48,6,1,1.1841045999990456,['c'],0,right,['e'],0,0.9341632000014215,0.4,1,0,FastFast,25,18,Woman,Right,
49,6,1,1.2671623000005638,['c'],1,left,['e'],0,0.4165227000012237,0.1,0,0,FastFast,25,18,Woman,Right,
50,6,1,0.7845254999992903,['c'],0,right,['e'],0,0.22667750000073283,0.2,1,0,FastFast,25,18,Woman,Right,
51,6,1,1.7845753000001423,['c'],1,left,['e'],0,0.24515149999933783,0.1,0,0,FastFast,25,18,Woman,Right,
52,6,1,0.8678213999992295,['n'],1,right,['e'],0,0.17061520000061137,0.2,0,0,FastFast,25,18,Woman,Right,
53,6,1,2.2343610000007175,['n'],1,right,['e'],0,0.1410677999992913,0.1,0,0,FastFast,25,18,Woman,Right,
54,6,1,0.9186645000008866,['n'],0,left,['e'],0,0.1493979999995645,0.2,1,0,FastFast,25,18,Woman,Right,
55,6,1,0.6182958999997936,['c'],1,left,['e'],0,0.15287919999900623,0.1,0,0,FastFast,25,18,Woman,Right,
56,6,1,0.567364099999395,['c'],0,right,['e'],0,0.17447290000018256,0.2,1,0,FastFast,25,18,Woman,Right,
57,6,1,1.1178620999999112,['n'],0,left,['e'],0,0.12531200000012177,0.4,1,0,FastFast,25,18,Woman,Right,
58,6,1,0.5829627999992226,['n'],0,left,['e'],0,0.10031289999824367,0.1,1,0,FastFast,25,18,Woman,Right,
59,6,1,0.6013296000000992,['n'],1,right,['u'],1,0.2977713999989646,0.4,1,0,FastFast,25,18,Woman,Right,
0,7,1,2.5683842999987974,['n'],1,right,['e'],0,0.13387519999923825,0.1,0,0,AccFast,25,18,Woman,Right,
1,7,1,3.3184840000012628,['c'],1,left,['u'],1,0.1426859000002878,0.1,1,0,AccFast,25,18,Woman,Right,
2,7,1,1.5997067999996943,['c'],0,right,['e'],0,0.2043716999996832,0.2,1,0,AccFast,25,18,Woman,Right,
3,7,1,2.8345388999987335,['n'],0,left,['e'],0,0.11675409999952535,0.1,1,0,AccFast,25,18,Woman,Right,
4,7,1,2.1163415999999415,['n'],1,right,['e'],0,0.07846849999987171,0.2,0,0,AccFast,25,18,Woman,Right,
5,7,1,1.8163801000009698,['c'],0,right,['e'],0,0.1814154999992752,0.1,1,0,AccFast,25,18,Woman,Right,
6,7,1,1.384042199999385,['n'],0,left,['e'],0,0.12003659999936644,0.1,1,0,AccFast,25,18,Woman,Right,
7,7,1,1.366429199999402,['c'],1,left,['e'],0,0.17503869999927701,0.4,0,0,AccFast,25,18,Woman,Right,
8,7,1,1.1841058999998495,['c'],1,left,['e'],0,0.1554895999997825,0.4,0,0,AccFast,25,18,Woman,Right,
9,7,1,2.4676196000000346,['c'],1,left,['e'],0,0.16507039999851258,0.1,0,0,AccFast,25,18,Woman,Right,
10,7,1,1.3664306000009674,['n'],1,right,['e'],0,1.4994231000000582,0.4,0,0,AccFast,25,18,Woman,Right,
11,7,1,1.6172122999996645,['n'],0,left,['e'],0,0.1277788999996119,0.2,1,0,AccFast,25,18,Woman,Right,
12,7,1,0.7507574999999633,['c'],1,left,['e'],0,0.17524990000129037,0.2,0,0,AccFast,25,18,Woman,Right,
13,7,1,3.550696100001005,['n'],1,right,['u'],1,0.15818960000069637,0.4,1,0,AccFast,25,18,Woman,Right,
14,7,1,2.000142800001413,['n'],1,right,['e'],0,0.12218420000135666,0.2,0,0,AccFast,25,18,Woman,Right,
15,7,1,1.2507688000005146,['n'],1,right,['u'],1,0.14910589999999502,0.4,1,0,AccFast,25,18,Woman,Right,
16,7,1,1.1838584000015544,['c'],1,left,['u'],1,0.17804720000094676,0.4,1,0,AccFast,25,18,Woman,Right,
17,7,1,0.7676095999995596,['n'],1,right,['u'],1,0.28725630000008096,0.4,1,0,AccFast,25,18,Woman,Right,
18,7,1,1.4848935000009078,['c'],0,right,['e'],0,1.114839399999255,0.1,1,0,AccFast,25,18,Woman,Right,
19,7,1,1.1835842999989836,['n'],1,right,['e'],0,0.08171199999924283,0.1,0,0,AccFast,25,18,Woman,Right,
20,7,1,1.334712199999558,['c'],1,left,['u'],1,0.5386715000004187,0.4,1,0,AccFast,25,18,Woman,Right,
21,7,1,1.4847599000004266,['c'],1,left,['e'],0,0.12441339999895717,0.4,0,0,AccFast,25,18,Woman,Right,
22,7,1,1.8010512000000745,['n'],0,left,['e'],0,0.6421300999991217,0.2,1,0,AccFast,25,18,Woman,Right,
23,7,1,1.5836875999993936,['c'],0,right,['e'],0,0.15630619999865303,0.1,1,0,AccFast,25,18,Woman,Right,
24,7,1,2.284682799998336,['n'],1,right,['e'],0,0.06087669999942591,0.4,0,0,AccFast,25,18,Woman,Right,
25,7,1,2.150761099999727,['n'],1,right,['e'],0,0.023368399999526446,0.2,0,0,AccFast,25,18,Woman,Right,
26,7,1,1.6008037999999942,['c'],1,left,['e'],0,0.07328180000149587,0.2,0,0,AccFast,25,18,Woman,Right,
27,7,1,1.8511470000012196,['c'],0,right,['e'],0,0.11087099999895145,0.2,1,0,AccFast,25,18,Woman,Right,
28,7,1,1.6514366999999766,['n'],0,left,['e'],0,0.05885699999998906,0.1,1,0,AccFast,25,18,Woman,Right,
29,7,1,1.1180812000002334,['c'],1,left,['e'],0,0.15846480000072916,0.4,0,0,AccFast,25,18,Woman,Right,
30,7,1,1.4346285999999964,['c'],1,left,['u'],1,0.1933069999995496,0.4,1,0,AccFast,25,18,Woman,Right,
31,7,1,1.9690707999998267,['n'],1,right,['u'],1,0.22163020000152756,0.1,1,0,AccFast,25,18,Woman,Right,
32,7,1,0.8010905999999522,['n'],1,right,['u'],1,0.1674038000001019,0.1,1,0,AccFast,25,18,Woman,Right,
33,7,1,2.950950300000841,['c'],0,right,['e'],0,0.15789439999934984,0.2,1,0,AccFast,25,18,Woman,Right,
34,7,1,1.2676366999985476,['n'],1,right,['e'],0,0.3910742999996728,0.1,0,0,AccFast,25,18,Woman,Right,
35,7,1,1.983138700001291,['n'],1,right,['u'],1,0.15451070000017353,0.2,1,0,AccFast,25,18,Woman,Right,
36,7,1,1.8679603000000498,['n'],1,right,['e'],0,0.12448000000040338,0.2,0,0,AccFast,25,18,Woman,Right,
37,7,1,1.8179904999997234,['n'],0,left,['e'],0,0.12945009999930335,0.2,1,0,AccFast,25,18,Woman,Right,
38,7,1,2.400870200001009,['n'],1,right,['e'],0,0.11068479999994452,0.4,0,0,AccFast,25,18,Woman,Right,
39,7,1,1.8683132999994996,['n'],1,right,['e'],0,0.09783769999921788,0.2,0,0,AccFast,25,18,Woman,Right,
40,7,1,1.549645999999484,['c'],0,right,['e'],0,0.146847500000149,0.1,1,0,AccFast,25,18,Woman,Right,
41,7,1,0.7673149000002013,['n'],0,left,['e'],0,0.9278047000007064,0.2,1,0,AccFast,25,18,Woman,Right,
42,7,1,1.1996794999995473,['n'],1,right,['e'],0,0.06305450000036217,0.2,0,0,AccFast,25,18,Woman,Right,
43,7,1,1.8178360000001703,['c'],1,left,['u'],1,0.08611890000065614,0.4,1,0,AccFast,25,18,Woman,Right,
44,7,1,0.9509620999997423,['c'],1,left,['u'],1,0.7501603999990039,0.4,1,0,AccFast,25,18,Woman,Right,
45,7,1,2.5011169999997946,['c'],1,left,['e'],0,0.014970700000048964,0.2,0,0,AccFast,25,18,Woman,Right,
46,7,1,1.4017515999985335,['n'],1,right,['u'],1,0.10410659999979543,0.4,1,0,AccFast,25,18,Woman,Right,
47,7,1,1.1349946999998792,['c'],1,left,['u'],1,0.10540240000045742,0.4,1,0,AccFast,25,18,Woman,Right,
48,7,1,0.9839757999998255,['n'],1,right,['u'],1,0.048107599999639206,0.4,1,0,AccFast,25,18,Woman,Right,
49,7,1,1.3509734999988723,['c'],1,left,['u'],1,0.15430749999904947,0.2,1,0,AccFast,25,18,Woman,Right,
50,7,1,1.8004070000006323,['c'],1,left,['e'],0,0.1110722999983409,0.2,0,0,AccFast,25,18,Woman,Right,
51,7,1,1.901259399999617,['n'],1,right,['e'],0,0.0648908000002848,0.1,0,0,AccFast,25,18,Woman,Right,
52,7,1,1.1181747000009636,['c'],1,left,['e'],0,0.08389609999903769,0.2,0,0,AccFast,25,18,Woman,Right,
53,7,1,1.7180141000008007,['n'],0,left,['e'],0,0.0625251000001299,0.1,1,0,AccFast,25,18,Woman,Right,
54,7,1,1.6006493000004411,['c'],1,left,['e'],0,0.07785530000001017,0.1,0,0,AccFast,25,18,Woman,Right,
55,7,1,1.2510695999990276,['n'],0,left,['u'],1,0.09156239999902027,0.4,0,0,AccFast,25,18,Woman,Right,
56,7,1,1.3165771999993012,['c'],1,left,['u'],1,0.1188916999999492,0.4,1,0,AccFast,25,18,Woman,Right,
57,7,1,1.7162029999999504,['c'],1,left,['e'],0,3.744206400000621,0.1,0,0,AccFast,25,18,Woman,Right,
58,7,1,1.59947160000047,['c'],0,right,['e'],0,0.09356519999892043,0.1,1,0,AccFast,25,18,Woman,Right,
59,7,1,1.3849394000008033,['n'],1,right,['e'],0,0.051918099999966216,0.1,0,0,AccFast,25,18,Woman,Right,
0,8,1,3.4171220999996876,['c'],1,left,['e'],0,1.0706026000007114,0.2,0,0,AccAcc,25,18,Woman,Right,
1,8,1,0.8847490999996808,['c'],1,left,['u'],1,0.8989978999998129,0.4,1,0,AccAcc,25,18,Woman,Right,
2,8,1,1.0511974000000919,['n'],0,left,['e'],0,0.9353305000004184,0.2,1,0,AccAcc,25,18,Woman,Right,
3,8,1,0.9680226000000403,['c'],1,left,['u'],1,1.2295788999999786,0.4,1,0,AccAcc,25,18,Woman,Right,
4,8,1,0.7507901999997557,['c'],1,left,['u'],1,1.2645423999983905,0.4,1,0,AccAcc,25,18,Woman,Right,
5,8,1,0.9017041000006429,['n'],1,right,['u'],1,0.8123923999992257,0.2,1,0,AccAcc,25,18,Woman,Right,
6,8,1,1.7344410000005155,['c'],1,left,['e'],0,0.9845041999997193,0.1,0,0,AccAcc,25,18,Woman,Right,
7,8,1,0.917254399999365,['n'],1,right,['u'],1,1.6950166999995417,0.2,1,0,AccAcc,25,18,Woman,Right,
8,8,1,1.0677581999989343,['n'],1,right,['e'],0,0.8348437000004196,0.2,0,0,AccAcc,25,18,Woman,Right,
9,8,1,0.9004342000007455,['n'],0,left,['e'],0,0.767922400000316,0.4,1,0,AccAcc,25,18,Woman,Right,
10,8,1,1.2834623999988253,['c'],1,left,['e'],0,0.7520119999990129,0.2,0,0,AccAcc,25,18,Woman,Right,
11,8,1,0.7510229999988951,['n'],1,right,['u'],1,1.5104105999998865,0.2,1,0,AccAcc,25,18,Woman,Right,
12,8,1,0.7840371000002051,['n'],1,right,['e'],0,0.7336141999985557,0.1,0,0,AccAcc,25,18,Woman,Right,
13,8,1,2.3679547000010643,['c'],1,left,['e'],0,1.1399089000005915,0.2,0,0,AccAcc,25,18,Woman,Right,
14,8,1,1.0842663000003085,['n'],1,right,['e'],0,1.101513800000248,0.1,0,0,AccAcc,25,18,Woman,Right,
15,8,1,1.4680623999993259,['c'],1,left,['e'],0,0.48936089999915566,0.2,0,0,AccAcc,25,18,Woman,Right,
16,8,1,3.40085210000143,['n'],0,left,['e'],0,0.9767556000006152,0.1,1,0,AccAcc,25,18,Woman,Right,
17,8,1,2.4341445000009116,['n'],1,right,['e'],0,0.6668059000003268,0.1,0,0,AccAcc,25,18,Woman,Right,
18,8,1,2.1678909000002022,['c'],0,right,['e'],0,0.9399711999994906,0.2,1,0,AccAcc,25,18,Woman,Right,
19,8,1,1.0835652999994636,['n'],1,right,['e'],0,1.3576570000004722,0.2,0,0,AccAcc,25,18,Woman,Right,
20,8,1,1.88495630000034,['c'],1,left,['e'],0,0.7509853999999905,0.1,0,0,AccAcc,25,18,Woman,Right,
21,8,1,0.7011311999995087,['n'],1,right,['e'],0,1.5590954999988753,0.2,0,0,AccAcc,25,18,Woman,Right,
22,8,1,1.5168403999996372,['n'],0,left,['e'],0,1.1989868999989994,0.1,1,0,AccAcc,25,18,Woman,Right,
23,8,1,0.8172561000010319,['n'],0,left,['e'],0,1.0724499999996624,0.1,1,0,AccAcc,25,18,Woman,Right,
24,8,1,1.8661831000008533,['c'],1,left,['u'],1,1.2458176000000094,0.2,1,0,AccAcc,25,18,Woman,Right,
25,8,1,2.634385100000145,['c'],1,left,['e'],0,1.092933300000368,0.1,0,0,AccAcc,25,18,Woman,Right,
26,8,1,3.7347984000007273,['c'],1,left,['e'],0,1.1429834999999002,0.4,0,0,AccAcc,25,18,Woman,Right,
27,8,1,0.8847619999996823,['n'],1,right,['u'],1,1.480586300000141,0.4,1,0,AccAcc,25,18,Woman,Right,
28,8,1,1.3847538999998505,['n'],0,left,['e'],0,0.5363673000010749,0.4,1,0,AccAcc,25,18,Woman,Right,
29,8,1,1.0828121999984432,['n'],1,right,['e'],0,1.4348937999984628,0.1,0,0,AccAcc,25,18,Woman,Right,
30,8,1,1.4676650000001246,['c'],0,right,['e'],0,1.7683952999996109,0.4,1,0,AccAcc,25,18,Woman,Right,
31,8,1,0.9353568000005907,['n'],1,right,['e'],0,1.7588462000003346,0.1,0,0,AccAcc,25,18,Woman,Right,
32,8,1,1.7331726999982493,['c'],0,right,['e'],0,0.838189300000522,0.4,1,0,AccAcc,25,18,Woman,Right,
33,8,1,1.0665998999993462,['n'],1,right,['e'],0,0.9248136000005616,0.2,0,0,AccAcc,25,18,Woman,Right,
34,8,1,1.801163500000257,['n'],1,right,['e'],0,0.27406519999931334,0.1,0,0,AccAcc,25,18,Woman,Right,
35,8,1,1.0016783999999461,['n'],0,left,['e'],0,0.2257011000001512,0.1,1,0,AccAcc,25,18,Woman,Right,
36,8,1,1.0501909000013256,['n'],0,left,['e'],0,0.5776934000004985,0.1,1,0,AccAcc,25,18,Woman,Right,
37,8,1,2.266478300000017,['n'],1,right,['e'],0,0.6752004999998462,0.1,0,0,AccAcc,25,18,Woman,Right,
38,8,1,2.1668519000013475,['c'],0,right,['e'],0,0.6593666000007943,0.4,1,0,AccAcc,25,18,Woman,Right,
39,8,1,2.6332210000000487,['c'],1,left,['e'],0,0.8997151999992639,0.2,0,0,AccAcc,25,18,Woman,Right,
40,8,1,1.1010707000004913,['c'],1,left,['e'],0,1.3010401999999885,0.4,0,0,AccAcc,25,18,Woman,Right,
41,8,1,2.584074899999905,['c'],0,right,['e'],0,1.1002965000006952,0.2,1,0,AccAcc,25,18,Woman,Right,
42,8,1,0.8670287000004464,['c'],1,left,['u'],1,0.5597073999997519,0.4,1,0,AccAcc,25,18,Woman,Right,
43,8,1,1.4679304000001139,['n'],1,right,['u'],1,1.5056110000004992,0.4,1,0,AccAcc,25,18,Woman,Right,
44,8,1,1.116334199999983,['n'],1,right,['u'],1,0.651691999999457,0.4,1,0,AccAcc,25,18,Woman,Right,
45,8,1,1.3167711999994935,['c'],0,right,['e'],0,1.423739800000476,0.1,1,0,AccAcc,25,18,Woman,Right,
46,8,1,1.1847550999991654,['n'],1,right,['e'],0,2.9212970999997196,0.2,0,0,AccAcc,25,18,Woman,Right,
47,8,1,1.2844597000002977,['c'],1,left,['e'],0,1.2359298000010313,0.2,0,0,AccAcc,25,18,Woman,Right,
48,8,1,2.7831281999988278,['c'],0,right,['e'],0,0.8378723000005266,0.4,1,0,AccAcc,25,18,Woman,Right,
49,8,1,1.884172199999739,['c'],1,left,['e'],0,1.1957606000014493,0.4,0,0,AccAcc,25,18,Woman,Right,
50,8,1,1.068077699999776,['n'],1,right,['e'],0,1.539158800000223,0.4,0,0,AccAcc,25,18,Woman,Right,
51,8,1,1.7177328999987367,['n'],1,right,['e'],0,2.1157321999999112,0.2,0,0,AccAcc,25,18,Woman,Right,
52,8,1,1.7511156000000483,['c'],0,right,['e'],0,0.955902599998808,0.1,1,0,AccAcc,25,18,Woman,Right,
53,8,1,0.8686335000002146,['n'],0,left,['e'],0,0.4052757000008569,0.4,1,0,AccAcc,25,18,Woman,Right,
54,8,1,0.7845579000004363,['n'],1,right,['e'],0,0.36088829999971495,0.4,0,0,AccAcc,25,18,Woman,Right,
55,8,1,2.434277199999997,['c'],1,left,['e'],0,0.6191154999996797,0.1,0,0,AccAcc,25,18,Woman,Right,
56,8,1,2.384597100000974,['n'],0,left,['e'],0,2.885653100000127,0.4,1,0,AccAcc,25,18,Woman,Right,
57,8,1,2.451404299999922,['n'],1,right,['e'],0,3.154970300000059,0.1,0,0,AccAcc,25,18,Woman,Right,
58,8,1,0.8347040999997262,['c'],1,left,['u'],1,1.2544188000010763,0.2,1,0,AccAcc,25,18,Woman,Right,
59,8,1,3.266451200001029,['c'],1,left,['e'],0,0.6287842000001547,0.1,0,0,AccAcc,25,18,Woman,Right,
0,9,1,3.0341059999991558,['c'],1,left,['e'],0,1.2482937999993737,0.1,0,0,FastAcc,25,18,Woman,Right,
1,9,1,0.9340601000003517,['n'],0,left,['e'],0,1.7874666999996407,0.4,1,0,FastAcc,25,18,Woman,Right,
2,9,1,1.0176596000001155,['n'],1,right,['e'],0,1.5979762000006303,0.1,0,0,FastAcc,25,18,Woman,Right,
3,9,1,1.0169678000002023,['c'],1,left,['e'],0,0.8561391999992338,0.2,0,0,FastAcc,25,18,Woman,Right,
4,9,1,0.949967700000343,['n'],0,left,['e'],0,1.2830957000005583,0.1,1,0,FastAcc,25,18,Woman,Right,
5,9,1,0.6513519000000088,['n'],0,left,['e'],0,0.9349027999996906,0.4,1,0,FastAcc,25,18,Woman,Right,
6,9,1,1.2830042999994475,['n'],0,left,['e'],0,2.7211807999992743,0.1,1,0,FastAcc,25,18,Woman,Right,
7,9,1,0.6677526999992551,['n'],0,left,['e'],0,1.3244510000004084,0.4,1,0,FastAcc,25,18,Woman,Right,
8,9,1,1.0673045000003185,['n'],0,left,['e'],0,2.718846499999927,0.2,1,0,FastAcc,25,18,Woman,Right,
9,9,1,0.883847600000081,['n'],1,right,['e'],0,1.7452963000014279,0.2,0,0,FastAcc,25,18,Woman,Right,
10,9,1,0.9177488000004814,['n'],1,right,['e'],0,1.3210804000009375,0.2,0,0,FastAcc,25,18,Woman,Right,
11,9,1,0.9176298999991559,['c'],1,left,['u'],1,1.4099669000006543,0.4,1,0,FastAcc,25,18,Woman,Right,
12,9,1,0.7690130999999383,['n'],0,left,['u'],1,1.4697995999995328,0.2,0,0,FastAcc,25,18,Woman,Right,
13,9,1,0.7673598999990645,['n'],1,right,['u'],1,0.7427798000007897,0.4,1,0,FastAcc,25,18,Woman,Right,
14,9,1,0.6510392000000138,['n'],1,right,['u'],1,0.5619423999996798,0.1,1,0,FastAcc,25,18,Woman,Right,
15,9,1,0.6843428000011045,['c'],1,left,['u'],1,0.8340296999995189,0.4,1,0,FastAcc,25,18,Woman,Right,
16,9,1,1.966936299999361,['n'],0,left,['e'],0,0.8683406000000105,0.4,1,0,FastAcc,25,18,Woman,Right,
17,9,1,0.633359699999346,['n'],1,right,['u'],1,1.00322320000123,0.2,1,0,FastAcc,25,18,Woman,Right,
18,9,1,1.0680871000004117,['n'],1,right,['e'],0,1.2102857999998378,0.1,0,0,FastAcc,25,18,Woman,Right,
19,9,1,0.8340150000003632,['c'],1,left,['e'],0,1.339330600001631,0.4,0,0,FastAcc,25,18,Woman,Right,
20,9,1,1.734285299999101,['c'],0,right,['e'],0,0.883286300000691,0.2,1,0,FastAcc,25,18,Woman,Right,
21,9,1,0.6833079000007274,['n'],1,right,['u'],1,0.678953000000547,0.1,1,0,FastAcc,25,18,Woman,Right,
22,9,1,1.1016963000001851,['c'],1,left,['e'],0,1.1216578999992635,0.2,0,0,FastAcc,25,18,Woman,Right,
23,9,1,1.0512607000000571,['n'],1,right,['e'],0,2.5573872000004485,0.1,0,0,FastAcc,25,18,Woman,Right,
24,9,1,1.1179489999994985,['n'],1,right,['e'],0,1.4693531999982952,0.1,0,0,FastAcc,25,18,Woman,Right,
25,9,1,0.8677742999989277,['n'],0,left,['e'],0,1.8904044999999314,0.1,1,0,FastAcc,25,18,Woman,Right,
26,9,1,0.7510344000002078,['n'],0,left,['e'],0,2.091513899998972,0.1,1,0,FastAcc,25,18,Woman,Right,
27,9,1,1.9160327999998117,['n'],1,right,['e'],0,0.8624352999995608,0.1,0,0,FastAcc,25,18,Woman,Right,
28,9,1,0.7504453000001376,['n'],0,left,['e'],0,0.8477444000000105,0.2,1,0,FastAcc,25,18,Woman,Right,
29,9,1,0.8004971999998816,['n'],0,left,['e'],0,1.6319975999995222,0.1,1,0,FastAcc,25,18,Woman,Right,
30,9,1,0.7491216999987955,['c'],1,left,['e'],0,1.508277499999167,0.2,0,0,FastAcc,25,18,Woman,Right,
31,9,1,0.4185245999997278,['n'],1,right,['u'],1,1.2566838000002463,0.2,1,0,FastAcc,25,18,Woman,Right,
32,9,1,1.0339423999994324,['c'],1,left,['e'],0,1.1515326999997342,0.1,0,0,FastAcc,25,18,Woman,Right,
33,9,1,0.6512037000011333,['n'],1,right,['e'],0,0.9060384999993403,0.4,0,0,FastAcc,25,18,Woman,Right,
34,9,1,0.7502874999991036,['n'],0,left,['e'],0,3.675057000000379,0.2,1,0,FastAcc,25,18,Woman,Right,
35,9,1,1.6337224999988393,['n'],1,right,['e'],0,0.7769974000002549,0.4,0,0,FastAcc,25,18,Woman,Right,
36,9,1,0.600952499999039,['c'],1,left,['u'],1,1.1088651000009122,0.4,1,0,FastAcc,25,18,Woman,Right,
37,9,1,1.2176412000007986,['n'],1,right,['e'],0,1.914395499999955,0.2,0,0,FastAcc,25,18,Woman,Right,
38,9,1,2.3682432000005065,['n'],0,left,['e'],0,2.081430800000817,0.4,1,0,FastAcc,25,18,Woman,Right,
39,9,1,0.5848146000007546,['n'],1,right,['e'],0,1.5294236000008823,0.4,0,0,FastAcc,25,18,Woman,Right,
40,9,1,0.9000596000005316,['c'],0,right,['e'],0,1.0669312000009086,0.1,1,0,FastAcc,25,18,Woman,Right,
41,9,1,1.2010454999999638,['n'],1,right,['e'],0,0.37003120000008494,0.1,0,0,FastAcc,25,18,Woman,Right,
42,9,1,1.7686520000006567,['n'],1,right,['e'],0,0.4952339999999822,0.4,0,0,FastAcc,25,18,Woman,Right,
43,9,1,1.484210799999346,['n'],1,right,['e'],0,1.7780375000002095,0.4,0,0,FastAcc,25,18,Woman,Right,
44,9,1,0.7342277000007016,['c'],1,left,['e'],0,1.727863800000705,0.4,0,0,FastAcc,25,18,Woman,Right,
45,9,1,1.8503567999996449,['n'],0,left,['e'],0,1.8438067000006413,0.4,1,0,FastAcc,25,18,Woman,Right,
46,9,1,0.8176085999984934,['n'],1,right,['e'],0,2.7160741000006965,0.2,0,0,FastAcc,25,18,Woman,Right,
47,9,1,0.7664552000005642,['n'],1,right,['e'],0,3.731921799999327,0.2,0,0,FastAcc,25,18,Woman,Right,
48,9,1,0.5167958000001818,['n'],1,right,['u'],1,1.1958826999998564,0.4,1,0,FastAcc,25,18,Woman,Right,
49,9,1,0.8012397999991663,['c'],1,left,['e'],0,1.9339721999986068,0.1,0,0,FastAcc,25,18,Woman,Right,
50,9,1,0.4177868999995553,['n'],1,right,['e'],0,1.682573100000809,0.4,0,0,FastAcc,25,18,Woman,Right,
51,9,1,1.1665162999997847,['c'],0,right,['e'],0,1.4912710000007792,0.2,1,0,FastAcc,25,18,Woman,Right,
52,9,1,1.1510254999993776,['n'],1,right,['e'],0,1.388284200000271,0.1,0,0,FastAcc,25,18,Woman,Right,
53,9,1,0.7673807999999553,['n'],1,right,['e'],0,1.28837779999958,0.2,0,0,FastAcc,25,18,Woman,Right,
54,9,1,0.5341957000000548,['c'],1,left,['u'],1,1.3300603999996383,0.4,1,0,FastAcc,25,18,Woman,Right,
55,9,1,0.43434979999983625,['n'],1,right,['e'],0,1.325786599998537,0.1,0,0,FastAcc,25,18,Woman,Right,
56,9,1,0.7005005999999412,['n'],1,right,['e'],0,2.080124199999773,0.2,0,0,FastAcc,25,18,Woman,Right,
57,9,1,1.3827758000006725,['n'],0,left,['e'],0,1.0322500000002037,0.2,1,0,FastAcc,25,18,Woman,Right,
58,9,1,0.8841087999990123,['c'],1,left,['e'],0,1.2609482999996544,0.1,0,0,FastAcc,25,18,Woman,Right,
59,9,1,1.0347042000012152,['n'],0,left,['e'],0,1.2680853999991086,0.2,1,0,FastAcc,25,18,Woman,Right,
0,10,1,0.933988099999624,['n'],0,left,['e'],0,0.06550760000027367,0.1,1,0,FastFast,25,18,Woman,Right,
1,10,1,1.2328887000003306,['n'],1,right,['e'],0,0.09698680000110471,0.2,0,0,FastFast,25,18,Woman,Right,
2,10,1,0.9181680000001506,['c'],1,left,['e'],0,0.12159969999993336,0.1,0,0,FastFast,25,18,Woman,Right,
3,10,1,0.8180906000015966,['n'],1,right,['u'],1,0.21417339999970864,0.4,1,0,FastFast,25,18,Woman,Right,
4,10,1,0.7513847999998688,['c'],1,left,['u'],1,0.3217368000005081,0.4,1,0,FastFast,25,18,Woman,Right,
5,10,1,1.267714600000545,['n'],0,left,['e'],0,0.052762600000278326,0.1,1,0,FastFast,25,18,Woman,Right,
6,10,1,1.3177119000010862,['c'],1,left,['u'],1,0.0643168999995396,0.4,1,0,FastFast,25,18,Woman,Right,
7,10,1,1.2513527999999496,['n'],0,left,['e'],0,0.0779491000012058,0.1,1,0,FastFast,25,18,Woman,Right,
8,10,1,1.0005848999990121,['n'],0,left,['e'],0,0.03755700000147044,0.1,1,0,FastFast,25,18,Woman,Right,
9,10,1,1.1010920999997325,['n'],1,right,['e'],0,0.05835280000064813,0.1,0,0,FastFast,25,18,Woman,Right,
10,10,1,0.9012309999998251,['c'],0,right,['e'],0,0.10252760000003036,0.4,1,0,FastFast,25,18,Woman,Right,
11,10,1,0.9339658999997482,['n'],1,right,['e'],0,0.06357010000101582,0.1,0,0,FastFast,25,18,Woman,Right,
12,10,1,0.8339030999995884,['c'],0,right,['e'],0,0.12610099999983504,0.2,1,0,FastFast,25,18,Woman,Right,
13,10,1,0.8002189999988332,['n'],0,left,['e'],0,0.028117500000007567,0.2,1,0,FastFast,25,18,Woman,Right,
14,10,1,0.8344329000010475,['n'],0,left,['e'],0,0.059471799999300856,0.4,1,0,FastFast,25,18,Woman,Right,
15,10,1,0.9011814999994385,['c'],0,right,['u'],1,0.0879227000004903,0.4,0,0,FastFast,25,18,Woman,Right,
16,10,1,1.7012171000005765,['n'],0,left,['e'],0,0.03511900000012247,0.4,1,0,FastFast,25,18,Woman,Right,
17,10,1,0.5510276999993948,['n'],1,right,['e'],0,0.10986550000052375,0.2,0,0,FastFast,25,18,Woman,Right,
18,10,1,1.0679417999999714,['c'],0,right,['e'],0,0.1773276000003534,0.2,1,0,FastFast,25,18,Woman,Right,
19,10,1,0.8504866000002949,['n'],1,right,['e'],0,0.106834299998809,0.2,0,0,FastFast,25,18,Woman,Right,
20,10,1,0.8346303000016633,['c'],1,left,['e'],0,0.10397929999999178,0.1,0,0,FastFast,25,18,Woman,Right,
21,10,1,0.8178530999994109,['n'],1,right,['e'],0,0.037469400000190944,0.1,0,0,FastFast,25,18,Woman,Right,
22,10,1,0.8511863000003359,['c'],1,left,['e'],0,0.03632880000077421,0.4,0,0,FastFast,25,18,Woman,Right,
23,10,1,1.016909100000703,['n'],0,left,['e'],0,0.0444707999995444,0.4,1,0,FastFast,25,18,Woman,Right,
24,10,1,1.2512282999996387,['n'],1,right,['e'],0,0.05947980000019015,0.4,0,0,FastFast,25,18,Woman,Right,
25,10,1,1.4345769999999902,['c'],0,right,['e'],0,1.0426424000015686,0.4,1,0,FastFast,25,18,Woman,Right,
26,10,1,1.784458000000086,['n'],1,right,['e'],0,0.021785599999930128,0.4,0,0,FastFast,25,18,Woman,Right,
27,10,1,0.9000806999993074,['c'],1,left,['e'],0,2.515268899998773,0.2,0,0,FastFast,25,18,Woman,Right,
28,10,1,2.1346659999999247,['c'],0,right,['e'],0,0.8903852999992523,0.2,1,0,FastFast,25,18,Woman,Right,
29,10,1,0.983380000001489,['c'],0,right,['e'],0,0.5627612000007503,0.1,1,0,FastFast,25,18,Woman,Right,
30,10,1,0.7177570999992895,['c'],0,right,['e'],0,0.12901140000030864,0.1,1,0,FastFast,25,18,Woman,Right,
31,10,1,1.1673737000000983,['n'],1,right,['e'],0,0.03147729999909643,0.2,0,0,FastFast,25,18,Woman,Right,
32,10,1,0.9181826000003639,['c'],1,left,['e'],0,0.07504030000018247,0.2,0,0,FastFast,25,18,Woman,Right,
33,10,1,0.7683935999993992,['c'],1,left,['e'],0,0.028555499999129097,0.2,0,0,FastFast,25,18,Woman,Right,
34,10,1,1.2010793999997986,['c'],1,left,['e'],0,0.09338099999877159,0.4,0,0,FastFast,25,18,Woman,Right,
35,10,1,0.8843767999987904,['n'],1,right,['e'],0,0.04086780000034196,0.1,0,0,FastFast,25,18,Woman,Right,
36,10,1,1.0836796000003233,['n'],0,left,['e'],0,0.06267120000120485,0.4,1,0,FastFast,25,18,Woman,Right,
37,10,1,0.7837454000000434,['n'],0,left,['e'],0,0.09488299999975425,0.1,1,0,FastFast,25,18,Woman,Right,
38,10,1,0.41727259999970556,['c'],1,left,['e'],0,0.10911019999912241,0.1,0,0,FastFast,25,18,Woman,Right,
39,10,1,0.3514431000003242,['n'],0,left,['e'],0,0.12545809999937774,0.2,1,0,FastFast,25,18,Woman,Right,
40,10,1,0.4014263999997638,['c'],0,right,['e'],0,0.09063380000043253,0.4,1,0,FastFast,25,18,Woman,Right,
41,10,1,0.6501987999999983,['n'],1,right,['e'],0,0.08041190000039933,0.2,0,0,FastFast,25,18,Woman,Right,
42,10,1,0.86766660000103,['n'],0,left,['e'],0,0.09195109999927809,0.1,1,0,FastFast,25,18,Woman,Right,
43,10,1,0.9501483000003645,['c'],1,left,['e'],0,0.005687299999408424,0.2,0,0,FastFast,25,18,Woman,Right,
44,10,1,0.6006926999998541,['n'],0,left,['e'],0,0.06293539999933273,0.1,1,0,FastFast,25,18,Woman,Right,
45,10,1,0.36738310000146157,['c'],1,left,['e'],0,0.0957299999990937,0.4,0,0,FastFast,25,18,Woman,Right,
46,10,1,0.48433460000160267,['n'],0,left,['e'],0,0.13877080000020214,0.2,1,0,FastFast,25,18,Woman,Right,
47,10,1,0.33420660000047064,['c'],0,right,['e'],0,0.04218639999999141,0.4,1,0,FastFast,25,18,Woman,Right,
48,10,1,1.9512496999996074,['n'],1,right,['e'],0,0.07710719999886351,0.1,0,0,FastFast,25,18,Woman,Right,
49,10,1,1.2834896999993362,['n'],0,left,['e'],0,0.04170490000069549,0.1,1,0,FastFast,25,18,Woman,Right,
50,10,1,0.7516595999986748,['n'],0,left,['e'],0,0.12485350000133622,0.1,1,0,FastFast,25,18,Woman,Right,
51,10,1,1.8003673999992316,['n'],1,right,['e'],0,0.05036800000016228,0.4,0,0,FastFast,25,18,Woman,Right,
52,10,1,1.1680553999995027,['c'],0,right,['e'],0,0.004597400000420748,0.1,1,0,FastFast,25,18,Woman,Right,
53,10,1,0.7005253999996057,['n'],1,right,['u'],1,0.426402600000074,0.2,1,0,FastFast,25,18,Woman,Right,
54,10,1,1.051181099999667,['n'],1,right,['e'],0,0.04947139999967476,0.2,0,0,FastFast,25,18,Woman,Right,
55,10,1,0.8845021000015549,['n'],1,right,['e'],0,0.03058500000042841,0.2,0,0,FastFast,25,18,Woman,Right,
56,10,1,0.46836869999970077,['c'],0,right,['e'],0,0.02877499999885913,0.2,1,0,FastFast,25,18,Woman,Right,
57,10,1,1.6008708000008482,['c'],1,left,['u'],1,0.06150130000060017,0.4,1,0,FastFast,25,18,Woman,Right,
58,10,1,1.0166965000007622,['c'],1,left,['e'],0,0.0852230000000418,0.2,0,0,FastFast,25,18,Woman,Right,
59,10,1,1.433911400001307,['n'],1,right,['u'],1,0.058230799999364535,0.4,1,0,FastFast,25,18,Woman,Right,
0,11,1,3.267784199999369,['n'],1,right,['u'],1,0.12908509999942908,0.1,1,0,AccFast,25,18,Woman,Right,
1,11,1,2.084715299999516,['c'],0,right,['e'],0,1.0188932000000932,0.1,1,0,AccFast,25,18,Woman,Right,
2,11,1,1.7513590999988082,['c'],1,left,['e'],0,0.0948936999993748,0.4,0,0,AccFast,25,18,Woman,Right,
3,11,1,3.3516622000006464,['c'],1,left,['e'],0,0.10404860000016924,0.4,0,0,AccFast,25,18,Woman,Right,
4,11,1,1.9680960000005143,['c'],1,left,['e'],0,0.12076729999898816,0.2,0,0,AccFast,25,18,Woman,Right,
5,11,1,1.5514806999999564,['n'],1,right,['u'],1,0.10358110000015586,0.1,1,0,AccFast,25,18,Woman,Right,
6,11,1,0.5673404000008304,['n'],1,right,['u'],1,0.12647169999945618,0.4,1,0,AccFast,25,18,Woman,Right,
7,11,1,1.9335778000004211,['n'],1,right,['u'],1,0.17524760000014794,0.1,1,0,AccFast,25,18,Woman,Right,
8,11,1,2.466889999999694,['c'],1,left,['e'],0,0.088090999999622,0.1,0,0,AccFast,25,18,Woman,Right,
9,11,1,0.7517379000000801,['c'],1,left,['e'],0,0.025104099999225582,0.2,0,0,AccFast,25,18,Woman,Right,
10,11,1,2.551130199999534,['n'],0,left,['e'],0,0.08476929999960703,0.4,1,0,AccFast,25,18,Woman,Right,
11,11,1,2.9346624000008887,['c'],0,right,['e'],0,1.0065185999992536,0.1,1,0,AccFast,25,18,Woman,Right,
12,11,1,0.9013928000003943,['n'],0,left,['e'],0,0.08485470000050555,0.4,1,0,AccFast,25,18,Woman,Right,
13,11,1,2.667665199998737,['n'],1,right,['e'],0,0.12164819999998144,0.1,0,0,AccFast,25,18,Woman,Right,
14,11,1,1.851485799999864,['c'],0,right,['e'],0,0.7329238999991503,0.2,1,0,AccFast,25,18,Woman,Right,
15,11,1,1.75000639999962,['c'],1,left,['e'],0,0.07602780000161147,0.2,0,0,AccFast,25,18,Woman,Right,
16,11,1,1.0179269000000204,['n'],0,left,['e'],0,0.06684540000060224,0.2,1,0,AccFast,25,18,Woman,Right,
17,11,1,2.5016395000002376,['c'],1,left,['e'],0,0.782887599998503,0.2,0,0,AccFast,25,18,Woman,Right,
18,11,1,3.4512546000005386,['c'],0,right,['e'],0,0.12014759999874514,0.2,1,0,AccFast,25,18,Woman,Right,
19,11,1,1.1346491999993304,['n'],0,left,['e'],0,0.29621399999996356,0.2,1,0,AccFast,25,18,Woman,Right,
20,11,1,2.4512205999999424,['c'],0,right,['e'],0,0.06072169999970356,0.1,1,0,AccFast,25,18,Woman,Right,
21,11,1,1.2345065000008617,['n'],1,right,['u'],1,0.1241595999999845,0.4,1,0,AccFast,25,18,Woman,Right,
22,11,1,2.2671812000007776,['n'],1,right,['e'],0,0.3345434999991994,0.2,0,0,AccFast,25,18,Woman,Right,
23,11,1,2.1335976000009396,['n'],0,left,['e'],0,0.12661189999926137,0.1,1,0,AccFast,25,18,Woman,Right,
24,11,1,1.1329100999992079,['n'],1,right,['e'],0,0.11096489999908954,0.2,0,0,AccFast,25,18,Woman,Right,
25,11,1,1.3844365999993897,['c'],1,left,['e'],0,0.3415416000007099,0.2,0,0,AccFast,25,18,Woman,Right,
26,11,1,1.1355027000008704,['n'],1,right,['e'],0,0.029356799999732175,0.1,0,0,AccFast,25,18,Woman,Right,
27,11,1,1.2513116000009177,['n'],1,right,['u'],1,0.10806939999929455,0.4,1,0,AccFast,25,18,Woman,Right,
28,11,1,1.4009745000003022,['n'],1,right,['u'],1,0.06657980000090902,0.4,1,0,AccFast,25,18,Woman,Right,
29,11,1,1.6847647999984474,['n'],0,left,['e'],0,0.030791299999691546,0.2,1,0,AccFast,25,18,Woman,Right,
30,11,1,2.101172399999996,['n'],1,right,['e'],0,0.05944499999895925,0.2,0,0,AccFast,25,18,Woman,Right,
31,11,1,1.3677657000007457,['n'],1,right,['e'],0,0.037597200000163866,0.4,0,0,AccFast,25,18,Woman,Right,
32,11,1,1.833507200000895,['c'],0,right,['e'],0,0.10927509999964968,0.1,1,0,AccFast,25,18,Woman,Right,
33,11,1,0.8677707000006194,['c'],1,left,['u'],1,0.553465300001335,0.2,1,0,AccFast,25,18,Woman,Right,
34,11,1,1.0509432999988348,['n'],1,right,['e'],0,0.12298729999929492,0.4,0,0,AccFast,25,18,Woman,Right,
35,11,1,1.7167425000006915,['c'],1,left,['e'],0,0.13263720000031753,0.1,0,0,AccFast,25,18,Woman,Right,
36,11,1,0.7012501999997767,['c'],0,right,['e'],0,0.24470930000097724,0.2,1,0,AccFast,25,18,Woman,Right,
37,11,1,1.4678548000010778,['c'],1,left,['u'],1,0.05126089999976102,0.4,1,0,AccFast,25,18,Woman,Right,
38,11,1,1.7184784000000946,['c'],1,left,['u'],1,0.07871569999952044,0.4,1,0,AccFast,25,18,Woman,Right,
39,11,1,1.4513849999984814,['c'],1,left,['e'],0,0.7079190999993443,0.2,0,0,AccFast,25,18,Woman,Right,
40,11,1,1.0661251999990782,['c'],1,left,['e'],0,0.016216299998632167,0.2,0,0,AccFast,25,18,Woman,Right,
41,11,1,1.6685346000012942,['n'],0,left,['e'],0,0.030420899998716777,0.1,1,0,AccFast,25,18,Woman,Right,
42,11,1,3.167139999999563,['n'],1,right,['e'],0,0.0328375999997661,0.1,0,0,AccFast,25,18,Woman,Right,
43,11,1,3.417534500000329,['c'],1,left,['e'],0,0.6813237000005756,0.1,0,0,AccFast,25,18,Woman,Right,
44,11,1,2.4996098000010534,['c'],1,left,['e'],0,0.6380086000008305,0.1,0,0,AccFast,25,18,Woman,Right,
45,11,1,1.3329503999993904,['n'],1,right,['e'],0,0.1289415999999619,0.4,0,0,AccFast,25,18,Woman,Right,
46,11,1,1.5831593999992037,['n'],1,right,['e'],0,0.4955429000001459,0.4,0,0,AccFast,25,18,Woman,Right,
47,11,1,2.0665265999996336,['c'],0,right,['e'],0,0.011920099999770173,0.1,1,0,AccFast,25,18,Woman,Right,
48,11,1,2.167175299999144,['n'],1,right,['e'],0,0.15070299999933923,0.1,0,0,AccFast,25,18,Woman,Right,
49,11,1,0.7680581000004167,['n'],1,right,['e'],0,0.1324256999996578,0.4,0,0,AccFast,25,18,Woman,Right,
50,11,1,1.4349910000000818,['n'],0,left,['e'],0,0.10372599999936938,0.2,1,0,AccFast,25,18,Woman,Right,
51,11,1,1.4163809999990917,['c'],1,left,['u'],1,0.11053270000047632,0.4,1,0,AccFast,25,18,Woman,Right,
52,11,1,1.001476299999922,['c'],1,left,['u'],1,0.06754329999967013,0.4,1,0,AccFast,25,18,Woman,Right,
53,11,1,1.9339055000000371,['n'],0,left,['e'],0,0.1993321999998443,0.2,1,0,AccFast,25,18,Woman,Right,
54,11,1,1.0507493000004615,['n'],1,right,['u'],1,0.054378899998482666,0.2,1,0,AccFast,25,18,Woman,Right,
55,11,1,2.3830001000005723,['c'],1,left,['e'],0,0.08809979999932693,0.4,0,0,AccFast,25,18,Woman,Right,
56,11,1,1.7503154999994877,['n'],0,left,['e'],0,0.03327949999948032,0.4,1,0,AccFast,25,18,Woman,Right,
57,11,1,2.4160429000003205,['n'],1,right,['e'],0,0.06559279999964929,0.4,0,0,AccFast,25,18,Woman,Right,
58,11,1,1.8831970999999612,['c'],1,left,['e'],0,0.006308399999397807,0.1,0,0,AccFast,25,18,Woman,Right,
59,11,1,1.317559600000095,['n'],1,right,['e'],0,0.03459939999993367,0.1,0,0,AccFast,25,18,Woman,Right,
0,12,1,3.482708100000309,['n'],1,right,['e'],0,1.6990650999996433,0.4,0,0,AccAcc,25,18,Woman,Right,
1,12,1,0.9174481999998534,['n'],1,right,['e'],0,1.4682220999984565,0.2,0,0,AccAcc,25,18,Woman,Right,
2,12,1,1.2163979000015388,['c'],1,left,['e'],0,1.3320440999996208,0.2,0,0,AccAcc,25,18,Woman,Right,
3,12,1,1.233192899999267,['n'],1,right,['e'],0,2.255173699999432,0.2,0,0,AccAcc,25,18,Woman,Right,
4,12,1,1.3501529000004666,['n'],1,right,['e'],0,0.9618508000003203,0.1,0,0,AccAcc,25,18,Woman,Right,
5,12,1,1.3992897999996785,['n'],1,right,['e'],0,1.1743826000001718,0.4,0,0,AccAcc,25,18,Woman,Right,
6,12,1,1.8830063999994309,['c'],1,left,['e'],0,0.6065273999993224,0.4,0,0,AccAcc,25,18,Woman,Right,
7,12,1,1.0164989000004425,['n'],0,left,['e'],0,0.1281579000005877,0.2,1,0,AccAcc,25,18,Woman,Right,
8,12,1,1.0993539999999484,['c'],1,left,['e'],0,0.17822049999995215,0.4,0,0,AccAcc,25,18,Woman,Right,
9,12,1,1.3170303999995667,['c'],1,left,['u'],1,0.1527635000002192,0.2,1,0,AccAcc,25,18,Woman,Right,
10,12,1,1.9833017000000837,['c'],1,left,['e'],0,0.10127140000076906,0.2,0,0,AccAcc,25,18,Woman,Right,
11,12,1,3.000563300000067,['c'],0,right,['u'],1,1.6595940999995946,0.2,0,0,AccAcc,25,18,Woman,Right,
12,12,1,0.8168733000002248,['n'],1,right,['u'],1,0.20432919999984733,0.4,1,0,AccAcc,25,18,Woman,Right,
13,12,1,1.4505515000000742,['n'],0,left,['e'],0,0.8756859000004624,0.1,1,0,AccAcc,25,18,Woman,Right,
14,12,1,0.8671455000003334,['n'],1,right,['e'],0,0.8092343000007531,0.4,0,0,AccAcc,25,18,Woman,Right,
15,12,1,0.5333336000003328,['n'],1,right,['e'],0,1.0625215000000026,0.4,0,0,AccAcc,25,18,Woman,Right,
16,12,1,0.734248499999012,['c'],0,right,['u'],1,1.5685217000009288,0.4,0,0,AccAcc,25,18,Woman,Right,
17,12,1,1.8177799999994022,['n'],0,left,['e'],0,0.6846473000005062,0.1,1,0,AccAcc,25,18,Woman,Right,
18,12,1,0.8669784999983676,['n'],1,right,['e'],0,1.0723852999999508,0.4,0,0,AccAcc,25,18,Woman,Right,
19,12,1,0.6672629000004235,['n'],0,left,['e'],0,0.9567542000004323,0.1,1,0,AccAcc,25,18,Woman,Right,
20,12,1,0.6991064000012557,['n'],1,right,['e'],0,0.6697685000017373,0.1,0,0,AccAcc,25,18,Woman,Right,
21,12,1,0.7511996000012005,['n'],1,right,['e'],0,1.7192755000014586,0.2,0,0,AccAcc,25,18,Woman,Right,
22,12,1,0.9351851000010356,['n'],1,right,['e'],0,1.807249800000136,0.4,0,0,AccAcc,25,18,Woman,Right,
23,12,1,0.8511563000010938,['n'],0,left,['e'],0,0.3115742999998474,0.1,1,0,AccAcc,25,18,Woman,Right,
24,12,1,0.8681333000004088,['n'],0,left,['e'],0,0.26716839999971853,0.2,1,0,AccAcc,25,18,Woman,Right,
25,12,1,1.1995129999995697,['c'],1,left,['e'],0,0.16298409999944852,0.4,0,0,AccAcc,25,18,Woman,Right,
26,12,1,0.8991798000006384,['n'],1,right,['e'],0,0.10803699999996752,0.1,0,0,AccAcc,25,18,Woman,Right,
27,12,1,1.3175745000007737,['c'],1,left,['u'],1,0.11616469999898982,0.2,1,0,AccAcc,25,18,Woman,Right,
28,12,1,2.251404200000252,['c'],0,right,['e'],0,0.5996097999995982,0.2,1,0,AccAcc,25,18,Woman,Right,
29,12,1,0.7685836000000563,['n'],1,right,['e'],0,0.4194244999998773,0.4,0,0,AccAcc,25,18,Woman,Right,
30,12,1,0.5340936000011425,['c'],1,left,['e'],0,0.3675108999996155,0.1,0,0,AccAcc,25,18,Woman,Right,
31,12,1,1.334370399999898,['c'],1,left,['e'],0,0.3657373000005464,0.1,0,0,AccAcc,25,18,Woman,Right,
32,12,1,1.084860099999787,['c'],1,left,['e'],0,0.3419300999994448,0.1,0,0,AccAcc,25,18,Woman,Right,
33,12,1,3.5685054999994463,['n'],0,left,['e'],0,0.9246855999990657,0.1,1,0,AccAcc,25,18,Woman,Right,
34,12,1,1.2515803999995114,['c'],1,left,['e'],0,0.8245716000001266,0.2,0,0,AccAcc,25,18,Woman,Right,
35,12,1,1.0345741000000999,['n'],1,right,['e'],0,0.9462818000010884,0.2,0,0,AccAcc,25,18,Woman,Right,
36,12,1,0.8850942999997642,['c'],0,right,['e'],0,0.3311806000001525,0.1,1,0,AccAcc,25,18,Woman,Right,
37,12,1,0.8342775000000984,['c'],1,left,['e'],0,0.2859224000003451,0.1,0,0,AccAcc,25,18,Woman,Right,
38,12,1,1.0013820000003761,['n'],1,right,['e'],0,0.3648131000009016,0.4,0,0,AccAcc,25,18,Woman,Right,
39,12,1,0.7494556000001467,['n'],1,right,['e'],0,0.19593100000020058,0.2,0,0,AccAcc,25,18,Woman,Right,
40,12,1,0.5847936999998637,['n'],1,right,['e'],0,0.13393550000000687,0.1,0,0,AccAcc,25,18,Woman,Right,
41,12,1,0.8354168000005302,['c'],1,left,['e'],0,0.1456992999992508,0.1,0,0,AccAcc,25,18,Woman,Right,
42,12,1,0.5178459999988263,['c'],1,left,['e'],0,0.13706359999923734,0.2,0,0,AccAcc,25,18,Woman,Right,
43,12,1,0.9673222999990685,['n'],0,left,['e'],0,0.07921300000089104,0.2,1,0,AccAcc,25,18,Woman,Right,
44,12,1,3.1835169000005408,['c'],1,left,['e'],0,1.6953195999994932,0.1,0,0,AccAcc,25,18,Woman,Right,
45,12,1,0.7167874000006123,['c'],1,left,['e'],0,0.22525259999929403,0.1,0,0,AccAcc,25,18,Woman,Right,
46,12,1,1.1006816999997682,['n'],1,right,['u'],1,0.17452760000014678,0.4,1,0,AccAcc,25,18,Woman,Right,
47,12,1,1.0994895999992877,['n'],0,left,['e'],0,0.15831549999893468,0.1,1,0,AccAcc,25,18,Woman,Right,
48,12,1,1.050479900000937,['c'],1,left,['e'],0,0.2402875000007043,0.1,0,0,AccAcc,25,18,Woman,Right,
49,12,1,1.0510591000002023,['n'],1,right,['e'],0,0.07942809999985911,0.4,0,0,AccAcc,25,18,Woman,Right,
50,12,1,0.818057399999816,['c'],0,right,['e'],0,0.12679150000076334,0.1,1,0,AccAcc,25,18,Woman,Right,
51,12,1,1.9334430000017164,['c'],0,right,['e'],0,2.1581826000001456,0.2,1,0,AccAcc,25,18,Woman,Right,
52,12,1,0.9171033000002353,['n'],1,right,['e'],0,0.05450879999989411,0.4,0,0,AccAcc,25,18,Woman,Right,
53,12,1,1.283979100000579,['c'],1,left,['u'],1,0.1316644999988057,0.2,1,0,AccAcc,25,18,Woman,Right,
54,12,1,1.1013130999999703,['n'],0,left,['u'],1,0.020010099999126396,0.4,0,0,AccAcc,25,18,Woman,Right,
55,12,1,1.434360100000049,['n'],1,right,['e'],0,0.0760614999999234,0.2,0,0,AccAcc,25,18,Woman,Right,
56,12,1,0.9326276000010694,['n'],0,left,['e'],0,0.05569099999956961,0.4,1,0,AccAcc,25,18,Woman,Right,
57,12,1,1.1013990999999805,['n'],1,right,['u'],1,0.09034150000115915,0.4,1,0,AccAcc,25,18,Woman,Right,
58,12,1,1.4845141000005242,['c'],1,left,['u'],1,0.09395649999896705,0.4,1,0,AccAcc,25,18,Woman,Right,
59,12,1,0.90281479999976,['n'],1,right,['u'],1,0.08880089999911434,0.2,1,0,AccAcc,25,18,Woman,Right,
0,13,1,0.9677530999997543,['c'],1,left,['e'],0,0.9847015000013926,0.2,0,0,FastAcc,25,18,Woman,Right,
1,13,1,0.7345389000001887,['c'],1,left,['u'],1,0.3261710000006133,0.4,1,0,FastAcc,25,18,Woman,Right,
2,13,1,0.9015816999999515,['n'],1,right,['e'],0,0.4077011000008497,0.1,0,0,FastAcc,25,18,Woman,Right,
3,13,1,0.6174857000005431,['n'],1,right,['e'],0,0.2571395000013581,0.2,0,0,FastAcc,25,18,Woman,Right,
4,13,1,0.6845838000008371,['n'],1,right,['e'],0,0.2700993999987986,0.4,0,0,FastAcc,25,18,Woman,Right,
5,13,1,0.6352000999995653,['c'],0,right,['e'],0,0.4604583000000275,0.4,1,0,FastAcc,25,18,Woman,Right,
6,13,1,0.6341795000007551,['c'],1,left,['u'],1,0.5156055000006745,0.4,1,0,FastAcc,25,18,Woman,Right,
7,13,1,0.5679706999999325,['n'],1,right,['u'],1,0.3462353999984771,0.2,1,0,FastAcc,25,18,Woman,Right,
8,13,1,0.9343498000016552,['n'],0,left,['e'],0,0.39321949999975914,0.2,1,0,FastAcc,25,18,Woman,Right,
9,13,1,0.8176729000006162,['c'],1,left,['e'],0,0.29956570000103966,0.1,0,0,FastAcc,25,18,Woman,Right,
10,13,1,0.8838833999998315,['n'],1,right,['e'],0,0.19033480000143754,0.4,0,0,FastAcc,25,18,Woman,Right,
11,13,1,1.9176745000004303,['n'],0,left,['e'],0,0.3647536000007676,0.1,1,0,FastAcc,25,18,Woman,Right,
12,13,1,2.5681066999986797,['n'],0,left,['e'],0,0.07378820000121777,0.1,1,0,FastAcc,25,18,Woman,Right,
13,13,1,1.0682591000004322,['n'],1,right,['e'],0,2.462790900000982,0.1,0,0,FastAcc,25,18,Woman,Right,
14,13,1,0.6668449000007968,['c'],1,left,['u'],1,1.7166221999996196,0.4,1,0,FastAcc,25,18,Woman,Right,
15,13,1,0.6009672000000137,['n'],1,right,['u'],1,1.513933599999291,0.2,1,0,FastAcc,25,18,Woman,Right,
16,13,1,0.4993584000003466,['c'],1,left,['u'],1,2.3161295000008977,0.4,1,0,FastAcc,25,18,Woman,Right,
17,13,1,0.6501112999994803,['n'],1,right,['u'],1,1.2873226000010618,0.4,1,0,FastAcc,25,18,Woman,Right,
18,13,1,0.5014836000009382,['n'],1,right,['u'],1,1.6183084000003873,0.4,1,0,FastAcc,25,18,Woman,Right,
19,13,1,0.5348668999995425,['n'],1,right,['u'],1,1.902593299999353,0.4,1,0,FastAcc,25,18,Woman,Right,
20,13,1,0.6667787000005774,['c'],1,left,['u'],1,1.819579099999828,0.4,1,0,FastAcc,25,18,Woman,Right,
21,13,1,0.684236699999019,['c'],1,left,['u'],1,1.592772199999672,0.4,1,0,FastAcc,25,18,Woman,Right,
22,13,1,1.2844857000000047,['n'],1,right,['e'],0,1.5284021999996185,0.4,0,0,FastAcc,25,18,Woman,Right,
23,13,1,1.2177792000002228,['n'],0,left,['e'],0,2.2689461000009032,0.2,1,0,FastAcc,25,18,Woman,Right,
24,13,1,0.5334005000004254,['n'],1,right,['e'],0,1.9672642000004998,0.2,0,0,FastAcc,25,18,Woman,Right,
25,13,1,0.950299799998902,['c'],1,left,['e'],0,1.3891102000015962,0.1,0,0,FastAcc,25,18,Woman,Right,
26,13,1,0.6174326999989717,['n'],0,left,['e'],0,1.0234479999999166,0.1,1,0,FastAcc,25,18,Woman,Right,
27,13,1,0.4845557999997254,['n'],1,right,['e'],0,0.6139436000012211,0.2,0,0,FastAcc,25,18,Woman,Right,
28,13,1,0.7015954999988026,['n'],1,right,['e'],0,1.9232869000006758,0.1,0,0,FastAcc,25,18,Woman,Right,
29,13,1,0.8512097000002541,['n'],0,left,['e'],0,1.639000199998918,0.1,1,0,FastAcc,25,18,Woman,Right,
30,13,1,0.7345143000002281,['n'],1,right,['e'],0,1.4027775999984442,0.2,0,0,FastAcc,25,18,Woman,Right,
31,13,1,0.6344117000007827,['n'],1,right,['e'],0,1.1637752000006003,0.2,0,0,FastAcc,25,18,Woman,Right,
32,13,1,0.6510828999998921,['c'],1,left,['u'],1,0.7574805999993259,0.4,1,0,FastAcc,25,18,Woman,Right,
33,13,1,1.082800899999711,['n'],1,right,['e'],0,0.9910094999995636,0.2,0,0,FastAcc,25,18,Woman,Right,
34,13,1,0.8014266999998654,['c'],1,left,['e'],0,0.5534921999988001,0.2,0,0,FastAcc,25,18,Woman,Right,
35,13,1,0.9673160000002099,['c'],1,left,['u'],1,0.6232772999992449,0.4,1,0,FastAcc,25,18,Woman,Right,
36,13,1,0.6170764000016788,['n'],1,right,['u'],1,0.28786550000040734,0.4,1,0,FastAcc,25,18,Woman,Right,
37,13,1,2.2176160999988497,['c'],1,left,['e'],0,0.43030759999965085,0.1,0,0,FastAcc,25,18,Woman,Right,
38,13,1,0.6014028999998118,['n'],1,right,['e'],0,1.719245199999932,0.1,0,0,FastAcc,25,18,Woman,Right,
39,13,1,0.7848544000007678,['n'],1,right,['e'],0,1.8937803000007989,0.1,0,0,FastAcc,25,18,Woman,Right,
40,13,1,0.7342457999984617,['n'],0,left,['e'],0,1.2794451999998273,0.2,1,0,FastAcc,25,18,Woman,Right,
41,13,1,0.6677651000009064,['c'],0,right,['e'],0,1.6678475000007893,0.1,1,0,FastAcc,25,18,Woman,Right,
42,13,1,0.9509840999999142,['n'],1,right,['e'],0,1.9176016000001255,0.1,0,0,FastAcc,25,18,Woman,Right,
43,13,1,0.9507946999983687,['n'],0,left,['e'],0,1.5653671000000031,0.2,1,0,FastAcc,25,18,Woman,Right,
44,13,1,0.6502352999996219,['n'],0,left,['e'],0,1.7030152000006638,0.1,1,0,FastAcc,25,18,Woman,Right,
45,13,1,0.5176555999987613,['n'],1,right,['e'],0,1.82488789999843,0.2,0,0,FastAcc,25,18,Woman,Right,
46,13,1,0.9343048999999155,['c'],1,left,['e'],0,1.557237899998654,0.2,0,0,FastAcc,25,18,Woman,Right,
47,13,1,0.5679039999995439,['n'],1,right,['u'],1,0.9468479999995907,0.4,1,0,FastAcc,25,18,Woman,Right,
48,13,1,0.8005790999995952,['n'],0,left,['e'],0,0.9591537000014796,0.1,1,0,FastAcc,25,18,Woman,Right,
49,13,1,1.8511531000003743,['c'],1,left,['e'],0,0.7213604999997187,0.2,0,0,FastAcc,25,18,Woman,Right,
50,13,1,0.5837754999993194,['n'],1,right,['e'],0,0.7996870000006311,0.2,0,0,FastAcc,25,18,Woman,Right,
51,13,1,0.9171198999993067,['c'],1,left,['e'],0,1.2936055999998644,0.1,0,0,FastAcc,25,18,Woman,Right,
52,13,1,0.5166465000002063,['n'],0,left,['e'],0,2.60112239999944,0.1,1,0,FastAcc,25,18,Woman,Right,
53,13,1,1.199855299999399,['c'],1,left,['e'],0,2.322707799999989,0.2,0,0,FastAcc,25,18,Woman,Right,
54,13,1,0.7510540000002948,['n'],1,right,['e'],0,1.226770299999771,0.2,0,0,FastAcc,25,18,Woman,Right,
55,13,1,0.7682424999984505,['n'],1,right,['e'],0,0.07702929999868502,0.4,0,0,FastAcc,25,18,Woman,Right,
56,13,1,1.334559300001274,['n'],1,right,['u'],1,0.9193920000016078,0.4,1,0,FastAcc,25,18,Woman,Right,
57,13,1,1.0497854000004736,['n'],1,right,['e'],0,0.47609860000011395,0.1,0,0,FastAcc,25,18,Woman,Right,
58,13,1,1.318194499999663,['c'],1,left,['e'],0,0.21388290000140842,0.1,0,0,FastAcc,25,18,Woman,Right,
59,13,1,1.1173741000002337,['c'],1,left,['u'],1,0.643741099998806,0.4,1,0,FastAcc,25,18,Woman,Right,
0,14,1,1.4838127000002714,['n'],1,right,['e'],0,0.03064720000111265,0.2,0,0,FastFast,25,18,Woman,Right,
1,14,1,1.1503938999994716,['n'],0,left,['e'],0,0.03439050000088173,0.4,1,0,FastFast,25,18,Woman,Right,
2,14,1,0.8838553000005049,['n'],1,right,['e'],0,0.06321200000093086,0.2,0,0,FastFast,25,18,Woman,Right,
3,14,1,1.4172947999995813,['c'],1,left,['e'],0,0.08596380000017234,0.1,0,0,FastFast,25,18,Woman,Right,
4,14,1,0.8009175999995932,['c'],1,left,['e'],0,0.03695729999890318,0.4,0,0,FastFast,25,18,Woman,Right,
5,14,1,1.0995607999993808,['n'],1,right,['e'],0,0.8432171000004018,0.1,0,0,FastFast,25,18,Woman,Right,
6,14,1,0.9502498000001651,['n'],1,right,['e'],0,0.05350410000028205,0.4,0,0,FastFast,25,18,Woman,Right,
7,14,1,0.9011768999989727,['n'],1,right,['e'],0,0.04901690000042436,0.2,0,0,FastFast,25,18,Woman,Right,
8,14,1,3.1678480000009586,['c'],1,left,['e'],0,0.9946976999999606,0.2,0,0,FastFast,25,18,Woman,Right,
9,14,1,1.0159836999991967,['c'],1,left,['u'],1,0.08599020000110613,0.4,1,0,FastFast,25,18,Woman,Right,
10,14,1,0.5692982999989908,['n'],0,left,['u'],1,0.14059590000033495,0.1,0,0,FastFast,25,18,Woman,Right,
11,14,1,0.9180080999994971,['c'],1,left,['u'],1,0.18085050000081537,0.2,1,0,FastFast,25,18,Woman,Right,
12,14,1,1.0847242999989248,['c'],1,left,['e'],0,0.10144989999935206,0.1,0,0,FastFast,25,18,Woman,Right,
13,14,1,1.3997713000007934,['c'],1,left,['u'],1,0.10694220000004862,0.4,1,0,FastFast,25,18,Woman,Right,
14,14,1,0.950797400000738,['c'],1,left,['e'],0,0.11550510000051872,0.1,0,0,FastFast,25,18,Woman,Right,
15,14,1,0.6177009000002727,['n'],1,right,['u'],1,0.07209429999966233,0.4,1,0,FastFast,25,18,Woman,Right,
16,14,1,0.8849378999984765,['n'],1,right,['e'],0,0.03619790000084322,0.2,0,0,FastFast,25,18,Woman,Right,
17,14,1,0.9505514000011317,['n'],0,left,['e'],0,0.09531349999997474,0.2,1,0,FastFast,25,18,Woman,Right,
18,14,1,0.8504998999997042,['n'],1,right,['e'],0,0.05953179999960412,0.1,0,0,FastFast,25,18,Woman,Right,
19,14,1,1.6679996999992,['c'],1,left,['e'],0,0.05694810000022699,0.1,0,0,FastFast,25,18,Woman,Right,
20,14,1,0.601448999999775,['n'],1,right,['e'],0,0.049332200000208104,0.2,0,0,FastFast,25,18,Woman,Right,
21,14,1,0.5181885000001785,['n'],1,right,['e'],0,0.06103639999855659,0.1,0,0,FastFast,25,18,Woman,Right,
22,14,1,0.9679445000001579,['n'],0,left,['e'],0,0.054410400000051595,0.2,1,0,FastFast,25,18,Woman,Right,
23,14,1,0.5506633000004513,['n'],1,right,['e'],0,0.03249850000065635,0.1,0,0,FastFast,25,18,Woman,Right,
24,14,1,0.5345305999999255,['c'],1,left,['e'],0,0.07624639999994542,0.4,0,0,FastFast,25,18,Woman,Right,
25,14,1,0.6011209000007511,['c'],1,left,['e'],0,0.8517276000002312,0.2,0,0,FastFast,25,18,Woman,Right,
26,14,1,0.9662690000004659,['c'],0,right,['e'],0,0.5103570000010222,0.1,1,0,FastFast,25,18,Woman,Right,
27,14,1,0.9159800999987056,['n'],0,left,['e'],0,0.05642649999936111,0.2,1,0,FastFast,25,18,Woman,Right,
28,14,1,1.2523424999999406,['c'],0,right,['e'],0,0.10156620000088878,0.1,1,0,FastFast,25,18,Woman,Right,
29,14,1,0.9340026000008947,['c'],1,left,['e'],0,0.030242000000725966,0.2,0,0,FastFast,25,18,Woman,Right,
30,14,1,0.9342777000001661,['n'],1,right,['u'],1,0.04179959999964922,0.4,1,0,FastFast,25,18,Woman,Right,
31,14,1,1.0338320999999269,['n'],1,right,['e'],0,0.04951160000018717,0.4,0,0,FastFast,25,18,Woman,Right,
32,14,1,0.6846048999996128,['c'],1,left,['e'],0,0.10210170000027574,0.4,0,0,FastFast,25,18,Woman,Right,
33,14,1,0.9498338000012154,['n'],0,left,['e'],0,0.062228099999629194,0.2,1,0,FastFast,25,18,Woman,Right,
34,14,1,2.0491858999994292,['n'],1,right,['e'],0,0.10889309999947727,0.2,0,0,FastFast,25,18,Woman,Right,
35,14,1,1.0507847999997466,['c'],1,left,['e'],0,1.4082827000001998,0.2,0,0,FastFast,25,18,Woman,Right,
36,14,1,0.9513406000005489,['n'],1,right,['e'],0,0.0849913000001834,0.1,0,0,FastFast,25,18,Woman,Right,
37,14,1,0.8680626999994274,['n'],1,right,['e'],0,0.049106899999969755,0.4,0,0,FastFast,25,18,Woman,Right,
38,14,1,0.8012669999989157,['c'],0,right,['e'],0,0.04943439999988186,0.1,1,0,FastFast,25,18,Woman,Right,
39,14,1,0.9178918999987218,['n'],1,right,['e'],0,0.07706959999995888,0.4,0,0,FastFast,25,18,Woman,Right,
40,14,1,0.7840818000004219,['c'],1,left,['e'],0,0.09321880000061356,0.1,0,0,FastFast,25,18,Woman,Right,
41,14,1,0.6834741000002396,['c'],0,right,['e'],0,0.03315959999963525,0.4,1,0,FastFast,25,18,Woman,Right,
42,14,1,1.3351863000007143,['c'],1,left,['e'],0,0.060234300000956864,0.2,0,0,FastFast,25,18,Woman,Right,
43,14,1,1.0515360999997938,['n'],0,left,['e'],0,0.03438780000033148,0.1,1,0,FastFast,25,18,Woman,Right,
44,14,1,0.7179238000007899,['c'],1,left,['e'],0,0.007639100000233157,0.2,0,0,FastFast,25,18,Woman,Right,
45,14,1,1.183965400001398,['c'],1,left,['e'],0,0.010578200000963989,0.1,0,0,FastFast,25,18,Woman,Right,
46,14,1,0.650959700000385,['n'],0,left,['e'],0,0.06617819999883068,0.1,1,0,FastFast,25,18,Woman,Right,
47,14,1,0.6179125999988173,['n'],1,right,['e'],0,0.05781910000041535,0.4,0,0,FastFast,25,18,Woman,Right,
48,14,1,0.700313900000765,['c'],1,left,['e'],0,0.061218799999551266,0.2,0,0,FastFast,25,18,Woman,Right,
49,14,1,2.101417899999433,['c'],0,right,['e'],0,0.6021739999996498,0.4,1,0,FastFast,25,18,Woman,Right,
50,14,1,1.151282099999662,['c'],1,left,['e'],0,0.006462600000304519,0.1,0,0,FastFast,25,18,Woman,Right,
51,14,1,0.9007908000003226,['c'],0,right,['e'],0,0.036063400000784895,0.2,1,0,FastFast,25,18,Woman,Right,
52,14,1,0.8842595999994955,['c'],1,left,['e'],0,0.03368469999986701,0.4,0,0,FastFast,25,18,Woman,Right,
53,14,1,0.7013490999997885,['n'],1,right,['e'],0,0.05447409999942465,0.1,0,0,FastFast,25,18,Woman,Right,
54,14,1,0.6005788999991637,['n'],1,right,['e'],0,0.07871659999909753,0.4,0,0,FastFast,25,18,Woman,Right,
55,14,1,0.50004540000009,['n'],1,right,['e'],0,0.1068572000003769,0.4,0,0,FastFast,25,18,Woman,Right,
56,14,1,0.5512620999998035,['n'],1,right,['e'],0,0.04981769999903918,0.4,0,0,FastFast,25,18,Woman,Right,
57,14,1,1.6848980999984633,['c'],0,right,['e'],0,0.17470809999940684,0.2,1,0,FastFast,25,18,Woman,Right,
58,14,1,0.8679661000005581,['c'],0,right,['e'],0,0.02375240000037593,0.1,1,0,FastFast,25,18,Woman,Right,
59,14,1,0.3994832000007591,['c'],1,left,['e'],0,0.010625500000969623,0.4,0,0,FastFast,25,18,Woman,Right,
0,15,1,2.117234900000767,['n'],1,right,['e'],0,0.07170980000046256,0.2,0,0,AccFast,25,18,Woman,Right,
1,15,1,0.7012973999990209,['n'],1,right,['e'],0,0.07500970000000962,0.1,0,0,AccFast,25,18,Woman,Right,
2,15,1,1.1004682000002504,['c'],1,left,['e'],0,0.015306700001019635,0.2,0,0,AccFast,25,18,Woman,Right,
3,15,1,2.3674988000002486,['c'],1,left,['e'],0,0.6896918000002188,0.2,0,0,AccFast,25,18,Woman,Right,
4,15,1,1.6516805999999633,['n'],1,right,['e'],0,0.038744399998904555,0.2,0,0,AccFast,25,18,Woman,Right,
5,15,1,0.9680855999995401,['n'],1,right,['e'],0,0.03301810000084515,0.4,0,0,AccFast,25,18,Woman,Right,
6,15,1,1.2338938000011694,['c'],1,left,['e'],0,0.0015272000000550179,0.2,0,0,AccFast,25,18,Woman,Right,
7,15,1,1.6995468999994046,['n'],1,right,['e'],0,0.06379539999943518,0.1,0,0,AccFast,25,18,Woman,Right,
8,15,1,1.5505444999998872,['n'],1,right,['u'],1,0.08050100000036764,0.4,1,0,AccFast,25,18,Woman,Right,
9,15,1,1.0846596999999747,['c'],1,left,['u'],1,0.06823100000110571,0.4,1,0,AccFast,25,18,Woman,Right,
10,15,1,2.418125499998496,['c'],0,right,['e'],0,0.6114142000005813,0.1,1,0,AccFast,25,18,Woman,Right,
11,15,1,1.434642600001098,['c'],1,left,['e'],0,0.021258499999021296,0.2,0,0,AccFast,25,18,Woman,Right,
12,15,1,0.9011071999993874,['c'],1,left,['e'],0,0.0499509000001126,0.1,0,0,AccFast,25,18,Woman,Right,
13,15,1,1.13524519999919,['n'],1,right,['u'],1,0.03682210000079067,0.4,1,0,AccFast,25,18,Woman,Right,
14,15,1,1.0843029000006936,['c'],1,left,['e'],0,0.010993500000040513,0.2,0,0,AccFast,25,18,Woman,Right,
15,15,1,0.8338175999997475,['n'],1,right,['e'],0,0.07475249999879452,0.2,0,0,AccFast,25,18,Woman,Right,
16,15,1,0.8348384000000806,['c'],0,right,['e'],0,0.024929600000177743,0.1,1,0,AccFast,25,18,Woman,Right,
17,15,1,1.017812899999626,['n'],1,right,['e'],0,0.06576359999962733,0.2,0,0,AccFast,25,18,Woman,Right,
18,15,1,0.5999711999993451,['n'],1,right,['e'],0,0.08945929999936197,0.4,0,0,AccFast,25,18,Woman,Right,
19,15,1,1.5662950000005367,['n'],0,left,['e'],0,0.09047840000130236,0.1,1,0,AccFast,25,18,Woman,Right,
20,15,1,1.2828503999990062,['n'],1,right,['e'],0,0.0708095999998477,0.4,0,0,AccFast,25,18,Woman,Right,
21,15,1,0.9338155000004917,['c'],0,right,['e'],0,0.6074986999992689,0.2,1,0,AccFast,25,18,Woman,Right,
22,15,1,1.5509739000008267,['n'],1,right,['e'],0,0.39588800000092306,0.4,0,0,AccFast,25,18,Woman,Right,
23,15,1,1.2006872999991174,['c'],1,left,['e'],0,0.5582335999988572,0.4,0,0,AccFast,25,18,Woman,Right,
24,15,1,0.7685942000007344,['n'],1,right,['e'],0,0.059885700000450015,0.4,0,0,AccFast,25,18,Woman,Right,
25,15,1,0.7343639999999141,['c'],1,left,['e'],0,0.8308393999996042,0.4,0,0,AccFast,25,18,Woman,Right,
26,15,1,0.6178175999993982,['n'],1,right,['e'],0,0.05496299999867915,0.4,0,0,AccFast,25,18,Woman,Right,
27,15,1,0.7345820000009553,['c'],1,left,['e'],0,0.08993980000013835,0.4,0,0,AccFast,25,18,Woman,Right,
28,15,1,0.3845013000009203,['n'],1,right,['e'],0,0.1061483000012231,0.4,0,0,AccFast,25,18,Woman,Right,
29,15,1,0.9840106000010564,['c'],0,right,['e'],0,0.016632600001685205,0.1,1,0,AccFast,25,18,Woman,Right,
30,15,1,0.8828391000006377,['n'],1,right,['u'],1,0.6552463000007265,0.4,1,0,AccFast,25,18,Woman,Right,
31,15,1,0.4520689000000857,['n'],1,right,['u'],1,0.10076019999905839,0.2,1,0,AccFast,25,18,Woman,Right,
32,15,1,1.385072000000946,['c'],1,left,['u'],1,0.07578739999917161,0.2,1,0,AccFast,25,18,Woman,Right,
33,15,1,0.4511553999982425,['n'],1,right,['u'],1,0.15442999999868334,0.4,1,0,AccFast,25,18,Woman,Right,
34,15,1,1.4674194999988686,['c'],0,right,['e'],0,0.4591736000002129,0.1,1,0,AccFast,25,18,Woman,Right,
35,15,1,1.3513086999992083,['c'],1,left,['u'],1,0.02160120000007737,0.4,1,0,AccFast,25,18,Woman,Right,
36,15,1,1.5009232000011252,['c'],1,left,['e'],0,0.4109461000007286,0.1,0,0,AccFast,25,18,Woman,Right,
37,15,1,1.1341527000004135,['c'],1,left,['e'],0,0.1597005999992689,0.1,0,0,AccFast,25,18,Woman,Right,
38,15,1,0.8504369000002043,['c'],0,right,['e'],0,0.04218389999914507,0.2,1,0,AccFast,25,18,Woman,Right,
39,15,1,0.6841946999993525,['c'],1,left,['e'],0,0.04760750000059488,0.4,0,0,AccFast,25,18,Woman,Right,
40,15,1,0.5018465000011929,['c'],1,left,['e'],0,0.5567183000002842,0.1,0,0,AccFast,25,18,Woman,Right,
41,15,1,0.5516043000006903,['n'],1,right,['e'],0,0.06612799999857089,0.1,0,0,AccFast,25,18,Woman,Right,
42,15,1,0.48413109999819426,['n'],0,left,['e'],0,0.06217049999941082,0.1,1,0,AccFast,25,18,Woman,Right,
43,15,1,0.46798739999940153,['n'],1,right,['e'],0,0.09210949999942386,0.1,0,0,AccFast,25,18,Woman,Right,
44,15,1,0.3162319999992178,['n'],0,left,['e'],0,0.04555559999971592,0.1,1,0,AccFast,25,18,Woman,Right,
45,15,1,0.3993480000008276,['n'],0,left,['e'],0,0.06303160000061325,0.1,1,0,AccFast,25,18,Woman,Right,
46,15,1,0.7335165999993478,['n'],0,left,['e'],0,0.08058650000020862,0.2,1,0,AccFast,25,18,Woman,Right,
47,15,1,0.5672312000006059,['n'],1,right,['e'],0,0.13721799999984796,0.1,0,0,AccFast,25,18,Woman,Right,
48,15,1,0.3681825999992725,['n'],0,left,['e'],0,0.11853030000020226,0.4,1,0,AccFast,25,18,Woman,Right,
49,15,1,0.701006100000086,['n'],1,right,['e'],0,0.0878487000009045,0.4,0,0,AccFast,25,18,Woman,Right,
50,15,1,2.3179254999995464,['c'],1,left,['e'],0,0.09054370000012568,0.2,0,0,AccFast,25,18,Woman,Right,
51,15,1,1.6678609999999026,['n'],0,left,['e'],0,0.10246080000069924,0.1,1,0,AccFast,25,18,Woman,Right,
52,15,1,1.7836877000008826,['c'],1,left,['e'],0,0.029395099998509977,0.4,0,0,AccFast,25,18,Woman,Right,
53,15,1,1.8171062000001257,['c'],0,right,['e'],0,0.0861453999987134,0.2,1,0,AccFast,25,18,Woman,Right,
54,15,1,0.9514674000001833,['n'],0,left,['e'],0,0.06353520000084245,0.1,1,0,AccFast,25,18,Woman,Right,
55,15,1,1.1504554000002827,['n'],0,left,['e'],0,0.04838660000132222,0.2,1,0,AccFast,25,18,Woman,Right,
56,15,1,1.4346328000010544,['c'],1,left,['e'],0,0.07128130000091915,0.2,0,0,AccFast,25,18,Woman,Right,
57,15,1,0.634638300000006,['c'],1,left,['e'],0,0.07749789999979839,0.2,0,0,AccFast,25,18,Woman,Right,
58,15,1,0.7676576000012574,['n'],0,left,['e'],0,0.0943463999992673,0.2,1,0,AccFast,25,18,Woman,Right,
59,15,1,1.067849799999749,['n'],1,right,['e'],0,0.06685959999958868,0.1,0,0,AccFast,25,18,Woman,Right,
