withinblocktrial,block,block_repetition,rt,resp,cor,cresp,conf_press,cj,rtconf,coherence,metacognition,slow_trial,manipulation,sub,age,gender,handedness,
0,1,1,5.000240600000325,x,-99,left,none,-99,-99,0.5,-99,1,none,12,19,Woman,Right,
1,1,1,0.9326721999987058,['n'],1,right,none,-99,-99,0.5,-99,0,none,12,19,Woman,Right,
2,1,1,1.2345456000002741,['n'],1,right,none,-99,-99,0.5,-99,0,none,12,19,Woman,Right,
3,1,1,0.8167175999988103,['c'],1,left,none,-99,-99,0.5,-99,0,none,12,19,Woman,Right,
4,1,1,0.6508384000007936,['n'],1,right,none,-99,-99,0.5,-99,0,none,12,19,Woman,Right,
5,1,1,0.9835215999992215,['n'],1,right,none,-99,-99,0.5,-99,0,none,12,19,Woman,Right,
6,1,1,0.7000356999997166,['n'],1,right,none,-99,-99,0.5,-99,0,none,12,19,Woman,Right,
7,1,1,0.6519813999984763,['c'],1,left,none,-99,-99,0.5,-99,0,none,12,19,Woman,Right,
8,1,1,0.7825823999992281,['c'],1,left,none,-99,-99,0.5,-99,0,none,12,19,Woman,Right,
9,1,1,0.6337917000000743,['n'],1,right,none,-99,-99,0.5,-99,0,none,12,19,Woman,Right,
10,1,1,0.9008768999992753,['n'],1,right,none,-99,-99,0.5,-99,0,none,12,19,Woman,Right,
11,1,1,0.7664159000014479,['c'],1,left,none,-99,-99,0.5,-99,0,none,12,19,Woman,Right,
12,1,1,0.6836260999989463,['n'],1,right,none,-99,-99,0.5,-99,0,none,12,19,Woman,Right,
13,1,1,0.7659330999995291,['c'],0,right,none,-99,-99,0.5,-99,0,none,12,19,Woman,Right,
14,1,1,1.3508796000005532,['c'],1,left,none,-99,-99,0.5,-99,0,none,12,19,Woman,Right,
15,1,1,1.3996938000000227,['n'],0,left,none,-99,-99,0.5,-99,0,none,12,19,Woman,Right,
16,1,1,1.6165509000002203,['n'],0,left,none,-99,-99,0.5,-99,0,none,12,19,Woman,Right,
17,1,1,0.6170746999996481,['c'],1,left,none,-99,-99,0.5,-99,0,none,12,19,Woman,Right,
18,1,1,0.7655647999999928,['c'],1,left,none,-99,-99,0.5,-99,0,none,12,19,Woman,Right,
19,1,1,0.8342437999999675,['c'],1,left,none,-99,-99,0.5,-99,0,none,12,19,Woman,Right,
20,1,1,0.5831152000009752,['n'],1,right,none,-99,-99,0.5,-99,0,none,12,19,Woman,Right,
21,1,1,0.6173013999996328,['c'],1,left,none,-99,-99,0.5,-99,0,none,12,19,Woman,Right,
22,1,1,0.6998328999998193,['n'],1,right,none,-99,-99,0.5,-99,0,none,12,19,Woman,Right,
23,1,1,0.7672973999997339,['n'],1,right,none,-99,-99,0.5,-99,0,none,12,19,Woman,Right,
0,1,2,0.6172212000001309,['n'],1,right,none,-99,-99,0.5,-99,0,none,12,19,Woman,Right,
1,1,2,0.6011116000008769,['n'],1,right,none,-99,-99,0.5,-99,0,none,12,19,Woman,Right,
2,1,2,0.5836914000010438,['c'],1,left,none,-99,-99,0.5,-99,0,none,12,19,Woman,Right,
3,1,2,0.46752010000091104,['n'],1,right,none,-99,-99,0.5,-99,0,none,12,19,Woman,Right,
4,1,2,0.53454789999887,['c'],1,left,none,-99,-99,0.5,-99,0,none,12,19,Woman,Right,
5,1,2,0.4504687999997259,['n'],1,right,none,-99,-99,0.5,-99,0,none,12,19,Woman,Right,
6,1,2,0.4328654999990249,['n'],1,right,none,-99,-99,0.5,-99,0,none,12,19,Woman,Right,
7,1,2,0.483197100000325,['n'],1,right,none,-99,-99,0.5,-99,0,none,12,19,Woman,Right,
8,1,2,0.4829982999999629,['c'],1,left,none,-99,-99,0.5,-99,0,none,12,19,Woman,Right,
9,1,2,0.5013610999994853,['c'],1,left,none,-99,-99,0.5,-99,0,none,12,19,Woman,Right,
10,1,2,0.5510604000010062,['n'],0,left,none,-99,-99,0.5,-99,0,none,12,19,Woman,Right,
11,1,2,0.717201199999181,['c'],1,left,none,-99,-99,0.5,-99,0,none,12,19,Woman,Right,
12,1,2,0.5013287999991007,['c'],1,left,none,-99,-99,0.5,-99,0,none,12,19,Woman,Right,
13,1,2,0.5346308999996836,['n'],1,right,none,-99,-99,0.5,-99,0,none,12,19,Woman,Right,
14,1,2,0.5991515000005165,['n'],1,right,none,-99,-99,0.5,-99,0,none,12,19,Woman,Right,
15,1,2,0.566951800001334,['n'],1,right,none,-99,-99,0.5,-99,0,none,12,19,Woman,Right,
16,1,2,0.4999450999985129,['n'],1,right,none,-99,-99,0.5,-99,0,none,12,19,Woman,Right,
17,1,2,0.534018999998807,['c'],1,left,none,-99,-99,0.5,-99,0,none,12,19,Woman,Right,
18,1,2,0.5005197000009503,['c'],1,left,none,-99,-99,0.5,-99,0,none,12,19,Woman,Right,
19,1,2,0.8661604999997508,['c'],1,left,none,-99,-99,0.5,-99,0,none,12,19,Woman,Right,
20,1,2,0.46792660000028263,['n'],1,right,none,-99,-99,0.5,-99,0,none,12,19,Woman,Right,
21,1,2,0.8659408000003168,['c'],1,left,none,-99,-99,0.5,-99,0,none,12,19,Woman,Right,
22,1,2,0.5163271999990684,['c'],1,left,none,-99,-99,0.5,-99,0,none,12,19,Woman,Right,
23,1,2,0.4006310000004305,['n'],1,right,none,-99,-99,0.5,-99,0,none,12,19,Woman,Right,
0,2,1,0.8501859000007244,['n'],0,left,none,-99,-99,0.2,-99,0,none,12,19,Woman,Right,
1,2,1,0.6185067000005802,['c'],1,left,none,-99,-99,0.2,-99,0,none,12,19,Woman,Right,
2,2,1,0.5163704999995389,['n'],0,left,none,-99,-99,0.1,-99,0,none,12,19,Woman,Right,
3,2,1,0.6508990000002086,['n'],0,left,none,-99,-99,0.1,-99,0,none,12,19,Woman,Right,
4,2,1,0.6659142000007705,['n'],1,right,none,-99,-99,0.4,-99,0,none,12,19,Woman,Right,
5,2,1,0.49985240000023623,['c'],0,right,none,-99,-99,0.1,-99,0,none,12,19,Woman,Right,
6,2,1,0.5676667000007001,['c'],1,left,none,-99,-99,0.4,-99,0,none,12,19,Woman,Right,
7,2,1,0.5997772999999142,['c'],1,left,none,-99,-99,0.4,-99,0,none,12,19,Woman,Right,
8,2,1,0.6158826000009867,['n'],1,right,none,-99,-99,0.4,-99,0,none,12,19,Woman,Right,
9,2,1,0.4328105000004143,['n'],1,right,none,-99,-99,0.2,-99,0,none,12,19,Woman,Right,
10,2,1,0.48433289999957196,['c'],0,right,none,-99,-99,0.1,-99,0,none,12,19,Woman,Right,
11,2,1,0.8172125999990385,['n'],0,left,none,-99,-99,0.2,-99,0,none,12,19,Woman,Right,
12,2,1,1.083677999999054,['c'],1,left,none,-99,-99,0.4,-99,0,none,12,19,Woman,Right,
13,2,1,0.5679749999999331,['n'],0,left,none,-99,-99,0.2,-99,0,none,12,19,Woman,Right,
14,2,1,0.9848834999993414,['n'],1,right,none,-99,-99,0.2,-99,0,none,12,19,Woman,Right,
15,2,1,0.7686302999991312,['n'],1,right,none,-99,-99,0.1,-99,0,none,12,19,Woman,Right,
16,2,1,0.7509927999999491,['n'],1,right,none,-99,-99,0.2,-99,0,none,12,19,Woman,Right,
17,2,1,0.6347050000003946,['c'],1,left,none,-99,-99,0.4,-99,0,none,12,19,Woman,Right,
18,2,1,0.9847777000013593,['n'],0,left,none,-99,-99,0.4,-99,0,none,12,19,Woman,Right,
19,2,1,0.9011188999993465,['n'],1,right,none,-99,-99,0.2,-99,0,none,12,19,Woman,Right,
20,2,1,0.9661538000000292,['c'],1,left,none,-99,-99,0.1,-99,0,none,12,19,Woman,Right,
21,2,1,0.5167292000005546,['n'],1,right,none,-99,-99,0.4,-99,0,none,12,19,Woman,Right,
22,2,1,1.0333463000006304,['n'],1,right,none,-99,-99,0.1,-99,0,none,12,19,Woman,Right,
23,2,1,0.9493341000015789,['n'],1,right,none,-99,-99,0.1,-99,0,none,12,19,Woman,Right,
0,3,1,0.8337587999994867,['c'],1,left,['e'],1,0.7155722999996215,0.1,1,0,none,12,19,Woman,Right,
1,3,1,0.8172572999992553,['n'],1,right,['u'],0,1.1724947999991855,0.1,0,0,none,12,19,Woman,Right,
2,3,1,1.2011703999996826,['n'],0,left,['u'],0,0.8119685000001482,0.1,1,0,none,12,19,Woman,Right,
3,3,1,1.0180915000000823,['n'],1,right,['e'],1,0.4897239999991143,0.2,1,0,none,12,19,Woman,Right,
4,3,1,0.8510929000003671,['c'],1,left,['e'],1,0.41054110000004584,0.2,1,0,none,12,19,Woman,Right,
5,3,1,0.5352225999995426,['n'],1,right,['e'],1,0.39583780000066326,0.4,1,0,none,12,19,Woman,Right,
6,3,1,1.3330771000000823,['n'],0,left,['u'],0,0.7342337999998563,0.1,1,0,none,12,19,Woman,Right,
7,3,1,0.5846004000013636,['c'],1,left,['e'],1,0.3346357000009448,0.4,1,0,none,12,19,Woman,Right,
8,3,1,0.784853999999541,['n'],1,right,['e'],1,0.5839520999998058,0.1,1,0,none,12,19,Woman,Right,
9,3,1,1.1848597999996855,['n'],0,left,['u'],0,0.8075877999999648,0.2,1,0,none,12,19,Woman,Right,
10,3,1,0.6011557999991055,['n'],1,right,['e'],1,0.3417124999996304,0.4,1,0,none,12,19,Woman,Right,
11,3,1,0.6684556000000157,['c'],0,right,['e'],1,0.2919335999995383,0.4,0,0,none,12,19,Woman,Right,
12,3,1,0.6500156999991304,['n'],1,right,['e'],1,0.29358870000032766,0.2,1,0,none,12,19,Woman,Right,
13,3,1,0.6179195000004256,['c'],1,left,['e'],1,0.31095749999985856,0.4,1,0,none,12,19,Woman,Right,
14,3,1,0.6347406000004412,['n'],0,left,['e'],1,0.2798987999995006,0.4,0,0,none,12,19,Woman,Right,
15,3,1,0.901176099998338,['n'],0,left,['u'],0,0.4473684000004141,0.2,1,0,none,12,19,Woman,Right,
16,3,1,1.5007562999999209,['n'],1,right,['u'],0,1.2228580999999394,0.4,0,0,none,12,19,Woman,Right,
17,3,1,0.7339289000010467,['n'],1,right,['e'],1,0.2551819999989675,0.4,1,0,none,12,19,Woman,Right,
18,3,1,0.46832159999939904,['c'],1,left,['e'],1,0.296592699998655,0.2,1,0,none,12,19,Woman,Right,
19,3,1,0.883207400000174,['n'],0,left,['e'],1,0.9435315999999148,0.2,0,0,none,12,19,Woman,Right,
20,3,1,0.7014435000000958,['n'],1,right,['e'],1,0.2604369000000588,0.2,1,0,none,12,19,Woman,Right,
21,3,1,0.8340102000001934,['c'],0,right,['e'],1,0.49527169999964826,0.1,0,0,none,12,19,Woman,Right,
22,3,1,0.5665403000002698,['n'],0,left,['e'],1,0.30061550000027637,0.1,0,0,none,12,19,Woman,Right,
23,3,1,0.7179950999998255,['n'],1,right,['u'],0,1.2570778000008431,0.1,0,0,none,12,19,Woman,Right,
0,4,1,0.4844242999988637,['n'],0,left,['u'],0,3.138331800000742,0.4,1,0,FastAcc,12,19,Woman,Right,
1,4,1,0.28498639999997977,['n'],0,left,['u'],0,1.1001742000007653,0.4,1,0,FastAcc,12,19,Woman,Right,
2,4,1,0.40139629999976023,['n'],1,right,['e'],1,0.8982823999995162,0.2,1,0,FastAcc,12,19,Woman,Right,
3,4,1,0.46763800000007905,['c'],0,right,['u'],0,2.1257053000008455,0.1,1,0,FastAcc,12,19,Woman,Right,
4,4,1,0.33424770000056014,['n'],1,right,['e'],1,0.7664583000005223,0.4,1,0,FastAcc,12,19,Woman,Right,
5,4,1,0.31836890000158746,['n'],1,right,['e'],1,0.6930526000014652,0.2,1,0,FastAcc,12,19,Woman,Right,
6,4,1,0.31762669999989157,['c'],0,right,['u'],0,1.2633528000005754,0.2,1,0,FastAcc,12,19,Woman,Right,
7,4,1,0.25073880000127247,['n'],0,left,['u'],0,1.9570040000016888,0.1,1,0,FastAcc,12,19,Woman,Right,
8,4,1,0.4345665000000736,['c'],0,right,['u'],0,1.4640454000000318,0.4,1,0,FastAcc,12,19,Woman,Right,
9,4,1,0.3846928000002663,['c'],1,left,['e'],1,1.7122349999990547,0.1,1,0,FastAcc,12,19,Woman,Right,
10,4,1,0.3508118000008835,['c'],1,left,['u'],0,1.231757600000492,0.2,0,0,FastAcc,12,19,Woman,Right,
11,4,1,0.36819180000020424,['n'],1,right,['e'],1,0.9142228999990039,0.1,1,0,FastAcc,12,19,Woman,Right,
12,4,1,0.4345723000005819,['c'],0,right,['e'],1,0.46229240000138816,0.1,0,0,FastAcc,12,19,Woman,Right,
13,4,1,0.28341790000013134,['n'],1,right,['e'],1,0.8348693999996613,0.2,1,0,FastAcc,12,19,Woman,Right,
14,4,1,0.41762240000025486,['c'],1,left,['u'],0,0.8987168000003294,0.1,0,0,FastAcc,12,19,Woman,Right,
15,4,1,0.31729559999985213,['n'],1,right,['u'],0,1.5405014000007213,0.2,0,0,FastAcc,12,19,Woman,Right,
16,4,1,0.28449910000017553,['c'],0,right,['e'],1,0.5102912000002107,0.2,0,0,FastAcc,12,19,Woman,Right,
17,4,1,0.35129220000089845,['n'],0,left,['e'],1,1.2622020999988308,0.1,0,0,FastAcc,12,19,Woman,Right,
18,4,1,0.5183398999997735,['n'],1,right,['e'],1,0.8730225999988761,0.4,1,0,FastAcc,12,19,Woman,Right,
19,4,1,0.25154750000001513,['c'],0,right,['e'],1,0.43070540000007895,0.2,0,0,FastAcc,12,19,Woman,Right,
20,4,1,0.3014075999999477,['n'],1,right,['e'],1,0.41964630000074976,0.4,1,0,FastAcc,12,19,Woman,Right,
21,4,1,0.2511181999998371,['c'],0,right,['u'],0,0.49182180000025255,0.4,1,0,FastAcc,12,19,Woman,Right,
22,4,1,0.2668885000002774,['n'],0,left,['u'],0,0.7993690999992396,0.4,1,0,FastAcc,12,19,Woman,Right,
23,4,1,0.5509359999996377,['n'],0,left,['e'],1,1.1478184999996301,0.1,0,0,FastAcc,12,19,Woman,Right,
24,4,1,0.2678436000005604,['c'],1,left,['e'],1,0.38904700000057346,0.2,1,0,FastAcc,12,19,Woman,Right,
25,4,1,0.2679217000004428,['n'],0,left,['u'],0,1.9493791000004421,0.2,1,0,FastAcc,12,19,Woman,Right,
26,4,1,0.31663900000057765,['n'],1,right,['u'],0,2.1497445999993943,0.2,0,0,FastAcc,12,19,Woman,Right,
27,4,1,0.3009769000000233,['c'],0,right,['e'],1,1.2701738999985537,0.2,0,0,FastAcc,12,19,Woman,Right,
28,4,1,0.41759690000071714,['n'],1,right,['e'],1,1.2364956000001257,0.1,1,0,FastAcc,12,19,Woman,Right,
29,4,1,0.24920230000134325,['c'],0,right,['e'],1,0.9880473000011989,0.2,0,0,FastAcc,12,19,Woman,Right,
30,4,1,0.284569499999634,['n'],1,right,['u'],0,0.9391610999991826,0.1,0,0,FastAcc,12,19,Woman,Right,
31,4,1,0.38502929999958724,['n'],1,right,['e'],1,1.3843143000012788,0.1,1,0,FastAcc,12,19,Woman,Right,
32,4,1,0.30120780000106606,['c'],1,left,['e'],1,0.6480854000001273,0.1,1,0,FastAcc,12,19,Woman,Right,
33,4,1,0.30209560000002966,['n'],0,left,['u'],0,1.059616399999868,0.2,1,0,FastAcc,12,19,Woman,Right,
34,4,1,0.3352127999987715,['c'],1,left,['e'],1,0.5743693999993411,0.4,1,0,FastAcc,12,19,Woman,Right,
35,4,1,0.2834817999992083,['n'],1,right,['u'],0,0.6872958000003564,0.1,0,0,FastAcc,12,19,Woman,Right,
36,4,1,0.25159330000133195,['c'],1,left,['u'],0,2.1395281000004616,0.2,0,0,FastAcc,12,19,Woman,Right,
37,4,1,0.40062359999865294,['c'],1,left,['e'],1,0.5365861999998742,0.2,1,0,FastAcc,12,19,Woman,Right,
38,4,1,0.334761799998887,['n'],1,right,['e'],1,0.4561506999998528,0.4,1,0,FastAcc,12,19,Woman,Right,
39,4,1,0.30186110000067856,['c'],1,left,['e'],1,0.4123156999994535,0.4,1,0,FastAcc,12,19,Woman,Right,
40,4,1,0.28480640000088897,['n'],1,right,['u'],0,0.7386194000009709,0.1,0,0,FastAcc,12,19,Woman,Right,
41,4,1,0.251307700000325,['c'],1,left,['e'],1,0.4775764000005438,0.4,1,0,FastAcc,12,19,Woman,Right,
42,4,1,0.2673502000016015,['n'],1,right,['e'],1,0.48222229999919364,0.1,1,0,FastAcc,12,19,Woman,Right,
43,4,1,0.2994326000007277,['c'],0,right,['u'],0,0.7266235000006418,0.4,1,0,FastAcc,12,19,Woman,Right,
44,4,1,0.2839232999995147,['n'],0,left,['u'],0,0.9757128000001103,0.4,1,0,FastAcc,12,19,Woman,Right,
45,4,1,0.36817750000045635,['n'],0,left,['e'],1,1.084338900000148,0.4,0,0,FastAcc,12,19,Woman,Right,
46,4,1,0.4347066000009363,['c'],1,left,['u'],0,0.8660528999989765,0.2,0,0,FastAcc,12,19,Woman,Right,
47,4,1,0.2515693999994255,['c'],1,left,['u'],0,0.9675814000001992,0.2,0,0,FastAcc,12,19,Woman,Right,
48,4,1,0.4179511000002094,['c'],1,left,['e'],1,0.7063868000004732,0.2,1,0,FastAcc,12,19,Woman,Right,
49,4,1,0.3180257000003621,['n'],0,left,['e'],1,0.4119902999991609,0.1,0,0,FastAcc,12,19,Woman,Right,
50,4,1,0.38431130000026315,['c'],1,left,['e'],1,0.5100383999997575,0.4,1,0,FastAcc,12,19,Woman,Right,
51,4,1,0.41833820000101696,['n'],0,left,['e'],1,0.5557856000013999,0.1,0,0,FastAcc,12,19,Woman,Right,
52,4,1,0.5180349999991449,['n'],1,right,['e'],1,0.3872465000004013,0.4,1,0,FastAcc,12,19,Woman,Right,
53,4,1,0.3008300000001327,['c'],1,left,['e'],1,0.5543660000003001,0.1,1,0,FastAcc,12,19,Woman,Right,
54,4,1,0.3511523999986821,['n'],0,left,['u'],0,0.6002761999989161,0.2,1,0,FastAcc,12,19,Woman,Right,
55,4,1,0.3326323000001139,['c'],1,left,['e'],1,0.40595270000085293,0.4,1,0,FastAcc,12,19,Woman,Right,
56,4,1,0.2344744999991235,['n'],0,left,['e'],1,0.39805840000008175,0.4,0,0,FastAcc,12,19,Woman,Right,
57,4,1,0.38460769999983313,['c'],0,right,['u'],0,0.5449677000015072,0.1,1,0,FastAcc,12,19,Woman,Right,
58,4,1,0.2999928000008367,['n'],1,right,['u'],0,0.497244000000137,0.1,0,0,FastAcc,12,19,Woman,Right,
59,4,1,0.5512299000001804,['n'],1,right,['e'],1,1.353424899998572,0.4,1,0,FastAcc,12,19,Woman,Right,
0,5,1,0.46765859999868553,['n'],1,right,['e'],1,0.771831199999724,0.4,1,0,FastFast,12,19,Woman,Right,
1,5,1,0.3854881999995996,['n'],0,left,['e'],1,0.39180640000085987,0.1,0,0,FastFast,12,19,Woman,Right,
2,5,1,0.368049599999722,['n'],1,right,['e'],1,0.7961809000007634,0.1,1,0,FastFast,12,19,Woman,Right,
3,5,1,0.301521599998523,['c'],1,left,['e'],1,0.3223527999998623,0.1,1,0,FastFast,12,19,Woman,Right,
4,5,1,0.5514554000001226,['c'],1,left,['e'],1,0.4338769999994838,0.4,1,0,FastFast,12,19,Woman,Right,
5,5,1,0.2675617000004422,['n'],1,right,['e'],1,0.3761405000004743,0.1,1,0,FastFast,12,19,Woman,Right,
6,5,1,0.36708419999922626,['c'],1,left,['u'],0,1.0214912999999797,0.4,0,0,FastFast,12,19,Woman,Right,
7,5,1,0.4013135000004695,['n'],0,left,['e'],1,1.3346723999984533,0.1,0,0,FastFast,12,19,Woman,Right,
8,5,1,0.5175784999992175,['c'],0,right,['e'],1,0.5106466999986878,0.1,0,0,FastFast,12,19,Woman,Right,
9,5,1,0.3991576999997051,['n'],1,right,['u'],0,0.8783363999991707,0.1,0,0,FastFast,12,19,Woman,Right,
10,5,1,0.5855936999996629,['n'],1,right,['u'],0,0.5493905000002997,0.2,0,0,FastFast,12,19,Woman,Right,
11,5,1,0.3174197999996977,['c'],0,right,['u'],0,0.48482770000009623,0.2,1,0,FastFast,12,19,Woman,Right,
12,5,1,0.30140749999918626,['n'],1,right,['e'],1,0.6803307999998651,0.2,1,0,FastFast,12,19,Woman,Right,
13,5,1,0.3349422000010236,['n'],0,left,['e'],1,0.3532164999996894,0.4,0,0,FastFast,12,19,Woman,Right,
14,5,1,0.3680401999990863,['n'],1,right,['e'],1,0.40675560000090627,0.2,1,0,FastFast,12,19,Woman,Right,
15,5,1,0.2856517999989592,['c'],0,right,['u'],0,0.5423272999996698,0.4,1,0,FastFast,12,19,Woman,Right,
16,5,1,0.5176754999993136,['c'],1,left,['e'],1,0.27787200000057055,0.2,1,0,FastFast,12,19,Woman,Right,
17,5,1,0.25148110000009183,['n'],1,right,['e'],1,0.3073335000008228,0.4,1,0,FastFast,12,19,Woman,Right,
18,5,1,0.5349095999990823,['c'],0,right,['e'],1,0.24418970000078843,0.2,0,0,FastFast,12,19,Woman,Right,
19,5,1,0.6513934999984485,['c'],1,left,['e'],1,0.339110900000378,0.1,1,0,FastFast,12,19,Woman,Right,
20,5,1,0.33342500000071595,['n'],0,left,['e'],1,0.2513868999994884,0.4,0,0,FastFast,12,19,Woman,Right,
21,5,1,0.33377959999961604,['n'],1,right,['e'],1,0.22989319999942381,0.1,1,0,FastFast,12,19,Woman,Right,
22,5,1,0.40137010000034934,['n'],1,right,['e'],1,0.2864270999998553,0.1,1,0,FastFast,12,19,Woman,Right,
23,5,1,0.30144970000037574,['c'],1,left,['e'],1,0.24928859999999986,0.2,1,0,FastFast,12,19,Woman,Right,
24,5,1,0.3011045999992348,['n'],1,right,['e'],1,0.2774200000003475,0.4,1,0,FastFast,12,19,Woman,Right,
25,5,1,0.36837980000018433,['c'],1,left,['e'],1,0.2223995999993349,0.1,1,0,FastFast,12,19,Woman,Right,
26,5,1,0.30166989999997895,['n'],1,right,['e'],1,0.2358628999991197,0.1,1,0,FastFast,12,19,Woman,Right,
27,5,1,0.31809439999960887,['n'],0,left,['e'],1,0.2321150999996462,0.4,0,0,FastFast,12,19,Woman,Right,
28,5,1,0.35064930000044114,['c'],1,left,['e'],1,0.22697169999992184,0.2,1,0,FastFast,12,19,Woman,Right,
29,5,1,0.38353749999987485,['n'],0,left,['e'],1,0.15717899999981455,0.2,0,0,FastFast,12,19,Woman,Right,
30,5,1,0.3667485999994824,['n'],1,right,['e'],1,0.234847699999591,0.2,1,0,FastFast,12,19,Woman,Right,
31,5,1,0.368202100000417,['n'],0,left,['u'],0,0.30862380000144185,0.4,1,0,FastFast,12,19,Woman,Right,
32,5,1,0.7346557000000757,['n'],0,left,['u'],0,1.4695757000008598,0.4,1,0,FastFast,12,19,Woman,Right,
33,5,1,0.6511140999991767,['n'],1,right,['e'],1,0.26723169999968377,0.2,1,0,FastFast,12,19,Woman,Right,
34,5,1,0.28476989999944635,['c'],0,right,['u'],0,0.9835646999999881,0.4,1,0,FastFast,12,19,Woman,Right,
35,5,1,0.36786190000020724,['n'],1,right,['u'],0,0.9636673999993945,0.2,0,0,FastFast,12,19,Woman,Right,
36,5,1,0.4508800000003248,['n'],1,right,['u'],0,0.621281399999134,0.1,0,0,FastFast,12,19,Woman,Right,
37,5,1,0.41728779999903054,['c'],1,left,['e'],1,0.2781007000012323,0.1,1,0,FastFast,12,19,Woman,Right,
38,5,1,0.38508079999883194,['c'],1,left,['u'],0,0.6706824000011693,0.1,0,0,FastFast,12,19,Woman,Right,
39,5,1,0.418194299998504,['n'],1,right,['u'],0,0.549417899999753,0.1,0,0,FastFast,12,19,Woman,Right,
40,5,1,0.6516633000010188,['n'],0,left,['e'],1,0.4715529000004608,0.1,0,0,FastFast,12,19,Woman,Right,
41,5,1,0.5497431000003417,['n'],0,left,['e'],1,0.1304915999990044,0.1,0,0,FastFast,12,19,Woman,Right,
42,5,1,0.40155609999965236,['n'],0,left,['u'],0,0.6699984000006225,0.4,1,0,FastFast,12,19,Woman,Right,
43,5,1,0.48676760000125796,['n'],1,right,['e'],1,0.2581549999995332,0.2,1,0,FastFast,12,19,Woman,Right,
44,5,1,0.45192300000053365,['n'],1,right,['u'],0,0.40820480000002135,0.1,0,0,FastFast,12,19,Woman,Right,
45,5,1,1.1519865000009304,['c'],1,left,['e'],1,0.6846192000011797,0.2,1,0,FastFast,12,19,Woman,Right,
46,5,1,0.9171381000014662,['c'],1,left,['e'],1,0.23889760000020033,0.4,1,0,FastFast,12,19,Woman,Right,
47,5,1,0.5175251000000571,['n'],1,right,['e'],1,0.2281994000004488,0.4,1,0,FastFast,12,19,Woman,Right,
48,5,1,0.5007507999998779,['n'],0,left,['e'],1,0.28137429999878805,0.2,0,0,FastFast,12,19,Woman,Right,
49,5,1,0.41839040000013483,['n'],1,right,['u'],0,0.28679550000015297,0.1,0,0,FastFast,12,19,Woman,Right,
50,5,1,0.60095580000052,['c'],1,left,['e'],1,0.3977720999992016,0.4,1,0,FastFast,12,19,Woman,Right,
51,5,1,0.6178101000004972,['n'],1,right,['e'],1,0.2799308000012388,0.2,1,0,FastFast,12,19,Woman,Right,
52,5,1,0.4177385000002687,['c'],1,left,['e'],1,0.30126390000077663,0.4,1,0,FastFast,12,19,Woman,Right,
53,5,1,0.5165398000008281,['n'],0,left,['u'],0,0.4798790000004374,0.2,1,0,FastFast,12,19,Woman,Right,
54,5,1,0.35090450000097917,['n'],1,right,['e'],1,0.20777670000097714,0.4,1,0,FastFast,12,19,Woman,Right,
55,5,1,0.5346902000001137,['n'],1,right,['u'],0,0.436737500000163,0.2,0,0,FastFast,12,19,Woman,Right,
56,5,1,0.43530460000147286,['c'],1,left,['e'],1,0.27621670000007725,0.2,1,0,FastFast,12,19,Woman,Right,
57,5,1,0.5518236999996589,['c'],1,left,['e'],1,0.24580739999873913,0.4,1,0,FastFast,12,19,Woman,Right,
58,5,1,0.551671900000656,['n'],0,left,['e'],1,0.23205010000128823,0.2,0,0,FastFast,12,19,Woman,Right,
59,5,1,0.5346405000000232,['n'],1,right,['e'],1,0.2997049999994488,0.4,1,0,FastFast,12,19,Woman,Right,
0,6,1,0.600903800001106,['n'],0,left,['u'],0,1.098600900000747,0.4,1,0,AccFast,12,19,Woman,Right,
1,6,1,0.8670798000002833,['n'],1,right,['e'],1,0.5102212999991025,0.1,1,0,AccFast,12,19,Woman,Right,
2,6,1,0.43426069999986794,['c'],1,left,['e'],1,0.42720209999970393,0.2,1,0,AccFast,12,19,Woman,Right,
3,6,1,0.816325700001471,['n'],0,left,['e'],1,0.5886291000006167,0.1,0,0,AccFast,12,19,Woman,Right,
4,6,1,0.7654414999997243,['n'],1,right,['e'],1,0.3935356000001775,0.1,1,0,AccFast,12,19,Woman,Right,
5,6,1,0.6161952999991627,['c'],1,left,['e'],1,0.2590297000006103,0.2,1,0,AccFast,12,19,Woman,Right,
6,6,1,0.8179845000013302,['c'],1,left,['e'],1,0.36192010000013397,0.4,1,0,AccFast,12,19,Woman,Right,
7,6,1,0.7679983999987599,['n'],0,left,['e'],1,0.5749479999994946,0.4,0,0,AccFast,12,19,Woman,Right,
8,6,1,0.7015246999999363,['n'],1,right,['e'],1,0.526454200000444,0.2,1,0,AccFast,12,19,Woman,Right,
9,6,1,0.6516353999995772,['n'],0,left,['e'],1,0.45024060000105237,0.2,0,0,AccFast,12,19,Woman,Right,
10,6,1,0.6180143999990833,['n'],0,left,['e'],1,0.5055322999996861,0.2,0,0,AccFast,12,19,Woman,Right,
11,6,1,0.7337635000003502,['c'],1,left,['e'],1,0.42695239999920886,0.2,1,0,AccFast,12,19,Woman,Right,
12,6,1,1.4012308000001212,['n'],0,left,['u'],0,0.2919958000002225,0.1,1,0,AccFast,12,19,Woman,Right,
13,6,1,0.6348180000004504,['n'],1,right,['e'],1,0.43355349999910686,0.4,1,0,AccFast,12,19,Woman,Right,
14,6,1,0.8346764000016265,['c'],1,left,['e'],1,0.5932317999995576,0.1,1,0,AccFast,12,19,Woman,Right,
15,6,1,0.7337132000011479,['n'],0,left,['e'],1,0.3835450000005949,0.1,0,0,AccFast,12,19,Woman,Right,
16,6,1,0.5513514000012947,['n'],1,right,['e'],1,0.4277027000007365,0.2,1,0,AccFast,12,19,Woman,Right,
17,6,1,0.7680756000008842,['n'],0,left,['e'],1,0.5106498999994074,0.1,0,0,AccFast,12,19,Woman,Right,
18,6,1,0.585130500001469,['n'],1,right,['e'],1,0.3734289000003628,0.4,1,0,AccFast,12,19,Woman,Right,
19,6,1,0.6675403999997798,['c'],1,left,['e'],1,0.47842320000017935,0.4,1,0,AccFast,12,19,Woman,Right,
20,6,1,0.6850228999992396,['n'],1,right,['e'],1,0.46589769999991404,0.2,1,0,AccFast,12,19,Woman,Right,
21,6,1,0.7181986999985384,['n'],0,left,['e'],1,0.5009958999999071,0.1,0,0,AccFast,12,19,Woman,Right,
22,6,1,0.7345008000011148,['c'],1,left,['e'],1,0.4219310000007681,0.1,1,0,AccFast,12,19,Woman,Right,
23,6,1,0.600607400001536,['n'],1,right,['e'],1,0.46334290000049805,0.1,1,0,AccFast,12,19,Woman,Right,
24,6,1,0.5671136000000843,['n'],1,right,['e'],1,0.3761343999995006,0.4,1,0,AccFast,12,19,Woman,Right,
25,6,1,0.6842823999995744,['c'],1,left,['e'],1,0.3203462000001309,0.2,1,0,AccFast,12,19,Woman,Right,
26,6,1,0.6180117999992945,['n'],1,right,['e'],1,0.2539102000009734,0.2,1,0,AccFast,12,19,Woman,Right,
27,6,1,0.6013698000006116,['c'],0,right,['e'],1,0.30145749999974214,0.1,0,0,AccFast,12,19,Woman,Right,
28,6,1,0.6154153000006772,['n'],1,right,['e'],1,0.3805553999991389,0.2,1,0,AccFast,12,19,Woman,Right,
29,6,1,0.6348238999999012,['n'],1,right,['e'],1,0.27657100000033097,0.1,1,0,AccFast,12,19,Woman,Right,
30,6,1,0.6691997999987507,['c'],0,right,['e'],1,0.2894716000009794,0.1,0,0,AccFast,12,19,Woman,Right,
31,6,1,0.733933600000455,['n'],1,right,['e'],1,0.37900160000026517,0.4,1,0,AccFast,12,19,Woman,Right,
32,6,1,1.282615199999782,['n'],1,right,['u'],0,0.26819460000115214,0.2,0,0,AccFast,12,19,Woman,Right,
33,6,1,0.717017200000555,['c'],1,left,['e'],1,0.2783505999996123,0.4,1,0,AccFast,12,19,Woman,Right,
34,6,1,0.5851201000004949,['n'],1,right,['e'],1,0.26179600000068604,0.4,1,0,AccFast,12,19,Woman,Right,
35,6,1,1.9670139999998355,['c'],0,right,['e'],1,0.7348732999998902,0.2,0,0,AccFast,12,19,Woman,Right,
36,6,1,1.168388900001446,['c'],1,left,['u'],0,0.3090914000003977,0.2,0,0,AccFast,12,19,Woman,Right,
37,6,1,0.9168451999994431,['n'],0,left,['u'],0,0.3431860999990022,0.4,1,0,AccFast,12,19,Woman,Right,
38,6,1,0.801083500000459,['n'],1,right,['u'],0,0.3956101999992825,0.4,0,0,AccFast,12,19,Woman,Right,
39,6,1,1.5504581999994116,['c'],1,left,['u'],0,0.4158702999993693,0.1,0,0,AccFast,12,19,Woman,Right,
40,6,1,0.6677598999995098,['c'],1,left,['e'],1,0.34276329999920563,0.4,1,0,AccFast,12,19,Woman,Right,
41,6,1,0.6675872000014351,['c'],1,left,['e'],1,0.30485549999866635,0.4,1,0,AccFast,12,19,Woman,Right,
42,6,1,1.0846264000010706,['n'],0,left,['u'],0,0.3320117000002938,0.2,1,0,AccFast,12,19,Woman,Right,
43,6,1,2.5520974999999453,['n'],0,left,['u'],0,0.4428722000011476,0.4,1,0,AccFast,12,19,Woman,Right,
44,6,1,0.9685284999995929,['n'],0,left,['u'],0,0.2772826999989775,0.1,1,0,AccFast,12,19,Woman,Right,
45,6,1,0.7529388999992079,['n'],1,right,['e'],1,0.4788145999991684,0.4,1,0,AccFast,12,19,Woman,Right,
46,6,1,0.7337741000010283,['c'],0,right,['e'],1,0.24100209999960498,0.2,0,0,AccFast,12,19,Woman,Right,
47,6,1,2.9016955999995844,['n'],1,right,['u'],0,0.42148359999919194,0.1,0,0,AccFast,12,19,Woman,Right,
48,6,1,0.5842845000006491,['n'],1,right,['e'],1,0.6558074999993551,0.4,1,0,AccFast,12,19,Woman,Right,
49,6,1,1.2510721999988164,['n'],0,left,['e'],1,0.34200090000013006,0.4,0,0,AccFast,12,19,Woman,Right,
50,6,1,0.5850061000001006,['n'],1,right,['e'],1,0.29142719999981637,0.2,1,0,AccFast,12,19,Woman,Right,
51,6,1,0.7325868000007176,['n'],1,right,['e'],1,0.4304993000005197,0.1,1,0,AccFast,12,19,Woman,Right,
52,6,1,0.6326564000009967,['n'],1,right,['e'],1,0.29419140000027255,0.4,1,0,AccFast,12,19,Woman,Right,
53,6,1,0.7011556999987079,['n'],1,right,['e'],1,0.3034520999990491,0.1,1,0,AccFast,12,19,Woman,Right,
54,6,1,0.9333587000000989,['n'],0,left,['e'],1,0.2882774000008794,0.2,0,0,AccFast,12,19,Woman,Right,
55,6,1,0.7847292999995261,['n'],1,right,['e'],1,0.2958978999995452,0.4,1,0,AccFast,12,19,Woman,Right,
56,6,1,0.9345951000013883,['c'],0,right,['u'],0,0.6487584000005882,0.2,1,0,AccFast,12,19,Woman,Right,
57,6,1,0.8011634000013146,['n'],0,left,['e'],1,0.3693641000008938,0.1,0,0,AccFast,12,19,Woman,Right,
58,6,1,0.6339641000013216,['n'],1,right,['e'],1,0.379223699999784,0.2,1,0,AccFast,12,19,Woman,Right,
59,6,1,0.7506145999996079,['n'],0,left,['e'],1,0.2562519999992219,0.1,0,0,AccFast,12,19,Woman,Right,
0,7,1,2.618269100001271,['c'],0,right,['u'],0,2.5811697999997705,0.1,1,0,AccAcc,12,19,Woman,Right,
1,7,1,1.7679124000005686,['n'],1,right,['e'],1,0.6658208999997441,0.1,1,0,AccAcc,12,19,Woman,Right,
2,7,1,0.7011579999998503,['n'],1,right,['e'],1,0.42218039999897883,0.2,1,0,AccAcc,12,19,Woman,Right,
3,7,1,1.8342493000000104,['n'],0,left,['e'],1,0.7177406000009796,0.4,0,0,AccAcc,12,19,Woman,Right,
4,7,1,1.7841929999995045,['n'],1,right,['e'],1,0.4761073999998189,0.1,1,0,AccAcc,12,19,Woman,Right,
5,7,1,4.184343400000216,['n'],1,right,['e'],1,0.37260480000077223,0.2,1,0,AccAcc,12,19,Woman,Right,
6,7,1,2.3511711999999534,['n'],0,left,['e'],1,0.3941885000003822,0.1,0,0,AccAcc,12,19,Woman,Right,
7,7,1,0.8834682999986398,['c'],1,left,['e'],1,0.6033719000006386,0.2,1,0,AccAcc,12,19,Woman,Right,
8,7,1,0.9517340999991575,['c'],1,left,['e'],1,0.33418709999932616,0.2,1,0,AccAcc,12,19,Woman,Right,
9,7,1,2.833565400000225,['c'],0,right,['u'],0,0.3385132000003068,0.1,1,0,AccAcc,12,19,Woman,Right,
10,7,1,0.6180031999992934,['c'],1,left,['e'],1,0.9901989999998477,0.2,1,0,AccAcc,12,19,Woman,Right,
11,7,1,1.718043700000635,['n'],1,right,['u'],0,0.24440990000039164,0.1,0,0,AccAcc,12,19,Woman,Right,
12,7,1,0.7844767000005959,['n'],1,right,['e'],1,0.4460920999990776,0.4,1,0,AccAcc,12,19,Woman,Right,
13,7,1,0.8333810000003723,['c'],1,left,['e'],1,0.33359769999879063,0.4,1,0,AccAcc,12,19,Woman,Right,
14,7,1,2.850480699999025,['c'],1,left,['e'],1,0.3360909000002721,0.2,1,0,AccAcc,12,19,Woman,Right,
15,7,1,1.350371600001381,['n'],1,right,['e'],1,0.7349186000010377,0.4,1,0,AccAcc,12,19,Woman,Right,
16,7,1,0.7344369999991613,['c'],1,left,['e'],1,0.3586875000000873,0.2,1,0,AccAcc,12,19,Woman,Right,
17,7,1,0.8015782999991643,['n'],1,right,['e'],1,0.39477760000045237,0.4,1,0,AccAcc,12,19,Woman,Right,
18,7,1,1.0851721999988513,['n'],0,left,['e'],1,0.2745787999992899,0.4,0,0,AccAcc,12,19,Woman,Right,
19,7,1,0.8844269000001077,['n'],1,right,['e'],1,0.3741976000001159,0.4,1,0,AccAcc,12,19,Woman,Right,
20,7,1,0.6848389999995561,['n'],1,right,['e'],1,0.3182512000003044,0.4,1,0,AccAcc,12,19,Woman,Right,
21,7,1,0.9349195000013424,['n'],1,right,['e'],1,2.302559799998562,0.1,1,0,AccAcc,12,19,Woman,Right,
22,7,1,1.4995456999986345,['n'],0,left,['u'],0,0.44170090000079654,0.2,1,0,AccAcc,12,19,Woman,Right,
23,7,1,4.5842133999994985,['n'],1,right,['u'],0,0.738834499999939,0.4,0,0,AccAcc,12,19,Woman,Right,
24,7,1,1.2493174000010185,['n'],0,left,['e'],1,0.647230499998841,0.1,0,0,AccAcc,12,19,Woman,Right,
25,7,1,0.8691573999985849,['n'],1,right,['e'],1,0.8433273000009649,0.2,1,0,AccAcc,12,19,Woman,Right,
26,7,1,1.8676077000000078,['n'],1,right,['e'],1,0.417603699999745,0.1,1,0,AccAcc,12,19,Woman,Right,
27,7,1,1.3512202000001707,['n'],0,left,['e'],1,0.34959020000133023,0.1,0,0,AccAcc,12,19,Woman,Right,
28,7,1,0.7677401000000827,['n'],1,right,['e'],1,0.2911928000012267,0.1,1,0,AccAcc,12,19,Woman,Right,
29,7,1,0.9012505999999121,['n'],0,left,['u'],0,0.3578307000007044,0.1,1,0,AccAcc,12,19,Woman,Right,
30,7,1,1.0342488000005687,['n'],1,right,['e'],1,0.43284660000063013,0.2,1,0,AccAcc,12,19,Woman,Right,
31,7,1,0.935337900000377,['n'],1,right,['u'],0,0.3004395999996632,0.1,0,0,AccAcc,12,19,Woman,Right,
32,7,1,1.1344638000009581,['c'],1,left,['e'],1,0.38924670000051265,0.4,1,0,AccAcc,12,19,Woman,Right,
33,7,1,0.6667011000008642,['n'],1,right,['e'],1,0.2862489999988611,0.4,1,0,AccAcc,12,19,Woman,Right,
34,7,1,1.6497085000009974,['c'],1,left,['e'],1,0.3063692000014271,0.4,1,0,AccAcc,12,19,Woman,Right,
35,7,1,1.118159999999989,['n'],1,right,['e'],1,0.3960700999996334,0.4,1,0,AccAcc,12,19,Woman,Right,
36,7,1,0.7836303999993106,['n'],1,right,['e'],1,0.3514437000012549,0.4,1,0,AccAcc,12,19,Woman,Right,
37,7,1,0.9172027000004164,['n'],1,right,['e'],1,0.36661129999993136,0.1,1,0,AccAcc,12,19,Woman,Right,
38,7,1,0.8673023000010289,['c'],1,left,['e'],1,0.3194286000016291,0.2,1,0,AccAcc,12,19,Woman,Right,
39,7,1,1.1176371000001382,['c'],1,left,['e'],1,0.32858719999967434,0.4,1,0,AccAcc,12,19,Woman,Right,
40,7,1,1.1341486999990593,['n'],1,right,['e'],1,0.3679634000000078,0.1,1,0,AccAcc,12,19,Woman,Right,
41,7,1,1.0179074999996374,['n'],1,right,['e'],1,0.4908770000001823,0.2,1,0,AccAcc,12,19,Woman,Right,
42,7,1,0.7014282000000094,['n'],1,right,['e'],1,0.3498202000009769,0.4,1,0,AccAcc,12,19,Woman,Right,
43,7,1,1.0170325999988563,['c'],1,left,['e'],1,0.42561249999926076,0.2,1,0,AccAcc,12,19,Woman,Right,
44,7,1,1.451433400001406,['n'],0,left,['e'],1,0.36900489999970887,0.2,0,0,AccAcc,12,19,Woman,Right,
45,7,1,0.8515065000010509,['c'],1,left,['e'],1,0.2904381000007561,0.2,1,0,AccAcc,12,19,Woman,Right,
46,7,1,0.6681081000006088,['c'],1,left,['u'],0,0.7669733000002452,0.4,0,0,AccAcc,12,19,Woman,Right,
47,7,1,0.8011298000001261,['n'],0,left,['u'],0,0.7063543000003847,0.1,1,0,AccAcc,12,19,Woman,Right,
48,7,1,0.8330932000008033,['c'],1,left,['e'],1,0.3127963000006275,0.4,1,0,AccAcc,12,19,Woman,Right,
49,7,1,0.7343280000004597,['n'],1,right,['u'],0,0.5922225999984221,0.1,0,0,AccAcc,12,19,Woman,Right,
50,7,1,1.8842471999996633,['c'],1,left,['e'],1,0.6719087000001309,0.4,1,0,AccAcc,12,19,Woman,Right,
51,7,1,0.7838451999996323,['n'],0,left,['u'],0,0.45613310000044294,0.1,1,0,AccAcc,12,19,Woman,Right,
52,7,1,1.3674625000003289,['c'],1,left,['e'],1,0.7219903000004706,0.2,1,0,AccAcc,12,19,Woman,Right,
53,7,1,1.2678372000009404,['n'],1,right,['u'],0,0.6128656000000774,0.2,0,0,AccAcc,12,19,Woman,Right,
54,7,1,2.051543399998991,['n'],1,right,['u'],0,0.6526138999997784,0.2,0,0,AccAcc,12,19,Woman,Right,
55,7,1,0.6181257999996888,['n'],1,right,['u'],0,0.300167400000646,0.2,0,0,AccAcc,12,19,Woman,Right,
56,7,1,1.068225999999413,['n'],0,left,['u'],0,0.4878310000003694,0.2,1,0,AccAcc,12,19,Woman,Right,
57,7,1,1.0016887000001589,['n'],0,left,['u'],0,0.46269349999965925,0.1,1,0,AccAcc,12,19,Woman,Right,
58,7,1,1.5010663000011846,['c'],1,left,['e'],1,0.4822781999992003,0.1,1,0,AccAcc,12,19,Woman,Right,
59,7,1,0.7010030999990704,['n'],0,left,['u'],0,0.32512299999871175,0.4,1,0,AccAcc,12,19,Woman,Right,
0,8,1,0.367902400001185,['n'],0,left,['u'],0,0.9888530999996874,0.2,1,0,FastAcc,12,19,Woman,Right,
1,8,1,0.5839771999999357,['c'],1,left,['u'],0,0.9443640999998024,0.2,0,0,FastAcc,12,19,Woman,Right,
2,8,1,0.3676357000003918,['n'],1,right,['e'],1,0.8305957000011404,0.1,1,0,FastAcc,12,19,Woman,Right,
3,8,1,0.3832042999983969,['c'],0,right,['e'],1,1.1360796999997547,0.4,0,0,FastAcc,12,19,Woman,Right,
4,8,1,0.35150159999830066,['n'],0,left,['u'],0,0.7753580000007787,0.2,1,0,FastAcc,12,19,Woman,Right,
5,8,1,0.4347555000003922,['c'],0,right,['u'],0,0.7614085999994131,0.2,1,0,FastAcc,12,19,Woman,Right,
6,8,1,0.33486809999885736,['n'],0,left,['u'],0,0.9285565999998653,0.4,1,0,FastAcc,12,19,Woman,Right,
7,8,1,0.4013814000009006,['n'],0,left,['e'],1,0.381352300000799,0.4,0,0,FastAcc,12,19,Woman,Right,
8,8,1,0.817503599999327,['c'],0,right,['u'],0,0.7195042000003014,0.1,1,0,FastAcc,12,19,Woman,Right,
9,8,1,0.3179525999985344,['n'],0,left,['u'],0,2.104244199999812,0.1,1,0,FastAcc,12,19,Woman,Right,
10,8,1,0.25153750000026776,['c'],1,left,['e'],1,0.9727320000001782,0.4,1,0,FastAcc,12,19,Woman,Right,
11,8,1,0.28489340000123775,['n'],0,left,['u'],0,1.2448034999997617,0.2,1,0,FastAcc,12,19,Woman,Right,
12,8,1,0.28457239999988815,['c'],0,right,['u'],0,0.8177900000009686,0.2,1,0,FastAcc,12,19,Woman,Right,
13,8,1,0.30166210000061255,['n'],0,left,['u'],0,0.9033363999988069,0.2,1,0,FastAcc,12,19,Woman,Right,
14,8,1,0.3013044999988779,['c'],1,left,['u'],0,0.9216800000012881,0.1,0,0,FastAcc,12,19,Woman,Right,
15,8,1,0.15143850000094972,['n'],1,right,['u'],0,0.8172411000014108,0.4,0,0,FastAcc,12,19,Woman,Right,
16,8,1,0.2671307999989949,['c'],1,left,['u'],0,3.8807997000003525,0.2,0,0,FastAcc,12,19,Woman,Right,
17,8,1,0.43463810000139347,['n'],1,right,['u'],0,0.7341258999986167,0.4,0,0,FastAcc,12,19,Woman,Right,
18,8,1,0.5179134000009071,['n'],0,left,['u'],0,1.0701927999998588,0.1,1,0,FastAcc,12,19,Woman,Right,
19,8,1,0.584894899999199,['c'],0,right,['u'],0,0.5423781999998027,0.2,1,0,FastAcc,12,19,Woman,Right,
20,8,1,0.3837872000003699,['n'],1,right,['u'],0,0.4281535000009171,0.2,0,0,FastAcc,12,19,Woman,Right,
21,8,1,0.7348103999993327,['c'],0,right,['u'],0,0.8161868000006507,0.4,1,0,FastAcc,12,19,Woman,Right,
22,8,1,0.43446750000111933,['n'],1,right,['u'],0,0.4164818999997806,0.4,0,0,FastAcc,12,19,Woman,Right,
23,8,1,0.41803880000043137,['c'],0,right,['u'],0,0.3532398999996076,0.4,1,0,FastAcc,12,19,Woman,Right,
24,8,1,0.45135359999949287,['c'],0,right,['u'],0,0.4363398000004963,0.2,1,0,FastAcc,12,19,Woman,Right,
25,8,1,0.36822620000020834,['n'],0,left,['u'],0,1.0937991000009788,0.2,1,0,FastAcc,12,19,Woman,Right,
26,8,1,0.40157990000079735,['c'],1,left,['u'],0,0.44462990000101854,0.4,0,0,FastAcc,12,19,Woman,Right,
27,8,1,0.5178117000014026,['c'],1,left,['e'],1,0.3288616000008915,0.4,1,0,FastAcc,12,19,Woman,Right,
28,8,1,0.4834375000009459,['n'],1,right,['u'],0,0.47521120000055816,0.1,0,0,FastAcc,12,19,Woman,Right,
29,8,1,0.4836653000002116,['c'],0,right,['u'],0,1.6390999000013835,0.1,1,0,FastAcc,12,19,Woman,Right,
30,8,1,0.6490219999996043,['n'],1,right,['e'],1,1.1830695000007836,0.2,1,0,FastAcc,12,19,Woman,Right,
31,8,1,0.4850411000006716,['c'],1,left,['e'],1,0.46141760000136856,0.2,1,0,FastAcc,12,19,Woman,Right,
32,8,1,0.5674680000010994,['n'],1,right,['e'],1,0.6474947999995493,0.4,1,0,FastAcc,12,19,Woman,Right,
33,8,1,0.4845494000001054,['c'],1,left,['e'],1,0.8756740000007994,0.1,1,0,FastAcc,12,19,Woman,Right,
34,8,1,0.5347841000002518,['n'],1,right,['e'],1,0.7740711000005831,0.4,1,0,FastAcc,12,19,Woman,Right,
35,8,1,0.5345887000003131,['c'],1,left,['e'],1,0.8042084999997314,0.1,1,0,FastAcc,12,19,Woman,Right,
36,8,1,0.5181302999990294,['n'],0,left,['e'],1,0.7060374000011507,0.1,0,0,FastAcc,12,19,Woman,Right,
37,8,1,0.5683329000003141,['n'],1,right,['e'],1,0.6092788000005385,0.4,1,0,FastAcc,12,19,Woman,Right,
38,8,1,0.4849659999999858,['c'],1,left,['e'],1,0.5362835000014456,0.1,1,0,FastAcc,12,19,Woman,Right,
39,8,1,0.6668453000002046,['c'],1,left,['e'],1,0.61911930000133,0.4,1,0,FastAcc,12,19,Woman,Right,
40,8,1,0.8007456000013917,['n'],1,right,['e'],1,0.8521912999985943,0.4,1,0,FastAcc,12,19,Woman,Right,
41,8,1,0.6675035999996908,['c'],0,right,['e'],1,0.7459419999995589,0.2,0,0,FastAcc,12,19,Woman,Right,
42,8,1,0.7014161000006425,['c'],1,left,['e'],1,0.7699553999991622,0.1,1,0,FastAcc,12,19,Woman,Right,
43,8,1,0.7852175999996689,['n'],0,left,['e'],1,0.6301964000012958,0.4,0,0,FastAcc,12,19,Woman,Right,
44,8,1,0.767754699998477,['n'],0,left,['e'],1,0.704421899999943,0.1,0,0,FastAcc,12,19,Woman,Right,
45,8,1,0.6678002999997261,['c'],0,right,['e'],1,0.636489000000438,0.1,0,0,FastAcc,12,19,Woman,Right,
46,8,1,0.7678470999999263,['n'],1,right,['u'],0,0.7743573000007018,0.2,0,0,FastAcc,12,19,Woman,Right,
47,8,1,0.3837072000005719,['n'],1,right,['u'],0,0.8266493999999511,0.1,0,0,FastAcc,12,19,Woman,Right,
48,8,1,0.28403849999995145,['c'],0,right,['u'],0,0.6248687000006612,0.2,1,0,FastAcc,12,19,Woman,Right,
49,8,1,0.40191439999944123,['n'],0,left,['e'],1,0.6343685000010737,0.4,0,0,FastAcc,12,19,Woman,Right,
50,8,1,0.36809200000061537,['n'],1,right,['u'],0,0.6925085000002582,0.1,0,0,FastAcc,12,19,Woman,Right,
51,8,1,0.6684406999993371,['n'],0,left,['e'],1,0.6888183999999455,0.2,0,0,FastAcc,12,19,Woman,Right,
52,8,1,0.5001133999994636,['c'],1,left,['u'],0,0.7564871000013227,0.4,0,0,FastAcc,12,19,Woman,Right,
53,8,1,0.316087699999116,['n'],1,right,['u'],0,0.7481175999982952,0.1,0,0,FastAcc,12,19,Woman,Right,
54,8,1,0.5014647999996669,['c'],1,left,['u'],0,0.7324094000014156,0.2,0,0,FastAcc,12,19,Woman,Right,
55,8,1,0.5837628999997833,['n'],1,right,['e'],1,0.6332208000003448,0.1,1,0,FastAcc,12,19,Woman,Right,
56,8,1,0.6663539000001037,['c'],1,left,['u'],0,0.7434214000004431,0.4,0,0,FastAcc,12,19,Woman,Right,
57,8,1,0.6186310000011872,['n'],1,right,['u'],0,0.6277738000007957,0.2,0,0,FastAcc,12,19,Woman,Right,
58,8,1,0.8015794000002643,['c'],0,right,['u'],0,0.7173270999992383,0.1,1,0,FastAcc,12,19,Woman,Right,
59,8,1,0.7178734000008262,['n'],0,left,['e'],1,0.8062085999990813,0.1,0,0,FastAcc,12,19,Woman,Right,
0,9,1,0.35196370000085153,['n'],1,right,['u'],0,0.48734589999912714,0.4,0,0,FastFast,12,19,Woman,Right,
1,9,1,0.30141849999927217,['n'],1,right,['u'],0,0.3938666000012745,0.4,0,0,FastFast,12,19,Woman,Right,
2,9,1,0.2506102000006649,['c'],1,left,['u'],0,0.35469820000071195,0.2,0,0,FastFast,12,19,Woman,Right,
3,9,1,0.28486100000009174,['n'],1,right,['u'],0,0.3795224999994389,0.4,0,0,FastFast,12,19,Woman,Right,
4,9,1,0.5344726999992417,['c'],1,left,['u'],0,0.4413053000007494,0.4,0,0,FastFast,12,19,Woman,Right,
5,9,1,0.30111399999987043,['c'],0,right,['u'],0,0.3979742999999871,0.1,1,0,FastFast,12,19,Woman,Right,
6,9,1,0.3005064000008133,['n'],1,right,['u'],0,0.40492059999996854,0.1,0,0,FastFast,12,19,Woman,Right,
7,9,1,0.40021359999991546,['n'],0,left,['u'],0,0.48710290000053647,0.2,1,0,FastFast,12,19,Woman,Right,
8,9,1,0.418112100000144,['c'],0,right,['u'],0,0.4365331999997579,0.1,1,0,FastFast,12,19,Woman,Right,
9,9,1,0.26770029999897815,['n'],1,right,['u'],0,0.41076539999994566,0.2,0,0,FastFast,12,19,Woman,Right,
10,9,1,0.28432099999918137,['c'],0,right,['u'],0,1.5375972999991063,0.4,1,0,FastFast,12,19,Woman,Right,
11,9,1,0.5172112000000197,['n'],1,right,['u'],0,1.3146517000004678,0.2,0,0,FastFast,12,19,Woman,Right,
12,9,1,0.5182996999992611,['c'],0,right,['u'],0,0.42673980000108713,0.2,1,0,FastFast,12,19,Woman,Right,
13,9,1,0.26687099999981,['n'],1,right,['u'],0,0.3540560000001278,0.4,0,0,FastFast,12,19,Woman,Right,
14,9,1,0.26772499999970023,['c'],1,left,['u'],0,0.283204500001375,0.4,0,0,FastFast,12,19,Woman,Right,
15,9,1,0.4836140000006708,['n'],0,left,['u'],0,0.31944900000053167,0.1,1,0,FastFast,12,19,Woman,Right,
16,9,1,0.4340807999997196,['n'],1,right,['u'],0,0.2910336999993888,0.1,0,0,FastFast,12,19,Woman,Right,
17,9,1,0.5166981000002124,['n'],1,right,['e'],1,0.24590560000069672,0.4,1,0,FastFast,12,19,Woman,Right,
18,9,1,0.43547709999984363,['n'],0,left,['u'],0,0.49216250000063155,0.1,1,0,FastFast,12,19,Woman,Right,
19,9,1,0.4010715000003984,['n'],1,right,['e'],1,0.36302190000060364,0.4,1,0,FastFast,12,19,Woman,Right,
20,9,1,0.38415729999906034,['n'],1,right,['u'],0,0.6391796999996586,0.1,0,0,FastFast,12,19,Woman,Right,
21,9,1,0.4176839000010659,['n'],0,left,['u'],0,0.7114010999994207,0.4,1,0,FastFast,12,19,Woman,Right,
22,9,1,0.35116869999910705,['n'],1,right,['u'],0,0.38350360000004,0.4,0,0,FastFast,12,19,Woman,Right,
23,9,1,0.49976910000077623,['c'],1,left,['e'],1,0.6868761000005179,0.2,1,0,FastFast,12,19,Woman,Right,
24,9,1,0.434437900001285,['c'],0,right,['e'],1,0.2604166000000987,0.2,0,0,FastFast,12,19,Woman,Right,
25,9,1,0.5178873000004387,['c'],0,right,['e'],1,0.29572340000049735,0.1,0,0,FastFast,12,19,Woman,Right,
26,9,1,0.501400699999067,['c'],1,left,['u'],0,0.40978869999889866,0.1,0,0,FastFast,12,19,Woman,Right,
27,9,1,0.40022379999936675,['n'],0,left,['u'],0,0.5878937000015867,0.2,1,0,FastFast,12,19,Woman,Right,
28,9,1,0.38441749999947206,['n'],1,right,['e'],1,0.3754711000001407,0.4,1,0,FastFast,12,19,Woman,Right,
29,9,1,0.5350781999986793,['n'],0,left,['e'],1,0.4701779000006354,0.1,0,0,FastFast,12,19,Woman,Right,
30,9,1,0.4177819999986241,['n'],1,right,['u'],0,0.5968749000003299,0.2,0,0,FastFast,12,19,Woman,Right,
31,9,1,0.4515614000010828,['c'],1,left,['e'],1,0.39673799999945913,0.1,1,0,FastFast,12,19,Woman,Right,
32,9,1,0.5507350999996561,['n'],1,right,['e'],1,0.6009981999995944,0.4,1,0,FastFast,12,19,Woman,Right,
33,9,1,0.4833813999994163,['c'],1,left,['e'],1,0.30458769999859214,0.2,1,0,FastFast,12,19,Woman,Right,
34,9,1,0.2846055999998498,['n'],0,left,['e'],1,0.9068837000013446,0.2,0,0,FastFast,12,19,Woman,Right,
35,9,1,0.5516712000007828,['n'],0,left,['u'],0,0.45107760000064445,0.4,1,0,FastFast,12,19,Woman,Right,
36,9,1,0.5347708999997849,['n'],1,right,['e'],1,0.3178957999989507,0.2,1,0,FastFast,12,19,Woman,Right,
37,9,1,0.3684828999994352,['c'],0,right,['e'],1,0.48474089999945136,0.1,0,0,FastFast,12,19,Woman,Right,
38,9,1,0.34976169999936246,['c'],1,left,['u'],0,0.6463230999997904,0.2,0,0,FastFast,12,19,Woman,Right,
39,9,1,0.43476600000030885,['n'],1,right,['u'],0,0.5566724999989674,0.2,0,0,FastFast,12,19,Woman,Right,
40,9,1,0.41798299999936717,['c'],1,left,['u'],0,0.4241777999995975,0.1,0,0,FastFast,12,19,Woman,Right,
41,9,1,0.35123319999911473,['n'],0,left,['u'],0,0.4119031999998697,0.1,1,0,FastFast,12,19,Woman,Right,
42,9,1,0.4509416000000783,['c'],1,left,['u'],0,0.395681500000137,0.2,0,0,FastFast,12,19,Woman,Right,
43,9,1,0.36829910000051314,['n'],0,left,['e'],1,0.3508094999997411,0.4,0,0,FastFast,12,19,Woman,Right,
44,9,1,0.4674603000003117,['n'],0,left,['u'],0,0.3361488999998983,0.2,1,0,FastFast,12,19,Woman,Right,
45,9,1,0.6513171999995393,['n'],1,right,['u'],0,0.39518560000033176,0.1,0,0,FastFast,12,19,Woman,Right,
46,9,1,0.5346100000006118,['n'],1,right,['u'],0,0.37612259999878006,0.2,0,0,FastFast,12,19,Woman,Right,
47,9,1,0.6839190999999119,['c'],1,left,['u'],0,0.3364480000000185,0.2,0,0,FastFast,12,19,Woman,Right,
48,9,1,0.3513431999999739,['n'],0,left,['u'],0,0.3431620000010298,0.4,1,0,FastFast,12,19,Woman,Right,
49,9,1,0.3499914000003628,['c'],1,left,['u'],0,0.3021290999986377,0.1,0,0,FastFast,12,19,Woman,Right,
50,9,1,0.5006536999990203,['n'],0,left,['u'],0,0.3522644999993645,0.2,1,0,FastFast,12,19,Woman,Right,
51,9,1,0.6015346000003774,['c'],1,left,['e'],1,0.42841000000044005,0.1,1,0,FastFast,12,19,Woman,Right,
52,9,1,0.5840625000000728,['n'],0,left,['u'],0,0.3899036000002525,0.2,1,0,FastFast,12,19,Woman,Right,
53,9,1,0.368096099999093,['c'],0,right,['u'],0,0.6182578999996622,0.4,1,0,FastFast,12,19,Woman,Right,
54,9,1,0.45151830000031623,['n'],1,right,['e'],1,0.4816337000011117,0.4,1,0,FastFast,12,19,Woman,Right,
55,9,1,0.6847541999995883,['n'],0,left,['e'],1,0.32545779999964,0.1,0,0,FastFast,12,19,Woman,Right,
56,9,1,0.4347207000009803,['n'],0,left,['e'],1,0.47344539999903645,0.1,0,0,FastFast,12,19,Woman,Right,
57,9,1,0.6173987000001944,['n'],0,left,['e'],1,0.35227599999961967,0.4,0,0,FastFast,12,19,Woman,Right,
58,9,1,0.48441989999992074,['n'],1,right,['e'],1,0.2730556999995315,0.1,1,0,FastFast,12,19,Woman,Right,
59,9,1,0.41799730000093405,['n'],1,right,['e'],1,0.24804779999976745,0.4,1,0,FastFast,12,19,Woman,Right,
0,10,1,0.550544900001114,['c'],1,left,['u'],0,0.890371999999843,0.1,0,0,AccFast,12,19,Woman,Right,
1,10,1,0.5340584999994462,['n'],0,left,['e'],1,0.5797818999999436,0.2,0,0,AccFast,12,19,Woman,Right,
2,10,1,0.5170767999989039,['n'],1,right,['e'],1,0.4747490999998263,0.1,1,0,AccFast,12,19,Woman,Right,
3,10,1,0.768053300000247,['c'],1,left,['e'],1,0.6189494999998715,0.1,1,0,AccFast,12,19,Woman,Right,
4,10,1,0.5845229999995354,['n'],1,right,['e'],1,0.6372476000015013,0.4,1,0,AccFast,12,19,Woman,Right,
5,10,1,0.8349472999998397,['c'],1,left,['e'],1,0.24491040000066278,0.1,1,0,AccFast,12,19,Woman,Right,
6,10,1,0.7841497999997955,['n'],1,right,['e'],1,0.47816360000069835,0.1,1,0,AccFast,12,19,Woman,Right,
7,10,1,0.7346597999985534,['c'],0,right,['e'],1,0.4485621000003448,0.1,0,0,AccFast,12,19,Woman,Right,
8,10,1,0.8334130000002915,['n'],0,left,['e'],1,0.38424250000025495,0.4,0,0,AccFast,12,19,Woman,Right,
9,10,1,0.8339280999989569,['c'],1,left,['e'],1,0.9769630999999208,0.2,1,0,AccFast,12,19,Woman,Right,
10,10,1,0.8345360000002984,['n'],0,left,['e'],1,0.45941279999897233,0.1,0,0,AccFast,12,19,Woman,Right,
11,10,1,0.7169335999988107,['c'],0,right,['e'],1,0.3671788000010565,0.2,0,0,AccFast,12,19,Woman,Right,
12,10,1,0.4829943999993702,['n'],1,right,['e'],1,0.2878227000001061,0.2,1,0,AccFast,12,19,Woman,Right,
13,10,1,0.984441099999458,['c'],0,right,['e'],1,0.4625746999990952,0.4,0,0,AccFast,12,19,Woman,Right,
14,10,1,0.6173069000014948,['c'],1,left,['e'],1,0.34159379999982775,0.1,1,0,AccFast,12,19,Woman,Right,
15,10,1,0.7990855000007286,['n'],0,left,['e'],1,0.33071730000119715,0.4,0,0,AccFast,12,19,Woman,Right,
16,10,1,0.6655444999996689,['n'],0,left,['e'],1,0.48606130000007397,0.2,0,0,AccFast,12,19,Woman,Right,
17,10,1,0.7354145999997854,['c'],0,right,['e'],1,0.34244720000060624,0.1,0,0,AccFast,12,19,Woman,Right,
18,10,1,0.8336966999995639,['n'],0,left,['e'],1,0.37840049999977055,0.4,0,0,AccFast,12,19,Woman,Right,
19,10,1,0.901714699999502,['n'],1,right,['e'],1,0.4095268999990367,0.1,1,0,AccFast,12,19,Woman,Right,
20,10,1,1.0015253999990819,['n'],0,left,['e'],1,0.40360080000027665,0.4,0,0,AccFast,12,19,Woman,Right,
21,10,1,1.0005899999996473,['n'],0,left,['e'],1,0.38196010000137903,0.2,0,0,AccFast,12,19,Woman,Right,
22,10,1,0.935276199999862,['n'],0,left,['e'],1,0.4115001000009215,0.2,0,0,AccFast,12,19,Woman,Right,
23,10,1,0.6847593000002234,['n'],1,right,['e'],1,0.3375773999996454,0.4,1,0,AccFast,12,19,Woman,Right,
24,10,1,0.7514036000011401,['c'],1,left,['e'],1,0.504749300000185,0.2,1,0,AccFast,12,19,Woman,Right,
25,10,1,0.6491022999998677,['n'],1,right,['e'],1,0.3343011999986629,0.4,1,0,AccFast,12,19,Woman,Right,
26,10,1,0.7191720999999234,['n'],1,right,['e'],1,0.3572087000011379,0.4,1,0,AccFast,12,19,Woman,Right,
27,10,1,0.7512824000004912,['n'],1,right,['e'],1,0.4112505000011879,0.4,1,0,AccFast,12,19,Woman,Right,
28,10,1,0.5680678000007902,['n'],1,right,['e'],1,0.26282869999886316,0.1,1,0,AccFast,12,19,Woman,Right,
29,10,1,0.6193358000000444,['n'],0,left,['e'],1,0.43785839999873133,0.2,0,0,AccFast,12,19,Woman,Right,
30,10,1,0.6843874000005599,['c'],1,left,['e'],1,0.3472313000002032,0.1,1,0,AccFast,12,19,Woman,Right,
31,10,1,0.6678335999986302,['n'],1,right,['e'],1,0.3409475999997085,0.1,1,0,AccFast,12,19,Woman,Right,
32,10,1,0.8845193999986805,['c'],1,left,['e'],1,0.2783667999992758,0.2,1,0,AccFast,12,19,Woman,Right,
33,10,1,0.6517721000000165,['n'],1,right,['e'],1,0.25948240000070655,0.1,1,0,AccFast,12,19,Woman,Right,
34,10,1,0.6016111000008095,['n'],0,left,['e'],1,0.21137920000001031,0.2,0,0,AccFast,12,19,Woman,Right,
35,10,1,0.7187236000008852,['n'],0,left,['e'],1,0.27311589999953867,0.1,0,0,AccFast,12,19,Woman,Right,
36,10,1,0.834462299999359,['c'],0,right,['e'],1,0.5831619999989925,0.2,0,0,AccFast,12,19,Woman,Right,
37,10,1,1.0515843000011955,['n'],1,right,['e'],1,0.616210799998953,0.4,1,0,AccFast,12,19,Woman,Right,
38,10,1,1.2179395000002842,['c'],1,left,['e'],1,0.36925850000079663,0.2,1,0,AccFast,12,19,Woman,Right,
39,10,1,0.6180382000002282,['n'],1,right,['e'],1,0.28401319999829866,0.1,1,0,AccFast,12,19,Woman,Right,
40,10,1,1.0337586999994528,['n'],0,left,['e'],1,0.3301795999996102,0.4,0,0,AccFast,12,19,Woman,Right,
41,10,1,0.801548700001149,['c'],1,left,['e'],1,0.23857190000126138,0.4,1,0,AccFast,12,19,Woman,Right,
42,10,1,0.983965100000205,['c'],0,right,['e'],1,0.2722025000002759,0.1,0,0,AccFast,12,19,Woman,Right,
43,10,1,1.55135589999918,['c'],0,right,['e'],1,0.2980442000007315,0.4,0,0,AccFast,12,19,Woman,Right,
44,10,1,0.7010983999989548,['n'],1,right,['e'],1,0.32395270000051823,0.2,1,0,AccFast,12,19,Woman,Right,
45,10,1,1.0343205999997735,['n'],1,right,['e'],1,0.2721875999995973,0.2,1,0,AccFast,12,19,Woman,Right,
46,10,1,1.2179565000005823,['n'],1,right,['e'],1,0.23122390000025916,0.4,1,0,AccFast,12,19,Woman,Right,
47,10,1,0.7348330999993777,['n'],1,right,['e'],1,0.24346300000070187,0.1,1,0,AccFast,12,19,Woman,Right,
48,10,1,1.100415000000794,['n'],0,left,['e'],1,0.31953669999893464,0.4,0,0,AccFast,12,19,Woman,Right,
49,10,1,0.984681099998852,['n'],1,right,['e'],1,0.3672044000013557,0.2,1,0,AccFast,12,19,Woman,Right,
50,10,1,0.4989929999992455,['c'],1,left,['e'],1,0.2548743999996077,0.4,1,0,AccFast,12,19,Woman,Right,
51,10,1,0.6011231000011321,['c'],1,left,['e'],1,0.47865249999995285,0.4,1,0,AccFast,12,19,Woman,Right,
52,10,1,0.7848281999995379,['n'],1,right,['e'],1,0.30178020000130346,0.1,1,0,AccFast,12,19,Woman,Right,
53,10,1,0.8012665000005654,['n'],1,right,['u'],0,0.2761878000001161,0.4,0,0,AccFast,12,19,Woman,Right,
54,10,1,0.8686140999998315,['n'],1,right,['u'],0,0.29703210000116087,0.1,0,0,AccFast,12,19,Woman,Right,
55,10,1,0.8182046000001719,['n'],0,left,['u'],0,0.2545128999990993,0.2,1,0,AccFast,12,19,Woman,Right,
56,10,1,1.267946199999642,['n'],0,left,['u'],0,0.5962772999992012,0.2,1,0,AccFast,12,19,Woman,Right,
57,10,1,0.9682454000012513,['n'],0,left,['e'],1,0.2478209999990213,0.2,0,0,AccFast,12,19,Woman,Right,
58,10,1,0.8348447000007582,['c'],1,left,['e'],1,0.6229338000011921,0.2,1,0,AccFast,12,19,Woman,Right,
59,10,1,0.8680999000007432,['n'],1,right,['e'],1,0.2456820000006701,0.4,1,0,AccFast,12,19,Woman,Right,
0,11,1,1.0510157999997318,['n'],0,left,['e'],1,0.5056889000006777,0.1,0,0,AccAcc,12,19,Woman,Right,
1,11,1,0.884685899998658,['n'],0,left,['e'],1,0.7245762999991712,0.2,0,0,AccAcc,12,19,Woman,Right,
2,11,1,0.9503784999997151,['n'],1,right,['e'],1,0.7729392999990523,0.4,1,0,AccAcc,12,19,Woman,Right,
3,11,1,0.7168220999992627,['n'],0,left,['e'],1,0.7320627000008244,0.1,0,0,AccAcc,12,19,Woman,Right,
4,11,1,0.7997691999989911,['c'],0,right,['e'],1,0.6729699000006804,0.2,0,0,AccAcc,12,19,Woman,Right,
5,11,1,0.9510381999989477,['c'],1,left,['e'],1,0.673813199999131,0.4,1,0,AccAcc,12,19,Woman,Right,
6,11,1,1.0847034999987955,['n'],0,left,['e'],1,0.7341107000011107,0.4,0,0,AccAcc,12,19,Woman,Right,
7,11,1,0.9846242000003258,['n'],0,left,['u'],0,0.716096899999684,0.2,1,0,AccAcc,12,19,Woman,Right,
8,11,1,0.9511765999995987,['n'],1,right,['e'],1,0.9232265999999072,0.2,1,0,AccAcc,12,19,Woman,Right,
9,11,1,1.7505239000001893,['n'],0,left,['e'],1,0.4997524999998859,0.4,0,0,AccAcc,12,19,Woman,Right,
10,11,1,0.8837207999986276,['n'],1,right,['e'],1,0.5584041000001889,0.4,1,0,AccAcc,12,19,Woman,Right,
11,11,1,0.9182820000005449,['n'],1,right,['e'],1,0.8695804999988468,0.1,1,0,AccAcc,12,19,Woman,Right,
12,11,1,1.001497899998867,['n'],0,left,['e'],1,0.637096799999199,0.1,0,0,AccAcc,12,19,Woman,Right,
13,11,1,0.9502541000001656,['c'],1,left,['e'],1,0.6084844999986672,0.4,1,0,AccAcc,12,19,Woman,Right,
14,11,1,1.018325900000491,['n'],0,left,['e'],1,0.8017319999999017,0.1,0,0,AccAcc,12,19,Woman,Right,
15,11,1,0.6679413000001659,['n'],0,left,['e'],1,0.6491624999998749,0.1,0,0,AccAcc,12,19,Woman,Right,
16,11,1,0.8012763999995514,['n'],1,right,['e'],1,0.7535679999982676,0.4,1,0,AccAcc,12,19,Woman,Right,
17,11,1,1.034869200000685,['c'],1,left,['e'],1,0.7484222000002774,0.4,1,0,AccAcc,12,19,Woman,Right,
18,11,1,0.7514988000002631,['n'],1,right,['e'],1,0.6106789000004937,0.4,1,0,AccAcc,12,19,Woman,Right,
19,11,1,0.8346328000006906,['n'],1,right,['e'],1,0.8278104999990319,0.4,1,0,AccAcc,12,19,Woman,Right,
20,11,1,1.1176703000000998,['n'],0,left,['e'],1,0.7530612000009569,0.2,0,0,AccAcc,12,19,Woman,Right,
21,11,1,0.7516840000007505,['n'],0,left,['e'],1,0.8070770000012999,0.4,0,0,AccAcc,12,19,Woman,Right,
22,11,1,0.8183339999995951,['n'],0,left,['e'],1,1.000571200000195,0.1,0,0,AccAcc,12,19,Woman,Right,
23,11,1,1.1180107000000135,['n'],1,right,['e'],1,0.6462234999999055,0.1,1,0,AccAcc,12,19,Woman,Right,
24,11,1,0.967362299999877,['n'],0,left,['e'],1,0.7117271999995864,0.1,0,0,AccAcc,12,19,Woman,Right,
25,11,1,1.1505653000003804,['n'],0,left,['e'],1,1.1033671000004688,0.2,0,0,AccAcc,12,19,Woman,Right,
26,11,1,0.6179412000001321,['n'],1,right,['e'],1,0.7969991999998456,0.2,1,0,AccAcc,12,19,Woman,Right,
27,11,1,0.5677279000010458,['n'],1,right,['e'],1,0.8085785999992368,0.4,1,0,AccAcc,12,19,Woman,Right,
28,11,1,0.7175476000011258,['c'],1,left,['e'],1,0.8621970999993209,0.4,1,0,AccAcc,12,19,Woman,Right,
29,11,1,0.8180148000010377,['n'],1,right,['u'],0,0.7499592999993183,0.4,0,0,AccAcc,12,19,Woman,Right,
30,11,1,1.0505267999997159,['c'],0,right,['u'],0,0.6477311000016925,0.2,1,0,AccAcc,12,19,Woman,Right,
31,11,1,0.9514307999997982,['n'],1,right,['u'],0,0.6177091999998083,0.2,0,0,AccAcc,12,19,Woman,Right,
32,11,1,0.851290999999037,['n'],1,right,['e'],1,0.5612180000007356,0.2,1,0,AccAcc,12,19,Woman,Right,
33,11,1,0.8165695000006963,['n'],1,right,['e'],1,0.6856712999997399,0.1,1,0,AccAcc,12,19,Woman,Right,
34,11,1,0.9682656000004499,['n'],0,left,['u'],0,1.005307299999913,0.1,1,0,AccAcc,12,19,Woman,Right,
35,11,1,0.6513953000012407,['n'],0,left,['e'],1,0.7175119999992603,0.2,0,0,AccAcc,12,19,Woman,Right,
36,11,1,1.2673242000000755,['n'],1,right,['u'],0,0.5764466999989963,0.1,0,0,AccAcc,12,19,Woman,Right,
37,11,1,0.6352561000003334,['n'],1,right,['e'],1,0.6106590999988839,0.2,1,0,AccAcc,12,19,Woman,Right,
38,11,1,0.9517661999998381,['n'],0,left,['e'],1,0.6789307999988523,0.2,0,0,AccAcc,12,19,Woman,Right,
39,11,1,0.7673446000007971,['n'],1,right,['e'],1,0.7194567999995343,0.2,1,0,AccAcc,12,19,Woman,Right,
40,11,1,0.9510152999991988,['n'],1,right,['u'],0,0.6868946999984473,0.1,0,0,AccAcc,12,19,Woman,Right,
41,11,1,1.000817799998913,['n'],1,right,['e'],1,0.9099762000005285,0.2,1,0,AccAcc,12,19,Woman,Right,
42,11,1,1.0185509999992064,['n'],1,right,['u'],0,0.6594117000004189,0.2,0,0,AccAcc,12,19,Woman,Right,
43,11,1,1.0676159000013286,['n'],0,left,['e'],1,0.6569512000005489,0.1,0,0,AccAcc,12,19,Woman,Right,
44,11,1,1.0180098000000726,['n'],0,left,['e'],1,0.8327934999997524,0.4,0,0,AccAcc,12,19,Woman,Right,
45,11,1,1.284219099999973,['n'],1,right,['e'],1,0.6063033999998879,0.4,1,0,AccAcc,12,19,Woman,Right,
46,11,1,1.4507644999994227,['c'],0,right,['u'],0,0.6706207999995968,0.1,1,0,AccAcc,12,19,Woman,Right,
47,11,1,0.7496848999999202,['n'],1,right,['e'],1,0.6166924000008294,0.2,1,0,AccAcc,12,19,Woman,Right,
48,11,1,0.9002497000001313,['n'],1,right,['e'],1,0.5262072999994416,0.1,1,0,AccAcc,12,19,Woman,Right,
49,11,1,0.8179985000006127,['n'],0,left,['e'],1,0.7147029000007024,0.1,0,0,AccAcc,12,19,Woman,Right,
50,11,1,0.9344639999999345,['n'],0,left,['e'],1,0.5709602999995695,0.4,0,0,AccAcc,12,19,Woman,Right,
51,11,1,0.8667361999996501,['n'],0,left,['e'],1,0.756473499999629,0.4,0,0,AccAcc,12,19,Woman,Right,
52,11,1,0.8678852999983064,['n'],1,right,['e'],1,0.7417710999998235,0.1,1,0,AccAcc,12,19,Woman,Right,
53,11,1,0.7012130000002799,['n'],1,right,['e'],1,0.5584494000013365,0.2,1,0,AccAcc,12,19,Woman,Right,
54,11,1,1.1345033999987209,['n'],0,left,['e'],1,0.7342308000006597,0.2,0,0,AccAcc,12,19,Woman,Right,
55,11,1,1.016706799999156,['c'],1,left,['e'],1,0.6031683999990491,0.4,1,0,AccAcc,12,19,Woman,Right,
56,11,1,0.9684809000009409,['n'],1,right,['e'],1,0.7013821000000462,0.1,1,0,AccAcc,12,19,Woman,Right,
57,11,1,0.6514870000009978,['n'],0,left,['e'],1,0.80927900000097,0.2,0,0,AccAcc,12,19,Woman,Right,
58,11,1,0.6680386999996699,['n'],1,right,['e'],1,0.7533372999987478,0.1,1,0,AccAcc,12,19,Woman,Right,
59,11,1,1.5846392000003107,['n'],0,left,['e'],1,0.6941057000003639,0.4,0,0,AccAcc,12,19,Woman,Right,
0,12,1,0.4511951999993471,['n'],0,left,['u'],0,0.4700281999994331,0.1,1,0,FastAcc,12,19,Woman,Right,
1,12,1,0.28435259999969276,['c'],0,right,['u'],0,0.9695776999997179,0.4,1,0,FastAcc,12,19,Woman,Right,
2,12,1,0.3529655999991519,['n'],1,right,['u'],0,0.3430312000000413,0.1,0,0,FastAcc,12,19,Woman,Right,
3,12,1,0.4352550000003248,['n'],1,right,['e'],1,0.3945590000002994,0.4,1,0,FastAcc,12,19,Woman,Right,
4,12,1,0.30211509999935515,['c'],0,right,['u'],0,0.4175117000013415,0.1,1,0,FastAcc,12,19,Woman,Right,
5,12,1,0.3017360000012559,['n'],1,right,['u'],0,0.23104779999994207,0.2,0,0,FastAcc,12,19,Woman,Right,
6,12,1,0.48507949999839184,['n'],1,right,['e'],1,0.5565757000003941,0.2,1,0,FastAcc,12,19,Woman,Right,
7,12,1,0.4179918000008911,['n'],0,left,['u'],0,0.2968043000000762,0.2,1,0,FastAcc,12,19,Woman,Right,
8,12,1,0.5519186000001355,['c'],1,left,['u'],0,0.3602212999994663,0.2,0,0,FastAcc,12,19,Woman,Right,
9,12,1,0.3344554999985121,['n'],1,right,['u'],0,0.25500629999987723,0.2,0,0,FastAcc,12,19,Woman,Right,
10,12,1,0.33450400000037916,['c'],0,right,['u'],0,0.698200299999371,0.1,1,0,FastAcc,12,19,Woman,Right,
11,12,1,0.3338329000016529,['n'],0,left,['u'],0,0.7388670000000275,0.1,1,0,FastAcc,12,19,Woman,Right,
12,12,1,0.6499318000005587,['c'],1,left,['u'],0,0.6865542000014102,0.2,0,0,FastAcc,12,19,Woman,Right,
13,12,1,0.31850110000050336,['n'],1,right,['u'],0,0.6479134000001068,0.1,0,0,FastAcc,12,19,Woman,Right,
14,12,1,0.3001105000003008,['c'],0,right,['u'],0,0.8042468999992707,0.2,1,0,FastAcc,12,19,Woman,Right,
15,12,1,0.4679231999998592,['n'],0,left,['u'],0,0.9798857000005228,0.4,1,0,FastAcc,12,19,Woman,Right,
16,12,1,0.2510825000008481,['n'],0,left,['u'],0,1.0288553000009415,0.4,1,0,FastAcc,12,19,Woman,Right,
17,12,1,0.33403050000015355,['c'],1,left,['u'],0,0.9442615999996633,0.1,0,0,FastAcc,12,19,Woman,Right,
18,12,1,0.30184449999978824,['n'],0,left,['u'],0,0.8492191999994247,0.2,1,0,FastAcc,12,19,Woman,Right,
19,12,1,0.30134869999892544,['c'],1,left,['u'],0,0.8694201999987854,0.2,0,0,FastAcc,12,19,Woman,Right,
20,12,1,0.30114640000101645,['n'],1,right,['e'],1,0.8250931000002311,0.1,1,0,FastAcc,12,19,Woman,Right,
21,12,1,0.3014299000005849,['n'],0,left,['u'],0,0.7185750000007829,0.4,1,0,FastAcc,12,19,Woman,Right,
22,12,1,0.30129459999989194,['n'],0,left,['e'],1,1.3202149000007921,0.1,0,0,FastAcc,12,19,Woman,Right,
23,12,1,0.3506078999998863,['c'],1,left,['u'],0,1.2245206999996299,0.1,0,0,FastAcc,12,19,Woman,Right,
24,12,1,0.3339229000011983,['n'],0,left,['u'],0,1.1803626000000804,0.2,1,0,FastAcc,12,19,Woman,Right,
25,12,1,0.2670665999994526,['n'],1,right,['e'],1,0.6610775000008289,0.1,1,0,FastAcc,12,19,Woman,Right,
26,12,1,0.41885030000048573,['n'],0,left,['e'],1,0.987972399998398,0.4,0,0,FastAcc,12,19,Woman,Right,
27,12,1,0.4517229999983101,['n'],0,left,['e'],1,0.8849394999997457,0.1,0,0,FastAcc,12,19,Woman,Right,
28,12,1,0.4012514000005467,['n'],0,left,['e'],1,1.2998205999992933,0.2,0,0,FastAcc,12,19,Woman,Right,
29,12,1,0.6349104000000807,['n'],1,right,['e'],1,0.9526495999998588,0.4,1,0,FastAcc,12,19,Woman,Right,
30,12,1,0.3013563000004069,['n'],0,left,['u'],0,0.9689321999994718,0.1,1,0,FastAcc,12,19,Woman,Right,
31,12,1,0.16813419999925827,['c'],0,right,['u'],0,1.2779334000006202,0.1,1,0,FastAcc,12,19,Woman,Right,
32,12,1,0.30109769999944547,['n'],1,right,['e'],1,0.5932924000007915,0.4,1,0,FastAcc,12,19,Woman,Right,
33,12,1,0.30092709999917133,['n'],0,left,['u'],0,0.6885144999996555,0.4,1,0,FastAcc,12,19,Woman,Right,
34,12,1,0.3348275999996986,['n'],1,right,['e'],1,0.7778744000006554,0.2,1,0,FastAcc,12,19,Woman,Right,
35,12,1,0.4181236999993416,['c'],0,right,['u'],0,0.8455116000004637,0.4,1,0,FastAcc,12,19,Woman,Right,
36,12,1,0.4176169000002119,['c'],1,left,['u'],0,0.909759899999699,0.4,0,0,FastAcc,12,19,Woman,Right,
37,12,1,0.4012849000009737,['c'],1,left,['u'],0,0.8912716999984696,0.4,0,0,FastAcc,12,19,Woman,Right,
38,12,1,0.350712299999941,['n'],1,right,['e'],1,1.1481528999993316,0.4,1,0,FastAcc,12,19,Woman,Right,
39,12,1,0.2846775999987585,['n'],1,right,['u'],0,0.837021299999833,0.1,0,0,FastAcc,12,19,Woman,Right,
40,12,1,0.2848904999991646,['c'],1,left,['u'],0,1.0187847000015609,0.1,0,0,FastAcc,12,19,Woman,Right,
41,12,1,0.3684310999997251,['n'],0,left,['e'],1,0.9015488000004552,0.2,0,0,FastAcc,12,19,Woman,Right,
42,12,1,0.3018521999983932,['c'],1,left,['e'],1,0.8878617999998824,0.2,1,0,FastAcc,12,19,Woman,Right,
43,12,1,0.28420419999929436,['n'],1,right,['e'],1,0.8273050000007061,0.4,1,0,FastAcc,12,19,Woman,Right,
44,12,1,0.4015419999996084,['n'],1,right,['e'],1,0.8451503000014782,0.2,1,0,FastAcc,12,19,Woman,Right,
45,12,1,0.3185598000000027,['c'],0,right,['u'],0,0.960383699999511,0.2,1,0,FastAcc,12,19,Woman,Right,
46,12,1,0.35065020000001823,['n'],1,right,['e'],1,0.5907448999987537,0.2,1,0,FastAcc,12,19,Woman,Right,
47,12,1,0.31701670000074955,['n'],0,left,['u'],0,0.7655316000000312,0.1,1,0,FastAcc,12,19,Woman,Right,
48,12,1,0.3348241000003327,['c'],0,right,['u'],0,1.011117699999886,0.1,1,0,FastAcc,12,19,Woman,Right,
49,12,1,0.3838045000011334,['c'],1,left,['u'],0,0.8940771999987192,0.1,0,0,FastAcc,12,19,Woman,Right,
50,12,1,0.36773230000108015,['n'],1,right,['e'],1,0.9103845999998157,0.4,1,0,FastAcc,12,19,Woman,Right,
51,12,1,0.30014959999971325,['n'],0,left,['u'],0,0.6565933999991103,0.2,1,0,FastAcc,12,19,Woman,Right,
52,12,1,0.30092470000090543,['n'],0,left,['u'],0,1.4527417999997851,0.4,1,0,FastAcc,12,19,Woman,Right,
53,12,1,0.6013220000004367,['n'],1,right,['u'],0,0.8610758999984682,0.1,0,0,FastAcc,12,19,Woman,Right,
54,12,1,0.5353560000003199,['n'],1,right,['u'],0,1.3361274999988382,0.4,0,0,FastAcc,12,19,Woman,Right,
55,12,1,0.5177794999999605,['n'],1,right,['e'],1,0.8964739999992162,0.4,1,0,FastAcc,12,19,Woman,Right,
56,12,1,0.5681351000002905,['n'],1,right,['e'],1,0.6639885999993567,0.4,1,0,FastAcc,12,19,Woman,Right,
57,12,1,0.2846848000008322,['n'],1,right,['u'],0,0.6441489000008005,0.2,0,0,FastAcc,12,19,Woman,Right,
58,12,1,0.367739100000108,['n'],0,left,['e'],1,0.7823549999993702,0.2,0,0,FastAcc,12,19,Woman,Right,
59,12,1,0.6680308000013611,['c'],1,left,['u'],0,0.7266792000009445,0.4,0,0,FastAcc,12,19,Woman,Right,
0,13,1,0.3345202000000427,['n'],1,right,['u'],0,0.52565709999908,0.1,0,0,FastFast,12,19,Woman,Right,
1,13,1,0.3171684000008099,['n'],0,left,['e'],1,0.2543497999995452,0.2,0,0,FastFast,12,19,Woman,Right,
2,13,1,0.4024363999997149,['n'],0,left,['e'],1,0.2784974999995029,0.1,0,0,FastFast,12,19,Woman,Right,
3,13,1,0.3846365000008518,['c'],0,right,['u'],0,0.5900618999985454,0.2,1,0,FastFast,12,19,Woman,Right,
4,13,1,0.3346378000005643,['n'],0,left,['u'],0,0.3634963999993488,0.2,1,0,FastFast,12,19,Woman,Right,
5,13,1,0.33477880000100413,['n'],1,right,['e'],1,0.32259439999870665,0.4,1,0,FastFast,12,19,Woman,Right,
6,13,1,0.38469669999904,['c'],0,right,['e'],1,0.3919652999993559,0.1,0,0,FastFast,12,19,Woman,Right,
7,13,1,0.3348442000005889,['n'],0,left,['e'],1,0.2696913999989192,0.2,0,0,FastFast,12,19,Woman,Right,
8,13,1,0.4680084999999963,['c'],1,left,['e'],1,0.3383075000001554,0.2,1,0,FastFast,12,19,Woman,Right,
9,13,1,0.26670539999940956,['n'],1,right,['e'],1,0.5414285000006203,0.2,1,0,FastFast,12,19,Woman,Right,
10,13,1,0.4509529000006296,['n'],1,right,['e'],1,0.6636015999993106,0.4,1,0,FastFast,12,19,Woman,Right,
11,13,1,0.4341543999998976,['n'],1,right,['e'],1,0.23808789999930013,0.2,1,0,FastFast,12,19,Woman,Right,
12,13,1,0.4180123999994976,['c'],1,left,['e'],1,0.26187770000069577,0.2,1,0,FastFast,12,19,Woman,Right,
13,13,1,0.4512969000006706,['c'],1,left,['e'],1,0.2514640999997937,0.4,1,0,FastFast,12,19,Woman,Right,
14,13,1,0.5006347999988066,['n'],1,right,['e'],1,0.2235571000001073,0.4,1,0,FastFast,12,19,Woman,Right,
15,13,1,0.45009029999891936,['n'],0,left,['e'],1,0.4872376000002987,0.1,0,0,FastFast,12,19,Woman,Right,
16,13,1,0.41605369999888353,['n'],0,left,['e'],1,0.19859429999996792,0.2,0,0,FastFast,12,19,Woman,Right,
17,13,1,0.40069229999971867,['c'],1,left,['e'],1,0.1755358000009437,0.4,1,0,FastFast,12,19,Woman,Right,
18,13,1,0.5517499999987194,['n'],1,right,['u'],0,0.21324319999985164,0.1,0,0,FastFast,12,19,Woman,Right,
19,13,1,0.31747010000071896,['n'],0,left,['u'],0,0.25793049999992945,0.1,1,0,FastFast,12,19,Woman,Right,
20,13,1,0.5180829999990237,['n'],1,right,['u'],0,0.27727210000011837,0.2,0,0,FastFast,12,19,Woman,Right,
21,13,1,0.418778299999758,['c'],1,left,['u'],0,0.38032319999911124,0.4,0,0,FastFast,12,19,Woman,Right,
22,13,1,0.3844234999996843,['n'],0,left,['u'],0,1.280652100000225,0.4,1,0,FastFast,12,19,Woman,Right,
23,13,1,0.5338443000000552,['c'],0,right,['e'],1,0.2981625000011263,0.1,0,0,FastFast,12,19,Woman,Right,
24,13,1,0.43465110000033746,['c'],1,left,['e'],1,0.415241499998956,0.4,1,0,FastFast,12,19,Woman,Right,
25,13,1,0.40064890000030573,['n'],0,left,['e'],1,0.223890899998878,0.4,0,0,FastFast,12,19,Woman,Right,
26,13,1,0.6660858000013832,['n'],0,left,['e'],1,0.22356979999858595,0.1,0,0,FastFast,12,19,Woman,Right,
27,13,1,0.35143520000019635,['c'],0,right,['u'],0,0.6342566000002989,0.1,1,0,FastFast,12,19,Woman,Right,
28,13,1,0.41649859999961336,['c'],0,right,['u'],0,0.5152691999992385,0.1,1,0,FastFast,12,19,Woman,Right,
29,13,1,0.4005730999997468,['n'],1,right,['u'],0,0.2734897999998793,0.1,0,0,FastFast,12,19,Woman,Right,
30,13,1,0.634349400001156,['c'],0,right,['u'],0,0.39856049999980314,0.4,1,0,FastFast,12,19,Woman,Right,
31,13,1,0.3518721000000369,['n'],1,right,['u'],0,0.35449719999996887,0.4,0,0,FastFast,12,19,Woman,Right,
32,13,1,0.4849426000000676,['n'],1,right,['u'],0,0.2912467000005563,0.1,0,0,FastFast,12,19,Woman,Right,
33,13,1,0.43461020000177086,['n'],0,left,['u'],0,0.21703170000000682,0.1,1,0,FastFast,12,19,Woman,Right,
34,13,1,0.3514238999996451,['n'],0,left,['u'],0,1.1250645000000077,0.4,1,0,FastFast,12,19,Woman,Right,
35,13,1,0.3352207999996608,['n'],0,left,['u'],0,0.44473029999971914,0.2,1,0,FastFast,12,19,Woman,Right,
36,13,1,0.4011819999996078,['c'],1,left,['u'],0,0.26948219999940193,0.1,0,0,FastFast,12,19,Woman,Right,
37,13,1,0.517194500000187,['n'],0,left,['u'],0,0.2082828000002337,0.2,1,0,FastFast,12,19,Woman,Right,
38,13,1,0.36758460000055493,['n'],1,right,['u'],0,0.26786619999984396,0.2,0,0,FastFast,12,19,Woman,Right,
39,13,1,0.6512707000001683,['c'],0,right,['u'],0,0.21736269999928481,0.1,1,0,FastFast,12,19,Woman,Right,
40,13,1,0.5685259000001679,['n'],1,right,['u'],0,0.20506480000040028,0.2,0,0,FastFast,12,19,Woman,Right,
41,13,1,0.45213150000017777,['n'],1,right,['u'],0,0.19724240000141435,0.2,0,0,FastFast,12,19,Woman,Right,
42,13,1,0.41789820000121836,['n'],0,left,['u'],0,0.30191260000174225,0.4,1,0,FastFast,12,19,Woman,Right,
43,13,1,0.5008037999996304,['n'],0,left,['u'],0,0.1920879999997851,0.2,1,0,FastFast,12,19,Woman,Right,
44,13,1,0.6180497999994259,['n'],1,right,['u'],0,0.22651849999965634,0.4,0,0,FastFast,12,19,Woman,Right,
45,13,1,0.6845651000003272,['c'],0,right,['u'],0,0.19251179999992019,0.4,1,0,FastFast,12,19,Woman,Right,
46,13,1,0.8013804999991407,['n'],0,left,['u'],0,0.3799183000010089,0.1,1,0,FastFast,12,19,Woman,Right,
47,13,1,0.5679452999993373,['n'],0,left,['u'],0,0.20023510000100941,0.4,1,0,FastFast,12,19,Woman,Right,
48,13,1,0.4676800999986881,['n'],0,left,['u'],0,0.22409610000067914,0.2,1,0,FastFast,12,19,Woman,Right,
49,13,1,0.4683093000003282,['c'],0,right,['u'],0,0.2139965000005759,0.2,1,0,FastFast,12,19,Woman,Right,
50,13,1,0.48306570000022475,['n'],1,right,['u'],0,0.20546570000078646,0.4,0,0,FastFast,12,19,Woman,Right,
51,13,1,0.4343312999990303,['n'],1,right,['u'],0,0.21335919999910402,0.4,0,0,FastFast,12,19,Woman,Right,
52,13,1,0.4847005999999965,['n'],0,left,['u'],0,0.23533909999969183,0.1,1,0,FastFast,12,19,Woman,Right,
53,13,1,0.4678887999998551,['n'],1,right,['u'],0,0.2095229999995354,0.2,0,0,FastFast,12,19,Woman,Right,
54,13,1,0.7848080000003392,['c'],1,left,['u'],0,0.17241239999930258,0.1,0,0,FastFast,12,19,Woman,Right,
55,13,1,0.48455120000107854,['n'],1,right,['u'],0,0.1646619000002829,0.4,0,0,FastFast,12,19,Woman,Right,
56,13,1,0.5016106000002765,['n'],0,left,['u'],0,0.22108769999977085,0.2,1,0,FastFast,12,19,Woman,Right,
57,13,1,0.4679207999997743,['n'],1,right,['u'],0,0.2590043999989575,0.1,0,0,FastFast,12,19,Woman,Right,
58,13,1,0.5511039000011806,['n'],0,left,['u'],0,0.2297673000011855,0.1,1,0,FastFast,12,19,Woman,Right,
59,13,1,0.40093329999945126,['c'],0,right,['u'],0,0.2381199999999808,0.4,1,0,FastFast,12,19,Woman,Right,
0,14,1,0.6011679000002914,['n'],0,left,['e'],1,0.3788694000013493,0.4,0,0,AccFast,12,19,Woman,Right,
1,14,1,0.4681839000004402,['n'],1,right,['e'],1,0.2989032999994379,0.4,1,0,AccFast,12,19,Woman,Right,
2,14,1,0.6848107999994681,['n'],1,right,['e'],1,0.21375950000037847,0.2,1,0,AccFast,12,19,Woman,Right,
3,14,1,0.5848759999989852,['n'],1,right,['e'],1,0.28010619999986375,0.4,1,0,AccFast,12,19,Woman,Right,
4,14,1,0.43488389999947685,['c'],1,left,['e'],1,0.20552130000032776,0.2,1,0,AccFast,12,19,Woman,Right,
5,14,1,0.46680799999921874,['n'],0,left,['e'],1,0.19778989999940677,0.4,0,0,AccFast,12,19,Woman,Right,
6,14,1,0.451481000000058,['n'],1,right,['e'],1,0.18921469999986584,0.1,1,0,AccFast,12,19,Woman,Right,
7,14,1,0.617346600000019,['n'],1,right,['e'],1,0.1437511000003724,0.4,1,0,AccFast,12,19,Woman,Right,
8,14,1,0.5180521000002045,['n'],1,right,['u'],0,0.19967480000013893,0.4,0,0,AccFast,12,19,Woman,Right,
9,14,1,0.38469639999857463,['n'],1,right,['e'],1,0.22661370000059833,0.4,1,0,AccFast,12,19,Woman,Right,
10,14,1,0.8344108000001142,['c'],0,right,['u'],0,0.25090869999985443,0.1,1,0,AccFast,12,19,Woman,Right,
11,14,1,0.517546000000948,['n'],0,left,['e'],1,0.14211089999844262,0.2,0,0,AccFast,12,19,Woman,Right,
12,14,1,0.4346719999994093,['n'],0,left,['e'],1,0.23374909999984084,0.1,0,0,AccFast,12,19,Woman,Right,
13,14,1,0.5664372999999614,['n'],0,left,['e'],1,0.20469409999896016,0.4,0,0,AccFast,12,19,Woman,Right,
14,14,1,0.5832866000000649,['n'],0,left,['u'],0,0.3190482999998494,0.1,1,0,AccFast,12,19,Woman,Right,
15,14,1,0.5499767999990581,['c'],0,right,['u'],0,0.1423226999995677,0.2,1,0,AccFast,12,19,Woman,Right,
16,14,1,0.9519541999998182,['n'],1,right,['e'],1,0.21331310000095982,0.4,1,0,AccFast,12,19,Woman,Right,
17,14,1,0.6678467000001547,['n'],1,right,['e'],1,0.14814970000043104,0.1,1,0,AccFast,12,19,Woman,Right,
18,14,1,0.9349557999994431,['c'],0,right,['u'],0,0.23502799999914714,0.1,1,0,AccFast,12,19,Woman,Right,
19,14,1,0.5346157000003586,['n'],0,left,['e'],1,0.22284259999833012,0.1,0,0,AccFast,12,19,Woman,Right,
20,14,1,0.4686196000002383,['n'],0,left,['e'],1,0.8214650999998412,0.2,0,0,AccFast,12,19,Woman,Right,
21,14,1,0.8682653999985632,['c'],0,right,['u'],0,0.8681900000010501,0.4,1,0,AccFast,12,19,Woman,Right,
22,14,1,0.6165924999986601,['n'],1,right,['e'],1,0.1556964000010339,0.1,1,0,AccFast,12,19,Woman,Right,
23,14,1,0.9016154999990249,['n'],1,right,['e'],1,0.2275657999998657,0.2,1,0,AccFast,12,19,Woman,Right,
24,14,1,1.7842414999995526,['c'],1,left,['u'],0,0.4379494999993767,0.4,0,0,AccFast,12,19,Woman,Right,
25,14,1,0.6845952000003308,['n'],0,left,['e'],1,0.2194218999993609,0.2,0,0,AccFast,12,19,Woman,Right,
26,14,1,0.7360592999993969,['n'],1,right,['e'],1,0.29568689999905473,0.1,1,0,AccFast,12,19,Woman,Right,
27,14,1,0.8350554999997257,['n'],0,left,['e'],1,0.30066160000023956,0.2,0,0,AccFast,12,19,Woman,Right,
28,14,1,0.6348500000003696,['n'],1,right,['e'],1,0.15357050000056915,0.4,1,0,AccFast,12,19,Woman,Right,
29,14,1,0.6506771000003937,['n'],1,right,['u'],0,0.795741599999019,0.2,0,0,AccFast,12,19,Woman,Right,
30,14,1,0.7664722999998048,['c'],1,left,['u'],0,0.31933419999950274,0.1,0,0,AccFast,12,19,Woman,Right,
31,14,1,0.7345157999989169,['n'],1,right,['u'],0,0.4396885999994993,0.1,0,0,AccFast,12,19,Woman,Right,
32,14,1,0.5837011000003258,['n'],1,right,['u'],0,0.3858868999996048,0.2,0,0,AccFast,12,19,Woman,Right,
33,14,1,0.5347642000015185,['n'],1,right,['u'],0,1.1188662000004115,0.2,0,0,AccFast,12,19,Woman,Right,
34,14,1,1.0175355000010313,['n'],1,right,['u'],0,0.23550470000009227,0.4,0,0,AccFast,12,19,Woman,Right,
35,14,1,0.7685685000014928,['n'],0,left,['u'],0,0.21379019999949378,0.2,1,0,AccFast,12,19,Woman,Right,
36,14,1,0.6175311999995756,['c'],1,left,['u'],0,0.7586160999999265,0.2,0,0,AccFast,12,19,Woman,Right,
37,14,1,1.0675807000006898,['c'],1,left,['u'],0,0.2401940999989165,0.2,0,0,AccFast,12,19,Woman,Right,
38,14,1,1.0830693999996583,['c'],1,left,['u'],0,0.20651600000019243,0.2,0,0,AccFast,12,19,Woman,Right,
39,14,1,1.1181634999993548,['n'],0,left,['u'],0,0.2672081000000617,0.1,1,0,AccFast,12,19,Woman,Right,
40,14,1,1.1180601000014576,['c'],1,left,['u'],0,0.15022709999902872,0.4,0,0,AccFast,12,19,Woman,Right,
41,14,1,1.3178805000006832,['c'],1,left,['u'],0,0.2538905999990675,0.4,0,0,AccFast,12,19,Woman,Right,
42,14,1,0.91804620000039,['n'],0,left,['u'],0,0.19349309999961406,0.1,1,0,AccFast,12,19,Woman,Right,
43,14,1,0.8853545000001759,['c'],1,left,['u'],0,0.28196609999940847,0.1,0,0,AccFast,12,19,Woman,Right,
44,14,1,0.6183605999995052,['n'],1,right,['u'],0,0.24738719999913883,0.4,0,0,AccFast,12,19,Woman,Right,
45,14,1,1.0505063000000519,['c'],1,left,['u'],0,0.2297178000007989,0.4,0,0,AccFast,12,19,Woman,Right,
46,14,1,0.8839821000001393,['n'],0,left,['u'],0,0.21914570000080857,0.1,1,0,AccFast,12,19,Woman,Right,
47,14,1,0.7514350000001286,['n'],0,left,['u'],0,0.19961520000106248,0.4,1,0,AccFast,12,19,Woman,Right,
48,14,1,0.8509390000017447,['n'],1,right,['u'],0,0.1589798000004521,0.2,0,0,AccFast,12,19,Woman,Right,
49,14,1,0.8680817000004026,['c'],1,left,['u'],0,0.16838610000013432,0.2,0,0,AccFast,12,19,Woman,Right,
50,14,1,0.883377099999052,['n'],0,left,['u'],0,0.19328239999958896,0.1,1,0,AccFast,12,19,Woman,Right,
51,14,1,1.4512727000001178,['n'],1,right,['u'],0,0.24160940000001574,0.1,0,0,AccFast,12,19,Woman,Right,
52,14,1,0.8516270999989501,['n'],0,left,['u'],0,0.18450970000048983,0.1,1,0,AccFast,12,19,Woman,Right,
53,14,1,0.634031399999003,['c'],0,right,['u'],0,0.23397079999995185,0.2,1,0,AccFast,12,19,Woman,Right,
54,14,1,0.550641199999518,['n'],1,right,['u'],0,0.20491049999873212,0.4,0,0,AccFast,12,19,Woman,Right,
55,14,1,0.784710100000666,['c'],1,left,['u'],0,0.2318940000004659,0.1,0,0,AccFast,12,19,Woman,Right,
56,14,1,0.601270499999373,['n'],1,right,['u'],0,0.20067150000068068,0.2,0,0,AccFast,12,19,Woman,Right,
57,14,1,1.051435200000924,['n'],0,left,['e'],1,0.20081710000158637,0.2,0,0,AccFast,12,19,Woman,Right,
58,14,1,0.5676611999988381,['n'],1,right,['e'],1,0.4286052000006748,0.4,1,0,AccFast,12,19,Woman,Right,
59,14,1,0.6024965000015072,['n'],1,right,['e'],1,0.3413795999986178,0.1,1,0,AccFast,12,19,Woman,Right,
0,15,1,1.2010049000000436,['n'],1,right,['e'],1,1.3295206000002509,0.1,1,0,AccAcc,12,19,Woman,Right,
1,15,1,0.984685499999614,['n'],1,right,['e'],1,0.6308260000005248,0.1,1,0,AccAcc,12,19,Woman,Right,
2,15,1,0.784292499998628,['c'],1,left,['e'],1,0.6725246000005427,0.1,1,0,AccAcc,12,19,Woman,Right,
3,15,1,0.6349164000002929,['n'],1,right,['e'],1,0.6867644999983895,0.4,1,0,AccAcc,12,19,Woman,Right,
4,15,1,1.0845599999993283,['n'],1,right,['e'],1,0.5383196999991924,0.4,1,0,AccAcc,12,19,Woman,Right,
5,15,1,1.0166073000000324,['n'],0,left,['e'],1,0.5756010000004608,0.2,0,0,AccAcc,12,19,Woman,Right,
6,15,1,0.8517306000012468,['c'],1,left,['e'],1,0.48822350000045844,0.2,1,0,AccAcc,12,19,Woman,Right,
7,15,1,0.8014055999992706,['n'],1,right,['e'],1,0.4392628000005061,0.2,1,0,AccAcc,12,19,Woman,Right,
8,15,1,0.9833306000000448,['n'],1,right,['e'],1,0.83285049999904,0.2,1,0,AccAcc,12,19,Woman,Right,
9,15,1,0.8181642999988981,['n'],1,right,['e'],1,0.4970321000000695,0.2,1,0,AccAcc,12,19,Woman,Right,
10,15,1,0.8181018999985099,['n'],0,left,['e'],1,0.4628255999996327,0.1,0,0,AccAcc,12,19,Woman,Right,
11,15,1,1.0183400999994774,['n'],0,left,['e'],1,0.5336000000006607,0.4,0,0,AccAcc,12,19,Woman,Right,
12,15,1,1.3006506000001536,['n'],0,left,['e'],1,0.5108938000012131,0.2,0,0,AccAcc,12,19,Woman,Right,
13,15,1,1.1837578999984544,['c'],0,right,['u'],0,0.9574646000000939,0.2,1,0,AccAcc,12,19,Woman,Right,
14,15,1,1.6345530999988114,['n'],0,left,['u'],0,0.8405597000000853,0.1,1,0,AccAcc,12,19,Woman,Right,
15,15,1,1.1676659000004292,['c'],1,left,['u'],0,0.5066798000007111,0.1,0,0,AccAcc,12,19,Woman,Right,
16,15,1,0.6680161000003864,['c'],1,left,['u'],0,0.799170199999935,0.4,0,0,AccAcc,12,19,Woman,Right,
17,15,1,1.0846285999996326,['n'],0,left,['u'],0,0.6453325999991648,0.4,1,0,AccAcc,12,19,Woman,Right,
18,15,1,0.9153191000004881,['n'],1,right,['e'],1,0.858205700000326,0.4,1,0,AccAcc,12,19,Woman,Right,
19,15,1,0.8522726000010152,['n'],1,right,['u'],0,1.031520399999863,0.1,0,0,AccAcc,12,19,Woman,Right,
20,15,1,1.384530299999824,['n'],1,right,['u'],0,1.1129154000009294,0.1,0,0,AccAcc,12,19,Woman,Right,
21,15,1,0.817436400000588,['n'],1,right,['u'],0,0.733972599999106,0.1,0,0,AccAcc,12,19,Woman,Right,
22,15,1,0.8681923000003735,['n'],0,left,['e'],1,0.6404628999989654,0.2,0,0,AccAcc,12,19,Woman,Right,
23,15,1,0.7846759000003658,['n'],0,left,['e'],1,0.7778496999999334,0.4,0,0,AccAcc,12,19,Woman,Right,
24,15,1,0.8178595999997924,['n'],0,left,['e'],1,0.7168570000012551,0.2,0,0,AccAcc,12,19,Woman,Right,
25,15,1,0.601248900000428,['n'],0,left,['e'],1,0.6823866999984602,0.2,0,0,AccAcc,12,19,Woman,Right,
26,15,1,1.367808299999524,['c'],1,left,['u'],0,0.7465174999997544,0.1,0,0,AccAcc,12,19,Woman,Right,
27,15,1,0.7012557999987621,['n'],1,right,['e'],1,0.6748041999999259,0.2,1,0,AccAcc,12,19,Woman,Right,
28,15,1,0.7013103999997838,['n'],1,right,['e'],1,0.8785705999998754,0.2,1,0,AccAcc,12,19,Woman,Right,
29,15,1,0.9008696999990207,['n'],0,left,['u'],0,0.6974432000006345,0.4,1,0,AccAcc,12,19,Woman,Right,
30,15,1,0.7505459000003611,['n'],1,right,['e'],1,0.5937231999996584,0.4,1,0,AccAcc,12,19,Woman,Right,
31,15,1,1.2170648999999685,['c'],0,right,['e'],1,0.8440759000004618,0.4,0,0,AccAcc,12,19,Woman,Right,
32,15,1,0.9847312000001693,['n'],1,right,['e'],1,0.8535647000007884,0.2,1,0,AccAcc,12,19,Woman,Right,
33,15,1,1.11779419999948,['n'],0,left,['e'],1,1.09717769999952,0.1,0,0,AccAcc,12,19,Woman,Right,
34,15,1,0.8849402999985614,['n'],0,left,['e'],1,0.8283369000000675,0.1,0,0,AccAcc,12,19,Woman,Right,
35,15,1,0.8513863999996829,['c'],0,right,['e'],1,1.211085599999933,0.1,0,0,AccAcc,12,19,Woman,Right,
36,15,1,1.5503078000001551,['n'],1,right,['e'],1,0.8962654999995721,0.2,1,0,AccAcc,12,19,Woman,Right,
37,15,1,1.4679317000009178,['c'],1,left,['e'],1,0.6431386999993265,0.1,1,0,AccAcc,12,19,Woman,Right,
38,15,1,0.9182538999993994,['n'],1,right,['e'],1,1.1913634999982605,0.1,1,0,AccAcc,12,19,Woman,Right,
39,15,1,0.9346506000001682,['n'],1,right,['u'],0,0.5331480000004376,0.2,0,0,AccAcc,12,19,Woman,Right,
40,15,1,0.6515956000002916,['n'],1,right,['u'],0,0.8400786000001972,0.2,0,0,AccAcc,12,19,Woman,Right,
41,15,1,1.3514713000004122,['c'],1,left,['e'],1,0.611136900000929,0.4,1,0,AccAcc,12,19,Woman,Right,
42,15,1,0.934859699998924,['n'],1,right,['u'],0,1.0161012999997183,0.4,0,0,AccAcc,12,19,Woman,Right,
43,15,1,0.7846327000006568,['c'],1,left,['e'],1,0.6903328999997029,0.2,1,0,AccAcc,12,19,Woman,Right,
44,15,1,0.9177804999999353,['c'],1,left,['e'],1,0.9325974999992468,0.4,1,0,AccAcc,12,19,Woman,Right,
45,15,1,0.9342364000003727,['c'],0,right,['u'],0,0.6360392999995383,0.1,1,0,AccAcc,12,19,Woman,Right,
46,15,1,1.3002436000006128,['n'],1,right,['u'],0,1.2172633000009228,0.1,0,0,AccAcc,12,19,Woman,Right,
47,15,1,0.7678312999996706,['n'],1,right,['e'],1,0.4520432000008441,0.1,1,0,AccAcc,12,19,Woman,Right,
48,15,1,0.6843793999996706,['n'],1,right,['e'],1,0.36086840000098164,0.4,1,0,AccAcc,12,19,Woman,Right,
49,15,1,1.1683785999994143,['c'],1,left,['e'],1,0.33450620000076015,0.2,1,0,AccAcc,12,19,Woman,Right,
50,15,1,0.7515184000003501,['n'],1,right,['e'],1,0.5014754999992874,0.4,1,0,AccAcc,12,19,Woman,Right,
51,15,1,1.0850902000001952,['n'],0,left,['e'],1,0.29650109999965935,0.1,0,0,AccAcc,12,19,Woman,Right,
52,15,1,0.7493008999990707,['n'],0,left,['e'],1,0.25709939999978815,0.4,0,0,AccAcc,12,19,Woman,Right,
53,15,1,1.30151830000068,['c'],1,left,['e'],1,0.3408982000000833,0.4,1,0,AccAcc,12,19,Woman,Right,
54,15,1,0.683195199999318,['n'],1,right,['e'],1,0.30228230000102485,0.4,1,0,AccAcc,12,19,Woman,Right,
55,15,1,1.2177296999998362,['n'],0,left,['e'],1,0.3240471000008256,0.2,0,0,AccAcc,12,19,Woman,Right,
56,15,1,0.8346827999994275,['n'],0,left,['e'],1,0.3283903999999893,0.2,0,0,AccAcc,12,19,Woman,Right,
57,15,1,0.6513341999998374,['n'],0,left,['e'],1,0.16303119999975024,0.1,0,0,AccAcc,12,19,Woman,Right,
58,15,1,0.7507460999986506,['n'],1,right,['e'],1,0.16071149999879708,0.4,1,0,AccAcc,12,19,Woman,Right,
59,15,1,0.5842695000010281,['n'],0,left,['u'],0,0.630451400000311,0.4,1,0,AccAcc,12,19,Woman,Right,
