withinblocktrial,block,block_repetition,rt,resp,cor,cresp,conf_press,cj,rtconf,coherence,metacognition,slow_trial,manipulation,sub,age,gender,handedness,
0,1,1,4.534244700000272,['n'],1,right,none,-99,-99,0.5,-99,0,none,17,18,Woman,Right,
1,1,1,0.7171481999994285,['c'],1,left,none,-99,-99,0.5,-99,0,none,17,18,Woman,Right,
2,1,1,0.7006349000002956,['n'],1,right,none,-99,-99,0.5,-99,0,none,17,18,Woman,Right,
3,1,1,0.6676749000016571,['n'],1,right,none,-99,-99,0.5,-99,0,none,17,18,Woman,Right,
4,1,1,0.8505421999998362,['c'],1,left,none,-99,-99,0.5,-99,0,none,17,18,Woman,Right,
5,1,1,0.5671712999992451,['n'],1,right,none,-99,-99,0.5,-99,0,none,17,18,Woman,Right,
6,1,1,0.5843244999996386,['n'],1,right,none,-99,-99,0.5,-99,0,none,17,18,Woman,Right,
7,1,1,0.867755399998714,['c'],1,left,none,-99,-99,0.5,-99,0,none,17,18,Woman,Right,
8,1,1,0.6339143000004697,['n'],1,right,none,-99,-99,0.5,-99,0,none,17,18,Woman,Right,
9,1,1,0.9179287999995722,['c'],1,left,none,-99,-99,0.5,-99,0,none,17,18,Woman,Right,
10,1,1,0.6179945999992924,['n'],1,right,none,-99,-99,0.5,-99,0,none,17,18,Woman,Right,
11,1,1,0.8678866999998718,['c'],0,right,none,-99,-99,0.5,-99,0,none,17,18,Woman,Right,
12,1,1,1.0163683999999193,['c'],0,right,none,-99,-99,0.5,-99,0,none,17,18,Woman,Right,
13,1,1,0.9826653000000078,['c'],1,left,none,-99,-99,0.5,-99,0,none,17,18,Woman,Right,
14,1,1,0.9002181999985623,['c'],1,left,none,-99,-99,0.5,-99,0,none,17,18,Woman,Right,
15,1,1,0.9347839000001841,['c'],1,left,none,-99,-99,0.5,-99,0,none,17,18,Woman,Right,
16,1,1,1.0679338999998436,['n'],1,right,none,-99,-99,0.5,-99,0,none,17,18,Woman,Right,
17,1,1,0.8673108000002685,['c'],1,left,none,-99,-99,0.5,-99,0,none,17,18,Woman,Right,
18,1,1,0.6505310000011377,['n'],1,right,none,-99,-99,0.5,-99,0,none,17,18,Woman,Right,
19,1,1,0.6998503000013443,['c'],1,left,none,-99,-99,0.5,-99,0,none,17,18,Woman,Right,
20,1,1,0.9513279999991937,['c'],1,left,none,-99,-99,0.5,-99,0,none,17,18,Woman,Right,
21,1,1,1.051552900000388,['n'],0,left,none,-99,-99,0.5,-99,0,none,17,18,Woman,Right,
22,1,1,0.6164656000000832,['c'],1,left,none,-99,-99,0.5,-99,0,none,17,18,Woman,Right,
23,1,1,0.7338982999990549,['c'],0,right,none,-99,-99,0.5,-99,0,none,17,18,Woman,Right,
0,1,2,0.766838599998664,['n'],1,right,none,-99,-99,0.5,-99,0,none,17,18,Woman,Right,
1,1,2,0.5326482000000397,['n'],1,right,none,-99,-99,0.5,-99,0,none,17,18,Woman,Right,
2,1,2,0.48209829999905196,['n'],1,right,none,-99,-99,0.5,-99,0,none,17,18,Woman,Right,
3,1,2,0.43390309999995225,['c'],1,left,none,-99,-99,0.5,-99,0,none,17,18,Woman,Right,
4,1,2,0.500864300000103,['n'],1,right,none,-99,-99,0.5,-99,0,none,17,18,Woman,Right,
5,1,2,0.5346403999992617,['n'],1,right,none,-99,-99,0.5,-99,0,none,17,18,Woman,Right,
6,1,2,0.5337643999991997,['n'],1,right,none,-99,-99,0.5,-99,0,none,17,18,Woman,Right,
7,1,2,0.6509483999998338,['c'],1,left,none,-99,-99,0.5,-99,0,none,17,18,Woman,Right,
8,1,2,0.6338749999995343,['c'],1,left,none,-99,-99,0.5,-99,0,none,17,18,Woman,Right,
9,1,2,0.5833973999997397,['n'],1,right,none,-99,-99,0.5,-99,0,none,17,18,Woman,Right,
10,1,2,0.5670477000003302,['c'],1,left,none,-99,-99,0.5,-99,0,none,17,18,Woman,Right,
11,1,2,0.5000634000007267,['n'],1,right,none,-99,-99,0.5,-99,0,none,17,18,Woman,Right,
12,1,2,0.534055800000715,['c'],1,left,none,-99,-99,0.5,-99,0,none,17,18,Woman,Right,
13,1,2,0.3506158999989566,['n'],1,right,none,-99,-99,0.5,-99,0,none,17,18,Woman,Right,
14,1,2,0.6006072000000131,['n'],1,right,none,-99,-99,0.5,-99,0,none,17,18,Woman,Right,
15,1,2,0.46683220000159054,['c'],1,left,none,-99,-99,0.5,-99,0,none,17,18,Woman,Right,
16,1,2,0.4508482000001095,['n'],0,left,none,-99,-99,0.5,-99,0,none,17,18,Woman,Right,
17,1,2,0.8513376999999309,['c'],1,left,none,-99,-99,0.5,-99,0,none,17,18,Woman,Right,
18,1,2,0.5006343999993987,['n'],0,left,none,-99,-99,0.5,-99,0,none,17,18,Woman,Right,
19,1,2,0.7497951999994257,['c'],1,left,none,-99,-99,0.5,-99,0,none,17,18,Woman,Right,
20,1,2,0.6671683000004123,['n'],1,right,none,-99,-99,0.5,-99,0,none,17,18,Woman,Right,
21,1,2,0.849145000000135,['c'],1,left,none,-99,-99,0.5,-99,0,none,17,18,Woman,Right,
22,1,2,0.48308709999946586,['n'],1,right,none,-99,-99,0.5,-99,0,none,17,18,Woman,Right,
23,1,2,0.7682469999999739,['c'],1,left,none,-99,-99,0.5,-99,0,none,17,18,Woman,Right,
0,2,1,0.6505885999995371,['n'],1,right,none,-99,-99,0.4,-99,0,none,17,18,Woman,Right,
1,2,1,0.6506423999999242,['c'],1,left,none,-99,-99,0.2,-99,0,none,17,18,Woman,Right,
2,2,1,0.8499064000006911,['n'],0,left,none,-99,-99,0.1,-99,0,none,17,18,Woman,Right,
3,2,1,0.683148699999947,['c'],1,left,none,-99,-99,0.1,-99,0,none,17,18,Woman,Right,
4,2,1,0.4837598000012804,['n'],1,right,none,-99,-99,0.2,-99,0,none,17,18,Woman,Right,
5,2,1,0.9010137000004761,['c'],0,right,none,-99,-99,0.1,-99,0,none,17,18,Woman,Right,
6,2,1,0.43227609999848937,['n'],1,right,none,-99,-99,0.4,-99,0,none,17,18,Woman,Right,
7,2,1,0.8015383000001748,['n'],0,left,none,-99,-99,0.4,-99,0,none,17,18,Woman,Right,
8,2,1,1.334396199999901,['c'],0,right,none,-99,-99,0.1,-99,0,none,17,18,Woman,Right,
9,2,1,0.5841371000005893,['n'],1,right,none,-99,-99,0.2,-99,0,none,17,18,Woman,Right,
10,2,1,0.6013897000011639,['n'],0,left,none,-99,-99,0.2,-99,0,none,17,18,Woman,Right,
11,2,1,0.6492683000014949,['c'],1,left,none,-99,-99,0.4,-99,0,none,17,18,Woman,Right,
12,2,1,0.9006291999994573,['c'],1,left,none,-99,-99,0.2,-99,0,none,17,18,Woman,Right,
13,2,1,0.7849754999988363,['c'],0,right,none,-99,-99,0.1,-99,0,none,17,18,Woman,Right,
14,2,1,1.7005087999987154,['n'],0,left,none,-99,-99,0.2,-99,0,none,17,18,Woman,Right,
15,2,1,0.7819665999995777,['c'],1,left,none,-99,-99,0.4,-99,0,none,17,18,Woman,Right,
16,2,1,0.6505388000005041,['c'],1,left,none,-99,-99,0.1,-99,0,none,17,18,Woman,Right,
17,2,1,0.7832593000002817,['c'],0,right,none,-99,-99,0.4,-99,0,none,17,18,Woman,Right,
18,2,1,1.3346655999994255,['n'],1,right,none,-99,-99,0.2,-99,0,none,17,18,Woman,Right,
19,2,1,1.7682076000000961,['n'],1,right,none,-99,-99,0.2,-99,0,none,17,18,Woman,Right,
20,2,1,0.6999509999986913,['n'],0,left,none,-99,-99,0.1,-99,0,none,17,18,Woman,Right,
21,2,1,0.9010675999998057,['c'],1,left,none,-99,-99,0.4,-99,0,none,17,18,Woman,Right,
22,2,1,1.1004533000013907,['n'],1,right,none,-99,-99,0.4,-99,0,none,17,18,Woman,Right,
23,2,1,1.7668360000006942,['n'],1,right,none,-99,-99,0.1,-99,0,none,17,18,Woman,Right,
0,3,1,0.6506650000010268,['n'],1,right,['u'],1,1.3222759000000224,0.2,1,0,none,17,18,Woman,Right,
1,3,1,0.682919300001231,['n'],1,right,['u'],1,0.3368091000011191,0.1,1,0,none,17,18,Woman,Right,
2,3,1,0.6833439000001817,['c'],1,left,['u'],1,1.0061918000010337,0.4,1,0,none,17,18,Woman,Right,
3,3,1,1.0836980999993102,['n'],0,left,['e'],0,0.673339599999963,0.1,1,0,none,17,18,Woman,Right,
4,3,1,1.3012278000005608,['n'],0,left,['e'],0,0.8242543999986083,0.1,1,0,none,17,18,Woman,Right,
5,3,1,1.2010150000005524,['n'],0,left,['u'],1,0.34989970000060566,0.4,0,0,none,17,18,Woman,Right,
6,3,1,1.0681553999984317,['c'],1,left,['e'],0,0.28343999999924563,0.4,0,0,none,17,18,Woman,Right,
7,3,1,1.5184628999995766,['n'],1,right,['u'],1,0.9057812999999442,0.4,1,0,none,17,18,Woman,Right,
8,3,1,1.5512517999995907,['c'],0,right,['e'],0,0.5103792999998404,0.2,1,0,none,17,18,Woman,Right,
9,3,1,2.0845668999991176,['n'],1,right,['e'],0,1.0060908000014024,0.2,0,0,none,17,18,Woman,Right,
10,3,1,0.8847701999984565,['c'],1,left,['u'],1,0.23211819999960426,0.4,1,0,none,17,18,Woman,Right,
11,3,1,0.8678591000007145,['n'],1,right,['u'],1,0.27442059999884805,0.4,1,0,none,17,18,Woman,Right,
12,3,1,1.0013570999999502,['c'],0,right,['u'],1,0.29398740000033285,0.4,0,0,none,17,18,Woman,Right,
13,3,1,1.4671836999987136,['n'],1,right,['u'],1,0.3743570999995427,0.2,1,0,none,17,18,Woman,Right,
14,3,1,3.0679353999985324,['c'],0,right,['e'],0,0.34027659999992466,0.1,1,0,none,17,18,Woman,Right,
15,3,1,4.550529300000562,['c'],0,right,['e'],0,1.0148503000000346,0.1,1,0,none,17,18,Woman,Right,
16,3,1,1.367908099999113,['c'],1,left,['u'],1,0.6698099000004731,0.2,1,0,none,17,18,Woman,Right,
17,3,1,2.0343594000005396,['c'],0,right,['e'],0,0.7138496999996278,0.2,1,0,none,17,18,Woman,Right,
18,3,1,2.235340200000792,['c'],1,left,['e'],0,0.8087341999998898,0.1,0,0,none,17,18,Woman,Right,
19,3,1,2.0684882999994443,['n'],0,left,['e'],0,0.8284731000003376,0.1,1,0,none,17,18,Woman,Right,
20,3,1,4.850629000000481,['c'],1,left,['u'],1,0.3205266000004485,0.2,1,0,none,17,18,Woman,Right,
21,3,1,1.8174693000000843,['c'],1,left,['u'],1,0.41781860000082816,0.1,1,0,none,17,18,Woman,Right,
22,3,1,3.6177459999998973,['c'],1,left,['u'],1,0.822786200000337,0.2,1,0,none,17,18,Woman,Right,
23,3,1,1.4179036000004999,['c'],0,right,['u'],1,0.37187099999937345,0.4,0,0,none,17,18,Woman,Right,
0,4,1,0.8174514000002091,['n'],0,left,['e'],0,0.7065275999993901,0.2,1,0,FastAcc,17,18,Woman,Right,
1,4,1,0.633127200000672,['c'],0,right,['e'],0,0.704865300000165,0.4,1,0,FastAcc,17,18,Woman,Right,
2,4,1,0.60144020000007,['n'],0,left,['e'],0,0.6856698999999935,0.2,1,0,FastAcc,17,18,Woman,Right,
3,4,1,0.6345120999994833,['c'],0,right,['u'],1,0.8113163999987592,0.4,0,0,FastAcc,17,18,Woman,Right,
4,4,1,0.5679992999994283,['c'],1,left,['e'],0,0.5669517000005726,0.2,0,0,FastAcc,17,18,Woman,Right,
5,4,1,1.1336558000002697,['n'],0,left,['e'],0,0.8853974000012386,0.4,1,0,FastAcc,17,18,Woman,Right,
6,4,1,0.6026629999996658,['c'],0,right,['e'],0,0.5884519999999611,0.2,1,0,FastAcc,17,18,Woman,Right,
7,4,1,0.701107900000352,['c'],0,right,['u'],1,0.6833211999983178,0.2,0,0,FastAcc,17,18,Woman,Right,
8,4,1,0.6351176999996824,['c'],1,left,['u'],1,1.065202900001168,0.1,1,0,FastAcc,17,18,Woman,Right,
9,4,1,0.7010269999991579,['c'],1,left,['e'],0,2.2446816000010585,0.4,0,0,FastAcc,17,18,Woman,Right,
10,4,1,0.6176584000004368,['c'],1,left,['u'],1,1.0285600000006525,0.2,1,0,FastAcc,17,18,Woman,Right,
11,4,1,0.783672800000204,['c'],1,left,['e'],0,1.343085799999244,0.1,0,0,FastAcc,17,18,Woman,Right,
12,4,1,0.9512168999990536,['c'],0,right,['e'],0,2.6452363999997033,0.1,1,0,FastAcc,17,18,Woman,Right,
13,4,1,0.6516191999999137,['c'],0,right,['e'],0,0.6123021000003064,0.2,1,0,FastAcc,17,18,Woman,Right,
14,4,1,1.300995800000237,['c'],0,right,['e'],0,1.3535406999999395,0.1,1,0,FastAcc,17,18,Woman,Right,
15,4,1,1.3847275000007357,['c'],0,right,['e'],0,2.142665399998805,0.4,1,0,FastAcc,17,18,Woman,Right,
16,4,1,1.3502229000005173,['c'],1,left,['e'],0,0.9666002000012668,0.1,0,0,FastAcc,17,18,Woman,Right,
17,4,1,0.5676394000001892,['c'],0,right,['e'],0,1.4028512999993836,0.1,1,0,FastAcc,17,18,Woman,Right,
18,4,1,1.8344947999994474,['c'],1,left,['e'],0,0.6040592000008473,0.4,0,0,FastAcc,17,18,Woman,Right,
19,4,1,1.7673628000011377,['n'],0,left,['e'],0,0.559830599999259,0.1,1,0,FastAcc,17,18,Woman,Right,
20,4,1,0.6518319999995583,['n'],0,left,['e'],0,0.6900846999997157,0.2,1,0,FastAcc,17,18,Woman,Right,
21,4,1,1.0672868999990897,['c'],0,right,['e'],0,0.7024304000005941,0.1,1,0,FastAcc,17,18,Woman,Right,
22,4,1,0.6679649999987305,['c'],0,right,['e'],0,1.6260688999991544,0.4,1,0,FastAcc,17,18,Woman,Right,
23,4,1,0.6846783000000869,['c'],0,right,['u'],1,1.3605024999997113,0.4,0,0,FastAcc,17,18,Woman,Right,
24,4,1,0.6012527000002592,['c'],0,right,['u'],1,1.3968817999993917,0.2,0,0,FastAcc,17,18,Woman,Right,
25,4,1,0.551180899999963,['c'],1,left,['u'],1,2.8253294000005553,0.4,1,0,FastAcc,17,18,Woman,Right,
26,4,1,0.5011787000003096,['c'],1,left,['e'],0,1.3512497000010626,0.2,0,0,FastAcc,17,18,Woman,Right,
27,4,1,0.8348965000004682,['c'],1,left,['e'],0,2.274422599999525,0.1,0,0,FastAcc,17,18,Woman,Right,
28,4,1,0.549951000000874,['n'],0,left,['e'],0,0.9648646000005101,0.4,1,0,FastAcc,17,18,Woman,Right,
29,4,1,1.034751299999698,['n'],1,right,['e'],0,1.5424803999994765,0.1,0,0,FastAcc,17,18,Woman,Right,
30,4,1,1.4832754999988538,['c'],0,right,['u'],1,1.1362580000004527,0.4,0,0,FastAcc,17,18,Woman,Right,
31,4,1,0.5173532999997406,['c'],0,right,['e'],0,1.2486415000003035,0.1,1,0,FastAcc,17,18,Woman,Right,
32,4,1,0.5185653999997157,['c'],0,right,['e'],0,2.1567823000004864,0.2,1,0,FastAcc,17,18,Woman,Right,
33,4,1,1.166829100000541,['n'],0,left,['u'],1,1.819004799999675,0.2,0,0,FastAcc,17,18,Woman,Right,
34,4,1,0.8513889000005292,['n'],0,left,['e'],0,1.6987871999990602,0.4,1,0,FastAcc,17,18,Woman,Right,
35,4,1,0.4849190000004455,['c'],1,left,['e'],0,1.501000700000077,0.1,0,0,FastAcc,17,18,Woman,Right,
36,4,1,0.7178032000010717,['c'],0,right,['e'],0,0.6629171000004135,0.1,1,0,FastAcc,17,18,Woman,Right,
37,4,1,1.4999755000008008,['n'],1,right,['e'],0,0.8671807999999146,0.2,0,0,FastAcc,17,18,Woman,Right,
38,4,1,0.9505590999997366,['c'],1,left,['u'],1,1.1657166999993933,0.4,1,0,FastAcc,17,18,Woman,Right,
39,4,1,0.4509696000004624,['c'],0,right,['u'],1,1.0860908000013296,0.1,0,0,FastAcc,17,18,Woman,Right,
40,4,1,1.001811699999962,['c'],0,right,['e'],0,0.9410265999995318,0.2,1,0,FastAcc,17,18,Woman,Right,
41,4,1,0.9516225999996095,['n'],0,left,['u'],1,1.2201219999988098,0.2,0,0,FastAcc,17,18,Woman,Right,
42,4,1,0.5509518999988359,['c'],1,left,['e'],0,0.7998523000005662,0.2,0,0,FastAcc,17,18,Woman,Right,
43,4,1,0.834013400000913,['n'],0,left,['u'],1,0.8650230000002921,0.2,0,0,FastAcc,17,18,Woman,Right,
44,4,1,1.2514012999999977,['c'],0,right,['e'],0,0.6063756000003195,0.1,1,0,FastAcc,17,18,Woman,Right,
45,4,1,0.7001163999993878,['n'],1,right,['u'],1,0.7968787999998312,0.4,1,0,FastAcc,17,18,Woman,Right,
46,4,1,0.8171644000012748,['c'],0,right,['e'],0,0.8951386000007915,0.1,1,0,FastAcc,17,18,Woman,Right,
47,4,1,0.7673505000002478,['n'],1,right,['u'],1,1.7426493000002665,0.2,1,0,FastAcc,17,18,Woman,Right,
48,4,1,0.5834542999982659,['c'],1,left,['u'],1,1.7486602999997558,0.4,1,0,FastAcc,17,18,Woman,Right,
49,4,1,0.633807700000034,['n'],1,right,['u'],1,1.0796530000006896,0.4,1,0,FastAcc,17,18,Woman,Right,
50,4,1,0.9518396999992547,['n'],0,left,['u'],1,1.513462900000377,0.1,0,0,FastAcc,17,18,Woman,Right,
51,4,1,1.4343548999986524,['c'],1,left,['u'],1,0.9811624000012671,0.4,1,0,FastAcc,17,18,Woman,Right,
52,4,1,1.2516336999997293,['n'],0,left,['u'],1,1.6304166999998415,0.4,0,0,FastAcc,17,18,Woman,Right,
53,4,1,0.5844806999994034,['n'],1,right,['e'],0,1.3201339000006556,0.1,0,0,FastAcc,17,18,Woman,Right,
54,4,1,0.5339585999990959,['n'],1,right,['u'],1,0.832638499998211,0.2,1,0,FastAcc,17,18,Woman,Right,
55,4,1,0.7180038999995304,['c'],1,left,['e'],0,0.7247518000003765,0.4,0,0,FastAcc,17,18,Woman,Right,
56,4,1,1.333924599999591,['c'],1,left,['u'],1,0.4530964000005042,0.1,1,0,FastAcc,17,18,Woman,Right,
57,4,1,0.7180224999992788,['n'],1,right,['u'],1,0.824817400000029,0.4,1,0,FastAcc,17,18,Woman,Right,
58,4,1,0.901206500000626,['c'],1,left,['u'],1,0.8226611000009143,0.2,1,0,FastAcc,17,18,Woman,Right,
59,4,1,1.684534200001508,['c'],0,right,['e'],0,0.6768581999986054,0.1,1,0,FastAcc,17,18,Woman,Right,
0,5,1,0.5833738000001176,['n'],0,left,['u'],1,0.8307314000012411,0.2,0,0,FastFast,17,18,Woman,Right,
1,5,1,0.5516241999994236,['n'],1,right,['e'],0,0.5697970000001078,0.4,0,0,FastFast,17,18,Woman,Right,
2,5,1,0.6682453999983409,['n'],1,right,['u'],1,0.6659868999995524,0.4,1,0,FastFast,17,18,Woman,Right,
3,5,1,0.6844978000008268,['c'],1,left,['e'],0,0.37426400000003923,0.4,0,0,FastFast,17,18,Woman,Right,
4,5,1,0.8512723000003461,['n'],1,right,['e'],0,0.7439738999983092,0.1,0,0,FastFast,17,18,Woman,Right,
5,5,1,0.8854821000004449,['c'],1,left,['u'],1,0.2495005000000674,0.4,1,0,FastFast,17,18,Woman,Right,
6,5,1,0.8334849000002578,['c'],1,left,['u'],1,1.0564892000002146,0.4,1,0,FastFast,17,18,Woman,Right,
7,5,1,0.7677469999998721,['c'],0,right,['e'],0,0.5543457999992825,0.2,1,0,FastFast,17,18,Woman,Right,
8,5,1,0.46795469999960915,['n'],1,right,['u'],1,0.5487679999987449,0.4,1,0,FastFast,17,18,Woman,Right,
9,5,1,0.6016455999997561,['c'],0,right,['u'],1,0.4082137999994302,0.1,0,0,FastFast,17,18,Woman,Right,
10,5,1,0.8180464999986725,['n'],0,left,['e'],0,0.44181659999958356,0.2,1,0,FastFast,17,18,Woman,Right,
11,5,1,0.6501434000001609,['c'],1,left,['u'],1,0.560682999999699,0.2,1,0,FastFast,17,18,Woman,Right,
12,5,1,0.7343704000013531,['n'],0,left,['e'],0,0.5596346000002086,0.2,1,0,FastFast,17,18,Woman,Right,
13,5,1,0.6178772000002937,['c'],0,right,['e'],0,0.7234138999992865,0.2,1,0,FastFast,17,18,Woman,Right,
14,5,1,0.5017410000000382,['n'],0,left,['u'],1,0.46896879999985686,0.2,0,0,FastFast,17,18,Woman,Right,
15,5,1,0.7844370000002527,['c'],1,left,['u'],1,1.0772828999997728,0.1,1,0,FastFast,17,18,Woman,Right,
16,5,1,1.5685436999992817,['c'],1,left,['e'],0,0.38236030000007304,0.2,0,0,FastFast,17,18,Woman,Right,
17,5,1,0.6835955999995349,['n'],1,right,['e'],0,0.8224706000000879,0.1,0,0,FastFast,17,18,Woman,Right,
18,5,1,0.7344317999995837,['n'],1,right,['u'],1,0.6983921000010014,0.4,1,0,FastFast,17,18,Woman,Right,
19,5,1,0.6178619000002072,['c'],1,left,['u'],1,0.9682542999998986,0.2,1,0,FastFast,17,18,Woman,Right,
20,5,1,1.434301699999196,['n'],0,left,['e'],0,0.9067221000004793,0.1,1,0,FastFast,17,18,Woman,Right,
21,5,1,0.751051400000506,['n'],0,left,['e'],0,0.9228518999989319,0.1,1,0,FastFast,17,18,Woman,Right,
22,5,1,0.6504927999994834,['c'],1,left,['e'],0,0.7344432999998389,0.2,0,0,FastFast,17,18,Woman,Right,
23,5,1,0.5846545000003971,['n'],1,right,['u'],1,0.3960330999998405,0.1,1,0,FastFast,17,18,Woman,Right,
24,5,1,0.5012635999992199,['n'],1,right,['u'],1,0.42650420000063605,0.4,1,0,FastFast,17,18,Woman,Right,
25,5,1,0.8837970000004134,['c'],1,left,['u'],1,0.24937259999933303,0.2,1,0,FastFast,17,18,Woman,Right,
26,5,1,1.1342445999998745,['c'],1,left,['u'],1,0.5156382999994094,0.4,1,0,FastFast,17,18,Woman,Right,
27,5,1,1.5669763999994757,['c'],0,right,['e'],0,0.8827946000001248,0.1,1,0,FastFast,17,18,Woman,Right,
28,5,1,1.0847287000015058,['c'],0,right,['e'],0,0.9024398000001383,0.4,1,0,FastFast,17,18,Woman,Right,
29,5,1,1.0501605000008567,['c'],1,left,['u'],1,0.8114525000000867,0.4,1,0,FastFast,17,18,Woman,Right,
30,5,1,1.4516655999996146,['n'],0,left,['e'],0,0.5640828000014153,0.1,1,0,FastFast,17,18,Woman,Right,
31,5,1,1.4678927000004478,['c'],0,right,['e'],0,0.6286235999996279,0.2,1,0,FastFast,17,18,Woman,Right,
32,5,1,0.7339592999996967,['c'],1,left,['e'],0,0.49600009999994654,0.2,0,0,FastFast,17,18,Woman,Right,
33,5,1,1.3011733000003005,['n'],0,left,['e'],0,0.6343902999997226,0.4,1,0,FastFast,17,18,Woman,Right,
34,5,1,0.8167947999991156,['c'],0,right,['e'],0,0.29094679999980144,0.1,1,0,FastFast,17,18,Woman,Right,
35,5,1,1.2345590999993874,['c'],1,left,['e'],0,0.2482414999994944,0.1,0,0,FastFast,17,18,Woman,Right,
36,5,1,1.0493588000008458,['n'],1,right,['e'],0,0.21604130000014266,0.2,0,0,FastFast,17,18,Woman,Right,
37,5,1,1.1828268999997817,['n'],0,left,['e'],0,0.2583310000009078,0.1,1,0,FastFast,17,18,Woman,Right,
38,5,1,0.9510585000007268,['n'],0,left,['e'],0,0.3392920000005688,0.4,1,0,FastFast,17,18,Woman,Right,
39,5,1,1.0509672999996837,['c'],0,right,['e'],0,0.38237990000016,0.2,1,0,FastFast,17,18,Woman,Right,
40,5,1,1.1182111999987683,['n'],1,right,['e'],0,0.2765682999997807,0.1,0,0,FastFast,17,18,Woman,Right,
41,5,1,1.001350900000034,['n'],1,right,['e'],0,0.6283070999998017,0.2,0,0,FastFast,17,18,Woman,Right,
42,5,1,0.8844638999999006,['n'],1,right,['e'],0,0.1697024999994028,0.4,0,0,FastFast,17,18,Woman,Right,
43,5,1,0.867934800000512,['c'],0,right,['e'],0,0.03480409999974654,0.1,1,0,FastFast,17,18,Woman,Right,
44,5,1,0.8679529999990336,['c'],1,left,['e'],0,0.14500709999992978,0.1,0,0,FastFast,17,18,Woman,Right,
45,5,1,0.8676991000011185,['c'],1,left,['e'],0,0.3628045999994356,0.4,0,0,FastFast,17,18,Woman,Right,
46,5,1,0.8178299999999581,['c'],0,right,['e'],0,0.30151180000029854,0.1,1,0,FastFast,17,18,Woman,Right,
47,5,1,0.9336261999997078,['n'],0,left,['e'],0,0.17455540000082692,0.2,1,0,FastFast,17,18,Woman,Right,
48,5,1,0.7674035999989428,['n'],1,right,['e'],0,0.427591300000131,0.2,0,0,FastFast,17,18,Woman,Right,
49,5,1,0.8678147000009631,['c'],0,right,['e'],0,0.2345076000001427,0.1,1,0,FastFast,17,18,Woman,Right,
50,5,1,0.8514701000003697,['c'],1,left,['e'],0,0.2575939999987895,0.1,0,0,FastFast,17,18,Woman,Right,
51,5,1,0.38463400000000547,['n'],1,right,['e'],0,0.5063724999999977,0.2,0,0,FastFast,17,18,Woman,Right,
52,5,1,1.0008920000000217,['n'],1,right,['e'],0,0.2564816999984032,0.4,0,0,FastFast,17,18,Woman,Right,
53,5,1,1.134742299998834,['n'],1,right,['e'],0,0.4756474000005255,0.4,0,0,FastFast,17,18,Woman,Right,
54,5,1,1.0511860000005981,['n'],1,right,['e'],0,0.28931050000028335,0.1,0,0,FastFast,17,18,Woman,Right,
55,5,1,0.885156399999687,['c'],1,left,['e'],0,0.26097630000003846,0.4,0,0,FastFast,17,18,Woman,Right,
56,5,1,0.9347746999992523,['n'],1,right,['e'],0,0.23181059999842546,0.4,0,0,FastFast,17,18,Woman,Right,
57,5,1,0.9672933999991074,['c'],0,right,['e'],0,0.2670782999994117,0.2,1,0,FastFast,17,18,Woman,Right,
58,5,1,1.1014173000003211,['c'],1,left,['e'],0,0.29394130000036967,0.1,0,0,FastFast,17,18,Woman,Right,
59,5,1,0.9185219000009965,['c'],1,left,['e'],0,0.2960566000001563,0.4,0,0,FastFast,17,18,Woman,Right,
0,6,1,2.6338244000016857,['n'],1,right,['e'],0,0.6539553000002343,0.2,0,0,AccFast,17,18,Woman,Right,
1,6,1,5.000032300000385,x,-99,right,none,-99,-99,0.2,-99,1,AccFast,17,18,Woman,Right,
2,6,1,1.3177434000008361,['c'],1,left,['e'],0,0.8442178000004787,0.1,0,0,AccFast,17,18,Woman,Right,
3,6,1,1.7667755000002217,['c'],1,left,['e'],0,0.7112602000015613,0.4,0,0,AccFast,17,18,Woman,Right,
4,6,1,0.9346882999998343,['n'],0,left,['u'],1,0.8393405000006169,0.1,0,0,AccFast,17,18,Woman,Right,
5,6,1,1.184880400000111,['n'],1,right,['u'],1,0.4570512999998755,0.1,1,0,AccFast,17,18,Woman,Right,
6,6,1,1.5347724999992352,['n'],0,left,['u'],1,0.5882934000001114,0.2,0,0,AccFast,17,18,Woman,Right,
7,6,1,1.4486625999998068,['n'],1,right,['e'],0,0.5585903999999573,0.4,0,0,AccFast,17,18,Woman,Right,
8,6,1,1.351252000000386,['c'],0,right,['e'],0,0.9155487999996694,0.1,1,0,AccFast,17,18,Woman,Right,
9,6,1,1.1682702999987669,['n'],1,right,['e'],0,0.7066090999996959,0.2,0,0,AccFast,17,18,Woman,Right,
10,6,1,1.3841250999994372,['n'],0,left,['e'],0,0.46552650000012363,0.1,1,0,AccFast,17,18,Woman,Right,
11,6,1,1.1005222000003414,['n'],1,right,['e'],0,0.7253593999994337,0.4,0,0,AccFast,17,18,Woman,Right,
12,6,1,1.2017634999992879,['c'],1,left,['u'],1,0.5552691000011691,0.4,1,0,AccFast,17,18,Woman,Right,
13,6,1,3.61601310000151,['c'],1,left,['e'],0,0.7118193999995128,0.1,0,0,AccFast,17,18,Woman,Right,
14,6,1,0.9512409999988449,['n'],1,right,['u'],1,0.6640974000001734,0.4,1,0,AccFast,17,18,Woman,Right,
15,6,1,2.1838922999995702,['n'],1,right,['u'],1,0.7765842999997403,0.4,1,0,AccFast,17,18,Woman,Right,
16,6,1,1.0676619000005303,['c'],1,left,['u'],1,0.24140839999927266,0.4,1,0,AccFast,17,18,Woman,Right,
17,6,1,1.4501467999998567,['c'],1,left,['u'],1,0.3038422999998147,0.4,1,0,AccFast,17,18,Woman,Right,
18,6,1,3.6664965999989363,['n'],0,left,['e'],0,1.2841105999996216,0.2,1,0,AccFast,17,18,Woman,Right,
19,6,1,2.7674166999986483,['c'],1,left,['e'],0,0.40456799999992654,0.1,0,0,AccFast,17,18,Woman,Right,
20,6,1,2.767377599999236,['n'],1,right,['e'],0,0.6652421999988292,0.1,0,0,AccFast,17,18,Woman,Right,
21,6,1,1.6847209000006842,['c'],1,left,['u'],1,0.6687277000000904,0.1,1,0,AccFast,17,18,Woman,Right,
22,6,1,1.750153599999976,['n'],1,right,['u'],1,0.4624103999994986,0.4,1,0,AccFast,17,18,Woman,Right,
23,6,1,4.75021199999901,['n'],0,left,['e'],0,1.8087184999985766,0.2,1,0,AccFast,17,18,Woman,Right,
24,6,1,3.183848399999988,['n'],1,right,['e'],0,0.3960040999991179,0.2,0,0,AccFast,17,18,Woman,Right,
25,6,1,1.2005192000015086,['c'],1,left,['e'],0,0.6383801000010862,0.2,0,0,AccFast,17,18,Woman,Right,
26,6,1,1.4513081000004604,['n'],1,right,['u'],1,0.6053013000000647,0.2,1,0,AccFast,17,18,Woman,Right,
27,6,1,1.6679652000002534,['n'],1,right,['u'],1,0.29330790000130946,0.4,1,0,AccFast,17,18,Woman,Right,
28,6,1,0.8182345000004716,['c'],1,left,['u'],1,0.507403699999486,0.1,1,0,AccFast,17,18,Woman,Right,
29,6,1,1.167372100000648,['c'],0,right,['e'],0,0.2670957999998791,0.1,1,0,AccFast,17,18,Woman,Right,
30,6,1,3.5010920999993687,['n'],1,right,['u'],1,0.2790125999999873,0.1,1,0,AccFast,17,18,Woman,Right,
31,6,1,0.717848000000231,['c'],1,left,['u'],1,0.4172502000001259,0.4,1,0,AccFast,17,18,Woman,Right,
32,6,1,1.3173155999993469,['c'],1,left,['e'],0,0.39835760000096343,0.1,0,0,AccFast,17,18,Woman,Right,
33,6,1,0.8172978000002331,['n'],1,right,['u'],1,0.5447448999984772,0.4,1,0,AccFast,17,18,Woman,Right,
34,6,1,0.8515925000010611,['n'],1,right,['u'],1,0.49092729999938456,0.4,1,0,AccFast,17,18,Woman,Right,
35,6,1,0.951555699999517,['n'],1,right,['u'],1,0.42003920000024664,0.4,1,0,AccFast,17,18,Woman,Right,
36,6,1,0.8346505999998044,['c'],1,left,['u'],1,0.7083628999989742,0.4,1,0,AccFast,17,18,Woman,Right,
37,6,1,1.901709599998867,['c'],1,left,['e'],0,0.28730949999953737,0.2,0,0,AccFast,17,18,Woman,Right,
38,6,1,0.784492599999794,['n'],1,right,['u'],1,0.6313142000017251,0.2,1,0,AccFast,17,18,Woman,Right,
39,6,1,0.7840250000008382,['c'],0,right,['u'],1,0.2239332999997714,0.4,0,0,AccFast,17,18,Woman,Right,
40,6,1,0.9678525999988778,['c'],1,left,['u'],1,0.37081059999945865,0.2,1,0,AccFast,17,18,Woman,Right,
41,6,1,0.8013928000000305,['n'],1,right,['u'],1,0.43856419999974605,0.2,1,0,AccFast,17,18,Woman,Right,
42,6,1,1.4186164000002464,['c'],0,right,['u'],1,0.46286959999997634,0.1,0,0,AccFast,17,18,Woman,Right,
43,6,1,1.301759800000582,['n'],0,left,['e'],0,0.8106112000004941,0.1,1,0,AccFast,17,18,Woman,Right,
44,6,1,0.7167837000015425,['c'],1,left,['u'],1,0.5287207999990642,0.4,1,0,AccFast,17,18,Woman,Right,
45,6,1,0.9347201000000496,['n'],1,right,['u'],1,0.7279359999993176,0.2,1,0,AccFast,17,18,Woman,Right,
46,6,1,1.133920300000682,['n'],1,right,['u'],1,0.6885387000002083,0.1,1,0,AccFast,17,18,Woman,Right,
47,6,1,2.4345804000004136,['n'],1,right,['u'],1,0.3902352000004612,0.1,1,0,AccFast,17,18,Woman,Right,
48,6,1,0.8338815999995859,['n'],1,right,['u'],1,0.28052759999991395,0.2,1,0,AccFast,17,18,Woman,Right,
49,6,1,2.2173224999987724,['c'],1,left,['e'],0,0.2625389000004361,0.4,0,0,AccFast,17,18,Woman,Right,
50,6,1,1.5670415999993565,['n'],1,right,['u'],1,0.4632776999987982,0.1,1,0,AccFast,17,18,Woman,Right,
51,6,1,0.9842194000011659,['n'],1,right,['e'],0,0.35943070000030275,0.1,0,0,AccFast,17,18,Woman,Right,
52,6,1,0.8682665999986057,['c'],1,left,['u'],1,0.2652111999996123,0.4,1,0,AccFast,17,18,Woman,Right,
53,6,1,0.8999742999985756,['c'],1,left,['u'],1,0.365306600000622,0.1,1,0,AccFast,17,18,Woman,Right,
54,6,1,1.1175462999999581,['n'],0,left,['e'],0,0.5006795999997848,0.2,1,0,AccFast,17,18,Woman,Right,
55,6,1,1.1516059999994468,['c'],1,left,['u'],1,0.37233890000061365,0.2,1,0,AccFast,17,18,Woman,Right,
56,6,1,1.0171053999983997,['c'],1,left,['u'],1,0.4947963999984495,0.2,1,0,AccFast,17,18,Woman,Right,
57,6,1,0.7011751999998523,['c'],1,left,['u'],1,0.3216632000003301,0.4,1,0,AccFast,17,18,Woman,Right,
58,6,1,0.8179560999997193,['c'],1,left,['u'],1,0.39056410000011965,0.2,1,0,AccFast,17,18,Woman,Right,
59,6,1,0.668189899999561,['c'],0,right,['u'],1,0.38349100000050385,0.2,0,0,AccFast,17,18,Woman,Right,
0,7,1,1.9007043000001431,['n'],1,right,['u'],1,1.3286841999997705,0.1,1,0,AccAcc,17,18,Woman,Right,
1,7,1,2.6516169999995327,['c'],0,right,['e'],0,0.6120927000010852,0.1,1,0,AccAcc,17,18,Woman,Right,
2,7,1,1.8012486000006902,['n'],0,left,['e'],0,1.365590199999133,0.1,1,0,AccAcc,17,18,Woman,Right,
3,7,1,1.3682271999987279,['n'],1,right,['u'],1,0.45880310000029567,0.2,1,0,AccAcc,17,18,Woman,Right,
4,7,1,1.4668048000003182,['c'],1,left,['u'],1,1.5365234000000783,0.4,1,0,AccAcc,17,18,Woman,Right,
5,7,1,1.035533199999918,['c'],1,left,['u'],1,0.47656610000012734,0.2,1,0,AccAcc,17,18,Woman,Right,
6,7,1,2.167500300000029,['c'],1,left,['u'],1,0.4533735999993951,0.1,1,0,AccAcc,17,18,Woman,Right,
7,7,1,2.2177066000003833,['n'],0,left,['e'],0,0.22109960000125284,0.2,1,0,AccAcc,17,18,Woman,Right,
8,7,1,2.5180498999998235,['c'],1,left,['u'],1,1.9062536999990698,0.4,1,0,AccAcc,17,18,Woman,Right,
9,7,1,2.984423500000048,['c'],1,left,['e'],0,1.297543399999995,0.1,0,0,AccAcc,17,18,Woman,Right,
10,7,1,1.684339400000681,['c'],1,left,['u'],1,1.1487772000000405,0.4,1,0,AccAcc,17,18,Woman,Right,
11,7,1,1.934074700000565,['c'],1,left,['u'],1,1.3803212000002532,0.4,1,0,AccAcc,17,18,Woman,Right,
12,7,1,1.5173979999999574,['c'],1,left,['u'],1,0.7224992999999813,0.4,1,0,AccAcc,17,18,Woman,Right,
13,7,1,2.7016020999999455,['n'],0,left,['e'],0,1.37249410000004,0.2,1,0,AccAcc,17,18,Woman,Right,
14,7,1,0.7013024000007135,['n'],1,right,['u'],1,0.8601367999999638,0.4,1,0,AccAcc,17,18,Woman,Right,
15,7,1,3.0345345999994606,['n'],1,right,['e'],0,1.075218699999823,0.1,0,0,AccAcc,17,18,Woman,Right,
16,7,1,1.6505502999989403,['c'],1,left,['u'],1,0.5210464000010688,0.4,1,0,AccAcc,17,18,Woman,Right,
17,7,1,1.134538700000121,['n'],1,right,['u'],1,0.4574310999996669,0.2,1,0,AccAcc,17,18,Woman,Right,
18,7,1,4.684106300001076,['n'],0,left,['e'],0,0.7988882999998168,0.4,1,0,AccAcc,17,18,Woman,Right,
19,7,1,0.8167444999999134,['n'],1,right,['u'],1,0.24042559999907098,0.2,1,0,AccAcc,17,18,Woman,Right,
20,7,1,1.967363400000977,['n'],1,right,['u'],1,0.6029871000009734,0.1,1,0,AccAcc,17,18,Woman,Right,
21,7,1,1.0995395999998436,['n'],1,right,['u'],1,0.47471910000058415,0.4,1,0,AccAcc,17,18,Woman,Right,
22,7,1,1.6493907000003674,['c'],1,left,['e'],0,0.7765366000003269,0.4,0,0,AccAcc,17,18,Woman,Right,
23,7,1,1.1512525999987702,['c'],1,left,['e'],0,0.7646905000001425,0.4,0,0,AccAcc,17,18,Woman,Right,
24,7,1,0.8340906999983417,['n'],1,right,['u'],1,0.7510753999995359,0.4,1,0,AccAcc,17,18,Woman,Right,
25,7,1,0.9344560999998066,['n'],1,right,['e'],0,1.230232600000818,0.1,0,0,AccAcc,17,18,Woman,Right,
26,7,1,1.117295699999886,['n'],1,right,['u'],1,0.402804000001197,0.2,1,0,AccAcc,17,18,Woman,Right,
27,7,1,1.0510302999991836,['c'],0,right,['e'],0,0.7148347999991529,0.1,1,0,AccAcc,17,18,Woman,Right,
28,7,1,0.7349395000001095,['n'],1,right,['u'],1,0.6433952999996109,0.4,1,0,AccAcc,17,18,Woman,Right,
29,7,1,1.4351557999998477,['c'],1,left,['u'],1,0.2908121000000392,0.2,1,0,AccAcc,17,18,Woman,Right,
30,7,1,1.2515576999994664,['n'],1,right,['e'],0,0.34391580000010435,0.2,0,0,AccAcc,17,18,Woman,Right,
31,7,1,1.6345679000005475,['c'],1,left,['e'],0,0.8436010000004899,0.4,0,0,AccAcc,17,18,Woman,Right,
32,7,1,1.9516796999996586,['n'],0,left,['e'],0,0.7987517999990814,0.2,1,0,AccAcc,17,18,Woman,Right,
33,7,1,1.4510592000006,['n'],1,right,['e'],0,0.5353713000004063,0.4,0,0,AccAcc,17,18,Woman,Right,
34,7,1,3.317037500000879,['n'],0,left,['e'],0,0.5762663999994402,0.1,1,0,AccAcc,17,18,Woman,Right,
35,7,1,3.916259199999331,['n'],0,left,['e'],0,0.3366705999997066,0.1,1,0,AccAcc,17,18,Woman,Right,
36,7,1,3.0008704000010766,['c'],1,left,['u'],1,0.7648834000010538,0.4,1,0,AccAcc,17,18,Woman,Right,
37,7,1,1.3177117000013823,['c'],1,left,['u'],1,0.4113896000017121,0.4,1,0,AccAcc,17,18,Woman,Right,
38,7,1,3.5012313000006543,['c'],0,right,['u'],1,0.658695500000249,0.4,0,0,AccAcc,17,18,Woman,Right,
39,7,1,2.584343999998964,['n'],1,right,['u'],1,0.4352125999994314,0.2,1,0,AccAcc,17,18,Woman,Right,
40,7,1,3.3505643000007694,['n'],1,right,['u'],1,0.5751172999989649,0.2,1,0,AccAcc,17,18,Woman,Right,
41,7,1,1.1509865000007267,['c'],0,right,['u'],1,0.6841217000001052,0.1,0,0,AccAcc,17,18,Woman,Right,
42,7,1,0.8511651999997412,['c'],1,left,['u'],1,0.7851921999990736,0.4,1,0,AccAcc,17,18,Woman,Right,
43,7,1,4.033700800000588,['c'],0,right,['e'],0,0.7070801000008942,0.1,1,0,AccAcc,17,18,Woman,Right,
44,7,1,0.9014687999988382,['c'],0,right,['u'],1,0.5496523000001616,0.1,0,0,AccAcc,17,18,Woman,Right,
45,7,1,1.134147099999609,['c'],0,right,['u'],1,0.6765080999994098,0.1,0,0,AccAcc,17,18,Woman,Right,
46,7,1,1.4841942000002746,['n'],1,right,['u'],1,0.9129168999988906,0.2,1,0,AccAcc,17,18,Woman,Right,
47,7,1,4.834078199999567,['n'],1,right,['u'],1,0.4296516000013071,0.4,1,0,AccAcc,17,18,Woman,Right,
48,7,1,4.83428719999938,['c'],0,right,['u'],1,0.589796700000079,0.2,0,0,AccAcc,17,18,Woman,Right,
49,7,1,1.3328618000014103,['c'],1,left,['u'],1,1.3649093000003631,0.2,1,0,AccAcc,17,18,Woman,Right,
50,7,1,1.0510484999995242,['c'],1,left,['u'],1,0.24519019999934244,0.1,1,0,AccAcc,17,18,Woman,Right,
51,7,1,0.8499953000009555,['c'],0,right,['u'],1,0.380165800001123,0.1,0,0,AccAcc,17,18,Woman,Right,
52,7,1,2.383952500000305,['c'],1,left,['u'],1,0.3992380999989109,0.2,1,0,AccAcc,17,18,Woman,Right,
53,7,1,0.9348558999990928,['c'],1,left,['u'],1,0.8282479999998031,0.2,1,0,AccAcc,17,18,Woman,Right,
54,7,1,4.634529299999485,['n'],1,right,['u'],1,0.45236100000147417,0.2,1,0,AccAcc,17,18,Woman,Right,
55,7,1,1.034291399999347,['c'],1,left,['u'],1,0.5074179000002914,0.1,1,0,AccAcc,17,18,Woman,Right,
56,7,1,1.6514635999992606,['c'],0,right,['u'],1,1.1600305000010849,0.1,0,0,AccAcc,17,18,Woman,Right,
57,7,1,1.2003162000000884,['c'],0,right,['u'],1,0.2688399999988178,0.1,0,0,AccAcc,17,18,Woman,Right,
58,7,1,1.6838804999988497,['c'],1,left,['u'],1,0.3527055000013206,0.2,1,0,AccAcc,17,18,Woman,Right,
59,7,1,1.1495823999994172,['c'],1,left,['u'],1,0.7125777999990532,0.2,1,0,AccAcc,17,18,Woman,Right,
0,8,1,0.7341818000004423,['n'],1,right,['e'],0,0.6659197000008135,0.1,0,0,FastAcc,17,18,Woman,Right,
1,8,1,0.7499812999994901,['n'],1,right,['u'],1,0.8841712000012194,0.4,1,0,FastAcc,17,18,Woman,Right,
2,8,1,0.9506713999999192,['c'],0,right,['e'],0,1.020817700000407,0.1,1,0,FastAcc,17,18,Woman,Right,
3,8,1,1.3835347000003821,['n'],1,right,['e'],0,0.7030197999993106,0.2,0,0,FastAcc,17,18,Woman,Right,
4,8,1,0.6844452999994246,['n'],1,right,['e'],0,0.5219089000001986,0.4,0,0,FastAcc,17,18,Woman,Right,
5,8,1,0.7346192000004521,['c'],1,left,['e'],0,0.5541745999998966,0.2,0,0,FastAcc,17,18,Woman,Right,
6,8,1,0.6681439000003593,['n'],0,left,['u'],1,0.47567440000057104,0.4,0,0,FastAcc,17,18,Woman,Right,
7,8,1,1.633882000000085,['n'],1,right,['e'],0,0.5550320000002102,0.1,0,0,FastAcc,17,18,Woman,Right,
8,8,1,0.6678792000002431,['n'],1,right,['e'],0,0.5237949999991542,0.4,0,0,FastAcc,17,18,Woman,Right,
9,8,1,1.5677811999994447,['c'],1,left,['e'],0,0.7149821000002703,0.2,0,0,FastAcc,17,18,Woman,Right,
10,8,1,1.334653400001116,['n'],0,left,['e'],0,0.5071945999989111,0.4,1,0,FastAcc,17,18,Woman,Right,
11,8,1,0.46805049999966286,['n'],0,left,['e'],0,0.6309278999997332,0.2,1,0,FastAcc,17,18,Woman,Right,
12,8,1,0.5485838000004151,['c'],1,left,['e'],0,0.5873436000001675,0.1,0,0,FastAcc,17,18,Woman,Right,
13,8,1,0.6835214000002452,['n'],0,left,['e'],0,0.6183896000002278,0.2,1,0,FastAcc,17,18,Woman,Right,
14,8,1,0.9005231000010099,['n'],0,left,['e'],0,0.4632015000006504,0.1,1,0,FastAcc,17,18,Woman,Right,
15,8,1,0.9180801999991672,['n'],0,left,['e'],0,0.6501267999992706,0.4,1,0,FastAcc,17,18,Woman,Right,
16,8,1,1.2344310999997106,['n'],1,right,['e'],0,0.3693574000008084,0.1,0,0,FastAcc,17,18,Woman,Right,
17,8,1,0.9330874999996013,['n'],0,left,['e'],0,0.9282707999991544,0.2,1,0,FastAcc,17,18,Woman,Right,
18,8,1,0.8355321999988519,['c'],0,right,['e'],0,0.39589650000016263,0.2,1,0,FastAcc,17,18,Woman,Right,
19,8,1,0.7338273000004847,['n'],0,left,['e'],0,0.30480200000056357,0.2,1,0,FastAcc,17,18,Woman,Right,
20,8,1,0.9675966999984666,['c'],1,left,['e'],0,0.6246793000009347,0.2,0,0,FastAcc,17,18,Woman,Right,
21,8,1,0.5850303999995958,['n'],1,right,['e'],0,0.4195856999995158,0.4,0,0,FastAcc,17,18,Woman,Right,
22,8,1,0.7342536999985896,['n'],0,left,['e'],0,0.4713202999992063,0.4,1,0,FastAcc,17,18,Woman,Right,
23,8,1,0.7513158000001567,['n'],1,right,['e'],0,0.42444289999912144,0.2,0,0,FastAcc,17,18,Woman,Right,
24,8,1,0.6840015999987372,['c'],1,left,['e'],0,0.43091780000031576,0.4,0,0,FastAcc,17,18,Woman,Right,
25,8,1,0.5668029000007664,['n'],0,left,['e'],0,0.37797349999891594,0.4,1,0,FastAcc,17,18,Woman,Right,
26,8,1,0.3677546999988408,['c'],0,right,['e'],0,0.5742179999997461,0.4,1,0,FastAcc,17,18,Woman,Right,
27,8,1,0.7518080999998347,['n'],1,right,['e'],0,0.5558798000001843,0.1,0,0,FastAcc,17,18,Woman,Right,
28,8,1,0.9681437999988702,['c'],1,left,['e'],0,0.19362440000077186,0.2,0,0,FastAcc,17,18,Woman,Right,
29,8,1,1.0014202000002115,['c'],0,right,['e'],0,1.0123452999996516,0.1,1,0,FastAcc,17,18,Woman,Right,
30,8,1,0.8515038999994431,['n'],1,right,['e'],0,0.31617019999976037,0.4,0,0,FastAcc,17,18,Woman,Right,
31,8,1,1.3321135999995022,['c'],0,right,['e'],0,0.42983989999993355,0.1,1,0,FastAcc,17,18,Woman,Right,
32,8,1,0.9686874999988504,['n'],0,left,['e'],0,0.6308215999997628,0.2,1,0,FastAcc,17,18,Woman,Right,
33,8,1,0.8008377999994991,['c'],0,right,['e'],0,0.7838587000005646,0.4,1,0,FastAcc,17,18,Woman,Right,
34,8,1,1.8176283000011608,['n'],0,left,['e'],0,0.3302543000008882,0.4,1,0,FastAcc,17,18,Woman,Right,
35,8,1,0.7838843999998062,['c'],1,left,['e'],0,0.4158175000011397,0.2,0,0,FastAcc,17,18,Woman,Right,
36,8,1,0.45070399999895017,['c'],1,left,['e'],0,0.9283384999998816,0.1,0,0,FastAcc,17,18,Woman,Right,
37,8,1,0.5009704000003694,['c'],1,left,['e'],0,0.9691743999992468,0.1,0,0,FastAcc,17,18,Woman,Right,
38,8,1,1.0670871999991505,['c'],1,left,['e'],0,0.9863146999996388,0.2,0,0,FastAcc,17,18,Woman,Right,
39,8,1,0.8179462000007334,['c'],0,right,['e'],0,1.1406513000001723,0.4,1,0,FastAcc,17,18,Woman,Right,
40,8,1,0.6843272999994952,['n'],0,left,['e'],0,0.7186710000005405,0.1,1,0,FastAcc,17,18,Woman,Right,
41,8,1,0.8839948999993794,['c'],1,left,['u'],1,0.6578381999988778,0.4,1,0,FastAcc,17,18,Woman,Right,
42,8,1,0.7681837999989511,['c'],1,left,['u'],1,0.3945357000011427,0.4,1,0,FastAcc,17,18,Woman,Right,
43,8,1,1.1169896999999764,['c'],1,left,['e'],0,0.5286538999989716,0.1,0,0,FastAcc,17,18,Woman,Right,
44,8,1,0.8159194000018033,['n'],1,right,['u'],1,0.5251047000001563,0.1,1,0,FastAcc,17,18,Woman,Right,
45,8,1,1.4843706999999995,['n'],1,right,['e'],0,0.49532859999999346,0.2,0,0,FastAcc,17,18,Woman,Right,
46,8,1,0.651357900000221,['c'],0,right,['e'],0,0.7714816999996401,0.2,1,0,FastAcc,17,18,Woman,Right,
47,8,1,1.034293799999432,['n'],1,right,['u'],1,0.4138586999997642,0.1,1,0,FastAcc,17,18,Woman,Right,
48,8,1,1.0507778999999573,['c'],0,right,['e'],0,0.709671000000526,0.2,1,0,FastAcc,17,18,Woman,Right,
49,8,1,0.8334981999996671,['n'],1,right,['u'],1,0.506588100000954,0.1,1,0,FastAcc,17,18,Woman,Right,
50,8,1,0.9346148999993602,['c'],1,left,['u'],1,0.4356714000005013,0.4,1,0,FastAcc,17,18,Woman,Right,
51,8,1,0.7015555999987555,['n'],1,right,['u'],1,0.42476130000068224,0.2,1,0,FastAcc,17,18,Woman,Right,
52,8,1,0.9676596999997855,['n'],0,left,['u'],1,0.4037897999987763,0.1,0,0,FastAcc,17,18,Woman,Right,
53,8,1,0.7846251999999367,['n'],1,right,['u'],1,0.2945297999995091,0.1,1,0,FastAcc,17,18,Woman,Right,
54,8,1,0.9345447999985481,['c'],1,left,['u'],1,0.4401868999993894,0.4,1,0,FastAcc,17,18,Woman,Right,
55,8,1,0.6682140000011714,['n'],1,right,['u'],1,0.3664317000002484,0.2,1,0,FastAcc,17,18,Woman,Right,
56,8,1,1.3676768999994238,['n'],1,right,['e'],0,0.18742890000066836,0.1,0,0,FastAcc,17,18,Woman,Right,
57,8,1,0.6339711000000534,['n'],0,left,['e'],0,0.3818230999986554,0.2,1,0,FastAcc,17,18,Woman,Right,
58,8,1,0.7513369999996939,['n'],1,right,['e'],0,0.37004960000012943,0.1,0,0,FastAcc,17,18,Woman,Right,
59,8,1,0.6344489000002795,['n'],1,right,['e'],0,0.3643116999992344,0.4,0,0,FastAcc,17,18,Woman,Right,
0,9,1,0.6681651999988389,['n'],0,left,['e'],0,0.45507329999963986,0.1,1,0,FastFast,17,18,Woman,Right,
1,9,1,0.5673635000002832,['c'],1,left,['u'],1,0.24049460000060208,0.4,1,0,FastFast,17,18,Woman,Right,
2,9,1,0.533933500000785,['n'],1,right,['u'],1,0.2767496000014944,0.4,1,0,FastFast,17,18,Woman,Right,
3,9,1,0.4846536000004562,['c'],1,left,['u'],1,0.29624150000017835,0.4,1,0,FastFast,17,18,Woman,Right,
4,9,1,0.40099999999983993,['n'],1,right,['u'],1,0.3024887999999919,0.2,1,0,FastFast,17,18,Woman,Right,
5,9,1,0.4833177999989857,['c'],1,left,['u'],1,0.273847399999795,0.4,1,0,FastFast,17,18,Woman,Right,
6,9,1,0.5846054000012373,['n'],1,right,['u'],1,0.1456916999995883,0.2,1,0,FastFast,17,18,Woman,Right,
7,9,1,0.7506324000005407,['c'],1,left,['u'],1,0.09578409999994619,0.2,1,0,FastFast,17,18,Woman,Right,
8,9,1,0.5013378000003286,['n'],1,right,['u'],1,0.2982895000004646,0.2,1,0,FastFast,17,18,Woman,Right,
9,9,1,0.5506084000007831,['c'],1,left,['u'],1,0.282347899999877,0.4,1,0,FastFast,17,18,Woman,Right,
10,9,1,0.6350932999994257,['n'],0,left,['u'],1,0.12042560000008962,0.1,0,0,FastFast,17,18,Woman,Right,
11,9,1,0.550756900000124,['n'],0,left,['u'],1,0.33583809999981895,0.1,0,0,FastFast,17,18,Woman,Right,
12,9,1,0.8840062999988731,['c'],1,left,['u'],1,0.32129999999961,0.4,1,0,FastFast,17,18,Woman,Right,
13,9,1,0.6010270999995555,['n'],0,left,['e'],0,0.35093849999975646,0.1,1,0,FastFast,17,18,Woman,Right,
14,9,1,0.9668989000001602,['n'],1,right,['u'],1,0.22042270000019926,0.2,1,0,FastFast,17,18,Woman,Right,
15,9,1,0.917928299999403,['c'],0,right,['e'],0,0.3534429999999702,0.1,1,0,FastFast,17,18,Woman,Right,
16,9,1,1.8512308999997913,['n'],1,right,['e'],0,0.7799131000010675,0.1,0,0,FastFast,17,18,Woman,Right,
17,9,1,1.5001931999995577,['n'],0,left,['e'],0,0.3229873000000225,0.2,1,0,FastFast,17,18,Woman,Right,
18,9,1,0.6323405999992247,['c'],1,left,['u'],1,0.6560014999995474,0.4,1,0,FastFast,17,18,Woman,Right,
19,9,1,0.9830965000001015,['c'],0,right,['e'],0,0.46423649999996996,0.2,1,0,FastFast,17,18,Woman,Right,
20,9,1,0.5004482999993343,['n'],1,right,['u'],1,0.3967983999991702,0.4,1,0,FastFast,17,18,Woman,Right,
21,9,1,0.5680408999996871,['c'],1,left,['u'],1,0.3274535000000469,0.4,1,0,FastFast,17,18,Woman,Right,
22,9,1,0.8843765999990865,['n'],0,left,['e'],0,0.5220787999987806,0.2,1,0,FastFast,17,18,Woman,Right,
23,9,1,0.4846381000006659,['n'],1,right,['e'],0,0.37287759999890113,0.2,0,0,FastFast,17,18,Woman,Right,
24,9,1,0.5340376999993168,['c'],1,left,['u'],1,0.35428239999964717,0.1,1,0,FastFast,17,18,Woman,Right,
25,9,1,0.5179164000001037,['n'],0,left,['u'],1,0.38593460000083724,0.1,0,0,FastFast,17,18,Woman,Right,
26,9,1,1.3508600000004662,['c'],0,right,['e'],0,0.1910143999994034,0.2,1,0,FastFast,17,18,Woman,Right,
27,9,1,0.6673305999993318,['c'],1,left,['u'],1,0.49517159999959404,0.2,1,0,FastFast,17,18,Woman,Right,
28,9,1,0.5177380000004632,['c'],0,right,['u'],1,0.5527984000000288,0.1,0,0,FastFast,17,18,Woman,Right,
29,9,1,0.6359377999997378,['n'],0,left,['u'],1,0.4279218000010587,0.4,0,0,FastFast,17,18,Woman,Right,
30,9,1,0.7007620999993378,['c'],1,left,['u'],1,0.35431310000058147,0.1,1,0,FastFast,17,18,Woman,Right,
31,9,1,0.700538899998719,['c'],0,right,['u'],1,0.20170730000063486,0.1,0,0,FastFast,17,18,Woman,Right,
32,9,1,1.1689175999999861,['c'],1,left,['e'],0,0.24527850000049511,0.1,0,0,FastFast,17,18,Woman,Right,
33,9,1,0.7015303999996831,['c'],1,left,['u'],1,0.4657595000007859,0.2,1,0,FastFast,17,18,Woman,Right,
34,9,1,0.7846714999996038,['n'],1,right,['u'],1,0.27400390000002517,0.4,1,0,FastFast,17,18,Woman,Right,
35,9,1,0.6339779999998427,['c'],1,left,['e'],0,0.27215439999963564,0.1,0,0,FastFast,17,18,Woman,Right,
36,9,1,0.518074900001011,['n'],1,right,['e'],0,0.43507429999954184,0.4,0,0,FastFast,17,18,Woman,Right,
37,9,1,0.585196599999108,['c'],1,left,['u'],1,0.300850999999966,0.4,1,0,FastFast,17,18,Woman,Right,
38,9,1,0.6180697999989206,['c'],0,right,['u'],1,0.42650309999953606,0.2,0,0,FastFast,17,18,Woman,Right,
39,9,1,0.6514468999994278,['n'],1,right,['e'],0,0.354714299999614,0.1,0,0,FastFast,17,18,Woman,Right,
40,9,1,0.6165111000009347,['c'],1,left,['u'],1,0.5904274999993504,0.2,1,0,FastFast,17,18,Woman,Right,
41,9,1,0.4833944000001793,['c'],1,left,['e'],0,0.40534800000023097,0.1,0,0,FastFast,17,18,Woman,Right,
42,9,1,0.5004107999993721,['c'],0,right,['e'],0,0.3874667000000045,0.2,1,0,FastFast,17,18,Woman,Right,
43,9,1,0.683117200000197,['c'],1,left,['e'],0,0.2997187999990274,0.1,0,0,FastFast,17,18,Woman,Right,
44,9,1,0.7338988000010431,['n'],1,right,['e'],0,0.5815921000012167,0.4,0,0,FastFast,17,18,Woman,Right,
45,9,1,1.5514614000003348,['c'],0,right,['e'],0,0.16114629999901808,0.4,1,0,FastFast,17,18,Woman,Right,
46,9,1,0.7845118000004732,['n'],1,right,['e'],0,0.5740365000001475,0.4,0,0,FastFast,17,18,Woman,Right,
47,9,1,0.6844485999990866,['n'],1,right,['u'],1,0.35110029999850667,0.4,1,0,FastFast,17,18,Woman,Right,
48,9,1,1.4344884999991336,['n'],1,right,['e'],0,0.2492080000010901,0.2,0,0,FastFast,17,18,Woman,Right,
49,9,1,1.084584199999881,['c'],1,left,['e'],0,0.3904134999993403,0.4,0,0,FastFast,17,18,Woman,Right,
50,9,1,0.668515400000615,['n'],0,left,['e'],0,0.5105832000008377,0.1,1,0,FastFast,17,18,Woman,Right,
51,9,1,0.5194021000006614,['c'],1,left,['e'],0,0.376268700001674,0.2,0,0,FastFast,17,18,Woman,Right,
52,9,1,1.0009680000002845,['n'],1,right,['e'],0,0.27575940000133414,0.1,0,0,FastFast,17,18,Woman,Right,
53,9,1,0.7168488999996043,['n'],0,left,['e'],0,0.31874689999858674,0.1,1,0,FastFast,17,18,Woman,Right,
54,9,1,0.5170612999991135,['n'],1,right,['e'],0,0.28770989999975427,0.4,0,0,FastFast,17,18,Woman,Right,
55,9,1,1.4344080999999278,['c'],0,right,['e'],0,0.445465000000695,0.2,1,0,FastFast,17,18,Woman,Right,
56,9,1,1.1005180000011023,['n'],1,right,['e'],0,0.7216967999993358,0.4,0,0,FastFast,17,18,Woman,Right,
57,9,1,2.2008746000010433,['n'],1,right,['e'],0,0.47989380000035453,0.2,0,0,FastFast,17,18,Woman,Right,
58,9,1,1.9339390000004641,['c'],0,right,['e'],0,0.4332836000012321,0.1,1,0,FastFast,17,18,Woman,Right,
59,9,1,0.5005691000005754,['n'],1,right,['e'],0,0.4463589000006323,0.2,0,0,FastFast,17,18,Woman,Right,
0,10,1,1.0343240999991394,['c'],1,left,['u'],1,0.19603790000110166,0.2,1,0,AccFast,17,18,Woman,Right,
1,10,1,0.8844704000002821,['n'],1,right,['u'],1,0.2988694999985455,0.2,1,0,AccFast,17,18,Woman,Right,
2,10,1,0.601318099999844,['c'],1,left,['u'],1,0.23307559999921068,0.4,1,0,AccFast,17,18,Woman,Right,
3,10,1,0.9183298000007198,['c'],0,right,['u'],1,0.30138330000045244,0.4,0,0,AccFast,17,18,Woman,Right,
4,10,1,0.9996463999996195,['n'],0,left,['u'],1,0.26911010000003444,0.1,0,0,AccFast,17,18,Woman,Right,
5,10,1,2.1017058000015822,['c'],0,right,['u'],1,0.14335190000019793,0.2,0,0,AccFast,17,18,Woman,Right,
6,10,1,1.0341535000006843,['c'],1,left,['u'],1,0.19541000000026543,0.2,1,0,AccFast,17,18,Woman,Right,
7,10,1,0.6513345000003028,['c'],0,right,['u'],1,0.22726529999999912,0.1,0,0,AccFast,17,18,Woman,Right,
8,10,1,1.000303000000713,['c'],0,right,['e'],0,0.3423897000011493,0.2,1,0,AccFast,17,18,Woman,Right,
9,10,1,0.8499857999995584,['c'],0,right,['e'],0,0.5853508000000147,0.4,1,0,AccFast,17,18,Woman,Right,
10,10,1,1.4159756999997626,['n'],1,right,['e'],0,0.3317036000007647,0.1,0,0,AccFast,17,18,Woman,Right,
11,10,1,0.8834752999991906,['c'],0,right,['e'],0,0.23738090000006196,0.4,1,0,AccFast,17,18,Woman,Right,
12,10,1,1.2175631999998586,['c'],1,left,['u'],1,0.181685200001084,0.2,1,0,AccFast,17,18,Woman,Right,
13,10,1,2.383251899998868,['n'],0,left,['e'],0,0.4175677999992331,0.2,1,0,AccFast,17,18,Woman,Right,
14,10,1,1.6163344999986293,['c'],0,right,['e'],0,0.2265440999999555,0.1,1,0,AccFast,17,18,Woman,Right,
15,10,1,0.8828722000016569,['c'],1,left,['e'],0,0.5528562999988935,0.2,0,0,AccFast,17,18,Woman,Right,
16,10,1,1.3495583000003535,['n'],1,right,['e'],0,0.36710299999867857,0.4,0,0,AccFast,17,18,Woman,Right,
17,10,1,1.1165724000002228,['n'],1,right,['u'],1,0.2621509000000515,0.1,1,0,AccFast,17,18,Woman,Right,
18,10,1,0.7174159999995027,['c'],1,left,['u'],1,0.24189669999941543,0.4,1,0,AccFast,17,18,Woman,Right,
19,10,1,1.1836002000000008,['c'],0,right,['e'],0,0.39562479999949574,0.1,1,0,AccFast,17,18,Woman,Right,
20,10,1,0.7493320000012318,['c'],1,left,['u'],1,0.11250889999973879,0.2,1,0,AccFast,17,18,Woman,Right,
21,10,1,1.2161785000007512,['c'],0,right,['e'],0,0.28606869999930495,0.1,1,0,AccFast,17,18,Woman,Right,
22,10,1,0.9499677999992855,['n'],1,right,['u'],1,0.2870275000004767,0.4,1,0,AccFast,17,18,Woman,Right,
23,10,1,0.7499965999995766,['c'],1,left,['u'],1,0.2158927999989828,0.4,1,0,AccFast,17,18,Woman,Right,
24,10,1,1.417440600000191,['c'],1,left,['e'],0,0.23329720000037923,0.1,0,0,AccFast,17,18,Woman,Right,
25,10,1,0.48331799999868963,['n'],1,right,['u'],1,0.5266589000002568,0.4,1,0,AccFast,17,18,Woman,Right,
26,10,1,0.6333678999999393,['c'],1,left,['u'],1,0.19491420000122162,0.4,1,0,AccFast,17,18,Woman,Right,
27,10,1,1.3500349000005372,['c'],1,left,['e'],0,0.24771899999905145,0.2,0,0,AccFast,17,18,Woman,Right,
28,10,1,2.116509599998608,['n'],0,left,['u'],1,0.23548889999983658,0.2,0,0,AccFast,17,18,Woman,Right,
29,10,1,2.0665976999989653,['n'],0,left,['u'],1,0.22614959999918938,0.1,0,0,AccFast,17,18,Woman,Right,
30,10,1,1.8003645000007964,['c'],0,right,['e'],0,0.21196120000058727,0.1,1,0,AccFast,17,18,Woman,Right,
31,10,1,0.7348440000005212,['n'],1,right,['u'],1,0.27130659999966156,0.1,1,0,AccFast,17,18,Woman,Right,
32,10,1,2.5500094999988505,['c'],1,left,['e'],0,0.3380042999997386,0.4,0,0,AccFast,17,18,Woman,Right,
33,10,1,1.1505347000002075,['n'],0,left,['e'],0,0.16810430000077758,0.2,1,0,AccFast,17,18,Woman,Right,
34,10,1,1.1179039999988163,['c'],1,left,['u'],1,0.4230067999997118,0.4,1,0,AccFast,17,18,Woman,Right,
35,10,1,0.7677740000017366,['n'],1,right,['u'],1,0.2500631999992038,0.2,1,0,AccFast,17,18,Woman,Right,
36,10,1,0.8509453999995458,['c'],1,left,['e'],0,0.7042948999987857,0.2,0,0,AccFast,17,18,Woman,Right,
37,10,1,0.6502288000010594,['n'],1,right,['u'],1,0.42929869999898074,0.2,1,0,AccFast,17,18,Woman,Right,
38,10,1,0.8677349999998114,['n'],1,right,['u'],1,0.2349370000010822,0.1,1,0,AccFast,17,18,Woman,Right,
39,10,1,0.967895600000702,['c'],1,left,['u'],1,0.2692707000005612,0.4,1,0,AccFast,17,18,Woman,Right,
40,10,1,0.7669578000004549,['n'],1,right,['u'],1,0.1829515999997966,0.2,1,0,AccFast,17,18,Woman,Right,
41,10,1,0.5513671999997314,['n'],1,right,['u'],1,0.1551990999996633,0.4,1,0,AccFast,17,18,Woman,Right,
42,10,1,0.6173343999998906,['c'],1,left,['u'],1,0.2547386000005645,0.4,1,0,AccFast,17,18,Woman,Right,
43,10,1,0.5178069000012329,['n'],1,right,['u'],1,0.3381950999992114,0.4,1,0,AccFast,17,18,Woman,Right,
44,10,1,0.5836046000003989,['n'],1,right,['u'],1,0.25607139999920037,0.2,1,0,AccFast,17,18,Woman,Right,
45,10,1,0.5348577999993722,['n'],1,right,['u'],1,0.32301379999989877,0.2,1,0,AccFast,17,18,Woman,Right,
46,10,1,1.3012288999998418,['c'],1,left,['e'],0,0.1325539999998,0.1,0,0,AccFast,17,18,Woman,Right,
47,10,1,0.6344628000006196,['n'],1,right,['u'],1,0.2801168999994843,0.2,1,0,AccFast,17,18,Woman,Right,
48,10,1,1.318376299999727,['n'],1,right,['e'],0,0.28232779999962077,0.1,0,0,AccFast,17,18,Woman,Right,
49,10,1,0.633918999999878,['n'],0,left,['e'],0,0.3294126000000688,0.1,1,0,AccFast,17,18,Woman,Right,
50,10,1,1.3172247999991669,['c'],1,left,['u'],1,0.47285999999985506,0.4,1,0,AccFast,17,18,Woman,Right,
51,10,1,1.0347835999982635,['n'],0,left,['u'],1,0.22257159999935539,0.1,0,0,AccFast,17,18,Woman,Right,
52,10,1,1.4009353000001283,['c'],1,left,['e'],0,0.28834529999949154,0.1,0,0,AccFast,17,18,Woman,Right,
53,10,1,0.7010479000000487,['n'],1,right,['e'],0,0.3314654000005248,0.1,0,0,AccFast,17,18,Woman,Right,
54,10,1,0.7838723999993817,['c'],1,left,['u'],1,0.24095199999828765,0.4,1,0,AccFast,17,18,Woman,Right,
55,10,1,1.0499829000000318,['n'],0,left,['e'],0,0.32005060000119556,0.1,1,0,AccFast,17,18,Woman,Right,
56,10,1,0.6333729000016319,['n'],1,right,['e'],0,0.3002142000004824,0.4,0,0,AccFast,17,18,Woman,Right,
57,10,1,1.950849199998629,['n'],1,right,['e'],0,0.24465159999999742,0.2,0,0,AccFast,17,18,Woman,Right,
58,10,1,1.200898099999904,['c'],1,left,['u'],1,0.12552839999989374,0.4,1,0,AccFast,17,18,Woman,Right,
59,10,1,2.0346628000006604,['c'],1,left,['e'],0,0.3299628999993729,0.1,0,0,AccFast,17,18,Woman,Right,
0,11,1,1.1512146000004577,['n'],1,right,['u'],1,0.6451402000002417,0.1,1,0,AccAcc,17,18,Woman,Right,
1,11,1,1.4846344999987195,['c'],0,right,['e'],0,0.7540595999998914,0.1,1,0,AccAcc,17,18,Woman,Right,
2,11,1,0.5996220000015455,['n'],1,right,['u'],1,0.4635364000005211,0.4,1,0,AccAcc,17,18,Woman,Right,
3,11,1,1.4340364999989106,['n'],1,right,['e'],0,0.24470610000025772,0.2,0,0,AccAcc,17,18,Woman,Right,
4,11,1,0.7678876000009041,['n'],0,left,['e'],0,0.2869965999998385,0.1,1,0,AccAcc,17,18,Woman,Right,
5,11,1,0.7673691999989387,['n'],1,right,['e'],0,0.2632935000001453,0.1,0,0,AccAcc,17,18,Woman,Right,
6,11,1,0.9845070999999734,['c'],1,left,['e'],0,0.27968130000044766,0.2,0,0,AccAcc,17,18,Woman,Right,
7,11,1,0.7349545000015496,['c'],1,left,['u'],1,0.1933458999992581,0.4,1,0,AccAcc,17,18,Woman,Right,
8,11,1,1.1341532999995252,['c'],1,left,['e'],0,0.6390710999985458,0.1,0,0,AccAcc,17,18,Woman,Right,
9,11,1,0.5841406999988976,['n'],1,right,['u'],1,0.4644489000002068,0.4,1,0,AccAcc,17,18,Woman,Right,
10,11,1,0.9340520999994624,['c'],1,left,['u'],1,0.45869800000036776,0.2,1,0,AccAcc,17,18,Woman,Right,
11,11,1,1.251753500000632,['n'],1,right,['e'],0,0.16924930000095628,0.2,0,0,AccAcc,17,18,Woman,Right,
12,11,1,1.2015310999995563,['n'],0,left,['e'],0,0.24476380000123754,0.1,1,0,AccAcc,17,18,Woman,Right,
13,11,1,0.7015444999997271,['n'],0,left,['e'],0,0.27317199999924924,0.2,1,0,AccAcc,17,18,Woman,Right,
14,11,1,1.1342676000003848,['n'],1,right,['e'],0,0.3474280999998882,0.1,0,0,AccAcc,17,18,Woman,Right,
15,11,1,0.7180244999999559,['n'],1,right,['u'],1,0.5471643000000768,0.4,1,0,AccAcc,17,18,Woman,Right,
16,11,1,0.584261099998912,['n'],1,right,['e'],0,0.6007595999999467,0.2,0,0,AccAcc,17,18,Woman,Right,
17,11,1,0.5517478000001574,['n'],0,left,['e'],0,0.6691353999995044,0.2,1,0,AccAcc,17,18,Woman,Right,
18,11,1,0.6000903000003746,['n'],1,right,['u'],1,0.44397940000089875,0.1,1,0,AccAcc,17,18,Woman,Right,
19,11,1,0.6336694000001444,['n'],1,right,['u'],1,0.3236581999990449,0.4,1,0,AccAcc,17,18,Woman,Right,
20,11,1,0.7848996000011539,['n'],1,right,['e'],0,0.6178710000003775,0.2,0,0,AccAcc,17,18,Woman,Right,
21,11,1,0.5347867000000406,['n'],1,right,['e'],0,0.3982235000003129,0.1,0,0,AccAcc,17,18,Woman,Right,
22,11,1,1.251088200000595,['n'],1,right,['u'],1,0.27069459999984247,0.1,1,0,AccAcc,17,18,Woman,Right,
23,11,1,2.434354400000302,['c'],1,left,['e'],0,0.35715369999888935,0.2,0,0,AccAcc,17,18,Woman,Right,
24,11,1,0.9182741000004171,['n'],1,right,['u'],1,0.26022199999897566,0.2,1,0,AccAcc,17,18,Woman,Right,
25,11,1,1.2516966000002867,['n'],0,left,['e'],0,0.2350525000001653,0.2,1,0,AccAcc,17,18,Woman,Right,
26,11,1,0.8175952999990841,['n'],1,right,['e'],0,0.24326210000072024,0.4,0,0,AccAcc,17,18,Woman,Right,
27,11,1,2.8170475000006263,['n'],1,right,['e'],0,0.2518266000006406,0.4,0,0,AccAcc,17,18,Woman,Right,
28,11,1,1.3838500999991084,['n'],1,right,['e'],0,0.1725746000010986,0.2,0,0,AccAcc,17,18,Woman,Right,
29,11,1,1.7667328999996244,['n'],1,right,['u'],1,0.16230690000156756,0.4,1,0,AccAcc,17,18,Woman,Right,
30,11,1,3.4179846000006364,['c'],0,right,['e'],0,0.5331086999995023,0.1,1,0,AccAcc,17,18,Woman,Right,
31,11,1,3.701107700000648,['n'],0,left,['e'],0,0.7663124000009702,0.1,1,0,AccAcc,17,18,Woman,Right,
32,11,1,0.9845277000003989,['c'],1,left,['u'],1,0.28273339999941527,0.2,1,0,AccAcc,17,18,Woman,Right,
33,11,1,0.866335299999264,['c'],1,left,['u'],1,0.31933270000081393,0.1,1,0,AccAcc,17,18,Woman,Right,
34,11,1,0.8347472999994352,['n'],1,right,['u'],1,0.3072948999997607,0.4,1,0,AccAcc,17,18,Woman,Right,
35,11,1,0.8512940000000526,['c'],0,right,['e'],0,0.6316083000001527,0.2,1,0,AccAcc,17,18,Woman,Right,
36,11,1,0.7178330000006099,['n'],1,right,['e'],0,0.32390979999945557,0.1,0,0,AccAcc,17,18,Woman,Right,
37,11,1,0.81674970000131,['c'],1,left,['u'],1,0.23359979999986535,0.2,1,0,AccAcc,17,18,Woman,Right,
38,11,1,0.8507310000004509,['n'],1,right,['e'],0,0.5759006999996927,0.4,0,0,AccAcc,17,18,Woman,Right,
39,11,1,0.8512819000006857,['n'],1,right,['u'],1,0.6181918000002042,0.1,1,0,AccAcc,17,18,Woman,Right,
40,11,1,0.6345660000006319,['c'],1,left,['u'],1,0.23389750000023923,0.1,1,0,AccAcc,17,18,Woman,Right,
41,11,1,0.6513398999995843,['n'],1,right,['u'],1,0.312733599999774,0.4,1,0,AccAcc,17,18,Woman,Right,
42,11,1,0.6512942999997904,['n'],1,right,['u'],1,0.24418010000044887,0.4,1,0,AccAcc,17,18,Woman,Right,
43,11,1,0.6162368999994214,['c'],1,left,['u'],1,0.24606590000075812,0.1,1,0,AccAcc,17,18,Woman,Right,
44,11,1,0.7179328999991412,['c'],1,left,['u'],1,0.2088753000007273,0.4,1,0,AccAcc,17,18,Woman,Right,
45,11,1,2.3836018000001786,['n'],0,left,['u'],1,0.4120856999998068,0.2,0,0,AccAcc,17,18,Woman,Right,
46,11,1,1.06816869999966,['c'],1,left,['u'],1,0.17910500000107277,0.4,1,0,AccAcc,17,18,Woman,Right,
47,11,1,0.567750199999864,['c'],1,left,['u'],1,0.16718020000007527,0.4,1,0,AccAcc,17,18,Woman,Right,
48,11,1,0.5848361999996996,['c'],1,left,['u'],1,0.3634148000001005,0.4,1,0,AccAcc,17,18,Woman,Right,
49,11,1,0.7679960999994364,['c'],1,left,['u'],1,0.28846100000009756,0.2,1,0,AccAcc,17,18,Woman,Right,
50,11,1,0.6849807999988116,['c'],1,left,['e'],0,0.8760455999999976,0.2,0,0,AccAcc,17,18,Woman,Right,
51,11,1,0.8841045000008307,['n'],1,right,['u'],1,0.37636080000083894,0.4,1,0,AccAcc,17,18,Woman,Right,
52,11,1,0.7685720999998011,['c'],1,left,['u'],1,0.34927799999968556,0.1,1,0,AccAcc,17,18,Woman,Right,
53,11,1,0.5846400999998878,['c'],1,left,['u'],1,0.1542675999990024,0.4,1,0,AccAcc,17,18,Woman,Right,
54,11,1,0.8174254000005021,['c'],1,left,['u'],1,0.32601310000063677,0.1,1,0,AccAcc,17,18,Woman,Right,
55,11,1,0.5694605999997293,['c'],1,left,['u'],1,0.3408536999995704,0.4,1,0,AccAcc,17,18,Woman,Right,
56,11,1,0.6999153999986447,['c'],1,left,['u'],1,0.381780699999581,0.4,1,0,AccAcc,17,18,Woman,Right,
57,11,1,1.0343228000001545,['n'],0,left,['e'],0,0.4884994000003644,0.1,1,0,AccAcc,17,18,Woman,Right,
58,11,1,0.9010737000007794,['c'],1,left,['e'],0,0.3544095999986894,0.2,0,0,AccAcc,17,18,Woman,Right,
59,11,1,0.9335903999999573,['n'],1,right,['e'],0,0.3221150999997917,0.2,0,0,AccAcc,17,18,Woman,Right,
0,12,1,0.6176761000006081,['n'],1,right,['e'],0,0.4943306000004668,0.4,0,0,FastAcc,17,18,Woman,Right,
1,12,1,0.6180123000012827,['c'],1,left,['u'],1,0.21247410000069067,0.1,1,0,FastAcc,17,18,Woman,Right,
2,12,1,0.8680617999998503,['c'],0,right,['e'],0,0.5073974999995698,0.1,1,0,FastAcc,17,18,Woman,Right,
3,12,1,0.667213200000333,['c'],1,left,['u'],1,0.3350126999994245,0.4,1,0,FastAcc,17,18,Woman,Right,
4,12,1,0.6847192999994149,['n'],1,right,['e'],0,0.2806125000006432,0.1,0,0,FastAcc,17,18,Woman,Right,
5,12,1,0.6013903999992181,['n'],1,right,['e'],0,0.2643840000000637,0.2,0,0,FastAcc,17,18,Woman,Right,
6,12,1,0.6681895000001532,['n'],0,left,['e'],0,0.4205580000016198,0.1,1,0,FastAcc,17,18,Woman,Right,
7,12,1,0.7513013999996474,['c'],0,right,['e'],0,0.39216060000035213,0.4,1,0,FastAcc,17,18,Woman,Right,
8,12,1,0.6183305000013206,['c'],1,left,['e'],0,0.19439199999942502,0.2,0,0,FastAcc,17,18,Woman,Right,
9,12,1,0.6512667999995756,['c'],0,right,['e'],0,0.852075299999342,0.1,1,0,FastAcc,17,18,Woman,Right,
10,12,1,0.7178961999998137,['c'],1,left,['u'],1,0.3910012000014831,0.4,1,0,FastAcc,17,18,Woman,Right,
11,12,1,0.5683575000002747,['c'],1,left,['u'],1,0.29132080000090355,0.1,1,0,FastAcc,17,18,Woman,Right,
12,12,1,0.7342829999997775,['n'],1,right,['e'],0,0.28496610000001965,0.4,0,0,FastAcc,17,18,Woman,Right,
13,12,1,0.5841780000009749,['c'],0,right,['e'],0,0.3804806999996799,0.1,1,0,FastAcc,17,18,Woman,Right,
14,12,1,0.46770939999987604,['c'],0,right,['e'],0,0.7176562000004196,0.2,1,0,FastAcc,17,18,Woman,Right,
15,12,1,0.41785189999973227,['c'],1,left,['e'],0,0.4498753999996552,0.1,0,0,FastAcc,17,18,Woman,Right,
16,12,1,1.016153700000359,['n'],1,right,['e'],0,0.42602939999960654,0.1,0,0,FastAcc,17,18,Woman,Right,
17,12,1,0.5838409999996657,['c'],1,left,['u'],1,0.4037435000009282,0.4,1,0,FastAcc,17,18,Woman,Right,
18,12,1,1.0005237000004854,['n'],1,right,['e'],0,0.5267707000002702,0.2,0,0,FastAcc,17,18,Woman,Right,
19,12,1,0.5346299000011641,['c'],1,left,['u'],1,0.966281799999706,0.1,1,0,FastAcc,17,18,Woman,Right,
20,12,1,0.6008797000013146,['c'],1,left,['u'],1,0.45801489999939804,0.2,1,0,FastAcc,17,18,Woman,Right,
21,12,1,0.7015888000005361,['n'],1,right,['u'],1,0.4623453000003792,0.2,1,0,FastAcc,17,18,Woman,Right,
22,12,1,0.4179229999990639,['c'],0,right,['e'],0,0.4612259000004997,0.1,1,0,FastAcc,17,18,Woman,Right,
23,12,1,0.4681678999986616,['n'],1,right,['e'],0,0.554830300001413,0.1,0,0,FastAcc,17,18,Woman,Right,
24,12,1,0.5351528999999573,['c'],1,left,['u'],1,0.49773199999981443,0.4,1,0,FastAcc,17,18,Woman,Right,
25,12,1,0.516386400000556,['c'],1,left,['u'],1,0.18805479999900854,0.4,1,0,FastAcc,17,18,Woman,Right,
26,12,1,0.4175443999993149,['c'],1,left,['u'],1,0.19782080000004498,0.2,1,0,FastAcc,17,18,Woman,Right,
27,12,1,0.5176418000010017,['c'],0,right,['u'],1,0.4911162000007607,0.2,0,0,FastAcc,17,18,Woman,Right,
28,12,1,1.0836890999999014,['c'],1,left,['e'],0,0.463608000000022,0.2,0,0,FastAcc,17,18,Woman,Right,
29,12,1,0.8842672999999195,['c'],0,right,['e'],0,4.219192099999418,0.2,1,0,FastAcc,17,18,Woman,Right,
30,12,1,1.0347889000004216,['n'],1,right,['u'],1,1.2599890000001324,0.4,1,0,FastAcc,17,18,Woman,Right,
31,12,1,1.7012379999996483,['c'],1,left,['e'],0,0.4563538000002154,0.2,0,0,FastAcc,17,18,Woman,Right,
32,12,1,1.2010429999991175,['n'],0,left,['e'],0,0.12067249999927299,0.1,1,0,FastAcc,17,18,Woman,Right,
33,12,1,1.484350099999574,['n'],0,left,['e'],0,0.2990848999997979,0.1,1,0,FastAcc,17,18,Woman,Right,
34,12,1,0.8683089000005566,['n'],1,right,['e'],0,0.47873530000106257,0.4,0,0,FastAcc,17,18,Woman,Right,
35,12,1,0.6345105000000331,['c'],1,left,['u'],1,0.42037579999851005,0.4,1,0,FastAcc,17,18,Woman,Right,
36,12,1,0.5829615999991802,['c'],1,left,['u'],1,0.25532530000054976,0.4,1,0,FastAcc,17,18,Woman,Right,
37,12,1,0.41695640000034473,['n'],1,right,['u'],1,0.534324000000197,0.4,1,0,FastAcc,17,18,Woman,Right,
38,12,1,0.6178980999993655,['c'],0,right,['e'],0,0.4744745999996667,0.4,1,0,FastAcc,17,18,Woman,Right,
39,12,1,0.5012767999996868,['c'],1,left,['u'],1,0.3740791000000172,0.4,1,0,FastAcc,17,18,Woman,Right,
40,12,1,0.8164448000006814,['c'],1,left,['e'],0,0.4093950999995286,0.1,0,0,FastAcc,17,18,Woman,Right,
41,12,1,0.6515949999993609,['n'],1,right,['e'],0,0.27342439999847556,0.2,0,0,FastAcc,17,18,Woman,Right,
42,12,1,0.6004174000008788,['c'],1,left,['e'],0,0.2417440000008355,0.1,0,0,FastAcc,17,18,Woman,Right,
43,12,1,0.5346196000009513,['c'],1,left,['u'],1,0.38858500000060303,0.2,1,0,FastAcc,17,18,Woman,Right,
44,12,1,0.7345789999999397,['n'],1,right,['u'],1,0.33006750000095053,0.4,1,0,FastAcc,17,18,Woman,Right,
45,12,1,0.8179381999998441,['c'],0,right,['e'],0,0.27048439999998664,0.2,1,0,FastAcc,17,18,Woman,Right,
46,12,1,0.7672738999990543,['c'],0,right,['e'],0,0.16744529999959923,0.2,1,0,FastAcc,17,18,Woman,Right,
47,12,1,0.6515245999999024,['n'],0,left,['e'],0,0.21711150000010093,0.2,1,0,FastAcc,17,18,Woman,Right,
48,12,1,0.4674013999992894,['c'],1,left,['e'],0,0.3518659999990632,0.2,0,0,FastAcc,17,18,Woman,Right,
49,12,1,0.6006879999986268,['n'],0,left,['e'],0,0.39614720000099624,0.2,1,0,FastAcc,17,18,Woman,Right,
50,12,1,0.6172031999994942,['c'],0,right,['e'],0,0.34183759999905305,0.4,1,0,FastAcc,17,18,Woman,Right,
51,12,1,0.5350957999999082,['n'],0,left,['e'],0,0.26126879999901576,0.4,1,0,FastAcc,17,18,Woman,Right,
52,12,1,0.7341805000014574,['c'],1,left,['e'],0,0.20829310000044643,0.1,0,0,FastAcc,17,18,Woman,Right,
53,12,1,0.6506336999991618,['n'],1,right,['e'],0,0.24124760000086098,0.2,0,0,FastAcc,17,18,Woman,Right,
54,12,1,0.6842460000007122,['n'],1,right,['e'],0,0.12602719999995315,0.4,0,0,FastAcc,17,18,Woman,Right,
55,12,1,0.734712400000717,['c'],1,left,['u'],1,0.1903794999998354,0.4,1,0,FastAcc,17,18,Woman,Right,
56,12,1,0.734897500000443,['n'],1,right,['e'],0,0.23600959999930637,0.1,0,0,FastAcc,17,18,Woman,Right,
57,12,1,0.9680087999986426,['n'],1,right,['e'],0,0.39826480000010633,0.2,0,0,FastAcc,17,18,Woman,Right,
58,12,1,0.8174469999994471,['n'],0,left,['u'],1,0.2398975000014616,0.1,0,0,FastAcc,17,18,Woman,Right,
59,12,1,0.7848352999990311,['c'],0,right,['u'],1,0.3619951000000583,0.1,0,0,FastAcc,17,18,Woman,Right,
0,13,1,0.6515867999987677,['n'],1,right,['u'],1,0.38737180000134686,0.1,1,0,FastFast,17,18,Woman,Right,
1,13,1,0.5006353999997373,['c'],1,left,['u'],1,0.13012610000077984,0.2,1,0,FastFast,17,18,Woman,Right,
2,13,1,0.4514717000001838,['n'],1,right,['u'],1,0.14106639999954496,0.2,1,0,FastFast,17,18,Woman,Right,
3,13,1,0.5167133999984799,['c'],1,left,['e'],0,0.21423499999946216,0.2,0,0,FastFast,17,18,Woman,Right,
4,13,1,1.018874399998822,['n'],0,left,['e'],0,0.2941396000005625,0.1,1,0,FastFast,17,18,Woman,Right,
5,13,1,0.5505778000006103,['c'],1,left,['u'],1,0.2632362000003923,0.4,1,0,FastFast,17,18,Woman,Right,
6,13,1,0.4181685000003199,['n'],1,right,['u'],1,0.14192129999901226,0.2,1,0,FastFast,17,18,Woman,Right,
7,13,1,0.5676454999993439,['n'],1,right,['u'],1,0.292240299999321,0.2,1,0,FastFast,17,18,Woman,Right,
8,13,1,0.5328050000007352,['n'],1,right,['u'],1,0.23024810000060825,0.1,1,0,FastFast,17,18,Woman,Right,
9,13,1,0.5509497000002739,['c'],1,left,['u'],1,0.18483019999985117,0.2,1,0,FastFast,17,18,Woman,Right,
10,13,1,0.45138090000000375,['n'],1,right,['u'],1,0.25769450000007055,0.4,1,0,FastFast,17,18,Woman,Right,
11,13,1,0.5341962999991665,['n'],1,right,['u'],1,0.19664209999973536,0.4,1,0,FastFast,17,18,Woman,Right,
12,13,1,0.467739800000345,['n'],0,left,['u'],1,0.23620350000055623,0.1,0,0,FastFast,17,18,Woman,Right,
13,13,1,0.651183600000877,['c'],1,left,['u'],1,0.251141100001405,0.4,1,0,FastFast,17,18,Woman,Right,
14,13,1,0.5518964000002597,['n'],1,right,['e'],0,0.2213398000003508,0.1,0,0,FastFast,17,18,Woman,Right,
15,13,1,0.48492739999892365,['c'],1,left,['u'],1,0.2756297000014456,0.4,1,0,FastFast,17,18,Woman,Right,
16,13,1,0.383680999999342,['n'],0,left,['e'],0,0.20464159999937692,0.1,1,0,FastFast,17,18,Woman,Right,
17,13,1,0.5333557000012661,['n'],1,right,['e'],0,0.24076900000000023,0.1,0,0,FastFast,17,18,Woman,Right,
18,13,1,0.5012815000009141,['c'],1,left,['u'],1,0.16548890000012761,0.4,1,0,FastFast,17,18,Woman,Right,
19,13,1,0.8333650000004127,['n'],1,right,['e'],0,0.3046954999990703,0.1,0,0,FastFast,17,18,Woman,Right,
20,13,1,0.7010408999994979,['n'],0,left,['e'],0,0.29822760000024573,0.4,1,0,FastFast,17,18,Woman,Right,
21,13,1,0.45126750000054017,['n'],1,right,['e'],0,0.20732309999948484,0.4,0,0,FastFast,17,18,Woman,Right,
22,13,1,0.45044380000035744,['n'],1,right,['e'],0,0.4238989000004949,0.1,0,0,FastFast,17,18,Woman,Right,
23,13,1,0.6513003000000026,['n'],1,right,['e'],0,0.2543381999985286,0.2,0,0,FastFast,17,18,Woman,Right,
24,13,1,0.6179398999993282,['n'],1,right,['u'],1,0.2539514000000054,0.4,1,0,FastFast,17,18,Woman,Right,
25,13,1,0.5500226999993174,['n'],1,right,['u'],1,0.2242764000002353,0.1,1,0,FastFast,17,18,Woman,Right,
26,13,1,0.5343092000002798,['n'],0,left,['e'],0,0.45259249999980966,0.2,1,0,FastFast,17,18,Woman,Right,
27,13,1,0.9844721999998001,['c'],1,left,['e'],0,0.3973714000003383,0.1,0,0,FastFast,17,18,Woman,Right,
28,13,1,0.6164288999989367,['c'],0,right,['e'],0,0.32783520000157296,0.1,1,0,FastFast,17,18,Woman,Right,
29,13,1,0.5844624999990629,['n'],1,right,['e'],0,0.2614214000004722,0.4,0,0,FastFast,17,18,Woman,Right,
30,13,1,1.4183981999995012,['n'],0,left,['e'],0,0.35695399999895017,0.4,1,0,FastFast,17,18,Woman,Right,
31,13,1,0.5674789000004239,['n'],1,right,['e'],0,0.25866149999819754,0.2,0,0,FastFast,17,18,Woman,Right,
32,13,1,0.8853041000002122,['n'],0,left,['e'],0,0.23158979999971052,0.4,1,0,FastFast,17,18,Woman,Right,
33,13,1,0.7180920000009792,['n'],1,right,['e'],0,0.1477125999990676,0.1,0,0,FastFast,17,18,Woman,Right,
34,13,1,0.7487240999998903,['c'],1,left,['e'],0,0.22755580000011832,0.4,0,0,FastFast,17,18,Woman,Right,
35,13,1,0.5343727999988914,['n'],0,left,['e'],0,0.24648189999970782,0.4,1,0,FastFast,17,18,Woman,Right,
36,13,1,0.6679181000017707,['n'],0,left,['e'],0,0.7240925000005518,0.2,1,0,FastFast,17,18,Woman,Right,
37,13,1,0.4833266999994521,['n'],1,right,['e'],0,0.32677780000085477,0.4,0,0,FastFast,17,18,Woman,Right,
38,13,1,0.551448000000164,['c'],1,left,['u'],1,0.1986544999999751,0.4,1,0,FastFast,17,18,Woman,Right,
39,13,1,0.38397169999916514,['n'],1,right,['e'],0,0.4808722999987367,0.2,0,0,FastFast,17,18,Woman,Right,
40,13,1,0.4835495000006631,['n'],0,left,['e'],0,0.17293529999915336,0.2,1,0,FastFast,17,18,Woman,Right,
41,13,1,0.4179743000004237,['n'],1,right,['e'],0,0.19949590000032913,0.1,0,0,FastFast,17,18,Woman,Right,
42,13,1,0.48384319999968284,['n'],1,right,['e'],0,0.12608329999966372,0.2,0,0,FastFast,17,18,Woman,Right,
43,13,1,0.9344829000001482,['n'],0,left,['e'],0,0.15037330000086513,0.1,1,0,FastFast,17,18,Woman,Right,
44,13,1,0.4674940000004426,['n'],0,left,['e'],0,0.16000549999989744,0.1,1,0,FastFast,17,18,Woman,Right,
45,13,1,0.7018470000002708,['n'],0,left,['e'],0,0.12820780000038212,0.4,1,0,FastFast,17,18,Woman,Right,
46,13,1,0.6512597999990248,['n'],1,right,['e'],0,0.10039270000015676,0.4,0,0,FastFast,17,18,Woman,Right,
47,13,1,0.868438999999853,['n'],1,right,['e'],0,0.25470599999971455,0.2,0,0,FastFast,17,18,Woman,Right,
48,13,1,0.6345163000005414,['c'],0,right,['e'],0,0.2697423000008712,0.1,1,0,FastFast,17,18,Woman,Right,
49,13,1,0.7678266000002623,['c'],0,right,['e'],0,0.11884099999952014,0.4,1,0,FastFast,17,18,Woman,Right,
50,13,1,0.7840872000015224,['n'],1,right,['e'],0,0.2609348999994836,0.2,0,0,FastFast,17,18,Woman,Right,
51,13,1,0.7682605999998486,['c'],1,left,['e'],0,0.0946659000001091,0.2,0,0,FastFast,17,18,Woman,Right,
52,13,1,0.833789500000421,['n'],1,right,['e'],0,0.444194100000459,0.2,0,0,FastFast,17,18,Woman,Right,
53,13,1,1.7182431999990513,['c'],1,left,['u'],1,0.15242380000017874,0.2,1,0,FastFast,17,18,Woman,Right,
54,13,1,0.6678583000011713,['c'],1,left,['u'],1,0.12204030000066268,0.2,1,0,FastFast,17,18,Woman,Right,
55,13,1,1.0342639999998937,['n'],1,right,['e'],0,0.030721700000867713,0.1,0,0,FastFast,17,18,Woman,Right,
56,13,1,0.8678639000008843,['c'],1,left,['u'],1,0.252494200000001,0.1,1,0,FastFast,17,18,Woman,Right,
57,13,1,0.7180528000008053,['c'],1,left,['u'],1,0.152332399999068,0.4,1,0,FastFast,17,18,Woman,Right,
58,13,1,1.134635200000048,['n'],0,left,['e'],0,0.13604289999966568,0.1,1,0,FastFast,17,18,Woman,Right,
59,13,1,0.8180630000006204,['c'],1,left,['e'],0,0.19561849999990955,0.2,0,0,FastFast,17,18,Woman,Right,
0,14,1,1.283353500000885,['n'],1,right,['e'],0,0.4829954999986512,0.2,0,0,AccFast,17,18,Woman,Right,
1,14,1,0.6012780999990355,['c'],1,left,['u'],1,0.37795469999946363,0.2,1,0,AccFast,17,18,Woman,Right,
2,14,1,0.6846927999995387,['c'],1,left,['u'],1,0.35429409999960626,0.1,1,0,AccFast,17,18,Woman,Right,
3,14,1,0.5672089000017877,['n'],1,right,['u'],1,0.43192420000013954,0.2,1,0,AccFast,17,18,Woman,Right,
4,14,1,0.518021800000497,['c'],1,left,['u'],1,0.25233139999909326,0.2,1,0,AccFast,17,18,Woman,Right,
5,14,1,0.683634400000301,['n'],1,right,['u'],1,0.29708000000027823,0.1,1,0,AccFast,17,18,Woman,Right,
6,14,1,0.6845772999986366,['n'],1,right,['u'],1,0.25991310000063095,0.4,1,0,AccFast,17,18,Woman,Right,
7,14,1,0.733826699999554,['n'],1,right,['u'],1,0.27093080000122427,0.4,1,0,AccFast,17,18,Woman,Right,
8,14,1,0.967361200000596,['n'],1,right,['u'],1,0.2718808999998146,0.4,1,0,AccFast,17,18,Woman,Right,
9,14,1,2.3844124999995984,['n'],1,right,['u'],1,0.2651596999985486,0.4,1,0,AccFast,17,18,Woman,Right,
10,14,1,0.6343754999998055,['c'],1,left,['u'],1,0.23054279999996652,0.1,1,0,AccFast,17,18,Woman,Right,
11,14,1,0.65143259999968,['n'],1,right,['u'],1,0.27764399999978195,0.4,1,0,AccFast,17,18,Woman,Right,
12,14,1,0.6683791000014025,['n'],1,right,['u'],1,0.17854299999999057,0.4,1,0,AccFast,17,18,Woman,Right,
13,14,1,0.617803900000581,['n'],1,right,['u'],1,0.1649053000001004,0.4,1,0,AccFast,17,18,Woman,Right,
14,14,1,0.48482849999891187,['n'],1,right,['u'],1,0.2370762000009563,0.4,1,0,AccFast,17,18,Woman,Right,
15,14,1,0.46800749999965774,['n'],1,right,['u'],1,0.18024659999900905,0.4,1,0,AccFast,17,18,Woman,Right,
16,14,1,0.41796269999940705,['n'],1,right,['u'],1,0.22156569999970088,0.2,1,0,AccFast,17,18,Woman,Right,
17,14,1,0.5667094000000361,['n'],0,left,['e'],0,0.8164235000003828,0.4,1,0,AccFast,17,18,Woman,Right,
18,14,1,1.7019822999991447,['n'],1,right,['e'],0,0.38215000000127475,0.1,0,0,AccFast,17,18,Woman,Right,
19,14,1,0.733906700001171,['c'],1,left,['u'],1,0.38779450000038196,0.2,1,0,AccFast,17,18,Woman,Right,
20,14,1,0.9180163000000903,['c'],0,right,['u'],1,0.13032659999953466,0.4,0,0,AccFast,17,18,Woman,Right,
21,14,1,0.8180819999997766,['c'],1,left,['e'],0,0.17447230000107083,0.2,0,0,AccFast,17,18,Woman,Right,
22,14,1,0.6504778999988048,['c'],1,left,['e'],0,0.12790990000030433,0.2,0,0,AccFast,17,18,Woman,Right,
23,14,1,0.6497814000013022,['c'],1,left,['e'],0,0.14842189999944821,0.4,0,0,AccFast,17,18,Woman,Right,
24,14,1,0.7342921999988903,['c'],1,left,['u'],1,0.11457949999930861,0.2,1,0,AccFast,17,18,Woman,Right,
25,14,1,0.6672952000008081,['c'],1,left,['u'],1,0.10136049999891839,0.2,1,0,AccFast,17,18,Woman,Right,
26,14,1,0.6177299000009953,['c'],0,right,['e'],0,0.5551116000006004,0.1,1,0,AccFast,17,18,Woman,Right,
27,14,1,1.3014710000006744,['c'],1,left,['e'],0,0.22752290000062203,0.2,0,0,AccFast,17,18,Woman,Right,
28,14,1,1.7345309000011184,['n'],0,left,['u'],1,0.26380369999969844,0.2,0,0,AccFast,17,18,Woman,Right,
29,14,1,0.7183287000007113,['c'],1,left,['u'],1,0.24257919999945443,0.4,1,0,AccFast,17,18,Woman,Right,
30,14,1,0.8512917000007292,['c'],1,left,['u'],1,0.2656157000001258,0.4,1,0,AccFast,17,18,Woman,Right,
31,14,1,0.6680245999996259,['c'],1,left,['e'],0,0.29466990000037185,0.2,0,0,AccFast,17,18,Woman,Right,
32,14,1,0.634864400000879,['n'],0,left,['e'],0,0.26018589999875985,0.2,1,0,AccFast,17,18,Woman,Right,
33,14,1,0.7845655000000988,['c'],1,left,['e'],0,0.17336470000009285,0.2,0,0,AccFast,17,18,Woman,Right,
34,14,1,0.7845918000002712,['c'],1,left,['e'],0,0.12125649999870802,0.4,0,0,AccFast,17,18,Woman,Right,
35,14,1,1.6842121999998199,['c'],0,right,['e'],0,0.40398239999922225,0.1,1,0,AccFast,17,18,Woman,Right,
36,14,1,1.7168817000001582,['c'],1,left,['e'],0,0.0974303000002692,0.1,0,0,AccFast,17,18,Woman,Right,
37,14,1,0.7512735000000248,['c'],1,left,['e'],0,0.11368769999899087,0.2,0,0,AccFast,17,18,Woman,Right,
38,14,1,0.9681892000007792,['c'],1,left,['u'],1,0.13675710000097752,0.4,1,0,AccFast,17,18,Woman,Right,
39,14,1,0.48490119999951276,['c'],1,left,['u'],1,0.2102969999996276,0.1,1,0,AccFast,17,18,Woman,Right,
40,14,1,0.917897900000753,['n'],1,right,['e'],0,0.15176919999976235,0.1,0,0,AccFast,17,18,Woman,Right,
41,14,1,0.8181800999991538,['c'],0,right,['e'],0,0.32352610000089044,0.2,1,0,AccFast,17,18,Woman,Right,
42,14,1,1.41729739999937,['c'],1,left,['e'],0,0.11327629999868805,0.4,0,0,AccFast,17,18,Woman,Right,
43,14,1,0.7499872999997024,['c'],1,left,['e'],0,0.032809300000735675,0.1,0,0,AccFast,17,18,Woman,Right,
44,14,1,1.0346807000005356,['n'],1,right,['e'],0,0.1039400999998179,0.2,0,0,AccFast,17,18,Woman,Right,
45,14,1,1.0007931000000099,['c'],1,left,['e'],0,0.07903200000146171,0.1,0,0,AccFast,17,18,Woman,Right,
46,14,1,0.6512141999992309,['n'],1,right,['e'],0,0.05111869999927876,0.4,0,0,AccFast,17,18,Woman,Right,
47,14,1,1.0678903999996692,['c'],0,right,['e'],0,0.05670770000142511,0.1,1,0,AccFast,17,18,Woman,Right,
48,14,1,1.517873900000268,['n'],0,left,['e'],0,0.060301700001218705,0.1,1,0,AccFast,17,18,Woman,Right,
49,14,1,1.0179014000004827,['n'],1,right,['e'],0,0.0681086000004143,0.1,0,0,AccFast,17,18,Woman,Right,
50,14,1,0.8017816999999923,['n'],1,right,['e'],0,0.09966519999943557,0.2,0,0,AccFast,17,18,Woman,Right,
51,14,1,0.7171948000013799,['n'],0,left,['e'],0,0.11728539999967325,0.1,1,0,AccFast,17,18,Woman,Right,
52,14,1,0.6180678000000626,['c'],1,left,['e'],0,0.026370599998699618,0.4,0,0,AccFast,17,18,Woman,Right,
53,14,1,0.7503821999998763,['c'],1,left,['u'],1,0.09362949999922421,0.1,1,0,AccFast,17,18,Woman,Right,
54,14,1,1.2176053000002867,['c'],0,right,['e'],0,0.12378250000074331,0.1,1,0,AccFast,17,18,Woman,Right,
55,14,1,0.617537899999661,['c'],0,right,['e'],0,0.3528272999992623,0.1,1,0,AccFast,17,18,Woman,Right,
56,14,1,0.5678674000009778,['c'],0,right,['e'],0,0.3344954999993206,0.1,1,0,AccFast,17,18,Woman,Right,
57,14,1,0.5514477000015177,['c'],0,right,['e'],0,0.2053859999996348,0.2,1,0,AccFast,17,18,Woman,Right,
58,14,1,0.7349123999993026,['c'],0,right,['e'],0,0.4590963999999076,0.1,1,0,AccFast,17,18,Woman,Right,
59,14,1,1.98380730000099,['n'],1,right,['u'],1,0.34726900000168825,0.4,1,0,AccFast,17,18,Woman,Right,
0,15,1,0.7679817999996885,['c'],1,left,['u'],1,0.472551900000326,0.4,1,0,AccAcc,17,18,Woman,Right,
1,15,1,0.9179557999996177,['n'],1,right,['e'],0,0.7553074000006745,0.1,0,0,AccAcc,17,18,Woman,Right,
2,15,1,1.2503419000004214,['c'],1,left,['u'],1,0.6624438999988342,0.1,1,0,AccAcc,17,18,Woman,Right,
3,15,1,0.7340373000006366,['c'],1,left,['u'],1,0.5279863999985537,0.2,1,0,AccAcc,17,18,Woman,Right,
4,15,1,0.6858935999989626,['n'],1,right,['u'],1,0.4343128999989858,0.4,1,0,AccAcc,17,18,Woman,Right,
5,15,1,0.8670125000007829,['c'],1,left,['e'],0,0.3528805999994802,0.1,0,0,AccAcc,17,18,Woman,Right,
6,15,1,1.3172255999998015,['c'],0,right,['e'],0,0.3044716000003973,0.1,1,0,AccAcc,17,18,Woman,Right,
7,15,1,0.6672103000000789,['c'],1,left,['u'],1,0.3002759999999398,0.4,1,0,AccAcc,17,18,Woman,Right,
8,15,1,0.9667062999997142,['n'],1,right,['u'],1,0.3476116000001639,0.1,1,0,AccAcc,17,18,Woman,Right,
9,15,1,0.6676922000006016,['n'],1,right,['u'],1,0.35723230000076,0.4,1,0,AccAcc,17,18,Woman,Right,
10,15,1,0.7848133000006783,['n'],1,right,['u'],1,0.34617830000024696,0.1,1,0,AccAcc,17,18,Woman,Right,
11,15,1,0.7180240999987291,['c'],1,left,['u'],1,0.3057666999993671,0.2,1,0,AccAcc,17,18,Woman,Right,
12,15,1,0.9992585999989387,['n'],1,right,['u'],1,0.33761169999888807,0.2,1,0,AccAcc,17,18,Woman,Right,
13,15,1,0.6348162999984197,['c'],1,left,['u'],1,0.31567179999910877,0.4,1,0,AccAcc,17,18,Woman,Right,
14,15,1,1.3507915999998659,['n'],0,left,['e'],0,0.31532919999881415,0.2,1,0,AccAcc,17,18,Woman,Right,
15,15,1,0.5681511999991926,['c'],1,left,['u'],1,0.330302300000767,0.4,1,0,AccAcc,17,18,Woman,Right,
16,15,1,0.6512098999992304,['c'],1,left,['e'],0,0.34127799999987474,0.2,0,0,AccAcc,17,18,Woman,Right,
17,15,1,0.950881799999479,['c'],1,left,['e'],0,0.6762123999997129,0.1,0,0,AccAcc,17,18,Woman,Right,
18,15,1,1.151459300001079,['n'],1,right,['e'],0,0.3339453999997204,0.2,0,0,AccAcc,17,18,Woman,Right,
19,15,1,0.9684177999988606,['n'],1,right,['u'],1,0.6681509999998525,0.2,1,0,AccAcc,17,18,Woman,Right,
20,15,1,1.53490359999887,['c'],0,right,['e'],0,0.24691190000157803,0.1,1,0,AccAcc,17,18,Woman,Right,
21,15,1,0.668566299998929,['n'],0,left,['e'],0,0.4363138999997318,0.4,1,0,AccAcc,17,18,Woman,Right,
22,15,1,0.5847977000012179,['n'],1,right,['u'],1,0.3978568999991694,0.4,1,0,AccAcc,17,18,Woman,Right,
23,15,1,0.6512533999994048,['c'],1,left,['u'],1,0.39007409999976517,0.4,1,0,AccAcc,17,18,Woman,Right,
24,15,1,1.033106200000475,['n'],0,left,['e'],0,0.25726160000158416,0.1,1,0,AccAcc,17,18,Woman,Right,
25,15,1,0.7022625999998127,['n'],1,right,['u'],1,0.4922501999990345,0.1,1,0,AccAcc,17,18,Woman,Right,
26,15,1,0.717625000001135,['n'],1,right,['u'],1,0.2703717999993387,0.2,1,0,AccAcc,17,18,Woman,Right,
27,15,1,1.0350828999999067,['c'],1,left,['u'],1,0.5245887000000948,0.2,1,0,AccAcc,17,18,Woman,Right,
28,15,1,0.6833578999994643,['n'],1,right,['u'],1,0.33507230000031996,0.2,1,0,AccAcc,17,18,Woman,Right,
29,15,1,0.9843491999999969,['n'],1,right,['e'],0,0.15664070000093488,0.2,0,0,AccAcc,17,18,Woman,Right,
30,15,1,0.5514380000004167,['n'],0,left,['e'],0,0.30693560000145226,0.2,1,0,AccAcc,17,18,Woman,Right,
31,15,1,1.066675000000032,['c'],1,left,['u'],1,0.28657559999919613,0.1,1,0,AccAcc,17,18,Woman,Right,
32,15,1,0.5848419000012655,['n'],1,right,['u'],1,0.3180631999985053,0.4,1,0,AccAcc,17,18,Woman,Right,
33,15,1,0.5684001999998145,['c'],1,left,['u'],1,0.44508370000039577,0.4,1,0,AccAcc,17,18,Woman,Right,
34,15,1,1.067903800001659,['n'],0,left,['e'],0,0.17868689999886556,0.2,1,0,AccAcc,17,18,Woman,Right,
35,15,1,0.5847042000004876,['n'],1,right,['u'],1,0.3104724000004353,0.4,1,0,AccAcc,17,18,Woman,Right,
36,15,1,0.6348870000001625,['n'],1,right,['u'],1,0.22740369999883114,0.4,1,0,AccAcc,17,18,Woman,Right,
37,15,1,1.1006019999986165,['c'],0,right,['e'],0,0.5289069999998901,0.2,1,0,AccAcc,17,18,Woman,Right,
38,15,1,0.9344347000005655,['c'],1,left,['u'],1,0.2487851000005321,0.2,1,0,AccAcc,17,18,Woman,Right,
39,15,1,0.5347232999993139,['n'],1,right,['u'],1,0.2525636999998824,0.4,1,0,AccAcc,17,18,Woman,Right,
40,15,1,0.550547099999676,['n'],1,right,['u'],1,0.3978425999994215,0.4,1,0,AccAcc,17,18,Woman,Right,
41,15,1,0.7011139999995066,['c'],1,left,['u'],1,0.3080657999998948,0.1,1,0,AccAcc,17,18,Woman,Right,
42,15,1,0.7683066000008694,['n'],1,right,['u'],1,0.31556149999960326,0.2,1,0,AccAcc,17,18,Woman,Right,
43,15,1,0.751629899999898,['c'],1,left,['u'],1,0.32332380000116245,0.4,1,0,AccAcc,17,18,Woman,Right,
44,15,1,0.5344452000008459,['n'],1,right,['u'],1,0.3236703000002308,0.2,1,0,AccAcc,17,18,Woman,Right,
45,15,1,1.2013974000001326,['c'],0,right,['e'],0,0.2811976000011782,0.1,1,0,AccAcc,17,18,Woman,Right,
46,15,1,0.601363499999934,['c'],1,left,['u'],1,0.4081971999985399,0.2,1,0,AccAcc,17,18,Woman,Right,
47,15,1,1.3512408999995387,['n'],1,right,['e'],0,0.2605146000005334,0.1,0,0,AccAcc,17,18,Woman,Right,
48,15,1,0.7845331999997143,['n'],0,left,['e'],0,0.3493737999997393,0.4,1,0,AccAcc,17,18,Woman,Right,
49,15,1,1.0683272999995097,['n'],1,right,['e'],0,0.1032865999986825,0.1,0,0,AccAcc,17,18,Woman,Right,
50,15,1,0.7845101000002614,['n'],0,left,['e'],0,0.15036239999972167,0.1,1,0,AccAcc,17,18,Woman,Right,
51,15,1,0.9008302999991429,['n'],1,right,['e'],0,0.11067279999952007,0.2,0,0,AccAcc,17,18,Woman,Right,
52,15,1,1.0836340999994718,['n'],1,right,['e'],0,0.11371969999891007,0.4,0,0,AccAcc,17,18,Woman,Right,
53,15,1,1.2186524999997346,['c'],0,right,['e'],0,0.3984130000008008,0.1,1,0,AccAcc,17,18,Woman,Right,
54,15,1,0.901674799999455,['c'],1,left,['e'],0,0.23650610000004235,0.4,0,0,AccAcc,17,18,Woman,Right,
55,15,1,0.7847713000010117,['n'],1,right,['u'],1,0.3260998000005202,0.1,1,0,AccAcc,17,18,Woman,Right,
56,15,1,0.6845609000010882,['c'],1,left,['u'],1,0.272447800000009,0.2,1,0,AccAcc,17,18,Woman,Right,
57,15,1,0.43315249999977823,['n'],0,left,['e'],0,0.5671003000006749,0.4,1,0,AccAcc,17,18,Woman,Right,
58,15,1,1.1514344000006531,['c'],1,left,['e'],0,0.5643057999986922,0.1,0,0,AccAcc,17,18,Woman,Right,
59,15,1,0.7178331999984948,['c'],1,left,['e'],0,0.2113141000008909,0.1,0,0,AccAcc,17,18,Woman,Right,
