withinblocktrial,block,block_repetition,rt,resp,cor,cresp,conf_press,cj,rtconf,coherence,metacognition,slow_trial,manipulation,sub,age,gender,handedness,
0,1,1,3.033893599989824,['n'],1,right,none,-99,-99,0.5,-99,0,none,21,18,Woman,Right,
1,1,1,0.8825133999926038,['n'],1,right,none,-99,-99,0.5,-99,0,none,21,18,Woman,Right,
2,1,1,1.299003599997377,['n'],1,right,none,-99,-99,0.5,-99,0,none,21,18,Woman,Right,
3,1,1,0.7181630000122823,['n'],1,right,none,-99,-99,0.5,-99,0,none,21,18,Woman,Right,
4,1,1,1.483302900014678,['c'],0,right,none,-99,-99,0.5,-99,0,none,21,18,Woman,Right,
5,1,1,1.6165432000125293,['n'],1,right,none,-99,-99,0.5,-99,0,none,21,18,Woman,Right,
6,1,1,0.766266499995254,['c'],1,left,none,-99,-99,0.5,-99,0,none,21,18,Woman,Right,
7,1,1,1.9655523999826983,['c'],1,left,none,-99,-99,0.5,-99,0,none,21,18,Woman,Right,
8,1,1,0.7839485000004061,['c'],1,left,none,-99,-99,0.5,-99,0,none,21,18,Woman,Right,
9,1,1,0.5853728999791201,['c'],1,left,none,-99,-99,0.5,-99,0,none,21,18,Woman,Right,
10,1,1,0.616941800020868,['c'],1,left,none,-99,-99,0.5,-99,0,none,21,18,Woman,Right,
11,1,1,0.6499956999905407,['n'],1,right,none,-99,-99,0.5,-99,0,none,21,18,Woman,Right,
12,1,1,0.5174586999928579,['c'],1,left,none,-99,-99,0.5,-99,0,none,21,18,Woman,Right,
13,1,1,0.5337673999893013,['c'],1,left,none,-99,-99,0.5,-99,0,none,21,18,Woman,Right,
14,1,1,0.5664053999935277,['n'],1,right,none,-99,-99,0.5,-99,0,none,21,18,Woman,Right,
15,1,1,0.4997776999953203,['c'],1,left,none,-99,-99,0.5,-99,0,none,21,18,Woman,Right,
16,1,1,0.48282509998534806,['n'],1,right,none,-99,-99,0.5,-99,0,none,21,18,Woman,Right,
17,1,1,0.398273099999642,['c'],1,left,none,-99,-99,0.5,-99,0,none,21,18,Woman,Right,
18,1,1,0.399793899996439,['n'],0,left,none,-99,-99,0.5,-99,0,none,21,18,Woman,Right,
19,1,1,1.0993714000214823,['n'],0,left,none,-99,-99,0.5,-99,0,none,21,18,Woman,Right,
20,1,1,0.5826369000133127,['c'],1,left,none,-99,-99,0.5,-99,0,none,21,18,Woman,Right,
21,1,1,0.5685643999895547,['n'],1,right,none,-99,-99,0.5,-99,0,none,21,18,Woman,Right,
22,1,1,0.7333158999972511,['c'],0,right,none,-99,-99,0.5,-99,0,none,21,18,Woman,Right,
23,1,1,0.6665628999762703,['n'],1,right,none,-99,-99,0.5,-99,0,none,21,18,Woman,Right,
0,1,2,1.8841362000093795,['n'],0,left,none,-99,-99,0.5,-99,0,none,21,18,Woman,Right,
1,1,2,0.5677477999997791,['c'],1,left,none,-99,-99,0.5,-99,0,none,21,18,Woman,Right,
2,1,2,0.4669212000153493,['c'],1,left,none,-99,-99,0.5,-99,0,none,21,18,Woman,Right,
3,1,2,0.799711900006514,['n'],1,right,none,-99,-99,0.5,-99,0,none,21,18,Woman,Right,
4,1,2,0.36781369999516755,['c'],0,right,none,-99,-99,0.5,-99,0,none,21,18,Woman,Right,
5,1,2,0.5667574999970384,['n'],1,right,none,-99,-99,0.5,-99,0,none,21,18,Woman,Right,
6,1,2,0.5012607999960892,['c'],1,left,none,-99,-99,0.5,-99,0,none,21,18,Woman,Right,
7,1,2,0.683780299994396,['c'],0,right,none,-99,-99,0.5,-99,0,none,21,18,Woman,Right,
8,1,2,0.9163736999907997,['n'],1,right,none,-99,-99,0.5,-99,0,none,21,18,Woman,Right,
9,1,2,0.49955550002050586,['c'],1,left,none,-99,-99,0.5,-99,0,none,21,18,Woman,Right,
10,1,2,0.5172277999809012,['c'],1,left,none,-99,-99,0.5,-99,0,none,21,18,Woman,Right,
11,1,2,0.7669943000073545,['n'],1,right,none,-99,-99,0.5,-99,0,none,21,18,Woman,Right,
12,1,2,0.6999020999937784,['c'],0,right,none,-99,-99,0.5,-99,0,none,21,18,Woman,Right,
13,1,2,1.5502779000089504,['n'],0,left,none,-99,-99,0.5,-99,0,none,21,18,Woman,Right,
14,1,2,0.5330495999951381,['c'],1,left,none,-99,-99,0.5,-99,0,none,21,18,Woman,Right,
15,1,2,0.8004579999833368,['n'],1,right,none,-99,-99,0.5,-99,0,none,21,18,Woman,Right,
16,1,2,0.7174252000113484,['c'],0,right,none,-99,-99,0.5,-99,0,none,21,18,Woman,Right,
17,1,2,0.7008035999897402,['c'],1,left,none,-99,-99,0.5,-99,0,none,21,18,Woman,Right,
18,1,2,0.6835147000092547,['c'],1,left,none,-99,-99,0.5,-99,0,none,21,18,Woman,Right,
19,1,2,0.8170323999947868,['c'],1,left,none,-99,-99,0.5,-99,0,none,21,18,Woman,Right,
20,1,2,1.5340993000136223,['n'],1,right,none,-99,-99,0.5,-99,0,none,21,18,Woman,Right,
21,1,2,2.0001420000044163,['n'],1,right,none,-99,-99,0.5,-99,0,none,21,18,Woman,Right,
22,1,2,0.6163357000041287,['c'],1,left,none,-99,-99,0.5,-99,0,none,21,18,Woman,Right,
23,1,2,0.5178733000066131,['n'],1,right,none,-99,-99,0.5,-99,0,none,21,18,Woman,Right,
0,1,3,0.7661918999801856,['c'],1,left,none,-99,-99,0.5,-99,0,none,21,18,Woman,Right,
1,1,3,0.5672173999773804,['c'],1,left,none,-99,-99,0.5,-99,0,none,21,18,Woman,Right,
2,1,3,0.4328187999781221,['n'],1,right,none,-99,-99,0.5,-99,0,none,21,18,Woman,Right,
3,1,3,0.531683899986092,['c'],1,left,none,-99,-99,0.5,-99,0,none,21,18,Woman,Right,
4,1,3,0.9182786000019405,['n'],1,right,none,-99,-99,0.5,-99,0,none,21,18,Woman,Right,
5,1,3,0.5510854999884032,['c'],0,right,none,-99,-99,0.5,-99,0,none,21,18,Woman,Right,
6,1,3,0.6843318999744952,['c'],1,left,none,-99,-99,0.5,-99,0,none,21,18,Woman,Right,
7,1,3,0.9008101999934297,['n'],1,right,none,-99,-99,0.5,-99,0,none,21,18,Woman,Right,
8,1,3,0.5995456000091508,['c'],0,right,none,-99,-99,0.5,-99,0,none,21,18,Woman,Right,
9,1,3,0.9670546999841463,['n'],1,right,none,-99,-99,0.5,-99,0,none,21,18,Woman,Right,
10,1,3,0.8842713999911211,['c'],0,right,none,-99,-99,0.5,-99,0,none,21,18,Woman,Right,
11,1,3,0.918165199982468,['c'],0,right,none,-99,-99,0.5,-99,0,none,21,18,Woman,Right,
12,1,3,0.8830691000039224,['c'],1,left,none,-99,-99,0.5,-99,0,none,21,18,Woman,Right,
13,1,3,1.0674470999801997,['c'],1,left,none,-99,-99,0.5,-99,0,none,21,18,Woman,Right,
14,1,3,0.6831904000137001,['c'],1,left,none,-99,-99,0.5,-99,0,none,21,18,Woman,Right,
15,1,3,0.5514094999816734,['c'],1,left,none,-99,-99,0.5,-99,0,none,21,18,Woman,Right,
16,1,3,0.5827675999898929,['c'],1,left,none,-99,-99,0.5,-99,0,none,21,18,Woman,Right,
17,1,3,0.701196699985303,['n'],1,right,none,-99,-99,0.5,-99,0,none,21,18,Woman,Right,
18,1,3,0.6003419000189751,['c'],1,left,none,-99,-99,0.5,-99,0,none,21,18,Woman,Right,
19,1,3,0.6506695999996737,['c'],1,left,none,-99,-99,0.5,-99,0,none,21,18,Woman,Right,
20,1,3,0.5005685000214726,['n'],1,right,none,-99,-99,0.5,-99,0,none,21,18,Woman,Right,
21,1,3,0.6165066999965347,['c'],0,right,none,-99,-99,0.5,-99,0,none,21,18,Woman,Right,
22,1,3,0.7171338000043761,['c'],1,left,none,-99,-99,0.5,-99,0,none,21,18,Woman,Right,
23,1,3,0.8510876999935135,['n'],1,right,none,-99,-99,0.5,-99,0,none,21,18,Woman,Right,
0,1,4,1.2005549000168685,['n'],1,right,none,-99,-99,0.5,-99,0,none,21,18,Woman,Right,
1,1,4,0.5006226999976207,['c'],1,left,none,-99,-99,0.5,-99,0,none,21,18,Woman,Right,
2,1,4,0.4836749999958556,['n'],1,right,none,-99,-99,0.5,-99,0,none,21,18,Woman,Right,
3,1,4,0.5171200000040699,['c'],1,left,none,-99,-99,0.5,-99,0,none,21,18,Woman,Right,
4,1,4,0.6499968000280205,['c'],1,left,none,-99,-99,0.5,-99,0,none,21,18,Woman,Right,
5,1,4,0.4992293000104837,['c'],1,left,none,-99,-99,0.5,-99,0,none,21,18,Woman,Right,
6,1,4,0.5677790000045206,['c'],1,left,none,-99,-99,0.5,-99,0,none,21,18,Woman,Right,
7,1,4,0.5337772000057157,['n'],1,right,none,-99,-99,0.5,-99,0,none,21,18,Woman,Right,
8,1,4,0.5670268000103533,['c'],1,left,none,-99,-99,0.5,-99,0,none,21,18,Woman,Right,
9,1,4,0.5355756999924779,['c'],1,left,none,-99,-99,0.5,-99,0,none,21,18,Woman,Right,
10,1,4,0.5669858999899589,['n'],1,right,none,-99,-99,0.5,-99,0,none,21,18,Woman,Right,
11,1,4,0.4172426000004634,['c'],1,left,none,-99,-99,0.5,-99,0,none,21,18,Woman,Right,
12,1,4,0.7003213999851141,['n'],1,right,none,-99,-99,0.5,-99,0,none,21,18,Woman,Right,
13,1,4,0.4008292999933474,['c'],1,left,none,-99,-99,0.5,-99,0,none,21,18,Woman,Right,
14,1,4,0.4171673000091687,['n'],1,right,none,-99,-99,0.5,-99,0,none,21,18,Woman,Right,
15,1,4,0.41574969998328015,['c'],0,right,none,-99,-99,0.5,-99,0,none,21,18,Woman,Right,
16,1,4,0.9343405999825336,['n'],1,right,none,-99,-99,0.5,-99,0,none,21,18,Woman,Right,
17,1,4,0.7661679000011645,['n'],1,right,none,-99,-99,0.5,-99,0,none,21,18,Woman,Right,
18,1,4,0.6176721999945585,['n'],1,right,none,-99,-99,0.5,-99,0,none,21,18,Woman,Right,
19,1,4,0.5329267999914009,['n'],1,right,none,-99,-99,0.5,-99,0,none,21,18,Woman,Right,
20,1,4,0.6840348000114318,['n'],1,right,none,-99,-99,0.5,-99,0,none,21,18,Woman,Right,
21,1,4,0.5675360000168439,['c'],1,left,none,-99,-99,0.5,-99,0,none,21,18,Woman,Right,
22,1,4,0.550064500013832,['c'],1,left,none,-99,-99,0.5,-99,0,none,21,18,Woman,Right,
23,1,4,0.6330706000153441,['c'],1,left,none,-99,-99,0.5,-99,0,none,21,18,Woman,Right,
0,2,1,1.2999600000039209,['n'],0,left,none,-99,-99,0.1,-99,0,none,21,18,Woman,Right,
1,2,1,0.7324363999941852,['c'],1,left,none,-99,-99,0.4,-99,0,none,21,18,Woman,Right,
2,2,1,0.7656658999912906,['n'],1,right,none,-99,-99,0.4,-99,0,none,21,18,Woman,Right,
3,2,1,0.7493811000022106,['n'],1,right,none,-99,-99,0.2,-99,0,none,21,18,Woman,Right,
4,2,1,0.5497719999984838,['c'],0,right,none,-99,-99,0.2,-99,0,none,21,18,Woman,Right,
5,2,1,0.6168803000182379,['c'],1,left,none,-99,-99,0.4,-99,0,none,21,18,Woman,Right,
6,2,1,0.9004597000021022,['n'],1,right,none,-99,-99,0.2,-99,0,none,21,18,Woman,Right,
7,2,1,0.7496676000009757,['n'],1,right,none,-99,-99,0.4,-99,0,none,21,18,Woman,Right,
8,2,1,0.8330535000131931,['c'],1,left,none,-99,-99,0.1,-99,0,none,21,18,Woman,Right,
9,2,1,0.7678665999846999,['c'],0,right,none,-99,-99,0.2,-99,0,none,21,18,Woman,Right,
10,2,1,1.2835544999979902,['n'],1,right,none,-99,-99,0.1,-99,0,none,21,18,Woman,Right,
11,2,1,0.6685264999978244,['n'],1,right,none,-99,-99,0.1,-99,0,none,21,18,Woman,Right,
12,2,1,1.0344101999944542,['n'],0,left,none,-99,-99,0.2,-99,0,none,21,18,Woman,Right,
13,2,1,0.9170214000041597,['c'],1,left,none,-99,-99,0.1,-99,0,none,21,18,Woman,Right,
14,2,1,0.5836307000136003,['n'],0,left,none,-99,-99,0.1,-99,0,none,21,18,Woman,Right,
15,2,1,1.7331413999781944,['c'],0,right,none,-99,-99,0.4,-99,0,none,21,18,Woman,Right,
16,2,1,0.6671877999906428,['n'],1,right,none,-99,-99,0.4,-99,0,none,21,18,Woman,Right,
17,2,1,0.7334457999968436,['c'],1,left,none,-99,-99,0.2,-99,0,none,21,18,Woman,Right,
18,2,1,1.2328191999986302,['n'],0,left,none,-99,-99,0.1,-99,0,none,21,18,Woman,Right,
19,2,1,1.200932300009299,['c'],0,right,none,-99,-99,0.4,-99,0,none,21,18,Woman,Right,
20,2,1,0.9176075000141282,['n'],0,left,none,-99,-99,0.1,-99,0,none,21,18,Woman,Right,
21,2,1,0.8509685000171885,['c'],1,left,none,-99,-99,0.4,-99,0,none,21,18,Woman,Right,
22,2,1,0.6512077999941539,['c'],1,left,none,-99,-99,0.2,-99,0,none,21,18,Woman,Right,
23,2,1,1.2321080999972764,['c'],0,right,none,-99,-99,0.2,-99,0,none,21,18,Woman,Right,
0,2,2,0.6842863000056241,['n'],1,right,none,-99,-99,0.1,-99,0,none,21,18,Woman,Right,
1,2,2,0.4676307000045199,['c'],1,left,none,-99,-99,0.4,-99,0,none,21,18,Woman,Right,
2,2,2,0.5178514000144787,['n'],1,right,none,-99,-99,0.4,-99,0,none,21,18,Woman,Right,
3,2,2,0.4668995999963954,['c'],0,right,none,-99,-99,0.2,-99,0,none,21,18,Woman,Right,
4,2,2,1.4343129000044428,['n'],1,right,none,-99,-99,0.2,-99,0,none,21,18,Woman,Right,
5,2,2,0.5175409000075888,['c'],1,left,none,-99,-99,0.4,-99,0,none,21,18,Woman,Right,
6,2,2,0.6153354000125546,['n'],1,right,none,-99,-99,0.2,-99,0,none,21,18,Woman,Right,
7,2,2,0.48373380000703037,['c'],1,left,none,-99,-99,0.4,-99,0,none,21,18,Woman,Right,
8,2,2,0.7002550000033807,['n'],1,right,none,-99,-99,0.1,-99,0,none,21,18,Woman,Right,
9,2,2,1.0154842999763787,['c'],0,right,none,-99,-99,0.2,-99,0,none,21,18,Woman,Right,
10,2,2,0.6185087999911048,['c'],0,right,none,-99,-99,0.1,-99,0,none,21,18,Woman,Right,
11,2,2,0.5658965000184253,['n'],0,left,none,-99,-99,0.1,-99,0,none,21,18,Woman,Right,
12,2,2,1.900114999996731,['c'],1,left,none,-99,-99,0.2,-99,0,none,21,18,Woman,Right,
13,2,2,0.7836272999993525,['c'],1,left,none,-99,-99,0.1,-99,0,none,21,18,Woman,Right,
14,2,2,0.9003082000126597,['c'],1,left,none,-99,-99,0.1,-99,0,none,21,18,Woman,Right,
15,2,2,0.6333961999916937,['n'],1,right,none,-99,-99,0.4,-99,0,none,21,18,Woman,Right,
16,2,2,0.701105500018457,['n'],1,right,none,-99,-99,0.4,-99,0,none,21,18,Woman,Right,
17,2,2,0.7504447999817785,['n'],0,left,none,-99,-99,0.2,-99,0,none,21,18,Woman,Right,
18,2,2,0.7831282000115607,['c'],0,right,none,-99,-99,0.1,-99,0,none,21,18,Woman,Right,
19,2,2,0.6825203000043985,['c'],1,left,none,-99,-99,0.4,-99,0,none,21,18,Woman,Right,
20,2,2,0.8496920000179671,['c'],1,left,none,-99,-99,0.1,-99,0,none,21,18,Woman,Right,
21,2,2,0.599432600021828,['c'],1,left,none,-99,-99,0.4,-99,0,none,21,18,Woman,Right,
22,2,2,0.5178226999996696,['c'],1,left,none,-99,-99,0.2,-99,0,none,21,18,Woman,Right,
23,2,2,1.0336277000023983,['n'],1,right,none,-99,-99,0.2,-99,0,none,21,18,Woman,Right,
0,3,1,1.0354526000155602,['c'],0,right,['e'],0,1.2554768999980297,0.4,1,0,none,21,18,Woman,Right,
1,3,1,2.2337387000152376,['n'],0,left,['e'],0,0.9157381000113674,0.1,1,0,none,21,18,Woman,Right,
2,3,1,1.5175953999860212,['n'],1,right,['e'],0,0.7445700999815017,0.2,0,0,none,21,18,Woman,Right,
3,3,1,1.1844060000148602,['c'],1,left,['u'],1,0.8185866999847349,0.4,1,0,none,21,18,Woman,Right,
4,3,1,0.8675981999840587,['n'],1,right,['u'],1,0.7259414000145625,0.2,1,0,none,21,18,Woman,Right,
5,3,1,0.6503475999925286,['c'],1,left,['u'],1,0.9182716000068467,0.1,1,0,none,21,18,Woman,Right,
6,3,1,0.8172143000119831,['n'],0,left,['e'],0,0.63087889997405,0.2,1,0,none,21,18,Woman,Right,
7,3,1,1.7338572000153363,['c'],1,left,['u'],1,1.054639199981466,0.4,1,0,none,21,18,Woman,Right,
8,3,1,0.7995422999956645,['c'],1,left,['u'],1,0.6839417000010144,0.2,1,0,none,21,18,Woman,Right,
9,3,1,1.1508274000079837,['n'],1,right,['e'],0,0.681031999993138,0.1,0,0,none,21,18,Woman,Right,
10,3,1,1.251300399977481,['n'],1,right,['e'],0,0.7857713000266813,0.1,0,0,none,21,18,Woman,Right,
11,3,1,1.101125499990303,['c'],1,left,['u'],1,0.5729973000125028,0.4,1,0,none,21,18,Woman,Right,
12,3,1,1.1333965999947395,['n'],1,right,['e'],0,0.9116626000031829,0.1,0,0,none,21,18,Woman,Right,
13,3,1,1.2178633000003174,['n'],1,right,['e'],0,0.466065599990543,0.4,0,0,none,21,18,Woman,Right,
14,3,1,1.1009519000072032,['c'],1,left,['u'],1,0.5694278000155464,0.2,1,0,none,21,18,Woman,Right,
15,3,1,1.2341236000065692,['n'],1,right,['e'],0,0.4568573000142351,0.4,0,0,none,21,18,Woman,Right,
16,3,1,3.3335579999838956,['n'],1,right,['e'],0,0.6157719999901019,0.1,0,0,none,21,18,Woman,Right,
17,3,1,1.1500026999856345,['n'],1,right,['u'],1,0.3603222999954596,0.4,1,0,none,21,18,Woman,Right,
18,3,1,1.134560500009684,['c'],0,right,['u'],1,0.37065689999144524,0.1,0,0,none,21,18,Woman,Right,
19,3,1,1.4175975999969523,['c'],0,right,['u'],1,0.3379521000024397,0.1,0,0,none,21,18,Woman,Right,
20,3,1,1.0022940999770071,['c'],1,left,['u'],1,0.3391889999911655,0.4,1,0,none,21,18,Woman,Right,
21,3,1,0.9329483000037726,['c'],1,left,['u'],1,0.3445470000151545,0.2,1,0,none,21,18,Woman,Right,
22,3,1,1.2682457999908365,['n'],0,left,['e'],0,0.2856976999901235,0.2,1,0,none,21,18,Woman,Right,
23,3,1,1.100760299974354,['c'],1,left,['u'],1,0.30141650000587106,0.2,1,0,none,21,18,Woman,Right,
0,4,1,2.767459199996665,['c'],0,right,['e'],0,2.1568672000139486,0.1,1,0,AccAcc,21,18,Woman,Right,
1,4,1,2.7008774999994785,['c'],0,right,['u'],1,0.446210299996892,0.1,0,0,AccAcc,21,18,Woman,Right,
2,4,1,1.8488740000175312,['c'],0,right,['u'],1,0.8536473000131082,0.4,0,0,AccAcc,21,18,Woman,Right,
3,4,1,4.484135300008347,['n'],0,left,['e'],0,0.8988246000080835,0.1,1,0,AccAcc,21,18,Woman,Right,
4,4,1,3.483899199985899,['c'],0,right,['u'],1,0.8387599000125192,0.4,0,0,AccAcc,21,18,Woman,Right,
5,4,1,3.1014420999854337,['c'],0,right,['u'],1,1.6925416000012774,0.2,0,0,AccAcc,21,18,Woman,Right,
6,4,1,1.217608700011624,['c'],1,left,['u'],1,0.8434259000059683,0.2,1,0,AccAcc,21,18,Woman,Right,
7,4,1,1.7837673000176437,['c'],0,right,['u'],1,0.758929600007832,0.4,0,0,AccAcc,21,18,Woman,Right,
8,4,1,2.0664809999871068,['c'],1,left,['u'],1,0.7612070000031963,0.2,1,0,AccAcc,21,18,Woman,Right,
9,4,1,3.3161073999945074,['n'],1,right,['e'],0,0.53776960002142,0.1,0,0,AccAcc,21,18,Woman,Right,
10,4,1,1.6836643000133336,['c'],1,left,['u'],1,0.6758241999777965,0.4,1,0,AccAcc,21,18,Woman,Right,
11,4,1,4.481806399999186,['c'],0,right,['e'],0,1.1131932999996934,0.1,1,0,AccAcc,21,18,Woman,Right,
12,4,1,1.0496867999900132,['c'],1,left,['u'],1,0.5330627000075765,0.1,1,0,AccAcc,21,18,Woman,Right,
13,4,1,0.9160258000192698,['c'],1,left,['u'],1,0.4299021999759134,0.4,1,0,AccAcc,21,18,Woman,Right,
14,4,1,1.2830274000007194,['n'],1,right,['u'],1,0.5722211999818683,0.2,1,0,AccAcc,21,18,Woman,Right,
15,4,1,3.1826868999924045,['c'],0,right,['u'],1,0.6169382000225596,0.4,0,0,AccAcc,21,18,Woman,Right,
16,4,1,1.71679989999393,['c'],0,right,['u'],1,0.3343960999918636,0.2,0,0,AccAcc,21,18,Woman,Right,
17,4,1,1.1667219999944791,['c'],1,left,['u'],1,0.9651580000063404,0.1,1,0,AccAcc,21,18,Woman,Right,
18,4,1,1.233061999984784,['c'],0,right,['e'],0,0.36770639999303967,0.1,1,0,AccAcc,21,18,Woman,Right,
19,4,1,1.016457099991385,['c'],0,right,['u'],1,0.25101290000020526,0.2,0,0,AccAcc,21,18,Woman,Right,
20,4,1,1.2669083999935538,['c'],1,left,['u'],1,0.6410008000093512,0.2,1,0,AccAcc,21,18,Woman,Right,
21,4,1,2.2664763999928255,['c'],1,left,['u'],1,0.2719494999910239,0.1,1,0,AccAcc,21,18,Woman,Right,
22,4,1,1.1495532000262756,['c'],0,right,['u'],1,0.21786029997747391,0.1,0,0,AccAcc,21,18,Woman,Right,
23,4,1,5.015833599987673,x,-99,right,none,-99,-99,0.2,-99,1,AccAcc,21,18,Woman,Right,
24,4,1,0.9007565000210889,['c'],1,left,['u'],1,0.28128389999619685,0.4,1,0,AccAcc,21,18,Woman,Right,
25,4,1,1.767767500015907,['c'],1,left,['e'],0,0.5700643000018317,0.2,0,0,AccAcc,21,18,Woman,Right,
26,4,1,1.184910599986324,['c'],1,left,['u'],1,0.27856800000881776,0.1,1,0,AccAcc,21,18,Woman,Right,
27,4,1,2.7499818000069354,['n'],1,right,['e'],0,0.5922346999868751,0.2,0,0,AccAcc,21,18,Woman,Right,
28,4,1,1.134394099994097,['c'],1,left,['u'],1,0.2381924000219442,0.1,1,0,AccAcc,21,18,Woman,Right,
29,4,1,1.4002425000071526,['c'],1,left,['u'],1,0.5755669999925885,0.1,1,0,AccAcc,21,18,Woman,Right,
30,4,1,1.1334975000063423,['n'],0,left,['u'],1,0.6384068999905139,0.1,0,0,AccAcc,21,18,Woman,Right,
31,4,1,1.2847280999994837,['n'],0,left,['e'],0,0.3722474000242073,0.1,1,0,AccAcc,21,18,Woman,Right,
32,4,1,1.2999562000040896,['c'],1,left,['u'],1,0.5961818000068888,0.2,1,0,AccAcc,21,18,Woman,Right,
33,4,1,1.2678645999985747,['c'],1,left,['u'],1,0.26824289999785833,0.4,1,0,AccAcc,21,18,Woman,Right,
34,4,1,1.6503360999922734,['n'],0,left,['e'],0,0.5622976999729872,0.1,1,0,AccAcc,21,18,Woman,Right,
35,4,1,1.1831665999779943,['n'],1,right,['u'],1,0.4629698000208009,0.1,1,0,AccAcc,21,18,Woman,Right,
36,4,1,0.9843592999968678,['c'],1,left,['u'],1,0.4396265000104904,0.2,1,0,AccAcc,21,18,Woman,Right,
37,4,1,2.317935300001409,['c'],1,left,['e'],0,0.3644057000055909,0.1,0,0,AccAcc,21,18,Woman,Right,
38,4,1,2.449687399988761,['c'],0,right,['e'],0,0.46269939999911003,0.2,1,0,AccAcc,21,18,Woman,Right,
39,4,1,1.0511146000062581,['n'],1,right,['u'],1,0.5165073999960441,0.4,1,0,AccAcc,21,18,Woman,Right,
40,4,1,1.3497071000165306,['c'],1,left,['u'],1,0.541297299991129,0.2,1,0,AccAcc,21,18,Woman,Right,
41,4,1,1.6843231999955606,['c'],1,left,['u'],1,0.4066673999768682,0.1,1,0,AccAcc,21,18,Woman,Right,
42,4,1,1.717898500006413,['n'],1,right,['e'],0,0.5967460999963805,0.4,0,0,AccAcc,21,18,Woman,Right,
43,4,1,1.215988500014646,['c'],0,right,['e'],0,0.3203358000027947,0.4,1,0,AccAcc,21,18,Woman,Right,
44,4,1,0.8834738000005018,['n'],1,right,['u'],1,0.9136658000061288,0.4,1,0,AccAcc,21,18,Woman,Right,
45,4,1,0.9341137000010349,['c'],1,left,['u'],1,0.9379951999871992,0.4,1,0,AccAcc,21,18,Woman,Right,
46,4,1,1.4829620999807958,['n'],1,right,['u'],1,0.5882041000004392,0.2,1,0,AccAcc,21,18,Woman,Right,
47,4,1,1.4335750000027474,['n'],1,right,['u'],1,0.6382586999970954,0.4,1,0,AccAcc,21,18,Woman,Right,
48,4,1,2.0674904999905266,['c'],0,right,['e'],0,0.5011329000117257,0.2,1,0,AccAcc,21,18,Woman,Right,
49,4,1,0.9836796000017785,['n'],1,right,['u'],1,0.44524299999466166,0.4,1,0,AccAcc,21,18,Woman,Right,
50,4,1,2.250695100025041,['c'],0,right,['e'],0,0.3718847999989521,0.2,1,0,AccAcc,21,18,Woman,Right,
51,4,1,1.567190900008427,['n'],1,right,['e'],0,0.4094164000125602,0.4,0,0,AccAcc,21,18,Woman,Right,
52,4,1,1.7174564999877475,['c'],1,left,['e'],0,0.7592936999863014,0.1,0,0,AccAcc,21,18,Woman,Right,
53,4,1,1.5846533000003546,['c'],1,left,['e'],0,0.892812900012359,0.4,0,0,AccAcc,21,18,Woman,Right,
54,4,1,1.5843953999865334,['c'],1,left,['e'],0,0.3168856999836862,0.2,0,0,AccAcc,21,18,Woman,Right,
55,4,1,1.9510943999921437,['c'],1,left,['e'],0,0.8210193000268191,0.4,0,0,AccAcc,21,18,Woman,Right,
56,4,1,2.267740400013281,['n'],1,right,['e'],0,0.3326146999897901,0.2,0,0,AccAcc,21,18,Woman,Right,
57,4,1,2.8501759999780916,['n'],0,left,['e'],0,0.6241946000081953,0.4,1,0,AccAcc,21,18,Woman,Right,
58,4,1,2.5338889000122435,['n'],1,right,['e'],0,0.42110939999110997,0.2,0,0,AccAcc,21,18,Woman,Right,
59,4,1,1.2842716999875847,['c'],1,left,['u'],1,0.5959441000013612,0.4,1,0,AccAcc,21,18,Woman,Right,
0,5,1,0.7998695000133011,['c'],1,left,['u'],1,4.069961200002581,0.4,1,0,FastAcc,21,18,Woman,Right,
1,5,1,0.4825921000156086,['n'],0,left,['e'],0,0.6124438999977428,0.2,1,0,FastAcc,21,18,Woman,Right,
2,5,1,0.35071030000108294,['c'],1,left,['u'],1,0.3999267000181135,0.4,1,0,FastAcc,21,18,Woman,Right,
3,5,1,0.6679208000132348,['n'],1,right,['u'],1,1.1272133000020403,0.4,1,0,FastAcc,21,18,Woman,Right,
4,5,1,0.5179194999800529,['c'],1,left,['u'],1,0.8406385999987833,0.2,1,0,FastAcc,21,18,Woman,Right,
5,5,1,1.0842343000113033,['c'],1,left,['u'],1,1.455073299992364,0.4,1,0,FastAcc,21,18,Woman,Right,
6,5,1,0.5677885999903083,['n'],1,right,['u'],1,1.2489897000195924,0.4,1,0,FastAcc,21,18,Woman,Right,
7,5,1,0.6174887999950442,['c'],0,right,['u'],1,1.0327682999777608,0.2,0,0,FastAcc,21,18,Woman,Right,
8,5,1,1.3174324000137858,['n'],1,right,['e'],0,1.5014763999788556,0.1,0,0,FastAcc,21,18,Woman,Right,
9,5,1,0.8327125000068918,['n'],1,right,['e'],0,0.5477795999904629,0.2,0,0,FastAcc,21,18,Woman,Right,
10,5,1,0.551461199996993,['c'],0,right,['e'],0,0.8583246000052895,0.4,1,0,FastAcc,21,18,Woman,Right,
11,5,1,0.8507660999894142,['c'],1,left,['e'],0,0.5204516999947373,0.1,0,0,FastAcc,21,18,Woman,Right,
12,5,1,1.0179953000042588,['n'],1,right,['e'],0,0.5094643000047654,0.1,0,0,FastAcc,21,18,Woman,Right,
13,5,1,0.8674679000105243,['n'],1,right,['e'],0,2.3775095000164583,0.4,0,0,FastAcc,21,18,Woman,Right,
14,5,1,0.934389200003352,['c'],1,left,['u'],1,0.7284634999814443,0.2,1,0,FastAcc,21,18,Woman,Right,
15,5,1,0.43508830000064336,['c'],1,left,['u'],1,0.7641298999951687,0.1,1,0,FastAcc,21,18,Woman,Right,
16,5,1,0.4336636000080034,['n'],0,left,['e'],0,0.8318317999946885,0.4,1,0,FastAcc,21,18,Woman,Right,
17,5,1,1.2006309000134934,['n'],1,right,['e'],0,0.44828419998520985,0.1,0,0,FastAcc,21,18,Woman,Right,
18,5,1,1.565980200015474,['n'],1,right,['e'],0,0.6264973999932408,0.2,0,0,FastAcc,21,18,Woman,Right,
19,5,1,0.6834643000038341,['c'],1,left,['u'],1,0.4330206000013277,0.2,1,0,FastAcc,21,18,Woman,Right,
20,5,1,0.634636499977205,['c'],1,left,['u'],1,0.40879169999971054,0.4,1,0,FastAcc,21,18,Woman,Right,
21,5,1,1.649489099974744,['c'],0,right,['e'],0,0.6828702999919187,0.1,1,0,FastAcc,21,18,Woman,Right,
22,5,1,0.6008108000096399,['c'],1,left,['u'],1,0.4727116000140086,0.1,1,0,FastAcc,21,18,Woman,Right,
23,5,1,0.7175414999946952,['n'],1,right,['u'],1,1.435910000000149,0.4,1,0,FastAcc,21,18,Woman,Right,
24,5,1,0.7681493999843951,['n'],1,right,['e'],0,0.40659189998405054,0.1,0,0,FastAcc,21,18,Woman,Right,
25,5,1,1.1014964999922086,['c'],1,left,['u'],1,1.0371693999913987,0.1,1,0,FastAcc,21,18,Woman,Right,
26,5,1,1.135533900000155,['n'],0,left,['e'],0,1.3216783000098076,0.1,1,0,FastAcc,21,18,Woman,Right,
27,5,1,0.6178311000112444,['c'],0,right,['e'],0,0.8949195999884978,0.2,1,0,FastAcc,21,18,Woman,Right,
28,5,1,0.7846785000001546,['n'],0,left,['e'],0,1.2788285000133328,0.1,1,0,FastAcc,21,18,Woman,Right,
29,5,1,0.517365499981679,['c'],0,right,['e'],0,1.0177646000229288,0.1,1,0,FastAcc,21,18,Woman,Right,
30,5,1,0.6176823999849148,['c'],0,right,['e'],0,1.2275635999976657,0.1,1,0,FastAcc,21,18,Woman,Right,
31,5,1,0.8010040000081062,['n'],1,right,['e'],0,0.6047458999964874,0.1,0,0,FastAcc,21,18,Woman,Right,
32,5,1,0.8510322999791242,['c'],1,left,['e'],0,0.5973511000047438,0.2,0,0,FastAcc,21,18,Woman,Right,
33,5,1,0.7340358000074048,['n'],1,right,['e'],0,0.7865112999861594,0.4,0,0,FastAcc,21,18,Woman,Right,
34,5,1,0.9157730999868363,['n'],1,right,['e'],0,0.7226879000081681,0.1,0,0,FastAcc,21,18,Woman,Right,
35,5,1,0.8676278000057209,['c'],1,left,['e'],0,0.6925936000188813,0.4,0,0,FastAcc,21,18,Woman,Right,
36,5,1,0.6840100000263192,['n'],1,right,['u'],1,0.4965301000047475,0.2,1,0,FastAcc,21,18,Woman,Right,
37,5,1,1.4989666000183206,['c'],1,left,['u'],1,1.1718246000236832,0.2,1,0,FastAcc,21,18,Woman,Right,
38,5,1,0.6509356000169646,['c'],0,right,['e'],0,1.0048611000238452,0.1,1,0,FastAcc,21,18,Woman,Right,
39,5,1,0.5347388999944087,['n'],0,left,['e'],0,0.8024407000048086,0.1,1,0,FastAcc,21,18,Woman,Right,
40,5,1,0.734491999988677,['n'],1,right,['e'],0,0.8560039000003599,0.2,0,0,FastAcc,21,18,Woman,Right,
41,5,1,1.816794399986975,['c'],0,right,['e'],0,0.6878838999837171,0.2,1,0,FastAcc,21,18,Woman,Right,
42,5,1,0.8520423000154551,['c'],1,left,['u'],1,0.3092043999931775,0.4,1,0,FastAcc,21,18,Woman,Right,
43,5,1,0.9344311000022572,['c'],1,left,['e'],0,0.6304462999978568,0.2,0,0,FastAcc,21,18,Woman,Right,
44,5,1,0.7342757000005804,['c'],1,left,['e'],0,0.9463235999864992,0.2,0,0,FastAcc,21,18,Woman,Right,
45,5,1,0.7175707000133116,['c'],1,left,['e'],0,1.154470899986336,0.4,0,0,FastAcc,21,18,Woman,Right,
46,5,1,0.9165645999892149,['c'],1,left,['e'],0,0.7225471000128891,0.4,0,0,FastAcc,21,18,Woman,Right,
47,5,1,0.5677324999996927,['c'],0,right,['e'],0,1.3458315999887418,0.2,1,0,FastAcc,21,18,Woman,Right,
48,5,1,0.6176481999864336,['c'],1,left,['e'],0,0.5337441999872681,0.2,0,0,FastAcc,21,18,Woman,Right,
49,5,1,1.6178318000165746,['c'],1,left,['e'],0,0.9306902999815065,0.4,0,0,FastAcc,21,18,Woman,Right,
50,5,1,1.0678681999852415,['n'],1,right,['u'],1,0.3731346999993548,0.4,1,0,FastAcc,21,18,Woman,Right,
51,5,1,0.6664699999964796,['n'],1,right,['e'],0,0.5428523999871686,0.4,0,0,FastAcc,21,18,Woman,Right,
52,5,1,0.7668436999956612,['c'],1,left,['u'],1,0.4777209000021685,0.1,1,0,FastAcc,21,18,Woman,Right,
53,5,1,1.3014909000194166,['n'],0,left,['e'],0,0.5049843000015244,0.1,1,0,FastAcc,21,18,Woman,Right,
54,5,1,0.6338591999956407,['c'],0,right,['u'],1,0.3983524000213947,0.4,0,0,FastAcc,21,18,Woman,Right,
55,5,1,0.851136499986751,['n'],1,right,['u'],1,1.7106190999911632,0.4,1,0,FastAcc,21,18,Woman,Right,
56,5,1,0.5854697999893688,['n'],1,right,['u'],1,1.526229900016915,0.2,1,0,FastAcc,21,18,Woman,Right,
57,5,1,0.6010933999787085,['c'],0,right,['u'],1,0.9963308000005782,0.2,0,0,FastAcc,21,18,Woman,Right,
58,5,1,0.7330892999889329,['c'],1,left,['u'],1,0.8343362000014167,0.1,1,0,FastAcc,21,18,Woman,Right,
59,5,1,0.5001175999932457,['c'],1,left,['u'],1,0.5590210999944247,0.2,1,0,FastAcc,21,18,Woman,Right,
0,6,1,0.7504017000028398,['n'],1,right,['u'],1,0.611815399985062,0.2,1,0,FastFast,21,18,Woman,Right,
1,6,1,0.6347663000051398,['c'],0,right,['u'],1,0.5321944000024814,0.2,0,0,FastFast,21,18,Woman,Right,
2,6,1,1.1179228000110015,['c'],1,left,['e'],0,0.48477290000300854,0.4,0,0,FastFast,21,18,Woman,Right,
3,6,1,1.1676704999990761,['n'],1,right,['e'],0,0.3252924999978859,0.2,0,0,FastFast,21,18,Woman,Right,
4,6,1,0.4498615000047721,['c'],1,left,['u'],1,0.44259750001947396,0.4,1,0,FastFast,21,18,Woman,Right,
5,6,1,0.6829457000130787,['c'],1,left,['u'],1,0.22312990002683364,0.2,1,0,FastFast,21,18,Woman,Right,
6,6,1,1.1508059999905527,['c'],1,left,['e'],0,0.20278170000528917,0.1,0,0,FastFast,21,18,Woman,Right,
7,6,1,0.8167870000179391,['c'],1,left,['u'],1,0.37281200001598336,0.4,1,0,FastFast,21,18,Woman,Right,
8,6,1,0.5847242000163533,['c'],1,left,['u'],1,0.1772724000038579,0.2,1,0,FastFast,21,18,Woman,Right,
9,6,1,1.0511355000198819,['n'],1,right,['e'],0,0.2432709000131581,0.1,0,0,FastFast,21,18,Woman,Right,
10,6,1,0.7342529000015929,['c'],1,left,['u'],1,0.20709809998515993,0.2,1,0,FastFast,21,18,Woman,Right,
11,6,1,1.0828116000047885,['n'],1,right,['e'],0,0.1434280000103172,0.1,0,0,FastFast,21,18,Woman,Right,
12,6,1,1.7673623000155203,['n'],1,right,['u'],1,0.9337485999858472,0.4,1,0,FastFast,21,18,Woman,Right,
13,6,1,2.000028899987228,['c'],0,right,['e'],0,0.4347446000028867,0.1,1,0,FastFast,21,18,Woman,Right,
14,6,1,1.1178973000205588,['c'],1,left,['u'],1,0.4873426000121981,0.1,1,0,FastFast,21,18,Woman,Right,
15,6,1,0.8181765000044834,['c'],1,left,['u'],1,0.10196090000681579,0.2,1,0,FastFast,21,18,Woman,Right,
16,6,1,0.8344467999995686,['c'],1,left,['u'],1,0.16287199998623691,0.4,1,0,FastFast,21,18,Woman,Right,
17,6,1,1.684072499978356,['n'],0,left,['e'],0,0.17199850000906736,0.4,1,0,FastFast,21,18,Woman,Right,
18,6,1,2.0843445000064094,['n'],0,left,['e'],0,0.5803620000078809,0.1,1,0,FastFast,21,18,Woman,Right,
19,6,1,0.7007254000054672,['n'],1,right,['e'],0,0.16388839998398907,0.1,0,0,FastFast,21,18,Woman,Right,
20,6,1,1.2174821000080556,['n'],1,right,['e'],0,0.20696959999622777,0.4,0,0,FastFast,21,18,Woman,Right,
21,6,1,1.067341599991778,['n'],1,right,['e'],0,0.17470559998764656,0.4,0,0,FastFast,21,18,Woman,Right,
22,6,1,0.9344898000126705,['c'],1,left,['u'],1,0.13357979999273084,0.4,1,0,FastFast,21,18,Woman,Right,
23,6,1,1.3675405000103638,['n'],0,left,['e'],0,0.268708699994022,0.4,1,0,FastFast,21,18,Woman,Right,
24,6,1,1.0678956999909133,['c'],1,left,['u'],1,0.18510959998820908,0.4,1,0,FastFast,21,18,Woman,Right,
25,6,1,1.7336881999799516,['c'],0,right,['e'],0,0.39924990001600236,0.2,1,0,FastFast,21,18,Woman,Right,
26,6,1,0.9351604000257794,['n'],1,right,['u'],1,0.2522793000098318,0.1,1,0,FastFast,21,18,Woman,Right,
27,6,1,0.9677855000190903,['c'],1,left,['e'],0,0.606224299990572,0.1,0,0,FastFast,21,18,Woman,Right,
28,6,1,1.517276700004004,['c'],1,left,['u'],1,0.14042690000496805,0.2,1,0,FastFast,21,18,Woman,Right,
29,6,1,1.3835149999940768,['n'],0,left,['e'],0,0.16229300000122748,0.1,1,0,FastFast,21,18,Woman,Right,
30,6,1,1.7672460000030696,['n'],0,left,['e'],0,0.2643845999846235,0.1,1,0,FastFast,21,18,Woman,Right,
31,6,1,1.5179997000086587,['c'],0,right,['e'],0,0.1792128000233788,0.4,1,0,FastFast,21,18,Woman,Right,
32,6,1,1.0332019999914337,['n'],1,right,['u'],1,0.2776280000107363,0.4,1,0,FastFast,21,18,Woman,Right,
33,6,1,1.0675961000088137,['c'],1,left,['u'],1,0.13023469998734072,0.2,1,0,FastFast,21,18,Woman,Right,
34,6,1,1.2003095999825746,['c'],1,left,['u'],1,0.14337170001817867,0.4,1,0,FastFast,21,18,Woman,Right,
35,6,1,1.7002961999969557,['c'],1,left,['u'],1,0.24922220001462847,0.1,1,0,FastFast,21,18,Woman,Right,
36,6,1,1.301338899997063,['c'],0,right,['u'],1,0.07735619999584742,0.1,0,0,FastFast,21,18,Woman,Right,
37,6,1,0.88449640001636,['c'],0,right,['u'],1,0.1698354999825824,0.2,0,0,FastFast,21,18,Woman,Right,
38,6,1,1.7501102999958675,['n'],0,left,['e'],0,0.09645510002155788,0.1,1,0,FastFast,21,18,Woman,Right,
39,6,1,1.784077399992384,['c'],1,left,['u'],1,0.26325770001858473,0.4,1,0,FastFast,21,18,Woman,Right,
40,6,1,1.1011266999994405,['n'],1,right,['e'],0,0.19506689999252558,0.4,0,0,FastFast,21,18,Woman,Right,
41,6,1,1.000767099991208,['c'],1,left,['u'],1,0.21463329999824055,0.4,1,0,FastFast,21,18,Woman,Right,
42,6,1,1.1991108999936841,['n'],0,left,['u'],1,0.1771143000223674,0.4,0,0,FastFast,21,18,Woman,Right,
43,6,1,0.9009228000068106,['n'],1,right,['u'],1,0.21560120000503957,0.2,1,0,FastFast,21,18,Woman,Right,
44,6,1,1.4167355000099633,['n'],0,left,['u'],1,0.1846404999960214,0.1,0,0,FastFast,21,18,Woman,Right,
45,6,1,1.2505401000089478,['n'],1,right,['e'],0,0.21005049999803305,0.2,0,0,FastFast,21,18,Woman,Right,
46,6,1,0.8015160000068136,['n'],1,right,['e'],0,0.17271390001405962,0.2,0,0,FastFast,21,18,Woman,Right,
47,6,1,1.2837713999906555,['c'],1,left,['u'],1,0.14913679999881424,0.4,1,0,FastFast,21,18,Woman,Right,
48,6,1,1.2822866000060458,['n'],1,right,['e'],0,0.17567769999732263,0.1,0,0,FastFast,21,18,Woman,Right,
49,6,1,1.152114900003653,['n'],1,right,['u'],1,0.18833430000813678,0.1,1,0,FastFast,21,18,Woman,Right,
50,6,1,1.0509515999874566,['n'],1,right,['e'],0,0.17358090000925586,0.4,0,0,FastFast,21,18,Woman,Right,
51,6,1,1.0503306000027806,['n'],1,right,['e'],0,0.1440528999955859,0.2,0,0,FastFast,21,18,Woman,Right,
52,6,1,1.0177682999928948,['n'],1,right,['e'],0,0.1332113999815192,0.1,0,0,FastFast,21,18,Woman,Right,
53,6,1,1.8010591999918688,['n'],1,right,['e'],0,0.4256392999959644,0.1,0,0,FastFast,21,18,Woman,Right,
54,6,1,2.184200999996392,['c'],0,right,['e'],0,0.18093529998441227,0.2,1,0,FastFast,21,18,Woman,Right,
55,6,1,1.567724000022281,['n'],1,right,['e'],0,0.3210920999990776,0.2,0,0,FastFast,21,18,Woman,Right,
56,6,1,1.6495973000128288,['c'],1,left,['u'],1,0.22968519999994896,0.2,1,0,FastFast,21,18,Woman,Right,
57,6,1,1.9158785000036005,['c'],0,right,['e'],0,0.1936697000055574,0.2,1,0,FastFast,21,18,Woman,Right,
58,6,1,2.416831300011836,['c'],1,left,['e'],0,0.18851109998649918,0.1,0,0,FastFast,21,18,Woman,Right,
59,6,1,1.699269299977459,['n'],1,right,['e'],0,0.164495100005297,0.2,0,0,FastFast,21,18,Woman,Right,
0,7,1,1.5011807999981102,['n'],1,right,['u'],1,1.3479666000057478,0.2,1,0,AccFast,21,18,Woman,Right,
1,7,1,1.215962699992815,['n'],1,right,['e'],0,0.19155790001968853,0.2,0,0,AccFast,21,18,Woman,Right,
2,7,1,0.8678446999983862,['c'],1,left,['u'],1,0.1841969999950379,0.4,1,0,AccFast,21,18,Woman,Right,
3,7,1,1.084415599994827,['n'],1,right,['u'],1,0.8720297000254504,0.1,1,0,AccFast,21,18,Woman,Right,
4,7,1,1.25111419998575,['n'],1,right,['u'],1,0.1340920999937225,0.4,1,0,AccFast,21,18,Woman,Right,
5,7,1,1.5341789999802131,['c'],0,right,['e'],0,0.182324499997776,0.1,1,0,AccFast,21,18,Woman,Right,
6,7,1,0.8164111000078265,['c'],1,left,['u'],1,0.2245274999877438,0.4,1,0,AccFast,21,18,Woman,Right,
7,7,1,1.6841203999938443,['n'],1,right,['u'],1,0.19944609998492524,0.4,1,0,AccFast,21,18,Woman,Right,
8,7,1,2.2678671999892686,['n'],0,left,['e'],0,0.15149759998894297,0.1,1,0,AccFast,21,18,Woman,Right,
9,7,1,2.3341249999939464,['c'],1,left,['u'],1,0.15123560000211,0.4,1,0,AccFast,21,18,Woman,Right,
10,7,1,1.0013297999976203,['n'],0,left,['e'],0,0.5553979999967851,0.1,1,0,AccFast,21,18,Woman,Right,
11,7,1,2.4840900000126567,['c'],1,left,['e'],0,0.18107990000862628,0.2,0,0,AccFast,21,18,Woman,Right,
12,7,1,1.6501070999947842,['n'],1,right,['e'],0,0.7033566999889445,0.1,0,0,AccFast,21,18,Woman,Right,
13,7,1,1.0846042999764904,['n'],1,right,['u'],1,0.15365940000629053,0.4,1,0,AccFast,21,18,Woman,Right,
14,7,1,1.1505968999990728,['c'],1,left,['u'],1,0.16837180001311935,0.4,1,0,AccFast,21,18,Woman,Right,
15,7,1,1.6174907000095118,['c'],1,left,['e'],0,0.13160470000002533,0.4,0,0,AccFast,21,18,Woman,Right,
16,7,1,2.6507709000143223,['n'],0,left,['e'],0,0.4712413999950513,0.2,1,0,AccFast,21,18,Woman,Right,
17,7,1,1.0175402000022586,['n'],1,right,['e'],0,0.0785289999912493,0.4,0,0,AccFast,21,18,Woman,Right,
18,7,1,2.6489502000040375,['n'],0,left,['e'],0,0.13305060000857338,0.1,1,0,AccFast,21,18,Woman,Right,
19,7,1,1.4997732999909203,['n'],1,right,['e'],0,0.1653707000077702,0.2,0,0,AccFast,21,18,Woman,Right,
20,7,1,1.1178387999825645,['n'],1,right,['e'],0,0.21264009998412803,0.4,0,0,AccFast,21,18,Woman,Right,
21,7,1,1.3340136999904644,['c'],1,left,['e'],0,0.24945659999502823,0.2,0,0,AccFast,21,18,Woman,Right,
22,7,1,1.1006289000215475,['c'],1,left,['e'],0,0.26260740001453087,0.2,0,0,AccFast,21,18,Woman,Right,
23,7,1,0.8507064000004902,['c'],1,left,['e'],0,0.29965199998696335,0.4,0,0,AccFast,21,18,Woman,Right,
24,7,1,1.7178423999866936,['n'],1,right,['e'],0,0.20574959999066778,0.1,0,0,AccFast,21,18,Woman,Right,
25,7,1,1.2846679000067525,['c'],0,right,['u'],1,0.16523600000073202,0.1,0,0,AccFast,21,18,Woman,Right,
26,7,1,0.9012055000057444,['c'],1,left,['u'],1,0.1728700999810826,0.4,1,0,AccFast,21,18,Woman,Right,
27,7,1,1.217410999990534,['c'],1,left,['u'],1,0.26426029999856837,0.1,1,0,AccFast,21,18,Woman,Right,
28,7,1,0.9676135999907274,['c'],1,left,['u'],1,0.17001649999292567,0.4,1,0,AccFast,21,18,Woman,Right,
29,7,1,1.4347087999922223,['c'],1,left,['u'],1,0.23591319998377003,0.2,1,0,AccFast,21,18,Woman,Right,
30,7,1,0.91732450001291,['c'],1,left,['u'],1,0.17666250001639128,0.4,1,0,AccFast,21,18,Woman,Right,
31,7,1,2.033910800004378,['n'],1,right,['e'],0,0.171654599980684,0.2,0,0,AccFast,21,18,Woman,Right,
32,7,1,1.3670693000021856,['c'],0,right,['e'],0,0.2726013000064995,0.2,1,0,AccFast,21,18,Woman,Right,
33,7,1,2.0842475999961607,['c'],0,right,['u'],1,0.11730220000026748,0.2,0,0,AccFast,21,18,Woman,Right,
34,7,1,1.5346580000186805,['c'],0,right,['u'],1,0.16619230000651442,0.2,0,0,AccFast,21,18,Woman,Right,
35,7,1,0.9675801999983378,['c'],1,left,['u'],1,0.2190608999808319,0.4,1,0,AccFast,21,18,Woman,Right,
36,7,1,1.1992613000038546,['c'],1,left,['u'],1,0.21451069999602623,0.4,1,0,AccFast,21,18,Woman,Right,
37,7,1,1.2510257000103593,['c'],0,right,['u'],1,0.17356769999605604,0.1,0,0,AccFast,21,18,Woman,Right,
38,7,1,1.0008591999940109,['c'],0,right,['u'],1,0.14575719999265857,0.2,0,0,AccFast,21,18,Woman,Right,
39,7,1,1.8342865000013262,['c'],0,right,['u'],1,0.1325053000182379,0.1,0,0,AccFast,21,18,Woman,Right,
40,7,1,1.134504499990726,['c'],0,right,['u'],1,0.13262799999210984,0.4,0,0,AccFast,21,18,Woman,Right,
41,7,1,1.2846470000222325,['c'],1,left,['u'],1,0.19018350000260398,0.2,1,0,AccFast,21,18,Woman,Right,
42,7,1,2.334419999999227,['c'],0,right,['e'],0,0.15619380000862293,0.2,1,0,AccFast,21,18,Woman,Right,
43,7,1,1.900265899981605,['c'],0,right,['e'],0,0.18909749999875203,0.1,1,0,AccFast,21,18,Woman,Right,
44,7,1,3.449797600012971,['n'],1,right,['e'],0,0.12665560000459664,0.1,0,0,AccFast,21,18,Woman,Right,
45,7,1,1.851163200015435,['n'],0,left,['e'],0,0.19483299998682924,0.2,1,0,AccFast,21,18,Woman,Right,
46,7,1,2.86784289998468,['c'],1,left,['u'],1,0.13984309998340905,0.2,1,0,AccFast,21,18,Woman,Right,
47,7,1,1.1013724000076763,['c'],0,right,['e'],0,0.22101790001033805,0.4,1,0,AccFast,21,18,Woman,Right,
48,7,1,2.951898200000869,['n'],0,left,['e'],0,0.2412581999960821,0.1,1,0,AccFast,21,18,Woman,Right,
49,7,1,3.1173016999964602,['c'],1,left,['e'],0,0.22221529998932965,0.2,0,0,AccFast,21,18,Woman,Right,
50,7,1,4.950345000019297,['c'],1,left,['e'],0,0.38704660002258606,0.1,0,0,AccFast,21,18,Woman,Right,
51,7,1,1.2176440999901388,['n'],0,left,['e'],0,0.11843790000420995,0.1,1,0,AccFast,21,18,Woman,Right,
52,7,1,2.4176584999950137,['c'],1,left,['e'],0,0.17904970000381581,0.1,0,0,AccFast,21,18,Woman,Right,
53,7,1,0.8345658000034746,['n'],1,right,['e'],0,0.1409863000153564,0.4,0,0,AccFast,21,18,Woman,Right,
54,7,1,0.9176347000175156,['c'],1,left,['u'],1,0.27830140001606196,0.1,1,0,AccFast,21,18,Woman,Right,
55,7,1,1.500977799994871,['n'],1,right,['u'],1,0.43355240000528283,0.4,1,0,AccFast,21,18,Woman,Right,
56,7,1,2.617140800022753,['c'],0,right,['e'],0,0.2342425000097137,0.1,1,0,AccFast,21,18,Woman,Right,
57,7,1,0.7676597000099719,['n'],1,right,['e'],0,0.16483530000550672,0.2,0,0,AccFast,21,18,Woman,Right,
58,7,1,1.150382299994817,['n'],1,right,['u'],1,0.1786588999966625,0.1,1,0,AccFast,21,18,Woman,Right,
59,7,1,1.118009700003313,['c'],1,left,['e'],0,0.1773723000078462,0.2,0,0,AccFast,21,18,Woman,Right,
0,8,1,2.500566100003198,['n'],0,left,['e'],0,1.6859180000028573,0.1,1,0,AccAcc,21,18,Woman,Right,
1,8,1,1.3168366000172682,['n'],1,right,['e'],0,1.2329436999862082,0.4,0,0,AccAcc,21,18,Woman,Right,
2,8,1,1.8175315999833401,['c'],1,left,['e'],0,0.5536634000018239,0.1,0,0,AccAcc,21,18,Woman,Right,
3,8,1,1.684227199992165,['n'],0,left,['e'],0,0.3392573999881279,0.1,1,0,AccAcc,21,18,Woman,Right,
4,8,1,1.284366100007901,['c'],1,left,['u'],1,0.7730376000108663,0.4,1,0,AccAcc,21,18,Woman,Right,
5,8,1,1.4837217000022065,['n'],0,left,['u'],1,0.5904421000159346,0.2,0,0,AccAcc,21,18,Woman,Right,
6,8,1,1.351021500013303,['c'],1,left,['e'],0,0.6911597999860533,0.1,0,0,AccAcc,21,18,Woman,Right,
7,8,1,1.8834869000129402,['n'],1,right,['u'],1,1.9833800999913365,0.4,1,0,AccAcc,21,18,Woman,Right,
8,8,1,2.083490699995309,['c'],0,right,['e'],0,0.5758014000020921,0.2,1,0,AccAcc,21,18,Woman,Right,
9,8,1,1.134323600010248,['n'],1,right,['u'],1,0.7833193999831565,0.4,1,0,AccAcc,21,18,Woman,Right,
10,8,1,1.9175648000091314,['c'],0,right,['e'],0,2.0694185000029393,0.4,1,0,AccAcc,21,18,Woman,Right,
11,8,1,0.9665850000164937,['c'],1,left,['u'],1,0.23952940001618117,0.2,1,0,AccAcc,21,18,Woman,Right,
12,8,1,1.4508996999938972,['c'],1,left,['u'],1,0.9586813999922015,0.4,1,0,AccAcc,21,18,Woman,Right,
13,8,1,2.450704799994128,['c'],0,right,['e'],0,0.4091770999948494,0.1,1,0,AccAcc,21,18,Woman,Right,
14,8,1,1.2991288999910466,['n'],1,right,['u'],1,1.0812840000144206,0.4,1,0,AccAcc,21,18,Woman,Right,
15,8,1,3.5328270999889355,['c'],0,right,['e'],0,0.49928170000202954,0.2,1,0,AccAcc,21,18,Woman,Right,
16,8,1,0.9833249000075739,['n'],1,right,['e'],0,1.7697565999988,0.1,0,0,AccAcc,21,18,Woman,Right,
17,8,1,1.4501405000046361,['n'],0,left,['e'],0,0.6041989999939688,0.2,1,0,AccAcc,21,18,Woman,Right,
18,8,1,0.8173624000046402,['n'],1,right,['u'],1,0.39009030000306666,0.4,1,0,AccAcc,21,18,Woman,Right,
19,8,1,1.0668617000046652,['n'],1,right,['u'],1,0.7669781999720726,0.1,1,0,AccAcc,21,18,Woman,Right,
20,8,1,2.8006266999873333,['c'],0,right,['e'],0,0.5789854000031482,0.1,1,0,AccAcc,21,18,Woman,Right,
21,8,1,1.2001794000098016,['c'],1,left,['e'],0,0.20634689999860711,0.1,0,0,AccAcc,21,18,Woman,Right,
22,8,1,0.9843360999948345,['n'],1,right,['u'],1,1.0253569000051357,0.4,1,0,AccAcc,21,18,Woman,Right,
23,8,1,4.283040100010112,['c'],0,right,['e'],0,1.840909599995939,0.4,1,0,AccAcc,21,18,Woman,Right,
24,8,1,1.1004855999781284,['n'],0,left,['e'],0,1.0065197999938391,0.2,1,0,AccAcc,21,18,Woman,Right,
25,8,1,1.384072200016817,['n'],1,right,['e'],0,1.0900668999820482,0.1,0,0,AccAcc,21,18,Woman,Right,
26,8,1,0.9342451999837067,['n'],1,right,['e'],0,1.7160060000023805,0.2,0,0,AccAcc,21,18,Woman,Right,
27,8,1,1.09976069998811,['n'],1,right,['e'],0,1.3988751000142656,0.4,0,0,AccAcc,21,18,Woman,Right,
28,8,1,1.0679304999939632,['c'],1,left,['u'],1,2.0551988999941386,0.2,1,0,AccAcc,21,18,Woman,Right,
29,8,1,0.7675228999869432,['c'],1,left,['u'],1,0.9687134999840055,0.1,1,0,AccAcc,21,18,Woman,Right,
30,8,1,0.9513242999964859,['n'],1,right,['u'],1,1.086919699999271,0.4,1,0,AccAcc,21,18,Woman,Right,
31,8,1,0.7172546999936458,['n'],1,right,['u'],1,0.4736731000011787,0.4,1,0,AccAcc,21,18,Woman,Right,
32,8,1,1.6011075999995228,['c'],0,right,['u'],1,0.5053457999892998,0.1,0,0,AccAcc,21,18,Woman,Right,
33,8,1,0.8176015999924857,['n'],1,right,['u'],1,0.27918689997750334,0.2,1,0,AccAcc,21,18,Woman,Right,
34,8,1,0.7178831000055652,['n'],1,right,['u'],1,0.4337216000130866,0.4,1,0,AccAcc,21,18,Woman,Right,
35,8,1,2.2665048000053503,['c'],0,right,['e'],0,1.5448041000054218,0.4,1,0,AccAcc,21,18,Woman,Right,
36,8,1,0.9340993000078015,['c'],1,left,['u'],1,1.8001936000073329,0.2,1,0,AccAcc,21,18,Woman,Right,
37,8,1,0.8670446000178345,['c'],1,left,['u'],1,0.4323740999971051,0.2,1,0,AccAcc,21,18,Woman,Right,
38,8,1,0.8006815999979153,['c'],1,left,['u'],1,0.8014065000170376,0.4,1,0,AccAcc,21,18,Woman,Right,
39,8,1,0.6834711999981664,['c'],1,left,['u'],1,0.6650540999835357,0.1,1,0,AccAcc,21,18,Woman,Right,
40,8,1,0.6355711999931373,['c'],1,left,['u'],1,0.47156070001074113,0.2,1,0,AccAcc,21,18,Woman,Right,
41,8,1,1.1667010999808554,['c'],1,left,['u'],1,0.9532463999930769,0.1,1,0,AccAcc,21,18,Woman,Right,
42,8,1,0.7674398999952246,['c'],1,left,['u'],1,0.7109371999977157,0.2,1,0,AccAcc,21,18,Woman,Right,
43,8,1,1.3176295000012033,['n'],1,right,['u'],1,0.9527468999731354,0.4,1,0,AccAcc,21,18,Woman,Right,
44,8,1,0.7671985999913886,['c'],1,left,['u'],1,0.47217770002316684,0.1,1,0,AccAcc,21,18,Woman,Right,
45,8,1,0.8179343999945559,['c'],1,left,['u'],1,1.9580217000038829,0.4,1,0,AccAcc,21,18,Woman,Right,
46,8,1,1.0000631000148132,['c'],0,right,['e'],0,1.3148369999835268,0.1,1,0,AccAcc,21,18,Woman,Right,
47,8,1,0.8668672000057995,['c'],1,left,['e'],0,0.8623004000110086,0.1,0,0,AccAcc,21,18,Woman,Right,
48,8,1,1.467351500003133,['c'],1,left,['e'],0,1.1238443000183906,0.1,0,0,AccAcc,21,18,Woman,Right,
49,8,1,1.817354799975874,['n'],1,right,['e'],0,0.8172704999742564,0.2,0,0,AccAcc,21,18,Woman,Right,
50,8,1,1.0681953000021167,['c'],1,left,['e'],0,1.0968276000057813,0.2,0,0,AccAcc,21,18,Woman,Right,
51,8,1,1.1675427999871317,['c'],0,right,['e'],0,0.7047486000228673,0.1,1,0,AccAcc,21,18,Woman,Right,
52,8,1,0.9509290999849327,['c'],1,left,['e'],0,0.30564310000045225,0.2,0,0,AccAcc,21,18,Woman,Right,
53,8,1,1.201016000006348,['n'],0,left,['e'],0,0.2481631999835372,0.2,1,0,AccAcc,21,18,Woman,Right,
54,8,1,0.6487375999859069,['c'],1,left,['u'],1,0.31183389999205247,0.4,1,0,AccAcc,21,18,Woman,Right,
55,8,1,2.118331900011981,['n'],1,right,['e'],0,0.632896900002379,0.1,0,0,AccAcc,21,18,Woman,Right,
56,8,1,2.2508046999864746,['c'],0,right,['e'],0,1.3842239999794401,0.4,1,0,AccAcc,21,18,Woman,Right,
57,8,1,1.5332659999839962,['c'],0,right,['e'],0,1.126510000001872,0.2,1,0,AccAcc,21,18,Woman,Right,
58,8,1,0.9343995999952313,['c'],1,left,['u'],1,0.32717289999709465,0.2,1,0,AccAcc,21,18,Woman,Right,
59,8,1,1.634437100001378,['n'],0,left,['e'],0,0.891854899993632,0.2,1,0,AccAcc,21,18,Woman,Right,
0,9,1,0.6509771000128239,['c'],1,left,['u'],1,1.850227699993411,0.2,1,0,FastAcc,21,18,Woman,Right,
1,9,1,0.33445189998019487,['n'],1,right,['u'],1,1.6377925999986473,0.2,1,0,FastAcc,21,18,Woman,Right,
2,9,1,0.3676743000105489,['c'],0,right,['e'],0,1.0483273999998346,0.4,1,0,FastAcc,21,18,Woman,Right,
3,9,1,0.9340641000017058,['c'],0,right,['e'],0,0.7636421999777667,0.1,1,0,FastAcc,21,18,Woman,Right,
4,9,1,0.3828203000011854,['n'],0,left,['e'],0,1.6969805000117049,0.2,1,0,FastAcc,21,18,Woman,Right,
5,9,1,0.6342280000098981,['n'],1,right,['u'],1,1.9097409999812953,0.4,1,0,FastAcc,21,18,Woman,Right,
6,9,1,0.6676622000231873,['c'],1,left,['u'],1,0.7378927000099793,0.1,1,0,FastAcc,21,18,Woman,Right,
7,9,1,0.5510295999993104,['c'],1,left,['u'],1,1.792929200018989,0.2,1,0,FastAcc,21,18,Woman,Right,
8,9,1,0.35103069999604486,['n'],1,right,['e'],0,2.846589099994162,0.1,0,0,FastAcc,21,18,Woman,Right,
9,9,1,0.5169991999864578,['c'],1,left,['e'],0,0.8912149000097997,0.1,0,0,FastAcc,21,18,Woman,Right,
10,9,1,0.4514336000138428,['n'],1,right,['e'],0,1.3518944999959785,0.2,0,0,FastAcc,21,18,Woman,Right,
11,9,1,0.5168068000057247,['c'],0,right,['e'],0,0.9921050000120886,0.4,1,0,FastAcc,21,18,Woman,Right,
12,9,1,0.9334242999902926,['n'],1,right,['e'],0,0.902310600009514,0.1,0,0,FastAcc,21,18,Woman,Right,
13,9,1,0.5170367000100669,['c'],1,left,['e'],0,0.7198251999798231,0.2,0,0,FastAcc,21,18,Woman,Right,
14,9,1,1.0000462000025436,['c'],0,right,['e'],0,0.9108931999944616,0.1,1,0,FastAcc,21,18,Woman,Right,
15,9,1,0.5515044999774545,['n'],0,left,['e'],0,0.6467230999842286,0.1,1,0,FastAcc,21,18,Woman,Right,
16,9,1,0.7179403000045568,['c'],0,right,['e'],0,0.5784443000156898,0.2,1,0,FastAcc,21,18,Woman,Right,
17,9,1,0.8349903000053018,['n'],1,right,['e'],0,0.49261590000241995,0.4,0,0,FastAcc,21,18,Woman,Right,
18,9,1,1.0345214999979362,['n'],1,right,['e'],0,0.43432480000774376,0.4,0,0,FastAcc,21,18,Woman,Right,
19,9,1,0.8341684999759309,['c'],1,left,['u'],1,0.5942632000078447,0.4,1,0,FastAcc,21,18,Woman,Right,
20,9,1,1.1011120999755803,['n'],1,right,['u'],1,0.33783810000750236,0.4,1,0,FastAcc,21,18,Woman,Right,
21,9,1,0.7179027999809477,['c'],1,left,['u'],1,1.354085999977542,0.4,1,0,FastAcc,21,18,Woman,Right,
22,9,1,0.5509867999935523,['c'],1,left,['u'],1,1.280973900022218,0.4,1,0,FastAcc,21,18,Woman,Right,
23,9,1,0.500372199981939,['c'],1,left,['u'],1,1.8684005999821238,0.2,1,0,FastAcc,21,18,Woman,Right,
24,9,1,0.533694599987939,['c'],0,right,['u'],1,1.5033587999932934,0.1,0,0,FastAcc,21,18,Woman,Right,
25,9,1,0.6842609000159428,['n'],1,right,['u'],1,2.2828523000061978,0.2,1,0,FastAcc,21,18,Woman,Right,
26,9,1,0.7176404999918304,['c'],1,left,['u'],1,1.4133579000190366,0.2,1,0,FastAcc,21,18,Woman,Right,
27,9,1,0.7508871000027284,['n'],1,right,['e'],0,1.1534031999763101,0.1,0,0,FastAcc,21,18,Woman,Right,
28,9,1,1.2673952000041027,['c'],1,left,['e'],0,2.259584999992512,0.4,0,0,FastAcc,21,18,Woman,Right,
29,9,1,1.5499908000056166,['n'],0,left,['e'],0,0.44682909999391995,0.1,1,0,FastAcc,21,18,Woman,Right,
30,9,1,0.6846954000066034,['n'],1,right,['e'],0,0.5317549000028521,0.1,0,0,FastAcc,21,18,Woman,Right,
31,9,1,1.8511783000139985,['n'],1,right,['e'],0,0.9671809000137728,0.1,0,0,FastAcc,21,18,Woman,Right,
32,9,1,0.6841274999896996,['n'],1,right,['u'],1,0.8561056000180542,0.4,1,0,FastAcc,21,18,Woman,Right,
33,9,1,0.6678374000184704,['c'],1,left,['u'],1,0.47785840000142343,0.1,1,0,FastAcc,21,18,Woman,Right,
34,9,1,0.5178139999916311,['n'],1,right,['u'],1,0.5530263000109699,0.4,1,0,FastAcc,21,18,Woman,Right,
35,9,1,0.46785169999930076,['c'],0,right,['e'],0,0.5788813999970444,0.1,1,0,FastAcc,21,18,Woman,Right,
36,9,1,0.5510494000045583,['c'],1,left,['u'],1,0.9520184999855701,0.4,1,0,FastAcc,21,18,Woman,Right,
37,9,1,0.36765770000056364,['c'],1,left,['e'],0,1.8939007000008132,0.4,0,0,FastAcc,21,18,Woman,Right,
38,9,1,0.617012300004717,['c'],1,left,['u'],1,1.1729822999914177,0.4,1,0,FastAcc,21,18,Woman,Right,
39,9,1,0.5177771000016946,['c'],0,right,['u'],1,0.8681845999963116,0.2,0,0,FastAcc,21,18,Woman,Right,
40,9,1,0.7177433000179008,['n'],1,right,['u'],1,0.7595787000027485,0.2,1,0,FastAcc,21,18,Woman,Right,
41,9,1,0.5678519000066444,['c'],1,left,['u'],1,2.5172878000012133,0.1,1,0,FastAcc,21,18,Woman,Right,
42,9,1,0.516633700026432,['c'],1,left,['u'],1,1.4716878999897745,0.2,1,0,FastAcc,21,18,Woman,Right,
43,9,1,0.5831319999997504,['c'],1,left,['u'],1,1.8404496000148356,0.4,1,0,FastAcc,21,18,Woman,Right,
44,9,1,0.6333294000069145,['c'],1,left,['e'],0,2.0639991000061855,0.2,0,0,FastAcc,21,18,Woman,Right,
45,9,1,1.3340472999843769,['c'],1,left,['u'],1,0.9870910000172444,0.4,1,0,FastAcc,21,18,Woman,Right,
46,9,1,0.7340338999929372,['c'],1,left,['e'],0,2.1048549999832176,0.2,0,0,FastAcc,21,18,Woman,Right,
47,9,1,0.5347607000148855,['c'],1,left,['e'],0,1.5064494999824092,0.1,0,0,FastAcc,21,18,Woman,Right,
48,9,1,0.36754549999022856,['c'],0,right,['e'],0,1.11489139997866,0.2,1,0,FastAcc,21,18,Woman,Right,
49,9,1,0.4674425999983214,['c'],1,left,['e'],0,1.8856996000104118,0.2,0,0,FastAcc,21,18,Woman,Right,
50,9,1,0.5841610000061337,['c'],1,left,['u'],1,1.34183540000231,0.4,1,0,FastAcc,21,18,Woman,Right,
51,9,1,0.7830745999817736,['n'],0,left,['e'],0,0.8765314999909606,0.2,1,0,FastAcc,21,18,Woman,Right,
52,9,1,0.7005833000002895,['n'],1,right,['e'],0,2.3359267999767326,0.1,0,0,FastAcc,21,18,Woman,Right,
53,9,1,0.41767259998596273,['c'],1,left,['u'],1,1.7014772999973502,0.2,1,0,FastAcc,21,18,Woman,Right,
54,9,1,0.5336147999914829,['c'],0,right,['u'],1,2.270104299997911,0.1,0,0,FastAcc,21,18,Woman,Right,
55,9,1,0.5178143999946769,['c'],0,right,['e'],0,0.7859446000074968,0.4,1,0,FastAcc,21,18,Woman,Right,
56,9,1,0.7175527000217699,['n'],1,right,['e'],0,1.0163910000119358,0.4,0,0,FastAcc,21,18,Woman,Right,
57,9,1,0.5679140999855008,['c'],0,right,['e'],0,1.8518768000067212,0.2,1,0,FastAcc,21,18,Woman,Right,
58,9,1,0.8343585000257008,['c'],1,left,['e'],0,1.091213500010781,0.1,0,0,FastAcc,21,18,Woman,Right,
59,9,1,0.9841534000006504,['c'],0,right,['e'],0,0.7551482999988366,0.1,1,0,FastAcc,21,18,Woman,Right,
0,10,1,1.1342401999863796,['c'],1,left,['e'],0,0.9556427000206895,0.1,0,0,FastFast,21,18,Woman,Right,
1,10,1,0.7841538999928162,['c'],1,left,['u'],1,0.24962290000985377,0.2,1,0,FastFast,21,18,Woman,Right,
2,10,1,0.8167907999886665,['c'],1,left,['u'],1,0.08105090001481585,0.1,1,0,FastFast,21,18,Woman,Right,
3,10,1,0.934443200007081,['c'],1,left,['u'],1,0.09058350001578219,0.1,1,0,FastFast,21,18,Woman,Right,
4,10,1,1.649988699995447,['n'],1,right,['u'],1,0.16815569999744184,0.4,1,0,FastFast,21,18,Woman,Right,
5,10,1,1.0845191999978852,['c'],0,right,['e'],0,0.29656889999751,0.1,1,0,FastFast,21,18,Woman,Right,
6,10,1,1.0341340999875683,['c'],1,left,['e'],0,0.2778757000050973,0.2,0,0,FastFast,21,18,Woman,Right,
7,10,1,1.4669894999824464,['n'],1,right,['e'],0,0.2590158999955747,0.4,0,0,FastFast,21,18,Woman,Right,
8,10,1,0.9997387999901548,['c'],1,left,['e'],0,0.19668900000397116,0.1,0,0,FastFast,21,18,Woman,Right,
9,10,1,0.7015070999914315,['n'],1,right,['e'],0,0.21007939998526126,0.4,0,0,FastFast,21,18,Woman,Right,
10,10,1,1.1172679000010248,['c'],1,left,['u'],1,0.08008600000175647,0.2,1,0,FastFast,21,18,Woman,Right,
11,10,1,1.300886899989564,['n'],1,right,['e'],0,0.10759589998633601,0.2,0,0,FastFast,21,18,Woman,Right,
12,10,1,0.9166459999978542,['n'],1,right,['u'],1,0.0862922000233084,0.4,1,0,FastFast,21,18,Woman,Right,
13,10,1,2.0508078999991994,['n'],1,right,['u'],1,0.1304486999870278,0.2,1,0,FastFast,21,18,Woman,Right,
14,10,1,0.8338214000104927,['c'],1,left,['u'],1,0.04649899998912588,0.2,1,0,FastFast,21,18,Woman,Right,
15,10,1,1.1011864999891259,['c'],0,right,['u'],1,0.01930399998673238,0.1,0,0,FastFast,21,18,Woman,Right,
16,10,1,1.1995239999960177,['c'],1,left,['u'],1,0.11853789997985587,0.2,1,0,FastFast,21,18,Woman,Right,
17,10,1,1.3002558999869507,['n'],0,left,['e'],0,0.07892570001422428,0.2,1,0,FastFast,21,18,Woman,Right,
18,10,1,1.3510410000162665,['c'],1,left,['e'],0,0.1839334999967832,0.2,0,0,FastFast,21,18,Woman,Right,
19,10,1,0.9995787999941967,['c'],0,right,['e'],0,0.3967813999915961,0.4,1,0,FastFast,21,18,Woman,Right,
20,10,1,1.5334356999956071,['c'],0,right,['e'],0,0.4487348000111524,0.1,1,0,FastFast,21,18,Woman,Right,
21,10,1,1.2009810999734327,['n'],1,right,['u'],1,0.1452360000112094,0.2,1,0,FastFast,21,18,Woman,Right,
22,10,1,0.8514384999871254,['n'],1,right,['u'],1,0.5558239000092726,0.4,1,0,FastFast,21,18,Woman,Right,
23,10,1,0.9346969000180252,['c'],0,right,['u'],1,0.11547640000935644,0.1,0,0,FastFast,21,18,Woman,Right,
24,10,1,1.0009811999916565,['c'],1,left,['u'],1,0.47306730001582764,0.2,1,0,FastFast,21,18,Woman,Right,
25,10,1,0.8842429000069387,['n'],1,right,['u'],1,0.19756590001634322,0.4,1,0,FastFast,21,18,Woman,Right,
26,10,1,0.9497703999804799,['c'],1,left,['u'],1,0.42619379999814555,0.2,1,0,FastFast,21,18,Woman,Right,
27,10,1,1.1169058000086807,['n'],0,left,['e'],0,0.23932950000744313,0.2,1,0,FastFast,21,18,Woman,Right,
28,10,1,0.9178825999842957,['n'],1,right,['e'],0,0.2118997999932617,0.4,0,0,FastFast,21,18,Woman,Right,
29,10,1,0.8497796000156086,['n'],0,left,['e'],0,0.15672800000174902,0.1,1,0,FastFast,21,18,Woman,Right,
30,10,1,0.7511024000123143,['n'],1,right,['e'],0,0.15435629998682998,0.4,0,0,FastFast,21,18,Woman,Right,
31,10,1,1.7006081999861635,['c'],0,right,['e'],0,1.2510489000123926,0.1,1,0,FastFast,21,18,Woman,Right,
32,10,1,0.9343507000012323,['c'],1,left,['u'],1,0.06240570000954904,0.2,1,0,FastFast,21,18,Woman,Right,
33,10,1,1.2662756999779958,['n'],1,right,['u'],1,0.07575910000014119,0.4,1,0,FastFast,21,18,Woman,Right,
34,10,1,0.7666366999910679,['n'],1,right,['u'],1,0.0934856999956537,0.4,1,0,FastFast,21,18,Woman,Right,
35,10,1,1.2677402000117581,['c'],1,left,['e'],0,0.16934550000587478,0.1,0,0,FastFast,21,18,Woman,Right,
36,10,1,0.9834303000243381,['n'],1,right,['u'],1,0.12584029999561608,0.1,1,0,FastFast,21,18,Woman,Right,
37,10,1,1.3185495000216179,['c'],1,left,['e'],0,0.18305449999752454,0.2,0,0,FastFast,21,18,Woman,Right,
38,10,1,1.2009516999823973,['n'],0,left,['u'],1,0.3224495000031311,0.4,0,0,FastFast,21,18,Woman,Right,
39,10,1,1.3845480000018142,['n'],1,right,['e'],0,0.06509119999827817,0.4,0,0,FastFast,21,18,Woman,Right,
40,10,1,1.800851700012572,['c'],1,left,['e'],0,0.08909389999462292,0.4,0,0,FastFast,21,18,Woman,Right,
41,10,1,0.717625199991744,['c'],1,left,['e'],0,0.1554904000076931,0.4,0,0,FastFast,21,18,Woman,Right,
42,10,1,1.0169620999949984,['c'],1,left,['e'],0,0.09544410000671633,0.2,0,0,FastFast,21,18,Woman,Right,
43,10,1,2.067394899990177,['c'],1,left,['e'],0,0.20316959999036044,0.1,0,0,FastFast,21,18,Woman,Right,
44,10,1,0.767685500002699,['n'],1,right,['e'],0,0.1992945999954827,0.4,0,0,FastFast,21,18,Woman,Right,
45,10,1,0.8012538999901153,['n'],1,right,['e'],0,0.6741211000189651,0.4,0,0,FastFast,21,18,Woman,Right,
46,10,1,1.2011896000185516,['c'],1,left,['e'],0,0.2018400999950245,0.1,0,0,FastFast,21,18,Woman,Right,
47,10,1,1.418052799999714,['n'],1,right,['e'],0,0.2999788000015542,0.4,0,0,FastFast,21,18,Woman,Right,
48,10,1,0.8015277000085916,['n'],1,right,['u'],1,0.19438740002806298,0.2,1,0,FastFast,21,18,Woman,Right,
49,10,1,0.7175048000062816,['n'],1,right,['e'],0,0.4009057999937795,0.1,0,0,FastFast,21,18,Woman,Right,
50,10,1,0.767971099994611,['n'],0,left,['e'],0,0.18068839999614283,0.1,1,0,FastFast,21,18,Woman,Right,
51,10,1,0.9165075999917462,['n'],0,left,['e'],0,0.17182529999990948,0.1,1,0,FastFast,21,18,Woman,Right,
52,10,1,1.3837721000018064,['c'],1,left,['u'],1,0.11239389999536797,0.4,1,0,FastFast,21,18,Woman,Right,
53,10,1,0.7333816000027582,['c'],0,right,['e'],0,0.22453509998740628,0.4,1,0,FastFast,21,18,Woman,Right,
54,10,1,1.1833103999961168,['c'],1,left,['e'],0,0.37985179998213425,0.2,0,0,FastFast,21,18,Woman,Right,
55,10,1,0.9341936999990139,['n'],0,left,['e'],0,0.3607999999949243,0.1,1,0,FastFast,21,18,Woman,Right,
56,10,1,0.9998881999927107,['n'],0,left,['e'],0,0.3253351000021212,0.1,1,0,FastFast,21,18,Woman,Right,
57,10,1,1.0518272000190336,['n'],1,right,['e'],0,0.017660999990766868,0.2,0,0,FastFast,21,18,Woman,Right,
58,10,1,1.1172511000186205,['c'],0,right,['e'],0,0.3902685000211932,0.1,1,0,FastFast,21,18,Woman,Right,
59,10,1,1.2015905000152998,['c'],0,right,['e'],0,0.3459529000101611,0.2,1,0,FastFast,21,18,Woman,Right,
0,11,1,1.8999491999857128,['c'],0,right,['u'],1,0.5858015000121668,0.1,0,0,AccFast,21,18,Woman,Right,
1,11,1,1.1676440000010189,['c'],1,left,['u'],1,0.0704674000153318,0.2,1,0,AccFast,21,18,Woman,Right,
2,11,1,1.001070800004527,['c'],1,left,['e'],0,0.17399589999695309,0.2,0,0,AccFast,21,18,Woman,Right,
3,11,1,1.9839517999789678,['c'],0,right,['u'],1,0.23488419997738674,0.4,0,0,AccFast,21,18,Woman,Right,
4,11,1,1.7168557999830227,['c'],1,left,['e'],0,0.11166890000458807,0.1,0,0,AccFast,21,18,Woman,Right,
5,11,1,1.1164561999903526,['c'],1,left,['e'],0,0.1452576999727171,0.2,0,0,AccFast,21,18,Woman,Right,
6,11,1,1.9166347999998834,['n'],0,left,['e'],0,0.11295430001337081,0.1,1,0,AccFast,21,18,Woman,Right,
7,11,1,1.3335627999913413,['c'],0,right,['e'],0,0.12241559999529272,0.2,1,0,AccFast,21,18,Woman,Right,
8,11,1,1.0174309000140056,['n'],1,right,['e'],0,0.0946434999932535,0.4,0,0,AccFast,21,18,Woman,Right,
9,11,1,0.901603599981172,['c'],1,left,['u'],1,0.2017374999995809,0.1,1,0,AccFast,21,18,Woman,Right,
10,11,1,0.9511233000084758,['c'],0,right,['u'],1,0.20722170002409257,0.2,0,0,AccFast,21,18,Woman,Right,
11,11,1,2.0172084999794606,['n'],1,right,['e'],0,0.28073570001288317,0.2,0,0,AccFast,21,18,Woman,Right,
12,11,1,0.9832332000078168,['n'],1,right,['e'],0,0.18509549999726005,0.1,0,0,AccFast,21,18,Woman,Right,
13,11,1,0.967915199988056,['n'],1,right,['e'],0,0.1572703999991063,0.2,0,0,AccFast,21,18,Woman,Right,
14,11,1,1.617425300006289,['n'],1,right,['e'],0,0.16958409998915158,0.1,0,0,AccFast,21,18,Woman,Right,
15,11,1,1.1009390999970492,['c'],1,left,['u'],1,0.12115720001747832,0.4,1,0,AccFast,21,18,Woman,Right,
16,11,1,1.1512131000054069,['c'],1,left,['u'],1,0.10560609999811277,0.1,1,0,AccFast,21,18,Woman,Right,
17,11,1,1.0171072999946773,['c'],1,left,['e'],0,0.19051880002371036,0.2,0,0,AccFast,21,18,Woman,Right,
18,11,1,0.9511470000143163,['c'],0,right,['e'],0,0.5637663000088651,0.1,1,0,AccFast,21,18,Woman,Right,
19,11,1,1.051100199983921,['c'],1,left,['e'],0,0.22985459998017177,0.1,0,0,AccFast,21,18,Woman,Right,
20,11,1,0.9846931000065524,['c'],1,left,['u'],1,0.16746490000514314,0.4,1,0,AccFast,21,18,Woman,Right,
21,11,1,2.5165064000175335,['n'],1,right,['u'],1,0.20753089999197982,0.2,1,0,AccFast,21,18,Woman,Right,
22,11,1,1.4671344000089448,['n'],1,right,['e'],0,1.0712415000016335,0.2,0,0,AccFast,21,18,Woman,Right,
23,11,1,1.0170762999914587,['c'],1,left,['u'],1,0.20652619999600574,0.4,1,0,AccFast,21,18,Woman,Right,
24,11,1,1.2677469000045676,['n'],0,left,['e'],0,0.18245609998120926,0.2,1,0,AccFast,21,18,Woman,Right,
25,11,1,1.167556100001093,['c'],1,left,['u'],1,0.03590030001942068,0.4,1,0,AccFast,21,18,Woman,Right,
26,11,1,0.9506920999847353,['c'],1,left,['u'],1,0.07845120001002215,0.4,1,0,AccFast,21,18,Woman,Right,
27,11,1,1.049594199983403,['c'],0,right,['u'],1,0.09977050000452437,0.1,0,0,AccFast,21,18,Woman,Right,
28,11,1,1.0176364000071771,['n'],1,right,['u'],1,0.13780789999873377,0.4,1,0,AccFast,21,18,Woman,Right,
29,11,1,0.8001166000030935,['c'],1,left,['u'],1,0.15086770002380945,0.4,1,0,AccFast,21,18,Woman,Right,
30,11,1,1.1500486999866553,['c'],1,left,['u'],1,0.5495911999896634,0.1,1,0,AccFast,21,18,Woman,Right,
31,11,1,2.13369600000442,['n'],1,right,['e'],0,0.12455139998928644,0.1,0,0,AccFast,21,18,Woman,Right,
32,11,1,1.0829286000225693,['n'],1,right,['e'],0,0.111257199983811,0.1,0,0,AccFast,21,18,Woman,Right,
33,11,1,1.3164354999898933,['n'],0,left,['u'],1,0.2329901000193786,0.2,0,0,AccFast,21,18,Woman,Right,
34,11,1,1.4177426999958698,['n'],0,left,['e'],0,0.17094640000141226,0.1,1,0,AccFast,21,18,Woman,Right,
35,11,1,1.1341186999925412,['n'],1,right,['u'],1,0.664419300010195,0.2,1,0,AccFast,21,18,Woman,Right,
36,11,1,1.7495671999931801,['c'],0,right,['e'],0,0.20324740000069141,0.4,1,0,AccFast,21,18,Woman,Right,
37,11,1,0.951632200012682,['n'],1,right,['u'],1,0.14306249999208376,0.4,1,0,AccFast,21,18,Woman,Right,
38,11,1,1.3338442000094801,['c'],1,left,['e'],0,0.1350209999945946,0.4,0,0,AccFast,21,18,Woman,Right,
39,11,1,1.3507806000125129,['c'],1,left,['u'],1,0.2381632000033278,0.4,1,0,AccFast,21,18,Woman,Right,
40,11,1,1.3010980999970343,['n'],1,right,['e'],0,0.4516181999933906,0.2,0,0,AccFast,21,18,Woman,Right,
41,11,1,1.1832694999757223,['c'],1,left,['e'],0,0.037445299996761605,0.4,0,0,AccFast,21,18,Woman,Right,
42,11,1,1.5333260000043083,['n'],1,right,['e'],0,0.8250658000179101,0.2,0,0,AccFast,21,18,Woman,Right,
43,11,1,1.151053999987198,['n'],1,right,['u'],1,0.17277619999367744,0.2,1,0,AccFast,21,18,Woman,Right,
44,11,1,1.1176940000150353,['n'],1,right,['u'],1,0.20411649998277426,0.4,1,0,AccFast,21,18,Woman,Right,
45,11,1,1.21795910000219,['n'],0,left,['e'],0,0.18202219999511726,0.2,1,0,AccFast,21,18,Woman,Right,
46,11,1,1.3339643999934196,['c'],0,right,['e'],0,0.2679614000080619,0.1,1,0,AccFast,21,18,Woman,Right,
47,11,1,1.6836103999812622,['n'],1,right,['e'],0,0.49663999999756925,0.2,0,0,AccFast,21,18,Woman,Right,
48,11,1,1.4992300000158139,['c'],0,right,['e'],0,0.16341790001024492,0.1,1,0,AccFast,21,18,Woman,Right,
49,11,1,0.9009346000093501,['n'],1,right,['e'],0,0.107193300005747,0.1,0,0,AccFast,21,18,Woman,Right,
50,11,1,1.6510077000129968,['c'],1,left,['u'],1,1.111933099979069,0.4,1,0,AccFast,21,18,Woman,Right,
51,11,1,1.183218099991791,['c'],1,left,['u'],1,0.11071799998171628,0.4,1,0,AccFast,21,18,Woman,Right,
52,11,1,1.76776330001303,['c'],1,left,['u'],1,0.07076400000369176,0.4,1,0,AccFast,21,18,Woman,Right,
53,11,1,1.2992748999968171,['n'],1,right,['u'],1,0.16431200000806712,0.2,1,0,AccFast,21,18,Woman,Right,
54,11,1,1.3353777999873273,['n'],0,left,['e'],0,0.15369589999318123,0.1,1,0,AccFast,21,18,Woman,Right,
55,11,1,1.5674835999961942,['c'],1,left,['e'],0,0.2317347000062,0.2,0,0,AccFast,21,18,Woman,Right,
56,11,1,1.7842341999930795,['n'],0,left,['e'],0,0.07329890000983141,0.1,1,0,AccFast,21,18,Woman,Right,
57,11,1,1.1677974999765866,['n'],0,left,['e'],0,0.10652279999339953,0.4,1,0,AccFast,21,18,Woman,Right,
58,11,1,2.3501220000034664,['n'],1,right,['e'],0,0.20327379999798723,0.4,0,0,AccFast,21,18,Woman,Right,
59,11,1,1.1339577000180725,['n'],1,right,['e'],0,0.10452819999773055,0.1,0,0,AccFast,21,18,Woman,Right,
0,12,1,1.7510680000123102,['n'],0,left,['e'],0,1.372382600005949,0.1,1,0,AccAcc,21,18,Woman,Right,
1,12,1,1.1343202000134625,['c'],1,left,['e'],0,0.7311494000023231,0.2,0,0,AccAcc,21,18,Woman,Right,
2,12,1,0.9176806999894325,['c'],1,left,['e'],0,0.6356874000048265,0.4,0,0,AccAcc,21,18,Woman,Right,
3,12,1,1.0178160000068601,['c'],1,left,['e'],0,0.4923549999948591,0.2,0,0,AccAcc,21,18,Woman,Right,
4,12,1,1.1677766000211705,['n'],0,left,['e'],0,0.46104429999832064,0.1,1,0,AccAcc,21,18,Woman,Right,
5,12,1,1.6181868000130635,['c'],0,right,['e'],0,0.5890888000139967,0.2,1,0,AccAcc,21,18,Woman,Right,
6,12,1,1.2513398000155576,['c'],0,right,['e'],0,0.3264992999902461,0.2,1,0,AccAcc,21,18,Woman,Right,
7,12,1,0.9015014999895357,['c'],1,left,['u'],1,0.1210475999978371,0.4,1,0,AccAcc,21,18,Woman,Right,
8,12,1,1.517554400023073,['n'],1,right,['e'],0,1.673644599999534,0.1,0,0,AccAcc,21,18,Woman,Right,
9,12,1,1.0500261999841314,['c'],1,left,['u'],1,1.1198613000160549,0.2,1,0,AccAcc,21,18,Woman,Right,
10,12,1,1.1338690999837127,['c'],1,left,['u'],1,1.8805851000070106,0.4,1,0,AccAcc,21,18,Woman,Right,
11,12,1,1.300492900016252,['c'],1,left,['u'],1,0.6042658999795094,0.1,1,0,AccAcc,21,18,Woman,Right,
12,12,1,0.8186102000181563,['c'],1,left,['u'],1,0.6461485000036191,0.1,1,0,AccAcc,21,18,Woman,Right,
13,12,1,1.4506497000111267,['c'],1,left,['u'],1,1.125326400011545,0.2,1,0,AccAcc,21,18,Woman,Right,
14,12,1,1.11699419998331,['c'],0,right,['e'],0,0.7344135000021197,0.1,1,0,AccAcc,21,18,Woman,Right,
15,12,1,0.8837442000221927,['c'],0,right,['u'],1,1.08818489999976,0.1,0,0,AccAcc,21,18,Woman,Right,
16,12,1,0.8833224000118207,['c'],0,right,['e'],0,0.9005235999939032,0.1,1,0,AccAcc,21,18,Woman,Right,
17,12,1,2.2504636000085156,['c'],1,left,['u'],1,0.8733751999970991,0.4,1,0,AccAcc,21,18,Woman,Right,
18,12,1,2.4499345000076573,['n'],1,right,['e'],0,0.3436591000063345,0.1,0,0,AccAcc,21,18,Woman,Right,
19,12,1,1.9663979000179097,['n'],0,left,['e'],0,0.03072690000408329,0.1,1,0,AccAcc,21,18,Woman,Right,
20,12,1,1.2005993999773636,['n'],0,left,['e'],0,0.09557790000690147,0.2,1,0,AccAcc,21,18,Woman,Right,
21,12,1,0.8675821999786422,['c'],0,right,['e'],0,0.04338709998410195,0.1,1,0,AccAcc,21,18,Woman,Right,
22,12,1,1.3669189999927767,['n'],1,right,['e'],0,0.21435219998238608,0.2,0,0,AccAcc,21,18,Woman,Right,
23,12,1,0.766477599972859,['n'],1,right,['e'],0,0.2098163999908138,0.4,0,0,AccAcc,21,18,Woman,Right,
24,12,1,1.0677961999899708,['c'],1,left,['e'],0,0.385998700017808,0.2,0,0,AccAcc,21,18,Woman,Right,
25,12,1,0.8848060999880545,['n'],1,right,['u'],1,0.49644220000482164,0.2,1,0,AccAcc,21,18,Woman,Right,
26,12,1,1.0177344999974594,['c'],1,left,['u'],1,0.5508903999871109,0.1,1,0,AccAcc,21,18,Woman,Right,
27,12,1,0.9840880999981891,['n'],1,right,['u'],1,0.8922811000084039,0.4,1,0,AccAcc,21,18,Woman,Right,
28,12,1,1.3330582000198774,['c'],0,right,['u'],1,1.4471793999837246,0.2,0,0,AccAcc,21,18,Woman,Right,
29,12,1,1.0495870999875478,['c'],0,right,['u'],1,0.5337773000064772,0.2,0,0,AccAcc,21,18,Woman,Right,
30,12,1,1.2673088000155985,['n'],1,right,['e'],0,0.30372389999683946,0.1,0,0,AccAcc,21,18,Woman,Right,
31,12,1,1.0347626000002492,['n'],1,right,['u'],1,0.5409771999984514,0.2,1,0,AccAcc,21,18,Woman,Right,
32,12,1,0.9676157000067178,['n'],1,right,['u'],1,0.5318459999980405,0.4,1,0,AccAcc,21,18,Woman,Right,
33,12,1,0.9504263999988325,['c'],1,left,['u'],1,1.1789255999901798,0.4,1,0,AccAcc,21,18,Woman,Right,
34,12,1,0.7669731999922078,['n'],1,right,['u'],1,0.5919667000125628,0.4,1,0,AccAcc,21,18,Woman,Right,
35,12,1,0.7178398000251036,['c'],1,left,['u'],1,0.7183036000060383,0.2,1,0,AccAcc,21,18,Woman,Right,
36,12,1,0.884278000012273,['c'],1,left,['u'],1,0.7376944000134245,0.2,1,0,AccAcc,21,18,Woman,Right,
37,12,1,1.8008673000149429,['n'],1,right,['e'],0,0.7991898999898694,0.2,0,0,AccAcc,21,18,Woman,Right,
38,12,1,0.8332972999778576,['c'],1,left,['u'],1,1.1037705999915488,0.4,1,0,AccAcc,21,18,Woman,Right,
39,12,1,1.2341392999805976,['c'],1,left,['u'],1,0.5331991999992169,0.4,1,0,AccAcc,21,18,Woman,Right,
40,12,1,1.1844588000094518,['n'],1,right,['u'],1,0.3390316999866627,0.4,1,0,AccAcc,21,18,Woman,Right,
41,12,1,1.7674493000085931,['c'],1,left,['u'],1,0.3060074999812059,0.1,1,0,AccAcc,21,18,Woman,Right,
42,12,1,0.9178567000199109,['n'],1,right,['e'],0,0.32374170000548474,0.2,0,0,AccAcc,21,18,Woman,Right,
43,12,1,1.4329979000031017,['n'],1,right,['u'],1,0.7372344000032172,0.4,1,0,AccAcc,21,18,Woman,Right,
44,12,1,1.7009067999897525,['c'],0,right,['e'],0,0.16232870001113042,0.1,1,0,AccAcc,21,18,Woman,Right,
45,12,1,0.7838549000152852,['c'],1,left,['u'],1,0.4303932999901008,0.4,1,0,AccAcc,21,18,Woman,Right,
46,12,1,1.5164097000088077,['c'],1,left,['u'],1,0.41945529999793507,0.1,1,0,AccAcc,21,18,Woman,Right,
47,12,1,1.2671947999915574,['n'],1,right,['e'],0,0.1944249999942258,0.2,0,0,AccAcc,21,18,Woman,Right,
48,12,1,2.084170999994967,['c'],1,left,['e'],0,0.5705791999935172,0.4,0,0,AccAcc,21,18,Woman,Right,
49,12,1,2.20012660001521,['c'],0,right,['e'],0,0.39871610002592206,0.1,1,0,AccAcc,21,18,Woman,Right,
50,12,1,1.2670531999901868,['n'],1,right,['e'],0,0.8468101999897044,0.4,0,0,AccAcc,21,18,Woman,Right,
51,12,1,1.3177281999960542,['c'],1,left,['u'],1,0.9547708999889437,0.2,1,0,AccAcc,21,18,Woman,Right,
52,12,1,0.7175553999841213,['c'],1,left,['e'],0,0.9869886999949813,0.4,0,0,AccAcc,21,18,Woman,Right,
53,12,1,1.1676956999872345,['n'],1,right,['e'],0,0.6634747000061907,0.4,0,0,AccAcc,21,18,Woman,Right,
54,12,1,1.8012027999793645,['c'],1,left,['e'],0,0.5836519000004046,0.1,0,0,AccAcc,21,18,Woman,Right,
55,12,1,1.9174818000174128,['c'],0,right,['e'],0,0.6152290000172798,0.2,1,0,AccAcc,21,18,Woman,Right,
56,12,1,0.9178324999811593,['c'],1,left,['u'],1,0.3637691000185441,0.4,1,0,AccAcc,21,18,Woman,Right,
57,12,1,1.1172484000271652,['n'],1,right,['u'],1,0.5150373000069521,0.4,1,0,AccAcc,21,18,Woman,Right,
58,12,1,1.0177917000255547,['c'],1,left,['e'],0,1.3684017000196036,0.1,0,0,AccAcc,21,18,Woman,Right,
59,12,1,1.7512814000074286,['n'],1,right,['e'],0,0.36652119999052957,0.1,0,0,AccAcc,21,18,Woman,Right,
0,13,1,0.9512247999955434,['n'],1,right,['e'],0,0.9494457000109833,0.4,0,0,FastAcc,21,18,Woman,Right,
1,13,1,0.8006083999935072,['c'],1,left,['e'],0,0.449912799987942,0.4,0,0,FastAcc,21,18,Woman,Right,
2,13,1,0.46716420000302605,['n'],1,right,['e'],0,0.5437073999783024,0.2,0,0,FastAcc,21,18,Woman,Right,
3,13,1,0.6836657999956515,['n'],1,right,['u'],1,0.20962200002395548,0.2,1,0,FastAcc,21,18,Woman,Right,
4,13,1,0.749106400005985,['c'],0,right,['u'],1,0.4467632000159938,0.1,0,0,FastAcc,21,18,Woman,Right,
5,13,1,0.9179779999831226,['c'],1,left,['u'],1,0.12220949999755248,0.2,1,0,FastAcc,21,18,Woman,Right,
6,13,1,1.0508554999832995,['c'],1,left,['u'],1,0.18987879998167045,0.1,1,0,FastAcc,21,18,Woman,Right,
7,13,1,1.0013728000049014,['c'],1,left,['u'],1,0.03308620001189411,0.4,1,0,FastAcc,21,18,Woman,Right,
8,13,1,0.717813000024762,['c'],1,left,['u'],1,0.07042370000272058,0.4,1,0,FastAcc,21,18,Woman,Right,
9,13,1,0.5993938000174239,['c'],1,left,['u'],1,0.07773059999453835,0.1,1,0,FastAcc,21,18,Woman,Right,
10,13,1,1.084676300000865,['c'],1,left,['e'],0,0.2421147999993991,0.1,0,0,FastAcc,21,18,Woman,Right,
11,13,1,1.034730599989416,['n'],1,right,['e'],0,0.2098530000075698,0.1,0,0,FastAcc,21,18,Woman,Right,
12,13,1,0.951256000000285,['n'],1,right,['e'],0,0.11850729997968301,0.2,0,0,FastAcc,21,18,Woman,Right,
13,13,1,1.0510209999920335,['c'],1,left,['e'],0,0.3942712999996729,0.4,0,0,FastAcc,21,18,Woman,Right,
14,13,1,1.6510795000067446,['n'],0,left,['e'],0,0.2837627999833785,0.4,1,0,FastAcc,21,18,Woman,Right,
15,13,1,0.6179201000195462,['c'],1,left,['e'],0,0.3140206000243779,0.4,0,0,FastAcc,21,18,Woman,Right,
16,13,1,0.782980599993607,['n'],1,right,['e'],0,0.19268800001009367,0.2,0,0,FastAcc,21,18,Woman,Right,
17,13,1,1.6505180000094697,['c'],0,right,['e'],0,0.18741270000464283,0.1,1,0,FastAcc,21,18,Woman,Right,
18,13,1,0.9331364000099711,['n'],1,right,['e'],0,0.1446795999945607,0.1,0,0,FastAcc,21,18,Woman,Right,
19,13,1,0.9005819000012707,['n'],1,right,['e'],0,0.13740320000215434,0.2,0,0,FastAcc,21,18,Woman,Right,
20,13,1,0.9011077999894042,['c'],1,left,['e'],0,0.9942614999890793,0.2,0,0,FastAcc,21,18,Woman,Right,
21,13,1,1.2512147000234108,['n'],1,right,['e'],0,0.31582640000851825,0.2,0,0,FastAcc,21,18,Woman,Right,
22,13,1,1.384160800022073,['c'],1,left,['e'],0,0.5543608000152744,0.4,0,0,FastAcc,21,18,Woman,Right,
23,13,1,0.9844570999848656,['n'],1,right,['e'],0,0.5116795000212733,0.1,0,0,FastAcc,21,18,Woman,Right,
24,13,1,0.6010981999861542,['c'],1,left,['u'],1,0.9975559999875259,0.1,1,0,FastAcc,21,18,Woman,Right,
25,13,1,0.5341158999945037,['c'],0,right,['u'],1,1.434968800022034,0.1,0,0,FastAcc,21,18,Woman,Right,
26,13,1,0.5509169999859296,['n'],1,right,['u'],1,1.6302384000155143,0.4,1,0,FastAcc,21,18,Woman,Right,
27,13,1,0.6013063999998849,['n'],1,right,['u'],1,1.6555972999776714,0.4,1,0,FastAcc,21,18,Woman,Right,
28,13,1,0.43379969999659806,['c'],1,left,['u'],1,1.7031623999937437,0.4,1,0,FastAcc,21,18,Woman,Right,
29,13,1,0.4009712999977637,['n'],1,right,['u'],1,1.2218201999785379,0.2,1,0,FastAcc,21,18,Woman,Right,
30,13,1,0.45074589998694137,['c'],0,right,['u'],1,1.6540018999949098,0.2,0,0,FastAcc,21,18,Woman,Right,
31,13,1,0.6346338999865111,['c'],0,right,['u'],1,1.0215297999966424,0.1,0,0,FastAcc,21,18,Woman,Right,
32,13,1,0.6180044999928214,['c'],1,left,['u'],1,0.11086470002192073,0.4,1,0,FastAcc,21,18,Woman,Right,
33,13,1,0.6845241999835707,['n'],1,right,['u'],1,1.6975772999867331,0.2,1,0,FastAcc,21,18,Woman,Right,
34,13,1,0.6345778999966569,['c'],0,right,['u'],1,1.079280399979325,0.1,0,0,FastAcc,21,18,Woman,Right,
35,13,1,0.517661699996097,['c'],1,left,['u'],1,1.0819370000099298,0.4,1,0,FastAcc,21,18,Woman,Right,
36,13,1,0.9342616999929305,['n'],1,right,['e'],0,1.611812800023472,0.1,0,0,FastAcc,21,18,Woman,Right,
37,13,1,0.4513307999877725,['c'],1,left,['u'],1,1.2447509999910835,0.2,1,0,FastAcc,21,18,Woman,Right,
38,13,1,0.6513890000060201,['c'],1,left,['u'],1,3.7631015999941155,0.2,1,0,FastAcc,21,18,Woman,Right,
39,13,1,0.6345160999917425,['c'],1,left,['u'],1,1.5265837000042666,0.2,1,0,FastAcc,21,18,Woman,Right,
40,13,1,0.4512641000037547,['n'],1,right,['e'],0,0.9866707000182942,0.2,0,0,FastAcc,21,18,Woman,Right,
41,13,1,0.7349161000165623,['n'],1,right,['e'],0,1.832507400016766,0.4,0,0,FastAcc,21,18,Woman,Right,
42,13,1,0.4837182000046596,['c'],1,left,['u'],1,0.7504517999768723,0.4,1,0,FastAcc,21,18,Woman,Right,
43,13,1,0.7340832999907434,['c'],0,right,['u'],1,4.533878400019603,0.2,0,0,FastAcc,21,18,Woman,Right,
44,13,1,0.6345216000045184,['c'],1,left,['e'],0,0.9229419000039343,0.1,0,0,FastAcc,21,18,Woman,Right,
45,13,1,0.5175076999876183,['n'],0,left,['e'],0,0.5643883000011556,0.2,1,0,FastAcc,21,18,Woman,Right,
46,13,1,0.5673288000107277,['n'],1,right,['e'],0,1.3369384999969043,0.4,0,0,FastAcc,21,18,Woman,Right,
47,13,1,0.5176827999821398,['c'],1,left,['u'],1,1.2657275999954436,0.4,1,0,FastAcc,21,18,Woman,Right,
48,13,1,0.4997721000108868,['c'],1,left,['u'],1,1.310395000007702,0.2,1,0,FastAcc,21,18,Woman,Right,
49,13,1,0.7842568999913055,['c'],0,right,['u'],1,0.2691147000005003,0.1,0,0,FastAcc,21,18,Woman,Right,
50,13,1,0.7668312999885529,['n'],1,right,['e'],0,0.19908429999486543,0.1,0,0,FastAcc,21,18,Woman,Right,
51,13,1,0.867926399980206,['c'],1,left,['u'],1,0.22200019998126663,0.1,1,0,FastAcc,21,18,Woman,Right,
52,13,1,1.6507824000145774,['n'],1,right,['e'],0,0.6941342999925837,0.1,0,0,FastAcc,21,18,Woman,Right,
53,13,1,0.5518072000122629,['n'],1,right,['e'],0,0.24744860001374036,0.4,0,0,FastAcc,21,18,Woman,Right,
54,13,1,0.7331214000005275,['c'],1,left,['e'],0,0.19529939998756163,0.4,0,0,FastAcc,21,18,Woman,Right,
55,13,1,0.7844585000129882,['n'],1,right,['e'],0,0.8463676999963354,0.2,0,0,FastAcc,21,18,Woman,Right,
56,13,1,0.5510768000094686,['c'],1,left,['e'],0,0.3130117999971844,0.2,0,0,FastAcc,21,18,Woman,Right,
57,13,1,0.4344869999913499,['n'],0,left,['u'],1,0.44547639999655075,0.1,0,0,FastAcc,21,18,Woman,Right,
58,13,1,0.8841696000017691,['c'],1,left,['u'],1,1.8509276999975555,0.1,1,0,FastAcc,21,18,Woman,Right,
59,13,1,0.7340358000074048,['c'],1,left,['u'],1,0.630313900008332,0.4,1,0,FastAcc,21,18,Woman,Right,
0,14,1,1.7997356999840122,['n'],1,right,['e'],0,1.043971999984933,0.4,0,0,FastFast,21,18,Woman,Right,
1,14,1,0.8334275000088383,['c'],1,left,['e'],0,0.17118240002309904,0.1,0,0,FastFast,21,18,Woman,Right,
2,14,1,0.700662299990654,['n'],1,right,['u'],1,0.15513270001974888,0.2,1,0,FastFast,21,18,Woman,Right,
3,14,1,0.9168384999793489,['c'],1,left,['u'],1,0.14760389999719337,0.4,1,0,FastFast,21,18,Woman,Right,
4,14,1,0.8169953000033274,['c'],1,left,['u'],1,0.1272400000016205,0.4,1,0,FastFast,21,18,Woman,Right,
5,14,1,0.7675388999923598,['n'],0,left,['e'],0,0.17377659998601303,0.1,1,0,FastFast,21,18,Woman,Right,
6,14,1,1.4340312000131235,['n'],1,right,['e'],0,0.06460370001150295,0.2,0,0,FastFast,21,18,Woman,Right,
7,14,1,0.6511731999926269,['c'],1,left,['e'],0,0.10223499999847263,0.4,0,0,FastFast,21,18,Woman,Right,
8,14,1,0.8010675999976229,['n'],1,right,['u'],1,0.2769802999973763,0.1,1,0,FastFast,21,18,Woman,Right,
9,14,1,1.5495891000027768,['n'],0,left,['e'],0,0.11183199999504723,0.2,1,0,FastFast,21,18,Woman,Right,
10,14,1,1.3179626999772154,['c'],1,left,['e'],0,0.024732100020628422,0.2,0,0,FastFast,21,18,Woman,Right,
11,14,1,0.8006332000077236,['n'],1,right,['e'],0,0.04274480001186021,0.2,0,0,FastFast,21,18,Woman,Right,
12,14,1,1.4177603000134695,['n'],1,right,['e'],0,0.0673178999859374,0.1,0,0,FastFast,21,18,Woman,Right,
13,14,1,0.8826442999998108,['n'],1,right,['e'],0,0.16013519998523407,0.1,0,0,FastFast,21,18,Woman,Right,
14,14,1,0.9164577999908943,['c'],1,left,['u'],1,0.21632040000986308,0.4,1,0,FastFast,21,18,Woman,Right,
15,14,1,1.2336761000042316,['n'],1,right,['u'],1,0.08021869999356568,0.4,1,0,FastFast,21,18,Woman,Right,
16,14,1,0.9177769999951124,['c'],1,left,['u'],1,0.1229237999941688,0.1,1,0,FastFast,21,18,Woman,Right,
17,14,1,1.0842290000000503,['c'],1,left,['u'],1,0.07739469999796711,0.1,1,0,FastFast,21,18,Woman,Right,
18,14,1,1.4180634999938775,['n'],1,right,['e'],0,0.06862800000817515,0.1,0,0,FastFast,21,18,Woman,Right,
19,14,1,2.3503921999945305,['n'],1,right,['e'],0,0.0714363000006415,0.4,0,0,FastFast,21,18,Woman,Right,
20,14,1,0.9012066000141203,['c'],0,right,['u'],1,0.4024525000131689,0.2,0,0,FastFast,21,18,Woman,Right,
21,14,1,0.9010903000016697,['n'],1,right,['e'],0,0.08150530001148582,0.2,0,0,FastFast,21,18,Woman,Right,
22,14,1,0.9511033000017051,['c'],1,left,['e'],0,0.1382515000004787,0.1,0,0,FastFast,21,18,Woman,Right,
23,14,1,1.1346765999915078,['c'],1,left,['e'],0,0.10604750001220964,0.2,0,0,FastFast,21,18,Woman,Right,
24,14,1,0.5678209000034258,['c'],1,left,['u'],1,2.1297389999963343,0.1,1,0,FastFast,21,18,Woman,Right,
25,14,1,0.9671885999850929,['c'],0,right,['e'],0,0.07302660000277683,0.1,1,0,FastFast,21,18,Woman,Right,
26,14,1,0.7844804000051226,['c'],0,right,['e'],0,0.041423499991651624,0.1,1,0,FastFast,21,18,Woman,Right,
27,14,1,0.6833465000090655,['c'],1,left,['u'],1,0.22306629997910932,0.4,1,0,FastFast,21,18,Woman,Right,
28,14,1,0.5002674999996088,['c'],1,left,['u'],1,0.1332643000059761,0.1,1,0,FastFast,21,18,Woman,Right,
29,14,1,0.501432199991541,['n'],1,right,['e'],0,0.110060600010911,0.2,0,0,FastFast,21,18,Woman,Right,
30,14,1,0.4343685999920126,['c'],0,right,['e'],0,0.09114259999478236,0.1,1,0,FastFast,21,18,Woman,Right,
31,14,1,0.701364399981685,['c'],1,left,['e'],0,0.06216709999716841,0.4,0,0,FastFast,21,18,Woman,Right,
32,14,1,1.1179940000001807,['n'],1,right,['e'],0,0.08150030000251718,0.1,0,0,FastFast,21,18,Woman,Right,
33,14,1,1.5002583999885246,['c'],1,left,['e'],0,0.18063469999469817,0.4,0,0,FastFast,21,18,Woman,Right,
34,14,1,0.9163958999852184,['c'],1,left,['u'],1,0.1396336999896448,0.4,1,0,FastFast,21,18,Woman,Right,
35,14,1,1.0500349999929313,['c'],1,left,['u'],1,0.07858950001536869,0.2,1,0,FastFast,21,18,Woman,Right,
36,14,1,0.9013987999933306,['c'],1,left,['u'],1,0.21776329999556765,0.4,1,0,FastFast,21,18,Woman,Right,
37,14,1,1.0843472999986261,['c'],1,left,['e'],0,0.23231699998723343,0.2,0,0,FastFast,21,18,Woman,Right,
38,14,1,0.6677946000127122,['c'],0,right,['e'],0,0.1509061999968253,0.2,1,0,FastFast,21,18,Woman,Right,
39,14,1,0.7343088999914471,['c'],0,right,['e'],0,0.006623199995374307,0.1,1,0,FastFast,21,18,Woman,Right,
40,14,1,1.0503813999821432,['n'],1,right,['e'],0,0.029959200008306652,0.4,0,0,FastFast,21,18,Woman,Right,
41,14,1,1.384310599998571,['c'],1,left,['u'],1,0.11962460001814179,0.4,1,0,FastFast,21,18,Woman,Right,
42,14,1,1.051093200017931,['c'],0,right,['u'],1,0.09193259998573922,0.2,0,0,FastFast,21,18,Woman,Right,
43,14,1,0.7498323999752756,['c'],1,left,['u'],1,0.12552620001952164,0.4,1,0,FastFast,21,18,Woman,Right,
44,14,1,1.0836254000023473,['n'],1,right,['e'],0,0.07949989999178797,0.2,0,0,FastFast,21,18,Woman,Right,
45,14,1,0.8340808000066318,['c'],0,right,['u'],1,0.09332280000671744,0.2,0,0,FastFast,21,18,Woman,Right,
46,14,1,1.366182600002503,['c'],1,left,['u'],1,0.11779620000743307,0.4,1,0,FastFast,21,18,Woman,Right,
47,14,1,0.9673537000198849,['c'],0,right,['u'],1,0.15702499999315478,0.1,0,0,FastFast,21,18,Woman,Right,
48,14,1,2.199389500019606,['n'],0,left,['e'],0,0.03446510000503622,0.2,1,0,FastFast,21,18,Woman,Right,
49,14,1,2.3009817999845836,['n'],0,left,['e'],0,0.03939620000892319,0.1,1,0,FastFast,21,18,Woman,Right,
50,14,1,0.68433429999277,['n'],0,left,['e'],0,0.044980700011365116,0.2,1,0,FastFast,21,18,Woman,Right,
51,14,1,0.6843738000025041,['n'],1,right,['e'],0,0.018488399975467473,0.1,0,0,FastFast,21,18,Woman,Right,
52,14,1,0.7337777999928221,['n'],0,left,['e'],0,0.07056819999706931,0.2,1,0,FastFast,21,18,Woman,Right,
53,14,1,0.7010575000022072,['n'],1,right,['e'],0,0.09057070000562817,0.4,0,0,FastFast,21,18,Woman,Right,
54,14,1,0.6674664999882225,['n'],1,right,['e'],0,0.06284870000672527,0.1,0,0,FastFast,21,18,Woman,Right,
55,14,1,0.6844747000141069,['n'],1,right,['e'],0,0.019674400013173,0.2,0,0,FastFast,21,18,Woman,Right,
56,14,1,0.46782650001114234,['n'],1,right,['e'],0,0.06643180001992732,0.2,0,0,FastFast,21,18,Woman,Right,
57,14,1,0.634492399985902,['n'],1,right,['e'],0,0.07278690001112409,0.4,0,0,FastFast,21,18,Woman,Right,
58,14,1,0.4329268999863416,['n'],0,left,['e'],0,0.08863270000438206,0.4,1,0,FastFast,21,18,Woman,Right,
59,14,1,1.3010539000097197,['n'],0,left,['e'],0,0.0987983999948483,0.4,1,0,FastFast,21,18,Woman,Right,
0,15,1,1.1342548999818973,['c'],1,left,['e'],0,0.3402405999950133,0.4,0,0,AccFast,21,18,Woman,Right,
1,15,1,0.5844661000010092,['n'],1,right,['e'],0,0.145137599989539,0.4,0,0,AccFast,21,18,Woman,Right,
2,15,1,1.1845615000056569,['n'],0,left,['e'],0,0.38245659999665804,0.2,1,0,AccFast,21,18,Woman,Right,
3,15,1,0.7182582000095863,['n'],1,right,['e'],0,0.06984700000612065,0.1,0,0,AccFast,21,18,Woman,Right,
4,15,1,1.0671560000046156,['n'],1,right,['e'],0,0.09149029999389313,0.2,0,0,AccFast,21,18,Woman,Right,
5,15,1,1.500744199991459,['n'],1,right,['e'],0,0.23751040000934154,0.4,0,0,AccFast,21,18,Woman,Right,
6,15,1,0.5838324000069406,['c'],1,left,['u'],1,0.7676858000049833,0.4,1,0,AccFast,21,18,Woman,Right,
7,15,1,0.9007617000024766,['n'],0,left,['e'],0,0.06361270000343211,0.2,1,0,AccFast,21,18,Woman,Right,
8,15,1,0.7177237000141758,['n'],1,right,['e'],0,0.06648609999683686,0.1,0,0,AccFast,21,18,Woman,Right,
9,15,1,0.7182695000083186,['n'],0,left,['e'],0,0.10164219999569468,0.1,1,0,AccFast,21,18,Woman,Right,
10,15,1,0.8178282000008039,['n'],1,right,['e'],0,0.24336950000724755,0.1,0,0,AccFast,21,18,Woman,Right,
11,15,1,1.6337753999978304,['n'],1,right,['e'],0,0.05955309999990277,0.1,0,0,AccFast,21,18,Woman,Right,
12,15,1,0.7170953000022564,['n'],1,right,['u'],1,0.207307500008028,0.4,1,0,AccFast,21,18,Woman,Right,
13,15,1,0.6336468000081368,['n'],1,right,['u'],1,0.09670809999806806,0.4,1,0,AccFast,21,18,Woman,Right,
14,15,1,0.6846277000149712,['n'],0,left,['u'],1,0.09956370000145398,0.1,0,0,AccFast,21,18,Woman,Right,
15,15,1,0.784849400020903,['n'],0,left,['u'],1,0.11488540002028458,0.4,0,0,AccFast,21,18,Woman,Right,
16,15,1,0.7011920000077225,['n'],1,right,['u'],1,0.1166252999973949,0.1,1,0,AccFast,21,18,Woman,Right,
17,15,1,0.5675592000188772,['n'],1,right,['u'],1,0.12350059999153018,0.1,1,0,AccFast,21,18,Woman,Right,
18,15,1,1.0838355000014417,['c'],1,left,['u'],1,0.09411180001916364,0.4,1,0,AccFast,21,18,Woman,Right,
19,15,1,0.834188400011044,['c'],1,left,['u'],1,0.1398600999964401,0.2,1,0,AccFast,21,18,Woman,Right,
20,15,1,0.7499596000125166,['n'],1,right,['u'],1,0.0917423999926541,0.2,1,0,AccFast,21,18,Woman,Right,
21,15,1,1.2179173000040464,['n'],0,left,['u'],1,0.10562309998204,0.2,0,0,AccFast,21,18,Woman,Right,
22,15,1,0.7511664999765344,['c'],0,right,['e'],0,0.17033639998408034,0.1,1,0,AccFast,21,18,Woman,Right,
23,15,1,0.8844149000069592,['n'],1,right,['u'],1,0.1308718000072986,0.1,1,0,AccFast,21,18,Woman,Right,
24,15,1,0.8170037000090815,['n'],0,left,['u'],1,0.12719659999129362,0.2,0,0,AccFast,21,18,Woman,Right,
25,15,1,0.6849897000065539,['n'],1,right,['u'],1,0.09764789999462664,0.2,1,0,AccFast,21,18,Woman,Right,
26,15,1,0.6174815999984276,['n'],0,left,['u'],1,0.11970440001459792,0.4,0,0,AccFast,21,18,Woman,Right,
27,15,1,1.2338333000079729,['c'],1,left,['e'],0,0.14771610000752844,0.4,0,0,AccFast,21,18,Woman,Right,
28,15,1,0.9017643999832217,['n'],0,left,['e'],0,0.1725315999938175,0.1,1,0,AccFast,21,18,Woman,Right,
29,15,1,0.8011209999967832,['n'],0,left,['u'],1,0.42450039999675937,0.2,0,0,AccFast,21,18,Woman,Right,
30,15,1,0.7173552000022028,['n'],1,right,['u'],1,0.1256734999769833,0.2,1,0,AccFast,21,18,Woman,Right,
31,15,1,0.7336638999986462,['n'],0,left,['e'],0,0.0462229999830015,0.4,1,0,AccFast,21,18,Woman,Right,
32,15,1,0.8667206000245642,['n'],1,right,['e'],0,0.07600709999678656,0.2,0,0,AccFast,21,18,Woman,Right,
33,15,1,1.334817800001474,['n'],1,right,['e'],0,0.08705289999488741,0.2,0,0,AccFast,21,18,Woman,Right,
34,15,1,1.3843815999862272,['c'],1,left,['e'],0,0.9905038999859244,0.4,0,0,AccFast,21,18,Woman,Right,
35,15,1,0.9843206999939866,['n'],1,right,['u'],1,0.03461500001139939,0.1,1,0,AccFast,21,18,Woman,Right,
36,15,1,1.0347620000247844,['c'],1,left,['e'],0,1.1304812000016682,0.1,0,0,AccFast,21,18,Woman,Right,
37,15,1,1.0346035999828018,['n'],1,right,['u'],1,0.19853630001307465,0.4,1,0,AccFast,21,18,Woman,Right,
38,15,1,1.6010686999943573,['c'],1,left,['u'],1,0.09731189999729395,0.4,1,0,AccFast,21,18,Woman,Right,
39,15,1,1.2170420000038575,['n'],1,right,['u'],1,0.031094899983145297,0.1,1,0,AccFast,21,18,Woman,Right,
40,15,1,0.8506956999772228,['c'],1,left,['u'],1,0.23811880001449026,0.1,1,0,AccFast,21,18,Woman,Right,
41,15,1,0.6842862999765202,['c'],1,left,['u'],1,0.10851730001741089,0.1,1,0,AccFast,21,18,Woman,Right,
42,15,1,1.583966199978022,['n'],1,right,['u'],1,0.0602601999999024,0.4,1,0,AccFast,21,18,Woman,Right,
43,15,1,0.9843745999969542,['c'],1,left,['e'],0,0.19717470000614412,0.2,0,0,AccFast,21,18,Woman,Right,
44,15,1,1.1011858000128996,['n'],0,left,['e'],0,0.06717009999556467,0.2,1,0,AccFast,21,18,Woman,Right,
45,15,1,0.8841258999891579,['c'],0,right,['e'],0,0.19171109999297187,0.2,1,0,AccFast,21,18,Woman,Right,
46,15,1,0.8509018000040669,['c'],1,left,['e'],0,0.0094600000011269,0.2,0,0,AccFast,21,18,Woman,Right,
47,15,1,0.8335672999965027,['c'],1,left,['e'],0,0.12124919999041595,0.4,0,0,AccFast,21,18,Woman,Right,
48,15,1,1.051057300006505,['n'],1,right,['e'],0,0.14148790002218448,0.1,0,0,AccFast,21,18,Woman,Right,
49,15,1,1.084264200006146,['n'],1,right,['e'],0,0.031407900009071454,0.2,0,0,AccFast,21,18,Woman,Right,
50,15,1,1.0843005999922752,['c'],1,left,['e'],0,0.036977299983846024,0.4,0,0,AccFast,21,18,Woman,Right,
51,15,1,1.0509741999849211,['n'],1,right,['e'],0,0.02881580000394024,0.4,0,0,AccFast,21,18,Woman,Right,
52,15,1,0.8346076000016183,['n'],1,right,['e'],0,0.07590979998349212,0.2,0,0,AccFast,21,18,Woman,Right,
53,15,1,1.1172718000016175,['c'],0,right,['u'],1,0.7831195000035223,0.4,0,0,AccFast,21,18,Woman,Right,
54,15,1,0.7672728000034112,['n'],1,right,['e'],0,0.0519563999841921,0.1,0,0,AccFast,21,18,Woman,Right,
55,15,1,0.5833198000036646,['n'],0,left,['e'],0,0.12576940000872128,0.2,1,0,AccFast,21,18,Woman,Right,
56,15,1,0.8344844999955967,['c'],1,left,['e'],0,0.07366699998965487,0.4,0,0,AccFast,21,18,Woman,Right,
57,15,1,1.0337323999847285,['c'],1,left,['e'],0,0.11209530002088286,0.1,0,0,AccFast,21,18,Woman,Right,
58,15,1,0.9665432999900077,['c'],0,right,['u'],1,0.11943510000128299,0.2,0,0,AccFast,21,18,Woman,Right,
59,15,1,0.9830699999874923,['c'],1,left,['e'],0,0.03009159999783151,0.1,0,0,AccFast,21,18,Woman,Right,
