withinblocktrial,block,block_repetition,rt,resp,cor,cresp,conf_press,cj,rtconf,coherence,metacognition,slow_trial,manipulation,sub,age,gender,handedness,
0,1,1,3.9013030999994953,['n'],1,right,none,-99,-99,0.5,-99,0,none,28,18,Woman,Right,
1,1,1,1.616725800000495,['n'],1,right,none,-99,-99,0.5,-99,0,none,28,18,Woman,Right,
2,1,1,1.9156225999995513,['c'],0,right,none,-99,-99,0.5,-99,0,none,28,18,Woman,Right,
3,1,1,1.400609300000724,['n'],0,left,none,-99,-99,0.5,-99,0,none,28,18,Woman,Right,
4,1,1,1.5834630999997898,['c'],1,left,none,-99,-99,0.5,-99,0,none,28,18,Woman,Right,
5,1,1,1.3507662000010896,['c'],1,left,none,-99,-99,0.5,-99,0,none,28,18,Woman,Right,
6,1,1,1.299651699999231,['c'],1,left,none,-99,-99,0.5,-99,0,none,28,18,Woman,Right,
7,1,1,0.9498304999997345,['c'],1,left,none,-99,-99,0.5,-99,0,none,28,18,Woman,Right,
8,1,1,1.76735650000046,['n'],1,right,none,-99,-99,0.5,-99,0,none,28,18,Woman,Right,
9,1,1,0.9164801999995689,['c'],1,left,none,-99,-99,0.5,-99,0,none,28,18,Woman,Right,
10,1,1,0.833400999999867,['n'],1,right,none,-99,-99,0.5,-99,0,none,28,18,Woman,Right,
11,1,1,1.4175482999999076,['n'],1,right,none,-99,-99,0.5,-99,0,none,28,18,Woman,Right,
12,1,1,1.2655422000007093,['n'],1,right,none,-99,-99,0.5,-99,0,none,28,18,Woman,Right,
13,1,1,1.067353300000832,['n'],1,right,none,-99,-99,0.5,-99,0,none,28,18,Woman,Right,
14,1,1,0.933765300000232,['n'],1,right,none,-99,-99,0.5,-99,0,none,28,18,Woman,Right,
15,1,1,0.8159959999993589,['c'],1,left,none,-99,-99,0.5,-99,0,none,28,18,Woman,Right,
16,1,1,0.8667409000008774,['c'],1,left,none,-99,-99,0.5,-99,0,none,28,18,Woman,Right,
17,1,1,0.7002415000006295,['c'],1,left,none,-99,-99,0.5,-99,0,none,28,18,Woman,Right,
18,1,1,0.8504518999998254,['c'],1,left,none,-99,-99,0.5,-99,0,none,28,18,Woman,Right,
19,1,1,1.4155346999996254,['n'],1,right,none,-99,-99,0.5,-99,0,none,28,18,Woman,Right,
20,1,1,0.8839451999992889,['c'],0,right,none,-99,-99,0.5,-99,0,none,28,18,Woman,Right,
21,1,1,1.1818710000006831,['c'],1,left,none,-99,-99,0.5,-99,0,none,28,18,Woman,Right,
22,1,1,1.9995400000007066,['c'],0,right,none,-99,-99,0.5,-99,0,none,28,18,Woman,Right,
23,1,1,0.933529500000077,['c'],1,left,none,-99,-99,0.5,-99,0,none,28,18,Woman,Right,
0,1,2,1.2847452999994857,['c'],1,left,none,-99,-99,0.5,-99,0,none,28,18,Woman,Right,
1,1,2,1.4674059000008128,['n'],1,right,none,-99,-99,0.5,-99,0,none,28,18,Woman,Right,
2,1,2,0.9683629999999539,['c'],1,left,none,-99,-99,0.5,-99,0,none,28,18,Woman,Right,
3,1,2,1.1839562999994087,['n'],1,right,none,-99,-99,0.5,-99,0,none,28,18,Woman,Right,
4,1,2,1.7668293000006088,['n'],1,right,none,-99,-99,0.5,-99,0,none,28,18,Woman,Right,
5,1,2,0.750335200000336,['c'],1,left,none,-99,-99,0.5,-99,0,none,28,18,Woman,Right,
6,1,2,0.7000613999989582,['c'],1,left,none,-99,-99,0.5,-99,0,none,28,18,Woman,Right,
7,1,2,0.7670007000015175,['c'],1,left,none,-99,-99,0.5,-99,0,none,28,18,Woman,Right,
8,1,2,1.1661776000000827,['n'],1,right,none,-99,-99,0.5,-99,0,none,28,18,Woman,Right,
9,1,2,0.8340482000003249,['c'],1,left,none,-99,-99,0.5,-99,0,none,28,18,Woman,Right,
10,1,2,0.7162158000010095,['c'],1,left,none,-99,-99,0.5,-99,0,none,28,18,Woman,Right,
11,1,2,0.7676828999992722,['c'],1,left,none,-99,-99,0.5,-99,0,none,28,18,Woman,Right,
12,1,2,0.6509648999999627,['c'],1,left,none,-99,-99,0.5,-99,0,none,28,18,Woman,Right,
13,1,2,0.7173920999994152,['c'],1,left,none,-99,-99,0.5,-99,0,none,28,18,Woman,Right,
14,1,2,0.600720000000365,['c'],1,left,none,-99,-99,0.5,-99,0,none,28,18,Woman,Right,
15,1,2,1.0337619999991148,['n'],1,right,none,-99,-99,0.5,-99,0,none,28,18,Woman,Right,
16,1,2,0.7835597999983293,['c'],0,right,none,-99,-99,0.5,-99,0,none,28,18,Woman,Right,
17,1,2,1.4324743000015587,['n'],1,right,none,-99,-99,0.5,-99,0,none,28,18,Woman,Right,
18,1,2,1.4158100999993621,['n'],1,right,none,-99,-99,0.5,-99,0,none,28,18,Woman,Right,
19,1,2,1.3008891000008589,['n'],1,right,none,-99,-99,0.5,-99,0,none,28,18,Woman,Right,
20,1,2,0.750705200000084,['n'],1,right,none,-99,-99,0.5,-99,0,none,28,18,Woman,Right,
21,1,2,0.548909500001173,['n'],1,right,none,-99,-99,0.5,-99,0,none,28,18,Woman,Right,
22,1,2,0.6833201999997982,['n'],1,right,none,-99,-99,0.5,-99,0,none,28,18,Woman,Right,
23,1,2,0.7169634999991104,['c'],1,left,none,-99,-99,0.5,-99,0,none,28,18,Woman,Right,
0,2,1,1.701070900000559,['c'],1,left,none,-99,-99,0.2,-99,0,none,28,18,Woman,Right,
1,2,1,1.5333637000003364,['n'],0,left,none,-99,-99,0.1,-99,0,none,28,18,Woman,Right,
2,2,1,1.5341060999999172,['n'],0,left,none,-99,-99,0.2,-99,0,none,28,18,Woman,Right,
3,2,1,1.299405100000513,['n'],1,right,none,-99,-99,0.4,-99,0,none,28,18,Woman,Right,
4,2,1,1.734419300000809,['c'],1,left,none,-99,-99,0.2,-99,0,none,28,18,Woman,Right,
5,2,1,2.399977000000945,['c'],1,left,none,-99,-99,0.2,-99,0,none,28,18,Woman,Right,
6,2,1,0.8668387999987317,['c'],1,left,none,-99,-99,0.4,-99,0,none,28,18,Woman,Right,
7,2,1,3.0165252999995573,['c'],0,right,none,-99,-99,0.1,-99,0,none,28,18,Woman,Right,
8,2,1,0.8325988000015059,['n'],0,left,none,-99,-99,0.2,-99,0,none,28,18,Woman,Right,
9,2,1,2.733400900000561,['n'],1,right,none,-99,-99,0.4,-99,0,none,28,18,Woman,Right,
10,2,1,2.2820873000000574,['n'],0,left,none,-99,-99,0.2,-99,0,none,28,18,Woman,Right,
11,2,1,3.7998248000003514,['c'],1,left,none,-99,-99,0.1,-99,0,none,28,18,Woman,Right,
12,2,1,3.566756300000634,['c'],1,left,none,-99,-99,0.4,-99,0,none,28,18,Woman,Right,
13,2,1,3.399868200000128,['n'],1,right,none,-99,-99,0.4,-99,0,none,28,18,Woman,Right,
14,2,1,1.2669173999984196,['c'],1,left,none,-99,-99,0.4,-99,0,none,28,18,Woman,Right,
15,2,1,1.0167598999996699,['n'],1,right,none,-99,-99,0.4,-99,0,none,28,18,Woman,Right,
16,2,1,1.666774199999054,['n'],1,right,none,-99,-99,0.1,-99,0,none,28,18,Woman,Right,
17,2,1,1.6185860999994475,['n'],1,right,none,-99,-99,0.4,-99,0,none,28,18,Woman,Right,
18,2,1,1.2171069999985775,['n'],1,right,none,-99,-99,0.1,-99,0,none,28,18,Woman,Right,
19,2,1,1.5504369999998744,['n'],1,right,none,-99,-99,0.2,-99,0,none,28,18,Woman,Right,
20,2,1,1.3172400000003108,['c'],0,right,none,-99,-99,0.1,-99,0,none,28,18,Woman,Right,
21,2,1,1.050368600001093,['n'],0,left,none,-99,-99,0.2,-99,0,none,28,18,Woman,Right,
22,2,1,3.581868500001292,['n'],1,right,none,-99,-99,0.1,-99,0,none,28,18,Woman,Right,
23,2,1,1.28365119999944,['n'],1,right,none,-99,-99,0.1,-99,0,none,28,18,Woman,Right,
0,3,1,2.4008453999995254,['n'],0,left,['u'],0,1.308430099999896,0.2,1,0,none,28,18,Woman,Right,
1,3,1,2.900627999999415,['n'],1,right,['e'],1,1.4034670000000915,0.2,1,0,none,28,18,Woman,Right,
2,3,1,1.3010343999994802,['n'],1,right,['e'],1,1.2549929999986489,0.4,1,0,none,28,18,Woman,Right,
3,3,1,1.1994482000009157,['n'],1,right,['e'],1,1.0194456999997783,0.2,1,0,none,28,18,Woman,Right,
4,3,1,0.9522070000002714,['n'],1,right,['e'],1,1.1390401999997266,0.1,1,0,none,28,18,Woman,Right,
5,3,1,2.5844655000000785,['c'],0,right,['u'],0,0.9010140000009415,0.1,1,0,none,28,18,Woman,Right,
6,3,1,1.0681165000005421,['n'],1,right,['e'],1,0.46083160000125645,0.2,1,0,none,28,18,Woman,Right,
7,3,1,2.8497277999995276,['c'],1,left,['u'],0,0.8797580000009475,0.2,0,0,none,28,18,Woman,Right,
8,3,1,3.5326528000005055,['c'],1,left,['u'],0,0.8060623999990639,0.2,0,0,none,28,18,Woman,Right,
9,3,1,1.8173312999988411,['n'],1,right,['u'],0,1.3656038000008266,0.1,0,0,none,28,18,Woman,Right,
10,3,1,1.9662532000002102,['n'],1,right,['e'],1,0.598279800000455,0.4,1,0,none,28,18,Woman,Right,
11,3,1,1.5179416999999376,['n'],1,right,['e'],1,0.47141369999917515,0.1,1,0,none,28,18,Woman,Right,
12,3,1,1.8342690999998013,['c'],1,left,['u'],0,0.7542708000000857,0.2,0,0,none,28,18,Woman,Right,
13,3,1,5.016237199999523,x,-99,left,none,-99,-99,0.1,-99,1,none,28,18,Woman,Right,
14,3,1,1.1168342000000848,['c'],0,right,['u'],0,0.6370599000001675,0.1,1,0,none,28,18,Woman,Right,
15,3,1,1.0663437000002887,['c'],1,left,['e'],1,0.6073283000005176,0.4,1,0,none,28,18,Woman,Right,
16,3,1,1.4342961000002106,['c'],1,left,['e'],1,1.780580499998905,0.2,1,0,none,28,18,Woman,Right,
17,3,1,0.9171173000013368,['c'],1,left,['e'],1,0.3514015000000654,0.4,1,0,none,28,18,Woman,Right,
18,3,1,0.9839262999994389,['c'],1,left,['e'],1,0.3364197000009881,0.4,1,0,none,28,18,Woman,Right,
19,3,1,0.8011046999999962,['c'],1,left,['e'],1,0.921551699999327,0.4,1,0,none,28,18,Woman,Right,
20,3,1,1.18452779999825,['c'],1,left,['e'],1,0.5401774000001751,0.4,1,0,none,28,18,Woman,Right,
21,3,1,1.650845300000583,['c'],0,right,['u'],0,0.6194212999998854,0.1,1,0,none,28,18,Woman,Right,
22,3,1,1.150780299998587,['n'],1,right,['e'],1,0.5554156999987754,0.4,1,0,none,28,18,Woman,Right,
23,3,1,1.317602099999931,['c'],1,left,['u'],0,0.4711275999998179,0.1,0,0,none,28,18,Woman,Right,
0,4,1,2.267523100001199,['n'],1,right,['e'],1,3.0737472000000707,0.4,1,0,AccAcc,28,18,Woman,Right,
1,4,1,1.2673193000009633,['n'],1,right,['e'],1,1.0475502999997843,0.4,1,0,AccAcc,28,18,Woman,Right,
2,4,1,4.717166899999938,['c'],1,left,['u'],0,0.4681425999988278,0.2,0,0,AccAcc,28,18,Woman,Right,
3,4,1,2.250865899999553,['c'],1,left,['e'],1,0.7781685999998444,0.2,1,0,AccAcc,28,18,Woman,Right,
4,4,1,1.5842127000014443,['n'],1,right,['e'],1,0.9742800000003626,0.2,1,0,AccAcc,28,18,Woman,Right,
5,4,1,2.9830154000010225,['c'],0,right,['u'],0,0.6752347000001464,0.1,1,0,AccAcc,28,18,Woman,Right,
6,4,1,2.2835123000004387,['n'],1,right,['e'],1,0.36816240000007383,0.1,1,0,AccAcc,28,18,Woman,Right,
7,4,1,0.9347953999986203,['c'],1,left,['e'],1,0.5430496999997558,0.4,1,0,AccAcc,28,18,Woman,Right,
8,4,1,1.3184377000015957,['n'],1,right,['e'],1,0.23121610000089277,0.4,1,0,AccAcc,28,18,Woman,Right,
9,4,1,1.116802499998812,['c'],1,left,['e'],1,0.4038332999989507,0.4,1,0,AccAcc,28,18,Woman,Right,
10,4,1,0.9179696999999578,['c'],1,left,['u'],0,0.6096591999994416,0.4,0,0,AccAcc,28,18,Woman,Right,
11,4,1,1.5002674000006664,['n'],1,right,['u'],0,1.2003730999986146,0.2,0,0,AccAcc,28,18,Woman,Right,
12,4,1,1.4175352000002022,['c'],1,left,['u'],0,0.8264526000002661,0.1,0,0,AccAcc,28,18,Woman,Right,
13,4,1,1.8009968000005756,['c'],0,right,['e'],1,0.38866300000154297,0.2,0,0,AccAcc,28,18,Woman,Right,
14,4,1,2.0179157000002306,['c'],1,left,['e'],1,0.35942359999899054,0.1,1,0,AccAcc,28,18,Woman,Right,
15,4,1,1.850943699999334,['n'],0,left,['u'],0,0.2747940999997809,0.2,1,0,AccAcc,28,18,Woman,Right,
16,4,1,2.3001776999990398,['n'],1,right,['e'],1,0.5422632999998314,0.4,1,0,AccAcc,28,18,Woman,Right,
17,4,1,1.1670137000000977,['n'],1,right,['e'],1,0.3328641999996762,0.4,1,0,AccAcc,28,18,Woman,Right,
18,4,1,3.450407099999211,['c'],1,left,['e'],1,0.3445676999999705,0.1,1,0,AccAcc,28,18,Woman,Right,
19,4,1,1.8014624999996158,['c'],1,left,['u'],0,0.5980290999996214,0.2,0,0,AccAcc,28,18,Woman,Right,
20,4,1,2.0673740000002,['n'],0,left,['u'],0,0.7499149000013858,0.1,1,0,AccAcc,28,18,Woman,Right,
21,4,1,1.2504265999996278,['n'],1,right,['u'],0,0.8645852999998169,0.1,0,0,AccAcc,28,18,Woman,Right,
22,4,1,1.2333510999997088,['n'],1,right,['e'],1,0.38396730000022217,0.4,1,0,AccAcc,28,18,Woman,Right,
23,4,1,1.1007787999988068,['n'],1,right,['u'],0,0.5186424000003171,0.2,0,0,AccAcc,28,18,Woman,Right,
24,4,1,2.000485700000354,['n'],1,right,['e'],1,0.5807076000000961,0.1,1,0,AccAcc,28,18,Woman,Right,
25,4,1,1.249667000000045,['n'],0,left,['u'],0,1.2940244999990682,0.4,1,0,AccAcc,28,18,Woman,Right,
26,4,1,2.501009999999951,['n'],0,left,['u'],0,0.20162320000054024,0.1,1,0,AccAcc,28,18,Woman,Right,
27,4,1,3.748734599999807,['c'],1,left,['e'],1,0.4794664000000921,0.1,1,0,AccAcc,28,18,Woman,Right,
28,4,1,4.282828499999596,['c'],1,left,['e'],1,0.30742689999897266,0.1,1,0,AccAcc,28,18,Woman,Right,
29,4,1,1.7005676999997377,['n'],0,left,['u'],0,0.26168179999876884,0.1,1,0,AccAcc,28,18,Woman,Right,
30,4,1,2.749482799999896,['n'],0,left,['e'],1,0.3527028999997128,0.2,0,0,AccAcc,28,18,Woman,Right,
31,4,1,1.5511034000010113,['n'],1,right,['e'],1,1.4148292999998375,0.2,1,0,AccAcc,28,18,Woman,Right,
32,4,1,3.0506564999996044,['c'],0,right,['u'],0,0.551226300000053,0.2,1,0,AccAcc,28,18,Woman,Right,
33,4,1,3.2838009999995847,['n'],1,right,['e'],1,0.640879100001257,0.1,1,0,AccAcc,28,18,Woman,Right,
34,4,1,1.4161097000014706,['n'],1,right,['e'],1,0.3067770000016026,0.2,1,0,AccAcc,28,18,Woman,Right,
35,4,1,2.7507738000003883,['c'],0,right,['u'],0,0.6024842000006174,0.1,1,0,AccAcc,28,18,Woman,Right,
36,4,1,2.9997045999989496,['n'],1,right,['u'],0,0.4300074000002496,0.4,0,0,AccAcc,28,18,Woman,Right,
37,4,1,2.3831520000003366,['c'],1,left,['u'],0,0.6558386999986396,0.4,0,0,AccAcc,28,18,Woman,Right,
38,4,1,2.2842303999987053,['n'],1,right,['e'],1,0.8290180999993026,0.2,1,0,AccAcc,28,18,Woman,Right,
39,4,1,1.5011512999990373,['n'],1,right,['u'],0,0.16240130000005593,0.1,0,0,AccAcc,28,18,Woman,Right,
40,4,1,1.2511997999990854,['n'],0,left,['u'],0,0.15695819999928062,0.2,1,0,AccAcc,28,18,Woman,Right,
41,4,1,1.467764699998952,['c'],1,left,['u'],0,0.46221370000057505,0.4,0,0,AccAcc,28,18,Woman,Right,
42,4,1,3.9171961000010924,['n'],1,right,['u'],0,0.49805580000065675,0.2,0,0,AccAcc,28,18,Woman,Right,
43,4,1,1.5174334000003,['c'],1,left,['u'],0,0.6280817000006209,0.2,0,0,AccAcc,28,18,Woman,Right,
44,4,1,1.3844472000000678,['n'],1,right,['u'],0,0.326734000000215,0.1,0,0,AccAcc,28,18,Woman,Right,
45,4,1,1.5505537999997614,['c'],1,left,['e'],1,1.022640400000455,0.1,1,0,AccAcc,28,18,Woman,Right,
46,4,1,1.866728899998634,['c'],1,left,['u'],0,0.28616370000054303,0.2,0,0,AccAcc,28,18,Woman,Right,
47,4,1,1.8672974999990402,['c'],1,left,['e'],1,0.826860499999384,0.4,1,0,AccAcc,28,18,Woman,Right,
48,4,1,1.2841773000000103,['c'],1,left,['e'],1,0.29763760000059847,0.4,1,0,AccAcc,28,18,Woman,Right,
49,4,1,1.5835581999999704,['n'],1,right,['u'],0,0.2729982000000746,0.4,0,0,AccAcc,28,18,Woman,Right,
50,4,1,1.399959200000012,['c'],1,left,['e'],1,0.32109029999992345,0.2,1,0,AccAcc,28,18,Woman,Right,
51,4,1,1.316522299999633,['c'],1,left,['e'],1,0.22606550000091374,0.2,1,0,AccAcc,28,18,Woman,Right,
52,4,1,4.367212400000426,['n'],1,right,['e'],1,0.22179759999926318,0.1,1,0,AccAcc,28,18,Woman,Right,
53,4,1,1.4678172000003542,['c'],1,left,['e'],1,0.3010487000010471,0.4,1,0,AccAcc,28,18,Woman,Right,
54,4,1,1.3334457999990263,['n'],1,right,['e'],1,0.14242949999970733,0.4,1,0,AccAcc,28,18,Woman,Right,
55,4,1,1.7010079000010592,['n'],1,right,['e'],1,0.1836012000003393,0.4,1,0,AccAcc,28,18,Woman,Right,
56,4,1,0.9989561999991565,['n'],1,right,['e'],1,0.17148939999970025,0.4,1,0,AccAcc,28,18,Woman,Right,
57,4,1,3.41665809999904,['n'],0,left,['u'],0,0.2225453999999445,0.1,1,0,AccAcc,28,18,Woman,Right,
58,4,1,1.1674444000000221,['c'],1,left,['e'],1,0.3138505000006262,0.2,1,0,AccAcc,28,18,Woman,Right,
59,4,1,2.334129499999108,['n'],1,right,['u'],0,0.5145702999998321,0.1,0,0,AccAcc,28,18,Woman,Right,
0,5,1,2.251268500000151,['c'],1,left,['e'],1,0.23811579999892274,0.2,1,0,FastAcc,28,18,Woman,Right,
1,5,1,1.5508042000001296,['n'],1,right,['e'],1,0.8736102999991999,0.4,1,0,FastAcc,28,18,Woman,Right,
2,5,1,1.167034699999931,['c'],1,left,['e'],1,0.26680080000005546,0.4,1,0,FastAcc,28,18,Woman,Right,
3,5,1,0.9176688000006834,['c'],1,left,['e'],1,0.2699253000009776,0.4,1,0,FastAcc,28,18,Woman,Right,
4,5,1,1.8666116000003967,['c'],1,left,['u'],0,0.39598280000063824,0.2,0,0,FastAcc,28,18,Woman,Right,
5,5,1,1.250829700000395,['c'],1,left,['u'],0,0.1399029000003793,0.1,0,0,FastAcc,28,18,Woman,Right,
6,5,1,1.6176524000002246,['n'],1,right,['u'],0,0.23268300000017916,0.1,0,0,FastAcc,28,18,Woman,Right,
7,5,1,1.7345956999997725,['n'],1,right,['e'],1,0.30100970000057714,0.2,1,0,FastAcc,28,18,Woman,Right,
8,5,1,2.1162173000011535,['n'],1,right,['e'],1,0.3027239000002737,0.4,1,0,FastAcc,28,18,Woman,Right,
9,5,1,2.1333312000006117,['n'],1,right,['e'],1,0.32043309999971825,0.4,1,0,FastAcc,28,18,Woman,Right,
10,5,1,1.6175948000000062,['c'],1,left,['e'],1,0.3736064000004262,0.2,1,0,FastAcc,28,18,Woman,Right,
11,5,1,1.9502765999986877,['c'],0,right,['u'],0,1.4195154000008188,0.1,1,0,FastAcc,28,18,Woman,Right,
12,5,1,2.216806300000826,['c'],0,right,['u'],0,0.23726759999954083,0.2,1,0,FastAcc,28,18,Woman,Right,
13,5,1,2.4683752000000823,['c'],0,right,['u'],0,0.18006919999970705,0.2,1,0,FastAcc,28,18,Woman,Right,
14,5,1,2.3171032999998715,['c'],1,left,['u'],0,0.13067229999978736,0.1,0,0,FastAcc,28,18,Woman,Right,
15,5,1,2.634407600000486,['n'],1,right,['e'],1,0.3107631000002584,0.2,1,0,FastAcc,28,18,Woman,Right,
16,5,1,4.11746470000071,['n'],0,left,['u'],0,0.21725419999893347,0.1,1,0,FastAcc,28,18,Woman,Right,
17,5,1,1.7000026000005164,['n'],0,left,['u'],0,0.8472910000000411,0.1,1,0,FastAcc,28,18,Woman,Right,
18,5,1,1.3343232999995962,['n'],0,left,['e'],1,0.6026775000009366,0.1,0,0,FastAcc,28,18,Woman,Right,
19,5,1,1.767463800000769,['c'],1,left,['e'],1,0.22268260000055307,0.4,1,0,FastAcc,28,18,Woman,Right,
20,5,1,2.382917599999928,['c'],1,left,['u'],0,0.31388370000058785,0.2,0,0,FastAcc,28,18,Woman,Right,
21,5,1,2.866936700000224,['n'],1,right,['u'],0,0.2852664999991248,0.1,0,0,FastAcc,28,18,Woman,Right,
22,5,1,5.015488099999857,x,-99,right,none,-99,-99,0.2,-99,1,FastAcc,28,18,Woman,Right,
23,5,1,1.6176011999996263,['c'],1,left,['u'],0,0.4786700999993627,0.2,0,0,FastAcc,28,18,Woman,Right,
24,5,1,1.4173935999988316,['c'],1,left,['e'],1,0.18139329999939946,0.4,1,0,FastAcc,28,18,Woman,Right,
25,5,1,2.4997029999994993,['n'],1,right,['u'],0,0.12549980000039795,0.1,0,0,FastAcc,28,18,Woman,Right,
26,5,1,1.7847194999994827,['c'],1,left,['e'],1,0.18069399999876623,0.2,1,0,FastAcc,28,18,Woman,Right,
27,5,1,1.6679698999996617,['n'],1,right,['u'],0,0.7639173000006849,0.1,0,0,FastAcc,28,18,Woman,Right,
28,5,1,0.9337950000008277,['c'],1,left,['e'],1,0.26665370000046096,0.4,1,0,FastAcc,28,18,Woman,Right,
29,5,1,1.2509299000012106,['n'],1,right,['e'],1,0.2086187000004429,0.1,1,0,FastAcc,28,18,Woman,Right,
30,5,1,1.4688159999986965,['c'],1,left,['e'],1,0.22460660000069765,0.4,1,0,FastAcc,28,18,Woman,Right,
31,5,1,1.2013872000006813,['n'],1,right,['e'],1,0.15482799999881536,0.2,1,0,FastAcc,28,18,Woman,Right,
32,5,1,1.1834552000000258,['n'],0,left,['e'],1,0.19957929999873159,0.1,0,0,FastAcc,28,18,Woman,Right,
33,5,1,1.3507895999991888,['c'],1,left,['e'],1,0.1881721000008838,0.4,1,0,FastAcc,28,18,Woman,Right,
34,5,1,1.3836041999984445,['c'],1,left,['e'],1,0.22413719999894965,0.2,1,0,FastAcc,28,18,Woman,Right,
35,5,1,0.7176776999986032,['c'],1,left,['e'],1,0.2374006999998528,0.4,1,0,FastAcc,28,18,Woman,Right,
36,5,1,0.8847220999996352,['n'],1,right,['e'],1,0.17906589999984135,0.4,1,0,FastAcc,28,18,Woman,Right,
37,5,1,1.3331973000003927,['c'],1,left,['e'],1,0.10519459999886749,0.2,1,0,FastAcc,28,18,Woman,Right,
38,5,1,1.5344693999995798,['c'],0,right,['e'],1,0.10630700000001525,0.1,0,0,FastAcc,28,18,Woman,Right,
39,5,1,1.500944299999901,['n'],1,right,['u'],0,0.10919540000031702,0.1,0,0,FastAcc,28,18,Woman,Right,
40,5,1,1.3009151999995083,['n'],1,right,['e'],1,0.10357370000019728,0.4,1,0,FastAcc,28,18,Woman,Right,
41,5,1,1.3843526000000566,['n'],0,left,['u'],0,0.19049880000056874,0.1,1,0,FastAcc,28,18,Woman,Right,
42,5,1,1.4009895999988657,['n'],1,right,['u'],0,0.48194669999975304,0.2,0,0,FastAcc,28,18,Woman,Right,
43,5,1,0.8679446000005555,['c'],1,left,['e'],1,0.1903018000011798,0.4,1,0,FastAcc,28,18,Woman,Right,
44,5,1,1.666919900000721,['c'],1,left,['e'],1,0.13545840000006137,0.1,1,0,FastAcc,28,18,Woman,Right,
45,5,1,0.9330666999994719,['n'],0,left,['e'],1,0.3352671000011469,0.1,0,0,FastAcc,28,18,Woman,Right,
46,5,1,0.9171341000001121,['n'],1,right,['e'],1,0.14350460000059684,0.4,1,0,FastAcc,28,18,Woman,Right,
47,5,1,1.2165824999992765,['n'],1,right,['u'],0,0.140484399998968,0.2,0,0,FastAcc,28,18,Woman,Right,
48,5,1,1.8167557999986457,['n'],1,right,['e'],1,0.11309089999849675,0.4,1,0,FastAcc,28,18,Woman,Right,
49,5,1,0.8005802999996376,['n'],1,right,['e'],1,0.12628760000006878,0.1,1,0,FastAcc,28,18,Woman,Right,
50,5,1,1.184670399999959,['n'],1,right,['u'],0,0.1410092000005534,0.1,0,0,FastAcc,28,18,Woman,Right,
51,5,1,1.1676886000004743,['n'],0,left,['e'],1,0.2514916000000085,0.2,0,0,FastAcc,28,18,Woman,Right,
52,5,1,2.3181000000004133,['n'],1,right,['e'],1,1.1116330999993806,0.4,1,0,FastAcc,28,18,Woman,Right,
53,5,1,0.9010696000004828,['c'],1,left,['e'],1,0.2017790000008972,0.4,1,0,FastAcc,28,18,Woman,Right,
54,5,1,0.9842645000007906,['n'],1,right,['e'],1,0.1889556000005541,0.4,1,0,FastAcc,28,18,Woman,Right,
55,5,1,0.6323711999993975,['c'],1,left,['e'],1,0.2560990000001766,0.4,1,0,FastAcc,28,18,Woman,Right,
56,5,1,0.6520980999994208,['c'],1,left,['e'],1,0.2703818999998475,0.2,1,0,FastAcc,28,18,Woman,Right,
57,5,1,1.9340597999998863,['n'],1,right,['e'],1,0.2477303000014217,0.1,1,0,FastAcc,28,18,Woman,Right,
58,5,1,1.1168363999986468,['n'],1,right,['u'],0,0.11559410000154458,0.2,0,0,FastAcc,28,18,Woman,Right,
59,5,1,1.8507577999989735,['n'],1,right,['e'],1,1.591929700000037,0.2,1,0,FastAcc,28,18,Woman,Right,
0,6,1,1.1847655000001396,['c'],1,left,['u'],0,0.7485586000002513,0.4,0,0,FastFast,28,18,Woman,Right,
1,6,1,1.4508337000006577,['c'],1,left,['e'],1,1.5912487999994482,0.4,1,0,FastFast,28,18,Woman,Right,
2,6,1,1.317726199999015,['c'],1,left,['e'],1,0.19795700000031502,0.1,1,0,FastFast,28,18,Woman,Right,
3,6,1,1.7335016999986692,['n'],1,right,['u'],0,0.1231286000002001,0.1,0,0,FastFast,28,18,Woman,Right,
4,6,1,1.666252799999711,['n'],1,right,['e'],1,0.40717159999985597,0.4,1,0,FastFast,28,18,Woman,Right,
5,6,1,1.201042000000598,['n'],1,right,['e'],1,0.18531660000007832,0.4,1,0,FastFast,28,18,Woman,Right,
6,6,1,0.8847002000002249,['c'],1,left,['e'],1,0.36902460000055726,0.2,1,0,FastFast,28,18,Woman,Right,
7,6,1,0.9675003000011202,['c'],1,left,['e'],1,0.15805209999962244,0.2,1,0,FastFast,28,18,Woman,Right,
8,6,1,1.334123599999657,['c'],1,left,['e'],1,0.18153170000005048,0.2,1,0,FastFast,28,18,Woman,Right,
9,6,1,1.2178709000017989,['n'],1,right,['u'],0,0.2240646000009292,0.2,0,0,FastFast,28,18,Woman,Right,
10,6,1,0.6346300000004703,['c'],1,left,['e'],1,0.1603964999994787,0.4,1,0,FastFast,28,18,Woman,Right,
11,6,1,1.0347058000006655,['n'],1,right,['u'],0,0.14748300000064773,0.1,0,0,FastFast,28,18,Woman,Right,
12,6,1,1.2847261000006256,['n'],1,right,['e'],1,0.10904429999936838,0.4,1,0,FastFast,28,18,Woman,Right,
13,6,1,1.1171634000002086,['n'],1,right,['u'],0,0.318666299999677,0.1,0,0,FastFast,28,18,Woman,Right,
14,6,1,1.4006561999995029,['c'],1,left,['e'],1,0.1568732000014279,0.1,1,0,FastFast,28,18,Woman,Right,
15,6,1,1.3008167999996658,['n'],0,left,['u'],0,0.22922079999989364,0.1,1,0,FastFast,28,18,Woman,Right,
16,6,1,1.101134099999399,['n'],1,right,['u'],0,0.11433459999898332,0.2,0,0,FastFast,28,18,Woman,Right,
17,6,1,1.0180194000004121,['n'],1,right,['u'],0,0.2474028000015096,0.2,0,0,FastFast,28,18,Woman,Right,
18,6,1,1.5993868000005023,['n'],1,right,['u'],0,0.1764686000005895,0.1,0,0,FastFast,28,18,Woman,Right,
19,6,1,2.0165445000002364,['n'],1,right,['e'],1,0.23552139999992505,0.1,1,0,FastFast,28,18,Woman,Right,
20,6,1,2.833816600001228,['n'],0,left,['e'],1,0.30799579999984417,0.2,0,0,FastFast,28,18,Woman,Right,
21,6,1,3.3332211000015377,['n'],1,right,['e'],1,0.19733850000011444,0.4,1,0,FastFast,28,18,Woman,Right,
22,6,1,2.4842325000008714,['n'],0,left,['e'],1,0.20490950000021257,0.2,0,0,FastFast,28,18,Woman,Right,
23,6,1,4.234297500001048,['n'],0,left,['u'],0,0.0789401000001817,0.2,1,0,FastFast,28,18,Woman,Right,
24,6,1,4.716618100001142,['n'],1,right,['e'],1,0.21013289999973495,0.4,1,0,FastFast,28,18,Woman,Right,
25,6,1,5.000016500000129,x,-99,left,none,-99,-99,0.1,-99,1,FastFast,28,18,Woman,Right,
26,6,1,0.8842010999997001,['n'],0,left,['e'],1,0.11671910000040953,0.4,0,0,FastFast,28,18,Woman,Right,
27,6,1,5.015413700000863,x,-99,left,none,-99,-99,0.4,-99,1,FastFast,28,18,Woman,Right,
28,6,1,2.0504471999993257,['n'],1,right,['e'],1,0.17163439999967522,0.1,1,0,FastFast,28,18,Woman,Right,
29,6,1,2.817167100000006,['n'],1,right,['e'],1,0.12002039999970293,0.2,1,0,FastFast,28,18,Woman,Right,
30,6,1,2.1840661999995064,['c'],0,right,['e'],1,0.126200600001539,0.2,0,0,FastFast,28,18,Woman,Right,
31,6,1,1.1505101999991894,['c'],1,left,['e'],1,0.157672299999831,0.4,1,0,FastFast,28,18,Woman,Right,
32,6,1,1.2332060000007914,['n'],1,right,['e'],1,0.16892720000032568,0.1,1,0,FastFast,28,18,Woman,Right,
33,6,1,1.6508960999999545,['n'],1,right,['e'],1,0.2109787999997934,0.1,1,0,FastFast,28,18,Woman,Right,
34,6,1,0.7831528999995498,['n'],1,right,['e'],1,0.20606709999992745,0.1,1,0,FastFast,28,18,Woman,Right,
35,6,1,1.1012523999997939,['n'],1,right,['e'],1,0.09247060000052443,0.4,1,0,FastFast,28,18,Woman,Right,
36,6,1,1.2834150999988196,['c'],1,left,['e'],1,0.10473569999885513,0.4,1,0,FastFast,28,18,Woman,Right,
37,6,1,1.1518255999999383,['c'],1,left,['e'],1,0.31333989999984624,0.2,1,0,FastFast,28,18,Woman,Right,
38,6,1,1.7508828999998514,['c'],1,left,['e'],1,0.569091400000616,0.1,1,0,FastFast,28,18,Woman,Right,
39,6,1,0.9500743999997212,['c'],1,left,['e'],1,0.20700709999982791,0.2,1,0,FastFast,28,18,Woman,Right,
40,6,1,1.6508374999993976,['n'],1,right,['u'],0,0.15165989999877638,0.4,0,0,FastFast,28,18,Woman,Right,
41,6,1,1.5838251000004675,['c'],1,left,['e'],1,0.14879770000152348,0.2,1,0,FastFast,28,18,Woman,Right,
42,6,1,0.917551699998512,['c'],0,right,['e'],1,0.10930949999965378,0.1,0,0,FastFast,28,18,Woman,Right,
43,6,1,1.5507541999995738,['n'],0,left,['u'],0,0.15757750000011583,0.2,1,0,FastFast,28,18,Woman,Right,
44,6,1,1.1844385000003967,['n'],1,right,['u'],0,0.42789189999894006,0.4,0,0,FastFast,28,18,Woman,Right,
45,6,1,1.217602500000794,['c'],0,right,['u'],0,0.5398031999993691,0.2,1,0,FastFast,28,18,Woman,Right,
46,6,1,0.9676562000004196,['n'],1,right,['u'],0,0.562372399999731,0.4,0,0,FastFast,28,18,Woman,Right,
47,6,1,1.367047800000364,['c'],0,right,['u'],0,0.18428409999978612,0.4,1,0,FastFast,28,18,Woman,Right,
48,6,1,1.3337659999997413,['n'],0,left,['u'],0,0.1421903000009479,0.2,1,0,FastFast,28,18,Woman,Right,
49,6,1,2.1503364000000147,['n'],0,left,['u'],0,0.14915259999906993,0.1,1,0,FastFast,28,18,Woman,Right,
50,6,1,2.3506405999996787,['c'],1,left,['u'],0,0.18001960000037798,0.1,0,0,FastFast,28,18,Woman,Right,
51,6,1,2.5162120000004506,['c'],1,left,['u'],0,0.26713910000034957,0.4,0,0,FastFast,28,18,Woman,Right,
52,6,1,2.716650500000469,['n'],0,left,['u'],0,0.2621947999996337,0.2,1,0,FastFast,28,18,Woman,Right,
53,6,1,0.9996164000003773,['c'],1,left,['u'],0,0.1501341000002867,0.1,0,0,FastFast,28,18,Woman,Right,
54,6,1,0.9833773999998812,['c'],0,right,['u'],0,0.3310180999997101,0.2,1,0,FastFast,28,18,Woman,Right,
55,6,1,0.9693984000005003,['c'],1,left,['u'],0,0.21763499999906344,0.1,0,0,FastFast,28,18,Woman,Right,
56,6,1,0.9495587000001251,['c'],1,left,['u'],0,0.41419590000077733,0.2,0,0,FastFast,28,18,Woman,Right,
57,6,1,1.317115100000592,['n'],1,right,['u'],0,0.2831287999997585,0.4,0,0,FastFast,28,18,Woman,Right,
58,6,1,2.4830152000013186,['n'],1,right,['u'],0,0.33565400000043155,0.4,0,0,FastFast,28,18,Woman,Right,
59,6,1,1.7348317000014504,['n'],1,right,['u'],0,0.14286079999874346,0.1,0,0,FastFast,28,18,Woman,Right,
0,7,1,1.4343662999999651,['n'],1,right,['e'],1,0.8102197000007436,0.2,1,0,AccFast,28,18,Woman,Right,
1,7,1,1.8176686999995582,['n'],1,right,['u'],0,0.500370899999325,0.1,0,0,AccFast,28,18,Woman,Right,
2,7,1,2.1693208000015147,['n'],0,left,['u'],0,0.22055649999856541,0.2,1,0,AccFast,28,18,Woman,Right,
3,7,1,0.967957099999694,['c'],1,left,['e'],1,0.4318426999998337,0.4,1,0,AccFast,28,18,Woman,Right,
4,7,1,1.2335657000003266,['n'],1,right,['u'],0,0.17540600000029372,0.1,0,0,AccFast,28,18,Woman,Right,
5,7,1,1.3511596999996982,['c'],1,left,['u'],0,0.6935068999991927,0.4,0,0,AccFast,28,18,Woman,Right,
6,7,1,0.7833424000000377,['n'],1,right,['e'],1,0.15746709999984887,0.2,1,0,AccFast,28,18,Woman,Right,
7,7,1,1.317035300000498,['n'],1,right,['e'],1,0.3254300000007788,0.4,1,0,AccFast,28,18,Woman,Right,
8,7,1,0.9177095999984886,['n'],1,right,['e'],1,0.2463557999999466,0.4,1,0,AccFast,28,18,Woman,Right,
9,7,1,2.450643600001058,['n'],1,right,['u'],0,1.0852764999999636,0.2,0,0,AccFast,28,18,Woman,Right,
10,7,1,1.7171164000010322,['n'],1,right,['e'],1,0.40028309999979683,0.2,1,0,AccFast,28,18,Woman,Right,
11,7,1,2.31616109999959,['c'],1,left,['u'],0,0.2785360000016226,0.1,0,0,AccFast,28,18,Woman,Right,
12,7,1,1.3513659000000189,['n'],1,right,['e'],1,0.2001668000011705,0.2,1,0,AccFast,28,18,Woman,Right,
13,7,1,1.4006859000000986,['c'],1,left,['e'],1,0.3787467000001925,0.4,1,0,AccFast,28,18,Woman,Right,
14,7,1,1.5173703000000387,['n'],1,right,['u'],0,0.19330599999921105,0.4,0,0,AccFast,28,18,Woman,Right,
15,7,1,1.4505521999999473,['c'],1,left,['e'],1,0.22686130000147386,0.4,1,0,AccFast,28,18,Woman,Right,
16,7,1,0.9179958000004262,['c'],1,left,['e'],1,0.18386800000007497,0.2,1,0,AccFast,28,18,Woman,Right,
17,7,1,0.8503326999998535,['c'],1,left,['e'],1,0.17708390000007057,0.4,1,0,AccFast,28,18,Woman,Right,
18,7,1,0.801365799999985,['c'],1,left,['e'],1,0.28484759999992093,0.1,1,0,AccFast,28,18,Woman,Right,
19,7,1,0.7824929999987944,['c'],1,left,['e'],1,0.16595320000124048,0.1,1,0,AccFast,28,18,Woman,Right,
20,7,1,1.2850346000013815,['c'],1,left,['e'],1,0.20539780000035535,0.2,1,0,AccFast,28,18,Woman,Right,
21,7,1,1.033384099999239,['c'],0,right,['e'],1,0.1743616000003385,0.1,0,0,AccFast,28,18,Woman,Right,
22,7,1,1.2658482999995613,['n'],1,right,['e'],1,0.13707690000046568,0.2,1,0,AccFast,28,18,Woman,Right,
23,7,1,0.751105399998778,['c'],1,left,['e'],1,0.18275159999939206,0.4,1,0,AccFast,28,18,Woman,Right,
24,7,1,1.1670995999993465,['c'],1,left,['e'],1,0.14786869999988994,0.2,1,0,AccFast,28,18,Woman,Right,
25,7,1,1.7008932999997342,['c'],1,left,['e'],1,0.25186199999916425,0.2,1,0,AccFast,28,18,Woman,Right,
26,7,1,1.4849135000004026,['c'],1,left,['e'],1,0.20145120000051975,0.4,1,0,AccFast,28,18,Woman,Right,
27,7,1,1.3174130999996123,['n'],1,right,['e'],1,0.11134390000006533,0.2,1,0,AccFast,28,18,Woman,Right,
28,7,1,1.2840591999993194,['n'],1,right,['e'],1,0.17031090000091353,0.2,1,0,AccFast,28,18,Woman,Right,
29,7,1,0.7835793000012927,['n'],1,right,['e'],1,0.1508685000007972,0.1,1,0,AccFast,28,18,Woman,Right,
30,7,1,0.917117099999814,['n'],0,left,['e'],1,0.09494210000048042,0.2,0,0,AccFast,28,18,Woman,Right,
31,7,1,1.017483399999037,['n'],1,right,['e'],1,0.21387349999895378,0.4,1,0,AccFast,28,18,Woman,Right,
32,7,1,0.9176258999996207,['n'],1,right,['e'],1,0.2017986999999266,0.1,1,0,AccFast,28,18,Woman,Right,
33,7,1,1.283342900000207,['n'],0,left,['e'],1,0.12922700000126497,0.1,0,0,AccFast,28,18,Woman,Right,
34,7,1,1.0675642999995034,['c'],1,left,['e'],1,0.1153610999990633,0.4,1,0,AccFast,28,18,Woman,Right,
35,7,1,1.216668100001698,['c'],0,right,['e'],1,0.32069029999911436,0.1,0,0,AccFast,28,18,Woman,Right,
36,7,1,1.0009377999995195,['c'],0,right,['e'],1,0.17447829999946407,0.1,0,0,AccFast,28,18,Woman,Right,
37,7,1,0.8342106000000058,['c'],1,left,['e'],1,0.2330497999992076,0.4,1,0,AccFast,28,18,Woman,Right,
38,7,1,0.7344069000009767,['c'],1,left,['e'],1,0.1967051999999967,0.2,1,0,AccFast,28,18,Woman,Right,
39,7,1,0.8178650000008929,['n'],1,right,['e'],1,0.23863420000088809,0.1,1,0,AccFast,28,18,Woman,Right,
40,7,1,1.2006960999988223,['n'],1,right,['e'],1,0.1358204999996815,0.4,1,0,AccFast,28,18,Woman,Right,
41,7,1,0.8000097999993159,['c'],1,left,['e'],1,0.16504949999944074,0.1,1,0,AccFast,28,18,Woman,Right,
42,7,1,1.083811099999366,['c'],1,left,['e'],1,0.18170660000032512,0.2,1,0,AccFast,28,18,Woman,Right,
43,7,1,0.7336472999995749,['n'],1,right,['e'],1,0.14748940000026778,0.4,1,0,AccFast,28,18,Woman,Right,
44,7,1,1.8329506000009133,['c'],0,right,['e'],1,0.16728350000084902,0.1,0,0,AccFast,28,18,Woman,Right,
45,7,1,1.3677484999989247,['n'],1,right,['e'],1,0.10819340000125521,0.2,1,0,AccFast,28,18,Woman,Right,
46,7,1,0.7009734000002936,['c'],1,left,['e'],1,0.1581099000013637,0.4,1,0,AccFast,28,18,Woman,Right,
47,7,1,1.8001422999986971,['c'],1,left,['e'],1,0.25911509999968985,0.1,1,0,AccFast,28,18,Woman,Right,
48,7,1,1.7506594999995286,['n'],1,right,['e'],1,0.14981330000046,0.2,1,0,AccFast,28,18,Woman,Right,
49,7,1,1.366068200000882,['n'],1,right,['u'],0,0.1399015999995754,0.1,0,0,AccFast,28,18,Woman,Right,
50,7,1,0.7176882000003388,['c'],1,left,['u'],0,0.20391810000000987,0.1,0,0,AccFast,28,18,Woman,Right,
51,7,1,1.3177433999990171,['c'],1,left,['u'],0,0.16181430000142427,0.2,0,0,AccFast,28,18,Woman,Right,
52,7,1,5.0163192999989406,x,-99,right,none,-99,-99,0.1,-99,1,AccFast,28,18,Woman,Right,
53,7,1,1.6828043999994406,['c'],1,left,['e'],1,0.24599060000036843,0.4,1,0,AccFast,28,18,Woman,Right,
54,7,1,2.500753700000132,['n'],1,right,['u'],0,0.5382406000007904,0.4,0,0,AccFast,28,18,Woman,Right,
55,7,1,1.7010002000006352,['c'],1,left,['u'],0,0.8035295999998198,0.1,0,0,AccFast,28,18,Woman,Right,
56,7,1,2.950679899999159,['n'],1,right,['u'],0,1.3766421999989689,0.4,0,0,AccFast,28,18,Woman,Right,
57,7,1,0.8510163000009925,['c'],1,left,['e'],1,0.15525789999992412,0.4,1,0,AccFast,28,18,Woman,Right,
58,7,1,1.0181238999994093,['c'],0,right,['e'],1,0.11089520000132325,0.1,0,0,AccFast,28,18,Woman,Right,
59,7,1,0.9012349000004178,['c'],1,left,['e'],1,0.1528809999999794,0.2,1,0,AccFast,28,18,Woman,Right,
0,8,1,1.8176890999984607,['c'],1,left,['u'],0,0.620797899999161,0.2,0,0,AccAcc,28,18,Woman,Right,
1,8,1,1.1843554000006407,['c'],1,left,['e'],1,0.3431462999997166,0.4,1,0,AccAcc,28,18,Woman,Right,
2,8,1,2.068390000000363,['c'],1,left,['e'],1,0.2020265000010113,0.2,1,0,AccAcc,28,18,Woman,Right,
3,8,1,1.4844794999989972,['c'],1,left,['e'],1,0.2009758000003785,0.4,1,0,AccAcc,28,18,Woman,Right,
4,8,1,1.64939460000096,['c'],0,right,['e'],1,0.25783660000161035,0.1,0,0,AccAcc,28,18,Woman,Right,
5,8,1,1.4000310999999783,['c'],1,left,['u'],0,0.530775100000028,0.1,0,0,AccAcc,28,18,Woman,Right,
6,8,1,1.4351061999986996,['c'],1,left,['e'],1,0.18236030000116443,0.2,1,0,AccAcc,28,18,Woman,Right,
7,8,1,0.9510668000002624,['c'],1,left,['e'],1,0.20357890000013867,0.4,1,0,AccAcc,28,18,Woman,Right,
8,8,1,2.601224699999875,['n'],1,right,['u'],0,0.20647830000052636,0.1,0,0,AccAcc,28,18,Woman,Right,
9,8,1,0.9999975999999151,['c'],0,right,['u'],0,0.5131000000001222,0.4,1,0,AccAcc,28,18,Woman,Right,
10,8,1,1.951107900000352,['c'],0,right,['u'],0,2.545176400000855,0.1,1,0,AccAcc,28,18,Woman,Right,
11,8,1,1.0509859000012511,['c'],0,right,['u'],0,0.19601869999860355,0.4,1,0,AccAcc,28,18,Woman,Right,
12,8,1,1.2002792000002955,['c'],0,right,['e'],1,0.33460589999958756,0.2,0,0,AccAcc,28,18,Woman,Right,
13,8,1,1.7001975999992283,['n'],1,right,['e'],1,0.33590929999991204,0.2,1,0,AccAcc,28,18,Woman,Right,
14,8,1,1.851026100001036,['c'],0,right,['u'],0,1.019412600000578,0.2,1,0,AccAcc,28,18,Woman,Right,
15,8,1,0.8510480000004463,['n'],1,right,['e'],1,0.22719129999859433,0.4,1,0,AccAcc,28,18,Woman,Right,
16,8,1,1.9843137999996543,['c'],1,left,['e'],1,0.20585339999888674,0.4,1,0,AccAcc,28,18,Woman,Right,
17,8,1,2.9838552000001073,['n'],0,left,['e'],1,0.369362600000386,0.2,0,0,AccAcc,28,18,Woman,Right,
18,8,1,4.848394799999369,['n'],0,left,['u'],0,0.4849616000010428,0.2,1,0,AccAcc,28,18,Woman,Right,
19,8,1,1.3522177999984706,['n'],0,left,['e'],1,0.23741880000125093,0.1,0,0,AccAcc,28,18,Woman,Right,
20,8,1,1.1008990999998787,['n'],1,right,['e'],1,0.20237879999876895,0.4,1,0,AccAcc,28,18,Woman,Right,
21,8,1,0.933681999998953,['n'],1,right,['e'],1,0.1597275999993144,0.1,1,0,AccAcc,28,18,Woman,Right,
22,8,1,0.7504999000011594,['n'],1,right,['e'],1,0.22234299999945506,0.2,1,0,AccAcc,28,18,Woman,Right,
23,8,1,2.2168447000003653,['c'],1,left,['e'],1,0.20778620000055525,0.4,1,0,AccAcc,28,18,Woman,Right,
24,8,1,1.1833411999996315,['n'],0,left,['e'],1,0.1710542999990139,0.1,0,0,AccAcc,28,18,Woman,Right,
25,8,1,1.5344000000004598,['n'],1,right,['e'],1,0.36162380000132544,0.4,1,0,AccAcc,28,18,Woman,Right,
26,8,1,1.2353641999998217,['n'],1,right,['u'],0,0.9408069000000978,0.1,0,0,AccAcc,28,18,Woman,Right,
27,8,1,1.2171724999989237,['n'],1,right,['e'],1,1.5293469000007462,0.4,1,0,AccAcc,28,18,Woman,Right,
28,8,1,4.900469500000327,['c'],1,left,['e'],1,0.21965839999938908,0.2,1,0,AccAcc,28,18,Woman,Right,
29,8,1,1.9842920999999478,['n'],1,right,['u'],0,0.8062697000004846,0.4,0,0,AccAcc,28,18,Woman,Right,
30,8,1,2.016322900000887,['n'],1,right,['e'],1,0.7290487000009307,0.2,1,0,AccAcc,28,18,Woman,Right,
31,8,1,2.2343953999989026,['c'],1,left,['e'],1,0.2606045999982598,0.2,1,0,AccAcc,28,18,Woman,Right,
32,8,1,1.43418070000007,['n'],0,left,['u'],0,0.14810419999957958,0.2,1,0,AccAcc,28,18,Woman,Right,
33,8,1,2.700048099999549,['n'],0,left,['u'],0,0.18128650000107882,0.1,1,0,AccAcc,28,18,Woman,Right,
34,8,1,1.5513590999998996,['n'],1,right,['u'],0,0.16188119999969786,0.1,0,0,AccAcc,28,18,Woman,Right,
35,8,1,1.5837744000000384,['c'],0,right,['u'],0,0.17444649999924877,0.1,1,0,AccAcc,28,18,Woman,Right,
36,8,1,3.200712100000601,['n'],1,right,['u'],0,0.2991760000004433,0.4,0,0,AccAcc,28,18,Woman,Right,
37,8,1,0.6681958999997732,['c'],1,left,['u'],0,1.0307491999992635,0.4,0,0,AccAcc,28,18,Woman,Right,
38,8,1,1.5840570000000298,['n'],1,right,['u'],0,0.11301499999899534,0.1,0,0,AccAcc,28,18,Woman,Right,
39,8,1,0.9843037999999069,['n'],0,left,['u'],0,0.2153020000005199,0.2,1,0,AccAcc,28,18,Woman,Right,
40,8,1,1.516429600000265,['c'],1,left,['u'],0,0.18100009999943723,0.1,0,0,AccAcc,28,18,Woman,Right,
41,8,1,1.317331700000068,['n'],0,left,['u'],0,0.15514469999834546,0.2,1,0,AccAcc,28,18,Woman,Right,
42,8,1,0.716948000001139,['n'],0,left,['u'],0,0.17116680000071938,0.4,1,0,AccAcc,28,18,Woman,Right,
43,8,1,0.8332569000012882,['c'],0,right,['u'],0,0.1977333999984694,0.1,1,0,AccAcc,28,18,Woman,Right,
44,8,1,0.9673640000000887,['n'],0,left,['u'],0,0.2653492000008555,0.2,1,0,AccAcc,28,18,Woman,Right,
45,8,1,0.7836839000010514,['c'],0,right,['u'],0,0.1621173000003182,0.4,1,0,AccAcc,28,18,Woman,Right,
46,8,1,0.8160238999989815,['c'],1,left,['u'],0,0.15835949999927834,0.2,0,0,AccAcc,28,18,Woman,Right,
47,8,1,1.4506375999990269,['n'],1,right,['u'],0,0.14353339999979653,0.1,0,0,AccAcc,28,18,Woman,Right,
48,8,1,0.9675976999988052,['n'],1,right,['u'],0,0.2942676999991818,0.2,0,0,AccAcc,28,18,Woman,Right,
49,8,1,0.9840014999990672,['n'],1,right,['u'],0,0.2299488000007841,0.4,0,0,AccAcc,28,18,Woman,Right,
50,8,1,2.400225400000636,['c'],1,left,['e'],1,1.4074151999993774,0.2,1,0,AccAcc,28,18,Woman,Right,
51,8,1,1.084588800000347,['n'],1,right,['e'],1,0.15871659999902477,0.2,1,0,AccAcc,28,18,Woman,Right,
52,8,1,0.7666635000005044,['n'],1,right,['e'],1,0.1571287000006123,0.4,1,0,AccAcc,28,18,Woman,Right,
53,8,1,2.2668401999999332,['n'],0,left,['e'],1,0.19087020000006305,0.1,0,0,AccAcc,28,18,Woman,Right,
54,8,1,0.7835629000001063,['n'],0,left,['e'],1,0.15460540000094625,0.1,0,0,AccAcc,28,18,Woman,Right,
55,8,1,2.4344106999997166,['c'],1,left,['e'],1,0.21420629999920493,0.1,1,0,AccAcc,28,18,Woman,Right,
56,8,1,1.2511696000001393,['n'],1,right,['e'],1,0.5096801999989111,0.1,1,0,AccAcc,28,18,Woman,Right,
57,8,1,1.4334592999985034,['n'],0,left,['e'],1,0.13151070000094478,0.1,0,0,AccAcc,28,18,Woman,Right,
58,8,1,1.9007359000006545,['n'],1,right,['e'],1,0.35679890000028536,0.4,1,0,AccAcc,28,18,Woman,Right,
59,8,1,0.8009616999988793,['c'],1,left,['e'],1,0.2812115000015183,0.4,1,0,AccAcc,28,18,Woman,Right,
0,9,1,4.750339799998983,['n'],1,right,['e'],1,0.4667485999998462,0.4,1,0,FastAcc,28,18,Woman,Right,
1,9,1,0.7327571000005264,['c'],1,left,['e'],1,0.19749880000017583,0.1,1,0,FastAcc,28,18,Woman,Right,
2,9,1,1.2489168000010977,['c'],1,left,['e'],1,0.1741851000006136,0.2,1,0,FastAcc,28,18,Woman,Right,
3,9,1,0.8175327999997535,['c'],1,left,['e'],1,0.2969487999998819,0.1,1,0,FastAcc,28,18,Woman,Right,
4,9,1,1.1008370999988983,['n'],1,right,['e'],1,0.16351329999997688,0.4,1,0,FastAcc,28,18,Woman,Right,
5,9,1,1.3336292000003596,['n'],1,right,['e'],1,0.20219409999845084,0.2,1,0,FastAcc,28,18,Woman,Right,
6,9,1,1.1509795999991184,['n'],1,right,['e'],1,0.13459879999936675,0.4,1,0,FastAcc,28,18,Woman,Right,
7,9,1,0.8832954000008613,['n'],1,right,['e'],1,0.22458860000006098,0.4,1,0,FastAcc,28,18,Woman,Right,
8,9,1,1.267519999999422,['c'],0,right,['u'],0,0.23177430000032473,0.2,1,0,FastAcc,28,18,Woman,Right,
9,9,1,0.9180345000004309,['c'],1,left,['u'],0,0.22026790000018082,0.4,0,0,FastAcc,28,18,Woman,Right,
10,9,1,1.1841914000015095,['n'],1,right,['e'],1,0.2467103999988467,0.4,1,0,FastAcc,28,18,Woman,Right,
11,9,1,1.1341033999997308,['c'],1,left,['e'],1,0.3218966000004002,0.2,1,0,FastAcc,28,18,Woman,Right,
12,9,1,1.299969300000157,['c'],1,left,['e'],1,0.25978740000027756,0.2,1,0,FastAcc,28,18,Woman,Right,
13,9,1,1.317541300000812,['n'],1,right,['e'],1,0.2158278999995673,0.2,1,0,FastAcc,28,18,Woman,Right,
14,9,1,1.3488438999993377,['n'],1,right,['e'],1,0.20455570000012813,0.2,1,0,FastAcc,28,18,Woman,Right,
15,9,1,1.7002281000004587,['c'],0,right,['e'],1,0.7386200000000827,0.4,0,0,FastAcc,28,18,Woman,Right,
16,9,1,1.0346396999993885,['c'],1,left,['e'],1,0.2382383000003756,0.1,1,0,FastAcc,28,18,Woman,Right,
17,9,1,0.7352685000005295,['c'],1,left,['e'],1,0.2501630999995541,0.4,1,0,FastAcc,28,18,Woman,Right,
18,9,1,1.0333974999994098,['n'],1,right,['e'],1,0.23340020000068762,0.4,1,0,FastAcc,28,18,Woman,Right,
19,9,1,1.0179397000010795,['c'],1,left,['e'],1,0.32992620000004536,0.1,1,0,FastAcc,28,18,Woman,Right,
20,9,1,1.4169372000014846,['c'],1,left,['e'],1,0.5185294999992038,0.1,1,0,FastAcc,28,18,Woman,Right,
21,9,1,1.0179886000005354,['c'],1,left,['e'],1,0.283747499999663,0.2,1,0,FastAcc,28,18,Woman,Right,
22,9,1,1.8506368999987899,['c'],0,right,['u'],0,0.8730417999995552,0.1,1,0,FastAcc,28,18,Woman,Right,
23,9,1,3.883189100000891,['c'],0,right,['u'],0,0.462247399998887,0.4,1,0,FastAcc,28,18,Woman,Right,
24,9,1,2.6166202000003977,['c'],0,right,['u'],0,0.31073689999902854,0.2,1,0,FastAcc,28,18,Woman,Right,
25,9,1,1.3672858000009,['c'],1,left,['u'],0,0.21374130000003788,0.2,0,0,FastAcc,28,18,Woman,Right,
26,9,1,4.833233100000143,['n'],1,right,['u'],0,0.3190489999997226,0.2,0,0,FastAcc,28,18,Woman,Right,
27,9,1,0.768176499999754,['c'],1,left,['u'],0,0.3102987000002031,0.4,0,0,FastAcc,28,18,Woman,Right,
28,9,1,1.0176556999995228,['n'],1,right,['e'],1,0.48405319999983476,0.4,1,0,FastAcc,28,18,Woman,Right,
29,9,1,1.100377099999605,['c'],1,left,['e'],1,1.0953611999993882,0.4,1,0,FastAcc,28,18,Woman,Right,
30,9,1,0.649384899999859,['c'],1,left,['e'],1,0.22915250000005472,0.2,1,0,FastAcc,28,18,Woman,Right,
31,9,1,0.8844939999999042,['n'],1,right,['e'],1,0.12321970000084548,0.4,1,0,FastAcc,28,18,Woman,Right,
32,9,1,0.9843079000002035,['n'],1,right,['e'],1,0.14513399999850662,0.2,1,0,FastAcc,28,18,Woman,Right,
33,9,1,0.9675010000009934,['n'],1,right,['e'],1,0.15076530000078492,0.2,1,0,FastAcc,28,18,Woman,Right,
34,9,1,2.599844500000472,['n'],0,left,['e'],1,0.2370656000002782,0.1,0,0,FastAcc,28,18,Woman,Right,
35,9,1,1.7335456999990129,['n'],0,left,['e'],1,0.19144019999839657,0.1,0,0,FastAcc,28,18,Woman,Right,
36,9,1,1.2351832999993348,['c'],1,left,['e'],1,0.2174529000003531,0.4,1,0,FastAcc,28,18,Woman,Right,
37,9,1,1.584029699999519,['n'],0,left,['e'],1,0.19605760000013106,0.1,0,0,FastAcc,28,18,Woman,Right,
38,9,1,5.016408200001024,x,-99,left,none,-99,-99,0.2,-99,1,FastAcc,28,18,Woman,Right,
39,9,1,0.9173835000001418,['n'],0,left,['e'],1,0.1649611000011646,0.1,0,0,FastAcc,28,18,Woman,Right,
40,9,1,1.1678116999992199,['n'],0,left,['u'],0,0.14666090000173426,0.1,1,0,FastAcc,28,18,Woman,Right,
41,9,1,0.4175058999990142,['c'],0,right,['u'],0,0.22182079999947746,0.2,1,0,FastAcc,28,18,Woman,Right,
42,9,1,0.38440500000069733,['n'],1,right,['u'],0,0.3121891999999207,0.1,0,0,FastAcc,28,18,Woman,Right,
43,9,1,1.1669650000003458,['n'],1,right,['u'],0,0.3035982999990665,0.4,0,0,FastAcc,28,18,Woman,Right,
44,9,1,1.3849006000000372,['n'],1,right,['u'],0,0.6547505999988061,0.2,0,0,FastAcc,28,18,Woman,Right,
45,9,1,0.8172358000010718,['c'],1,left,['e'],1,0.42277740000099584,0.1,1,0,FastAcc,28,18,Woman,Right,
46,9,1,1.317299999998795,['n'],1,right,['e'],1,0.24389420000079554,0.1,1,0,FastAcc,28,18,Woman,Right,
47,9,1,1.0513754000003246,['n'],1,right,['e'],1,0.17904940000153147,0.4,1,0,FastAcc,28,18,Woman,Right,
48,9,1,0.9342899000002944,['n'],0,left,['e'],1,0.16896550000092248,0.1,0,0,FastAcc,28,18,Woman,Right,
49,9,1,0.8836835000001884,['n'],1,right,['e'],1,0.1933510999988357,0.1,1,0,FastAcc,28,18,Woman,Right,
50,9,1,0.818966000000728,['n'],1,right,['e'],1,0.18781829999898036,0.1,1,0,FastAcc,28,18,Woman,Right,
51,9,1,1.8512232000011863,['n'],0,left,['e'],1,0.18948980000095617,0.2,0,0,FastAcc,28,18,Woman,Right,
52,9,1,0.784653900000194,['n'],1,right,['e'],1,0.1690565000008064,0.4,1,0,FastAcc,28,18,Woman,Right,
53,9,1,1.1178127999992284,['n'],0,left,['e'],1,0.21682979999968666,0.1,0,0,FastAcc,28,18,Woman,Right,
54,9,1,0.7511611999998422,['n'],1,right,['e'],1,0.22793989999991027,0.4,1,0,FastAcc,28,18,Woman,Right,
55,9,1,1.0661165000001347,['n'],0,left,['u'],0,0.13261590000001888,0.1,1,0,FastAcc,28,18,Woman,Right,
56,9,1,0.6496551000000181,['c'],1,left,['u'],0,0.10270390000005136,0.2,0,0,FastAcc,28,18,Woman,Right,
57,9,1,1.1843487999994977,['c'],1,left,['u'],0,0.14967470000010508,0.4,0,0,FastAcc,28,18,Woman,Right,
58,9,1,1.967454399999042,['n'],1,right,['e'],1,0.22826809999969555,0.1,1,0,FastAcc,28,18,Woman,Right,
59,9,1,1.3508612999994511,['c'],1,left,['e'],1,0.3435518000005686,0.2,1,0,FastAcc,28,18,Woman,Right,
0,10,1,1.1175601000013557,['n'],1,right,['e'],1,0.2383354000012332,0.4,1,0,FastFast,28,18,Woman,Right,
1,10,1,1.2176968000003399,['c'],0,right,['e'],1,0.15078560000074503,0.2,0,0,FastFast,28,18,Woman,Right,
2,10,1,0.8344175999991421,['n'],1,right,['e'],1,0.16171709999980521,0.4,1,0,FastFast,28,18,Woman,Right,
3,10,1,0.8345958999998402,['c'],1,left,['e'],1,0.15643420000014885,0.2,1,0,FastFast,28,18,Woman,Right,
4,10,1,1.2673287999987224,['c'],0,right,['e'],1,0.15022359999966284,0.1,0,0,FastFast,28,18,Woman,Right,
5,10,1,1.1342700999994122,['n'],1,right,['e'],1,0.2773787000005541,0.4,1,0,FastFast,28,18,Woman,Right,
6,10,1,1.1339676000006875,['n'],1,right,['e'],1,0.20795490000091377,0.4,1,0,FastFast,28,18,Woman,Right,
7,10,1,1.001619100001335,['c'],1,left,['e'],1,0.11460059999990335,0.2,1,0,FastFast,28,18,Woman,Right,
8,10,1,1.2510536999998294,['c'],0,right,['e'],1,0.17443860000093991,0.4,0,0,FastFast,28,18,Woman,Right,
9,10,1,1.3011344999995345,['c'],1,left,['u'],0,0.35837680000076944,0.2,0,0,FastFast,28,18,Woman,Right,
10,10,1,1.0175921000009112,['c'],1,left,['u'],0,0.24225420000038866,0.1,0,0,FastFast,28,18,Woman,Right,
11,10,1,1.3682956000011472,['c'],1,left,['u'],0,0.16490479999993113,0.2,0,0,FastFast,28,18,Woman,Right,
12,10,1,1.1011202999998204,['c'],1,left,['e'],1,0.5168085999994219,0.1,1,0,FastFast,28,18,Woman,Right,
13,10,1,0.7667309000007663,['c'],1,left,['e'],1,0.1478568999991694,0.4,1,0,FastFast,28,18,Woman,Right,
14,10,1,0.8173502999998163,['c'],0,right,['e'],1,0.15962690000014845,0.1,0,0,FastFast,28,18,Woman,Right,
15,10,1,0.7844404999996186,['c'],1,left,['e'],1,0.188803300001382,0.4,1,0,FastFast,28,18,Woman,Right,
16,10,1,0.750837199999296,['c'],0,right,['e'],1,0.15554149999843503,0.1,0,0,FastFast,28,18,Woman,Right,
17,10,1,0.9339953999988211,['c'],0,right,['u'],0,0.3850413000000117,0.4,1,0,FastFast,28,18,Woman,Right,
18,10,1,0.7996464999996533,['c'],1,left,['u'],0,0.2455473999998503,0.2,0,0,FastFast,28,18,Woman,Right,
19,10,1,0.8355652999998711,['c'],1,left,['e'],1,0.444372600000861,0.4,1,0,FastFast,28,18,Woman,Right,
20,10,1,0.8010214000005362,['c'],0,right,['e'],1,0.18994999999995343,0.2,0,0,FastFast,28,18,Woman,Right,
21,10,1,1.8512439999994967,['n'],1,right,['e'],1,0.3986927999994805,0.2,1,0,FastFast,28,18,Woman,Right,
22,10,1,1.8010755000013887,['c'],0,right,['u'],0,0.24930419999873266,0.4,1,0,FastFast,28,18,Woman,Right,
23,10,1,0.6996695999987423,['c'],1,left,['u'],0,0.182205500001146,0.2,0,0,FastFast,28,18,Woman,Right,
24,10,1,1.0663414999999077,['c'],1,left,['u'],0,0.3584576000012021,0.1,0,0,FastFast,28,18,Woman,Right,
25,10,1,1.967786299999716,['c'],0,right,['u'],0,0.140285399998902,0.4,1,0,FastFast,28,18,Woman,Right,
26,10,1,1.2176783999984764,['c'],0,right,['e'],1,0.488890700000411,0.2,0,0,FastFast,28,18,Woman,Right,
27,10,1,0.9164287999992666,['c'],0,right,['u'],0,0.1479760999991413,0.1,1,0,FastFast,28,18,Woman,Right,
28,10,1,0.9669687999994494,['n'],1,right,['u'],0,0.28189240000028803,0.2,0,0,FastFast,28,18,Woman,Right,
29,10,1,2.3177441999996518,['c'],1,left,['u'],0,0.42080600000008417,0.2,0,0,FastFast,28,18,Woman,Right,
30,10,1,3.667314599999372,['n'],1,right,['e'],1,0.40393109999968146,0.2,1,0,FastFast,28,18,Woman,Right,
31,10,1,2.950991800000338,['n'],0,left,['u'],0,0.06479969999963942,0.1,1,0,FastFast,28,18,Woman,Right,
32,10,1,1.3341161999996984,['c'],1,left,['u'],0,0.17123200000060024,0.4,0,0,FastFast,28,18,Woman,Right,
33,10,1,1.3672550000010233,['c'],1,left,['e'],1,0.1444658000000345,0.1,1,0,FastFast,28,18,Woman,Right,
34,10,1,1.583520000000135,['c'],1,left,['u'],0,0.23846360000061395,0.1,0,0,FastFast,28,18,Woman,Right,
35,10,1,2.34990149999976,['c'],1,left,['u'],0,0.16998190000049362,0.1,0,0,FastFast,28,18,Woman,Right,
36,10,1,2.2348597000000154,['c'],1,left,['e'],1,0.17264700000123412,0.1,1,0,FastFast,28,18,Woman,Right,
37,10,1,2.033877500000017,['n'],1,right,['e'],1,0.5837159999991854,0.2,1,0,FastFast,28,18,Woman,Right,
38,10,1,2.5338916999990033,['n'],1,right,['e'],1,0.41429409999909694,0.4,1,0,FastFast,28,18,Woman,Right,
39,10,1,1.2831939999996393,['n'],1,right,['e'],1,0.20478019999973185,0.4,1,0,FastFast,28,18,Woman,Right,
40,10,1,1.3828302000001713,['c'],1,left,['e'],1,0.2882117000008293,0.1,1,0,FastFast,28,18,Woman,Right,
41,10,1,1.00141369999983,['c'],0,right,['u'],0,0.46271750000050815,0.1,1,0,FastFast,28,18,Woman,Right,
42,10,1,1.3510697000001528,['c'],1,left,['u'],0,0.6486671000002389,0.1,0,0,FastFast,28,18,Woman,Right,
43,10,1,1.2676796999985527,['c'],1,left,['u'],0,0.15875840000080643,0.1,0,0,FastFast,28,18,Woman,Right,
44,10,1,2.049002699999619,['c'],1,left,['e'],1,1.082087800001318,0.4,1,0,FastFast,28,18,Woman,Right,
45,10,1,0.9510159999990719,['c'],1,left,['e'],1,0.15468300000065938,0.2,1,0,FastFast,28,18,Woman,Right,
46,10,1,0.8342172000011487,['c'],1,left,['e'],1,0.16587590000017371,0.4,1,0,FastFast,28,18,Woman,Right,
47,10,1,0.8830932000000757,['c'],1,left,['e'],1,0.17486819999976433,0.2,1,0,FastFast,28,18,Woman,Right,
48,10,1,0.9851945999998861,['n'],1,right,['e'],1,0.17877690000022994,0.4,1,0,FastFast,28,18,Woman,Right,
49,10,1,1.4177385999992111,['c'],1,left,['e'],1,0.21345409999958065,0.2,1,0,FastFast,28,18,Woman,Right,
50,10,1,1.4181932999999844,['n'],1,right,['e'],1,0.32681460000094376,0.4,1,0,FastFast,28,18,Woman,Right,
51,10,1,2.366664300001503,['c'],0,right,['e'],1,0.25487880000036967,0.1,0,0,FastFast,28,18,Woman,Right,
52,10,1,1.3839053000010608,['c'],0,right,['e'],1,0.2713977999992494,0.1,0,0,FastFast,28,18,Woman,Right,
53,10,1,0.9828258999987156,['c'],1,left,['u'],0,0.8475376999995206,0.1,0,0,FastFast,28,18,Woman,Right,
54,10,1,1.567561100000603,['c'],0,right,['u'],0,0.5940539999992325,0.1,1,0,FastFast,28,18,Woman,Right,
55,10,1,0.7506555999989359,['c'],1,left,['u'],0,1.0072478000001865,0.2,0,0,FastFast,28,18,Woman,Right,
56,10,1,0.9508311999998114,['n'],1,right,['e'],1,0.1478688000006514,0.4,1,0,FastFast,28,18,Woman,Right,
57,10,1,1.800810900000215,['c'],0,right,['e'],1,0.3446096999996371,0.2,0,0,FastFast,28,18,Woman,Right,
58,10,1,1.1176703000000998,['n'],1,right,['e'],1,0.38516119999985676,0.4,1,0,FastFast,28,18,Woman,Right,
59,10,1,1.333245399999214,['c'],1,left,['u'],0,0.43118369999865536,0.2,0,0,FastFast,28,18,Woman,Right,
0,11,1,1.9662540999997873,['n'],1,right,['e'],1,0.29549760000008973,0.2,1,0,AccFast,28,18,Woman,Right,
1,11,1,1.3333622999998624,['n'],1,right,['u'],0,0.10464430000138236,0.1,0,0,AccFast,28,18,Woman,Right,
2,11,1,1.2842717000003177,['n'],1,right,['e'],1,1.5394264999995357,0.4,1,0,AccFast,28,18,Woman,Right,
3,11,1,1.1342548000011448,['n'],1,right,['e'],1,0.15545469999960915,0.4,1,0,AccFast,28,18,Woman,Right,
4,11,1,1.3681966999993165,['c'],1,left,['u'],0,0.22540330000083486,0.1,0,0,AccFast,28,18,Woman,Right,
5,11,1,0.917530099999567,['n'],1,right,['e'],1,0.1348151999991387,0.2,1,0,AccFast,28,18,Woman,Right,
6,11,1,2.167492399999901,['c'],1,left,['e'],1,0.6533070000004955,0.4,1,0,AccFast,28,18,Woman,Right,
7,11,1,1.250678299998981,['c'],1,left,['e'],1,0.19629730000087875,0.1,1,0,AccFast,28,18,Woman,Right,
8,11,1,1.1329987999997684,['c'],1,left,['u'],0,0.6576860000004672,0.2,0,0,AccFast,28,18,Woman,Right,
9,11,1,1.300722100000712,['c'],1,left,['u'],0,0.1977284000004147,0.4,0,0,AccFast,28,18,Woman,Right,
10,11,1,1.167708799999673,['c'],1,left,['u'],0,0.19449010000062117,0.4,0,0,AccFast,28,18,Woman,Right,
11,11,1,1.0013758999994025,['c'],1,left,['e'],1,0.5009031999998115,0.2,1,0,AccFast,28,18,Woman,Right,
12,11,1,1.1167278999982955,['c'],0,right,['u'],0,0.31098649999876216,0.2,1,0,AccFast,28,18,Woman,Right,
13,11,1,1.06743859999915,['c'],1,left,['u'],0,0.2587158000005729,0.4,0,0,AccFast,28,18,Woman,Right,
14,11,1,1.5002879000003304,['c'],1,left,['e'],1,0.2874011999992945,0.4,1,0,AccFast,28,18,Woman,Right,
15,11,1,4.6169289999998,['n'],0,left,['u'],0,0.27066670000021986,0.1,1,0,AccFast,28,18,Woman,Right,
16,11,1,1.8173574000011286,['n'],1,right,['e'],1,0.18983680000019376,0.4,1,0,AccFast,28,18,Woman,Right,
17,11,1,2.200903200000539,['n'],0,left,['e'],1,0.14524819999860483,0.2,0,0,AccFast,28,18,Woman,Right,
18,11,1,1.9336516999992455,['c'],1,left,['u'],0,0.6887573999993037,0.2,0,0,AccFast,28,18,Woman,Right,
19,11,1,1.284114199999749,['n'],1,right,['e'],1,0.14877229999910924,0.4,1,0,AccFast,28,18,Woman,Right,
20,11,1,1.0343408000007912,['c'],0,right,['e'],1,0.31194110000069486,0.2,0,0,AccFast,28,18,Woman,Right,
21,11,1,1.3672618999989936,['n'],1,right,['e'],1,0.16725489999953425,0.4,1,0,AccFast,28,18,Woman,Right,
22,11,1,1.5508020000015676,['c'],1,left,['e'],1,0.4371955999995407,0.2,1,0,AccFast,28,18,Woman,Right,
23,11,1,2.034520799999882,['c'],1,left,['u'],0,0.2450635000004695,0.1,0,0,AccFast,28,18,Woman,Right,
24,11,1,1.367592999999033,['c'],1,left,['u'],0,0.5029794000001857,0.2,0,0,AccFast,28,18,Woman,Right,
25,11,1,0.7667048000002978,['c'],1,left,['u'],0,0.23154230000000098,0.2,0,0,AccFast,28,18,Woman,Right,
26,11,1,2.0841027999995276,['n'],1,right,['e'],1,1.5331387000005634,0.4,1,0,AccFast,28,18,Woman,Right,
27,11,1,0.9166336000016599,['c'],1,left,['e'],1,0.18972750000102678,0.4,1,0,AccFast,28,18,Woman,Right,
28,11,1,1.667803600001207,['n'],1,right,['e'],1,0.2143813999991835,0.2,1,0,AccFast,28,18,Woman,Right,
29,11,1,0.9014702000004036,['n'],1,right,['e'],1,0.20487990000037826,0.4,1,0,AccFast,28,18,Woman,Right,
30,11,1,1.1161121000004641,['c'],1,left,['e'],1,0.26694940000015777,0.1,1,0,AccFast,28,18,Woman,Right,
31,11,1,2.0998782999995456,['n'],1,right,['e'],1,0.14228329999968992,0.1,1,0,AccFast,28,18,Woman,Right,
32,11,1,1.5347483999994438,['c'],0,right,['u'],0,0.15795579999939946,0.1,1,0,AccFast,28,18,Woman,Right,
33,11,1,1.600051399998847,['n'],1,right,['u'],0,0.2510122000003321,0.1,0,0,AccFast,28,18,Woman,Right,
34,11,1,1.6001263999987714,['n'],1,right,['u'],0,0.27534579999883135,0.1,0,0,AccFast,28,18,Woman,Right,
35,11,1,1.6829901000000973,['c'],1,left,['u'],0,0.21663619999890216,0.1,0,0,AccFast,28,18,Woman,Right,
36,11,1,0.6013235999998869,['c'],0,right,['u'],0,0.10599230000116222,0.1,1,0,AccFast,28,18,Woman,Right,
37,11,1,0.40004700000099547,['n'],1,right,['u'],0,0.23260690000097384,0.2,0,0,AccFast,28,18,Woman,Right,
38,11,1,1.4511995000011666,['n'],1,right,['u'],0,0.16753789999893343,0.2,0,0,AccFast,28,18,Woman,Right,
39,11,1,0.8668030000008002,['c'],1,left,['u'],0,0.12906519999887678,0.1,0,0,AccFast,28,18,Woman,Right,
40,11,1,2.250690400000167,['n'],1,right,['u'],0,0.2922281999999541,0.1,0,0,AccFast,28,18,Woman,Right,
41,11,1,1.5509415999986231,['n'],1,right,['u'],0,0.5094279000004462,0.1,0,0,AccFast,28,18,Woman,Right,
42,11,1,3.016462599998704,['n'],1,right,['u'],0,0.2289498000009189,0.4,0,0,AccFast,28,18,Woman,Right,
43,11,1,2.3184753999994427,['c'],1,left,['e'],1,0.4330714999996417,0.2,1,0,AccFast,28,18,Woman,Right,
44,11,1,2.3508796999994956,['n'],1,right,['u'],0,0.2606121999997413,0.1,0,0,AccFast,28,18,Woman,Right,
45,11,1,1.7503681999987748,['c'],1,left,['u'],0,0.21526079999966896,0.2,0,0,AccFast,28,18,Woman,Right,
46,11,1,3.217258500000753,['c'],0,right,['u'],0,0.27287620000060997,0.2,1,0,AccFast,28,18,Woman,Right,
47,11,1,1.9506696999997075,['c'],0,right,['u'],0,0.12293920000047365,0.1,1,0,AccFast,28,18,Woman,Right,
48,11,1,2.482833699999901,['c'],1,left,['e'],1,1.4942188000004535,0.4,1,0,AccFast,28,18,Woman,Right,
49,11,1,4.1163935999993555,['n'],0,left,['u'],0,0.6168216999994911,0.1,1,0,AccFast,28,18,Woman,Right,
50,11,1,1.915849099999832,['c'],1,left,['e'],1,0.6627453000000969,0.1,1,0,AccFast,28,18,Woman,Right,
51,11,1,0.88413650000075,['n'],1,right,['e'],1,0.2831065000009403,0.4,1,0,AccFast,28,18,Woman,Right,
52,11,1,1.0500947000000451,['n'],1,right,['e'],1,0.1531606999997166,0.4,1,0,AccFast,28,18,Woman,Right,
53,11,1,1.0842307999992045,['n'],1,right,['e'],1,0.1854319999984,0.2,1,0,AccFast,28,18,Woman,Right,
54,11,1,1.2336591000002954,['c'],1,left,['e'],1,0.1471865000003163,0.1,1,0,AccFast,28,18,Woman,Right,
55,11,1,1.6328486000002158,['n'],1,right,['e'],1,0.15932470000007015,0.2,1,0,AccFast,28,18,Woman,Right,
56,11,1,1.100738500001171,['c'],1,left,['e'],1,0.15910509999957867,0.4,1,0,AccFast,28,18,Woman,Right,
57,11,1,1.6838248999993084,['c'],1,left,['e'],1,0.13643479999882402,0.4,1,0,AccFast,28,18,Woman,Right,
58,11,1,2.0010550999995758,['c'],1,left,['e'],1,0.1979099000000133,0.4,1,0,AccFast,28,18,Woman,Right,
59,11,1,0.6347040999989986,['c'],1,left,['e'],1,0.16686400000071444,0.2,1,0,AccFast,28,18,Woman,Right,
0,12,1,1.7003523000003042,['n'],1,right,['e'],1,0.7123258000010537,0.1,1,0,AccAcc,28,18,Woman,Right,
1,12,1,1.250798200000645,['n'],1,right,['e'],1,0.8436280999994779,0.2,1,0,AccAcc,28,18,Woman,Right,
2,12,1,1.716045999999551,['c'],1,left,['u'],0,0.5687605999992229,0.1,0,0,AccAcc,28,18,Woman,Right,
3,12,1,2.0998579999995854,['c'],0,right,['u'],0,0.14445419999901787,0.1,1,0,AccAcc,28,18,Woman,Right,
4,12,1,1.166816300001301,['c'],1,left,['e'],1,0.3831190999990213,0.4,1,0,AccAcc,28,18,Woman,Right,
5,12,1,1.2836721000003308,['n'],0,left,['u'],0,0.14283599999907892,0.1,1,0,AccAcc,28,18,Woman,Right,
6,12,1,0.8337874999997439,['c'],1,left,['e'],1,0.6186721999984002,0.2,1,0,AccAcc,28,18,Woman,Right,
7,12,1,1.4170878999993874,['n'],0,left,['e'],1,0.28419100000064645,0.1,0,0,AccAcc,28,18,Woman,Right,
8,12,1,1.4843121000012616,['c'],1,left,['e'],1,0.21589399999902525,0.1,1,0,AccAcc,28,18,Woman,Right,
9,12,1,0.9843708000007609,['n'],1,right,['e'],1,0.15497309999955178,0.4,1,0,AccAcc,28,18,Woman,Right,
10,12,1,1.8168336999988242,['n'],1,right,['e'],1,0.3185860000012326,0.4,1,0,AccAcc,28,18,Woman,Right,
11,12,1,1.300238800000443,['c'],1,left,['e'],1,0.17642890000024636,0.1,1,0,AccAcc,28,18,Woman,Right,
12,12,1,1.7019946000000346,['n'],1,right,['u'],0,0.7286612000007153,0.2,0,0,AccAcc,28,18,Woman,Right,
13,12,1,1.2163517999997566,['c'],1,left,['u'],0,0.2699761000003491,0.1,0,0,AccAcc,28,18,Woman,Right,
14,12,1,1.5675043000010191,['n'],0,left,['u'],0,0.278470200000811,0.2,1,0,AccAcc,28,18,Woman,Right,
15,12,1,1.051552000000811,['c'],1,left,['u'],0,0.1477666999999201,0.2,0,0,AccAcc,28,18,Woman,Right,
16,12,1,0.9174194000006537,['c'],1,left,['u'],0,0.20336759999918286,0.4,0,0,AccAcc,28,18,Woman,Right,
17,12,1,0.9010838000012882,['c'],1,left,['u'],0,0.17793069999970612,0.2,0,0,AccAcc,28,18,Woman,Right,
18,12,1,3.06606279999869,['c'],0,right,['u'],0,0.3721284999992349,0.2,1,0,AccAcc,28,18,Woman,Right,
19,12,1,2.1667757000013808,['n'],1,right,['u'],0,0.336976999999024,0.4,0,0,AccAcc,28,18,Woman,Right,
20,12,1,2.6840884999983246,['n'],1,right,['u'],0,0.20396140000048035,0.2,0,0,AccAcc,28,18,Woman,Right,
21,12,1,2.1669624999994994,['n'],1,right,['e'],1,0.46321920000082173,0.4,1,0,AccAcc,28,18,Woman,Right,
22,12,1,1.5659389000011288,['c'],1,left,['e'],1,0.27257770000142045,0.1,1,0,AccAcc,28,18,Woman,Right,
23,12,1,1.5009337999999843,['n'],1,right,['u'],0,0.09279910000077507,0.1,0,0,AccAcc,28,18,Woman,Right,
24,12,1,2.61698559999968,['c'],0,right,['e'],1,0.14761990000079095,0.1,0,0,AccAcc,28,18,Woman,Right,
25,12,1,1.1341692000005423,['c'],1,left,['u'],0,0.49852520000058576,0.2,0,0,AccAcc,28,18,Woman,Right,
26,12,1,1.8842038999991928,['n'],1,right,['u'],0,0.14985760000126902,0.4,0,0,AccAcc,28,18,Woman,Right,
27,12,1,0.9174516999992193,['c'],1,left,['u'],0,0.18966700000055425,0.2,0,0,AccAcc,28,18,Woman,Right,
28,12,1,0.8159402000001137,['c'],1,left,['u'],0,0.21636229999967327,0.4,0,0,AccAcc,28,18,Woman,Right,
29,12,1,1.134267200000977,['c'],1,left,['e'],1,0.34152329999960784,0.1,1,0,AccAcc,28,18,Woman,Right,
30,12,1,2.250448500000857,['c'],1,left,['e'],1,0.17626360000031127,0.4,1,0,AccAcc,28,18,Woman,Right,
31,12,1,1.451592299999902,['c'],1,left,['e'],1,0.178203500001473,0.4,1,0,AccAcc,28,18,Woman,Right,
32,12,1,2.03337509999983,['c'],0,right,['e'],1,0.26879730000109703,0.2,0,0,AccAcc,28,18,Woman,Right,
33,12,1,2.0335046000000148,['n'],1,right,['u'],0,0.1475114000004396,0.2,0,0,AccAcc,28,18,Woman,Right,
34,12,1,0.9009922000004735,['c'],1,left,['e'],1,0.2519694000002346,0.2,1,0,AccAcc,28,18,Woman,Right,
35,12,1,2.0506932999996934,['n'],1,right,['u'],0,0.019265499999164604,0.1,0,0,AccAcc,28,18,Woman,Right,
36,12,1,1.5003467000005912,['c'],1,left,['e'],1,0.21656149999944319,0.4,1,0,AccAcc,28,18,Woman,Right,
37,12,1,1.3009481000008236,['c'],1,left,['e'],1,0.20666300000084448,0.1,1,0,AccAcc,28,18,Woman,Right,
38,12,1,1.5846438000007765,['c'],1,left,['e'],1,0.2017879000013636,0.4,1,0,AccAcc,28,18,Woman,Right,
39,12,1,1.9503077999997913,['n'],1,right,['u'],0,1.0785462000003463,0.2,0,0,AccAcc,28,18,Woman,Right,
40,12,1,0.8502835999988747,['c'],1,left,['e'],1,0.17271440000149596,0.4,1,0,AccAcc,28,18,Woman,Right,
41,12,1,1.2506204999990587,['c'],0,right,['e'],1,0.11840210000082152,0.1,0,0,AccAcc,28,18,Woman,Right,
42,12,1,0.9007966999997734,['c'],0,right,['e'],1,0.23965839999982563,0.4,0,0,AccAcc,28,18,Woman,Right,
43,12,1,1.0829919999996491,['c'],0,right,['e'],1,0.2217925999993895,0.4,0,0,AccAcc,28,18,Woman,Right,
44,12,1,2.316393099999914,['c'],1,left,['e'],1,0.2990821000003052,0.1,1,0,AccAcc,28,18,Woman,Right,
45,12,1,1.1842286999999487,['n'],1,right,['e'],1,0.2582454000003054,0.4,1,0,AccAcc,28,18,Woman,Right,
46,12,1,0.667005600000266,['c'],1,left,['e'],1,0.20805180000024848,0.4,1,0,AccAcc,28,18,Woman,Right,
47,12,1,2.067417899999782,['n'],1,right,['e'],1,0.1522850000001199,0.2,1,0,AccAcc,28,18,Woman,Right,
48,12,1,1.1159537000003183,['c'],0,right,['e'],1,0.23190520000025572,0.2,0,0,AccAcc,28,18,Woman,Right,
49,12,1,0.9343045000005077,['n'],1,right,['e'],1,0.17184960000122373,0.4,1,0,AccAcc,28,18,Woman,Right,
50,12,1,1.3504531999988103,['c'],0,right,['e'],1,0.16241900000022724,0.1,0,0,AccAcc,28,18,Woman,Right,
51,12,1,0.9845313000005262,['c'],0,right,['e'],1,0.182474799999909,0.4,0,0,AccAcc,28,18,Woman,Right,
52,12,1,1.8008102000003419,['c'],0,right,['e'],1,0.13757110000005923,0.4,0,0,AccAcc,28,18,Woman,Right,
53,12,1,1.6501563000001624,['n'],0,left,['e'],1,0.14868860000024142,0.2,0,0,AccAcc,28,18,Woman,Right,
54,12,1,1.8664134000009653,['c'],0,right,['e'],1,0.1508477999996103,0.1,0,0,AccAcc,28,18,Woman,Right,
55,12,1,1.4344959999998537,['c'],1,left,['e'],1,0.20211310000013327,0.2,1,0,AccAcc,28,18,Woman,Right,
56,12,1,1.1008541000010155,['c'],0,right,['e'],1,0.16888330000074347,0.1,0,0,AccAcc,28,18,Woman,Right,
57,12,1,0.9841415999999299,['c'],1,left,['u'],0,0.09310330000153044,0.2,0,0,AccAcc,28,18,Woman,Right,
58,12,1,1.9336729000006017,['n'],0,left,['u'],0,0.14309449999927892,0.1,1,0,AccAcc,28,18,Woman,Right,
59,12,1,1.4501983999998629,['c'],0,right,['u'],0,0.13073330000042915,0.2,1,0,AccAcc,28,18,Woman,Right,
0,13,1,1.5005244000003586,['n'],1,right,['e'],1,0.34235830000034184,0.1,1,0,FastAcc,28,18,Woman,Right,
1,13,1,1.0339855999991414,['c'],1,left,['e'],1,0.162566599999991,0.2,1,0,FastAcc,28,18,Woman,Right,
2,13,1,0.8994312000013451,['c'],1,left,['e'],1,0.17138469999918016,0.4,1,0,FastAcc,28,18,Woman,Right,
3,13,1,0.6833210999993753,['c'],1,left,['u'],0,0.25177219999932277,0.4,0,0,FastAcc,28,18,Woman,Right,
4,13,1,1.6173937000003207,['n'],1,right,['e'],1,0.43457560000024387,0.2,1,0,FastAcc,28,18,Woman,Right,
5,13,1,1.0170922000015707,['n'],1,right,['e'],1,0.2992715999989741,0.4,1,0,FastAcc,28,18,Woman,Right,
6,13,1,0.9343023000001267,['n'],1,right,['e'],1,0.17213230000015756,0.4,1,0,FastAcc,28,18,Woman,Right,
7,13,1,0.8009801000007428,['n'],1,right,['e'],1,0.12021490000006452,0.1,1,0,FastAcc,28,18,Woman,Right,
8,13,1,1.4008550999988074,['c'],1,left,['e'],1,0.2219554999992397,0.1,1,0,FastAcc,28,18,Woman,Right,
9,13,1,0.7679929999994783,['c'],1,left,['e'],1,0.20121729999846139,0.2,1,0,FastAcc,28,18,Woman,Right,
10,13,1,1.2509518999995635,['n'],1,right,['u'],0,0.14562470000055328,0.1,0,0,FastAcc,28,18,Woman,Right,
11,13,1,0.8176960999990115,['n'],0,left,['u'],0,0.1414388000011968,0.1,1,0,FastAcc,28,18,Woman,Right,
12,13,1,0.9177471000002697,['n'],0,left,['u'],0,0.15002370000001974,0.1,1,0,FastAcc,28,18,Woman,Right,
13,13,1,0.9004725000013423,['n'],0,left,['u'],0,0.47942739999962214,0.4,1,0,FastAcc,28,18,Woman,Right,
14,13,1,2.017463099999077,['c'],1,left,['u'],0,0.28531520000069577,0.2,0,0,FastAcc,28,18,Woman,Right,
15,13,1,0.9522284000013315,['c'],1,left,['u'],0,0.12641190000067581,0.2,0,0,FastAcc,28,18,Woman,Right,
16,13,1,1.4665410000015981,['c'],1,left,['e'],1,0.9776434999985213,0.4,1,0,FastAcc,28,18,Woman,Right,
17,13,1,0.9335657999999967,['c'],1,left,['u'],0,0.26419480000004114,0.4,0,0,FastAcc,28,18,Woman,Right,
18,13,1,2.0659183999996458,['n'],1,right,['u'],0,0.17488690000027418,0.1,0,0,FastAcc,28,18,Woman,Right,
19,13,1,1.301336500000616,['c'],0,right,['u'],0,0.13362939999933587,0.2,1,0,FastAcc,28,18,Woman,Right,
20,13,1,1.1002373000010266,['c'],1,left,['e'],1,0.11865089999992051,0.2,1,0,FastAcc,28,18,Woman,Right,
21,13,1,0.6513976000005641,['c'],1,left,['e'],1,0.1546197999996366,0.4,1,0,FastAcc,28,18,Woman,Right,
22,13,1,1.800217399999383,['c'],0,right,['e'],1,0.11103060000095866,0.1,0,0,FastAcc,28,18,Woman,Right,
23,13,1,0.7841301000007661,['c'],1,left,['e'],1,0.19050240000069607,0.4,1,0,FastAcc,28,18,Woman,Right,
24,13,1,0.9009514000008494,['n'],1,right,['e'],1,0.2616302000005817,0.4,1,0,FastAcc,28,18,Woman,Right,
25,13,1,1.0167531999995845,['c'],0,right,['e'],1,0.21332669999901555,0.1,0,0,FastAcc,28,18,Woman,Right,
26,13,1,0.8666745999998966,['n'],1,right,['e'],1,0.1560392999999749,0.1,1,0,FastAcc,28,18,Woman,Right,
27,13,1,1.3008829999998852,['c'],0,right,['e'],1,0.1803141999989748,0.2,0,0,FastAcc,28,18,Woman,Right,
28,13,1,0.8004465000012715,['c'],1,left,['e'],1,0.1754491000010603,0.2,1,0,FastAcc,28,18,Woman,Right,
29,13,1,1.800873700000011,['n'],1,right,['e'],1,0.19556239999838,0.1,1,0,FastAcc,28,18,Woman,Right,
30,13,1,0.7836224000002403,['n'],1,right,['e'],1,0.12659520000124758,0.2,1,0,FastAcc,28,18,Woman,Right,
31,13,1,1.0997805999995762,['c'],1,left,['e'],1,0.14466470000115805,0.2,1,0,FastAcc,28,18,Woman,Right,
32,13,1,1.2007871000005252,['c'],1,left,['e'],1,0.3818222000008973,0.2,1,0,FastAcc,28,18,Woman,Right,
33,13,1,0.850499199999831,['n'],1,right,['e'],1,0.191654500000368,0.4,1,0,FastAcc,28,18,Woman,Right,
34,13,1,1.2512771000001521,['n'],1,right,['e'],1,0.18406479999976,0.2,1,0,FastAcc,28,18,Woman,Right,
35,13,1,0.8837370000001101,['n'],1,right,['e'],1,0.1276176999999734,0.2,1,0,FastAcc,28,18,Woman,Right,
36,13,1,2.3669009000004735,['c'],1,left,['e'],1,0.15953629999967234,0.1,1,0,FastAcc,28,18,Woman,Right,
37,13,1,2.0173603000002913,['n'],1,right,['e'],1,1.211659899998267,0.4,1,0,FastAcc,28,18,Woman,Right,
38,13,1,1.2015245000002324,['c'],1,left,['e'],1,0.10967909999999392,0.2,1,0,FastAcc,28,18,Woman,Right,
39,13,1,2.117537000000084,['n'],1,right,['e'],1,0.3115949000002729,0.4,1,0,FastAcc,28,18,Woman,Right,
40,13,1,2.6320961999990686,['c'],1,left,['e'],1,0.11738210000112304,0.1,1,0,FastAcc,28,18,Woman,Right,
41,13,1,0.8324670999991213,['n'],1,right,['e'],1,0.16167099999984202,0.4,1,0,FastAcc,28,18,Woman,Right,
42,13,1,1.4679046999990533,['n'],1,right,['e'],1,0.19535399999949732,0.4,1,0,FastAcc,28,18,Woman,Right,
43,13,1,0.7345516999994288,['n'],1,right,['e'],1,0.19262300000082178,0.2,1,0,FastAcc,28,18,Woman,Right,
44,13,1,0.9345567999989726,['n'],0,left,['e'],1,0.16632509999908507,0.1,0,0,FastAcc,28,18,Woman,Right,
45,13,1,1.799997500000245,['n'],1,right,['u'],0,0.7467297000002873,0.1,0,0,FastAcc,28,18,Woman,Right,
46,13,1,2.21742820000145,['n'],1,right,['e'],1,0.4546551000003092,0.4,1,0,FastAcc,28,18,Woman,Right,
47,13,1,2.633549700000003,['n'],0,left,['e'],1,0.0954424999999901,0.4,0,0,FastAcc,28,18,Woman,Right,
48,13,1,3.7179517000004125,['c'],1,left,['e'],1,0.1375583999997616,0.1,1,0,FastAcc,28,18,Woman,Right,
49,13,1,2.1666814999989583,['n'],1,right,['e'],1,0.1122257000006357,0.2,1,0,FastAcc,28,18,Woman,Right,
50,13,1,0.9511758999997255,['c'],1,left,['e'],1,0.10382369999933871,0.1,1,0,FastAcc,28,18,Woman,Right,
51,13,1,0.7173371999997471,['n'],1,right,['e'],1,0.16970690000016475,0.1,1,0,FastAcc,28,18,Woman,Right,
52,13,1,1.383151199999702,['c'],1,left,['e'],1,0.12654230000043754,0.2,1,0,FastAcc,28,18,Woman,Right,
53,13,1,0.833850099999836,['n'],1,right,['e'],1,0.15558749999945576,0.4,1,0,FastAcc,28,18,Woman,Right,
54,13,1,1.550499499999205,['c'],1,left,['e'],1,0.1533422000011342,0.2,1,0,FastAcc,28,18,Woman,Right,
55,13,1,1.2174262999997154,['c'],1,left,['e'],1,0.16514009999991686,0.4,1,0,FastAcc,28,18,Woman,Right,
56,13,1,0.769006200000149,['n'],1,right,['e'],1,0.11418319999938831,0.4,1,0,FastAcc,28,18,Woman,Right,
57,13,1,0.8167171999994025,['n'],1,right,['e'],1,0.1275567000011506,0.2,1,0,FastAcc,28,18,Woman,Right,
58,13,1,1.267606599998544,['n'],0,left,['u'],0,0.0586511999990762,0.1,1,0,FastAcc,28,18,Woman,Right,
59,13,1,1.1176678000010725,['c'],1,left,['u'],0,0.09430120000070019,0.1,0,0,FastAcc,28,18,Woman,Right,
0,14,1,1.1006461000015406,['n'],1,right,['e'],1,0.10218970000096306,0.4,1,0,FastFast,28,18,Woman,Right,
1,14,1,0.7501228000000992,['n'],1,right,['e'],1,0.07098099999893748,0.4,1,0,FastFast,28,18,Woman,Right,
2,14,1,0.7002128000003722,['n'],1,right,['e'],1,0.10640320000129577,0.2,1,0,FastFast,28,18,Woman,Right,
3,14,1,1.0666771000014705,['n'],1,right,['u'],0,0.7503175000001647,0.1,0,0,FastFast,28,18,Woman,Right,
4,14,1,1.0675035000003845,['c'],1,left,['e'],1,0.3281680000000051,0.2,1,0,FastFast,28,18,Woman,Right,
5,14,1,0.7827627000006032,['n'],1,right,['u'],0,0.11205449999943085,0.4,0,0,FastFast,28,18,Woman,Right,
6,14,1,0.9521868000010727,['n'],1,right,['e'],1,0.1032868000002054,0.2,1,0,FastFast,28,18,Woman,Right,
7,14,1,1.0677742000007129,['c'],1,left,['u'],0,0.21910659999957716,0.4,0,0,FastFast,28,18,Woman,Right,
8,14,1,0.9670240000014019,['c'],1,left,['e'],1,0.06216049999966344,0.2,1,0,FastFast,28,18,Woman,Right,
9,14,1,1.2507242000010592,['c'],0,right,['e'],1,0.1240670000006503,0.1,0,0,FastFast,28,18,Woman,Right,
10,14,1,0.6847551999999268,['c'],1,left,['e'],1,0.12653210000098625,0.4,1,0,FastFast,28,18,Woman,Right,
11,14,1,1.0010723999985203,['n'],0,left,['e'],1,0.06845109999994747,0.1,0,0,FastFast,28,18,Woman,Right,
12,14,1,1.1509143999992375,['n'],1,right,['e'],1,0.11880070000006526,0.4,1,0,FastFast,28,18,Woman,Right,
13,14,1,1.0510357000002841,['c'],0,right,['e'],1,0.12213100000008126,0.2,0,0,FastFast,28,18,Woman,Right,
14,14,1,0.6840642999995907,['c'],0,right,['e'],1,0.07648530000005849,0.2,0,0,FastFast,28,18,Woman,Right,
15,14,1,0.6179670000001352,['c'],1,left,['e'],1,0.09994449999976496,0.1,1,0,FastFast,28,18,Woman,Right,
16,14,1,0.7676566000009188,['c'],0,right,['e'],1,0.09944639999957872,0.2,0,0,FastFast,28,18,Woman,Right,
17,14,1,0.6840076999997109,['c'],1,left,['e'],1,0.007170000000769505,0.4,1,0,FastFast,28,18,Woman,Right,
18,14,1,0.600425799999357,['c'],1,left,['e'],1,0.0489066999998613,0.4,1,0,FastFast,28,18,Woman,Right,
19,14,1,0.8669082999986131,['n'],1,right,['e'],1,0.11095360000035726,0.4,1,0,FastFast,28,18,Woman,Right,
20,14,1,1.1663905000004888,['c'],1,left,['e'],1,0.06255699999928765,0.1,1,0,FastFast,28,18,Woman,Right,
21,14,1,1.1670785999995132,['n'],1,right,['u'],0,0.0006807000008848263,0.4,0,0,FastFast,28,18,Woman,Right,
22,14,1,1.3839552000008553,['n'],0,left,['u'],0,0.027285799998935545,0.1,1,0,FastFast,28,18,Woman,Right,
23,14,1,1.034489300000132,['n'],1,right,['e'],1,0.004175600000962731,0.4,1,0,FastFast,28,18,Woman,Right,
24,14,1,0.799680800000715,['n'],1,right,['e'],1,0.03861419999884674,0.1,1,0,FastFast,28,18,Woman,Right,
25,14,1,1.0843755999994755,['n'],1,right,['e'],1,0.0597632999997586,0.1,1,0,FastFast,28,18,Woman,Right,
26,14,1,2.3839662999998836,['c'],1,left,['u'],0,0.029535699999541976,0.1,0,0,FastFast,28,18,Woman,Right,
27,14,1,2.567445000000589,['c'],1,left,['e'],1,0.03996270000061486,0.2,1,0,FastFast,28,18,Woman,Right,
28,14,1,1.7506099000001996,['c'],0,right,['u'],0,0.24325469999894267,0.2,1,0,FastFast,28,18,Woman,Right,
29,14,1,1.650774800000363,['c'],1,left,['u'],0,0.058608199999071076,0.4,0,0,FastFast,28,18,Woman,Right,
30,14,1,1.8503100000016275,['c'],1,left,['e'],1,0.05018530000052124,0.1,1,0,FastFast,28,18,Woman,Right,
31,14,1,2.3005081999999675,['c'],1,left,['e'],1,0.37407549999988987,0.2,1,0,FastFast,28,18,Woman,Right,
32,14,1,1.7842111000009027,['n'],1,right,['u'],0,0.30665849999968486,0.2,0,0,FastFast,28,18,Woman,Right,
33,14,1,3.0844212000010884,['c'],0,right,['e'],1,0.09419820000039181,0.2,0,0,FastFast,28,18,Woman,Right,
34,14,1,1.0341697000003478,['c'],1,left,['e'],1,0.020376100001158193,0.2,1,0,FastFast,28,18,Woman,Right,
35,14,1,1.300380300001052,['n'],1,right,['e'],1,0.1619869000005565,0.2,1,0,FastFast,28,18,Woman,Right,
36,14,1,1.3340398000000278,['n'],1,right,['e'],1,0.07259949999934179,0.1,1,0,FastFast,28,18,Woman,Right,
37,14,1,1.1818500000008498,['c'],1,left,['u'],0,0.3303419000003487,0.2,0,0,FastFast,28,18,Woman,Right,
38,14,1,1.3673392000000604,['c'],1,left,['e'],1,0.08829080000032263,0.4,1,0,FastFast,28,18,Woman,Right,
39,14,1,0.9507745000009891,['c'],1,left,['e'],1,0.08087909999994736,0.4,1,0,FastFast,28,18,Woman,Right,
40,14,1,1.1170067000002746,['n'],1,right,['e'],1,0.1648604999991221,0.4,1,0,FastFast,28,18,Woman,Right,
41,14,1,1.7841472000000067,['n'],1,right,['u'],0,0.08900100000028033,0.1,0,0,FastFast,28,18,Woman,Right,
42,14,1,1.1852919000011752,['c'],1,left,['e'],1,0.03990510000039649,0.1,1,0,FastFast,28,18,Woman,Right,
43,14,1,1.8164407999993273,['c'],1,left,['e'],1,0.0011838999998872168,0.1,1,0,FastFast,28,18,Woman,Right,
44,14,1,2.7833925999984785,['c'],0,right,['u'],0,0.06798879999951168,0.2,1,0,FastFast,28,18,Woman,Right,
45,14,1,2.450495499999306,['c'],1,left,['e'],1,1.1069115999998758,0.2,1,0,FastFast,28,18,Woman,Right,
46,14,1,1.2684896999999182,['n'],1,right,['e'],1,0.10222330000033253,0.4,1,0,FastFast,28,18,Woman,Right,
47,14,1,0.8175754999992932,['c'],1,left,['e'],1,0.0522000000000844,0.4,1,0,FastFast,28,18,Woman,Right,
48,14,1,2.0496539999985544,['c'],1,left,['u'],0,0.14724120000028051,0.1,0,0,FastFast,28,18,Woman,Right,
49,14,1,1.5507968999991135,['n'],1,right,['u'],0,0.018088500000885688,0.4,0,0,FastFast,28,18,Woman,Right,
50,14,1,0.9340622999989137,['n'],1,right,['u'],0,0.7818443000014668,0.4,0,0,FastFast,28,18,Woman,Right,
51,14,1,1.6006741999990481,['c'],1,left,['u'],0,0.19335820000014792,0.2,0,0,FastFast,28,18,Woman,Right,
52,14,1,0.9345933000004152,['c'],1,left,['u'],0,0.08703610000156914,0.1,0,0,FastFast,28,18,Woman,Right,
53,14,1,1.8174109999999928,['n'],1,right,['e'],1,0.17371170000114944,0.1,1,0,FastFast,28,18,Woman,Right,
54,14,1,1.3344677000004594,['n'],0,left,['e'],1,0.22813250000035623,0.2,0,0,FastFast,28,18,Woman,Right,
55,14,1,1.333881200000178,['n'],1,right,['e'],1,0.15340659999856143,0.2,1,0,FastFast,28,18,Woman,Right,
56,14,1,2.1837680999997247,['n'],1,right,['e'],1,0.23816380000062054,0.1,1,0,FastFast,28,18,Woman,Right,
57,14,1,2.616685299999517,['c'],1,left,['e'],1,0.20708689999992203,0.1,1,0,FastFast,28,18,Woman,Right,
58,14,1,1.3680107000000135,['c'],1,left,['u'],0,0.09902779999902123,0.4,0,0,FastFast,28,18,Woman,Right,
59,14,1,0.7167008000014903,['c'],1,left,['u'],0,0.11768069999925501,0.1,0,0,FastFast,28,18,Woman,Right,
0,15,1,1.134194899999784,['c'],1,left,['u'],0,0.1471044999998412,0.1,0,0,AccFast,28,18,Woman,Right,
1,15,1,0.800610799999049,['c'],1,left,['e'],1,0.09607920000053127,0.2,1,0,AccFast,28,18,Woman,Right,
2,15,1,0.9179795999989437,['n'],1,right,['e'],1,0.0735236000000441,0.2,1,0,AccFast,28,18,Woman,Right,
3,15,1,1.9348234000008233,['n'],1,right,['u'],0,0.8438626000006479,0.4,0,0,AccFast,28,18,Woman,Right,
4,15,1,1.2161062999985006,['c'],0,right,['u'],0,0.10946630000034929,0.4,1,0,AccFast,28,18,Woman,Right,
5,15,1,1.0005746000006184,['c'],0,right,['e'],1,0.1790701000008994,0.2,0,0,AccFast,28,18,Woman,Right,
6,15,1,1.434210899999016,['n'],1,right,['u'],0,0.11718260000088776,0.2,0,0,AccFast,28,18,Woman,Right,
7,15,1,2.8999375000003056,['c'],0,right,['e'],1,0.09466150000116613,0.2,0,0,AccFast,28,18,Woman,Right,
8,15,1,0.7178022000007331,['c'],1,left,['e'],1,0.11431009999978414,0.2,1,0,AccFast,28,18,Woman,Right,
9,15,1,1.3341940000009345,['c'],1,left,['e'],1,0.10578630000054545,0.2,1,0,AccFast,28,18,Woman,Right,
10,15,1,1.0836438999995153,['n'],0,left,['e'],1,0.12492539999948349,0.1,0,0,AccFast,28,18,Woman,Right,
11,15,1,1.8667083000000275,['c'],0,right,['e'],1,0.09610780000002705,0.1,0,0,AccFast,28,18,Woman,Right,
12,15,1,1.03433589999986,['n'],1,right,['e'],1,0.13373279999905208,0.1,1,0,AccFast,28,18,Woman,Right,
13,15,1,0.8503881000015099,['n'],1,right,['e'],1,0.11233910000009928,0.1,1,0,AccFast,28,18,Woman,Right,
14,15,1,0.8838622000002943,['n'],0,left,['e'],1,0.12336840000170923,0.2,0,0,AccFast,28,18,Woman,Right,
15,15,1,0.8998193999996147,['n'],1,right,['e'],1,0.11689099999966857,0.1,1,0,AccFast,28,18,Woman,Right,
16,15,1,0.9007854999999836,['n'],1,right,['e'],1,0.1425746999993862,0.2,1,0,AccFast,28,18,Woman,Right,
17,15,1,1.6008070999996562,['n'],1,right,['e'],1,0.1561760000004142,0.1,1,0,AccFast,28,18,Woman,Right,
18,15,1,1.1674247999999352,['n'],1,right,['e'],1,0.1536415999999008,0.4,1,0,AccFast,28,18,Woman,Right,
19,15,1,1.8991969999988214,['c'],1,left,['e'],1,0.12309230000028037,0.2,1,0,AccFast,28,18,Woman,Right,
20,15,1,2.0176587000005384,['n'],0,left,['u'],0,0.039888400000563706,0.2,1,0,AccFast,28,18,Woman,Right,
21,15,1,2.6164442999997846,['n'],0,left,['u'],0,0.24059139999917534,0.2,1,0,AccFast,28,18,Woman,Right,
22,15,1,1.5166171000000759,['c'],1,left,['u'],0,0.10980279999967024,0.4,0,0,AccFast,28,18,Woman,Right,
23,15,1,1.5488298000000214,['c'],0,right,['u'],0,0.09515020000071672,0.1,1,0,AccFast,28,18,Woman,Right,
24,15,1,2.4344720000008238,['c'],0,right,['u'],0,0.17190579999987676,0.2,1,0,AccFast,28,18,Woman,Right,
25,15,1,1.2843635999997787,['c'],1,left,['e'],1,0.06840759999977308,0.4,1,0,AccFast,28,18,Woman,Right,
26,15,1,1.5677661999998236,['c'],1,left,['u'],0,0.18168270000023767,0.1,0,0,AccFast,28,18,Woman,Right,
27,15,1,1.284066600001097,['n'],1,right,['e'],1,0.18990389999999024,0.4,1,0,AccFast,28,18,Woman,Right,
28,15,1,2.3671171000005415,['n'],0,left,['u'],0,0.05844500000057451,0.2,1,0,AccFast,28,18,Woman,Right,
29,15,1,3.9501039999995555,['n'],1,right,['e'],1,0.3495358000000124,0.1,1,0,AccFast,28,18,Woman,Right,
30,15,1,1.4344645999990462,['n'],1,right,['u'],0,1.0166941000006773,0.1,0,0,AccFast,28,18,Woman,Right,
31,15,1,1.6008289000001241,['n'],0,left,['e'],1,0.14707869999983814,0.1,0,0,AccFast,28,18,Woman,Right,
32,15,1,2.2663906999987375,['n'],1,right,['e'],1,0.40508369999952265,0.4,1,0,AccFast,28,18,Woman,Right,
33,15,1,1.3343024999994668,['n'],1,right,['u'],0,0.45028649999949266,0.2,0,0,AccFast,28,18,Woman,Right,
34,15,1,2.450579700000162,['n'],0,left,['e'],1,0.22511579999991227,0.2,0,0,AccFast,28,18,Woman,Right,
35,15,1,2.3001343999985693,['c'],0,right,['u'],0,0.8310710000005201,0.2,1,0,AccFast,28,18,Woman,Right,
36,15,1,2.350851799999873,['c'],1,left,['e'],1,0.11487829999896348,0.4,1,0,AccFast,28,18,Woman,Right,
37,15,1,1.6835730999991938,['c'],0,right,['u'],0,0.17435590000059165,0.1,1,0,AccFast,28,18,Woman,Right,
38,15,1,1.3508304999995744,['c'],0,right,['u'],0,0.0993001999995613,0.2,1,0,AccFast,28,18,Woman,Right,
39,15,1,0.9492206000013539,['c'],1,left,['u'],0,0.6528631000001042,0.1,0,0,AccFast,28,18,Woman,Right,
40,15,1,1.1352943999991112,['c'],1,left,['e'],1,0.11891860000105225,0.4,1,0,AccFast,28,18,Woman,Right,
41,15,1,1.4336862999989535,['n'],1,right,['e'],1,0.13946209999994608,0.4,1,0,AccFast,28,18,Woman,Right,
42,15,1,1.168168100000912,['n'],1,right,['e'],1,0.09011029999965103,0.4,1,0,AccFast,28,18,Woman,Right,
43,15,1,1.4841517999993812,['c'],1,left,['e'],1,0.07811260000016773,0.4,1,0,AccFast,28,18,Woman,Right,
44,15,1,1.1828843999992387,['n'],0,left,['u'],0,0.17463339999994787,0.1,1,0,AccFast,28,18,Woman,Right,
45,15,1,1.5997140999988915,['c'],1,left,['e'],1,0.17076430000088294,0.4,1,0,AccFast,28,18,Woman,Right,
46,15,1,0.7676730000002863,['c'],1,left,['e'],1,0.11971799999992072,0.4,1,0,AccFast,28,18,Woman,Right,
47,15,1,1.0175851999993029,['n'],1,right,['e'],1,0.14132210000025225,0.4,1,0,AccFast,28,18,Woman,Right,
48,15,1,1.0669701999995596,['c'],1,left,['e'],1,0.12841990000015358,0.1,1,0,AccFast,28,18,Woman,Right,
49,15,1,0.7999145999983739,['c'],0,right,['e'],1,0.14208099999996193,0.1,0,0,AccFast,28,18,Woman,Right,
50,15,1,1.3012870000002295,['c'],0,right,['u'],0,1.1264072000012675,0.2,1,0,AccFast,28,18,Woman,Right,
51,15,1,2.2005242000013823,['c'],1,left,['u'],0,0.46874899999966146,0.1,0,0,AccFast,28,18,Woman,Right,
52,15,1,0.8672698000009404,['c'],1,left,['u'],0,0.1457697999994707,0.4,0,0,AccFast,28,18,Woman,Right,
53,15,1,1.3496042999995552,['c'],1,left,['e'],1,0.36070590000053926,0.4,1,0,AccFast,28,18,Woman,Right,
54,15,1,0.8666723000005732,['c'],1,left,['u'],0,0.9224427999997715,0.1,0,0,AccFast,28,18,Woman,Right,
55,15,1,1.2163894000004802,['n'],1,right,['u'],0,0.32887339999979304,0.4,0,0,AccFast,28,18,Woman,Right,
56,15,1,1.4344462000008207,['c'],1,left,['e'],1,0.16423159999976633,0.2,1,0,AccFast,28,18,Woman,Right,
57,15,1,1.5508946999998443,['c'],0,right,['e'],1,0.17819579999923008,0.1,0,0,AccFast,28,18,Woman,Right,
58,15,1,1.1670475999999326,['c'],1,left,['e'],1,0.17524469999989378,0.4,1,0,AccFast,28,18,Woman,Right,
59,15,1,0.7508474000005663,['c'],1,left,['e'],1,0.14116959999955725,0.4,1,0,AccFast,28,18,Woman,Right,
