withinblocktrial,block,block_repetition,rt,resp,cor,cresp,conf_press,cj,rtconf,coherence,metacognition,slow_trial,manipulation,sub,age,gender,handedness,
0,1,1,5.001091499998438,x,-99,left,none,-99,-99,0.5,-99,1,none,24,18,Woman,Right,
1,1,1,1.000661799998852,['n'],0,left,none,-99,-99,0.5,-99,0,none,24,18,Woman,Right,
2,1,1,1.9161574999998265,['c'],0,right,none,-99,-99,0.5,-99,0,none,24,18,Woman,Right,
3,1,1,1.4505353000004106,"['c', 'n']",0,right,none,-99,-99,0.5,-99,0,none,24,18,Woman,Right,
4,1,1,1.3679476999986946,['n'],0,left,none,-99,-99,0.5,-99,0,none,24,18,Woman,Right,
5,1,1,0.4012531000007584,['n'],1,right,none,-99,-99,0.5,-99,0,none,24,18,Woman,Right,
6,1,1,0.6675857999998698,['c'],0,right,none,-99,-99,0.5,-99,0,none,24,18,Woman,Right,
7,1,1,0.4992684000008012,['n'],1,right,none,-99,-99,0.5,-99,0,none,24,18,Woman,Right,
8,1,1,0.6832057999999961,['c'],1,left,none,-99,-99,0.5,-99,0,none,24,18,Woman,Right,
9,1,1,0.7346331999997346,['c'],1,left,none,-99,-99,0.5,-99,0,none,24,18,Woman,Right,
10,1,1,0.5334055999992415,['c'],1,left,none,-99,-99,0.5,-99,0,none,24,18,Woman,Right,
11,1,1,0.2698729000003368,['c'],0,right,none,-99,-99,0.5,-99,0,none,24,18,Woman,Right,
12,1,1,0.36628139999993437,['n'],1,right,none,-99,-99,0.5,-99,0,none,24,18,Woman,Right,
13,1,1,0.5319534999998723,['n'],0,left,none,-99,-99,0.5,-99,0,none,24,18,Woman,Right,
14,1,1,0.3681968999990204,['c'],1,left,none,-99,-99,0.5,-99,0,none,24,18,Woman,Right,
15,1,1,0.7335777000007511,['n'],1,right,none,-99,-99,0.5,-99,0,none,24,18,Woman,Right,
16,1,1,1.2673754999996163,['n'],1,right,none,-99,-99,0.5,-99,0,none,24,18,Woman,Right,
17,1,1,0.9835949999996956,['c'],1,left,none,-99,-99,0.5,-99,0,none,24,18,Woman,Right,
18,1,1,0.7012022000017168,['c'],1,left,none,-99,-99,0.5,-99,0,none,24,18,Woman,Right,
19,1,1,0.40115500000138127,['c'],0,right,none,-99,-99,0.5,-99,0,none,24,18,Woman,Right,
20,1,1,0.767914699999892,['c'],1,left,none,-99,-99,0.5,-99,0,none,24,18,Woman,Right,
21,1,1,0.6352779999997438,['n'],1,right,none,-99,-99,0.5,-99,0,none,24,18,Woman,Right,
22,1,1,0.6006747999999789,['c'],1,left,none,-99,-99,0.5,-99,0,none,24,18,Woman,Right,
23,1,1,0.5510016999996878,['n'],1,right,none,-99,-99,0.5,-99,0,none,24,18,Woman,Right,
0,1,2,0.3670265999990079,['n'],1,right,none,-99,-99,0.5,-99,0,none,24,18,Woman,Right,
1,1,2,0.2505403000013757,['n'],0,left,none,-99,-99,0.5,-99,0,none,24,18,Woman,Right,
2,1,2,0.41870810000000347,['c'],1,left,none,-99,-99,0.5,-99,0,none,24,18,Woman,Right,
3,1,2,0.3331600999990769,['n'],1,right,none,-99,-99,0.5,-99,0,none,24,18,Woman,Right,
4,1,2,0.2843265999999858,['c'],0,right,none,-99,-99,0.5,-99,0,none,24,18,Woman,Right,
5,1,2,0.6850812000011501,['n'],0,left,none,-99,-99,0.5,-99,0,none,24,18,Woman,Right,
6,1,2,0.7339455999990605,['n'],1,right,none,-99,-99,0.5,-99,0,none,24,18,Woman,Right,
7,1,2,0.5340789999991102,['c'],1,left,none,-99,-99,0.5,-99,0,none,24,18,Woman,Right,
8,1,2,0.36801609999929497,['n'],0,left,none,-99,-99,0.5,-99,0,none,24,18,Woman,Right,
9,1,2,0.36908239999866055,['n'],1,right,none,-99,-99,0.5,-99,0,none,24,18,Woman,Right,
10,1,2,0.551459900001646,['n'],1,right,none,-99,-99,0.5,-99,0,none,24,18,Woman,Right,
11,1,2,0.43281060000117577,['c'],1,left,none,-99,-99,0.5,-99,0,none,24,18,Woman,Right,
12,1,2,0.48262979999890376,['n'],1,right,none,-99,-99,0.5,-99,0,none,24,18,Woman,Right,
13,1,2,0.6014157999998133,['n'],1,right,none,-99,-99,0.5,-99,0,none,24,18,Woman,Right,
14,1,2,0.5341048999998748,['n'],1,right,none,-99,-99,0.5,-99,0,none,24,18,Woman,Right,
15,1,2,0.5175194999992527,['c'],1,left,none,-99,-99,0.5,-99,0,none,24,18,Woman,Right,
16,1,2,0.2676240000000689,['n'],0,left,none,-99,-99,0.5,-99,0,none,24,18,Woman,Right,
17,1,2,0.5008529000006092,['n'],1,right,none,-99,-99,0.5,-99,0,none,24,18,Woman,Right,
18,1,2,0.4342294000016409,['n'],1,right,none,-99,-99,0.5,-99,0,none,24,18,Woman,Right,
19,1,2,0.6351594000007026,['c'],1,left,none,-99,-99,0.5,-99,0,none,24,18,Woman,Right,
20,1,2,0.5843040999989171,['c'],1,left,none,-99,-99,0.5,-99,0,none,24,18,Woman,Right,
21,1,2,0.6170285000007425,['c'],1,left,none,-99,-99,0.5,-99,0,none,24,18,Woman,Right,
22,1,2,0.5846858999993856,['n'],1,right,none,-99,-99,0.5,-99,0,none,24,18,Woman,Right,
23,1,2,0.533842500000901,['c'],1,left,none,-99,-99,0.5,-99,0,none,24,18,Woman,Right,
0,1,3,0.9345771000007517,['n'],0,left,none,-99,-99,0.5,-99,0,none,24,18,Woman,Right,
1,1,3,1.1005378999998356,['c'],1,left,none,-99,-99,0.5,-99,0,none,24,18,Woman,Right,
2,1,3,0.4829910000007658,['c'],1,left,none,-99,-99,0.5,-99,0,none,24,18,Woman,Right,
3,1,3,0.3841475999997783,['n'],0,left,none,-99,-99,0.5,-99,0,none,24,18,Woman,Right,
4,1,3,0.6670653000001039,['c'],1,left,none,-99,-99,0.5,-99,0,none,24,18,Woman,Right,
5,1,3,0.5338751999988745,['n'],1,right,none,-99,-99,0.5,-99,0,none,24,18,Woman,Right,
6,1,3,0.5998934999988705,['n'],1,right,none,-99,-99,0.5,-99,0,none,24,18,Woman,Right,
7,1,3,0.5837644000002911,['n'],1,right,none,-99,-99,0.5,-99,0,none,24,18,Woman,Right,
8,1,3,0.6679585999991104,['n'],1,right,none,-99,-99,0.5,-99,0,none,24,18,Woman,Right,
9,1,3,0.5681463000000804,['n'],1,right,none,-99,-99,0.5,-99,0,none,24,18,Woman,Right,
10,1,3,0.6338673999998719,['c'],1,left,none,-99,-99,0.5,-99,0,none,24,18,Woman,Right,
11,1,3,0.451033199999074,['n'],1,right,none,-99,-99,0.5,-99,0,none,24,18,Woman,Right,
12,1,3,0.5169808999999077,['n'],1,right,none,-99,-99,0.5,-99,0,none,24,18,Woman,Right,
13,1,3,0.35028779999993276,['c'],1,left,none,-99,-99,0.5,-99,0,none,24,18,Woman,Right,
14,1,3,0.4504183999997622,['c'],1,left,none,-99,-99,0.5,-99,0,none,24,18,Woman,Right,
15,1,3,0.28372830000080285,['n'],0,left,none,-99,-99,0.5,-99,0,none,24,18,Woman,Right,
16,1,3,0.6339080999987345,['c'],1,left,none,-99,-99,0.5,-99,0,none,24,18,Woman,Right,
17,1,3,0.45118379999985336,['c'],1,left,none,-99,-99,0.5,-99,0,none,24,18,Woman,Right,
18,1,3,0.3661279999996623,['c'],0,right,none,-99,-99,0.5,-99,0,none,24,18,Woman,Right,
19,1,3,0.3333925000006275,['n'],0,left,none,-99,-99,0.5,-99,0,none,24,18,Woman,Right,
20,1,3,0.315791300001365,['c'],0,right,none,-99,-99,0.5,-99,0,none,24,18,Woman,Right,
21,1,3,0.050244199999724515,['n'],1,right,none,-99,-99,0.5,-99,0,none,24,18,Woman,Right,
22,1,3,0.6513675000005605,['n'],1,right,none,-99,-99,0.5,-99,0,none,24,18,Woman,Right,
23,1,3,0.2840783999999985,['n'],1,right,none,-99,-99,0.5,-99,0,none,24,18,Woman,Right,
0,1,4,0.4843237000004592,['n'],1,right,none,-99,-99,0.5,-99,0,none,24,18,Woman,Right,
1,1,4,0.33437969999977213,['n'],1,right,none,-99,-99,0.5,-99,0,none,24,18,Woman,Right,
2,1,4,0.33415750000131084,['n'],1,right,none,-99,-99,0.5,-99,0,none,24,18,Woman,Right,
3,1,4,0.3518244000006234,['n'],0,left,none,-99,-99,0.5,-99,0,none,24,18,Woman,Right,
4,1,4,0.46691680000003544,['n'],1,right,none,-99,-99,0.5,-99,0,none,24,18,Woman,Right,
5,1,4,0.5338333999989118,['n'],1,right,none,-99,-99,0.5,-99,0,none,24,18,Woman,Right,
6,1,4,0.48485729999993055,['n'],0,left,none,-99,-99,0.5,-99,0,none,24,18,Woman,Right,
7,1,4,0.6014202000005753,['c'],1,left,none,-99,-99,0.5,-99,0,none,24,18,Woman,Right,
8,1,4,0.3341383999995742,['n'],0,left,none,-99,-99,0.5,-99,0,none,24,18,Woman,Right,
9,1,4,0.9000780000005761,['n'],1,right,none,-99,-99,0.5,-99,0,none,24,18,Woman,Right,
10,1,4,0.6014510999993945,['c'],1,left,none,-99,-99,0.5,-99,0,none,24,18,Woman,Right,
11,1,4,0.38452630000028876,['n'],0,left,none,-99,-99,0.5,-99,0,none,24,18,Woman,Right,
12,1,4,0.7526330000000598,['n'],1,right,none,-99,-99,0.5,-99,0,none,24,18,Woman,Right,
13,1,4,0.35062359999938053,['n'],0,left,none,-99,-99,0.5,-99,0,none,24,18,Woman,Right,
14,1,4,0.634274899999582,['n'],1,right,none,-99,-99,0.5,-99,0,none,24,18,Woman,Right,
15,1,4,0.667186300001049,['n'],1,right,none,-99,-99,0.5,-99,0,none,24,18,Woman,Right,
16,1,4,0.48450790000060806,['c'],1,left,none,-99,-99,0.5,-99,0,none,24,18,Woman,Right,
17,1,4,0.5987623000000895,['n'],1,right,none,-99,-99,0.5,-99,0,none,24,18,Woman,Right,
18,1,4,0.4674580999999307,['n'],1,right,none,-99,-99,0.5,-99,0,none,24,18,Woman,Right,
19,1,4,0.4337709999999788,['c'],1,left,none,-99,-99,0.5,-99,0,none,24,18,Woman,Right,
20,1,4,0.3688732999999047,['n'],0,left,none,-99,-99,0.5,-99,0,none,24,18,Woman,Right,
21,1,4,0.4506554999989021,['n'],1,right,none,-99,-99,0.5,-99,0,none,24,18,Woman,Right,
22,1,4,0.38384030000088387,['c'],1,left,none,-99,-99,0.5,-99,0,none,24,18,Woman,Right,
23,1,4,0.5015638000004401,['c'],1,left,none,-99,-99,0.5,-99,0,none,24,18,Woman,Right,
0,1,5,0.8177006999994774,['n'],1,right,none,-99,-99,0.5,-99,0,none,24,18,Woman,Right,
1,1,5,1.9164688000000751,['c'],1,left,none,-99,-99,0.5,-99,0,none,24,18,Woman,Right,
2,1,5,0.7659280000007129,['n'],1,right,none,-99,-99,0.5,-99,0,none,24,18,Woman,Right,
3,1,5,0.30003279999982624,['c'],0,right,none,-99,-99,0.5,-99,0,none,24,18,Woman,Right,
4,1,5,0.5840319999988424,['n'],1,right,none,-99,-99,0.5,-99,0,none,24,18,Woman,Right,
5,1,5,0.9846534000007523,['n'],1,right,none,-99,-99,0.5,-99,0,none,24,18,Woman,Right,
6,1,5,0.8671969000006357,['n'],1,right,none,-99,-99,0.5,-99,0,none,24,18,Woman,Right,
7,1,5,0.5837682000001223,['c'],1,left,none,-99,-99,0.5,-99,0,none,24,18,Woman,Right,
8,1,5,0.5846662000003562,['n'],1,right,none,-99,-99,0.5,-99,0,none,24,18,Woman,Right,
9,1,5,0.734051499999623,['c'],1,left,none,-99,-99,0.5,-99,0,none,24,18,Woman,Right,
10,1,5,0.6322510000009061,['n'],1,right,none,-99,-99,0.5,-99,0,none,24,18,Woman,Right,
11,1,5,0.6027604999999312,['c'],1,left,none,-99,-99,0.5,-99,0,none,24,18,Woman,Right,
12,1,5,0.7816266000008909,['c'],1,left,none,-99,-99,0.5,-99,0,none,24,18,Woman,Right,
13,1,5,0.6839623000014399,['c'],1,left,none,-99,-99,0.5,-99,0,none,24,18,Woman,Right,
14,1,5,0.5172578999990947,['c'],1,left,none,-99,-99,0.5,-99,0,none,24,18,Woman,Right,
15,1,5,0.40129759999945236,['c'],0,right,none,-99,-99,0.5,-99,0,none,24,18,Woman,Right,
16,1,5,0.5007652999993297,['n'],0,left,none,-99,-99,0.5,-99,0,none,24,18,Woman,Right,
17,1,5,3.450450300000739,['n'],1,right,none,-99,-99,0.5,-99,0,none,24,18,Woman,Right,
18,1,5,0.5014663000001747,['n'],1,right,none,-99,-99,0.5,-99,0,none,24,18,Woman,Right,
19,1,5,0.3344226000008348,['c'],1,left,none,-99,-99,0.5,-99,0,none,24,18,Woman,Right,
20,1,5,0.5832107000005635,['c'],1,left,none,-99,-99,0.5,-99,0,none,24,18,Woman,Right,
21,1,5,0.4012146000004577,['c'],1,left,none,-99,-99,0.5,-99,0,none,24,18,Woman,Right,
22,1,5,0.5178998999999749,['c'],1,left,none,-99,-99,0.5,-99,0,none,24,18,Woman,Right,
23,1,5,0.5339870999996492,['n'],1,right,none,-99,-99,0.5,-99,0,none,24,18,Woman,Right,
0,2,1,2.0342055000000983,['c'],1,left,none,-99,-99,0.4,-99,0,none,24,18,Woman,Right,
1,2,1,0.7160327999990841,['c'],1,left,none,-99,-99,0.4,-99,0,none,24,18,Woman,Right,
2,2,1,0.5501545000006445,['c'],0,right,none,-99,-99,0.1,-99,0,none,24,18,Woman,Right,
3,2,1,0.5838958000003913,['n'],0,left,none,-99,-99,0.1,-99,0,none,24,18,Woman,Right,
4,2,1,0.7486010000011447,['c'],1,left,none,-99,-99,0.2,-99,0,none,24,18,Woman,Right,
5,2,1,0.6002396999992925,['n'],1,right,none,-99,-99,0.4,-99,0,none,24,18,Woman,Right,
6,2,1,0.6841226999986247,['n'],1,right,none,-99,-99,0.4,-99,0,none,24,18,Woman,Right,
7,2,1,0.6348323000001983,['c'],1,left,none,-99,-99,0.4,-99,0,none,24,18,Woman,Right,
8,2,1,0.718102099999669,['c'],1,left,none,-99,-99,0.1,-99,0,none,24,18,Woman,Right,
9,2,1,0.5846106999997573,['c'],1,left,none,-99,-99,0.2,-99,0,none,24,18,Woman,Right,
10,2,1,0.6511559999999008,['c'],1,left,none,-99,-99,0.2,-99,0,none,24,18,Woman,Right,
11,2,1,0.6675293000007514,['n'],1,right,none,-99,-99,0.1,-99,0,none,24,18,Woman,Right,
12,2,1,0.9164320999989286,['c'],1,left,none,-99,-99,0.2,-99,0,none,24,18,Woman,Right,
13,2,1,0.5005011000012018,['c'],0,right,none,-99,-99,0.2,-99,0,none,24,18,Woman,Right,
14,2,1,0.8012974999983271,['n'],1,right,none,-99,-99,0.1,-99,0,none,24,18,Woman,Right,
15,2,1,0.5503846999999951,['n'],1,right,none,-99,-99,0.1,-99,0,none,24,18,Woman,Right,
16,2,1,0.5505567000000156,['c'],1,left,none,-99,-99,0.2,-99,0,none,24,18,Woman,Right,
17,2,1,0.584108399998513,['c'],1,left,none,-99,-99,0.1,-99,0,none,24,18,Woman,Right,
18,2,1,1.1675123000004533,['n'],1,right,none,-99,-99,0.2,-99,0,none,24,18,Woman,Right,
19,2,1,0.832137800000055,['n'],1,right,none,-99,-99,0.1,-99,0,none,24,18,Woman,Right,
20,2,1,0.6669030000011844,['n'],1,right,none,-99,-99,0.2,-99,0,none,24,18,Woman,Right,
21,2,1,0.8837840999985929,['n'],1,right,none,-99,-99,0.4,-99,0,none,24,18,Woman,Right,
22,2,1,0.41680900000028487,['n'],1,right,none,-99,-99,0.4,-99,0,none,24,18,Woman,Right,
23,2,1,0.5503232999999454,['n'],0,left,none,-99,-99,0.4,-99,0,none,24,18,Woman,Right,
0,3,1,0.7015155000008235,['n'],1,right,['u'],0,0.9626317000002018,0.2,0,0,none,24,18,Woman,Right,
1,3,1,0.9354596999983187,['c'],1,left,['e'],1,0.6369384999998147,0.4,1,0,none,24,18,Woman,Right,
2,3,1,1.4672803999983444,['c'],1,left,['u'],0,0.6399158999993233,0.1,0,0,none,24,18,Woman,Right,
3,3,1,0.6014336999996885,['c'],1,left,['u'],0,0.6279273999989528,0.2,0,0,none,24,18,Woman,Right,
4,3,1,1.5495546000001923,['n'],1,right,['e'],1,0.3410595999994257,0.4,1,0,none,24,18,Woman,Right,
5,3,1,0.9683772999997018,['c'],0,right,['u'],0,0.4538536000000022,0.1,1,0,none,24,18,Woman,Right,
6,3,1,0.8844429999990098,['c'],0,right,['u'],0,0.4067622999991727,0.2,1,0,none,24,18,Woman,Right,
7,3,1,1.0348415999997087,['c'],1,left,['u'],0,0.2915450000000419,0.1,0,0,none,24,18,Woman,Right,
8,3,1,0.9849160999983724,['n'],1,right,['e'],1,0.39128919999893697,0.4,1,0,none,24,18,Woman,Right,
9,3,1,0.7997902999995858,['n'],1,right,['e'],1,0.286641900000177,0.2,1,0,none,24,18,Woman,Right,
10,3,1,0.9346845999989455,['n'],1,right,['e'],1,0.2756917999995494,0.2,1,0,none,24,18,Woman,Right,
11,3,1,0.7679351000006136,['c'],1,left,['e'],1,0.38449170000058075,0.4,1,0,none,24,18,Woman,Right,
12,3,1,0.9347058000003017,['n'],1,right,['u'],0,0.7541724000002432,0.4,0,0,none,24,18,Woman,Right,
13,3,1,1.8005161000000953,['c'],1,left,['u'],0,0.29052170000068145,0.2,0,0,none,24,18,Woman,Right,
14,3,1,0.6681175000012445,['c'],1,left,['e'],1,0.49931389999983367,0.4,1,0,none,24,18,Woman,Right,
15,3,1,0.8013468000008288,['n'],0,left,['u'],0,0.29279939999833005,0.1,1,0,none,24,18,Woman,Right,
16,3,1,1.1838341999991826,['c'],1,left,['u'],0,0.19251749999966705,0.2,0,0,none,24,18,Woman,Right,
17,3,1,0.9681012000000919,['c'],0,right,['u'],0,0.4084789999997156,0.1,1,0,none,24,18,Woman,Right,
18,3,1,1.2682320999992953,['c'],1,left,['e'],1,0.25225870000031136,0.2,1,0,none,24,18,Woman,Right,
19,3,1,2.849905900000522,['c'],0,right,['u'],0,0.5033375000002707,0.1,1,0,none,24,18,Woman,Right,
20,3,1,0.9501284999987547,['c'],1,left,['u'],0,0.4187376999998378,0.1,0,0,none,24,18,Woman,Right,
21,3,1,1.0496693000004598,['c'],0,right,['e'],1,0.28760220000003756,0.4,0,0,none,24,18,Woman,Right,
22,3,1,2.3346504000001005,['c'],1,left,['u'],0,0.5240637000006245,0.1,0,0,none,24,18,Woman,Right,
23,3,1,0.8999705999995058,['c'],0,right,['u'],0,0.7144115000010061,0.4,1,0,none,24,18,Woman,Right,
0,4,1,3.217244400000709,['c'],1,left,['u'],0,1.3342013000001316,0.2,0,0,AccAcc,24,18,Woman,Right,
1,4,1,1.984197399999175,['n'],1,right,['u'],0,0.996266199999809,0.1,0,0,AccAcc,24,18,Woman,Right,
2,4,1,1.600727500001085,['c'],1,left,['e'],1,0.3502948000004835,0.1,1,0,AccAcc,24,18,Woman,Right,
3,4,1,1.267153299999336,['c'],1,left,['e'],1,0.2889317999997729,0.1,1,0,AccAcc,24,18,Woman,Right,
4,4,1,2.9173425000008137,['c'],0,right,['u'],0,0.24226269999962824,0.2,1,0,AccAcc,24,18,Woman,Right,
5,4,1,3.5503974000002927,['c'],0,right,['u'],0,0.5415175999987696,0.1,1,0,AccAcc,24,18,Woman,Right,
6,4,1,1.1843357999987347,['c'],1,left,['u'],0,0.20319879999988189,0.2,0,0,AccAcc,24,18,Woman,Right,
7,4,1,1.2011439999987488,['c'],1,left,['e'],1,0.22960039999998116,0.4,1,0,AccAcc,24,18,Woman,Right,
8,4,1,2.6998514000006253,['c'],1,left,['u'],0,0.1631353000011586,0.2,0,0,AccAcc,24,18,Woman,Right,
9,4,1,0.9344373000003543,['c'],0,right,['e'],1,0.42502779999995255,0.4,0,0,AccAcc,24,18,Woman,Right,
10,4,1,2.967797799999971,['c'],1,left,['e'],1,0.17996320000020205,0.1,1,0,AccAcc,24,18,Woman,Right,
11,4,1,3.699929999998858,['n'],1,right,['e'],1,0.9232731000010972,0.1,1,0,AccAcc,24,18,Woman,Right,
12,4,1,1.7177005000012286,['c'],1,left,['e'],1,0.3242826999994577,0.2,1,0,AccAcc,24,18,Woman,Right,
13,4,1,1.9005825999993249,['c'],1,left,['e'],1,0.06205290000070818,0.1,1,0,AccAcc,24,18,Woman,Right,
14,4,1,2.867525999999998,['n'],0,left,['e'],1,0.20314910000161035,0.1,0,0,AccAcc,24,18,Woman,Right,
15,4,1,3.415095199999996,['c'],1,left,['e'],1,0.22233370000139985,0.2,1,0,AccAcc,24,18,Woman,Right,
16,4,1,0.918537199999264,['c'],1,left,['e'],1,0.11384629999884055,0.2,1,0,AccAcc,24,18,Woman,Right,
17,4,1,2.017451899999287,['n'],1,right,['e'],1,0.15887780000048224,0.4,1,0,AccAcc,24,18,Woman,Right,
18,4,1,0.9348237000012887,['c'],1,left,['e'],1,0.19782490000034159,0.4,1,0,AccAcc,24,18,Woman,Right,
19,4,1,1.2166488999991998,['c'],1,left,['e'],1,0.111081799999738,0.2,1,0,AccAcc,24,18,Woman,Right,
20,4,1,0.8345128000000841,['c'],0,right,['e'],1,0.12415739999960351,0.2,0,0,AccAcc,24,18,Woman,Right,
21,4,1,1.4845973999999842,['n'],1,right,['e'],1,0.20643759999984468,0.1,1,0,AccAcc,24,18,Woman,Right,
22,4,1,1.116458700000294,['c'],1,left,['e'],1,0.10915979999845149,0.4,1,0,AccAcc,24,18,Woman,Right,
23,4,1,1.4188672000000224,['n'],1,right,['e'],1,0.16173819999858097,0.4,1,0,AccAcc,24,18,Woman,Right,
24,4,1,3.115842799999882,['n'],1,right,['u'],0,0.2582731000002241,0.4,0,0,AccAcc,24,18,Woman,Right,
25,4,1,1.2665483000000677,['c'],0,right,['e'],1,0.16690360000029614,0.2,0,0,AccAcc,24,18,Woman,Right,
26,4,1,1.0834030999994866,['c'],1,left,['e'],1,0.1190387999995437,0.2,1,0,AccAcc,24,18,Woman,Right,
27,4,1,1.6678953000009642,['n'],0,left,['e'],1,0.145755099998496,0.2,0,0,AccAcc,24,18,Woman,Right,
28,4,1,1.1359023999993951,['n'],1,right,['e'],1,0.14486980000037875,0.4,1,0,AccAcc,24,18,Woman,Right,
29,4,1,3.585038400000485,['n'],1,right,['e'],1,1.5504209000009723,0.2,1,0,AccAcc,24,18,Woman,Right,
30,4,1,0.7012324000006629,['n'],1,right,['e'],1,0.16684520000126213,0.1,1,0,AccAcc,24,18,Woman,Right,
31,4,1,1.1345522999999957,['c'],1,left,['e'],1,0.06929149999996298,0.4,1,0,AccAcc,24,18,Woman,Right,
32,4,1,0.7673348000007536,['c'],1,left,['e'],1,0.05387230000087584,0.2,1,0,AccAcc,24,18,Woman,Right,
33,4,1,3.667969099999027,['n'],1,right,['u'],0,0.5158160999999382,0.1,0,0,AccAcc,24,18,Woman,Right,
34,4,1,0.7846664999997301,['c'],1,left,['e'],1,0.08208840000042983,0.4,1,0,AccAcc,24,18,Woman,Right,
35,4,1,2.2010776000006445,['n'],1,right,['u'],0,0.10506420000092476,0.1,0,0,AccAcc,24,18,Woman,Right,
36,4,1,0.8010493000001588,['n'],1,right,['u'],0,0.24715979999928095,0.4,0,0,AccAcc,24,18,Woman,Right,
37,4,1,0.8331809999999678,['c'],1,left,['e'],1,0.07851789999949688,0.4,1,0,AccAcc,24,18,Woman,Right,
38,4,1,1.8514854999993986,['n'],1,right,['e'],1,0.21112540000103763,0.4,1,0,AccAcc,24,18,Woman,Right,
39,4,1,1.8345313999998325,['c'],1,left,['e'],1,0.05227689999992435,0.1,1,0,AccAcc,24,18,Woman,Right,
40,4,1,0.5497046999989834,['n'],0,left,['u'],0,1.1026130999998713,0.1,1,0,AccAcc,24,18,Woman,Right,
41,4,1,0.5012582999988808,"['n', 'c']",1,right,['u'],0,0.09725190000062867,0.2,0,0,AccAcc,24,18,Woman,Right,
42,4,1,0.3671835999994073,['c'],0,right,['u'],0,0.06419459999960964,0.1,1,0,AccAcc,24,18,Woman,Right,
43,4,1,0.4504563999998936,"['c', 'n']",1,left,"['u', 'e']",0,0.1261568999998417,0.2,0,0,AccAcc,24,18,Woman,Right,
44,4,1,0.3846677000001364,['n'],1,right,"['u', 'e']",0,0.188641099999586,0.1,0,0,AccAcc,24,18,Woman,Right,
45,4,1,0.41773140000077547,['c'],0,right,"['u', 'e']",0,0.2948579999992944,0.4,1,0,AccAcc,24,18,Woman,Right,
46,4,1,0.36589359999925364,['c'],0,right,['u'],0,0.17574930000046152,0.4,1,0,AccAcc,24,18,Woman,Right,
47,4,1,0.35139449999951466,['n'],1,right,['u'],0,0.07627279999906023,0.2,0,0,AccAcc,24,18,Woman,Right,
48,4,1,0.33392339999954856,['c'],1,left,['e'],1,0.09502260000044771,0.1,1,0,AccAcc,24,18,Woman,Right,
49,4,1,0.3339752000010776,"['n', 'c']",1,right,"['u', 'e']",0,0.16041220000079193,0.4,0,0,AccAcc,24,18,Woman,Right,
50,4,1,0.33306890000130807,['n'],1,right,"['u', 'e']",0,0.15888489999997546,0.4,0,0,AccAcc,24,18,Woman,Right,
51,4,1,0.46999370000048657,"['n', 'c']",1,right,['e'],1,0.08831699999973353,0.4,1,0,AccAcc,24,18,Woman,Right,
52,4,1,0.6008592999987741,['c'],1,left,['u'],0,2.303110699998797,0.1,0,0,AccAcc,24,18,Woman,Right,
53,4,1,0.40117839999948046,['c'],1,left,"['u', 'e']",0,0.16574740000032762,0.4,0,0,AccAcc,24,18,Woman,Right,
54,4,1,0.4339999000003445,['n'],1,right,['u'],0,0.06361049999941315,0.1,0,0,AccAcc,24,18,Woman,Right,
55,4,1,0.4173262000003888,"['n', 'c']",0,left,['u'],0,0.1104789000000892,0.2,1,0,AccAcc,24,18,Woman,Right,
56,4,1,0.25146070000118925,['c'],0,right,['u'],0,0.01872170000024198,0.1,1,0,AccAcc,24,18,Woman,Right,
57,4,1,0.3848199999993085,['n'],0,left,['u'],0,0.0054918000005272916,0.2,1,0,AccAcc,24,18,Woman,Right,
58,4,1,1.0172371999997267,['c'],1,left,['e'],1,0.09431279999989783,0.2,1,0,AccAcc,24,18,Woman,Right,
59,4,1,0.26810680000016873,['c'],0,right,['u'],0,0.03457700000035402,0.4,1,0,AccAcc,24,18,Woman,Right,
0,5,1,1.2169862999999168,['n'],1,right,['e'],1,3.894952900000135,0.1,1,0,FastAcc,24,18,Woman,Right,
1,5,1,0.3011588000008487,['n'],0,left,"['u', 'e']",0,0.0025717000007716706,0.1,1,0,FastAcc,24,18,Woman,Right,
2,5,1,0.2683835999996518,['n'],1,right,['u'],0,3.5606220999998186,0.1,0,0,FastAcc,24,18,Woman,Right,
3,5,1,0.35047599999961676,['n'],0,left,['u'],0,0.7358253000002151,0.1,1,0,FastAcc,24,18,Woman,Right,
4,5,1,0.40118340000117314,['n'],0,left,['u'],0,0.10083559999839053,0.2,1,0,FastAcc,24,18,Woman,Right,
5,5,1,0.3518464999997377,"['n', 'c']",0,left,['u'],0,0.053004400000645546,0.2,1,0,FastAcc,24,18,Woman,Right,
6,5,1,0.35124870000072406,['c'],0,right,['e'],1,0.07181669999954465,0.2,0,0,FastAcc,24,18,Woman,Right,
7,5,1,0.3179218999994191,['c'],1,left,['u'],0,0.0418206000013015,0.2,0,0,FastAcc,24,18,Woman,Right,
8,5,1,0.23324649999995017,['n'],1,right,['u'],0,0.9935169999989739,0.1,0,0,FastAcc,24,18,Woman,Right,
9,5,1,0.2692028000001301,['c'],0,right,['e'],1,0.6732016000005387,0.4,0,0,FastAcc,24,18,Woman,Right,
10,5,1,0.2844401000002108,['n'],1,right,['e'],1,0.14152540000031877,0.2,1,0,FastAcc,24,18,Woman,Right,
11,5,1,0.2846346000005724,['c'],0,right,['u'],0,0.04673170000023674,0.2,1,0,FastAcc,24,18,Woman,Right,
12,5,1,0.2680071999984648,['c'],0,right,['u'],0,0.06856030000017199,0.1,1,0,FastAcc,24,18,Woman,Right,
13,5,1,0.2514826999995421,['c'],0,right,['u'],0,0.10590050000064366,0.4,1,0,FastAcc,24,18,Woman,Right,
14,5,1,0.3015243999998347,['n'],1,right,['e'],1,0.07601619999877585,0.4,1,0,FastAcc,24,18,Woman,Right,
15,5,1,0.28394420000040554,['c'],0,right,['u'],0,0.06434900000022026,0.2,1,0,FastAcc,24,18,Woman,Right,
16,5,1,0.2351875000003929,['n'],1,right,['e'],1,0.1182507000012265,0.4,1,0,FastAcc,24,18,Woman,Right,
17,5,1,0.23345789999984845,['c'],1,left,['u'],0,0.0438239999984944,0.4,0,0,FastAcc,24,18,Woman,Right,
18,5,1,0.3007627000006323,['n'],0,left,['u'],0,0.04770260000077542,0.1,1,0,FastAcc,24,18,Woman,Right,
19,5,1,0.33455270000013115,['c'],0,right,['u'],0,0.003202600000804523,0.1,1,0,FastAcc,24,18,Woman,Right,
20,5,1,0.41878900000119756,"['n', 'c']",0,left,['u'],0,0.05192209999950137,0.2,1,0,FastAcc,24,18,Woman,Right,
21,5,1,0.28498020000006363,['c'],0,right,['u'],0,0.056491100000130245,0.4,1,0,FastAcc,24,18,Woman,Right,
22,5,1,0.38439909999942756,['n'],1,right,['e'],1,0.2653021999994962,0.2,1,0,FastAcc,24,18,Woman,Right,
23,5,1,0.36789130000033765,['n'],1,right,['e'],1,0.17857790000016394,0.1,1,0,FastAcc,24,18,Woman,Right,
24,5,1,0.3669537000005221,['n'],0,left,['e'],1,0.20689750000019558,0.4,0,0,FastAcc,24,18,Woman,Right,
25,5,1,0.3010197000003245,['c'],1,left,['u'],0,0.1569497999989835,0.4,0,0,FastAcc,24,18,Woman,Right,
26,5,1,0.3508424000010564,['c'],0,right,['e'],1,0.4912259000011545,0.2,0,0,FastAcc,24,18,Woman,Right,
27,5,1,0.3005217999998422,['n'],0,left,['u'],0,0.061710099998890655,0.4,1,0,FastAcc,24,18,Woman,Right,
28,5,1,0.31793260000085866,['c'],1,left,['e'],1,0.11350359999960347,0.1,1,0,FastAcc,24,18,Woman,Right,
29,5,1,0.3339907999998104,['n'],1,right,['e'],1,0.1289491999996244,0.2,1,0,FastAcc,24,18,Woman,Right,
30,5,1,0.3335858999998891,['c'],0,right,['u'],0,0.14464980000047944,0.4,1,0,FastAcc,24,18,Woman,Right,
31,5,1,0.30092310000145517,['n'],0,left,['e'],1,0.03396279999833496,0.1,0,0,FastAcc,24,18,Woman,Right,
32,5,1,0.3174748000001273,['n'],0,left,['u'],0,0.13334839999879478,0.1,1,0,FastAcc,24,18,Woman,Right,
33,5,1,0.28476969999974244,['c'],0,right,['e'],1,0.10311240000010002,0.2,0,0,FastAcc,24,18,Woman,Right,
34,5,1,0.41833070000029693,"['n', 'c']",0,left,['u'],0,1.7004856999992626,0.1,1,0,FastAcc,24,18,Woman,Right,
35,5,1,0.26759669999955804,['n'],0,left,['e'],1,0.008931600001233164,0.2,0,0,FastAcc,24,18,Woman,Right,
36,5,1,0.5340384999999515,['n'],0,left,['e'],1,0.020666200000050594,0.4,0,0,FastAcc,24,18,Woman,Right,
37,5,1,0.5504876999984845,['n'],1,right,['u'],0,0.09585019999940414,0.2,0,0,FastAcc,24,18,Woman,Right,
38,5,1,0.5513458999994327,['c'],0,right,['e'],1,0.231904599999325,0.1,0,0,FastAcc,24,18,Woman,Right,
39,5,1,0.38267830000040703,['c'],1,left,['u'],0,0.8829122000006464,0.2,0,0,FastAcc,24,18,Woman,Right,
40,5,1,0.7354189000016049,['n'],1,right,['u'],0,0.14587740000024496,0.1,0,0,FastAcc,24,18,Woman,Right,
41,5,1,0.3344868999993196,['c'],1,left,['u'],0,0.16060530000140716,0.1,0,0,FastAcc,24,18,Woman,Right,
42,5,1,0.30092530000001716,['c'],1,left,['u'],0,0.11297740000009071,0.4,0,0,FastAcc,24,18,Woman,Right,
43,5,1,0.3174189999990631,['c'],1,left,['u'],0,0.09818869999980961,0.1,0,0,FastAcc,24,18,Woman,Right,
44,5,1,0.31799619999947026,['c'],1,left,['u'],0,0.09948810000059893,0.1,0,0,FastAcc,24,18,Woman,Right,
45,5,1,0.3175723000003927,['n'],1,right,['u'],0,0.5967738999988796,0.2,0,0,FastAcc,24,18,Woman,Right,
46,5,1,0.3513284000000567,['c'],0,right,['u'],0,0.11320440000054077,0.1,1,0,FastAcc,24,18,Woman,Right,
47,5,1,0.3018250999994052,['n'],1,right,['u'],0,0.08275080000021262,0.2,0,0,FastAcc,24,18,Woman,Right,
48,5,1,0.36721570000008796,['n'],0,left,['u'],0,0.14713080000001355,0.2,1,0,FastAcc,24,18,Woman,Right,
49,5,1,0.4163064000003942,['c'],1,left,['u'],0,0.12770479999926465,0.4,0,0,FastAcc,24,18,Woman,Right,
50,5,1,0.25241300000016054,['n'],0,left,['u'],0,0.1937710000001971,0.4,1,0,FastAcc,24,18,Woman,Right,
51,5,1,0.2845443999995041,['c'],1,left,['u'],0,0.06530170000041835,0.2,0,0,FastAcc,24,18,Woman,Right,
52,5,1,0.2347152999991522,['n'],1,right,['u'],0,0.11949290000120527,0.4,0,0,FastAcc,24,18,Woman,Right,
53,5,1,0.3495175999996718,['c'],0,right,['u'],0,0.10370390000025509,0.2,1,0,FastAcc,24,18,Woman,Right,
54,5,1,0.4001477000001614,['c'],1,left,['u'],0,0.1018140999985917,0.4,0,0,FastAcc,24,18,Woman,Right,
55,5,1,0.2679552000008698,['n'],0,left,['u'],0,0.15281409999988682,0.1,1,0,FastAcc,24,18,Woman,Right,
56,5,1,0.33431949999976496,['c'],1,left,['u'],0,0.0878339999999298,0.4,0,0,FastAcc,24,18,Woman,Right,
57,5,1,0.20048480000150448,['n'],1,right,['u'],0,0.07879140000113694,0.4,0,0,FastAcc,24,18,Woman,Right,
58,5,1,0.266446999999971,['c'],1,left,['u'],0,0.05090519999976095,0.4,0,0,FastAcc,24,18,Woman,Right,
59,5,1,0.30136619999939285,['n'],1,right,['u'],0,0.05477729999984149,0.4,0,0,FastAcc,24,18,Woman,Right,
0,6,1,0.33437079999930575,['c'],1,left,['u'],0,0.00499370000034105,0.4,0,0,FastFast,24,18,Woman,Right,
1,6,1,0.26761029999943275,['c'],0,right,['u'],0,0.02780449999954726,0.2,1,0,FastFast,24,18,Woman,Right,
2,6,1,0.3004588000003423,['n'],0,left,['u'],0,0.06484670000099868,0.4,1,0,FastFast,24,18,Woman,Right,
3,6,1,0.30108800000016345,['c'],1,left,['u'],0,0.06921959999999672,0.2,0,0,FastFast,24,18,Woman,Right,
4,6,1,0.24972889999844483,['c'],1,left,['u'],0,0.04226079999898502,0.4,0,0,FastFast,24,18,Woman,Right,
5,6,1,0.3008010000012291,['c'],1,left,['u'],0,0.046329300001161755,0.2,0,0,FastFast,24,18,Woman,Right,
6,6,1,0.2843394999999873,['c'],1,left,['u'],0,0.05129839999972319,0.1,0,0,FastFast,24,18,Woman,Right,
7,6,1,0.5006794000000809,['n'],1,right,['u'],0,1.1513145999997505,0.2,0,0,FastFast,24,18,Woman,Right,
8,6,1,0.5172277999990911,['n'],1,right,['u'],0,0.14285100000051898,0.2,0,0,FastFast,24,18,Woman,Right,
9,6,1,0.23369169999932637,['n'],0,left,['u'],0,0.019194300000890507,0.4,1,0,FastFast,24,18,Woman,Right,
10,6,1,0.5844804000007571,['c'],1,left,['u'],0,0.1089386999992712,0.1,0,0,FastFast,24,18,Woman,Right,
11,6,1,0.3345661999992444,['n'],0,left,['u'],0,0.0934637999998813,0.1,1,0,FastFast,24,18,Woman,Right,
12,6,1,0.33399959999951534,['c'],0,right,['e'],1,0.1115654999994149,0.2,0,0,FastFast,24,18,Woman,Right,
13,6,1,0.41651090000050317,['n'],0,left,['u'],0,0.11003439999876719,0.2,1,0,FastFast,24,18,Woman,Right,
14,6,1,0.7188003999999637,['c'],1,left,['e'],1,0.15826170000036655,0.2,1,0,FastFast,24,18,Woman,Right,
15,6,1,0.3012937999992573,['n'],1,right,['u'],0,0.11060729999917385,0.1,0,0,FastFast,24,18,Woman,Right,
16,6,1,0.7339135999991413,['n'],1,right,['u'],0,0.09602919999997539,0.4,0,0,FastFast,24,18,Woman,Right,
17,6,1,0.767364199999065,['n'],1,right,['e'],1,0.07912849999956961,0.2,1,0,FastFast,24,18,Woman,Right,
18,6,1,0.6003284999987955,['c'],1,left,['u'],0,0.15044160000070406,0.1,0,0,FastFast,24,18,Woman,Right,
19,6,1,0.38470719999895664,['n'],1,right,['e'],1,0.1306745999991108,0.1,1,0,FastFast,24,18,Woman,Right,
20,6,1,0.28399720000015805,['n'],0,left,['u'],0,0.08490370000072289,0.1,1,0,FastFast,24,18,Woman,Right,
21,6,1,0.3001373999995849,['c'],0,right,['e'],1,0.05568219999986468,0.4,0,0,FastFast,24,18,Woman,Right,
22,6,1,0.20015109999985725,['n'],0,left,['e'],1,0.20707899999979418,0.4,0,0,FastFast,24,18,Woman,Right,
23,6,1,0.6004818999990675,['c'],1,left,['e'],1,0.09875190000093426,0.2,1,0,FastFast,24,18,Woman,Right,
24,6,1,0.3182068000005529,['n'],1,right,['e'],1,0.17992059999960475,0.4,1,0,FastFast,24,18,Woman,Right,
25,6,1,0.3175719000009849,['c'],0,right,['e'],1,0.08103590000064287,0.4,0,0,FastFast,24,18,Woman,Right,
26,6,1,0.5349055000006047,['n'],1,right,['u'],0,0.09066460000030929,0.4,0,0,FastFast,24,18,Woman,Right,
27,6,1,0.601318099999844,['n'],0,left,['u'],0,0.17731280000043625,0.1,1,0,FastFast,24,18,Woman,Right,
28,6,1,0.750524699999005,['n'],1,right,['u'],0,0.5909697000006418,0.4,0,0,FastFast,24,18,Woman,Right,
29,6,1,0.28392109999913373,['c'],0,right,['e'],1,0.12749370000165072,0.1,0,0,FastFast,24,18,Woman,Right,
30,6,1,0.3170902000001661,['c'],0,right,['e'],1,0.14378819999910775,0.1,0,0,FastFast,24,18,Woman,Right,
31,6,1,0.41684469999927387,['n'],1,right,['e'],1,0.1397372000010364,0.4,1,0,FastFast,24,18,Woman,Right,
32,6,1,0.3166698999993969,['n'],1,right,['e'],1,0.09277819999988424,0.2,1,0,FastFast,24,18,Woman,Right,
33,6,1,0.2675624000003154,['c'],1,left,['u'],0,0.03255159999935131,0.2,0,0,FastFast,24,18,Woman,Right,
34,6,1,1.0012769000004482,['n'],1,right,['u'],0,0.13683680000031018,0.1,0,0,FastFast,24,18,Woman,Right,
35,6,1,0.2846445999985008,['n'],0,left,['e'],1,0.33056419999957143,0.1,0,0,FastFast,24,18,Woman,Right,
36,6,1,0.6346303999998781,['n'],0,left,"['u', 'e']",0,0.8541494000000966,0.1,1,0,FastFast,24,18,Woman,Right,
37,6,1,0.33444799999961106,['n'],0,left,['u'],0,0.040965599999253755,0.1,1,0,FastFast,24,18,Woman,Right,
38,6,1,0.2843981999994867,['c'],1,left,['e'],1,0.062441099998977734,0.4,1,0,FastFast,24,18,Woman,Right,
39,6,1,0.3340193999993062,"['n', 'c']",0,left,"['u', 'e']",0,0.16192950000004203,0.4,1,0,FastFast,24,18,Woman,Right,
40,6,1,0.2682160999993357,['c'],0,right,"['u', 'e']",0,0.14673970000148984,0.1,1,0,FastFast,24,18,Woman,Right,
41,6,1,0.4504744000005303,['n'],1,right,['u'],0,0.636404599999878,0.4,0,0,FastFast,24,18,Woman,Right,
42,6,1,0.31825360000038927,['c'],0,right,['e'],1,0.07262529999934486,0.2,0,0,FastFast,24,18,Woman,Right,
43,6,1,0.3667698000008386,['n'],0,left,['u'],0,0.09013289999893459,0.2,1,0,FastFast,24,18,Woman,Right,
44,6,1,0.3177292000000307,['c'],1,left,['u'],0,0.107752599999003,0.2,0,0,FastFast,24,18,Woman,Right,
45,6,1,0.3182137999992847,['c'],1,left,['u'],0,0.0775991000009526,0.4,0,0,FastFast,24,18,Woman,Right,
46,6,1,0.40134089999992284,['c'],0,right,['e'],1,0.013264499999422696,0.1,0,0,FastFast,24,18,Woman,Right,
47,6,1,0.33434809999926074,['n'],1,right,['e'],1,0.09787359999972978,0.1,1,0,FastFast,24,18,Woman,Right,
48,6,1,0.35066469999947003,['c'],1,left,['e'],1,0.049276400000962894,0.4,1,0,FastFast,24,18,Woman,Right,
49,6,1,0.5678341999991972,['n'],1,right,['e'],1,0.09060890000000654,0.4,1,0,FastFast,24,18,Woman,Right,
50,6,1,0.6011988999998721,['c'],1,left,['e'],1,0.06550349999997707,0.1,1,0,FastFast,24,18,Woman,Right,
51,6,1,0.3678517999996984,['n'],0,left,['e'],1,0.09876749999966705,0.1,0,0,FastFast,24,18,Woman,Right,
52,6,1,0.33366490000116755,['c'],0,right,['e'],1,0.08385160000034375,0.2,0,0,FastFast,24,18,Woman,Right,
53,6,1,0.35099689999879047,['c'],0,right,['u'],0,0.06899419999899692,0.1,1,0,FastFast,24,18,Woman,Right,
54,6,1,0.3016955999992206,['c'],0,right,['u'],0,0.08748350000132632,0.2,1,0,FastFast,24,18,Woman,Right,
55,6,1,0.5017485000007582,['c'],0,right,['u'],0,0.13114519999908225,0.2,1,0,FastFast,24,18,Woman,Right,
56,6,1,0.3006789999999455,['c'],0,right,['u'],0,0.06804100000044855,0.2,1,0,FastFast,24,18,Woman,Right,
57,6,1,0.2676966999988508,['c'],0,right,['u'],0,0.16794409999965865,0.4,1,0,FastFast,24,18,Woman,Right,
58,6,1,0.3014899999998306,['c'],1,left,['u'],0,0.10351059999993595,0.4,0,0,FastFast,24,18,Woman,Right,
59,6,1,0.3011733000003005,['c'],1,left,['u'],0,0.12178489999860176,0.2,0,0,FastFast,24,18,Woman,Right,
0,7,1,0.25146979999954056,['c'],1,left,['u'],0,0.013083300000289455,0.4,0,0,AccFast,24,18,Woman,Right,
1,7,1,0.3499088999997184,['c'],0,right,['e'],1,0.5119937999988906,0.4,0,0,AccFast,24,18,Woman,Right,
2,7,1,0.4844608999992488,['c'],0,right,['e'],1,0.3150009000000864,0.1,0,0,AccFast,24,18,Woman,Right,
3,7,1,0.7013020000013057,['n'],1,right,['u'],0,0.22772570000051928,0.2,0,0,AccFast,24,18,Woman,Right,
4,7,1,0.40161129999978584,['n'],1,right,['u'],0,0.22117599999910453,0.1,0,0,AccFast,24,18,Woman,Right,
5,7,1,0.30164650000006077,['n'],0,left,['e'],1,0.15481019999970158,0.2,0,0,AccFast,24,18,Woman,Right,
6,7,1,0.35021280000000843,['n'],0,left,['e'],1,0.23328460000084306,0.2,0,0,AccFast,24,18,Woman,Right,
7,7,1,1.6839540000000852,['c'],1,left,['u'],0,0.5266974999995,0.2,0,0,AccFast,24,18,Woman,Right,
8,7,1,0.3339723999997659,"['n', 'c']",1,right,"['u', 'e']",0,0.12708199999906356,0.1,0,0,AccFast,24,18,Woman,Right,
9,7,1,0.3516029000002163,['c'],1,left,['u'],0,0.19019459999981336,0.4,0,0,AccFast,24,18,Woman,Right,
10,7,1,0.35112370000024384,['n'],0,left,['e'],1,0.15614599999935308,0.1,0,0,AccFast,24,18,Woman,Right,
11,7,1,0.5171003000014025,['n'],0,left,"['u', 'e']",0,0.25991590000012366,0.1,1,0,AccFast,24,18,Woman,Right,
12,7,1,0.31689099999857717,"['n', 'c']",0,left,['e'],1,0.30269700000098965,0.4,0,0,AccFast,24,18,Woman,Right,
13,7,1,0.46669049999945855,['c'],0,right,"['u', 'e']",0,0.25909929999943415,0.1,1,0,AccFast,24,18,Woman,Right,
14,7,1,0.5507018999996944,['c'],0,right,['u'],0,0.24471900000025926,0.4,1,0,AccFast,24,18,Woman,Right,
15,7,1,0.38480040000104054,"['n', 'c']",0,left,['e'],1,0.17381569999997737,0.1,0,0,AccFast,24,18,Woman,Right,
16,7,1,0.33486660000016855,['n'],0,left,['u'],0,0.13998990000072808,0.1,1,0,AccFast,24,18,Woman,Right,
17,7,1,0.48431089999940014,['n'],1,right,['e'],1,0.26156239999909303,0.4,1,0,AccFast,24,18,Woman,Right,
18,7,1,0.585211799998433,['c'],1,left,['e'],1,0.2778100999985327,0.2,1,0,AccFast,24,18,Woman,Right,
19,7,1,0.4340389999997569,"['n', 'c']",1,right,['e'],1,0.2359545999988768,0.4,1,0,AccFast,24,18,Woman,Right,
20,7,1,0.4347037999996246,['n'],0,left,['u'],0,0.3073746000009123,0.1,1,0,AccFast,24,18,Woman,Right,
21,7,1,0.36696950000077777,['n'],0,left,['u'],0,0.15495150000060676,0.1,1,0,AccFast,24,18,Woman,Right,
22,7,1,0.3333387999991828,['c'],0,right,['e'],1,0.07447299999876122,0.2,0,0,AccFast,24,18,Woman,Right,
23,7,1,0.8515487999993638,['c'],1,left,['e'],1,0.15147559999968507,0.2,1,0,AccFast,24,18,Woman,Right,
24,7,1,0.35131080000064685,['c'],0,right,['u'],0,2.245628000000579,0.2,1,0,AccFast,24,18,Woman,Right,
25,7,1,0.8847267000001011,['c'],1,left,['e'],1,0.18670899999960966,0.4,1,0,AccFast,24,18,Woman,Right,
26,7,1,0.6179517999989912,['c'],1,left,['e'],1,0.09306110000034096,0.4,1,0,AccFast,24,18,Woman,Right,
27,7,1,0.617994299998827,['n'],1,right,['u'],0,0.11541649999890069,0.1,0,0,AccFast,24,18,Woman,Right,
28,7,1,0.8676639999994222,['c'],1,left,['e'],1,0.1260325000002922,0.1,1,0,AccFast,24,18,Woman,Right,
29,7,1,0.7350397000009252,['c'],1,left,['e'],1,0.3349300999998377,0.2,1,0,AccFast,24,18,Woman,Right,
30,7,1,1.250524700000824,['c'],1,left,['e'],1,0.09730339999987336,0.4,1,0,AccFast,24,18,Woman,Right,
31,7,1,0.7165021999990131,['n'],1,right,['u'],0,0.13141280000127153,0.4,0,0,AccFast,24,18,Woman,Right,
32,7,1,1.3681949999991048,['c'],1,left,['e'],1,0.13703700000041863,0.2,1,0,AccFast,24,18,Woman,Right,
33,7,1,1.3180396000007022,['c'],1,left,['e'],1,0.20925329999954556,0.1,1,0,AccFast,24,18,Woman,Right,
34,7,1,1.3347487000010005,['n'],1,right,['e'],1,0.18214690000058908,0.2,1,0,AccFast,24,18,Woman,Right,
35,7,1,0.9847159000000829,['c'],1,left,['e'],1,0.9218834000002971,0.4,1,0,AccFast,24,18,Woman,Right,
36,7,1,0.5344320999993215,['n'],1,right,['e'],1,0.1623810000000958,0.2,1,0,AccFast,24,18,Woman,Right,
37,7,1,0.8833572999992612,['c'],0,right,['e'],1,0.15565269999933662,0.1,0,0,AccFast,24,18,Woman,Right,
38,7,1,0.7167875999984972,['c'],1,left,['u'],0,0.10662890000094194,0.2,0,0,AccFast,24,18,Woman,Right,
39,7,1,0.7678648999990401,['n'],1,right,['u'],0,0.2025045999998838,0.4,0,0,AccFast,24,18,Woman,Right,
40,7,1,0.3181715999999142,['c'],0,right,['e'],1,0.15124110000033397,0.4,0,0,AccFast,24,18,Woman,Right,
41,7,1,0.7505774000001111,['c'],0,right,['e'],1,0.19726790000095207,0.2,0,0,AccFast,24,18,Woman,Right,
42,7,1,0.31801009999981034,['c'],0,right,['e'],1,0.01926359999924898,0.2,0,0,AccFast,24,18,Woman,Right,
43,7,1,0.45128359999944223,['n'],0,left,['u'],0,1.1223299000012048,0.4,1,0,AccFast,24,18,Woman,Right,
44,7,1,1.0169658000013442,['c'],0,right,['u'],0,0.11126379999950586,0.2,1,0,AccFast,24,18,Woman,Right,
45,7,1,0.9840038000002096,['c'],0,right,['e'],1,0.15030579999984184,0.2,0,0,AccFast,24,18,Woman,Right,
46,7,1,1.0180715000005875,['c'],1,left,['e'],1,0.04192480000165233,0.2,1,0,AccFast,24,18,Woman,Right,
47,7,1,0.7014042999999219,['n'],1,right,['u'],0,0.1428503000006458,0.4,0,0,AccFast,24,18,Woman,Right,
48,7,1,0.9335061000001588,['n'],1,right,['e'],1,0.05431210000097053,0.2,1,0,AccFast,24,18,Woman,Right,
49,7,1,0.401179399999819,['n'],1,right,['e'],1,0.08645080000133021,0.4,1,0,AccFast,24,18,Woman,Right,
50,7,1,1.169057299999622,['c'],1,left,['e'],1,0.10270109999873966,0.1,1,0,AccFast,24,18,Woman,Right,
51,7,1,0.6846490000007179,['c'],0,right,['e'],1,0.08971030000066094,0.1,0,0,AccFast,24,18,Woman,Right,
52,7,1,0.5012822999997297,['c'],1,left,['e'],1,0.10103470000103698,0.1,1,0,AccFast,24,18,Woman,Right,
53,7,1,0.600426699998934,['c'],1,left,['u'],0,0.18681070000093314,0.1,0,0,AccFast,24,18,Woman,Right,
54,7,1,3.151106900000741,['c'],0,right,['e'],1,0.10393149999981688,0.1,0,0,AccFast,24,18,Woman,Right,
55,7,1,0.7343584999998711,['n'],1,right,['u'],0,0.13689450000129,0.4,0,0,AccFast,24,18,Woman,Right,
56,7,1,0.8183249000012438,['c'],0,right,['e'],1,1.5409529999997176,0.4,0,0,AccFast,24,18,Woman,Right,
57,7,1,0.8183719000007841,['c'],1,left,['e'],1,0.08958310000161873,0.4,1,0,AccFast,24,18,Woman,Right,
58,7,1,0.4348991000006208,['c'],0,right,['e'],1,0.05491050000091491,0.2,0,0,AccFast,24,18,Woman,Right,
59,7,1,0.4513993999989907,['c'],1,left,['e'],1,1.0131156999996165,0.1,1,0,AccFast,24,18,Woman,Right,
0,8,1,0.7844537000000855,['n'],0,left,"['u', 'e']",0,0.2028226000002178,0.1,1,0,AccAcc,24,18,Woman,Right,
1,8,1,0.267673599999398,['c'],0,right,['u'],0,0.10605820000091626,0.4,1,0,AccAcc,24,18,Woman,Right,
2,8,1,0.6005549000001338,['c'],0,right,['e'],1,0.0800667000003159,0.4,0,0,AccAcc,24,18,Woman,Right,
3,8,1,0.26727179999943473,['n'],0,left,['u'],0,0.18063860000074783,0.4,1,0,AccAcc,24,18,Woman,Right,
4,8,1,0.41732669999873906,['c'],0,right,['e'],1,0.8143780000009428,0.2,0,0,AccAcc,24,18,Woman,Right,
5,8,1,0.3684228999991319,['n'],1,right,['u'],0,0.08175160000064352,0.1,0,0,AccAcc,24,18,Woman,Right,
6,8,1,0.4357445999994525,['n'],0,left,['u'],0,0.6868905999999697,0.1,1,0,AccAcc,24,18,Woman,Right,
7,8,1,0.1849738000000798,['n'],0,left,['u'],0,0.11093700000128592,0.4,1,0,AccAcc,24,18,Woman,Right,
8,8,1,0.40143650000027264,['n'],1,right,['u'],0,0.252514699999665,0.2,0,0,AccAcc,24,18,Woman,Right,
9,8,1,0.4345695000010892,['n'],1,right,['u'],0,0.14752669999870704,0.2,0,0,AccAcc,24,18,Woman,Right,
10,8,1,0.7013533000008465,['n'],0,left,['u'],0,0.11564259999977367,0.2,1,0,AccAcc,24,18,Woman,Right,
11,8,1,1.4346236000001227,['c'],0,right,['e'],1,0.024481099999320577,0.2,0,0,AccAcc,24,18,Woman,Right,
12,8,1,0.4178399000011268,['n'],0,left,['e'],1,0.07315419999940787,0.1,0,0,AccAcc,24,18,Woman,Right,
13,8,1,0.6844375999990007,['n'],0,left,['e'],1,0.1410995999995066,0.4,0,0,AccAcc,24,18,Woman,Right,
14,8,1,0.5993053000001964,['c'],1,left,['e'],1,0.019260200000644545,0.4,1,0,AccAcc,24,18,Woman,Right,
15,8,1,0.5180282000001171,['n'],0,left,['u'],0,0.015229599999656784,0.2,1,0,AccAcc,24,18,Woman,Right,
16,8,1,0.41711229999964416,['n'],0,left,['u'],0,0.016605499999059248,0.2,1,0,AccAcc,24,18,Woman,Right,
17,8,1,0.5677978999992774,['n'],0,left,['u'],0,0.09141330000056769,0.2,1,0,AccAcc,24,18,Woman,Right,
18,8,1,0.5510156999989704,['n'],0,left,['e'],1,0.09936199999901874,0.4,0,0,AccAcc,24,18,Woman,Right,
19,8,1,1.1517284000001382,['n'],0,left,['e'],1,0.16361549999965064,0.2,0,0,AccAcc,24,18,Woman,Right,
20,8,1,0.5013562999993155,['c'],1,left,['e'],1,0.05935030000000552,0.4,1,0,AccAcc,24,18,Woman,Right,
21,8,1,0.5831529000006412,['c'],0,right,['e'],1,0.0208489999986341,0.1,0,0,AccAcc,24,18,Woman,Right,
22,8,1,0.5835610000012821,['n'],1,right,['e'],1,0.046435999998720945,0.1,1,0,AccAcc,24,18,Woman,Right,
23,8,1,0.4345235999990109,['n'],0,left,['e'],1,0.14114800000061223,0.1,0,0,AccAcc,24,18,Woman,Right,
24,8,1,0.3521149999996851,['n'],0,left,['e'],1,0.23615410000093107,0.4,0,0,AccAcc,24,18,Woman,Right,
25,8,1,0.46702059999915946,['c'],0,right,['e'],1,0.7069847999991907,0.1,0,0,AccAcc,24,18,Woman,Right,
26,8,1,0.8846719000011944,['c'],1,left,['e'],1,0.1010521999996854,0.2,1,0,AccAcc,24,18,Woman,Right,
27,8,1,0.599801700000171,['c'],0,right,['e'],1,0.18808349999926577,0.2,0,0,AccAcc,24,18,Woman,Right,
28,8,1,0.4674096999988251,"['n', 'c']",1,right,['e'],1,0.16420260000086273,0.1,1,0,AccAcc,24,18,Woman,Right,
29,8,1,0.767265899999984,['c'],1,left,['e'],1,0.11278089999905205,0.1,1,0,AccAcc,24,18,Woman,Right,
30,8,1,0.7014493000006041,['n'],0,left,['e'],1,0.0981616999997641,0.2,0,0,AccAcc,24,18,Woman,Right,
31,8,1,0.6342750999992859,['c'],1,left,['e'],1,0.11912560000018857,0.4,1,0,AccAcc,24,18,Woman,Right,
32,8,1,0.6010588999997708,['c'],1,left,['e'],1,0.02867820000028587,0.4,1,0,AccAcc,24,18,Woman,Right,
33,8,1,0.20125679999910062,['c'],1,left,['e'],1,0.8693144999997457,0.1,1,0,AccAcc,24,18,Woman,Right,
34,8,1,0.25096039999880304,['c'],0,right,['e'],1,0.011263599999438156,0.4,0,0,AccAcc,24,18,Woman,Right,
35,8,1,0.3004601000011462,['c'],1,left,['e'],1,0.048545499999818276,0.2,1,0,AccAcc,24,18,Woman,Right,
36,8,1,0.2847547000001214,['n'],1,right,['e'],1,0.05334289999882458,0.2,1,0,AccAcc,24,18,Woman,Right,
37,8,1,0.3005192000000534,['n'],1,right,['u'],0,0.04225860000042303,0.1,0,0,AccAcc,24,18,Woman,Right,
38,8,1,0.23454649999985122,['n'],1,right,['e'],1,0.048933000000033644,0.2,1,0,AccAcc,24,18,Woman,Right,
39,8,1,0.45057489999999234,['n'],1,right,['u'],0,0.9111093999999866,0.4,0,0,AccAcc,24,18,Woman,Right,
40,8,1,0.3015255000009347,['c'],0,right,['u'],0,0.11386099999981525,0.1,1,0,AccAcc,24,18,Woman,Right,
41,8,1,0.2832553000007465,['c'],0,right,['u'],0,0.11635849999947823,0.1,1,0,AccAcc,24,18,Woman,Right,
42,8,1,0.2680237999993551,['n'],1,right,['u'],0,0.13458540000101493,0.1,0,0,AccAcc,24,18,Woman,Right,
43,8,1,0.21795749999910186,['n'],1,right,['e'],1,0.15500600000086706,0.1,1,0,AccAcc,24,18,Woman,Right,
44,8,1,1.1343804999996792,['n'],1,right,['e'],1,0.2816727000008541,0.1,1,0,AccAcc,24,18,Woman,Right,
45,8,1,0.251424500000212,['n'],0,left,['u'],0,0.2624071999998705,0.1,1,0,AccAcc,24,18,Woman,Right,
46,8,1,0.3011731000005966,['n'],0,left,['e'],1,0.12994830000025104,0.4,0,0,AccAcc,24,18,Woman,Right,
47,8,1,0.2676297000016348,['n'],1,right,['e'],1,0.06813959999999497,0.2,1,0,AccAcc,24,18,Woman,Right,
48,8,1,0.28468989999964833,['c'],1,left,['u'],0,0.7442592000006698,0.1,0,0,AccAcc,24,18,Woman,Right,
49,8,1,0.3180940999991435,['n'],1,right,['e'],1,0.11386399999901187,0.2,1,0,AccAcc,24,18,Woman,Right,
50,8,1,0.2679833999991388,['n'],1,right,['e'],1,0.11551220000001194,0.4,1,0,AccAcc,24,18,Woman,Right,
51,8,1,0.48248270000112825,['n'],0,left,['u'],0,0.15830230000028678,0.4,1,0,AccAcc,24,18,Woman,Right,
52,8,1,0.834444899999653,['c'],0,right,['e'],1,0.12071220000143512,0.2,0,0,AccAcc,24,18,Woman,Right,
53,8,1,0.30039530000067316,['c'],0,right,['e'],1,0.07463629999983823,0.2,0,0,AccAcc,24,18,Woman,Right,
54,8,1,1.6682943000014347,['n'],1,right,['e'],1,0.0713781000013114,0.2,1,0,AccAcc,24,18,Woman,Right,
55,8,1,0.30044400000042515,['n'],0,left,['e'],1,0.09110419999888109,0.1,0,0,AccAcc,24,18,Woman,Right,
56,8,1,0.30143150000003516,['n'],1,right,['u'],0,3.4373560000003636,0.4,0,0,AccAcc,24,18,Woman,Right,
57,8,1,0.8841868999988947,['n'],0,left,['u'],0,0.11515480000161915,0.4,1,0,AccAcc,24,18,Woman,Right,
58,8,1,0.30063309999968624,['n'],1,right,['e'],1,0.5809958999998344,0.4,1,0,AccAcc,24,18,Woman,Right,
59,8,1,0.4003255999996327,['n'],0,left,['u'],0,0.07985489999919082,0.4,1,0,AccAcc,24,18,Woman,Right,
0,9,1,0.4682454999983747,"['n', 'c']",0,left,['e'],1,0.14228410000032454,0.2,0,0,FastAcc,24,18,Woman,Right,
1,9,1,0.3501548999993247,['n'],1,right,['e'],1,0.0933325000005425,0.1,1,0,FastAcc,24,18,Woman,Right,
2,9,1,0.3848474999995233,['n'],0,left,['e'],1,0.10886849999951664,0.1,0,0,FastAcc,24,18,Woman,Right,
3,9,1,0.33410019999973883,['n'],0,left,['e'],1,0.10951240000031248,0.2,0,0,FastAcc,24,18,Woman,Right,
4,9,1,0.7346804999997403,['n'],1,right,['u'],0,0.07831510000141861,0.4,0,0,FastAcc,24,18,Woman,Right,
5,9,1,0.35072610000133864,['n'],1,right,['e'],1,0.04708729999947536,0.1,1,0,FastAcc,24,18,Woman,Right,
6,9,1,0.30134670000006736,['n'],0,left,['u'],0,1.5073377000007895,0.2,1,0,FastAcc,24,18,Woman,Right,
7,9,1,0.467363400000977,['n'],1,right,['u'],0,0.23088089999873773,0.4,0,0,FastAcc,24,18,Woman,Right,
8,9,1,0.36832759999924747,['n'],1,right,['e'],1,0.1450014000001829,0.1,1,0,FastAcc,24,18,Woman,Right,
9,9,1,0.33392669999921054,['n'],0,left,['e'],1,0.7200637999994797,0.4,0,0,FastAcc,24,18,Woman,Right,
10,9,1,0.3348501000000397,['c'],0,right,['u'],0,0.08851770000001125,0.4,1,0,FastAcc,24,18,Woman,Right,
11,9,1,0.3347831999999471,['c'],1,left,['u'],0,0.15376440000000002,0.4,0,0,FastAcc,24,18,Woman,Right,
12,9,1,0.31798779999917315,['c'],0,right,['u'],0,0.12122199999976147,0.2,1,0,FastAcc,24,18,Woman,Right,
13,9,1,0.3520478999998886,['n'],0,left,['e'],1,0.2006641000007221,0.2,0,0,FastAcc,24,18,Woman,Right,
14,9,1,1.1835246999999072,['c'],1,left,['e'],1,0.03627039999992121,0.2,1,0,FastAcc,24,18,Woman,Right,
15,9,1,0.3512706999990769,['c'],0,right,['e'],1,0.11852989999897545,0.1,0,0,FastAcc,24,18,Woman,Right,
16,9,1,0.7837452000003395,['n'],1,right,['e'],1,0.1173333000006096,0.1,1,0,FastAcc,24,18,Woman,Right,
17,9,1,0.5676034999996773,['c'],1,left,['e'],1,0.10794679999889922,0.1,1,0,FastAcc,24,18,Woman,Right,
18,9,1,0.6673898999997618,['c'],1,left,['e'],1,0.09547119999842835,0.1,1,0,FastAcc,24,18,Woman,Right,
19,9,1,1.1849158000004536,['c'],1,left,['e'],1,0.04617659999894386,0.4,1,0,FastAcc,24,18,Woman,Right,
20,9,1,0.45146500000009837,['n'],1,right,['u'],0,0.12473210000098334,0.1,0,0,FastAcc,24,18,Woman,Right,
21,9,1,0.3346875999995973,['n'],1,right,['e'],1,0.12469429999873682,0.4,1,0,FastAcc,24,18,Woman,Right,
22,9,1,0.2830091999985598,['n'],1,right,['e'],1,0.06426929999906861,0.4,1,0,FastAcc,24,18,Woman,Right,
23,9,1,0.21885939999992843,['n'],1,right,['u'],0,0.05448660000001837,0.1,0,0,FastAcc,24,18,Woman,Right,
24,9,1,0.23460139999951934,['n'],1,right,['e'],1,0.013017000001127599,0.4,1,0,FastAcc,24,18,Woman,Right,
25,9,1,0.2512889000008727,['n'],1,right,['u'],0,0.08471989999998186,0.2,0,0,FastAcc,24,18,Woman,Right,
26,9,1,0.31783460000042396,['c'],1,left,['e'],1,0.006816699999035336,0.2,1,0,FastAcc,24,18,Woman,Right,
27,9,1,0.4346018999985972,['n'],1,right,['e'],1,0.6789323999983026,0.1,1,0,FastAcc,24,18,Woman,Right,
28,9,1,0.5012334999992163,['n'],0,left,['u'],0,4.5218982999995205,0.2,1,0,FastAcc,24,18,Woman,Right,
29,9,1,0.30137960000138264,['c'],0,right,['e'],1,0.04394800000045507,0.4,0,0,FastAcc,24,18,Woman,Right,
30,9,1,0.2846845999993093,['n'],1,right,['u'],0,0.0814805999998498,0.4,0,0,FastAcc,24,18,Woman,Right,
31,9,1,0.3178446999991138,['n'],0,left,['u'],0,0.16361010000036913,0.2,1,0,FastAcc,24,18,Woman,Right,
32,9,1,0.30129829999896174,['n'],1,right,['e'],1,0.1790543000006437,0.2,1,0,FastAcc,24,18,Woman,Right,
33,9,1,0.35097010000026785,['n'],0,left,['e'],1,0.0641152999996848,0.4,0,0,FastAcc,24,18,Woman,Right,
34,9,1,0.7840292000000773,['c'],1,left,['e'],1,0.12828780000018014,0.2,1,0,FastAcc,24,18,Woman,Right,
35,9,1,0.3847135000014532,['n'],1,right,['e'],1,1.2303321000017604,0.1,1,0,FastAcc,24,18,Woman,Right,
36,9,1,0.5665566999996372,['c'],0,right,['e'],1,0.1532231999990472,0.2,0,0,FastAcc,24,18,Woman,Right,
37,9,1,0.30022379999900295,['n'],1,right,['u'],0,0.13691490000019257,0.1,0,0,FastAcc,24,18,Woman,Right,
38,9,1,0.3849329000004218,['n'],1,right,['u'],0,0.11835670000073151,0.4,0,0,FastAcc,24,18,Woman,Right,
39,9,1,1.1683403000006365,['c'],1,left,['e'],1,0.13326260000030743,0.4,1,0,FastAcc,24,18,Woman,Right,
40,9,1,0.43440080000073067,['c'],1,left,['e'],1,0.06549640000048385,0.4,1,0,FastAcc,24,18,Woman,Right,
41,9,1,0.4663184999990335,['n'],0,left,['e'],1,0.04601149999871268,0.1,0,0,FastAcc,24,18,Woman,Right,
42,9,1,0.7342210000006162,['n'],1,right,['e'],1,0.16062409999904048,0.4,1,0,FastAcc,24,18,Woman,Right,
43,9,1,0.3343084000007366,['n'],0,left,['e'],1,0.07976800000142248,0.2,0,0,FastAcc,24,18,Woman,Right,
44,9,1,0.4347381999996287,['c'],0,right,['e'],1,0.060889500000484986,0.1,0,0,FastAcc,24,18,Woman,Right,
45,9,1,0.31730010000137554,['n'],1,right,['u'],0,0.09648469999956433,0.4,0,0,FastAcc,24,18,Woman,Right,
46,9,1,0.31677789999957895,['n'],1,right,['u'],0,0.0028794999998353887,0.2,0,0,FastAcc,24,18,Woman,Right,
47,9,1,0.35057919999962905,['n'],0,left,['u'],0,0.07038910000119358,0.2,1,0,FastAcc,24,18,Woman,Right,
48,9,1,0.25122860000010405,['c'],1,left,['e'],1,0.059510700000828365,0.4,1,0,FastAcc,24,18,Woman,Right,
49,9,1,0.23354960000142455,['c'],1,left,['e'],1,0.06725940000069386,0.2,1,0,FastAcc,24,18,Woman,Right,
50,9,1,0.26804960000117717,['c'],0,right,['e'],1,0.05537770000046294,0.1,0,0,FastAcc,24,18,Woman,Right,
51,9,1,0.33460270000068704,['n'],0,left,['u'],0,0.13826110000081826,0.2,1,0,FastAcc,24,18,Woman,Right,
52,9,1,0.251296899999943,['c'],0,right,['e'],1,0.06117700000140758,0.2,0,0,FastAcc,24,18,Woman,Right,
53,9,1,1.0847429999994347,['c'],1,left,['e'],1,0.018416000000797794,0.1,1,0,FastAcc,24,18,Woman,Right,
54,9,1,1.0179609000006167,['n'],0,left,['e'],1,0.07484260000092036,0.1,0,0,FastAcc,24,18,Woman,Right,
55,9,1,0.38449209999998857,['n'],0,left,['e'],1,0.23492980000082753,0.4,0,0,FastAcc,24,18,Woman,Right,
56,9,1,0.5173823999994056,['c'],1,left,['e'],1,0.11158479999903648,0.1,1,0,FastAcc,24,18,Woman,Right,
57,9,1,0.3015376000003016,['n'],0,left,['e'],1,0.033508499998788466,0.4,0,0,FastAcc,24,18,Woman,Right,
58,9,1,0.9341119000000617,['n'],1,right,['u'],0,0.06105790000037814,0.2,0,0,FastAcc,24,18,Woman,Right,
59,9,1,0.5668426000011095,['n'],0,left,['e'],1,0.08750340000005963,0.1,0,0,FastAcc,24,18,Woman,Right,
0,10,1,0.44950989999961166,['n'],0,left,['e'],1,0.08354619999954593,0.2,0,0,FastFast,24,18,Woman,Right,
1,10,1,0.23387109999930544,['n'],1,right,['u'],0,0.0561639000006835,0.4,0,0,FastFast,24,18,Woman,Right,
2,10,1,0.21718180000061693,['n'],1,right,['u'],0,0.047596999998859246,0.1,0,0,FastFast,24,18,Woman,Right,
3,10,1,0.28442749999885564,['n'],1,right,['e'],1,0.9483921000010014,0.2,1,0,FastFast,24,18,Woman,Right,
4,10,1,0.28468059999977413,['n'],0,left,['e'],1,0.38891940000030445,0.2,0,0,FastFast,24,18,Woman,Right,
5,10,1,0.26638270000148623,['c'],1,left,['e'],1,0.12674799999876996,0.1,1,0,FastFast,24,18,Woman,Right,
6,10,1,0.4346829999994952,['n'],1,right,['e'],1,0.08968249999998079,0.1,1,0,FastFast,24,18,Woman,Right,
7,10,1,0.3017160999988846,['c'],1,left,['e'],1,0.09243140000035055,0.4,1,0,FastFast,24,18,Woman,Right,
8,10,1,0.31805979999990086,['c'],1,left,['u'],0,0.0946925000007468,0.4,0,0,FastFast,24,18,Woman,Right,
9,10,1,0.3673603000006551,['n'],0,left,['e'],1,0.5109747999995307,0.2,0,0,FastFast,24,18,Woman,Right,
10,10,1,0.3334378999988985,['n'],0,left,['e'],1,0.4160801999987598,0.4,0,0,FastFast,24,18,Woman,Right,
11,10,1,0.8177907999997842,['n'],0,left,['u'],0,0.1127321000003576,0.1,1,0,FastFast,24,18,Woman,Right,
12,10,1,0.28457499999967695,['c'],0,right,['u'],0,0.11480779999874358,0.4,1,0,FastFast,24,18,Woman,Right,
13,10,1,0.8511759000011807,['n'],1,right,['u'],0,0.09437960000104795,0.2,0,0,FastFast,24,18,Woman,Right,
14,10,1,0.31722439999975904,['n'],0,left,['u'],0,0.048855000000912696,0.2,1,0,FastFast,24,18,Woman,Right,
15,10,1,0.25035310000021127,['c'],0,right,['e'],1,0.039463000000978354,0.1,0,0,FastFast,24,18,Woman,Right,
16,10,1,0.2852926999985357,['n'],0,left,['u'],0,0.07642959999975574,0.2,1,0,FastFast,24,18,Woman,Right,
17,10,1,0.5678266000013537,['n'],1,right,['u'],0,0.10200939999958791,0.4,0,0,FastFast,24,18,Woman,Right,
18,10,1,0.4507101999988663,['c'],0,right,['e'],1,0.12965630000144301,0.2,0,0,FastFast,24,18,Woman,Right,
19,10,1,0.29996229999960633,['n'],0,left,['u'],0,0.06707800000003772,0.4,1,0,FastFast,24,18,Woman,Right,
20,10,1,0.2683997999993153,['n'],0,left,['u'],0,0.05532829999901878,0.2,1,0,FastFast,24,18,Woman,Right,
21,10,1,0.3518020000010438,['n'],0,left,['e'],1,0.09024800000042887,0.1,0,0,FastFast,24,18,Woman,Right,
22,10,1,0.28509239999948477,['c'],1,left,['u'],0,0.06130539999867324,0.1,0,0,FastFast,24,18,Woman,Right,
23,10,1,0.3844060999999783,['n'],0,left,['e'],1,0.09382349999941653,0.2,0,0,FastFast,24,18,Woman,Right,
24,10,1,0.3658427999998821,['c'],0,right,['e'],1,0.0791505999986839,0.2,0,0,FastFast,24,18,Woman,Right,
25,10,1,0.25182950000089477,['n'],0,left,['e'],1,0.09965059999922232,0.1,0,0,FastFast,24,18,Woman,Right,
26,10,1,0.285470400000122,['n'],1,right,['e'],1,0.16630409999925178,0.2,1,0,FastFast,24,18,Woman,Right,
27,10,1,0.35117429999991145,['n'],1,right,['e'],1,0.16377699999975448,0.2,1,0,FastFast,24,18,Woman,Right,
28,10,1,0.2841504999996687,['n'],0,left,['e'],1,0.1319590999992215,0.4,0,0,FastFast,24,18,Woman,Right,
29,10,1,0.250797100001364,['n'],0,left,['e'],1,0.2786514999988867,0.4,0,0,FastFast,24,18,Woman,Right,
30,10,1,1.2170818000013242,['n'],0,left,['e'],1,0.06096400000024005,0.1,0,0,FastFast,24,18,Woman,Right,
31,10,1,0.2848223000000871,['c'],0,right,['u'],0,0.0820294000004651,0.2,1,0,FastFast,24,18,Woman,Right,
32,10,1,0.25136770000062825,['c'],1,left,['u'],0,0.07061229999999341,0.2,0,0,FastFast,24,18,Woman,Right,
33,10,1,0.25098390000130166,['c'],0,right,['u'],0,0.0923927999992884,0.4,1,0,FastFast,24,18,Woman,Right,
34,10,1,0.2672681999993074,['c'],1,left,['u'],0,0.11236279999866383,0.2,0,0,FastFast,24,18,Woman,Right,
35,10,1,0.333889999999883,['n'],1,right,['u'],0,0.04879600000094797,0.4,0,0,FastFast,24,18,Woman,Right,
36,10,1,0.2515806999999768,['c'],0,right,['u'],0,0.10286300000007031,0.1,1,0,FastFast,24,18,Woman,Right,
37,10,1,0.28511929999876884,['n'],1,right,['u'],0,0.07374060000074678,0.4,0,0,FastFast,24,18,Woman,Right,
38,10,1,0.3184682999999495,['c'],0,right,['u'],0,0.15644549999888113,0.4,1,0,FastFast,24,18,Woman,Right,
39,10,1,0.28359529999943334,['c'],1,left,['e'],1,1.5655595000007452,0.1,1,0,FastFast,24,18,Woman,Right,
40,10,1,0.36751919999915117,['n'],1,right,['e'],1,0.11500169999999343,0.1,1,0,FastFast,24,18,Woman,Right,
41,10,1,0.15146180000010645,['n'],0,left,['e'],1,0.13780260000021372,0.2,0,0,FastFast,24,18,Woman,Right,
42,10,1,0.20125129999905766,['n'],1,right,['e'],1,0.04654389999996056,0.1,1,0,FastFast,24,18,Woman,Right,
43,10,1,0.6180349999995087,['c'],1,left,['e'],1,0.18229270000119868,0.4,1,0,FastFast,24,18,Woman,Right,
44,10,1,1.217239999999947,['n'],1,right,['e'],1,0.03286419999858481,0.4,1,0,FastFast,24,18,Woman,Right,
45,10,1,0.3177906000000803,['c'],0,right,['e'],1,0.005398899998908746,0.4,0,0,FastFast,24,18,Woman,Right,
46,10,1,0.46632360000148765,['n'],1,right,['e'],1,0.08409279999978025,0.4,1,0,FastFast,24,18,Woman,Right,
47,10,1,0.35132979999980307,['n'],1,right,['e'],1,0.0691581999999471,0.4,1,0,FastFast,24,18,Woman,Right,
48,10,1,0.6508448000004137,['n'],0,left,['u'],0,0.02734729999974661,0.1,1,0,FastFast,24,18,Woman,Right,
49,10,1,0.45072540000001027,['c'],1,left,['e'],1,0.09004339999955846,0.4,1,0,FastFast,24,18,Woman,Right,
50,10,1,0.35098329999891575,['c'],1,left,['e'],1,0.0911046000001079,0.1,1,0,FastFast,24,18,Woman,Right,
51,10,1,0.45116129999951227,['n'],1,right,['e'],1,3.3680974999988393,0.1,1,0,FastFast,24,18,Woman,Right,
52,10,1,0.3011220000007597,['n'],1,right,['u'],0,1.639889599999151,0.1,0,0,FastFast,24,18,Woman,Right,
53,10,1,0.7012439000009181,['c'],1,left,['e'],1,0.15672079999967536,0.1,1,0,FastFast,24,18,Woman,Right,
54,10,1,0.6672784999991563,['n'],1,right,['u'],0,0.17424019999998563,0.1,0,0,FastFast,24,18,Woman,Right,
55,10,1,0.6840398000003916,['n'],1,right,['e'],1,0.1264307999990706,0.2,1,0,FastFast,24,18,Woman,Right,
56,10,1,0.7512987999998586,['c'],1,left,['e'],1,0.14232059999994817,0.1,1,0,FastFast,24,18,Woman,Right,
57,10,1,0.5669763000005332,['c'],1,left,['e'],1,0.08428640000056475,0.2,1,0,FastFast,24,18,Woman,Right,
58,10,1,0.5515734000000521,['c'],0,right,['e'],1,0.15704489999916404,0.4,0,0,FastFast,24,18,Woman,Right,
59,10,1,0.7348116000011942,['n'],1,right,['u'],0,0.06001830000059272,0.2,0,0,FastFast,24,18,Woman,Right,
0,11,1,0.6347339000003558,['c'],1,left,['e'],1,0.07752240000081656,0.4,1,0,AccFast,24,18,Woman,Right,
1,11,1,0.5177497999993648,['n'],1,right,['u'],0,0.24822580000000016,0.4,0,0,AccFast,24,18,Woman,Right,
2,11,1,0.5004499000006035,['c'],1,left,['e'],1,0.2368556000001263,0.4,1,0,AccFast,24,18,Woman,Right,
3,11,1,0.8686897000006866,['c'],1,left,['u'],0,0.003934399999707239,0.1,0,0,AccFast,24,18,Woman,Right,
4,11,1,0.4993990000002668,['c'],1,left,"['u', 'e']",0,0.1135705999986385,0.4,0,0,AccFast,24,18,Woman,Right,
5,11,1,0.5180428000003303,['c'],1,left,['e'],1,0.01051019999977143,0.4,1,0,AccFast,24,18,Woman,Right,
6,11,1,0.585368500000186,['n'],1,right,['e'],1,0.13275369999973918,0.2,1,0,AccFast,24,18,Woman,Right,
7,11,1,0.4337735999997676,['c'],1,left,['e'],1,0.14399219999904744,0.1,1,0,AccFast,24,18,Woman,Right,
8,11,1,0.5346663999989687,['c'],1,left,['e'],1,0.008457899999484653,0.4,1,0,AccFast,24,18,Woman,Right,
9,11,1,0.566661999999269,['n'],1,right,['u'],0,0.06708810000054655,0.1,0,0,AccFast,24,18,Woman,Right,
10,11,1,0.38336549999985436,['n'],0,left,['e'],1,0.06853450000016892,0.2,0,0,AccFast,24,18,Woman,Right,
11,11,1,0.6677737999998499,['c'],1,left,['e'],1,0.08818449999853328,0.2,1,0,AccFast,24,18,Woman,Right,
12,11,1,0.6685159000007843,['c'],1,left,['e'],1,0.07730629999969096,0.2,1,0,AccFast,24,18,Woman,Right,
13,11,1,0.6840332999981911,['c'],0,right,['u'],0,0.048652399998900364,0.2,1,0,AccFast,24,18,Woman,Right,
14,11,1,0.5841464000004635,['n'],0,left,['e'],1,0.7293595999999525,0.4,0,0,AccFast,24,18,Woman,Right,
15,11,1,0.4165367999994487,['c'],0,right,['u'],0,0.10957390000112355,0.2,1,0,AccFast,24,18,Woman,Right,
16,11,1,0.934505999999601,['n'],1,right,['e'],1,0.24667020000015327,0.4,1,0,AccFast,24,18,Woman,Right,
17,11,1,0.7345629999999801,['n'],1,right,['e'],1,0.06562459999986459,0.2,1,0,AccFast,24,18,Woman,Right,
18,11,1,0.3329367000005732,['n'],1,right,['e'],1,0.06620850000035716,0.4,1,0,AccFast,24,18,Woman,Right,
19,11,1,0.33383150000008754,['n'],1,right,['u'],0,0.08668949999992037,0.4,0,0,AccFast,24,18,Woman,Right,
20,11,1,0.2836329999990994,['n'],0,left,['e'],1,0.08969880000040575,0.1,0,0,AccFast,24,18,Woman,Right,
21,11,1,0.33496980000018084,['n'],1,right,['u'],0,0.20295900000019174,0.1,0,0,AccFast,24,18,Woman,Right,
22,11,1,0.2843637000005401,['n'],1,right,['u'],0,0.17019080000136455,0.1,0,0,AccFast,24,18,Woman,Right,
23,11,1,0.28358709999884013,['n'],0,left,['u'],0,0.058267099999284255,0.4,1,0,AccFast,24,18,Woman,Right,
24,11,1,0.30070250000062515,['n'],0,left,['u'],0,0.15859829999862995,0.2,1,0,AccFast,24,18,Woman,Right,
25,11,1,0.20135909999953583,['n'],0,left,['u'],0,0.05057880000094883,0.1,1,0,AccFast,24,18,Woman,Right,
26,11,1,0.21609449999959907,['n'],0,left,['u'],0,0.12335990000065067,0.2,1,0,AccFast,24,18,Woman,Right,
27,11,1,0.2688776000013604,['n'],1,right,['e'],1,0.04501849999905971,0.1,1,0,AccFast,24,18,Woman,Right,
28,11,1,0.3680138000017905,['n'],1,right,['e'],1,0.0945051999988209,0.1,1,0,AccFast,24,18,Woman,Right,
29,11,1,0.4671061000008194,['c'],0,right,['e'],1,1.0502646999993885,0.2,0,0,AccFast,24,18,Woman,Right,
30,11,1,0.25139710000075866,['n'],0,left,['u'],0,0.08888830000068992,0.2,1,0,AccFast,24,18,Woman,Right,
31,11,1,0.15173479999975825,['n'],0,left,['e'],1,0.19340240000019548,0.4,0,0,AccFast,24,18,Woman,Right,
32,11,1,0.31804770000053395,['n'],1,right,['e'],1,0.047713299998576986,0.2,1,0,AccFast,24,18,Woman,Right,
33,11,1,0.10126540000055684,['n'],1,right,['e'],1,0.1402602999987721,0.1,1,0,AccFast,24,18,Woman,Right,
34,11,1,0.651160899999013,['n'],1,right,['e'],1,0.11087709999992512,0.4,1,0,AccFast,24,18,Woman,Right,
35,11,1,0.4511365999987902,['n'],0,left,['u'],0,0.6677546999999322,0.2,1,0,AccFast,24,18,Woman,Right,
36,11,1,0.30126970000128495,['n'],0,left,['u'],0,0.11836359999870183,0.2,1,0,AccFast,24,18,Woman,Right,
37,11,1,0.5831008999994083,['c'],1,left,['e'],1,0.0775061000003916,0.2,1,0,AccFast,24,18,Woman,Right,
38,11,1,0.10154060000058962,['n'],0,left,['u'],0,0.32837389999986044,0.1,1,0,AccFast,24,18,Woman,Right,
39,11,1,0.8516115000002173,['c'],0,right,['e'],1,0.12381359999926644,0.1,0,0,AccFast,24,18,Woman,Right,
40,11,1,0.28352259999883245,['n'],1,right,['e'],1,0.5426579000013589,0.1,1,0,AccFast,24,18,Woman,Right,
41,11,1,0.3184450000007928,['n'],0,left,['e'],1,0.07851379999920027,0.2,0,0,AccFast,24,18,Woman,Right,
42,11,1,0.3991951000007248,['n'],1,right,['e'],1,0.09451239999907557,0.4,1,0,AccFast,24,18,Woman,Right,
43,11,1,0.8511577000008401,['n'],1,right,['e'],1,0.10670050000044284,0.4,1,0,AccFast,24,18,Woman,Right,
44,11,1,0.3182624000000942,['c'],1,left,['u'],0,0.14041829999951005,0.1,0,0,AccFast,24,18,Woman,Right,
45,11,1,0.5671672999997099,['c'],1,left,['u'],0,0.46638139999959094,0.2,0,0,AccFast,24,18,Woman,Right,
46,11,1,0.31828130000030797,['c'],0,right,['u'],0,0.08527980000144453,0.1,1,0,AccFast,24,18,Woman,Right,
47,11,1,0.28455700000085926,['c'],0,right,['u'],0,0.025011699999595294,0.1,1,0,AccFast,24,18,Woman,Right,
48,11,1,0.30121800000051735,['n'],1,right,['e'],1,0.8462813000005553,0.4,1,0,AccFast,24,18,Woman,Right,
49,11,1,0.7670579999994516,['n'],1,right,['e'],1,0.06429170000046724,0.4,1,0,AccFast,24,18,Woman,Right,
50,11,1,0.8178505000014411,['c'],1,left,['e'],1,0.0947876999998698,0.4,1,0,AccFast,24,18,Woman,Right,
51,11,1,0.4013837999991665,['n'],0,left,['e'],1,0.14139129999966826,0.4,0,0,AccFast,24,18,Woman,Right,
52,11,1,0.5513406999998551,['n'],0,left,['u'],0,0.0518329000005906,0.1,1,0,AccFast,24,18,Woman,Right,
53,11,1,0.6333991000010428,['n'],1,right,['u'],0,0.058673300000009476,0.2,0,0,AccFast,24,18,Woman,Right,
54,11,1,0.3345766000002186,['c'],1,left,['u'],0,0.0939397000001918,0.1,0,0,AccFast,24,18,Woman,Right,
55,11,1,0.45011889999841515,['n'],1,right,['e'],1,0.12274569999863161,0.1,1,0,AccFast,24,18,Woman,Right,
56,11,1,0.5512505000006058,['c'],1,left,['u'],0,0.08207130000118923,0.2,0,0,AccFast,24,18,Woman,Right,
57,11,1,0.3335126999991189,['c'],0,right,['e'],1,0.1319850999989285,0.1,0,0,AccFast,24,18,Woman,Right,
58,11,1,0.2518583999990369,['n'],1,right,['e'],1,0.00703820000126143,0.2,1,0,AccFast,24,18,Woman,Right,
59,11,1,0.367449299999862,['n'],1,right,['e'],1,0.0901107999998203,0.4,1,0,AccFast,24,18,Woman,Right,
0,12,1,0.4004389000001538,['n'],1,right,['e'],1,1.0386760999990656,0.4,1,0,AccAcc,24,18,Woman,Right,
1,12,1,0.38452479999978095,['n'],1,right,['e'],1,0.08789979999892239,0.4,1,0,AccAcc,24,18,Woman,Right,
2,12,1,0.3345989000008558,['n'],0,left,['e'],1,0.20118550000006508,0.1,0,0,AccAcc,24,18,Woman,Right,
3,12,1,0.30138540000007197,['n'],0,left,['e'],1,0.055762800000593415,0.1,0,0,AccAcc,24,18,Woman,Right,
4,12,1,0.3007720000005065,['n'],0,left,['e'],1,0.17157460000089486,0.2,0,0,AccAcc,24,18,Woman,Right,
5,12,1,0.334726099999898,['n'],0,left,['e'],1,0.13854089999949792,0.4,0,0,AccAcc,24,18,Woman,Right,
6,12,1,0.3835391000011441,['n'],0,left,['e'],1,0.02414900000076159,0.4,0,0,AccAcc,24,18,Woman,Right,
7,12,1,0.05121550000149,['n'],0,left,['e'],1,0.21487180000076478,0.4,0,0,AccAcc,24,18,Woman,Right,
8,12,1,0.05137990000002901,['n'],1,right,['e'],1,0.15910259999873233,0.2,1,0,AccAcc,24,18,Woman,Right,
9,12,1,0.26716570000098727,['c'],0,right,['e'],1,0.03201489999992191,0.1,0,0,AccAcc,24,18,Woman,Right,
10,12,1,0.2349832999989303,['c'],0,right,['u'],0,0.0244754000013927,0.1,1,0,AccAcc,24,18,Woman,Right,
11,12,1,0.26796269999977085,['n'],0,left,['e'],1,0.07856330000140588,0.1,0,0,AccAcc,24,18,Woman,Right,
12,12,1,0.28573470000083034,['n'],0,left,['u'],0,0.017997400000240305,0.1,1,0,AccAcc,24,18,Woman,Right,
13,12,1,0.13316689999919618,['n'],1,right,['u'],0,0.07848869999907038,0.4,0,0,AccAcc,24,18,Woman,Right,
14,12,1,0.20165199999973993,['c'],1,left,['u'],0,0.021575400000074296,0.1,0,0,AccAcc,24,18,Woman,Right,
15,12,1,0.21757520000028308,['c'],0,right,['u'],0,0.030266800000390504,0.4,1,0,AccAcc,24,18,Woman,Right,
16,12,1,0.2683461000015086,['c'],1,left,['e'],1,0.036489300000539515,0.2,1,0,AccAcc,24,18,Woman,Right,
17,12,1,0.05123770000136574,['c'],0,right,['e'],1,0.11538180000025022,0.4,0,0,AccAcc,24,18,Woman,Right,
18,12,1,0.43405490000077407,['n'],1,right,['e'],1,0.15940380000029108,0.4,1,0,AccAcc,24,18,Woman,Right,
19,12,1,0.25008209999941755,['c'],0,right,['e'],1,0.05032039999969129,0.2,0,0,AccAcc,24,18,Woman,Right,
20,12,1,0.13410169999951904,['c'],0,right,['e'],1,0.04466289999982109,0.4,0,0,AccAcc,24,18,Woman,Right,
21,12,1,0.15106609999929788,['c'],0,right,['u'],0,0.05562680000002729,0.4,1,0,AccAcc,24,18,Woman,Right,
22,12,1,0.11755710000034014,['n'],1,right,['e'],1,0.11491299999943294,0.4,1,0,AccAcc,24,18,Woman,Right,
23,12,1,0.25143890000072133,['n'],1,right,['e'],1,0.0070928000004641945,0.4,1,0,AccAcc,24,18,Woman,Right,
24,12,1,0.31662839999989956,['n'],1,right,['e'],1,0.10821020000003045,0.1,1,0,AccAcc,24,18,Woman,Right,
25,12,1,0.3012323999992077,['c'],0,right,['u'],0,0.238176900000326,0.4,1,0,AccAcc,24,18,Woman,Right,
26,12,1,0.3010981000006723,['n'],0,left,['u'],0,0.9870888000004925,0.1,1,0,AccAcc,24,18,Woman,Right,
27,12,1,0.21706039999844506,['n'],1,right,['u'],0,0.10933920000024955,0.2,0,0,AccAcc,24,18,Woman,Right,
28,12,1,0.03401799999846844,['n'],1,right,['u'],0,0.17014150000068184,0.1,0,0,AccAcc,24,18,Woman,Right,
29,12,1,0.2508170999990398,['n'],0,left,['e'],1,0.1237913999993907,0.1,0,0,AccAcc,24,18,Woman,Right,
30,12,1,2.232679900000221,['n'],0,left,['e'],1,0.7692576999997982,0.1,0,0,AccAcc,24,18,Woman,Right,
31,12,1,0.6333240999992995,['n'],0,left,['e'],1,0.6347892999983742,0.4,0,0,AccAcc,24,18,Woman,Right,
32,12,1,3.7159248999996635,['c'],0,right,['u'],0,2.2714549000011175,0.2,1,0,AccAcc,24,18,Woman,Right,
33,12,1,0.5505992999987939,['c'],0,right,['e'],1,0.17651479999949515,0.2,0,0,AccAcc,24,18,Woman,Right,
34,12,1,0.3175862000007328,['n'],0,left,['u'],0,0.015364799999588286,0.4,1,0,AccAcc,24,18,Woman,Right,
35,12,1,0.5016436999994767,['n'],0,left,['u'],0,0.15680210000027728,0.1,1,0,AccAcc,24,18,Woman,Right,
36,12,1,0.6329681000006531,['n'],1,right,['e'],1,0.04816530000061903,0.2,1,0,AccAcc,24,18,Woman,Right,
37,12,1,0.26802800000041316,['c'],1,left,['e'],1,0.021399300001576194,0.2,1,0,AccAcc,24,18,Woman,Right,
38,12,1,0.33395390000077896,['n'],1,right,['u'],0,0.1056310999993002,0.4,0,0,AccAcc,24,18,Woman,Right,
39,12,1,0.31717179999941436,['n'],1,right,['e'],1,0.12332389999937732,0.2,1,0,AccAcc,24,18,Woman,Right,
40,12,1,0.3004451999986486,['n'],0,left,['e'],1,0.07661209999969287,0.4,0,0,AccAcc,24,18,Woman,Right,
41,12,1,0.30009009999957925,['c'],0,right,['e'],1,0.048729199999797856,0.2,0,0,AccAcc,24,18,Woman,Right,
42,12,1,0.3347654000008333,['c'],1,left,['u'],0,0.0668338000014046,0.2,0,0,AccAcc,24,18,Woman,Right,
43,12,1,0.28375189999860595,['n'],1,right,['e'],1,0.11909430000014254,0.1,1,0,AccAcc,24,18,Woman,Right,
44,12,1,0.26847430000088934,['n'],0,left,['e'],1,0.12212899999940419,0.1,0,0,AccAcc,24,18,Woman,Right,
45,12,1,0.28476770000088436,['n'],0,left,['e'],1,0.0922342000012577,0.1,0,0,AccAcc,24,18,Woman,Right,
46,12,1,0.2673748999986856,['n'],1,right,['e'],1,0.04861759999948845,0.1,1,0,AccAcc,24,18,Woman,Right,
47,12,1,0.2512602999995579,['n'],0,left,['e'],1,0.0382856999985961,0.2,0,0,AccAcc,24,18,Woman,Right,
48,12,1,0.2173906000007264,['n'],1,right,['u'],0,0.11048760000085167,0.4,0,0,AccAcc,24,18,Woman,Right,
49,12,1,1.3681386999996903,['c'],1,left,['e'],1,0.0700446999999258,0.4,1,0,AccAcc,24,18,Woman,Right,
50,12,1,0.30009979999886127,['c'],1,left,['e'],1,0.09045680000053835,0.1,1,0,AccAcc,24,18,Woman,Right,
51,12,1,0.03492809999988822,['c'],0,right,['e'],1,0.1511763999988034,0.2,0,0,AccAcc,24,18,Woman,Right,
52,12,1,0.2514134000011836,['c'],1,left,['u'],0,0.0732919000001857,0.2,0,0,AccAcc,24,18,Woman,Right,
53,12,1,0.05158099999971455,['c'],1,left,['u'],0,0.11872020000009798,0.1,0,0,AccAcc,24,18,Woman,Right,
54,12,1,0.051828699999532546,['n'],1,right,['e'],1,0.13024870000117517,0.2,1,0,AccAcc,24,18,Woman,Right,
55,12,1,0.2855206999993243,['n'],0,left,['u'],0,0.11621419999937643,0.2,1,0,AccAcc,24,18,Woman,Right,
56,12,1,0.25078469999971276,['c'],1,left,['e'],1,0.1357503999988694,0.2,1,0,AccAcc,24,18,Woman,Right,
57,12,1,0.26735610000105225,['n'],0,left,['e'],1,0.05795630000102392,0.2,0,0,AccAcc,24,18,Woman,Right,
58,12,1,0.25031070000113687,['c'],0,right,['u'],0,0.06379519999973127,0.1,1,0,AccAcc,24,18,Woman,Right,
59,12,1,0.2518232000002172,['n'],0,left,['e'],1,0.021549000000959495,0.2,0,0,AccAcc,24,18,Woman,Right,
0,13,1,0.5341004999991128,['c'],1,left,['e'],1,0.07324449999941862,0.1,1,0,FastAcc,24,18,Woman,Right,
1,13,1,0.7015179999998509,['n'],1,right,['e'],1,0.07710860000042885,0.1,1,0,FastAcc,24,18,Woman,Right,
2,13,1,0.10129920000144921,['n'],0,left,['e'],1,0.07209200000033889,0.2,0,0,FastAcc,24,18,Woman,Right,
3,13,1,0.6505719000015233,['c'],1,left,['e'],1,0.09368760000143084,0.4,1,0,FastAcc,24,18,Woman,Right,
4,13,1,0.4174751999998989,['c'],0,right,['e'],1,0.07579029999942577,0.1,0,0,FastAcc,24,18,Woman,Right,
5,13,1,0.23449000000073283,['c'],0,right,['u'],0,0.03415590000076918,0.1,1,0,FastAcc,24,18,Woman,Right,
6,13,1,0.26808840000012424,['c'],1,left,['u'],0,0.07225300000027346,0.1,0,0,FastAcc,24,18,Woman,Right,
7,13,1,0.30128030000014405,['n'],0,left,['e'],1,0.12360509999962233,0.1,0,0,FastAcc,24,18,Woman,Right,
8,13,1,0.46806289999949513,['n'],0,left,['e'],1,0.08652540000002773,0.4,0,0,FastAcc,24,18,Woman,Right,
9,13,1,0.3347671999999875,['c'],0,right,['e'],1,0.0404130000006262,0.1,0,0,FastAcc,24,18,Woman,Right,
10,13,1,0.2844528999994509,['c'],0,right,['e'],1,0.029750400000921218,0.4,0,0,FastAcc,24,18,Woman,Right,
11,13,1,0.3000847999992402,['c'],0,right,['e'],1,0.019218699999328237,0.4,0,0,FastAcc,24,18,Woman,Right,
12,13,1,0.3347138000008272,['n'],1,right,['e'],1,0.05616080000072543,0.1,1,0,FastAcc,24,18,Woman,Right,
13,13,1,0.2851083999994444,['n'],1,right,['e'],1,0.0598891999998159,0.4,1,0,FastAcc,24,18,Woman,Right,
14,13,1,0.28340810000008787,['n'],0,left,['e'],1,0.01683499999853666,0.2,0,0,FastAcc,24,18,Woman,Right,
15,13,1,0.3002329999999347,['c'],1,left,['e'],1,1.093957799999771,0.4,1,0,FastAcc,24,18,Woman,Right,
16,13,1,0.3508640000000014,['c'],0,right,['e'],1,0.43156740000085847,0.2,0,0,FastAcc,24,18,Woman,Right,
17,13,1,0.3513683000001038,['c'],1,left,['e'],1,0.08161930000096618,0.4,1,0,FastAcc,24,18,Woman,Right,
18,13,1,0.3011365000002115,['c'],0,right,['u'],0,0.11670400000002701,0.4,1,0,FastAcc,24,18,Woman,Right,
19,13,1,0.31776499999978114,['n'],0,left,['e'],1,0.05345639999904961,0.1,0,0,FastAcc,24,18,Woman,Right,
20,13,1,0.38418629999978293,['n'],0,left,['u'],0,0.1344212999993033,0.2,1,0,FastAcc,24,18,Woman,Right,
21,13,1,0.3680318000006082,['c'],1,left,['e'],1,0.14877189999970142,0.2,1,0,FastAcc,24,18,Woman,Right,
22,13,1,0.3348669000006339,['c'],1,left,['e'],1,0.035439000001133536,0.2,1,0,FastAcc,24,18,Woman,Right,
23,13,1,0.317793399999573,['n'],1,right,['e'],1,0.13549000000057276,0.4,1,0,FastAcc,24,18,Woman,Right,
24,13,1,0.9170496999995521,['n'],1,right,['e'],1,0.07983260000037262,0.2,1,0,FastAcc,24,18,Woman,Right,
25,13,1,1.0011971000003541,['n'],0,left,['e'],1,0.05442919999950391,0.2,0,0,FastAcc,24,18,Woman,Right,
26,13,1,0.38333390000116196,['n'],0,left,['e'],1,0.1036971999983507,0.1,0,0,FastAcc,24,18,Woman,Right,
27,13,1,0.3668897999996261,['n'],0,left,['u'],0,0.13497599999936938,0.4,1,0,FastAcc,24,18,Woman,Right,
28,13,1,0.3183783999993466,['c'],1,left,"['u', 'e']",0,0.2956960999999865,0.4,0,0,FastAcc,24,18,Woman,Right,
29,13,1,0.3676536999992095,['c'],0,right,['u'],0,0.3025786000016524,0.1,1,0,FastAcc,24,18,Woman,Right,
30,13,1,0.3012178999997559,['c'],0,right,['e'],1,0.1690109000010125,0.1,0,0,FastAcc,24,18,Woman,Right,
31,13,1,0.28469199999926786,['n'],1,right,['e'],1,0.10518839999895135,0.4,1,0,FastAcc,24,18,Woman,Right,
32,13,1,0.25079510000068694,['n'],0,left,['e'],1,0.07772920000024897,0.1,0,0,FastAcc,24,18,Woman,Right,
33,13,1,0.3000025999990612,['n'],1,right,['u'],0,0.065170500000022,0.4,0,0,FastAcc,24,18,Woman,Right,
34,13,1,0.2840646000004199,['n'],0,left,['u'],0,0.1652090000006865,0.2,1,0,FastAcc,24,18,Woman,Right,
35,13,1,0.33480450000024575,['c'],1,left,['e'],1,0.019323600001371233,0.1,1,0,FastAcc,24,18,Woman,Right,
36,13,1,0.21811350000098173,['c'],0,right,['e'],1,0.028116299999965122,0.2,0,0,FastAcc,24,18,Woman,Right,
37,13,1,0.4002109000011842,['c'],0,right,['u'],0,0.12577999999848544,0.1,1,0,FastAcc,24,18,Woman,Right,
38,13,1,0.25066530000003695,['c'],0,right,['e'],1,0.04853259999981674,0.2,0,0,FastAcc,24,18,Woman,Right,
39,13,1,0.2501166000001831,['n'],1,right,['e'],1,0.03955109999878914,0.2,1,0,FastAcc,24,18,Woman,Right,
40,13,1,0.21652809999977762,['c'],1,left,['u'],0,0.14261220000116737,0.1,0,0,FastAcc,24,18,Woman,Right,
41,13,1,0.15146540000023379,['c'],0,right,['e'],1,0.11774599999989732,0.4,0,0,FastAcc,24,18,Woman,Right,
42,13,1,0.18465199999991455,['c'],1,left,['e'],1,0.12396190000072238,0.1,1,0,FastAcc,24,18,Woman,Right,
43,13,1,0.1345961000006355,['c'],1,left,['e'],1,0.08469870000044466,0.2,1,0,FastAcc,24,18,Woman,Right,
44,13,1,0.2681909999992058,['c'],0,right,['e'],1,0.04025260000162234,0.4,0,0,FastAcc,24,18,Woman,Right,
45,13,1,0.2010932999983197,['n'],0,left,['e'],1,0.08088120000138588,0.4,0,0,FastAcc,24,18,Woman,Right,
46,13,1,0.2679619000009552,['n'],1,right,['e'],1,0.05307790000006207,0.2,1,0,FastAcc,24,18,Woman,Right,
47,13,1,0.14995830000043497,['c'],0,right,['e'],1,0.15941150000071502,0.2,0,0,FastAcc,24,18,Woman,Right,
48,13,1,0.6506334999994579,['c'],0,right,['e'],1,0.03360170000087237,0.2,0,0,FastAcc,24,18,Woman,Right,
49,13,1,0.10134760000073584,['n'],0,left,['e'],1,0.1262657000006584,0.4,0,0,FastAcc,24,18,Woman,Right,
50,13,1,0.018111400000634603,['c'],1,left,['e'],1,0.12329920000047423,0.4,1,0,FastAcc,24,18,Woman,Right,
51,13,1,0.21656160000020463,['c'],1,left,['e'],1,0.0168733999998949,0.2,1,0,FastAcc,24,18,Woman,Right,
52,13,1,0.23436690000016824,['c'],0,right,['e'],1,0.07216070000140462,0.2,0,0,FastAcc,24,18,Woman,Right,
53,13,1,0.2855870999992476,['c'],1,left,['e'],1,0.06056480000006559,0.1,1,0,FastAcc,24,18,Woman,Right,
54,13,1,0.3016760999998951,['c'],0,right,['e'],1,0.032681299999239855,0.1,0,0,FastAcc,24,18,Woman,Right,
55,13,1,0.16815589999896474,['c'],0,right,['e'],1,0.07477709999875515,0.1,0,0,FastAcc,24,18,Woman,Right,
56,13,1,0.33428599999933795,['c'],0,right,['e'],1,0.028984200000195415,0.2,0,0,FastAcc,24,18,Woman,Right,
57,13,1,4.76703980000093,['c'],1,left,['e'],1,0.06352420000075654,0.4,1,0,FastAcc,24,18,Woman,Right,
58,13,1,0.46831460000066727,['c'],1,left,['e'],1,0.10890619999918272,0.4,1,0,FastAcc,24,18,Woman,Right,
59,13,1,0.4181544999992184,"['n', 'c']",1,right,['e'],1,0.1063360999996803,0.2,1,0,FastAcc,24,18,Woman,Right,
0,14,1,0.30088269999941986,['c'],1,left,"['u', 'e']",0,0.1155187999993359,0.1,0,0,FastFast,24,18,Woman,Right,
1,14,1,0.1515134000001126,['n'],0,left,['e'],1,0.07436159999997471,0.4,0,0,FastFast,24,18,Woman,Right,
2,14,1,0.4345835999993142,['c'],1,left,['u'],0,0.10541860000012093,0.1,0,0,FastFast,24,18,Woman,Right,
3,14,1,0.3015123000004678,['c'],1,left,['u'],0,0.10686810000152036,0.2,0,0,FastFast,24,18,Woman,Right,
4,14,1,0.06795169999895734,['c'],1,left,['e'],1,0.11805619999904593,0.2,1,0,FastFast,24,18,Woman,Right,
5,14,1,0.3011060000008001,['n'],0,left,['u'],0,0.13538799999878393,0.1,1,0,FastFast,24,18,Woman,Right,
6,14,1,0.21624379999957455,['c'],0,right,['e'],1,0.06055779999951483,0.2,0,0,FastFast,24,18,Woman,Right,
7,14,1,0.05031380000036734,['n'],0,left,['e'],1,0.13793879999866476,0.2,0,0,FastFast,24,18,Woman,Right,
8,14,1,0.2504884999998467,['c'],0,right,['u'],0,0.0448911000003136,0.1,1,0,FastFast,24,18,Woman,Right,
9,14,1,0.26807779999944614,['c'],0,right,['u'],0,0.03412500000013097,0.4,1,0,FastFast,24,18,Woman,Right,
10,14,1,0.2681329999995796,['c'],0,right,['u'],0,0.056784200000038254,0.4,1,0,FastFast,24,18,Woman,Right,
11,14,1,0.26806720000058704,['n'],0,left,['e'],1,1.4539127999996708,0.2,0,0,FastFast,24,18,Woman,Right,
12,14,1,0.6009397999987414,['c'],1,left,['e'],1,0.014872199999445002,0.4,1,0,FastFast,24,18,Woman,Right,
13,14,1,0.4002898999988247,['n'],1,right,['e'],1,0.01605810000000929,0.1,1,0,FastFast,24,18,Woman,Right,
14,14,1,0.30063719999998284,['c'],0,right,['u'],0,0.08526440000059665,0.2,1,0,FastFast,24,18,Woman,Right,
15,14,1,0.3167369000002509,['n'],1,right,['u'],0,0.1198939000005339,0.2,0,0,FastFast,24,18,Woman,Right,
16,14,1,0.267429199999242,['c'],0,right,['u'],0,0.07450859999880777,0.1,1,0,FastFast,24,18,Woman,Right,
17,14,1,0.30173350000040955,['n'],0,left,['u'],0,0.014379199999893899,0.2,1,0,FastFast,24,18,Woman,Right,
18,14,1,0.28305790000013076,['c'],0,right,['u'],0,0.036721700000271085,0.1,1,0,FastFast,24,18,Woman,Right,
19,14,1,0.23488469999938388,['n'],1,right,['u'],0,0.12373609999849577,0.4,0,0,FastFast,24,18,Woman,Right,
20,14,1,0.4013842999993358,['n'],1,right,['u'],0,0.057246000000304775,0.2,0,0,FastFast,24,18,Woman,Right,
21,14,1,0.23388280000108352,['c'],1,left,['u'],0,0.04893869999978051,0.1,0,0,FastFast,24,18,Woman,Right,
22,14,1,0.25142779999987397,['n'],1,right,['u'],0,0.10226150000016787,0.2,0,0,FastFast,24,18,Woman,Right,
23,14,1,0.284582499998578,['c'],1,left,['u'],0,0.08911769999940589,0.2,0,0,FastFast,24,18,Woman,Right,
24,14,1,0.35135750000154076,['n'],0,left,['u'],0,0.3617436999993515,0.1,1,0,FastFast,24,18,Woman,Right,
25,14,1,0.2666214000000764,['c'],0,right,['u'],0,0.03482369999983348,0.1,1,0,FastFast,24,18,Woman,Right,
26,14,1,0.318273599999884,['n'],0,left,['u'],0,0.1507270999991306,0.1,1,0,FastFast,24,18,Woman,Right,
27,14,1,0.01802499999939755,['n'],0,left,['u'],0,0.16307380000034755,0.4,1,0,FastFast,24,18,Woman,Right,
28,14,1,0.3507234000007884,['c'],0,right,['u'],0,0.06430860000000393,0.4,1,0,FastFast,24,18,Woman,Right,
29,14,1,0.050464500000089174,['c'],0,right,['u'],0,0.12569989999974496,0.4,1,0,FastFast,24,18,Woman,Right,
30,14,1,0.29978379999920435,['n'],1,right,['u'],0,0.959688199998709,0.4,0,0,FastFast,24,18,Woman,Right,
31,14,1,0.2667334999987361,['c'],0,right,['u'],0,0.11276679999900807,0.4,1,0,FastFast,24,18,Woman,Right,
32,14,1,0.334469800000079,['n'],0,left,['u'],0,0.09680690000095638,0.2,1,0,FastFast,24,18,Woman,Right,
33,14,1,0.4675984999994398,['c'],0,right,['u'],0,0.04415979999976116,0.1,1,0,FastFast,24,18,Woman,Right,
34,14,1,0.40085520000138786,['c'],0,right,['u'],0,0.09362810000129684,0.1,1,0,FastFast,24,18,Woman,Right,
35,14,1,0.316585300000952,['n'],1,right,['u'],0,0.08006380000006175,0.2,0,0,FastFast,24,18,Woman,Right,
36,14,1,0.8014352999998664,['n'],0,left,['u'],0,0.17429060000176833,0.4,1,0,FastFast,24,18,Woman,Right,
37,14,1,0.384495500000412,['c'],0,right,['u'],0,1.258462799998597,0.2,1,0,FastFast,24,18,Woman,Right,
38,14,1,0.30064370000036433,['c'],1,left,['u'],0,0.015232199999445584,0.1,0,0,FastFast,24,18,Woman,Right,
39,14,1,0.31765029999951366,['c'],1,left,['u'],0,1.1714769000009255,0.2,0,0,FastFast,24,18,Woman,Right,
40,14,1,0.30099300000074436,['n'],1,right,['u'],0,0.07513760000074399,0.1,0,0,FastFast,24,18,Woman,Right,
41,14,1,0.30062009999892325,['n'],0,left,['u'],0,0.030670600001030834,0.1,1,0,FastFast,24,18,Woman,Right,
42,14,1,0.317980499999976,['c'],0,right,['u'],0,0.9628132000016194,0.1,1,0,FastFast,24,18,Woman,Right,
43,14,1,0.7177358000008098,['c'],1,left,['u'],0,0.03421690000141098,0.2,0,0,FastFast,24,18,Woman,Right,
44,14,1,0.3678636999993614,['c'],0,right,['e'],1,0.11608960000012303,0.1,0,0,FastFast,24,18,Woman,Right,
45,14,1,0.30165820000001986,['n'],1,right,['e'],1,0.0693504999999277,0.2,1,0,FastFast,24,18,Woman,Right,
46,14,1,0.24917339999956312,['n'],0,left,['e'],1,0.0766036000004533,0.4,0,0,FastFast,24,18,Woman,Right,
47,14,1,0.4017366000007314,['n'],1,right,['e'],1,0.2027574999992794,0.4,1,0,FastFast,24,18,Woman,Right,
48,14,1,0.28448720000051253,['n'],0,left,['u'],0,0.10560310000073514,0.4,1,0,FastFast,24,18,Woman,Right,
49,14,1,0.38346760000058566,['n'],1,right,['u'],0,0.13630769999872427,0.2,0,0,FastFast,24,18,Woman,Right,
50,14,1,0.28486049999992247,['n'],0,left,['u'],0,0.05789359999835142,0.1,1,0,FastFast,24,18,Woman,Right,
51,14,1,0.285070200001428,['c'],1,left,['u'],0,0.494507599998542,0.1,0,0,FastFast,24,18,Woman,Right,
52,14,1,0.2678968000000168,['c'],1,left,['u'],0,0.050902099999802886,0.4,0,0,FastFast,24,18,Woman,Right,
53,14,1,0.7344444999998814,['c'],0,right,['u'],0,0.08565300000009302,0.4,1,0,FastFast,24,18,Woman,Right,
54,14,1,0.25107260000004317,['n'],0,left,['u'],0,0.05854499999986729,0.2,1,0,FastFast,24,18,Woman,Right,
55,14,1,0.4512878000005003,['n'],1,right,['u'],0,0.13774190000003728,0.4,0,0,FastFast,24,18,Woman,Right,
56,14,1,0.41759859999910987,['n'],0,left,['u'],0,0.7576604999994743,0.4,1,0,FastFast,24,18,Woman,Right,
57,14,1,0.5344342999997025,['c'],1,left,['u'],0,0.11604540000007546,0.4,0,0,FastFast,24,18,Woman,Right,
58,14,1,0.3010199999989709,['n'],1,right,['u'],0,0.11726980000094045,0.2,0,0,FastFast,24,18,Woman,Right,
59,14,1,0.399575299999924,['c'],1,left,['u'],0,0.1475308999997651,0.4,0,0,FastFast,24,18,Woman,Right,
0,15,1,0.9674204000002646,['c'],1,left,['e'],1,0.08664930000122695,0.1,1,0,AccFast,24,18,Woman,Right,
1,15,1,1.0346478000010393,['n'],1,right,['u'],0,0.07558570000037435,0.4,0,0,AccFast,24,18,Woman,Right,
2,15,1,0.5333650000011403,['c'],0,right,['e'],1,1.8458764999995765,0.1,0,0,AccFast,24,18,Woman,Right,
3,15,1,0.5348066000005929,['c'],1,left,['e'],1,0.04083429999991495,0.4,1,0,AccFast,24,18,Woman,Right,
4,15,1,0.6010117999994691,['n'],1,right,['e'],1,0.09751970000070287,0.1,1,0,AccFast,24,18,Woman,Right,
5,15,1,1.1013291999988724,['n'],0,left,['e'],1,0.17991489999985788,0.2,0,0,AccFast,24,18,Woman,Right,
6,15,1,0.8326935999994021,['n'],0,left,['e'],1,0.11061499999959779,0.2,0,0,AccFast,24,18,Woman,Right,
7,15,1,2.2178812000001926,['n'],1,right,['e'],1,0.1630105000003823,0.1,1,0,AccFast,24,18,Woman,Right,
8,15,1,0.9512749999994412,['n'],1,right,['e'],1,0.13654510000014852,0.4,1,0,AccFast,24,18,Woman,Right,
9,15,1,0.6175574000008055,['n'],0,left,['e'],1,0.06078049999996438,0.4,0,0,AccFast,24,18,Woman,Right,
10,15,1,0.5338670000001002,['n'],0,left,['e'],1,0.12002340000071854,0.4,0,0,AccFast,24,18,Woman,Right,
11,15,1,0.9503882000008161,['n'],0,left,['e'],1,0.17523740000069665,0.2,0,0,AccFast,24,18,Woman,Right,
12,15,1,0.8344198000013421,['c'],1,left,['e'],1,0.07357809999848541,0.4,1,0,AccFast,24,18,Woman,Right,
13,15,1,0.5007036000006337,['c'],1,left,['e'],1,0.37311289999888686,0.1,1,0,AccFast,24,18,Woman,Right,
14,15,1,0.41778880000128993,['n'],1,right,['e'],1,0.11991959999977553,0.4,1,0,AccFast,24,18,Woman,Right,
15,15,1,0.6010502999997698,['c'],0,right,['e'],1,0.14155780000146478,0.4,0,0,AccFast,24,18,Woman,Right,
16,15,1,0.31780539999999746,['n'],1,right,['e'],1,0.11014059999979509,0.1,1,0,AccFast,24,18,Woman,Right,
17,15,1,0.3171698000005563,['n'],0,left,['e'],1,0.1272902000000613,0.4,0,0,AccFast,24,18,Woman,Right,
18,15,1,0.33394609999959357,['n'],1,right,['e'],1,0.17543399999885878,0.1,1,0,AccFast,24,18,Woman,Right,
19,15,1,0.35105490000023565,['n'],0,left,['e'],1,0.205432099999598,0.2,0,0,AccFast,24,18,Woman,Right,
20,15,1,0.7511135999993712,['n'],0,left,['e'],1,0.10557840000001306,0.1,0,0,AccFast,24,18,Woman,Right,
21,15,1,0.4511784999995143,['n'],1,right,['e'],1,0.03729479999856267,0.2,1,0,AccFast,24,18,Woman,Right,
22,15,1,1.1511062000008678,['n'],0,left,['e'],1,0.05629450000014913,0.4,0,0,AccFast,24,18,Woman,Right,
23,15,1,0.9513095999991492,['n'],1,right,['e'],1,0.05076749999898311,0.2,1,0,AccFast,24,18,Woman,Right,
24,15,1,0.36798869999984163,['c'],0,right,['u'],0,0.08397640000112006,0.1,1,0,AccFast,24,18,Woman,Right,
25,15,1,0.3016706999987946,['c'],1,left,['u'],0,0.0868384999994305,0.2,0,0,AccFast,24,18,Woman,Right,
26,15,1,0.284965299999385,['n'],0,left,['u'],0,0.13840799999888986,0.2,1,0,AccFast,24,18,Woman,Right,
27,15,1,1.8335925999999745,['c'],1,left,['u'],0,0.0942202999995061,0.4,0,0,AccFast,24,18,Woman,Right,
28,15,1,0.4672300999991421,['c'],1,left,['u'],0,0.09039370000027702,0.1,0,0,AccFast,24,18,Woman,Right,
29,15,1,0.08489970000118774,['n'],1,right,['u'],0,0.14970510000057402,0.4,0,0,AccFast,24,18,Woman,Right,
30,15,1,0.318231499999456,['c'],1,left,['u'],0,0.13409070000125212,0.2,0,0,AccFast,24,18,Woman,Right,
31,15,1,0.4496017999990727,['n'],1,right,['u'],0,0.14436729999943054,0.2,0,0,AccFast,24,18,Woman,Right,
32,15,1,0.3673834999990504,['n'],0,left,['u'],0,0.014794799999435782,0.2,1,0,AccFast,24,18,Woman,Right,
33,15,1,0.45085069999913685,['n'],1,right,['u'],0,0.09406710000075691,0.2,0,0,AccFast,24,18,Woman,Right,
34,15,1,0.4844446000006428,['c'],1,left,['e'],1,0.12146980000034091,0.4,1,0,AccFast,24,18,Woman,Right,
35,15,1,0.28468520000024,['n'],1,right,['e'],1,0.10773300000073505,0.2,1,0,AccFast,24,18,Woman,Right,
36,15,1,0.2845277999986138,['c'],1,left,['e'],1,0.01497910000034608,0.1,1,0,AccFast,24,18,Woman,Right,
37,15,1,1.3509128999994573,['n'],1,right,['e'],1,0.042441100000360166,0.2,1,0,AccFast,24,18,Woman,Right,
38,15,1,0.48458600000049046,['n'],1,right,['e'],1,0.07181470000068657,0.4,1,0,AccFast,24,18,Woman,Right,
39,15,1,0.6348260999984632,['n'],1,right,['e'],1,0.062050900000031106,0.4,1,0,AccFast,24,18,Woman,Right,
40,15,1,0.6677736999990884,['c'],0,right,['e'],1,0.051008899999942514,0.1,0,0,AccFast,24,18,Woman,Right,
41,15,1,0.3346155999988696,['n'],0,left,['e'],1,0.1177109999989625,0.4,0,0,AccFast,24,18,Woman,Right,
42,15,1,0.8671849000002112,['n'],1,right,['e'],1,0.08043390000057116,0.4,1,0,AccFast,24,18,Woman,Right,
43,15,1,0.4508329000000231,['c'],0,right,['e'],1,0.030154400001265458,0.1,0,0,AccFast,24,18,Woman,Right,
44,15,1,0.6678315000008297,['c'],1,left,['e'],1,0.06768989999909536,0.1,1,0,AccFast,24,18,Woman,Right,
45,15,1,0.7337122999997518,['n'],1,right,['u'],0,0.0380178999985219,0.2,0,0,AccFast,24,18,Woman,Right,
46,15,1,0.8681051000003208,['n'],0,left,['e'],1,0.0521232000010059,0.1,0,0,AccFast,24,18,Woman,Right,
47,15,1,1.0677453999996942,['n'],1,right,['e'],1,0.6176573000011558,0.4,1,0,AccFast,24,18,Woman,Right,
48,15,1,0.6679132000008394,['n'],1,right,['e'],1,0.07336759999998321,0.2,1,0,AccFast,24,18,Woman,Right,
49,15,1,0.5515431000003446,['n'],0,left,['e'],1,0.17812460000095598,0.2,0,0,AccFast,24,18,Woman,Right,
50,15,1,0.33407919999990554,['n'],1,right,['e'],1,0.09621569999944768,0.2,1,0,AccFast,24,18,Woman,Right,
51,15,1,0.5348522999993293,['c'],0,right,['e'],1,0.10519270000077086,0.2,0,0,AccFast,24,18,Woman,Right,
52,15,1,0.48511860000144225,['n'],0,left,['e'],1,0.17985540000154288,0.4,0,0,AccFast,24,18,Woman,Right,
53,15,1,0.31813730000067153,['n'],0,left,['e'],1,0.1461975000001985,0.1,0,0,AccFast,24,18,Woman,Right,
54,15,1,0.40122689999952854,['c'],1,left,['e'],1,0.07872020000104385,0.1,1,0,AccFast,24,18,Woman,Right,
55,15,1,0.46785129999989294,['n'],1,right,['e'],1,0.09059650000017427,0.1,1,0,AccFast,24,18,Woman,Right,
56,15,1,0.5679265999988274,['n'],1,right,['u'],0,0.4028324999999313,0.1,0,0,AccFast,24,18,Woman,Right,
57,15,1,0.33454080000046815,['c'],0,right,['e'],1,0.07185560000107216,0.4,0,0,AccFast,24,18,Woman,Right,
58,15,1,0.3676565000005212,['n'],0,left,['e'],1,0.13724480000018957,0.2,0,0,AccFast,24,18,Woman,Right,
59,15,1,0.41705650000039896,['c'],1,left,['e'],1,0.11664959999870916,0.1,1,0,AccFast,24,18,Woman,Right,
