withinblocktrial,block,block_repetition,rt,resp,cor,cresp,conf_press,cj,rtconf,coherence,metacognition,slow_trial,manipulation,sub,age,gender,handedness,
0,1,1,1.034085799999957,['n'],1,right,none,-99,-99,0.5,-99,0,none,15,19,Woman,Right,
1,1,1,1.0325269000004482,['c'],1,left,none,-99,-99,0.5,-99,0,none,15,19,Woman,Right,
2,1,1,1.533588399999644,['c'],1,left,none,-99,-99,0.5,-99,0,none,15,19,Woman,Right,
3,1,1,1.1673647000006895,['c'],1,left,none,-99,-99,0.5,-99,0,none,15,19,Woman,Right,
4,1,1,1.3339027000001806,['c'],1,left,none,-99,-99,0.5,-99,0,none,15,19,Woman,Right,
5,1,1,1.4176422000000457,['c'],1,left,none,-99,-99,0.5,-99,0,none,15,19,Woman,Right,
6,1,1,1.6668581000012637,['c'],1,left,none,-99,-99,0.5,-99,0,none,15,19,Woman,Right,
7,1,1,0.7498309999991761,['n'],1,right,none,-99,-99,0.5,-99,0,none,15,19,Woman,Right,
8,1,1,0.8837594000015088,['n'],1,right,none,-99,-99,0.5,-99,0,none,15,19,Woman,Right,
9,1,1,1.16767179999988,['n'],1,right,none,-99,-99,0.5,-99,0,none,15,19,Woman,Right,
10,1,1,1.0503933999989385,['c'],1,left,none,-99,-99,0.5,-99,0,none,15,19,Woman,Right,
11,1,1,1.050470199999836,['n'],1,right,none,-99,-99,0.5,-99,0,none,15,19,Woman,Right,
12,1,1,1.0004539999990811,['c'],1,left,none,-99,-99,0.5,-99,0,none,15,19,Woman,Right,
13,1,1,1.0668963999996777,['n'],1,right,none,-99,-99,0.5,-99,0,none,15,19,Woman,Right,
14,1,1,1.3011380000007193,['c'],1,left,none,-99,-99,0.5,-99,0,none,15,19,Woman,Right,
15,1,1,1.1507948999988002,['n'],1,right,none,-99,-99,0.5,-99,0,none,15,19,Woman,Right,
16,1,1,1.400405899999896,['n'],1,right,none,-99,-99,0.5,-99,0,none,15,19,Woman,Right,
17,1,1,1.433739300000525,['n'],1,right,none,-99,-99,0.5,-99,0,none,15,19,Woman,Right,
18,1,1,1.1334404999997787,['n'],1,right,none,-99,-99,0.5,-99,0,none,15,19,Woman,Right,
19,1,1,1.0172348000014608,['c'],1,left,none,-99,-99,0.5,-99,0,none,15,19,Woman,Right,
20,1,1,1.083767899999657,['n'],1,right,none,-99,-99,0.5,-99,0,none,15,19,Woman,Right,
21,1,1,1.083057399999234,['c'],1,left,none,-99,-99,0.5,-99,0,none,15,19,Woman,Right,
22,1,1,1.0012392000007821,['n'],1,right,none,-99,-99,0.5,-99,0,none,15,19,Woman,Right,
23,1,1,1.2835982000015065,['c'],1,left,none,-99,-99,0.5,-99,0,none,15,19,Woman,Right,
0,2,1,3.267961199999263,['c'],1,left,none,-99,-99,0.1,-99,0,none,15,19,Woman,Right,
1,2,1,2.0009692999992694,['n'],0,left,none,-99,-99,0.2,-99,0,none,15,19,Woman,Right,
2,2,1,0.9514326999997138,['c'],1,left,none,-99,-99,0.4,-99,0,none,15,19,Woman,Right,
3,2,1,2.483852699999261,['c'],1,left,none,-99,-99,0.2,-99,0,none,15,19,Woman,Right,
4,2,1,2.1512060000004567,['n'],0,left,none,-99,-99,0.2,-99,0,none,15,19,Woman,Right,
5,2,1,2.6176942000001873,['c'],1,left,none,-99,-99,0.4,-99,0,none,15,19,Woman,Right,
6,2,1,2.1003638000001956,['n'],1,right,none,-99,-99,0.2,-99,0,none,15,19,Woman,Right,
7,2,1,1.0994126000005053,['c'],1,left,none,-99,-99,0.4,-99,0,none,15,19,Woman,Right,
8,2,1,1.2168003000006138,['n'],1,right,none,-99,-99,0.2,-99,0,none,15,19,Woman,Right,
9,2,1,1.0998247999996238,['n'],1,right,none,-99,-99,0.4,-99,0,none,15,19,Woman,Right,
10,2,1,1.434282300000632,['c'],1,left,none,-99,-99,0.4,-99,0,none,15,19,Woman,Right,
11,2,1,0.9509356999988086,['n'],1,right,none,-99,-99,0.1,-99,0,none,15,19,Woman,Right,
12,2,1,2.0832762000009097,['c'],1,left,none,-99,-99,0.2,-99,0,none,15,19,Woman,Right,
13,2,1,0.8166572999998607,['n'],1,right,none,-99,-99,0.2,-99,0,none,15,19,Woman,Right,
14,2,1,1.250723499999367,['n'],1,right,none,-99,-99,0.4,-99,0,none,15,19,Woman,Right,
15,2,1,1.4841546999996353,['c'],1,left,none,-99,-99,0.1,-99,0,none,15,19,Woman,Right,
16,2,1,1.5176787999989756,['c'],1,left,none,-99,-99,0.1,-99,0,none,15,19,Woman,Right,
17,2,1,0.8664336999991065,['n'],1,right,none,-99,-99,0.4,-99,0,none,15,19,Woman,Right,
18,2,1,1.0844588999989355,['n'],1,right,none,-99,-99,0.4,-99,0,none,15,19,Woman,Right,
19,2,1,3.2169494000008854,['n'],0,left,none,-99,-99,0.2,-99,0,none,15,19,Woman,Right,
20,2,1,1.800783099999535,['c'],0,right,none,-99,-99,0.1,-99,0,none,15,19,Woman,Right,
21,2,1,4.882869199998822,['c'],0,right,none,-99,-99,0.1,-99,0,none,15,19,Woman,Right,
22,2,1,4.23401609999928,['c'],0,right,none,-99,-99,0.1,-99,0,none,15,19,Woman,Right,
23,2,1,3.4827750000004016,['c'],0,right,none,-99,-99,0.1,-99,0,none,15,19,Woman,Right,
0,3,1,1.318042400000195,['n'],1,right,['u'],1,1.1919717000000674,0.4,1,0,none,15,19,Woman,Right,
1,3,1,1.3180917000008776,['c'],1,left,['u'],1,2.154532599999584,0.2,1,0,none,15,19,Woman,Right,
2,3,1,1.5175553000008222,['n'],1,right,['u'],1,1.1343734999991284,0.4,1,0,none,15,19,Woman,Right,
3,3,1,2.0010011000013037,['n'],1,right,['u'],1,1.7996879999991506,0.1,1,0,none,15,19,Woman,Right,
4,3,1,1.5662821999994776,['c'],0,right,['e'],0,1.4808130000001256,0.2,1,0,none,15,19,Woman,Right,
5,3,1,2.051077100000839,['n'],1,right,['e'],0,1.2007434999995894,0.1,0,0,none,15,19,Woman,Right,
6,3,1,1.8001124000002164,['c'],0,right,['e'],0,1.1992111999988992,0.4,1,0,none,15,19,Woman,Right,
7,3,1,5.0167715000006865,x,-99,left,none,-99,-99,0.1,-99,1,none,15,19,Woman,Right,
8,3,1,1.6506473000008555,['c'],0,right,['e'],0,0.7058084000000235,0.2,1,0,none,15,19,Woman,Right,
9,3,1,1.401613100000759,['c'],1,left,['e'],0,0.5162185999997746,0.2,0,0,none,15,19,Woman,Right,
10,3,1,2.0508812999996735,['c'],1,left,['u'],1,0.4199611999993067,0.4,1,0,none,15,19,Woman,Right,
11,3,1,1.466666800000894,['n'],1,right,['e'],0,0.3508624999994936,0.1,0,0,none,15,19,Woman,Right,
12,3,1,1.6841168999999354,['n'],1,right,['u'],1,0.5642072999999073,0.4,1,0,none,15,19,Woman,Right,
13,3,1,2.282453899999382,['c'],1,left,['e'],0,1.1134376999998494,0.1,0,0,none,15,19,Woman,Right,
14,3,1,2.633529599999747,['n'],0,left,['e'],0,0.3931154999991122,0.2,1,0,none,15,19,Woman,Right,
15,3,1,1.58427809999921,['n'],1,right,['e'],0,0.608670900001016,0.1,0,0,none,15,19,Woman,Right,
16,3,1,3.5836366999992606,['n'],0,left,['u'],1,0.832140000000436,0.2,0,0,none,15,19,Woman,Right,
17,3,1,1.9010001000006014,['c'],1,left,['u'],1,0.809243300000162,0.4,1,0,none,15,19,Woman,Right,
18,3,1,1.517314599999736,['n'],1,right,['e'],0,0.339574999999968,0.2,0,0,none,15,19,Woman,Right,
19,3,1,1.85025609999866,['c'],1,left,['e'],0,0.7059027000013884,0.1,0,0,none,15,19,Woman,Right,
20,3,1,2.4511984000000666,['c'],1,left,['u'],1,0.7463937000011356,0.4,1,0,none,15,19,Woman,Right,
21,3,1,1.7674104000016087,['n'],1,right,['u'],1,0.8601618000011513,0.2,1,0,none,15,19,Woman,Right,
22,3,1,1.3168530999992072,['c'],1,left,['u'],1,0.3799856000005093,0.4,1,0,none,15,19,Woman,Right,
23,3,1,1.784756400000333,['n'],0,left,['e'],0,0.3953910000000178,0.1,1,0,none,15,19,Woman,Right,
0,4,1,0.9838709000014205,['c'],1,left,['e'],0,0.7788103000002593,0.1,0,0,FastAcc,15,19,Woman,Right,
1,4,1,1.8348050999993575,['c'],1,left,['e'],0,0.40484359999936714,0.1,0,0,FastAcc,15,19,Woman,Right,
2,4,1,1.1015174999993178,['c'],0,right,['e'],0,0.36322650000147405,0.2,1,0,FastAcc,15,19,Woman,Right,
3,4,1,1.2004680000009103,['n'],1,right,['u'],1,0.3828475999998773,0.4,1,0,FastAcc,15,19,Woman,Right,
4,4,1,0.9851663999997982,['c'],1,left,['e'],0,0.33054579999952693,0.2,0,0,FastAcc,15,19,Woman,Right,
5,4,1,1.217347300000256,['n'],1,right,['u'],1,0.23892760000126145,0.2,1,0,FastAcc,15,19,Woman,Right,
6,4,1,1.6839990999997099,['n'],1,right,['e'],0,0.19646020000072895,0.2,0,0,FastAcc,15,19,Woman,Right,
7,4,1,1.183820399999604,['c'],1,left,['e'],0,0.40039080000133254,0.4,0,0,FastAcc,15,19,Woman,Right,
8,4,1,0.901011699999799,['n'],1,right,['u'],1,0.26998620000085793,0.4,1,0,FastAcc,15,19,Woman,Right,
9,4,1,1.0179821999990963,['c'],0,right,['e'],0,0.3009282999992138,0.2,1,0,FastAcc,15,19,Woman,Right,
10,4,1,1.3171766000014031,['c'],1,left,['u'],1,0.22285459999875457,0.2,1,0,FastAcc,15,19,Woman,Right,
11,4,1,1.0663907999987714,['c'],0,right,['e'],0,0.38180089999877964,0.1,1,0,FastAcc,15,19,Woman,Right,
12,4,1,0.8510680999988836,['n'],1,right,['u'],1,0.302544799998941,0.4,1,0,FastAcc,15,19,Woman,Right,
13,4,1,1.2505780000010418,['n'],1,right,['e'],0,0.22683090000100492,0.4,0,0,FastAcc,15,19,Woman,Right,
14,4,1,1.5172468000000663,['c'],0,right,['u'],1,0.2239129999998113,0.2,0,0,FastAcc,15,19,Woman,Right,
15,4,1,1.2681867000010243,['c'],1,left,['e'],0,0.3109867999992275,0.4,0,0,FastAcc,15,19,Woman,Right,
16,4,1,0.8011466999996628,['n'],0,left,['e'],0,0.28525749999971595,0.1,1,0,FastAcc,15,19,Woman,Right,
17,4,1,0.7847639999999956,['n'],1,right,['e'],0,0.2929063999999926,0.4,0,0,FastAcc,15,19,Woman,Right,
18,4,1,1.0683778000002349,['n'],1,right,['u'],1,0.22535229999994044,0.4,1,0,FastAcc,15,19,Woman,Right,
19,4,1,1.0670164999992267,['c'],1,left,['u'],1,0.40038060000006226,0.4,1,0,FastAcc,15,19,Woman,Right,
20,4,1,1.0677433000000747,['n'],1,right,['e'],0,0.21599679999962973,0.2,0,0,FastAcc,15,19,Woman,Right,
21,4,1,1.035273399998914,['n'],1,right,['e'],0,0.2162748000009742,0.4,0,0,FastAcc,15,19,Woman,Right,
22,4,1,1.1012610999987373,['c'],1,left,['e'],0,0.3107452000003832,0.1,0,0,FastAcc,15,19,Woman,Right,
23,4,1,1.1846918999999616,['c'],1,left,['e'],0,0.28566520000094897,0.1,0,0,FastAcc,15,19,Woman,Right,
24,4,1,0.6677611000013712,['n'],1,right,['e'],0,0.2813026000003447,0.2,0,0,FastAcc,15,19,Woman,Right,
25,4,1,1.7513158999990992,['n'],1,right,['u'],1,0.3467166999998881,0.1,1,0,FastAcc,15,19,Woman,Right,
26,4,1,1.0010538999995333,['c'],1,left,['u'],1,0.18310250000104134,0.1,1,0,FastAcc,15,19,Woman,Right,
27,4,1,0.984046200001103,['n'],1,right,['e'],0,0.2022610000003624,0.1,0,0,FastAcc,15,19,Woman,Right,
28,4,1,0.9677064000006794,['n'],0,left,['e'],0,0.2861212000007072,0.2,1,0,FastAcc,15,19,Woman,Right,
29,4,1,1.3010403999996925,['c'],1,left,['u'],1,0.3371446000001015,0.1,1,0,FastAcc,15,19,Woman,Right,
30,4,1,0.8835109999999986,['c'],1,left,['e'],0,0.6427305000015622,0.2,0,0,FastAcc,15,19,Woman,Right,
31,4,1,1.7839514999996027,['n'],1,right,['u'],1,0.2772951999995712,0.1,1,0,FastAcc,15,19,Woman,Right,
32,4,1,1.6346391000006406,['n'],1,right,['e'],0,0.25095040000087465,0.4,0,0,FastAcc,15,19,Woman,Right,
33,4,1,1.1003567000007024,['n'],1,right,['e'],0,0.2473534999990079,0.4,0,0,FastAcc,15,19,Woman,Right,
34,4,1,1.4007282000002306,['n'],0,left,['e'],0,0.3437701000002562,0.2,1,0,FastAcc,15,19,Woman,Right,
35,4,1,1.1502577000010206,['c'],1,left,['e'],0,0.30269940000107454,0.4,0,0,FastAcc,15,19,Woman,Right,
36,4,1,1.4679179000013391,['c'],1,left,['e'],0,0.34657849999894097,0.1,0,0,FastAcc,15,19,Woman,Right,
37,4,1,1.1006282999987889,['c'],1,left,['e'],0,0.5148486000016419,0.2,0,0,FastAcc,15,19,Woman,Right,
38,4,1,0.9677584999990358,['n'],1,right,['u'],1,0.31378940000104194,0.1,1,0,FastAcc,15,19,Woman,Right,
39,4,1,1.2843718000003719,['n'],1,right,['u'],1,0.2842089000005217,0.4,1,0,FastAcc,15,19,Woman,Right,
40,4,1,1.0510310000008758,['c'],1,left,['u'],1,0.34524079999937385,0.1,1,0,FastAcc,15,19,Woman,Right,
41,4,1,1.201190100000531,['c'],1,left,['u'],1,0.33356259999891336,0.4,1,0,FastAcc,15,19,Woman,Right,
42,4,1,1.183834299999944,['n'],1,right,['e'],0,0.26030360000004293,0.2,0,0,FastAcc,15,19,Woman,Right,
43,4,1,1.3510459999997693,['n'],0,left,['u'],1,0.30969849999928556,0.2,0,0,FastAcc,15,19,Woman,Right,
44,4,1,1.2513701000007131,['c'],1,left,['e'],0,0.47410560000025725,0.1,0,0,FastAcc,15,19,Woman,Right,
45,4,1,1.4507094000000507,['c'],1,left,['e'],0,0.22369150000122318,0.1,0,0,FastAcc,15,19,Woman,Right,
46,4,1,1.0003995999995823,['n'],1,right,['e'],0,0.3220481000007567,0.2,0,0,FastAcc,15,19,Woman,Right,
47,4,1,1.184456400000272,['n'],1,right,['e'],0,0.2956575000007433,0.4,0,0,FastAcc,15,19,Woman,Right,
48,4,1,0.9342953999985184,['c'],1,left,['e'],0,0.2645609000010154,0.1,0,0,FastAcc,15,19,Woman,Right,
49,4,1,0.9994593999999779,['c'],1,left,['e'],0,0.26574909999908414,0.2,0,0,FastAcc,15,19,Woman,Right,
50,4,1,1.3679186000008485,['c'],1,left,['e'],0,0.2974069000010786,0.4,0,0,FastAcc,15,19,Woman,Right,
51,4,1,0.8169689000005746,['c'],0,right,['e'],0,0.19108609999966575,0.1,1,0,FastAcc,15,19,Woman,Right,
52,4,1,0.6002941000006103,['n'],0,left,['u'],1,0.226021699998455,0.4,0,0,FastAcc,15,19,Woman,Right,
53,4,1,1.234639000000243,['n'],0,left,['e'],0,0.2663880000000063,0.4,1,0,FastAcc,15,19,Woman,Right,
54,4,1,1.1514568999991752,['n'],1,right,['e'],0,0.26017049999973096,0.2,0,0,FastAcc,15,19,Woman,Right,
55,4,1,0.6013293999985763,['c'],0,right,['e'],0,0.24432279999928141,0.4,1,0,FastAcc,15,19,Woman,Right,
56,4,1,0.9688224000001355,['c'],1,left,['e'],0,0.21456380000017816,0.2,0,0,FastAcc,15,19,Woman,Right,
57,4,1,1.3514574999990145,['c'],0,right,['e'],0,0.34641150000061316,0.1,1,0,FastAcc,15,19,Woman,Right,
58,4,1,1.0011718999994628,['n'],0,left,['e'],0,0.21466090000103577,0.2,1,0,FastAcc,15,19,Woman,Right,
59,4,1,1.1674421999996412,['c'],0,right,['e'],0,0.17783539999982168,0.1,1,0,FastAcc,15,19,Woman,Right,
0,5,1,0.900256699998863,['c'],0,right,['e'],0,0.25501119999898947,0.1,1,0,FastFast,15,19,Woman,Right,
1,5,1,0.6177831000004517,['c'],1,left,['e'],0,0.3828033999998297,0.2,0,0,FastFast,15,19,Woman,Right,
2,5,1,0.6175827000006393,['n'],0,left,['e'],0,0.2969825000000128,0.4,1,0,FastFast,15,19,Woman,Right,
3,5,1,0.5669526999990921,['c'],0,right,['e'],0,0.2964782999988529,0.2,1,0,FastFast,15,19,Woman,Right,
4,5,1,0.800887800000055,['c'],1,left,['e'],0,0.27067600000009406,0.1,0,0,FastFast,15,19,Woman,Right,
5,5,1,1.2345056000012846,['n'],1,right,['e'],0,0.1971192000000883,0.2,0,0,FastFast,15,19,Woman,Right,
6,5,1,1.16755589999957,['n'],1,right,['e'],0,0.19275930000003427,0.4,0,0,FastFast,15,19,Woman,Right,
7,5,1,1.3346204000008584,['n'],1,right,['u'],1,0.2943672000001243,0.4,1,0,FastFast,15,19,Woman,Right,
8,5,1,1.1502450999996654,['n'],1,right,['e'],0,0.20766009999897506,0.4,0,0,FastFast,15,19,Woman,Right,
9,5,1,0.8506575000010344,['c'],1,left,['u'],1,0.2159109999993234,0.1,1,0,FastFast,15,19,Woman,Right,
10,5,1,1.3510120999999344,['c'],1,left,['e'],0,0.26757520000137447,0.2,0,0,FastFast,15,19,Woman,Right,
11,5,1,1.1010987999998179,['c'],0,right,['u'],1,2.855175799999415,0.2,0,0,FastFast,15,19,Woman,Right,
12,5,1,1.5012043999995512,['c'],0,right,['e'],0,0.23599840000133554,0.1,1,0,FastFast,15,19,Woman,Right,
13,5,1,0.9497671000008268,['n'],1,right,['u'],1,0.20680870000069262,0.1,1,0,FastFast,15,19,Woman,Right,
14,5,1,1.0843223000010767,['c'],1,left,['e'],0,0.3178564000008919,0.2,0,0,FastFast,15,19,Woman,Right,
15,5,1,0.8340613999989728,['c'],1,left,['e'],0,0.2747944999991887,0.2,0,0,FastFast,15,19,Woman,Right,
16,5,1,0.9011915999999474,['c'],1,left,['e'],0,0.24582469999950263,0.4,0,0,FastFast,15,19,Woman,Right,
17,5,1,1.2003318999995827,['c'],0,right,['e'],0,0.15811069999836036,0.1,1,0,FastFast,15,19,Woman,Right,
18,5,1,1.0329488000006677,['n'],0,left,['e'],0,0.25726289999875007,0.2,1,0,FastFast,15,19,Woman,Right,
19,5,1,1.1507050000000163,['c'],1,left,['u'],1,0.3155568000001949,0.4,1,0,FastFast,15,19,Woman,Right,
20,5,1,1.100299099998665,['c'],1,left,['u'],1,0.2772691999998642,0.1,1,0,FastFast,15,19,Woman,Right,
21,5,1,0.9671140000009473,['c'],0,right,['e'],0,0.2141702000008081,0.4,1,0,FastFast,15,19,Woman,Right,
22,5,1,0.8340043999996851,['n'],0,left,['e'],0,0.27059299999928044,0.1,1,0,FastFast,15,19,Woman,Right,
23,5,1,0.8512422000003426,['n'],1,right,['u'],1,0.4841161000003922,0.4,1,0,FastFast,15,19,Woman,Right,
24,5,1,1.0177746999997908,['c'],1,left,['e'],0,0.314383100001578,0.1,0,0,FastFast,15,19,Woman,Right,
25,5,1,1.1341023999993922,['c'],1,left,['e'],0,0.1626754000008077,0.2,0,0,FastFast,15,19,Woman,Right,
26,5,1,1.6679141000004165,['n'],1,right,['e'],0,0.2038711000004696,0.1,0,0,FastFast,15,19,Woman,Right,
27,5,1,1.1174771000005421,['n'],0,left,['u'],1,0.23372440000093775,0.1,0,0,FastFast,15,19,Woman,Right,
28,5,1,0.832739200001015,['c'],0,right,['e'],0,0.2898435999995854,0.1,1,0,FastFast,15,19,Woman,Right,
29,5,1,0.8177476000000752,['n'],1,right,['u'],1,0.215609000000768,0.4,1,0,FastFast,15,19,Woman,Right,
30,5,1,1.0678009999992355,['c'],1,left,['u'],1,0.29451630000039586,0.4,1,0,FastFast,15,19,Woman,Right,
31,5,1,1.4015034999993077,['c'],0,right,['e'],0,0.22978219999822613,0.1,1,0,FastFast,15,19,Woman,Right,
32,5,1,1.2177855999998428,['n'],1,right,['u'],1,0.22182270000121207,0.1,1,0,FastFast,15,19,Woman,Right,
33,5,1,0.9510341000004701,['c'],0,right,['e'],0,0.46558139999979176,0.2,1,0,FastFast,15,19,Woman,Right,
34,5,1,0.9680696000013995,['n'],1,right,['e'],0,0.2347580999994534,0.4,0,0,FastFast,15,19,Woman,Right,
35,5,1,1.3336893000014243,['c'],1,left,['u'],1,0.30219450000004144,0.1,1,0,FastFast,15,19,Woman,Right,
36,5,1,1.2177711999993335,['c'],1,left,['e'],0,0.4839734999986831,0.2,0,0,FastFast,15,19,Woman,Right,
37,5,1,0.9849747999996907,['n'],1,right,['u'],1,0.26839990000007674,0.4,1,0,FastFast,15,19,Woman,Right,
38,5,1,1.3499666000006982,['n'],1,right,['e'],0,0.27005999999892083,0.2,0,0,FastFast,15,19,Woman,Right,
39,5,1,1.617349899999681,['c'],1,left,['e'],0,0.2926127999999153,0.1,0,0,FastFast,15,19,Woman,Right,
40,5,1,1.0682056000005105,['c'],1,left,['e'],0,0.2568610999987868,0.4,0,0,FastFast,15,19,Woman,Right,
41,5,1,0.967905299999984,['c'],0,right,['e'],0,0.21045580000100017,0.2,1,0,FastFast,15,19,Woman,Right,
42,5,1,1.2012246000012965,['c'],1,left,['u'],1,0.3488419999994221,0.4,1,0,FastFast,15,19,Woman,Right,
43,5,1,1.050901000000522,['n'],1,right,['u'],1,0.16717099999914353,0.2,1,0,FastFast,15,19,Woman,Right,
44,5,1,1.0343001000001095,['c'],0,right,['e'],0,0.26546009999947273,0.2,1,0,FastFast,15,19,Woman,Right,
45,5,1,1.1177279000003182,['c'],1,left,['e'],0,0.2765089000004082,0.4,0,0,FastFast,15,19,Woman,Right,
46,5,1,0.8175062000009348,['n'],1,right,['e'],0,0.44359850000000733,0.2,0,0,FastFast,15,19,Woman,Right,
47,5,1,1.2159198000008473,['c'],1,left,['u'],1,0.2523818999998184,0.2,1,0,FastFast,15,19,Woman,Right,
48,5,1,0.9337001000003511,['c'],1,left,['u'],1,0.22338370000034047,0.4,1,0,FastFast,15,19,Woman,Right,
49,5,1,0.9672812999997404,['c'],1,left,['u'],1,0.2417470999989746,0.4,1,0,FastFast,15,19,Woman,Right,
50,5,1,1.2842583000001468,['c'],1,left,['e'],0,0.3435927000009542,0.1,0,0,FastFast,15,19,Woman,Right,
51,5,1,1.0345988999997644,['n'],1,right,['u'],1,0.2600844999997207,0.2,1,0,FastFast,15,19,Woman,Right,
52,5,1,1.6510888000011619,['c'],1,left,['e'],0,0.217501799999809,0.1,0,0,FastFast,15,19,Woman,Right,
53,5,1,0.8831165999999939,['n'],1,right,['u'],1,0.25656960000014806,0.2,1,0,FastFast,15,19,Woman,Right,
54,5,1,0.9012481999998272,['c'],0,right,['u'],1,0.16424340000048687,0.4,0,0,FastFast,15,19,Woman,Right,
55,5,1,0.7342769000006228,['n'],1,right,['e'],0,0.27451490000021295,0.4,0,0,FastFast,15,19,Woman,Right,
56,5,1,1.300544899999295,['c'],0,right,['e'],0,0.1981249000000389,0.1,1,0,FastFast,15,19,Woman,Right,
57,5,1,0.4822616999990714,['n'],0,left,['e'],0,0.23760629999924276,0.1,1,0,FastFast,15,19,Woman,Right,
58,5,1,1.0345314999995026,['c'],1,left,['u'],1,0.2049321999984386,0.2,1,0,FastFast,15,19,Woman,Right,
59,5,1,0.9183723999994982,['c'],1,left,['u'],1,0.1944285999998101,0.4,1,0,FastFast,15,19,Woman,Right,
0,6,1,3.483371599999373,['n'],1,right,['e'],0,0.5356530999997631,0.2,0,0,AccFast,15,19,Woman,Right,
1,6,1,1.866383800001131,['n'],1,right,['u'],1,0.3954964000004111,0.2,1,0,AccFast,15,19,Woman,Right,
2,6,1,0.9840580000000045,['n'],1,right,['u'],1,0.5661061000009795,0.4,1,0,AccFast,15,19,Woman,Right,
3,6,1,1.5002764000000752,['c'],1,left,['e'],0,0.4701714000002539,0.4,0,0,AccFast,15,19,Woman,Right,
4,6,1,1.617847099998471,['c'],1,left,['u'],1,0.3884241999985534,0.2,1,0,AccFast,15,19,Woman,Right,
5,6,1,2.4846152999998594,['n'],1,right,['u'],1,0.5643070999994961,0.2,1,0,AccFast,15,19,Woman,Right,
6,6,1,2.884567799999786,['c'],1,left,['u'],1,0.732982899999115,0.1,1,0,AccFast,15,19,Woman,Right,
7,6,1,1.867621000001236,['c'],1,left,['e'],0,0.47091829999953916,0.4,0,0,AccFast,15,19,Woman,Right,
8,6,1,2.717753499999162,['c'],1,left,['e'],0,0.4588337000004685,0.1,0,0,AccFast,15,19,Woman,Right,
9,6,1,4.334143399999448,['n'],1,right,['u'],1,0.5579877000000124,0.2,1,0,AccFast,15,19,Woman,Right,
10,6,1,2.4179488999998284,['n'],1,right,['u'],1,0.4417448999993212,0.4,1,0,AccFast,15,19,Woman,Right,
11,6,1,1.5492814000008366,['c'],0,right,['e'],0,0.49422430000049644,0.1,1,0,AccFast,15,19,Woman,Right,
12,6,1,3.951915999999983,['n'],1,right,['e'],0,0.670274199999767,0.1,0,0,AccFast,15,19,Woman,Right,
13,6,1,1.5504110999991099,['c'],0,right,['e'],0,0.39219150000099035,0.1,1,0,AccFast,15,19,Woman,Right,
14,6,1,3.1337514000006195,['n'],0,left,['e'],0,0.6700383000006696,0.1,1,0,AccFast,15,19,Woman,Right,
15,6,1,3.8007226000008814,['n'],1,right,['u'],1,0.28594909999992524,0.1,1,0,AccFast,15,19,Woman,Right,
16,6,1,4.967516599999726,['c'],1,left,['e'],0,0.8789497000016127,0.2,0,0,AccFast,15,19,Woman,Right,
17,6,1,1.5844602000015584,['n'],1,right,['u'],1,0.23859939999965718,0.4,1,0,AccFast,15,19,Woman,Right,
18,6,1,4.050744600001053,['n'],1,right,['u'],1,0.16674679999960063,0.1,1,0,AccFast,15,19,Woman,Right,
19,6,1,1.767932300001121,['n'],1,right,['u'],1,0.41100900000128604,0.4,1,0,AccFast,15,19,Woman,Right,
20,6,1,2.6180846999995993,['n'],1,right,['u'],1,0.2929736000005505,0.4,1,0,AccFast,15,19,Woman,Right,
21,6,1,1.4006934000008187,['c'],1,left,['u'],1,0.46801919999961683,0.1,1,0,AccFast,15,19,Woman,Right,
22,6,1,1.4345622999990155,['c'],1,left,['u'],1,0.2984682000005705,0.4,1,0,AccFast,15,19,Woman,Right,
23,6,1,3.4674152999996295,['c'],1,left,['e'],0,0.3903886000007333,0.2,0,0,AccFast,15,19,Woman,Right,
24,6,1,2.600997699999425,['c'],1,left,['u'],1,0.2095408999994106,0.4,1,0,AccFast,15,19,Woman,Right,
25,6,1,5.016171600000234,x,-99,left,none,-99,-99,0.1,-99,1,AccFast,15,19,Woman,Right,
26,6,1,0.9846952999996574,['c'],0,right,['e'],0,0.9271158999999898,0.1,1,0,AccFast,15,19,Woman,Right,
27,6,1,1.8346577000011166,['c'],1,left,['e'],0,0.2436018000007607,0.1,0,0,AccFast,15,19,Woman,Right,
28,6,1,1.1516322000006767,['n'],1,right,['e'],0,0.3022806999997556,0.2,0,0,AccFast,15,19,Woman,Right,
29,6,1,2.067170399999668,['c'],1,left,['u'],1,0.3385238999999274,0.2,1,0,AccFast,15,19,Woman,Right,
30,6,1,2.3844379000001936,['c'],0,right,['e'],0,0.4080167000010988,0.1,1,0,AccFast,15,19,Woman,Right,
31,6,1,1.584315300000526,['c'],1,left,['e'],0,0.3153282000002946,0.2,0,0,AccFast,15,19,Woman,Right,
32,6,1,2.167793700000402,['n'],0,left,['e'],0,0.4256878999985929,0.2,1,0,AccFast,15,19,Woman,Right,
33,6,1,2.0018976999999722,['n'],0,left,['e'],0,0.2682623999990028,0.2,1,0,AccFast,15,19,Woman,Right,
34,6,1,1.4676226000010502,['c'],1,left,['e'],0,0.5851182999995217,0.2,0,0,AccFast,15,19,Woman,Right,
35,6,1,2.234141000000818,['n'],0,left,['e'],0,0.29891680000037013,0.1,1,0,AccFast,15,19,Woman,Right,
36,6,1,3.150926399999662,['c'],0,right,['e'],0,0.48354939999990165,0.2,1,0,AccFast,15,19,Woman,Right,
37,6,1,1.0663003000008757,['n'],1,right,['u'],1,0.40779440000005707,0.4,1,0,AccFast,15,19,Woman,Right,
38,6,1,1.3847359999999753,['c'],1,left,['e'],0,0.22697130000051402,0.2,0,0,AccFast,15,19,Woman,Right,
39,6,1,1.3834774999995716,['c'],1,left,['u'],1,0.2774557000011555,0.4,1,0,AccFast,15,19,Woman,Right,
40,6,1,1.9174134000004415,['n'],0,left,['u'],1,0.2884109000005992,0.1,0,0,AccFast,15,19,Woman,Right,
41,6,1,2.2328783000011754,['n'],1,right,['u'],1,0.3506811999995989,0.4,1,0,AccFast,15,19,Woman,Right,
42,6,1,1.151282300001185,['c'],0,right,['e'],0,0.2767511999991257,0.1,1,0,AccFast,15,19,Woman,Right,
43,6,1,1.2015753000014229,['n'],1,right,['u'],1,0.3641563999990467,0.4,1,0,AccFast,15,19,Woman,Right,
44,6,1,3.3344608999996126,['n'],0,left,['e'],0,0.5873287999984314,0.2,1,0,AccFast,15,19,Woman,Right,
45,6,1,1.850982699999804,['n'],1,right,['u'],1,0.3161432999986573,0.4,1,0,AccFast,15,19,Woman,Right,
46,6,1,1.2824908000002324,['c'],1,left,['u'],1,0.2711409999992611,0.4,1,0,AccFast,15,19,Woman,Right,
47,6,1,1.0836226000010356,['n'],1,right,['u'],1,0.267286399999648,0.4,1,0,AccFast,15,19,Woman,Right,
48,6,1,1.184403499999462,['n'],1,right,['u'],1,0.2910302000000229,0.4,1,0,AccFast,15,19,Woman,Right,
49,6,1,2.5182333000011567,['c'],0,right,['u'],1,0.42156100000102015,0.1,0,0,AccFast,15,19,Woman,Right,
50,6,1,1.0514564000004611,['n'],1,right,['u'],1,0.3013546000001952,0.2,1,0,AccFast,15,19,Woman,Right,
51,6,1,0.9670241000003443,['c'],1,left,['u'],1,0.2848240999992413,0.4,1,0,AccFast,15,19,Woman,Right,
52,6,1,1.234179300001415,['n'],1,right,['u'],1,0.3076095999986137,0.2,1,0,AccFast,15,19,Woman,Right,
53,6,1,2.368072100000063,['c'],1,left,['e'],0,0.28255170000011276,0.1,0,0,AccFast,15,19,Woman,Right,
54,6,1,1.183973799999876,['n'],0,left,['e'],0,0.22629090000009455,0.1,1,0,AccFast,15,19,Woman,Right,
55,6,1,1.1329958999995142,['n'],1,right,['u'],1,0.2711158999991312,0.4,1,0,AccFast,15,19,Woman,Right,
56,6,1,1.4501388000007864,['n'],1,right,['u'],1,0.2842596999998932,0.1,1,0,AccFast,15,19,Woman,Right,
57,6,1,1.9344407000007777,['c'],1,left,['u'],1,0.22995149999951536,0.2,1,0,AccFast,15,19,Woman,Right,
58,6,1,2.2345672999999806,['c'],1,left,['e'],0,0.26175510000030044,0.2,0,0,AccFast,15,19,Woman,Right,
59,6,1,1.9668148000000656,['n'],0,left,['u'],1,0.3508094999997411,0.4,0,0,AccFast,15,19,Woman,Right,
0,7,1,1.3344238999998197,['n'],1,right,['u'],1,0.8263124999994034,0.4,1,0,AccAcc,15,19,Woman,Right,
1,7,1,1.3010624999988067,['n'],1,right,['u'],1,1.368232499999067,0.4,1,0,AccAcc,15,19,Woman,Right,
2,7,1,1.567741400000159,['c'],1,left,['e'],0,1.253377700000783,0.1,0,0,AccAcc,15,19,Woman,Right,
3,7,1,2.2168707999990147,['n'],1,right,['u'],1,0.8772571000008611,0.1,1,0,AccAcc,15,19,Woman,Right,
4,7,1,1.8677447000009124,['c'],0,right,['e'],0,1.106537699999535,0.2,1,0,AccAcc,15,19,Woman,Right,
5,7,1,2.384756600000401,['n'],0,left,['e'],0,1.4976925999999366,0.2,1,0,AccAcc,15,19,Woman,Right,
6,7,1,3.6506661999992502,['c'],0,right,['e'],0,0.9905697000012879,0.2,1,0,AccAcc,15,19,Woman,Right,
7,7,1,1.850269099999423,['n'],1,right,['e'],0,1.0076448999989225,0.1,0,0,AccAcc,15,19,Woman,Right,
8,7,1,1.8846403999996255,['n'],0,left,['e'],0,0.7509611000004952,0.2,1,0,AccAcc,15,19,Woman,Right,
9,7,1,2.2014483000002656,['c'],1,left,['u'],1,0.6834426000004896,0.2,1,0,AccAcc,15,19,Woman,Right,
10,7,1,2.2012197000003653,['c'],0,right,['e'],0,1.0826295999995637,0.1,1,0,AccAcc,15,19,Woman,Right,
11,7,1,2.4503289999993285,['c'],1,left,['e'],0,0.6237522000010358,0.2,0,0,AccAcc,15,19,Woman,Right,
12,7,1,1.9829568000004656,['c'],0,right,['e'],0,0.3309902000000875,0.1,1,0,AccAcc,15,19,Woman,Right,
13,7,1,1.3010244000015518,['n'],1,right,['e'],0,0.3154021999998804,0.1,0,0,AccAcc,15,19,Woman,Right,
14,7,1,2.617595200001233,['c'],1,left,['e'],0,0.4566914999995788,0.2,0,0,AccAcc,15,19,Woman,Right,
15,7,1,1.6510576000000583,['c'],1,left,['e'],0,0.2950183000011748,0.2,0,0,AccAcc,15,19,Woman,Right,
16,7,1,1.6344497000009142,['c'],1,left,['u'],1,0.42876609999984794,0.4,1,0,AccAcc,15,19,Woman,Right,
17,7,1,2.0165867999985494,['c'],1,left,['u'],1,0.6215981000004831,0.2,1,0,AccAcc,15,19,Woman,Right,
18,7,1,1.4680759000002581,['c'],1,left,['u'],1,0.33222339999883843,0.4,1,0,AccAcc,15,19,Woman,Right,
19,7,1,1.9823606999998447,['n'],1,right,['e'],0,0.3873856000009255,0.1,0,0,AccAcc,15,19,Woman,Right,
20,7,1,2.80085230000077,['c'],0,right,['u'],1,0.197655300000406,0.4,0,0,AccAcc,15,19,Woman,Right,
21,7,1,1.883105799999612,['c'],1,left,['u'],1,0.3091163000008237,0.2,1,0,AccAcc,15,19,Woman,Right,
22,7,1,1.784131600001274,['n'],0,left,['e'],0,0.6118330999997852,0.4,1,0,AccAcc,15,19,Woman,Right,
23,7,1,2.4512708999991446,['n'],1,right,['e'],0,0.3321310999999696,0.2,0,0,AccAcc,15,19,Woman,Right,
24,7,1,2.050394199999573,['c'],0,right,['u'],1,0.38311179999982414,0.4,0,0,AccAcc,15,19,Woman,Right,
25,7,1,1.2846236000004865,['c'],1,left,['e'],0,0.2867260000002716,0.1,0,0,AccAcc,15,19,Woman,Right,
26,7,1,3.0997430000006716,['n'],1,right,['u'],1,0.2506374999993568,0.4,1,0,AccAcc,15,19,Woman,Right,
27,7,1,1.5011659000010695,['c'],1,left,['u'],1,0.19865410000056727,0.4,1,0,AccAcc,15,19,Woman,Right,
28,7,1,1.6504743000004964,['c'],1,left,['u'],1,0.28690950000054727,0.4,1,0,AccAcc,15,19,Woman,Right,
29,7,1,4.116968700000143,['n'],0,left,['e'],0,0.32155259999854024,0.1,1,0,AccAcc,15,19,Woman,Right,
30,7,1,1.9507620999993378,['c'],1,left,['e'],0,0.7460018999991007,0.1,0,0,AccAcc,15,19,Woman,Right,
31,7,1,1.8510175999999774,['n'],0,left,['e'],0,0.7238653999993403,0.1,1,0,AccAcc,15,19,Woman,Right,
32,7,1,5.015777000000526,x,-99,left,none,-99,-99,0.1,-99,1,AccAcc,15,19,Woman,Right,
33,7,1,0.867554200000086,['c'],0,right,['e'],0,0.44924340000034135,0.1,1,0,AccAcc,15,19,Woman,Right,
34,7,1,1.7341413000012835,['n'],1,right,['e'],0,0.3643699000003835,0.1,0,0,AccAcc,15,19,Woman,Right,
35,7,1,1.633581599999161,['n'],1,right,['e'],0,0.23880589999862423,0.2,0,0,AccAcc,15,19,Woman,Right,
36,7,1,1.667805099999896,['n'],0,left,['e'],0,1.02907469999991,0.1,1,0,AccAcc,15,19,Woman,Right,
37,7,1,2.3346542000017507,['c'],1,left,['e'],0,0.4656271999992896,0.2,0,0,AccAcc,15,19,Woman,Right,
38,7,1,1.6844483000004402,['n'],0,left,['e'],0,0.2697020999985398,0.2,1,0,AccAcc,15,19,Woman,Right,
39,7,1,1.6512967999988177,['c'],1,left,['e'],0,0.2750432000011642,0.2,0,0,AccAcc,15,19,Woman,Right,
40,7,1,0.9513867999994545,['n'],0,left,['e'],0,0.26073989999895275,0.4,1,0,AccAcc,15,19,Woman,Right,
41,7,1,0.918207300001086,['n'],1,right,['u'],1,0.2486456000006001,0.4,1,0,AccAcc,15,19,Woman,Right,
42,7,1,1.1509299000008468,['c'],1,left,['u'],1,0.3229446999994252,0.4,1,0,AccAcc,15,19,Woman,Right,
43,7,1,1.1686379999991914,['n'],1,right,['u'],1,1.001958699998795,0.2,1,0,AccAcc,15,19,Woman,Right,
44,7,1,1.4343920000010257,['c'],0,right,['e'],0,0.44306350000078965,0.2,1,0,AccAcc,15,19,Woman,Right,
45,7,1,1.4011976000001596,['c'],1,left,['e'],0,0.26008720000027097,0.2,0,0,AccAcc,15,19,Woman,Right,
46,7,1,0.8343039000010322,['n'],1,right,['u'],1,0.26705370000127004,0.4,1,0,AccAcc,15,19,Woman,Right,
47,7,1,0.9831675999994332,['n'],1,right,['u'],1,0.33213029999933497,0.2,1,0,AccAcc,15,19,Woman,Right,
48,7,1,1.1179525000006834,['n'],0,left,['u'],1,0.3236133999998856,0.1,0,0,AccAcc,15,19,Woman,Right,
49,7,1,1.3677410000000236,['n'],1,right,['u'],1,0.35534829999960493,0.4,1,0,AccAcc,15,19,Woman,Right,
50,7,1,0.8845185000009224,['n'],0,left,['u'],1,0.45189380000010715,0.4,0,0,AccAcc,15,19,Woman,Right,
51,7,1,1.5179724999998143,['n'],1,right,['u'],1,0.29619029999958,0.4,1,0,AccAcc,15,19,Woman,Right,
52,7,1,2.5831980999992084,['n'],0,left,['e'],0,0.35907719999886467,0.1,1,0,AccAcc,15,19,Woman,Right,
53,7,1,1.4999674999999115,['n'],1,right,['e'],0,0.3356813999998849,0.1,0,0,AccAcc,15,19,Woman,Right,
54,7,1,1.2346479999996518,['n'],1,right,['e'],0,0.37071410000135074,0.1,0,0,AccAcc,15,19,Woman,Right,
55,7,1,1.2013771000001725,['n'],1,right,['u'],1,0.4235128000000259,0.2,1,0,AccAcc,15,19,Woman,Right,
56,7,1,0.9163867000006576,['n'],1,right,['u'],1,0.32379629999923054,0.4,1,0,AccAcc,15,19,Woman,Right,
57,7,1,2.4007036999992124,['n'],1,right,['e'],0,0.3133046999992075,0.1,0,0,AccAcc,15,19,Woman,Right,
58,7,1,1.2345041999997193,['c'],1,left,['u'],1,0.20618820000163396,0.4,1,0,AccAcc,15,19,Woman,Right,
59,7,1,1.0665296999995917,['n'],1,right,['u'],1,0.3012808999992558,0.4,1,0,AccAcc,15,19,Woman,Right,
0,8,1,1.1343371000002662,['c'],1,left,['u'],1,1.5606845000002068,0.1,1,0,FastAcc,15,19,Woman,Right,
1,8,1,1.2172306000011304,['n'],1,right,['e'],0,0.5885405000008177,0.2,0,0,FastAcc,15,19,Woman,Right,
2,8,1,1.034441699999661,['c'],1,left,['u'],1,0.23821219999990717,0.1,1,0,FastAcc,15,19,Woman,Right,
3,8,1,1.2508233999997174,['n'],1,right,['u'],1,0.3096430000005057,0.4,1,0,FastAcc,15,19,Woman,Right,
4,8,1,1.451214799999434,['c'],1,left,['e'],0,0.5297699999991892,0.1,0,0,FastAcc,15,19,Woman,Right,
5,8,1,1.4497544000005291,['c'],0,right,['e'],0,0.5648100000016711,0.2,1,0,FastAcc,15,19,Woman,Right,
6,8,1,1.0677431000003708,['c'],1,left,['u'],1,0.30967380000038247,0.4,1,0,FastAcc,15,19,Woman,Right,
7,8,1,1.301294599999892,['c'],0,right,['e'],0,0.2962366000010661,0.1,1,0,FastAcc,15,19,Woman,Right,
8,8,1,1.2009826000012254,['n'],1,right,['e'],0,0.6224486999999499,0.2,0,0,FastAcc,15,19,Woman,Right,
9,8,1,1.4845315000002302,['c'],1,left,['e'],0,0.6048779000011564,0.2,0,0,FastAcc,15,19,Woman,Right,
10,8,1,1.3837987999995676,['n'],1,right,['u'],1,0.4159904000007373,0.4,1,0,FastAcc,15,19,Woman,Right,
11,8,1,1.2843601000004128,['n'],1,right,['u'],1,0.3346681000002718,0.1,1,0,FastAcc,15,19,Woman,Right,
12,8,1,0.8177169999999023,['c'],1,left,['u'],1,0.33867349999854923,0.4,1,0,FastAcc,15,19,Woman,Right,
13,8,1,0.9510565000000497,['n'],1,right,['u'],1,0.3217540999994526,0.2,1,0,FastAcc,15,19,Woman,Right,
14,8,1,1.2669150000001537,['c'],1,left,['u'],1,0.3249013999993622,0.4,1,0,FastAcc,15,19,Woman,Right,
15,8,1,1.5170486999995774,['n'],1,right,['e'],0,0.31834970000090834,0.2,0,0,FastAcc,15,19,Woman,Right,
16,8,1,2.6008584999999584,['c'],1,left,['u'],1,0.3796708999998373,0.1,1,0,FastAcc,15,19,Woman,Right,
17,8,1,1.0511172999995324,['c'],1,left,['e'],0,0.26068990000021586,0.1,0,0,FastAcc,15,19,Woman,Right,
18,8,1,0.8833746999989671,['n'],1,right,['e'],0,0.31427570000050764,0.2,0,0,FastAcc,15,19,Woman,Right,
19,8,1,1.450170000000071,['n'],1,right,['e'],0,0.6463446999987355,0.4,0,0,FastAcc,15,19,Woman,Right,
20,8,1,1.1659206000003906,['c'],0,right,['e'],0,0.2876051000002917,0.1,1,0,FastAcc,15,19,Woman,Right,
21,8,1,1.5343083000007027,['c'],1,left,['e'],0,0.3927273999997851,0.1,0,0,FastAcc,15,19,Woman,Right,
22,8,1,0.9677374999992026,['n'],1,right,['u'],1,0.42125339999984135,0.4,1,0,FastAcc,15,19,Woman,Right,
23,8,1,1.0334726000000956,['n'],1,right,['u'],1,0.3655129999988276,0.4,1,0,FastAcc,15,19,Woman,Right,
24,8,1,1.2012759999997797,['c'],1,left,['u'],1,0.20912380000117992,0.2,1,0,FastAcc,15,19,Woman,Right,
25,8,1,1.2005055999998149,['c'],1,left,['u'],1,0.2036887000012939,0.4,1,0,FastAcc,15,19,Woman,Right,
26,8,1,1.58470540000053,['c'],0,right,['e'],0,0.2625929999994696,0.1,1,0,FastAcc,15,19,Woman,Right,
27,8,1,1.03455010000107,['c'],1,left,['u'],1,0.29281319999972766,0.4,1,0,FastAcc,15,19,Woman,Right,
28,8,1,1.3177639999994426,['c'],1,left,['u'],1,0.2792356000009022,0.2,1,0,FastAcc,15,19,Woman,Right,
29,8,1,2.2175377999992634,['n'],1,right,['e'],0,0.38969360000010056,0.2,0,0,FastAcc,15,19,Woman,Right,
30,8,1,0.9181446000002325,['n'],1,right,['u'],1,0.24408500000026834,0.4,1,0,FastAcc,15,19,Woman,Right,
31,8,1,1.034494800000175,['c'],0,right,['e'],0,0.45253369999954884,0.1,1,0,FastAcc,15,19,Woman,Right,
32,8,1,1.0498551000000589,['n'],0,left,['e'],0,0.3308478999988438,0.1,1,0,FastAcc,15,19,Woman,Right,
33,8,1,1.1011988000009296,['c'],0,right,['e'],0,0.8673805999987962,0.2,1,0,FastAcc,15,19,Woman,Right,
34,8,1,1.7843560000001162,['n'],0,left,['e'],0,0.2997935999992478,0.1,1,0,FastAcc,15,19,Woman,Right,
35,8,1,2.417086299999937,['n'],1,right,['e'],0,0.30544970000119065,0.2,0,0,FastAcc,15,19,Woman,Right,
36,8,1,1.0345022000001336,['c'],1,left,['u'],1,0.2703961999995954,0.4,1,0,FastAcc,15,19,Woman,Right,
37,8,1,1.6344110000009096,['c'],1,left,['e'],0,0.3581819999999425,0.1,0,0,FastAcc,15,19,Woman,Right,
38,8,1,1.3014232000004995,['c'],1,left,['e'],0,0.2933984999999666,0.4,0,0,FastAcc,15,19,Woman,Right,
39,8,1,1.16752169999927,['c'],1,left,['e'],0,0.3177279000010458,0.4,0,0,FastAcc,15,19,Woman,Right,
40,8,1,2.0675639000000956,['n'],1,right,['e'],0,0.40101660000073025,0.2,0,0,FastAcc,15,19,Woman,Right,
41,8,1,0.9173038000008091,['n'],1,right,['u'],1,0.4464165999997931,0.4,1,0,FastAcc,15,19,Woman,Right,
42,8,1,1.7844724000005954,['c'],1,left,['e'],0,0.23168909999913012,0.2,0,0,FastAcc,15,19,Woman,Right,
43,8,1,1.1158132000000478,['c'],1,left,['e'],0,0.30912630000057106,0.1,0,0,FastAcc,15,19,Woman,Right,
44,8,1,1.1834644999999,['n'],0,left,['e'],0,0.25113060000148835,0.4,1,0,FastAcc,15,19,Woman,Right,
45,8,1,1.3345362000000023,['n'],0,left,['e'],0,0.20605699999941862,0.1,1,0,FastAcc,15,19,Woman,Right,
46,8,1,1.4683862999991106,['n'],1,right,['u'],1,0.46154219999880297,0.1,1,0,FastAcc,15,19,Woman,Right,
47,8,1,1.1009782000000996,['c'],1,left,['u'],1,0.3059592999998131,0.4,1,0,FastAcc,15,19,Woman,Right,
48,8,1,1.0664147999996203,['c'],1,left,['u'],1,0.2698307999999088,0.2,1,0,FastAcc,15,19,Woman,Right,
49,8,1,1.1008492999990267,['n'],1,right,['u'],1,0.29725239999970654,0.2,1,0,FastAcc,15,19,Woman,Right,
50,8,1,1.1341100999998162,['c'],1,left,['u'],1,0.306429999998727,0.2,1,0,FastAcc,15,19,Woman,Right,
51,8,1,1.1500692000008712,['n'],1,right,['e'],0,0.18699890000061714,0.2,0,0,FastAcc,15,19,Woman,Right,
52,8,1,1.1014388000003237,['c'],1,left,['u'],1,0.3778296999989834,0.1,1,0,FastAcc,15,19,Woman,Right,
53,8,1,1.3848331999997754,['n'],1,right,['u'],1,0.5021348999998736,0.4,1,0,FastAcc,15,19,Woman,Right,
54,8,1,2.2011027000007743,['n'],1,right,['e'],0,0.28478219999851717,0.1,0,0,FastAcc,15,19,Woman,Right,
55,8,1,1.1012019999998302,['c'],1,left,['u'],1,0.2637873999992735,0.4,1,0,FastAcc,15,19,Woman,Right,
56,8,1,2.6010888000000705,['c'],1,left,['e'],0,0.5994608000000881,0.2,0,0,FastAcc,15,19,Woman,Right,
57,8,1,1.117739299999812,['n'],1,right,['u'],1,0.3730716999998549,0.4,1,0,FastAcc,15,19,Woman,Right,
58,8,1,1.5847534000004089,['c'],0,right,['e'],0,0.3294915000005858,0.1,1,0,FastAcc,15,19,Woman,Right,
59,8,1,1.2176584000008006,['n'],1,right,['e'],0,0.253977100001066,0.2,0,0,FastAcc,15,19,Woman,Right,
0,9,1,1.1180948999990505,['n'],1,right,['e'],0,0.25081829999908223,0.2,0,0,FastFast,15,19,Woman,Right,
1,9,1,1.0343619999985094,['c'],1,left,['e'],0,0.24966909999966447,0.1,0,0,FastFast,15,19,Woman,Right,
2,9,1,1.301039400001173,['c'],1,left,['e'],0,0.23803009999937785,0.2,0,0,FastFast,15,19,Woman,Right,
3,9,1,0.8353856000012456,['n'],1,right,['u'],1,0.21368400000028487,0.4,1,0,FastFast,15,19,Woman,Right,
4,9,1,1.0012024000006932,['n'],1,right,['u'],1,0.1992924000005587,0.2,1,0,FastFast,15,19,Woman,Right,
5,9,1,1.0681518000001233,['n'],1,right,['u'],1,0.2629108000000997,0.4,1,0,FastFast,15,19,Woman,Right,
6,9,1,1.267616299999645,['n'],1,right,['e'],0,0.23591469999882975,0.4,0,0,FastFast,15,19,Woman,Right,
7,9,1,1.0511564999997063,['c'],0,right,['e'],0,0.2348638999992545,0.1,1,0,FastFast,15,19,Woman,Right,
8,9,1,0.7179921999995713,['n'],1,right,['u'],1,0.2790850000001228,0.4,1,0,FastFast,15,19,Woman,Right,
9,9,1,0.9339718999999604,['n'],1,right,['u'],1,0.2810210999996343,0.4,1,0,FastFast,15,19,Woman,Right,
10,9,1,1.5836132999993424,['n'],1,right,['u'],1,0.3527055000013206,0.2,1,0,FastFast,15,19,Woman,Right,
11,9,1,1.2511969000006502,['n'],1,right,['u'],1,0.2429301000011037,0.4,1,0,FastFast,15,19,Woman,Right,
12,9,1,2.3671322999998665,['n'],0,left,['u'],1,0.5894842999987304,0.1,0,0,FastFast,15,19,Woman,Right,
13,9,1,3.0007743000005576,['c'],1,left,['e'],0,0.2727450000002136,0.2,0,0,FastFast,15,19,Woman,Right,
14,9,1,1.6512298000016017,['n'],0,left,['e'],0,0.7584604999992735,0.1,1,0,FastFast,15,19,Woman,Right,
15,9,1,1.1177617000012106,['n'],1,right,['e'],0,0.238387800000055,0.1,0,0,FastFast,15,19,Woman,Right,
16,9,1,1.1496107999992091,['n'],1,right,['u'],1,0.5858402000012575,0.2,1,0,FastFast,15,19,Woman,Right,
17,9,1,1.2345279000001028,['c'],1,left,['u'],1,0.22720250000020314,0.4,1,0,FastFast,15,19,Woman,Right,
18,9,1,2.518246999999974,['c'],1,left,['u'],1,0.24801540000044042,0.2,1,0,FastFast,15,19,Woman,Right,
19,9,1,1.00023709999914,['c'],0,right,['u'],1,0.21708749999925203,0.2,0,0,FastFast,15,19,Woman,Right,
20,9,1,1.7676286000005348,['c'],1,left,['u'],1,0.23590239999975893,0.2,1,0,FastFast,15,19,Woman,Right,
21,9,1,0.9845157999989169,['n'],1,right,['u'],1,0.4134905999999319,0.2,1,0,FastFast,15,19,Woman,Right,
22,9,1,1.017812199999753,['n'],1,right,['u'],1,0.29427840000062133,0.4,1,0,FastFast,15,19,Woman,Right,
23,9,1,1.8010752999998658,['n'],0,left,['u'],1,0.2773433999991539,0.1,0,0,FastFast,15,19,Woman,Right,
24,9,1,0.7170504999994591,['c'],1,left,['u'],1,0.20892120000098657,0.4,1,0,FastFast,15,19,Woman,Right,
25,9,1,1.0011145999997098,['n'],1,right,['u'],1,0.19455329999982496,0.1,1,0,FastFast,15,19,Woman,Right,
26,9,1,1.7843969000005018,['n'],1,right,['e'],0,0.2622393000001466,0.1,0,0,FastFast,15,19,Woman,Right,
27,9,1,1.9833367000010185,['c'],1,left,['e'],0,0.2706884999988688,0.1,0,0,FastFast,15,19,Woman,Right,
28,9,1,1.1336437999998452,['c'],1,left,['u'],1,0.2651037000014185,0.4,1,0,FastFast,15,19,Woman,Right,
29,9,1,1.484640999999101,['c'],1,left,['u'],1,0.21329460000015388,0.2,1,0,FastFast,15,19,Woman,Right,
30,9,1,1.751555400000143,['n'],1,right,['u'],1,0.45737279999957536,0.1,1,0,FastFast,15,19,Woman,Right,
31,9,1,1.9180699000007735,['n'],0,left,['e'],0,0.2371837000009691,0.2,1,0,FastFast,15,19,Woman,Right,
32,9,1,2.7835033999999723,['c'],1,left,['e'],0,0.31087619999925664,0.1,0,0,FastFast,15,19,Woman,Right,
33,9,1,0.9848767000003136,['c'],1,left,['e'],0,0.19780770000033954,0.1,0,0,FastFast,15,19,Woman,Right,
34,9,1,0.9015743999989354,['n'],1,right,['e'],0,0.2847471000004589,0.2,0,0,FastFast,15,19,Woman,Right,
35,9,1,1.0335352000001876,['n'],1,right,['e'],0,0.9700247000000672,0.1,0,0,FastFast,15,19,Woman,Right,
36,9,1,1.7500627000008535,['n'],1,right,['u'],1,0.24002850000033504,0.2,1,0,FastFast,15,19,Woman,Right,
37,9,1,1.0010844999997062,['c'],1,left,['u'],1,0.24067869999998948,0.4,1,0,FastFast,15,19,Woman,Right,
38,9,1,1.6513692000007723,['n'],1,right,['u'],1,0.4078255000003992,0.4,1,0,FastFast,15,19,Woman,Right,
39,9,1,2.2010389999995823,['c'],1,left,['e'],0,0.2583106999991287,0.1,0,0,FastFast,15,19,Woman,Right,
40,9,1,1.4672145999993518,['n'],0,left,['e'],0,0.4319240000004356,0.1,1,0,FastFast,15,19,Woman,Right,
41,9,1,1.1679870999996638,['n'],1,right,['e'],0,0.3063125000007858,0.2,0,0,FastFast,15,19,Woman,Right,
42,9,1,0.9836679000000004,['n'],1,right,['u'],1,0.24162930000056804,0.4,1,0,FastFast,15,19,Woman,Right,
43,9,1,2.283738500000254,['n'],0,left,['e'],0,0.28762839999944845,0.1,1,0,FastFast,15,19,Woman,Right,
44,9,1,1.0336086999996041,['n'],1,right,['u'],1,0.23763860000144632,0.4,1,0,FastFast,15,19,Woman,Right,
45,9,1,1.2844817000004696,['c'],1,left,['e'],0,0.35455129999900237,0.2,0,0,FastFast,15,19,Woman,Right,
46,9,1,1.2013719999995374,['c'],1,left,['u'],1,0.3428249999997206,0.2,1,0,FastFast,15,19,Woman,Right,
47,9,1,2.134669400000348,['c'],1,left,['u'],1,0.3586126999998669,0.1,1,0,FastFast,15,19,Woman,Right,
48,9,1,1.0836225999992166,['n'],1,right,['u'],1,0.3195734999990236,0.1,1,0,FastFast,15,19,Woman,Right,
49,9,1,1.0509313999991718,['c'],1,left,['u'],1,0.25141230000008363,0.4,1,0,FastFast,15,19,Woman,Right,
50,9,1,0.9679178999995202,['n'],1,right,['u'],1,0.25433720000000903,0.1,1,0,FastFast,15,19,Woman,Right,
51,9,1,2.3498091000001295,['n'],0,left,['e'],0,0.24752710000029765,0.1,1,0,FastFast,15,19,Woman,Right,
52,9,1,1.1019207999997889,['n'],0,left,['u'],1,0.467832800000906,0.4,0,0,FastFast,15,19,Woman,Right,
53,9,1,2.4507061000003887,['c'],1,left,['u'],1,0.27390339999874413,0.2,1,0,FastFast,15,19,Woman,Right,
54,9,1,1.0507219000010082,['n'],1,right,['u'],1,0.575575700000627,0.4,1,0,FastFast,15,19,Woman,Right,
55,9,1,1.1331473000009282,['n'],1,right,['u'],1,0.31842089999918244,0.4,1,0,FastFast,15,19,Woman,Right,
56,9,1,1.0348000999983924,['c'],1,left,['u'],1,0.28194129999974393,0.4,1,0,FastFast,15,19,Woman,Right,
57,9,1,1.0344726000002993,['c'],1,left,['u'],1,0.1995574000011402,0.2,1,0,FastFast,15,19,Woman,Right,
58,9,1,2.5003012999986822,['c'],0,right,['e'],0,0.5101603000002797,0.2,1,0,FastFast,15,19,Woman,Right,
59,9,1,0.7842048999991675,['c'],1,left,['u'],1,0.33389639999950305,0.4,1,0,FastFast,15,19,Woman,Right,
0,10,1,2.2510756000010588,['n'],1,right,['u'],1,0.40427769999951124,0.4,1,0,AccFast,15,19,Woman,Right,
1,10,1,0.9512142999992648,['c'],1,left,['u'],1,0.2089034000000538,0.1,1,0,AccFast,15,19,Woman,Right,
2,10,1,1.5007038000003377,['c'],1,left,['u'],1,0.25498719999995956,0.2,1,0,AccFast,15,19,Woman,Right,
3,10,1,1.0171107000005577,['c'],1,left,['u'],1,0.22295410000151605,0.4,1,0,AccFast,15,19,Woman,Right,
4,10,1,0.8181287000006705,['n'],1,right,['u'],1,0.37559460000011313,0.4,1,0,AccFast,15,19,Woman,Right,
5,10,1,1.1357095999992453,['c'],1,left,['u'],1,0.2381416000007448,0.4,1,0,AccFast,15,19,Woman,Right,
6,10,1,2.0168778999995993,['n'],1,right,['e'],0,0.2150495999994746,0.1,0,0,AccFast,15,19,Woman,Right,
7,10,1,1.4844011000004684,['n'],1,right,['e'],0,0.43671309999990626,0.1,0,0,AccFast,15,19,Woman,Right,
8,10,1,0.883067699998719,['c'],1,left,['u'],1,0.2597920999996859,0.4,1,0,AccFast,15,19,Woman,Right,
9,10,1,0.8160756999986916,['n'],1,right,['u'],1,0.29931329999999434,0.4,1,0,AccFast,15,19,Woman,Right,
10,10,1,2.20220960000006,['n'],1,right,['e'],0,0.24886440000045695,0.2,0,0,AccFast,15,19,Woman,Right,
11,10,1,1.1177590999996028,['n'],1,right,['u'],1,0.4042394999996759,0.2,1,0,AccFast,15,19,Woman,Right,
12,10,1,1.1012666999995417,['c'],1,left,['e'],0,0.3305663999999524,0.1,0,0,AccFast,15,19,Woman,Right,
13,10,1,2.1506272999995417,['n'],1,right,['e'],0,0.47370430000046326,0.2,0,0,AccFast,15,19,Woman,Right,
14,10,1,1.9345749000003707,['c'],0,right,['e'],0,0.316133100001025,0.2,1,0,AccFast,15,19,Woman,Right,
15,10,1,0.9176512000012735,['c'],1,left,['u'],1,0.33331660000112606,0.4,1,0,AccFast,15,19,Woman,Right,
16,10,1,2.8334556999998313,['c'],1,left,['e'],0,0.4169339999989461,0.2,0,0,AccFast,15,19,Woman,Right,
17,10,1,0.9681719000000157,['c'],0,right,['e'],0,0.3000826999996207,0.1,1,0,AccFast,15,19,Woman,Right,
18,10,1,1.650876600000629,['n'],0,left,['e'],0,0.27265450000049896,0.1,1,0,AccFast,15,19,Woman,Right,
19,10,1,0.9178634999989299,['n'],1,right,['u'],1,0.3074538000000757,0.4,1,0,AccFast,15,19,Woman,Right,
20,10,1,1.6011868999994476,['c'],1,left,['e'],0,0.3619827999991685,0.1,0,0,AccFast,15,19,Woman,Right,
21,10,1,2.2172053000012966,['c'],1,left,['e'],0,0.3570271999997203,0.2,0,0,AccFast,15,19,Woman,Right,
22,10,1,0.9001159999988886,['n'],1,right,['e'],0,0.3413773000011133,0.1,0,0,AccFast,15,19,Woman,Right,
23,10,1,1.117120500000965,['c'],1,left,['u'],1,0.2377239000015834,0.4,1,0,AccFast,15,19,Woman,Right,
24,10,1,1.6677510999998049,['c'],1,left,['e'],0,0.42038159999901836,0.2,0,0,AccFast,15,19,Woman,Right,
25,10,1,1.1346176999995805,['n'],0,left,['e'],0,0.21639280000090366,0.2,1,0,AccFast,15,19,Woman,Right,
26,10,1,1.3011438000012276,['c'],1,left,['e'],0,0.23828349999894272,0.1,0,0,AccFast,15,19,Woman,Right,
27,10,1,1.417881800000032,['c'],1,left,['e'],0,0.43065089999981865,0.4,0,0,AccFast,15,19,Woman,Right,
28,10,1,1.233093500000905,['n'],0,left,['e'],0,0.19023759999981849,0.2,1,0,AccFast,15,19,Woman,Right,
29,10,1,1.6347371000010753,['c'],1,left,['e'],0,0.24800169999980426,0.1,0,0,AccFast,15,19,Woman,Right,
30,10,1,0.9511098000002676,['n'],1,right,['e'],0,0.3623658999986219,0.4,0,0,AccFast,15,19,Woman,Right,
31,10,1,1.3507960999995703,['c'],1,left,['e'],0,0.3280003999989276,0.1,0,0,AccFast,15,19,Woman,Right,
32,10,1,1.1676683999994566,['c'],1,left,['u'],1,0.17518050000035146,0.4,1,0,AccFast,15,19,Woman,Right,
33,10,1,1.884024799999679,['n'],0,left,['e'],0,0.2236735000005865,0.1,1,0,AccFast,15,19,Woman,Right,
34,10,1,1.566629799999646,['n'],1,right,['e'],0,0.4271668999990652,0.2,0,0,AccFast,15,19,Woman,Right,
35,10,1,1.0668296000003465,['n'],1,right,['u'],1,0.25760389999959443,0.4,1,0,AccFast,15,19,Woman,Right,
36,10,1,2.6181057000012515,['n'],1,right,['e'],0,0.36942679999992833,0.1,0,0,AccFast,15,19,Woman,Right,
37,10,1,2.1667153000016697,['n'],1,right,['e'],0,0.28641939999943133,0.4,0,0,AccFast,15,19,Woman,Right,
38,10,1,2.1502367999983107,['c'],1,left,['e'],0,0.3196109999989858,0.2,0,0,AccFast,15,19,Woman,Right,
39,10,1,0.9675143999993452,['n'],1,right,['u'],1,0.302641100000983,0.4,1,0,AccFast,15,19,Woman,Right,
40,10,1,1.3169643000001088,['c'],1,left,['e'],0,0.2563351999997394,0.2,0,0,AccFast,15,19,Woman,Right,
41,10,1,2.134661400001278,['n'],0,left,['e'],0,0.19559970000045723,0.2,1,0,AccFast,15,19,Woman,Right,
42,10,1,1.6511281999992207,['n'],1,right,['e'],0,0.25178799999957846,0.1,0,0,AccFast,15,19,Woman,Right,
43,10,1,1.9341869999989285,['n'],1,right,['e'],0,0.35890110000036657,0.2,0,0,AccFast,15,19,Woman,Right,
44,10,1,1.0011395999990782,['c'],1,left,['u'],1,0.22758199999952922,0.4,1,0,AccFast,15,19,Woman,Right,
45,10,1,2.1347286000000167,['n'],1,right,['e'],0,0.27977329999885114,0.1,0,0,AccFast,15,19,Woman,Right,
46,10,1,1.7345134999995935,['n'],0,left,['e'],0,0.3615195999991556,0.1,1,0,AccFast,15,19,Woman,Right,
47,10,1,1.851159199999529,['c'],1,left,['e'],0,0.24391389999982493,0.1,0,0,AccFast,15,19,Woman,Right,
48,10,1,1.133734099999856,['c'],1,left,['u'],1,0.22431219999998575,0.4,1,0,AccFast,15,19,Woman,Right,
49,10,1,1.4843362999999954,['n'],1,right,['u'],1,0.6220661999996082,0.2,1,0,AccFast,15,19,Woman,Right,
50,10,1,1.7345083000000159,['c'],0,right,['e'],0,0.4505725999988499,0.2,1,0,AccFast,15,19,Woman,Right,
51,10,1,1.1850138999998308,['c'],0,right,['u'],1,0.19550059999892255,0.4,0,0,AccFast,15,19,Woman,Right,
52,10,1,2.58355549999942,['c'],0,right,['e'],0,0.2786049999995157,0.1,1,0,AccFast,15,19,Woman,Right,
53,10,1,1.0843643000007432,['c'],1,left,['u'],1,0.2431682999995246,0.1,1,0,AccFast,15,19,Woman,Right,
54,10,1,0.8166115000003629,['n'],1,right,['u'],1,0.2992570999995223,0.4,1,0,AccFast,15,19,Woman,Right,
55,10,1,2.38441260000036,['n'],1,right,['e'],0,0.20978520000062417,0.1,0,0,AccFast,15,19,Woman,Right,
56,10,1,1.1170485000002373,['n'],1,right,['u'],1,0.20745399999941583,0.4,1,0,AccFast,15,19,Woman,Right,
57,10,1,1.632742199999484,['n'],1,right,['e'],0,0.665071600000374,0.2,0,0,AccFast,15,19,Woman,Right,
58,10,1,1.118759200000568,['n'],1,right,['u'],1,0.24351799999931245,0.2,1,0,AccFast,15,19,Woman,Right,
59,10,1,0.9677694999991218,['c'],1,left,['u'],1,0.293769699999757,0.2,1,0,AccFast,15,19,Woman,Right,
0,11,1,1.2010073000001285,['c'],1,left,['u'],1,0.6891636999989714,0.2,1,0,AccAcc,15,19,Woman,Right,
1,11,1,1.717207399999097,['n'],1,right,['e'],0,0.6754615000008926,0.2,0,0,AccAcc,15,19,Woman,Right,
2,11,1,1.134698699999717,['c'],1,left,['u'],1,0.28576889999931154,0.2,1,0,AccAcc,15,19,Woman,Right,
3,11,1,2.2680780999999115,['n'],0,left,['e'],0,0.506299399999989,0.2,1,0,AccAcc,15,19,Woman,Right,
4,11,1,1.6177397000010387,['n'],1,right,['e'],0,0.9683707999993203,0.4,0,0,AccAcc,15,19,Woman,Right,
5,11,1,2.051111699998728,['n'],1,right,['e'],0,0.8022512000006827,0.1,0,0,AccAcc,15,19,Woman,Right,
6,11,1,1.032698099999834,['c'],1,left,['u'],1,0.3483968999989884,0.2,1,0,AccAcc,15,19,Woman,Right,
7,11,1,2.40009050000117,['c'],0,right,['u'],1,0.6396447000006447,0.1,0,0,AccAcc,15,19,Woman,Right,
8,11,1,1.9513079000007565,['n'],1,right,['e'],0,0.3626378000008117,0.2,0,0,AccAcc,15,19,Woman,Right,
9,11,1,0.9845137000011164,['n'],1,right,['u'],1,0.2629659999984142,0.4,1,0,AccAcc,15,19,Woman,Right,
10,11,1,1.3009378999995533,['n'],1,right,['u'],1,0.34672649999993155,0.2,1,0,AccAcc,15,19,Woman,Right,
11,11,1,2.916709900000569,['n'],1,right,['e'],0,0.39463030000115396,0.2,0,0,AccAcc,15,19,Woman,Right,
12,11,1,1.267406299999493,['c'],0,right,['u'],1,0.3310463999987405,0.1,0,0,AccAcc,15,19,Woman,Right,
13,11,1,1.834560600000259,['c'],0,right,['e'],0,0.615499199999249,0.2,1,0,AccAcc,15,19,Woman,Right,
14,11,1,1.784590899998875,['n'],1,right,['e'],0,0.8732147999999142,0.1,0,0,AccAcc,15,19,Woman,Right,
15,11,1,1.9005498999995325,['n'],1,right,['e'],0,0.38096499999846856,0.1,0,0,AccAcc,15,19,Woman,Right,
16,11,1,1.2503901999989466,['c'],1,left,['u'],1,0.2063921000008122,0.4,1,0,AccAcc,15,19,Woman,Right,
17,11,1,1.167167800000243,['n'],1,right,['u'],1,0.34664880000127596,0.4,1,0,AccAcc,15,19,Woman,Right,
18,11,1,1.251368100000036,['n'],0,left,['u'],1,0.36411410000073374,0.1,0,0,AccAcc,15,19,Woman,Right,
19,11,1,1.2507664000004297,['c'],1,left,['u'],1,0.317986000000019,0.2,1,0,AccAcc,15,19,Woman,Right,
20,11,1,2.1164015000013023,['c'],1,left,['e'],0,0.5430376000003889,0.1,0,0,AccAcc,15,19,Woman,Right,
21,11,1,0.9176774000006844,['n'],1,right,['u'],1,0.3433318999996118,0.4,1,0,AccAcc,15,19,Woman,Right,
22,11,1,1.749995800000761,['c'],1,left,['e'],0,0.39040839999870514,0.2,0,0,AccAcc,15,19,Woman,Right,
23,11,1,1.8841432000008353,['n'],0,left,['e'],0,0.5582918000000063,0.2,1,0,AccAcc,15,19,Woman,Right,
24,11,1,1.6680388999993738,['c'],1,left,['e'],0,0.7281504000002315,0.1,0,0,AccAcc,15,19,Woman,Right,
25,11,1,2.134197299999869,['n'],0,left,['e'],0,0.5203100999988237,0.1,1,0,AccAcc,15,19,Woman,Right,
26,11,1,1.1167740000000776,['n'],1,right,['e'],0,0.24977529999887338,0.4,0,0,AccAcc,15,19,Woman,Right,
27,11,1,2.250647900000331,['c'],1,left,['e'],0,0.9042038000006869,0.1,0,0,AccAcc,15,19,Woman,Right,
28,11,1,0.9343785000000935,['n'],1,right,['u'],1,0.33722409999973024,0.4,1,0,AccAcc,15,19,Woman,Right,
29,11,1,2.4330412999988766,['n'],1,right,['e'],0,0.5176199000015913,0.1,0,0,AccAcc,15,19,Woman,Right,
30,11,1,1.0175739000005706,['n'],1,right,['u'],1,0.7140760999991471,0.4,1,0,AccAcc,15,19,Woman,Right,
31,11,1,1.6512543999997433,['c'],1,left,['e'],0,0.49377350000031583,0.1,0,0,AccAcc,15,19,Woman,Right,
32,11,1,2.117983899999672,['c'],1,left,['e'],0,0.5041994000002887,0.1,0,0,AccAcc,15,19,Woman,Right,
33,11,1,1.4842357999987144,['c'],1,left,['e'],0,1.3392390999997588,0.2,0,0,AccAcc,15,19,Woman,Right,
34,11,1,1.1013239000003523,['c'],1,left,['u'],1,0.3005800000009913,0.4,1,0,AccAcc,15,19,Woman,Right,
35,11,1,0.9001850999993621,['c'],1,left,['u'],1,0.3187884999988455,0.4,1,0,AccAcc,15,19,Woman,Right,
36,11,1,1.1017214999992575,['n'],1,right,['u'],1,0.4245550999985426,0.4,1,0,AccAcc,15,19,Woman,Right,
37,11,1,0.9011259999988397,['n'],1,right,['u'],1,0.35807779999959166,0.4,1,0,AccAcc,15,19,Woman,Right,
38,11,1,1.0504018999999971,['n'],1,right,['u'],1,0.512677700000495,0.1,1,0,AccAcc,15,19,Woman,Right,
39,11,1,0.8014258000002883,['c'],1,left,['u'],1,0.36609129999851575,0.4,1,0,AccAcc,15,19,Woman,Right,
40,11,1,1.1011583999988943,['c'],1,left,['u'],1,0.32576069999959145,0.4,1,0,AccAcc,15,19,Woman,Right,
41,11,1,1.0845169999993232,['n'],1,right,['u'],1,0.3360482999996748,0.4,1,0,AccAcc,15,19,Woman,Right,
42,11,1,2.834335200001078,['c'],0,right,['e'],0,0.4207222000004549,0.1,1,0,AccAcc,15,19,Woman,Right,
43,11,1,1.5512312999999267,['n'],1,right,['e'],0,0.3275945999994292,0.2,0,0,AccAcc,15,19,Woman,Right,
44,11,1,1.6180653999999777,['c'],1,left,['e'],0,0.33291339999959746,0.2,0,0,AccAcc,15,19,Woman,Right,
45,11,1,1.300195600000734,['n'],0,left,['e'],0,0.20588670000142884,0.4,1,0,AccAcc,15,19,Woman,Right,
46,11,1,2.5842811000002257,['n'],0,left,['e'],0,0.4011174999996001,0.2,1,0,AccAcc,15,19,Woman,Right,
47,11,1,1.3169732000005752,['n'],1,right,['e'],0,0.27075970000078087,0.2,0,0,AccAcc,15,19,Woman,Right,
48,11,1,1.8518313000004127,['c'],0,right,['e'],0,0.25267929999972694,0.1,1,0,AccAcc,15,19,Woman,Right,
49,11,1,1.433649599999626,['c'],1,left,['u'],1,0.2205692999996245,0.4,1,0,AccAcc,15,19,Woman,Right,
50,11,1,1.5178064000010636,['c'],1,left,['u'],1,0.2325382000017271,0.1,1,0,AccAcc,15,19,Woman,Right,
51,11,1,0.9516021000017645,['n'],1,right,['u'],1,0.34765519999928074,0.4,1,0,AccAcc,15,19,Woman,Right,
52,11,1,1.167855600000621,['c'],1,left,['u'],1,0.19347349999952712,0.2,1,0,AccAcc,15,19,Woman,Right,
53,11,1,0.8344514000000345,['c'],1,left,['u'],1,0.2515118999999686,0.2,1,0,AccAcc,15,19,Woman,Right,
54,11,1,1.517884499999127,['c'],0,right,['u'],1,0.21462670000073558,0.2,0,0,AccAcc,15,19,Woman,Right,
55,11,1,0.8844791000010446,['c'],0,right,['u'],1,0.4930361999995512,0.1,0,0,AccAcc,15,19,Woman,Right,
56,11,1,1.0514681000004202,['c'],1,left,['e'],0,0.11401040000055218,0.4,0,0,AccAcc,15,19,Woman,Right,
57,11,1,2.734318799999528,['c'],1,left,['e'],0,0.3064216000002489,0.1,0,0,AccAcc,15,19,Woman,Right,
58,11,1,1.5844333000004553,['n'],1,right,['e'],0,0.2975707000005059,0.1,0,0,AccAcc,15,19,Woman,Right,
59,11,1,0.7681000000011409,['c'],1,left,['u'],1,0.2571754999989935,0.4,1,0,AccAcc,15,19,Woman,Right,
0,12,1,0.717061499999545,['c'],1,left,['u'],1,0.36752359999991313,0.2,1,0,FastAcc,15,19,Woman,Right,
1,12,1,0.951182400000107,['c'],0,right,['e'],0,0.3811691000009887,0.1,1,0,FastAcc,15,19,Woman,Right,
2,12,1,0.8512969999992492,['n'],1,right,['e'],0,0.2387310999984038,0.4,0,0,FastAcc,15,19,Woman,Right,
3,12,1,1.483618899999783,['n'],1,right,['u'],1,0.2518118999996659,0.2,1,0,FastAcc,15,19,Woman,Right,
4,12,1,1.0340442000015173,['n'],1,right,['e'],0,0.2507793999993737,0.1,0,0,FastAcc,15,19,Woman,Right,
5,12,1,1.7506032000001142,['c'],0,right,['u'],1,0.30128699999841047,0.1,0,0,FastAcc,15,19,Woman,Right,
6,12,1,1.066674099998636,['c'],1,left,['u'],1,0.18480279999857885,0.2,1,0,FastAcc,15,19,Woman,Right,
7,12,1,0.9006933000000572,['n'],1,right,['u'],1,0.2720805000008113,0.1,1,0,FastAcc,15,19,Woman,Right,
8,12,1,1.0002211000009993,['n'],1,right,['u'],1,0.33535330000086105,0.4,1,0,FastAcc,15,19,Woman,Right,
9,12,1,1.33364100000108,['c'],1,left,['e'],0,0.24006699999881675,0.1,0,0,FastAcc,15,19,Woman,Right,
10,12,1,0.9008628999999928,['n'],1,right,['u'],1,0.2602556000001641,0.4,1,0,FastAcc,15,19,Woman,Right,
11,12,1,1.0012567000012496,['n'],1,right,['u'],1,0.3084658000007039,0.4,1,0,FastAcc,15,19,Woman,Right,
12,12,1,1.6514270000006945,['c'],1,left,['u'],1,0.3929041999999754,0.1,1,0,FastAcc,15,19,Woman,Right,
13,12,1,1.78447210000013,['c'],1,left,['u'],1,0.4048067000003357,0.2,1,0,FastAcc,15,19,Woman,Right,
14,12,1,1.366552400000728,['n'],1,right,['e'],0,0.27265909999914584,0.1,0,0,FastAcc,15,19,Woman,Right,
15,12,1,0.9843467000009696,['n'],1,right,['u'],1,0.4328010000008362,0.4,1,0,FastAcc,15,19,Woman,Right,
16,12,1,1.167971500000931,['n'],1,right,['u'],1,0.2429812000009406,0.4,1,0,FastAcc,15,19,Woman,Right,
17,12,1,1.717698599999494,['c'],1,left,['u'],1,0.6477642999998352,0.4,1,0,FastAcc,15,19,Woman,Right,
18,12,1,1.434349099999963,['n'],1,right,['e'],0,0.6627222999995865,0.1,0,0,FastAcc,15,19,Woman,Right,
19,12,1,0.9169370999989042,['c'],1,left,['u'],1,0.29779400000006717,0.4,1,0,FastAcc,15,19,Woman,Right,
20,12,1,0.8340027000012924,['c'],1,left,['u'],1,0.27069379999920784,0.2,1,0,FastAcc,15,19,Woman,Right,
21,12,1,1.1510524000004807,['c'],1,left,['u'],1,0.39218219999929715,0.4,1,0,FastAcc,15,19,Woman,Right,
22,12,1,1.683608199999071,['n'],0,left,['e'],0,0.29604310000104306,0.2,1,0,FastAcc,15,19,Woman,Right,
23,12,1,1.1009257999994588,['c'],1,left,['e'],0,0.43473980000089796,0.4,0,0,FastAcc,15,19,Woman,Right,
24,12,1,1.3837776999989728,['c'],1,left,['u'],1,0.25239309999960824,0.2,1,0,FastAcc,15,19,Woman,Right,
25,12,1,1.666486600001008,['c'],1,left,['u'],1,0.2582384000015736,0.2,1,0,FastAcc,15,19,Woman,Right,
26,12,1,1.883202999999412,['n'],0,left,['e'],0,0.22304590000021562,0.2,1,0,FastAcc,15,19,Woman,Right,
27,12,1,0.9001384999992297,['n'],1,right,['u'],1,0.24504909999996016,0.4,1,0,FastAcc,15,19,Woman,Right,
28,12,1,1.8847337000006519,['c'],1,left,['e'],0,0.290425299999697,0.2,0,0,FastAcc,15,19,Woman,Right,
29,12,1,1.1513261999989481,['c'],1,left,['e'],0,0.5714216000014858,0.2,0,0,FastAcc,15,19,Woman,Right,
30,12,1,1.217978700000458,['n'],1,right,['u'],1,0.4064208999989205,0.1,1,0,FastAcc,15,19,Woman,Right,
31,12,1,1.5843037000013283,['c'],1,left,['u'],1,0.2979044999992766,0.4,1,0,FastAcc,15,19,Woman,Right,
32,12,1,1.9499587999998766,['n'],1,right,['e'],0,0.194135699999606,0.1,0,0,FastAcc,15,19,Woman,Right,
33,12,1,1.1678344000010838,['c'],1,left,['u'],1,0.25425859999995737,0.2,1,0,FastAcc,15,19,Woman,Right,
34,12,1,0.7668716000007407,['c'],1,left,['u'],1,0.20028540000021167,0.4,1,0,FastAcc,15,19,Woman,Right,
35,12,1,1.3176167000001442,['n'],1,right,['e'],0,0.22168039999996836,0.2,0,0,FastAcc,15,19,Woman,Right,
36,12,1,1.5683141000008618,['c'],0,right,['e'],0,0.21689640000113286,0.1,1,0,FastAcc,15,19,Woman,Right,
37,12,1,0.93454279999969,['n'],1,right,['e'],0,0.23729739999907906,0.4,0,0,FastAcc,15,19,Woman,Right,
38,12,1,1.9181734000012511,['c'],1,left,['e'],0,1.7214969999986351,0.2,0,0,FastAcc,15,19,Woman,Right,
39,12,1,1.5010752999987744,['c'],1,left,['e'],0,0.2513010000002396,0.2,0,0,FastAcc,15,19,Woman,Right,
40,12,1,1.3339082000002236,['c'],1,left,['e'],0,0.318372099998669,0.2,0,0,FastAcc,15,19,Woman,Right,
41,12,1,1.0009245000001101,['n'],0,left,['e'],0,0.3320456000001286,0.1,1,0,FastAcc,15,19,Woman,Right,
42,12,1,1.6010284000003594,['n'],1,right,['e'],0,0.22524290000001201,0.2,0,0,FastAcc,15,19,Woman,Right,
43,12,1,0.8849352999986877,['n'],1,right,['e'],0,0.24737509999977192,0.4,0,0,FastAcc,15,19,Woman,Right,
44,12,1,1.9158420000003389,['n'],1,right,['e'],0,0.3243958000002749,0.1,0,0,FastAcc,15,19,Woman,Right,
45,12,1,0.9166726000003109,['n'],1,right,['u'],1,0.22842149999996764,0.4,1,0,FastAcc,15,19,Woman,Right,
46,12,1,1.734326100000544,['c'],0,right,['u'],1,0.48854640000172367,0.1,0,0,FastAcc,15,19,Woman,Right,
47,12,1,1.233509600000616,['n'],1,right,['u'],1,0.31020059999900695,0.1,1,0,FastAcc,15,19,Woman,Right,
48,12,1,1.4016623000006803,['c'],1,left,['e'],0,0.24465409999902477,0.2,0,0,FastAcc,15,19,Woman,Right,
49,12,1,1.933280699999159,['c'],0,right,['e'],0,0.2404540999996243,0.1,1,0,FastAcc,15,19,Woman,Right,
50,12,1,1.2677344000003359,['c'],1,left,['u'],1,0.45495610000034503,0.4,1,0,FastAcc,15,19,Woman,Right,
51,12,1,1.550939599999765,['n'],1,right,['e'],0,0.2011889000004885,0.1,0,0,FastAcc,15,19,Woman,Right,
52,12,1,1.4676615999997011,['c'],1,left,['e'],0,0.2649513000014849,0.1,0,0,FastAcc,15,19,Woman,Right,
53,12,1,1.2843353000007482,['n'],1,right,['u'],1,0.25373299999955634,0.4,1,0,FastAcc,15,19,Woman,Right,
54,12,1,1.1515192999995634,['n'],1,right,['u'],1,0.32759470000019064,0.1,1,0,FastAcc,15,19,Woman,Right,
55,12,1,1.634705500000564,['c'],1,left,['e'],0,0.25188380000145116,0.2,0,0,FastAcc,15,19,Woman,Right,
56,12,1,0.9677288999992015,['n'],1,right,['u'],1,0.6063926000006177,0.2,1,0,FastAcc,15,19,Woman,Right,
57,12,1,1.2835371999990457,['c'],1,left,['u'],1,0.32482140000138315,0.4,1,0,FastAcc,15,19,Woman,Right,
58,12,1,0.9175667999988946,['c'],1,left,['u'],1,0.277802900000097,0.4,1,0,FastAcc,15,19,Woman,Right,
59,12,1,1.9495138000002044,['n'],0,left,['e'],0,0.16090149999945424,0.1,1,0,FastAcc,15,19,Woman,Right,
0,13,1,0.6509919000000082,['c'],1,left,['u'],1,0.3099505999998655,0.4,1,0,FastFast,15,19,Woman,Right,
1,13,1,1.201085000000603,['c'],1,left,['e'],0,0.2205655999987357,0.1,0,0,FastFast,15,19,Woman,Right,
2,13,1,0.583986300000106,['n'],1,right,['u'],1,0.238472199998796,0.2,1,0,FastFast,15,19,Woman,Right,
3,13,1,1.100988000000143,['c'],1,left,['e'],0,0.20341730000109237,0.1,0,0,FastFast,15,19,Woman,Right,
4,13,1,0.7006400999998732,['n'],0,left,['e'],0,0.4418073999986518,0.4,1,0,FastFast,15,19,Woman,Right,
5,13,1,1.101648900001237,['n'],1,right,['e'],0,0.2706886999985727,0.1,0,0,FastFast,15,19,Woman,Right,
6,13,1,0.6341986000006727,['c'],1,left,['u'],1,0.22102129999984754,0.4,1,0,FastFast,15,19,Woman,Right,
7,13,1,2.1341639000002033,['c'],0,right,['e'],0,0.2415822000002663,0.1,1,0,FastFast,15,19,Woman,Right,
8,13,1,0.7525101999999606,['c'],1,left,['u'],1,0.20453360000101384,0.4,1,0,FastFast,15,19,Woman,Right,
9,13,1,0.8845596000010119,['n'],1,right,['u'],1,0.2595258000001195,0.4,1,0,FastFast,15,19,Woman,Right,
10,13,1,1.9512467999993532,['n'],1,right,['e'],0,0.22192379999978584,0.2,0,0,FastFast,15,19,Woman,Right,
11,13,1,1.033886999999595,['c'],1,left,['u'],1,0.19033870000021125,0.4,1,0,FastFast,15,19,Woman,Right,
12,13,1,0.7014286999983597,['c'],1,left,['u'],1,0.20548599999892758,0.4,1,0,FastFast,15,19,Woman,Right,
13,13,1,1.601040000001376,['n'],1,right,['e'],0,0.1516408000006777,0.1,0,0,FastFast,15,19,Woman,Right,
14,13,1,1.0334540000003472,['c'],1,left,['u'],1,0.23496329999943555,0.4,1,0,FastFast,15,19,Woman,Right,
15,13,1,2.5341914000000543,['c'],1,left,['u'],1,0.2383088000005955,0.2,1,0,FastFast,15,19,Woman,Right,
16,13,1,0.8345288000000437,['c'],1,left,['u'],1,0.1826467999999295,0.4,1,0,FastFast,15,19,Woman,Right,
17,13,1,0.9015271999996912,['n'],1,right,['u'],1,0.18932369999856746,0.4,1,0,FastFast,15,19,Woman,Right,
18,13,1,2.2326399000012316,['c'],1,left,['e'],0,0.383074299999862,0.1,0,0,FastFast,15,19,Woman,Right,
19,13,1,0.7179302999993524,['n'],1,right,['e'],0,0.19715269999869633,0.1,0,0,FastFast,15,19,Woman,Right,
20,13,1,0.8846095999997488,['n'],1,right,['u'],1,0.18805260000044655,0.1,1,0,FastFast,15,19,Woman,Right,
21,13,1,1.0171288000001368,['c'],1,left,['u'],1,0.2384397000005265,0.2,1,0,FastFast,15,19,Woman,Right,
22,13,1,2.2337291999992885,['n'],1,right,['e'],0,0.190477699999974,0.1,0,0,FastFast,15,19,Woman,Right,
23,13,1,0.9180144000001746,['c'],1,left,['u'],1,0.1806907999998657,0.4,1,0,FastFast,15,19,Woman,Right,
24,13,1,0.7010038000007626,['c'],1,left,['u'],1,0.19584849999955622,0.1,1,0,FastFast,15,19,Woman,Right,
25,13,1,2.2342626999998174,['n'],0,left,['e'],0,0.8046942000000854,0.1,1,0,FastFast,15,19,Woman,Right,
26,13,1,1.3014453000014328,['c'],0,right,['e'],0,0.2911041000006662,0.2,1,0,FastFast,15,19,Woman,Right,
27,13,1,0.9180073999996239,['c'],1,left,['e'],0,0.5660062000006292,0.2,0,0,FastFast,15,19,Woman,Right,
28,13,1,0.7183117000004131,['n'],1,right,['e'],0,0.2605225999996037,0.2,0,0,FastFast,15,19,Woman,Right,
29,13,1,1.5002623000000312,['c'],0,right,['e'],0,0.6246487999997044,0.1,1,0,FastFast,15,19,Woman,Right,
30,13,1,0.8512193000005936,['n'],1,right,['e'],0,0.409131399999751,0.2,0,0,FastFast,15,19,Woman,Right,
31,13,1,1.6512352999998257,['n'],1,right,['u'],1,0.21726329999910377,0.4,1,0,FastFast,15,19,Woman,Right,
32,13,1,2.367143600000418,['c'],1,left,['u'],1,0.5960627000004024,0.2,1,0,FastFast,15,19,Woman,Right,
33,13,1,1.983881600001041,['n'],1,right,['e'],0,0.2870122000003903,0.2,0,0,FastFast,15,19,Woman,Right,
34,13,1,1.2675010999992082,['n'],1,right,['e'],0,0.19581300000027113,0.2,0,0,FastFast,15,19,Woman,Right,
35,13,1,0.8996201999998448,['c'],1,left,['u'],1,0.2345634000012069,0.4,1,0,FastFast,15,19,Woman,Right,
36,13,1,1.8176758000008704,['c'],1,left,['e'],0,0.23442660000000615,0.2,0,0,FastFast,15,19,Woman,Right,
37,13,1,0.7012615999992704,['n'],1,right,['e'],0,0.24750689999928,0.2,0,0,FastFast,15,19,Woman,Right,
38,13,1,1.1180564000005688,['n'],0,left,['e'],0,0.22687129999940225,0.4,1,0,FastFast,15,19,Woman,Right,
39,13,1,1.6514729999998963,['c'],1,left,['e'],0,0.2189578999987134,0.1,0,0,FastFast,15,19,Woman,Right,
40,13,1,1.5177376999999979,['n'],1,right,['e'],0,0.2156271999992896,0.1,0,0,FastFast,15,19,Woman,Right,
41,13,1,0.9511122999992949,['n'],1,right,['e'],0,0.18746050000117975,0.1,0,0,FastFast,15,19,Woman,Right,
42,13,1,0.8350349000011192,['c'],0,right,['e'],0,0.2768971999994392,0.2,1,0,FastFast,15,19,Woman,Right,
43,13,1,1.3849019999997836,['c'],0,right,['e'],0,0.16524500000014086,0.1,1,0,FastFast,15,19,Woman,Right,
44,13,1,1.1345879999989847,['n'],0,left,['e'],0,0.21193029999994906,0.1,1,0,FastFast,15,19,Woman,Right,
45,13,1,0.9335333999988507,['c'],1,left,['e'],0,0.2639155999986542,0.4,0,0,FastFast,15,19,Woman,Right,
46,13,1,0.9175971999993635,['n'],1,right,['e'],0,0.2349422000006598,0.4,0,0,FastFast,15,19,Woman,Right,
47,13,1,0.8674713999989763,['n'],1,right,['e'],0,0.2892345000000205,0.4,0,0,FastFast,15,19,Woman,Right,
48,13,1,1.0335997000001953,['c'],1,left,['u'],1,0.22291559999939636,0.4,1,0,FastFast,15,19,Woman,Right,
49,13,1,2.1830398999991303,['c'],0,right,['e'],0,0.194030799999382,0.1,1,0,FastFast,15,19,Woman,Right,
50,13,1,0.5678984000005585,['n'],1,right,['e'],0,0.2783417999999074,0.4,0,0,FastFast,15,19,Woman,Right,
51,13,1,1.084466299998894,['n'],1,right,['u'],1,0.210126300000411,0.2,1,0,FastFast,15,19,Woman,Right,
52,13,1,1.6514709000002767,['c'],0,right,['e'],0,0.31451930000002903,0.2,1,0,FastFast,15,19,Woman,Right,
53,13,1,1.4674822999986645,['c'],1,left,['e'],0,0.2772452000008343,0.2,0,0,FastFast,15,19,Woman,Right,
54,13,1,1.001390100000208,['c'],1,left,['u'],1,0.22909829999844078,0.4,1,0,FastFast,15,19,Woman,Right,
55,13,1,1.2176079000000755,['c'],1,left,['e'],0,0.17361040000105277,0.2,0,0,FastFast,15,19,Woman,Right,
56,13,1,0.7844620999985636,['n'],1,right,['e'],0,0.23374349999903643,0.2,0,0,FastFast,15,19,Woman,Right,
57,13,1,1.4015500999994401,['n'],1,right,['e'],0,0.2188661999989563,0.2,0,0,FastFast,15,19,Woman,Right,
58,13,1,1.066465199999584,['n'],0,left,['e'],0,1.3227563999989798,0.1,1,0,FastFast,15,19,Woman,Right,
59,13,1,1.884151300000667,['c'],1,left,['e'],0,0.22056499999962398,0.1,0,0,FastFast,15,19,Woman,Right,
0,14,1,1.2840230000001611,['c'],1,left,['u'],1,0.22265759999936563,0.4,1,0,AccFast,15,19,Woman,Right,
1,14,1,0.9502629000016896,['n'],1,right,['u'],1,0.2750355000007403,0.4,1,0,AccFast,15,19,Woman,Right,
2,14,1,0.9343069000005926,['c'],1,left,['u'],1,0.1644311000000016,0.4,1,0,AccFast,15,19,Woman,Right,
3,14,1,0.7991724999992584,['c'],1,left,['u'],1,0.17667729999993753,0.4,1,0,AccFast,15,19,Woman,Right,
4,14,1,0.8003351999996084,['n'],1,right,['u'],1,0.17168870000023162,0.2,1,0,AccFast,15,19,Woman,Right,
5,14,1,2.149543800000174,['n'],0,left,['e'],0,0.22609470000134024,0.2,1,0,AccFast,15,19,Woman,Right,
6,14,1,0.9017698999996355,['n'],1,right,['e'],0,0.23113780000130646,0.2,0,0,AccFast,15,19,Woman,Right,
7,14,1,0.934139499999219,['n'],1,right,['e'],0,0.2347924999994575,0.4,0,0,AccFast,15,19,Woman,Right,
8,14,1,1.4175993999997445,['n'],1,right,['u'],1,0.6351442999985011,0.4,1,0,AccFast,15,19,Woman,Right,
9,14,1,0.9003491000003123,['n'],1,right,['u'],1,0.20819730000039272,0.4,1,0,AccFast,15,19,Woman,Right,
10,14,1,0.9843593999994482,['n'],1,right,['u'],1,0.3390636000003724,0.4,1,0,AccFast,15,19,Woman,Right,
11,14,1,2.50062650000109,['c'],1,left,['u'],1,0.3402213999997912,0.2,1,0,AccFast,15,19,Woman,Right,
12,14,1,2.367606699999669,['c'],1,left,['e'],0,0.9869400999996287,0.2,0,0,AccFast,15,19,Woman,Right,
13,14,1,0.9503735000016604,['n'],1,right,['u'],1,0.22396870000011404,0.4,1,0,AccFast,15,19,Woman,Right,
14,14,1,1.450004700000136,['n'],0,left,['u'],1,0.19165170000087528,0.4,0,0,AccFast,15,19,Woman,Right,
15,14,1,1.1677388999996765,['c'],1,left,['u'],1,0.251964199998838,0.4,1,0,AccFast,15,19,Woman,Right,
16,14,1,1.934876000001168,['c'],1,left,['u'],1,0.2475933999994595,0.1,1,0,AccFast,15,19,Woman,Right,
17,14,1,0.968128100001195,['n'],1,right,['u'],1,0.16875710000022082,0.2,1,0,AccFast,15,19,Woman,Right,
18,14,1,0.9842363999996451,['n'],1,right,['u'],1,0.2849701000013738,0.2,1,0,AccFast,15,19,Woman,Right,
19,14,1,2.7008552999996027,['n'],0,left,['e'],0,0.24830349999865575,0.1,1,0,AccFast,15,19,Woman,Right,
20,14,1,0.8502794999985781,['c'],1,left,['u'],1,0.39846859999852313,0.1,1,0,AccFast,15,19,Woman,Right,
21,14,1,1.4004253999992216,['n'],1,right,['u'],1,0.264848400000119,0.2,1,0,AccFast,15,19,Woman,Right,
22,14,1,1.4501921000010043,['c'],1,left,['u'],1,0.23117500000080327,0.2,1,0,AccFast,15,19,Woman,Right,
23,14,1,2.4336154000011447,['n'],1,right,['u'],1,0.5429680999986886,0.1,1,0,AccFast,15,19,Woman,Right,
24,14,1,1.9002326999998331,['c'],1,left,['e'],0,0.25554000000011,0.2,0,0,AccFast,15,19,Woman,Right,
25,14,1,1.1011250999999902,['n'],0,left,['e'],0,0.2366375000001426,0.1,1,0,AccFast,15,19,Woman,Right,
26,14,1,1.3676691999989998,['n'],1,right,['e'],0,0.2865116000011767,0.1,0,0,AccFast,15,19,Woman,Right,
27,14,1,1.2850049999997282,['c'],1,left,['e'],0,0.4819634999985283,0.2,0,0,AccFast,15,19,Woman,Right,
28,14,1,1.334862499999872,['n'],1,right,['e'],0,0.2839760999995633,0.2,0,0,AccFast,15,19,Woman,Right,
29,14,1,1.082795399999668,['n'],1,right,['u'],1,0.16858510000020033,0.1,1,0,AccFast,15,19,Woman,Right,
30,14,1,0.9511793000001489,['n'],1,right,['u'],1,0.20521139999982552,0.4,1,0,AccFast,15,19,Woman,Right,
31,14,1,3.367082400000072,['c'],1,left,['e'],0,0.2570085999996081,0.1,0,0,AccFast,15,19,Woman,Right,
32,14,1,1.2500392000001739,['c'],1,left,['u'],1,0.37591190000057395,0.2,1,0,AccFast,15,19,Woman,Right,
33,14,1,1.2010270999999193,['n'],0,left,['e'],0,0.2190035000003263,0.2,1,0,AccFast,15,19,Woman,Right,
34,14,1,1.0345103999989078,['c'],1,left,['u'],1,0.31522429999859014,0.1,1,0,AccFast,15,19,Woman,Right,
35,14,1,1.2670810999989044,['c'],0,right,['u'],1,0.23833340000055614,0.4,0,0,AccFast,15,19,Woman,Right,
36,14,1,0.8848154999996041,['n'],1,right,['u'],1,0.1641712999989977,0.4,1,0,AccFast,15,19,Woman,Right,
37,14,1,0.9010268000001815,['n'],1,right,['u'],1,0.2675182999992103,0.1,1,0,AccFast,15,19,Woman,Right,
38,14,1,1.4343787999987399,['c'],1,left,['u'],1,0.2660477000008541,0.1,1,0,AccFast,15,19,Woman,Right,
39,14,1,0.982085300000108,['c'],1,left,['e'],0,0.2836048999997729,0.2,0,0,AccFast,15,19,Woman,Right,
40,14,1,2.3680193000000145,['n'],1,right,['e'],0,0.21119370000087656,0.1,0,0,AccFast,15,19,Woman,Right,
41,14,1,1.4675905000003695,['n'],0,left,['e'],0,0.21083570000155305,0.1,1,0,AccFast,15,19,Woman,Right,
42,14,1,1.5335080000004382,['c'],1,left,['e'],0,0.35155180000037944,0.1,0,0,AccFast,15,19,Woman,Right,
43,14,1,1.2829447999993135,['n'],1,right,['u'],1,0.22507239999868034,0.1,1,0,AccFast,15,19,Woman,Right,
44,14,1,1.9176717000009376,['c'],0,right,['u'],1,0.42988010000044596,0.1,0,0,AccFast,15,19,Woman,Right,
45,14,1,1.5021909000006417,['n'],1,right,['e'],0,0.24282210000092164,0.1,0,0,AccFast,15,19,Woman,Right,
46,14,1,1.4681316999995033,['c'],1,left,['e'],0,0.2571238999989873,0.2,0,0,AccFast,15,19,Woman,Right,
47,14,1,1.7343514999993204,['n'],1,right,['e'],0,0.26044890000048326,0.1,0,0,AccFast,15,19,Woman,Right,
48,14,1,1.5337284000015643,['n'],1,right,['e'],0,0.20738470000105735,0.2,0,0,AccFast,15,19,Woman,Right,
49,14,1,1.3846921000003931,['c'],0,right,['e'],0,0.2262432000006811,0.4,1,0,AccFast,15,19,Woman,Right,
50,14,1,1.1505915999987337,['n'],1,right,['u'],1,0.2861152999994374,0.4,1,0,AccFast,15,19,Woman,Right,
51,14,1,1.6177492000006168,['n'],0,left,['e'],0,0.21278829999937443,0.2,1,0,AccFast,15,19,Woman,Right,
52,14,1,1.0172247999998945,['c'],1,left,['u'],1,0.22930470000028436,0.4,1,0,AccFast,15,19,Woman,Right,
53,14,1,0.9346623000001273,['n'],1,right,['u'],1,0.2331276999993861,0.4,1,0,AccFast,15,19,Woman,Right,
54,14,1,0.8846165999984805,['n'],1,right,['u'],1,0.2387337000000116,0.4,1,0,AccFast,15,19,Woman,Right,
55,14,1,1.8845839999994496,['n'],0,left,['e'],0,0.2527298000004521,0.1,1,0,AccFast,15,19,Woman,Right,
56,14,1,1.1843602000008104,['c'],1,left,['e'],0,0.2613619000003382,0.2,0,0,AccFast,15,19,Woman,Right,
57,14,1,1.5670300999991014,['c'],0,right,['e'],0,0.2391325999997207,0.1,1,0,AccFast,15,19,Woman,Right,
58,14,1,1.4503955000000133,['c'],1,left,['u'],1,0.27022369999940565,0.4,1,0,AccFast,15,19,Woman,Right,
59,14,1,0.9014597999994294,['c'],1,left,['u'],1,0.24202619999960007,0.2,1,0,AccFast,15,19,Woman,Right,
0,15,1,1.6325382999984868,['n'],0,left,['e'],0,0.4165445999988151,0.1,1,0,AccAcc,15,19,Woman,Right,
1,15,1,0.9675889999998617,['n'],1,right,['u'],1,0.3000535999999556,0.4,1,0,AccAcc,15,19,Woman,Right,
2,15,1,0.7844337999995332,['c'],1,left,['u'],1,0.24230379999971774,0.4,1,0,AccAcc,15,19,Woman,Right,
3,15,1,0.849985500000912,['c'],1,left,['u'],1,0.21751550000044517,0.2,1,0,AccAcc,15,19,Woman,Right,
4,15,1,1.8675418000002537,['c'],1,left,['e'],0,0.2005499000006239,0.1,0,0,AccAcc,15,19,Woman,Right,
5,15,1,1.2009391999999934,['n'],0,left,['e'],0,0.22666319999916595,0.4,1,0,AccAcc,15,19,Woman,Right,
6,15,1,1.4848760999993829,['n'],1,right,['e'],0,0.24128229999951145,0.2,0,0,AccAcc,15,19,Woman,Right,
7,15,1,0.8666596000002755,['n'],1,right,['u'],1,0.26410089999990305,0.4,1,0,AccAcc,15,19,Woman,Right,
8,15,1,0.8512541000000056,['n'],1,right,['u'],1,0.2691917000011017,0.4,1,0,AccAcc,15,19,Woman,Right,
9,15,1,0.9497293000003992,['c'],1,left,['u'],1,0.22373400000105903,0.2,1,0,AccAcc,15,19,Woman,Right,
10,15,1,1.8503810000001977,['n'],1,right,['e'],0,0.3183370000006107,0.1,0,0,AccAcc,15,19,Woman,Right,
11,15,1,1.1340192000006937,['n'],0,left,['e'],0,0.2470962999996118,0.4,1,0,AccAcc,15,19,Woman,Right,
12,15,1,1.317163799998525,['c'],1,left,['u'],1,0.23492150000129186,0.4,1,0,AccAcc,15,19,Woman,Right,
13,15,1,0.7848256000015681,['c'],1,left,['u'],1,0.3081273000007059,0.2,1,0,AccAcc,15,19,Woman,Right,
14,15,1,1.1006412000006094,['n'],1,right,['u'],1,0.2704517999991367,0.4,1,0,AccAcc,15,19,Woman,Right,
15,15,1,1.8680567000010342,['c'],1,left,['u'],1,0.5395693999998912,0.1,1,0,AccAcc,15,19,Woman,Right,
16,15,1,1.168132400000104,['n'],1,right,['e'],0,0.2180450000014389,0.2,0,0,AccAcc,15,19,Woman,Right,
17,15,1,1.4341079000005266,['c'],1,left,['e'],0,0.33035369999925024,0.1,0,0,AccAcc,15,19,Woman,Right,
18,15,1,1.1678784000014275,['n'],1,right,['e'],0,0.2569173000010778,0.2,0,0,AccAcc,15,19,Woman,Right,
19,15,1,1.0663249000008364,['n'],1,right,['u'],1,0.22247579999930167,0.4,1,0,AccAcc,15,19,Woman,Right,
20,15,1,1.400555100000929,['n'],1,right,['u'],1,0.27215910000086296,0.1,1,0,AccAcc,15,19,Woman,Right,
21,15,1,1.900898199999574,['c'],1,left,['e'],0,0.37978079999993497,0.1,0,0,AccAcc,15,19,Woman,Right,
22,15,1,0.9344968999994308,['c'],1,left,['u'],1,0.18552490000001853,0.4,1,0,AccAcc,15,19,Woman,Right,
23,15,1,1.7169161000001623,['n'],1,right,['e'],0,0.2719257999997353,0.1,0,0,AccAcc,15,19,Woman,Right,
24,15,1,1.7327869000000646,['c'],1,left,['e'],0,0.2430181999989145,0.2,0,0,AccAcc,15,19,Woman,Right,
25,15,1,1.4010957999998936,['c'],1,left,['e'],0,0.2594107000004442,0.1,0,0,AccAcc,15,19,Woman,Right,
26,15,1,1.0177344000003359,['c'],1,left,['u'],1,0.179275399999824,0.4,1,0,AccAcc,15,19,Woman,Right,
27,15,1,1.7013884000007238,['c'],0,right,['e'],0,0.2502160999993066,0.1,1,0,AccAcc,15,19,Woman,Right,
28,15,1,1.451112299999295,['c'],1,left,['e'],0,0.28034579999985,0.1,0,0,AccAcc,15,19,Woman,Right,
29,15,1,1.3008618999992905,['c'],1,left,['u'],1,0.21965520000048855,0.2,1,0,AccAcc,15,19,Woman,Right,
30,15,1,0.9327702000009594,['c'],1,left,['u'],1,0.25579409999954805,0.4,1,0,AccAcc,15,19,Woman,Right,
31,15,1,0.9677339999998367,['n'],1,right,['u'],1,0.2579194000009011,0.2,1,0,AccAcc,15,19,Woman,Right,
32,15,1,1.6846003999999084,['n'],1,right,['e'],0,0.2145516000000498,0.1,0,0,AccAcc,15,19,Woman,Right,
33,15,1,1.8501004999998258,['c'],0,right,['e'],0,0.3275069999999687,0.1,1,0,AccAcc,15,19,Woman,Right,
34,15,1,1.5851220000004105,['n'],0,left,['e'],0,0.2686757999999827,0.1,1,0,AccAcc,15,19,Woman,Right,
35,15,1,0.884481399998549,['n'],1,right,['u'],1,0.19295429999874614,0.4,1,0,AccAcc,15,19,Woman,Right,
36,15,1,1.634801799998968,['n'],1,right,['e'],0,0.3786526000003505,0.2,0,0,AccAcc,15,19,Woman,Right,
37,15,1,1.2334752999995544,['n'],1,right,['u'],1,0.26877390000117884,0.1,1,0,AccAcc,15,19,Woman,Right,
38,15,1,1.4843338999999105,['c'],1,left,['u'],1,0.7129392999995616,0.2,1,0,AccAcc,15,19,Woman,Right,
39,15,1,1.2012321000001975,['n'],1,right,['u'],1,0.28667160000077274,0.2,1,0,AccAcc,15,19,Woman,Right,
40,15,1,1.9681235999996716,['c'],0,right,['e'],0,0.26294249999955355,0.2,1,0,AccAcc,15,19,Woman,Right,
41,15,1,1.1176517999992939,['c'],1,left,['u'],1,0.2261750999987271,0.4,1,0,AccAcc,15,19,Woman,Right,
42,15,1,1.0177983999983553,['c'],1,left,['u'],1,0.30690230000072916,0.2,1,0,AccAcc,15,19,Woman,Right,
43,15,1,1.1345870000004652,['n'],1,right,['u'],1,0.3479692000000796,0.2,1,0,AccAcc,15,19,Woman,Right,
44,15,1,1.699879100000544,['n'],1,right,['e'],0,0.28533100000095146,0.1,0,0,AccAcc,15,19,Woman,Right,
45,15,1,1.017184800000905,['n'],1,right,['u'],1,0.28276089999963006,0.4,1,0,AccAcc,15,19,Woman,Right,
46,15,1,0.8337527999992744,['c'],1,left,['u'],1,0.24042519999966316,0.4,1,0,AccAcc,15,19,Woman,Right,
47,15,1,1.6343534999996336,['c'],1,left,['e'],0,0.23219090000020515,0.1,0,0,AccAcc,15,19,Woman,Right,
48,15,1,0.8844604999994772,['n'],0,left,['u'],1,1.0218133000016678,0.4,0,0,AccAcc,15,19,Woman,Right,
49,15,1,0.8181542000002082,['n'],1,right,['u'],1,0.2629402000002301,0.4,1,0,AccAcc,15,19,Woman,Right,
50,15,1,1.367766199999096,['c'],1,left,['e'],0,0.3281256999998732,0.1,0,0,AccAcc,15,19,Woman,Right,
51,15,1,1.284839900001316,['n'],1,right,['e'],0,0.4101098000010097,0.2,0,0,AccAcc,15,19,Woman,Right,
52,15,1,0.9351905000003171,['n'],1,right,['u'],1,0.2792461999997613,0.4,1,0,AccAcc,15,19,Woman,Right,
53,15,1,1.983243599999696,['n'],0,left,['e'],0,0.3197399000000587,0.1,1,0,AccAcc,15,19,Woman,Right,
54,15,1,1.201328499999363,['n'],1,right,['e'],0,0.2447532999995019,0.2,0,0,AccAcc,15,19,Woman,Right,
55,15,1,1.1670862000009947,['c'],0,right,['e'],0,0.2557860000015353,0.2,1,0,AccAcc,15,19,Woman,Right,
56,15,1,0.7679434000001493,['n'],1,right,['u'],1,0.24878589999934775,0.2,1,0,AccAcc,15,19,Woman,Right,
57,15,1,1.5347731999991083,['c'],1,left,['u'],1,0.3237270999998145,0.4,1,0,AccAcc,15,19,Woman,Right,
58,15,1,1.1350982000003569,['n'],1,right,['e'],0,0.26840030000130355,0.1,0,0,AccAcc,15,19,Woman,Right,
59,15,1,1.0180814000013925,['c'],1,left,['u'],1,0.1709960999996838,0.2,1,0,AccAcc,15,19,Woman,Right,
