withinblocktrial,block,block_repetition,rt,resp,cor,cresp,conf_press,cj,rtconf,coherence,metacognition,slow_trial,manipulation,sub,age,gender,handedness,
0,1,1,3.0667671999999584,['n'],0,left,none,-99,-99,0.5,-99,0,none,34,19,Woman,Right,
1,1,1,2.2501845999995567,['n'],0,left,none,-99,-99,0.5,-99,0,none,34,19,Woman,Right,
2,1,1,5.016192900000533,x,-99,left,none,-99,-99,0.5,-99,1,none,34,19,Woman,Right,
3,1,1,1.1006607999988773,['c'],0,right,none,-99,-99,0.5,-99,0,none,34,19,Woman,Right,
4,1,1,0.833761300000333,['c'],0,right,none,-99,-99,0.5,-99,0,none,34,19,Woman,Right,
5,1,1,1.9834965000009106,['n'],1,right,none,-99,-99,0.5,-99,0,none,34,19,Woman,Right,
6,1,1,1.1337416999995185,['n'],0,left,none,-99,-99,0.5,-99,0,none,34,19,Woman,Right,
7,1,1,1.2666200999992725,['n'],0,left,none,-99,-99,0.5,-99,0,none,34,19,Woman,Right,
8,1,1,1.3174708000005921,['c'],0,right,none,-99,-99,0.5,-99,0,none,34,19,Woman,Right,
9,1,1,1.1164645000008022,['c'],0,right,none,-99,-99,0.5,-99,0,none,34,19,Woman,Right,
10,1,1,1.1164991999994527,['n'],0,left,none,-99,-99,0.5,-99,0,none,34,19,Woman,Right,
11,1,1,2.2686319000004005,['c'],1,left,none,-99,-99,0.5,-99,0,none,34,19,Woman,Right,
12,1,1,1.0998768999997992,['c'],0,right,none,-99,-99,0.5,-99,0,none,34,19,Woman,Right,
13,1,1,0.7673221999993984,['c'],1,left,none,-99,-99,0.5,-99,0,none,34,19,Woman,Right,
14,1,1,1.0005312000012054,['c'],0,right,none,-99,-99,0.5,-99,0,none,34,19,Woman,Right,
15,1,1,1.0830626000006305,['n'],0,left,none,-99,-99,0.5,-99,0,none,34,19,Woman,Right,
16,1,1,1.833568699999887,['n'],0,left,none,-99,-99,0.5,-99,0,none,34,19,Woman,Right,
17,1,1,2.11627320000116,['c'],0,right,none,-99,-99,0.5,-99,0,none,34,19,Woman,Right,
18,1,1,0.8169674999990093,['c'],0,right,none,-99,-99,0.5,-99,0,none,34,19,Woman,Right,
19,1,1,0.7498206999989634,['c'],0,right,none,-99,-99,0.5,-99,0,none,34,19,Woman,Right,
20,1,1,1.0668384000000515,['n'],1,right,none,-99,-99,0.5,-99,0,none,34,19,Woman,Right,
21,1,1,0.816834099998232,['c'],0,right,none,-99,-99,0.5,-99,0,none,34,19,Woman,Right,
22,1,1,0.8176087000010739,['c'],1,left,none,-99,-99,0.5,-99,0,none,34,19,Woman,Right,
23,1,1,0.9672522000000754,['c'],1,left,none,-99,-99,0.5,-99,0,none,34,19,Woman,Right,
0,1,2,0.8000394999999116,['c'],0,right,none,-99,-99,0.5,-99,0,none,34,19,Woman,Right,
1,1,2,0.6166151999987051,['c'],0,right,none,-99,-99,0.5,-99,0,none,34,19,Woman,Right,
2,1,2,0.8175276000001759,['c'],1,left,none,-99,-99,0.5,-99,0,none,34,19,Woman,Right,
3,1,2,2.4995447999990574,['n'],0,left,none,-99,-99,0.5,-99,0,none,34,19,Woman,Right,
4,1,2,2.283582899999601,['n'],0,left,none,-99,-99,0.5,-99,0,none,34,19,Woman,Right,
5,1,2,0.7336716999998316,['c'],0,right,none,-99,-99,0.5,-99,0,none,34,19,Woman,Right,
6,1,2,1.0660631999999168,['c'],0,right,none,-99,-99,0.5,-99,0,none,34,19,Woman,Right,
7,1,2,1.3668746999992436,['n'],1,right,none,-99,-99,0.5,-99,0,none,34,19,Woman,Right,
8,1,2,1.316404799999873,['c'],1,left,none,-99,-99,0.5,-99,0,none,34,19,Woman,Right,
9,1,2,1.383663599999636,['n'],0,left,none,-99,-99,0.5,-99,0,none,34,19,Woman,Right,
10,1,2,1.2168512999996892,['n'],1,right,none,-99,-99,0.5,-99,0,none,34,19,Woman,Right,
11,1,2,0.8163430000004155,['c'],0,right,none,-99,-99,0.5,-99,0,none,34,19,Woman,Right,
12,1,2,1.2675732000006974,['c'],1,left,none,-99,-99,0.5,-99,0,none,34,19,Woman,Right,
13,1,2,1.316324600000371,['n'],1,right,none,-99,-99,0.5,-99,0,none,34,19,Woman,Right,
14,1,2,1.1504363999993075,['n'],0,left,none,-99,-99,0.5,-99,0,none,34,19,Woman,Right,
15,1,2,1.20038950000162,['n'],0,left,none,-99,-99,0.5,-99,0,none,34,19,Woman,Right,
16,1,2,1.0338263000012375,['c'],0,right,none,-99,-99,0.5,-99,0,none,34,19,Woman,Right,
17,1,2,1.8836470999995072,['c'],0,right,none,-99,-99,0.5,-99,0,none,34,19,Woman,Right,
18,1,2,1.1170422999985021,['n'],0,left,none,-99,-99,0.5,-99,0,none,34,19,Woman,Right,
19,1,2,0.9830701000009867,['c'],1,left,none,-99,-99,0.5,-99,0,none,34,19,Woman,Right,
20,1,2,1.45013519999884,['c'],1,left,none,-99,-99,0.5,-99,0,none,34,19,Woman,Right,
21,1,2,1.3172181000009004,['n'],1,right,none,-99,-99,0.5,-99,0,none,34,19,Woman,Right,
22,1,2,1.3501051999992342,['c'],1,left,none,-99,-99,0.5,-99,0,none,34,19,Woman,Right,
23,1,2,1.2998079999997572,['n'],1,right,none,-99,-99,0.5,-99,0,none,34,19,Woman,Right,
0,1,3,1.2335886000000755,['n'],0,left,none,-99,-99,0.5,-99,0,none,34,19,Woman,Right,
1,1,3,0.9161235999999917,['n'],1,right,none,-99,-99,0.5,-99,0,none,34,19,Woman,Right,
2,1,3,1.9671655999991344,['n'],0,left,none,-99,-99,0.5,-99,0,none,34,19,Woman,Right,
3,1,3,1.9506934999990335,['c'],0,right,none,-99,-99,0.5,-99,0,none,34,19,Woman,Right,
4,1,3,0.9832114999990154,['n'],0,left,none,-99,-99,0.5,-99,0,none,34,19,Woman,Right,
5,1,3,1.117429699999775,['n'],0,left,none,-99,-99,0.5,-99,0,none,34,19,Woman,Right,
6,1,3,1.0999198999998043,['n'],1,right,none,-99,-99,0.5,-99,0,none,34,19,Woman,Right,
7,1,3,0.9674586999990424,['c'],1,left,none,-99,-99,0.5,-99,0,none,34,19,Woman,Right,
8,1,3,1.916711599998962,['c'],1,left,none,-99,-99,0.5,-99,0,none,34,19,Woman,Right,
9,1,3,2.1838920999998663,['n'],1,right,none,-99,-99,0.5,-99,0,none,34,19,Woman,Right,
10,1,3,2.26690249999956,['c'],1,left,none,-99,-99,0.5,-99,0,none,34,19,Woman,Right,
11,1,3,0.9503858000007313,['n'],0,left,none,-99,-99,0.5,-99,0,none,34,19,Woman,Right,
12,1,3,0.8668842999995832,['n'],1,right,none,-99,-99,0.5,-99,0,none,34,19,Woman,Right,
13,1,3,0.8323719999989407,['n'],1,right,none,-99,-99,0.5,-99,0,none,34,19,Woman,Right,
14,1,3,1.5821718999995937,['n'],1,right,none,-99,-99,0.5,-99,0,none,34,19,Woman,Right,
15,1,3,1.7831984000004013,['n'],1,right,none,-99,-99,0.5,-99,0,none,34,19,Woman,Right,
16,1,3,1.7004345999994257,['n'],0,left,none,-99,-99,0.5,-99,0,none,34,19,Woman,Right,
17,1,3,2.8824659000001702,['n'],1,right,none,-99,-99,0.5,-99,0,none,34,19,Woman,Right,
18,1,3,1.733455600000525,['c'],0,right,none,-99,-99,0.5,-99,0,none,34,19,Woman,Right,
19,1,3,1.1500638000015897,['c'],0,right,none,-99,-99,0.5,-99,0,none,34,19,Woman,Right,
20,1,3,0.8816489000000729,['n'],0,left,none,-99,-99,0.5,-99,0,none,34,19,Woman,Right,
21,1,3,0.7502865999995265,['n'],1,right,none,-99,-99,0.5,-99,0,none,34,19,Woman,Right,
22,1,3,0.8334918000000471,['n'],0,left,none,-99,-99,0.5,-99,0,none,34,19,Woman,Right,
23,1,3,1.4502893999997468,['c'],1,left,none,-99,-99,0.5,-99,0,none,34,19,Woman,Right,
0,1,4,1.200876099999732,['n'],0,left,none,-99,-99,0.5,-99,0,none,34,19,Woman,Right,
1,1,4,0.733378900000389,['n'],1,right,none,-99,-99,0.5,-99,0,none,34,19,Woman,Right,
2,1,4,1.1171786000013526,['n'],1,right,none,-99,-99,0.5,-99,0,none,34,19,Woman,Right,
3,1,4,2.450798899999427,['n'],1,right,none,-99,-99,0.5,-99,0,none,34,19,Woman,Right,
4,1,4,1.0841208000001643,['n'],1,right,none,-99,-99,0.5,-99,0,none,34,19,Woman,Right,
5,1,4,1.0997590999995737,['c'],0,right,none,-99,-99,0.5,-99,0,none,34,19,Woman,Right,
6,1,4,1.4004442999994353,['c'],1,left,none,-99,-99,0.5,-99,0,none,34,19,Woman,Right,
7,1,4,2.5667972000010195,['n'],0,left,none,-99,-99,0.5,-99,0,none,34,19,Woman,Right,
8,1,4,1.3834624999999505,['n'],1,right,none,-99,-99,0.5,-99,0,none,34,19,Woman,Right,
9,1,4,1.1670165000014094,['n'],1,right,none,-99,-99,0.5,-99,0,none,34,19,Woman,Right,
10,1,4,1.6495890999995027,['c'],1,left,none,-99,-99,0.5,-99,0,none,34,19,Woman,Right,
11,1,4,1.3507986000004166,['c'],0,right,none,-99,-99,0.5,-99,0,none,34,19,Woman,Right,
12,1,4,1.5837152000003698,['n'],0,left,none,-99,-99,0.5,-99,0,none,34,19,Woman,Right,
13,1,4,0.717365599999539,['n'],0,left,none,-99,-99,0.5,-99,0,none,34,19,Woman,Right,
14,1,4,1.483500099999219,['n'],0,left,none,-99,-99,0.5,-99,0,none,34,19,Woman,Right,
15,1,4,0.9672778000003746,['n'],0,left,none,-99,-99,0.5,-99,0,none,34,19,Woman,Right,
16,1,4,1.8015433000000485,['c'],0,right,none,-99,-99,0.5,-99,0,none,34,19,Woman,Right,
17,1,4,0.9839955999996164,['n'],1,right,none,-99,-99,0.5,-99,0,none,34,19,Woman,Right,
18,1,4,0.7498575000008714,['n'],0,left,none,-99,-99,0.5,-99,0,none,34,19,Woman,Right,
19,1,4,1.133491900000081,['n'],0,left,none,-99,-99,0.5,-99,0,none,34,19,Woman,Right,
20,1,4,1.3830075000005309,['c'],0,right,none,-99,-99,0.5,-99,0,none,34,19,Woman,Right,
21,1,4,0.8496386000006169,['n'],1,right,none,-99,-99,0.5,-99,0,none,34,19,Woman,Right,
22,1,4,0.8837789999997767,['n'],0,left,none,-99,-99,0.5,-99,0,none,34,19,Woman,Right,
23,1,4,1.5842142999990756,['n'],0,left,none,-99,-99,0.5,-99,0,none,34,19,Woman,Right,
0,1,5,2.052130300000499,['n'],0,left,none,-99,-99,0.5,-99,0,none,34,19,Woman,Right,
1,1,5,1.0502617999991344,['n'],0,left,none,-99,-99,0.5,-99,0,none,34,19,Woman,Right,
2,1,5,0.8837256999995589,['n'],1,right,none,-99,-99,0.5,-99,0,none,34,19,Woman,Right,
3,1,5,1.4670401999992464,['c'],0,right,none,-99,-99,0.5,-99,0,none,34,19,Woman,Right,
4,1,5,1.1326407000015024,['n'],0,left,none,-99,-99,0.5,-99,0,none,34,19,Woman,Right,
5,1,5,1.1512108000006265,['c'],0,right,none,-99,-99,0.5,-99,0,none,34,19,Woman,Right,
6,1,5,1.0499978000007104,['c'],0,right,none,-99,-99,0.5,-99,0,none,34,19,Woman,Right,
7,1,5,0.9337245000006078,['n'],0,left,none,-99,-99,0.5,-99,0,none,34,19,Woman,Right,
8,1,5,0.9006198000006407,['c'],1,left,none,-99,-99,0.5,-99,0,none,34,19,Woman,Right,
9,1,5,0.7006619999992836,['n'],1,right,none,-99,-99,0.5,-99,0,none,34,19,Woman,Right,
10,1,5,0.7006724000002578,['c'],0,right,none,-99,-99,0.5,-99,0,none,34,19,Woman,Right,
11,1,5,0.7499444000004587,['n'],0,left,none,-99,-99,0.5,-99,0,none,34,19,Woman,Right,
12,1,5,0.7175421000010829,['c'],1,left,none,-99,-99,0.5,-99,0,none,34,19,Woman,Right,
13,1,5,0.6172583999996277,['n'],1,right,none,-99,-99,0.5,-99,0,none,34,19,Woman,Right,
14,1,5,0.6003736000002391,['c'],1,left,none,-99,-99,0.5,-99,0,none,34,19,Woman,Right,
15,1,5,0.8510480999993888,['n'],0,left,none,-99,-99,0.5,-99,0,none,34,19,Woman,Right,
16,1,5,0.9336375999992015,['c'],1,left,none,-99,-99,0.5,-99,0,none,34,19,Woman,Right,
17,1,5,0.6162960000001476,['n'],1,right,none,-99,-99,0.5,-99,0,none,34,19,Woman,Right,
18,1,5,2.317224600001282,['n'],1,right,none,-99,-99,0.5,-99,0,none,34,19,Woman,Right,
19,1,5,0.6008873999999196,['c'],1,left,none,-99,-99,0.5,-99,0,none,34,19,Woman,Right,
20,1,5,0.6170433000006597,['n'],1,right,none,-99,-99,0.5,-99,0,none,34,19,Woman,Right,
21,1,5,0.6336491999991267,['c'],0,right,none,-99,-99,0.5,-99,0,none,34,19,Woman,Right,
22,1,5,0.9838354999992589,['c'],1,left,none,-99,-99,0.5,-99,0,none,34,19,Woman,Right,
23,1,5,0.7009449000015593,['n'],1,right,none,-99,-99,0.5,-99,0,none,34,19,Woman,Right,
0,1,6,0.8012889000001451,['n'],1,right,none,-99,-99,0.5,-99,0,none,34,19,Woman,Right,
1,1,6,0.9003099000001384,['c'],0,right,none,-99,-99,0.5,-99,0,none,34,19,Woman,Right,
2,1,6,0.7007815000015398,['c'],0,right,none,-99,-99,0.5,-99,0,none,34,19,Woman,Right,
3,1,6,1.18379460000142,['n'],1,right,none,-99,-99,0.5,-99,0,none,34,19,Woman,Right,
4,1,6,0.7166980000001786,['c'],1,left,none,-99,-99,0.5,-99,0,none,34,19,Woman,Right,
5,1,6,0.783959499998673,['n'],1,right,none,-99,-99,0.5,-99,0,none,34,19,Woman,Right,
6,1,6,0.5829472999994323,['c'],1,left,none,-99,-99,0.5,-99,0,none,34,19,Woman,Right,
7,1,6,0.6000167000001966,['n'],1,right,none,-99,-99,0.5,-99,0,none,34,19,Woman,Right,
8,1,6,0.5834361999986868,['c'],1,left,none,-99,-99,0.5,-99,0,none,34,19,Woman,Right,
9,1,6,1.2002087000000756,['c'],1,left,none,-99,-99,0.5,-99,0,none,34,19,Woman,Right,
10,1,6,0.9184935000012047,['n'],0,left,none,-99,-99,0.5,-99,0,none,34,19,Woman,Right,
11,1,6,0.5339422999986709,['c'],1,left,none,-99,-99,0.5,-99,0,none,34,19,Woman,Right,
12,1,6,0.8669834999982413,['n'],1,right,none,-99,-99,0.5,-99,0,none,34,19,Woman,Right,
13,1,6,1.0169768999985536,['c'],1,left,none,-99,-99,0.5,-99,0,none,34,19,Woman,Right,
14,1,6,0.9167620000007446,['c'],1,left,none,-99,-99,0.5,-99,0,none,34,19,Woman,Right,
15,1,6,0.6166988000004494,['c'],1,left,none,-99,-99,0.5,-99,0,none,34,19,Woman,Right,
16,1,6,0.7338619000001927,['n'],1,right,none,-99,-99,0.5,-99,0,none,34,19,Woman,Right,
17,1,6,0.40092379999987315,['c'],1,left,none,-99,-99,0.5,-99,0,none,34,19,Woman,Right,
18,1,6,0.41770220000034897,['n'],1,right,none,-99,-99,0.5,-99,0,none,34,19,Woman,Right,
19,1,6,0.3510900999990554,['c'],1,left,none,-99,-99,0.5,-99,0,none,34,19,Woman,Right,
20,1,6,0.43376979999993637,['c'],0,right,none,-99,-99,0.5,-99,0,none,34,19,Woman,Right,
21,1,6,0.6658356999996613,['n'],1,right,none,-99,-99,0.5,-99,0,none,34,19,Woman,Right,
22,1,6,0.9341509000005317,['n'],1,right,none,-99,-99,0.5,-99,0,none,34,19,Woman,Right,
23,1,6,0.5825721000001067,['c'],1,left,none,-99,-99,0.5,-99,0,none,34,19,Woman,Right,
0,1,7,1.2175963000008778,['n'],1,right,none,-99,-99,0.5,-99,0,none,34,19,Woman,Right,
1,1,7,0.4169422000013583,['c'],1,left,none,-99,-99,0.5,-99,0,none,34,19,Woman,Right,
2,1,7,0.80047039999954,['c'],1,left,none,-99,-99,0.5,-99,0,none,34,19,Woman,Right,
3,1,7,0.7999974999984261,['c'],1,left,none,-99,-99,0.5,-99,0,none,34,19,Woman,Right,
4,1,7,0.48365389999889885,['n'],1,right,none,-99,-99,0.5,-99,0,none,34,19,Woman,Right,
5,1,7,0.4509208999988914,['c'],1,left,none,-99,-99,0.5,-99,0,none,34,19,Woman,Right,
6,1,7,0.683985700001358,['n'],0,left,none,-99,-99,0.5,-99,0,none,34,19,Woman,Right,
7,1,7,0.6332748000004358,['n'],1,right,none,-99,-99,0.5,-99,0,none,34,19,Woman,Right,
8,1,7,0.43288399999983085,['c'],1,left,none,-99,-99,0.5,-99,0,none,34,19,Woman,Right,
9,1,7,0.43464659999881405,['n'],1,right,none,-99,-99,0.5,-99,0,none,34,19,Woman,Right,
10,1,7,0.46708399999988615,['c'],1,left,none,-99,-99,0.5,-99,0,none,34,19,Woman,Right,
11,1,7,0.4002094000006764,['n'],1,right,none,-99,-99,0.5,-99,0,none,34,19,Woman,Right,
12,1,7,0.5336134999997739,['n'],1,right,none,-99,-99,0.5,-99,0,none,34,19,Woman,Right,
13,1,7,0.5171441999991657,['n'],1,right,none,-99,-99,0.5,-99,0,none,34,19,Woman,Right,
14,1,7,0.7664238999986992,['c'],1,left,none,-99,-99,0.5,-99,0,none,34,19,Woman,Right,
15,1,7,0.45022360000075423,['c'],1,left,none,-99,-99,0.5,-99,0,none,34,19,Woman,Right,
16,1,7,0.38392900000144436,['n'],1,right,none,-99,-99,0.5,-99,0,none,34,19,Woman,Right,
17,1,7,0.46633979999933217,['n'],1,right,none,-99,-99,0.5,-99,0,none,34,19,Woman,Right,
18,1,7,0.4501976999999897,['n'],1,right,none,-99,-99,0.5,-99,0,none,34,19,Woman,Right,
19,1,7,0.40041159999964293,['c'],1,left,none,-99,-99,0.5,-99,0,none,34,19,Woman,Right,
20,1,7,0.3667086000004929,['n'],0,left,none,-99,-99,0.5,-99,0,none,34,19,Woman,Right,
21,1,7,0.4006246999997529,['c'],1,left,none,-99,-99,0.5,-99,0,none,34,19,Woman,Right,
22,1,7,0.38373259999934817,['n'],1,right,none,-99,-99,0.5,-99,0,none,34,19,Woman,Right,
23,1,7,0.5331329000000551,['n'],1,right,none,-99,-99,0.5,-99,0,none,34,19,Woman,Right,
0,2,1,2.9509053000001586,['n'],1,right,none,-99,-99,0.2,-99,0,none,34,19,Woman,Right,
1,2,1,0.5502772999989247,['c'],1,left,none,-99,-99,0.2,-99,0,none,34,19,Woman,Right,
2,2,1,0.6499717000006058,['n'],1,right,none,-99,-99,0.1,-99,0,none,34,19,Woman,Right,
3,2,1,0.6174877000012202,['c'],1,left,none,-99,-99,0.4,-99,0,none,34,19,Woman,Right,
4,2,1,0.41687739999906626,['n'],1,right,none,-99,-99,0.1,-99,0,none,34,19,Woman,Right,
5,2,1,0.4507355000005191,['c'],1,left,none,-99,-99,0.4,-99,0,none,34,19,Woman,Right,
6,2,1,0.4839131999997335,['n'],0,left,none,-99,-99,0.1,-99,0,none,34,19,Woman,Right,
7,2,1,0.5519994000005681,['n'],0,left,none,-99,-99,0.1,-99,0,none,34,19,Woman,Right,
8,2,1,0.5007980000009411,['n'],1,right,none,-99,-99,0.2,-99,0,none,34,19,Woman,Right,
9,2,1,0.5831924000012805,['c'],1,left,none,-99,-99,0.1,-99,0,none,34,19,Woman,Right,
10,2,1,0.34923110000090674,['n'],0,left,none,-99,-99,0.1,-99,0,none,34,19,Woman,Right,
11,2,1,0.567234300000564,['c'],1,left,none,-99,-99,0.4,-99,0,none,34,19,Woman,Right,
12,2,1,0.33382610000080604,['c'],0,right,none,-99,-99,0.2,-99,0,none,34,19,Woman,Right,
13,2,1,0.31746930000008433,['n'],1,right,none,-99,-99,0.1,-99,0,none,34,19,Woman,Right,
14,2,1,0.5669895000010001,['n'],1,right,none,-99,-99,0.2,-99,0,none,34,19,Woman,Right,
15,2,1,1.0504957000011927,['n'],1,right,none,-99,-99,0.4,-99,0,none,34,19,Woman,Right,
16,2,1,0.5003617999991548,['n'],1,right,none,-99,-99,0.2,-99,0,none,34,19,Woman,Right,
17,2,1,0.5335410999996384,['c'],1,left,none,-99,-99,0.4,-99,0,none,34,19,Woman,Right,
18,2,1,0.4000177000016265,['n'],1,right,none,-99,-99,0.4,-99,0,none,34,19,Woman,Right,
19,2,1,0.4830216999998811,['c'],1,left,none,-99,-99,0.4,-99,0,none,34,19,Woman,Right,
20,2,1,0.46664680000139924,['n'],1,right,none,-99,-99,0.4,-99,0,none,34,19,Woman,Right,
21,2,1,0.449738500001331,['c'],1,left,none,-99,-99,0.1,-99,0,none,34,19,Woman,Right,
22,2,1,0.7844548000011855,['c'],1,left,none,-99,-99,0.2,-99,0,none,34,19,Woman,Right,
23,2,1,0.4674689999992552,['n'],1,right,none,-99,-99,0.2,-99,0,none,34,19,Woman,Right,
0,3,1,1.350603200000478,['c'],0,right,['e'],1,0.8076837000007799,0.4,0,0,none,34,19,Woman,Right,
1,3,1,1.6174434000004112,['n'],0,left,['u'],0,0.957449400000769,0.1,1,0,none,34,19,Woman,Right,
2,3,1,0.9180028999999195,['n'],1,right,['u'],0,0.9373715000001539,0.4,0,0,none,34,19,Woman,Right,
3,3,1,1.051264400000946,['n'],1,right,['e'],1,0.8004567999996652,0.2,1,0,none,34,19,Woman,Right,
4,3,1,0.8177009999999427,['n'],1,right,['u'],0,0.8860017000006337,0.1,0,0,none,34,19,Woman,Right,
5,3,1,0.8013780000001134,['c'],1,left,['e'],1,0.4732547000003251,0.4,1,0,none,34,19,Woman,Right,
6,3,1,1.6169742999991286,['c'],0,right,['e'],1,0.7322401000001264,0.1,0,0,none,34,19,Woman,Right,
7,3,1,1.1014852999996947,['n'],1,right,['u'],0,0.8417980000012903,0.4,0,0,none,34,19,Woman,Right,
8,3,1,0.8674279999995633,['n'],0,left,['e'],1,0.21954399999958696,0.4,0,0,none,34,19,Woman,Right,
9,3,1,0.7491482000004908,['n'],0,left,['e'],1,0.34832559999995283,0.2,0,0,none,34,19,Woman,Right,
10,3,1,0.634078999999474,['n'],1,right,['e'],1,0.5864106999997603,0.1,1,0,none,34,19,Woman,Right,
11,3,1,0.968027599999914,['n'],1,right,['e'],1,0.40261719999944034,0.1,1,0,none,34,19,Woman,Right,
12,3,1,0.7668573999999353,['n'],0,left,['e'],1,0.36224269999911485,0.2,0,0,none,34,19,Woman,Right,
13,3,1,0.6012639999989915,['n'],0,left,['e'],1,0.25036870000076306,0.4,0,0,none,34,19,Woman,Right,
14,3,1,0.5175546999998915,['n'],0,left,['e'],1,0.3219627999988006,0.2,0,0,none,34,19,Woman,Right,
15,3,1,2.3334592999999586,['c'],1,left,['u'],0,0.5105327000001125,0.4,0,0,none,34,19,Woman,Right,
16,3,1,0.9011081999997259,['c'],0,right,['u'],0,0.540866699999242,0.2,1,0,none,34,19,Woman,Right,
17,3,1,2.6341354999985924,['c'],0,right,['e'],1,0.7887854000000516,0.1,0,0,none,34,19,Woman,Right,
18,3,1,1.634421900000234,['c'],0,right,['e'],1,0.2824865000002319,0.2,0,0,none,34,19,Woman,Right,
19,3,1,2.683928200000082,['n'],0,left,['e'],1,0.4266021000003093,0.2,0,0,none,34,19,Woman,Right,
20,3,1,1.8675588000005519,['n'],0,left,['e'],1,0.19745309999962046,0.1,0,0,none,34,19,Woman,Right,
21,3,1,2.3844324000001507,['c'],1,left,['e'],1,0.932848999998896,0.4,1,0,none,34,19,Woman,Right,
22,3,1,2.0166372999992745,['c'],0,right,['e'],1,1.2375803999984782,0.2,0,0,none,34,19,Woman,Right,
23,3,1,1.1827582999994775,['c'],1,left,['u'],0,1.2443674999994982,0.1,0,0,none,34,19,Woman,Right,
0,4,1,5.016442599999209,x,-99,left,none,-99,-99,0.1,-99,1,AccFast,34,19,Woman,Right,
1,4,1,1.3327195000001666,['c'],0,right,['u'],0,0.49047129999962635,0.1,1,0,AccFast,34,19,Woman,Right,
2,4,1,1.4174977999991825,['c'],1,left,['e'],1,0.11245030000100087,0.1,1,0,AccFast,34,19,Woman,Right,
3,4,1,1.7173313999992388,['c'],1,left,['u'],0,0.9057833999995637,0.4,0,0,AccFast,34,19,Woman,Right,
4,4,1,1.0676335999996809,['c'],1,left,['e'],1,0.6536667999989731,0.4,1,0,AccFast,34,19,Woman,Right,
5,4,1,0.9671443000006548,['c'],1,left,['e'],1,0.15934770000058052,0.2,1,0,AccFast,34,19,Woman,Right,
6,4,1,2.050163899999461,['c'],0,right,['e'],1,0.3458723999992799,0.2,0,0,AccFast,34,19,Woman,Right,
7,4,1,2.1009106999990763,['n'],0,left,['u'],0,0.5384810999985348,0.1,1,0,AccFast,34,19,Woman,Right,
8,4,1,2.0506174999991345,['n'],0,left,['u'],0,0.22963259999960428,0.2,1,0,AccFast,34,19,Woman,Right,
9,4,1,2.4507271999991644,['n'],1,right,['e'],1,1.0208378000006633,0.4,1,0,AccFast,34,19,Woman,Right,
10,4,1,1.6506454000009398,['n'],1,right,['u'],0,0.5969879000003857,0.4,0,0,AccFast,34,19,Woman,Right,
11,4,1,2.0168411000013293,['c'],1,left,['e'],1,1.4388390999993135,0.1,1,0,AccFast,34,19,Woman,Right,
12,4,1,2.0666877000003296,['c'],0,right,['u'],0,0.48559969999951136,0.1,1,0,AccFast,34,19,Woman,Right,
13,4,1,1.5843441000015446,['c'],0,right,['u'],0,0.34130370000093535,0.4,1,0,AccFast,34,19,Woman,Right,
14,4,1,1.416698399998495,['c'],0,right,['u'],0,0.9780535999998392,0.2,1,0,AccFast,34,19,Woman,Right,
15,4,1,1.2008012999995117,['n'],1,right,['u'],0,0.6054598000009719,0.4,0,0,AccFast,34,19,Woman,Right,
16,4,1,1.317612900000313,['c'],0,right,['e'],1,1.4592666999997164,0.2,0,0,AccFast,34,19,Woman,Right,
17,4,1,1.1171218999988923,['n'],0,left,['e'],1,0.23977149999882386,0.1,0,0,AccFast,34,19,Woman,Right,
18,4,1,2.2169198999999935,['n'],0,left,['u'],0,0.9599703000003501,0.4,1,0,AccFast,34,19,Woman,Right,
19,4,1,2.967763799999375,['n'],1,right,['u'],0,2.230052999999316,0.1,0,0,AccFast,34,19,Woman,Right,
20,4,1,1.1176292000000103,['n'],1,right,['e'],1,0.22669990000031248,0.2,1,0,AccFast,34,19,Woman,Right,
21,4,1,1.7509813999986363,['c'],1,left,['u'],0,0.6625214999985474,0.4,0,0,AccFast,34,19,Woman,Right,
22,4,1,2.0992401000003156,['c'],0,right,['u'],0,0.6836457999997947,0.4,1,0,AccFast,34,19,Woman,Right,
23,4,1,1.7324058000012883,['n'],0,left,['u'],0,0.6375224999992497,0.1,1,0,AccFast,34,19,Woman,Right,
24,4,1,2.7838302000000112,['n'],1,right,['u'],0,0.5983980999990308,0.2,0,0,AccFast,34,19,Woman,Right,
25,4,1,2.134231300000465,['c'],0,right,['u'],0,1.163684099999955,0.4,1,0,AccFast,34,19,Woman,Right,
26,4,1,1.1674309999998513,['n'],0,left,['e'],1,0.7208447000011802,0.1,0,0,AccFast,34,19,Woman,Right,
27,4,1,1.0006623999997828,['n'],1,right,['e'],1,0.7347363999997469,0.4,1,0,AccFast,34,19,Woman,Right,
28,4,1,1.9006979999994655,['c'],0,right,['u'],0,0.4719593999998324,0.1,1,0,AccFast,34,19,Woman,Right,
29,4,1,1.1825101000013092,['n'],1,right,['u'],0,1.417407799999637,0.4,0,0,AccFast,34,19,Woman,Right,
30,4,1,2.099574500000017,['c'],1,left,['u'],0,0.8303464000000531,0.2,0,0,AccFast,34,19,Woman,Right,
31,4,1,1.2663057999998273,['n'],0,left,['e'],1,0.5414040000014211,0.4,0,0,AccFast,34,19,Woman,Right,
32,4,1,1.200825600000826,['n'],1,right,['e'],1,1.546034499999223,0.1,1,0,AccFast,34,19,Woman,Right,
33,4,1,0.8173377999992226,['n'],0,left,['u'],0,0.8138901000002079,0.1,1,0,AccFast,34,19,Woman,Right,
34,4,1,1.0843004999987897,['n'],0,left,['e'],1,1.0603061000001617,0.1,0,0,AccFast,34,19,Woman,Right,
35,4,1,1.284297999998671,['c'],0,right,['u'],0,0.4256415999989258,0.1,1,0,AccFast,34,19,Woman,Right,
36,4,1,0.8840675999999803,['c'],1,left,['e'],1,0.5840719000007084,0.2,1,0,AccFast,34,19,Woman,Right,
37,4,1,1.2673498999993171,['n'],0,left,['u'],0,0.4486333000004379,0.2,1,0,AccFast,34,19,Woman,Right,
38,4,1,1.567792100000588,['n'],0,left,['e'],1,0.49833699999908276,0.4,0,0,AccFast,34,19,Woman,Right,
39,4,1,1.7673660999989806,['n'],0,left,['e'],1,0.4426054000014119,0.4,0,0,AccFast,34,19,Woman,Right,
40,4,1,0.8509185000002617,['n'],1,right,['e'],1,0.31403360000149405,0.4,1,0,AccFast,34,19,Woman,Right,
41,4,1,1.8340900000002875,['c'],0,right,['u'],0,0.22965280000062194,0.2,1,0,AccFast,34,19,Woman,Right,
42,4,1,0.7341405999995914,['n'],1,right,['e'],1,0.20937550000053307,0.2,1,0,AccFast,34,19,Woman,Right,
43,4,1,1.1513641000001371,['n'],0,left,['u'],0,0.5098393000007491,0.2,1,0,AccFast,34,19,Woman,Right,
44,4,1,0.7506345000001602,['n'],1,right,['e'],1,0.4463558000006742,0.1,1,0,AccFast,34,19,Woman,Right,
45,4,1,1.2841125999984797,['c'],0,right,['u'],0,0.3474730999987514,0.1,1,0,AccFast,34,19,Woman,Right,
46,4,1,1.000952899999902,['c'],1,left,['e'],1,0.24771460000010848,0.4,1,0,AccFast,34,19,Woman,Right,
47,4,1,0.7675208000000566,['n'],0,left,['e'],1,0.3854324000003544,0.1,0,0,AccFast,34,19,Woman,Right,
48,4,1,1.0349108999998862,['c'],1,left,['e'],1,0.2191487000000052,0.2,1,0,AccFast,34,19,Woman,Right,
49,4,1,0.7011531999996805,['n'],0,left,['e'],1,0.2646813999999722,0.4,0,0,AccFast,34,19,Woman,Right,
50,4,1,0.8503827999993518,['c'],1,left,['e'],1,0.1904936999999336,0.1,1,0,AccFast,34,19,Woman,Right,
51,4,1,1.066453100000217,['n'],1,right,['e'],1,0.19091200000002573,0.2,1,0,AccFast,34,19,Woman,Right,
52,4,1,0.8676170000017009,['c'],0,right,['e'],1,0.3274137000007613,0.2,0,0,AccFast,34,19,Woman,Right,
53,4,1,0.6340118000007351,['n'],1,right,['e'],1,0.2117404999989958,0.4,1,0,AccFast,34,19,Woman,Right,
54,4,1,0.6672221999997419,['n'],1,right,['e'],1,0.1313345999988087,0.2,1,0,AccFast,34,19,Woman,Right,
55,4,1,1.2336429999995744,['n'],0,left,['u'],0,1.0712445999997726,0.2,1,0,AccFast,34,19,Woman,Right,
56,4,1,0.950839500001166,['c'],1,left,['e'],1,0.16092589999971096,0.4,1,0,AccFast,34,19,Woman,Right,
57,4,1,0.6847526999990805,['n'],1,right,['u'],0,0.5298153999992792,0.2,0,0,AccFast,34,19,Woman,Right,
58,4,1,0.9006124000006821,['c'],1,left,['e'],1,0.3310707000000548,0.1,1,0,AccFast,34,19,Woman,Right,
59,4,1,1.8341536000007181,['c'],0,right,['u'],0,0.5666905000016413,0.2,1,0,AccFast,34,19,Woman,Right,
0,5,1,2.284026100000119,['n'],1,right,['e'],1,0.42034070000045176,0.2,1,0,AccAcc,34,19,Woman,Right,
1,5,1,0.9990109000009397,['n'],1,right,['e'],1,0.7346844999992754,0.4,1,0,AccAcc,34,19,Woman,Right,
2,5,1,0.9169928999999684,['n'],1,right,['e'],1,0.2226332000009279,0.4,1,0,AccAcc,34,19,Woman,Right,
3,5,1,1.2341352999992523,['c'],0,right,['u'],0,0.4389819999996689,0.2,1,0,AccAcc,34,19,Woman,Right,
4,5,1,0.6668121999991854,['n'],1,right,['u'],0,0.7334050999997999,0.1,0,0,AccAcc,34,19,Woman,Right,
5,5,1,0.9503308999992441,['n'],1,right,['u'],0,0.6206784000005428,0.1,0,0,AccAcc,34,19,Woman,Right,
6,5,1,1.2506792999993195,['n'],1,right,['u'],0,0.5803589000006468,0.1,0,0,AccAcc,34,19,Woman,Right,
7,5,1,1.217631800000163,['c'],1,left,['e'],1,0.3506120000001829,0.1,1,0,AccAcc,34,19,Woman,Right,
8,5,1,1.3171774999991612,['c'],1,left,['e'],1,0.2708669999992708,0.4,1,0,AccAcc,34,19,Woman,Right,
9,5,1,0.967045399998824,['n'],1,right,['u'],0,0.27148900000065623,0.2,0,0,AccAcc,34,19,Woman,Right,
10,5,1,0.7511286999997537,['c'],1,left,['u'],0,0.3933739999993122,0.2,0,0,AccAcc,34,19,Woman,Right,
11,5,1,1.152125900000101,['n'],1,right,['u'],0,0.3662406000003102,0.1,0,0,AccAcc,34,19,Woman,Right,
12,5,1,0.7001880999996501,['n'],1,right,['e'],1,0.3100490999986505,0.4,1,0,AccAcc,34,19,Woman,Right,
13,5,1,1.1173404999990453,['c'],1,left,['e'],1,0.2718239000005269,0.2,1,0,AccAcc,34,19,Woman,Right,
14,5,1,1.5334483999995427,['n'],1,right,['e'],1,0.7621871000010287,0.1,1,0,AccAcc,34,19,Woman,Right,
15,5,1,0.9677518000007694,['c'],1,left,['e'],1,0.4071222000002308,0.4,1,0,AccAcc,34,19,Woman,Right,
16,5,1,1.4005626000016491,['n'],1,right,['u'],0,0.4501923000007082,0.1,0,0,AccAcc,34,19,Woman,Right,
17,5,1,0.9174373000005289,['c'],1,left,['e'],1,0.3657585000000836,0.2,1,0,AccAcc,34,19,Woman,Right,
18,5,1,0.8670365999987553,['c'],1,left,['u'],0,0.5108433999994304,0.1,0,0,AccAcc,34,19,Woman,Right,
19,5,1,0.7002081999999064,['c'],1,left,['e'],1,0.3209504999995261,0.2,1,0,AccAcc,34,19,Woman,Right,
20,5,1,0.7340371999998752,['c'],1,left,['u'],0,0.314607000000251,0.4,0,0,AccAcc,34,19,Woman,Right,
21,5,1,0.8509419000001799,['c'],1,left,['e'],1,0.3810619999985647,0.4,1,0,AccAcc,34,19,Woman,Right,
22,5,1,0.850691800000277,['c'],1,left,['e'],1,0.3340736000009201,0.4,1,0,AccAcc,34,19,Woman,Right,
23,5,1,0.8181039999999484,['n'],1,right,['e'],1,0.19433219999882567,0.2,1,0,AccAcc,34,19,Woman,Right,
24,5,1,0.6346585999999661,['c'],1,left,['e'],1,0.45258579999972426,0.2,1,0,AccAcc,34,19,Woman,Right,
25,5,1,0.8009954999997717,['n'],1,right,['e'],1,0.8683951000002708,0.1,1,0,AccAcc,34,19,Woman,Right,
26,5,1,2.5672291000009864,['c'],1,left,['u'],0,0.2378429000000324,0.1,0,0,AccAcc,34,19,Woman,Right,
27,5,1,0.8842714000002161,['n'],1,right,['u'],0,0.7878314999998111,0.2,0,0,AccAcc,34,19,Woman,Right,
28,5,1,1.200740999998743,['c'],0,right,['u'],0,0.21494110000094224,0.1,1,0,AccAcc,34,19,Woman,Right,
29,5,1,1.6335594000011042,['c'],1,left,['u'],0,0.19114140000056068,0.1,0,0,AccAcc,34,19,Woman,Right,
30,5,1,1.1011256000001595,['n'],0,left,['u'],0,0.3503556000014214,0.4,1,0,AccAcc,34,19,Woman,Right,
31,5,1,1.26758830000108,['c'],1,left,['e'],1,0.8641306999998051,0.4,1,0,AccAcc,34,19,Woman,Right,
32,5,1,0.8511048000000301,['n'],1,right,['e'],1,0.38176579999890237,0.1,1,0,AccAcc,34,19,Woman,Right,
33,5,1,2.3174173000006704,['c'],0,right,['u'],0,0.5325837999989744,0.4,1,0,AccAcc,34,19,Woman,Right,
34,5,1,1.867162799999278,['c'],0,right,['u'],0,0.775089200000366,0.1,1,0,AccAcc,34,19,Woman,Right,
35,5,1,3.332806399999754,['n'],1,right,['e'],1,0.3581429999994725,0.4,1,0,AccAcc,34,19,Woman,Right,
36,5,1,1.317404899999019,['n'],1,right,['u'],0,0.6456081000014819,0.4,0,0,AccAcc,34,19,Woman,Right,
37,5,1,1.034367199999906,['n'],1,right,['u'],0,0.42055120000077295,0.2,0,0,AccAcc,34,19,Woman,Right,
38,5,1,0.9342312999997375,['c'],1,left,['u'],0,0.625088799999503,0.4,0,0,AccAcc,34,19,Woman,Right,
39,5,1,1.7836864000000787,['n'],1,right,['u'],0,0.1636030000008759,0.4,0,0,AccAcc,34,19,Woman,Right,
40,5,1,0.9337498999993841,['c'],1,left,['u'],0,0.42627319999883184,0.2,0,0,AccAcc,34,19,Woman,Right,
41,5,1,1.2322756000012305,['c'],1,left,['u'],0,0.31558249999943655,0.2,0,0,AccAcc,34,19,Woman,Right,
42,5,1,2.45082629999888,['c'],1,left,['u'],0,0.2544640000014624,0.1,0,0,AccAcc,34,19,Woman,Right,
43,5,1,1.4176649000000907,['n'],0,left,['u'],0,0.5421779999996943,0.2,1,0,AccAcc,34,19,Woman,Right,
44,5,1,3.1504304999998567,['n'],0,left,['u'],0,0.2376481999999669,0.4,1,0,AccAcc,34,19,Woman,Right,
45,5,1,2.049817399998574,['n'],1,right,['u'],0,0.3892409999989468,0.2,0,0,AccAcc,34,19,Woman,Right,
46,5,1,2.0007513999989897,['c'],0,right,['u'],0,0.5199888000006467,0.1,1,0,AccAcc,34,19,Woman,Right,
47,5,1,1.26707130000068,['n'],0,left,['u'],0,0.3551853000008123,0.4,1,0,AccAcc,34,19,Woman,Right,
48,5,1,0.8509747999996762,['n'],0,left,['u'],0,0.3255422999991424,0.4,1,0,AccAcc,34,19,Woman,Right,
49,5,1,2.9498644999985117,['n'],0,left,['u'],0,0.4698277000006783,0.2,1,0,AccAcc,34,19,Woman,Right,
50,5,1,2.550353000000541,['n'],1,right,['u'],0,0.22399330000007467,0.1,0,0,AccAcc,34,19,Woman,Right,
51,5,1,2.266616499999145,['c'],1,left,['u'],0,0.19069799999851966,0.2,0,0,AccAcc,34,19,Woman,Right,
52,5,1,1.6005113999999594,['c'],1,left,['u'],0,0.2658245000002353,0.4,0,0,AccAcc,34,19,Woman,Right,
53,5,1,1.3338896000004752,['c'],1,left,['u'],0,0.3327193000004627,0.4,0,0,AccAcc,34,19,Woman,Right,
54,5,1,1.667874999999185,['n'],1,right,['u'],0,0.6707333999984257,0.2,0,0,AccAcc,34,19,Woman,Right,
55,5,1,1.967268399999739,['n'],0,left,['u'],0,0.42396280000139086,0.1,1,0,AccAcc,34,19,Woman,Right,
56,5,1,2.533639100000073,['c'],1,left,['u'],0,0.5968584000002011,0.2,0,0,AccAcc,34,19,Woman,Right,
57,5,1,2.3835025999997015,['n'],1,right,['u'],0,0.44786239999848476,0.1,0,0,AccAcc,34,19,Woman,Right,
58,5,1,1.401166200001171,['n'],1,right,['u'],0,0.23257809999995516,0.1,0,0,AccAcc,34,19,Woman,Right,
59,5,1,2.4833582999999635,['c'],0,right,['u'],0,0.4463945999996213,0.2,1,0,AccAcc,34,19,Woman,Right,
0,6,1,1.0505871000004845,['n'],0,left,['u'],0,0.40297280000049795,0.4,1,0,FastAcc,34,19,Woman,Right,
1,6,1,1.2008079000006546,['c'],1,left,['u'],0,0.3094003000005614,0.4,0,0,FastAcc,34,19,Woman,Right,
2,6,1,0.8010221999993519,['n'],0,left,['u'],0,0.33172239999839803,0.2,1,0,FastAcc,34,19,Woman,Right,
3,6,1,0.8675127000005887,['n'],0,left,['u'],0,1.214175700000851,0.2,1,0,FastAcc,34,19,Woman,Right,
4,6,1,1.0338574000015797,['c'],0,right,['u'],0,0.8547873999996227,0.2,1,0,FastAcc,34,19,Woman,Right,
5,6,1,0.6343401000012818,['n'],0,left,['e'],1,0.6057968999994046,0.2,0,0,FastAcc,34,19,Woman,Right,
6,6,1,0.8174748000001273,['n'],1,right,['e'],1,0.2154740000005404,0.2,1,0,FastAcc,34,19,Woman,Right,
7,6,1,0.7509350000000268,['n'],1,right,['e'],1,0.17916429999968386,0.4,1,0,FastAcc,34,19,Woman,Right,
8,6,1,0.6667234000015014,['n'],1,right,['e'],1,0.3075435999999172,0.2,1,0,FastAcc,34,19,Woman,Right,
9,6,1,0.9508495999998559,['n'],1,right,['u'],0,1.0918815000004543,0.4,0,0,FastAcc,34,19,Woman,Right,
10,6,1,0.767378300000928,['n'],0,left,['e'],1,0.4923713999996835,0.1,0,0,FastAcc,34,19,Woman,Right,
11,6,1,0.8496568000009574,['n'],1,right,['e'],1,0.23465109999960987,0.4,1,0,FastAcc,34,19,Woman,Right,
12,6,1,0.7021922000003542,['n'],1,right,['u'],0,0.8223661000010907,0.2,0,0,FastAcc,34,19,Woman,Right,
13,6,1,0.9840676000003441,['n'],0,left,['e'],1,1.5051793000002363,0.2,0,0,FastAcc,34,19,Woman,Right,
14,6,1,0.6497851999993145,['n'],0,left,['u'],0,0.41391070000099717,0.1,1,0,FastAcc,34,19,Woman,Right,
15,6,1,0.6843487000005553,['n'],1,right,['e'],1,0.19577990000107093,0.2,1,0,FastAcc,34,19,Woman,Right,
16,6,1,1.2999135999998543,['c'],0,right,['u'],0,0.39427769999929296,0.1,1,0,FastAcc,34,19,Woman,Right,
17,6,1,0.6505627000005916,['c'],1,left,['u'],0,0.2754789999999048,0.1,0,0,FastAcc,34,19,Woman,Right,
18,6,1,1.3844802000003256,['n'],1,right,['u'],0,0.30762740000136546,0.2,0,0,FastAcc,34,19,Woman,Right,
19,6,1,0.6661477999987255,['c'],0,right,['u'],0,0.3679002999997465,0.1,1,0,FastAcc,34,19,Woman,Right,
20,6,1,1.13325789999908,['c'],1,left,['e'],1,0.5497642999998789,0.4,1,0,FastAcc,34,19,Woman,Right,
21,6,1,0.9174606999986281,['n'],0,left,['e'],1,0.9734668000000966,0.1,0,0,FastAcc,34,19,Woman,Right,
22,6,1,0.7841838999993342,['c'],1,left,['e'],1,0.20218580000073416,0.4,1,0,FastAcc,34,19,Woman,Right,
23,6,1,0.8498271000007662,['n'],0,left,['u'],0,0.27480429999923217,0.4,1,0,FastAcc,34,19,Woman,Right,
24,6,1,1.2672301000002335,['c'],0,right,['u'],0,0.7115035000006174,0.1,1,0,FastAcc,34,19,Woman,Right,
25,6,1,0.7502610999999888,['n'],1,right,['e'],1,0.43197390000023006,0.1,1,0,FastAcc,34,19,Woman,Right,
26,6,1,1.2830525999997917,['c'],1,left,['e'],1,0.2219161000011809,0.4,1,0,FastAcc,34,19,Woman,Right,
27,6,1,0.7176209999997809,['n'],1,right,['e'],1,0.23456239999904938,0.2,1,0,FastAcc,34,19,Woman,Right,
28,6,1,0.7837108000003354,['c'],1,left,['e'],1,0.1809969000005367,0.2,1,0,FastAcc,34,19,Woman,Right,
29,6,1,0.584139900000082,['n'],0,left,['e'],1,0.6639689999992697,0.1,0,0,FastAcc,34,19,Woman,Right,
30,6,1,0.7183796000008442,['n'],0,left,['e'],1,0.1471110000002227,0.1,0,0,FastAcc,34,19,Woman,Right,
31,6,1,1.06716840000081,['n'],1,right,['e'],1,0.7570322999999917,0.2,1,0,FastAcc,34,19,Woman,Right,
32,6,1,1.0507453999998688,['c'],0,right,['e'],1,1.0233407000014267,0.1,0,0,FastAcc,34,19,Woman,Right,
33,6,1,0.7498861999993096,['n'],1,right,['e'],1,0.2197558999996545,0.1,1,0,FastAcc,34,19,Woman,Right,
34,6,1,0.9674042999995436,['c'],1,left,['e'],1,0.9581352000004699,0.4,1,0,FastAcc,34,19,Woman,Right,
35,6,1,0.8175611999995454,['n'],1,right,['e'],1,0.2177811000001384,0.2,1,0,FastAcc,34,19,Woman,Right,
36,6,1,0.7178989000003639,['c'],1,left,['e'],1,0.21493909999844618,0.2,1,0,FastAcc,34,19,Woman,Right,
37,6,1,0.6672848999987764,['n'],0,left,['e'],1,0.1979155000008177,0.2,0,0,FastAcc,34,19,Woman,Right,
38,6,1,2.467453100000057,['c'],1,left,['u'],0,0.39771380000092904,0.1,0,0,FastAcc,34,19,Woman,Right,
39,6,1,1.1673566999998002,['n'],1,right,['e'],1,0.16162719999920228,0.4,1,0,FastAcc,34,19,Woman,Right,
40,6,1,0.5520339000013337,['n'],1,right,['e'],1,0.12026890000015555,0.4,1,0,FastAcc,34,19,Woman,Right,
41,6,1,0.8009416000004421,['c'],1,left,['e'],1,0.2617745000006835,0.2,1,0,FastAcc,34,19,Woman,Right,
42,6,1,0.7507526999997935,['n'],1,right,['e'],1,0.17592379999950936,0.4,1,0,FastAcc,34,19,Woman,Right,
43,6,1,1.2182672999988426,['c'],1,left,['u'],0,0.42718129999957455,0.1,0,0,FastAcc,34,19,Woman,Right,
44,6,1,0.9514283999997133,['n'],1,right,['e'],1,0.5188706999997521,0.1,1,0,FastAcc,34,19,Woman,Right,
45,6,1,0.7511220000014873,['n'],1,right,['e'],1,0.2304530999990675,0.4,1,0,FastAcc,34,19,Woman,Right,
46,6,1,0.6009682999992947,['n'],1,right,['e'],1,0.19960010000067996,0.4,1,0,FastAcc,34,19,Woman,Right,
47,6,1,0.6674931999987166,['n'],1,right,['e'],1,0.19925100000000384,0.1,1,0,FastAcc,34,19,Woman,Right,
48,6,1,0.5829118000001472,['n'],0,left,['e'],1,0.15448819999983243,0.4,0,0,FastAcc,34,19,Woman,Right,
49,6,1,0.6333816000005754,['n'],0,left,['e'],1,0.15718249999918044,0.4,0,0,FastAcc,34,19,Woman,Right,
50,6,1,0.6337941000001592,['n'],0,left,['e'],1,0.19221379999908095,0.1,0,0,FastAcc,34,19,Woman,Right,
51,6,1,0.8008609000007709,['n'],1,right,['e'],1,0.25136579999889364,0.4,1,0,FastAcc,34,19,Woman,Right,
52,6,1,1.150419100000363,['n'],1,right,['e'],1,0.30959709999842744,0.4,1,0,FastAcc,34,19,Woman,Right,
53,6,1,1.0844367000008788,['n'],1,right,['e'],1,0.336725999999544,0.4,1,0,FastAcc,34,19,Woman,Right,
54,6,1,1.5675604999996722,['n'],1,right,['e'],1,0.43920559999969555,0.1,1,0,FastAcc,34,19,Woman,Right,
55,6,1,1.6840099000000919,['n'],1,right,['e'],1,1.0450181999985944,0.2,1,0,FastAcc,34,19,Woman,Right,
56,6,1,1.7661913000010827,['n'],0,left,['e'],1,0.47214140000141924,0.2,0,0,FastAcc,34,19,Woman,Right,
57,6,1,4.100371799999266,['n'],0,left,['u'],0,0.29109969999990426,0.1,1,0,FastAcc,34,19,Woman,Right,
58,6,1,1.5340992999990704,['n'],0,left,['u'],0,0.22129550000136078,0.1,1,0,FastAcc,34,19,Woman,Right,
59,6,1,0.9009773999987374,['n'],0,left,['u'],0,0.19459479999932228,0.2,1,0,FastAcc,34,19,Woman,Right,
0,7,1,1.7010671999996703,['n'],0,left,['u'],0,0.7374809000011737,0.2,1,0,FastFast,34,19,Woman,Right,
1,7,1,0.9505392999999458,['n'],1,right,['u'],0,0.3520909999988362,0.1,0,0,FastFast,34,19,Woman,Right,
2,7,1,1.7839261000008264,['c'],0,right,['u'],0,0.07759070000065549,0.1,1,0,FastFast,34,19,Woman,Right,
3,7,1,0.7508503999997629,['n'],0,left,['e'],1,0.23881110000002082,0.2,0,0,FastFast,34,19,Woman,Right,
4,7,1,0.5336938000000373,['n'],0,left,['e'],1,0.08302300000104879,0.4,0,0,FastFast,34,19,Woman,Right,
5,7,1,1.3672344000005978,['n'],0,left,['e'],1,0.34707390000039595,0.1,0,0,FastFast,34,19,Woman,Right,
6,7,1,1.2002479000002495,['n'],0,left,['e'],1,0.20765539999956673,0.1,0,0,FastFast,34,19,Woman,Right,
7,7,1,1.4006729000011546,['n'],1,right,['e'],1,0.1779406999994535,0.4,1,0,FastFast,34,19,Woman,Right,
8,7,1,3.6837171000006492,['n'],1,right,['e'],1,1.0666593999994802,0.4,1,0,FastFast,34,19,Woman,Right,
9,7,1,2.4663904000008188,['n'],1,right,['u'],0,1.6172650999997131,0.2,0,0,FastFast,34,19,Woman,Right,
10,7,1,2.5838154000011855,['c'],0,right,['u'],0,1.0990782999997464,0.2,1,0,FastFast,34,19,Woman,Right,
11,7,1,3.133791600001132,['n'],1,right,['e'],1,1.5884083000000828,0.4,1,0,FastFast,34,19,Woman,Right,
12,7,1,1.1505023000008805,['c'],1,left,['e'],1,0.2656506999992416,0.4,1,0,FastFast,34,19,Woman,Right,
13,7,1,1.751195299999381,['c'],0,right,['u'],0,0.6514438000012888,0.1,1,0,FastFast,34,19,Woman,Right,
14,7,1,1.8343317999988358,['c'],1,left,['u'],0,1.4507857000007789,0.2,0,0,FastFast,34,19,Woman,Right,
15,7,1,0.7842528999990463,['n'],1,right,['e'],1,0.22792070000105014,0.2,1,0,FastFast,34,19,Woman,Right,
16,7,1,2.08520739999949,['n'],1,right,['e'],1,0.13886590000038268,0.4,1,0,FastFast,34,19,Woman,Right,
17,7,1,1.634154600000329,['c'],1,left,['e'],1,0.150389799999175,0.4,1,0,FastFast,34,19,Woman,Right,
18,7,1,1.1000799000012194,['c'],1,left,['e'],1,0.182674900001075,0.4,1,0,FastFast,34,19,Woman,Right,
19,7,1,3.617086800000834,['n'],1,right,['e'],1,0.22522720000051777,0.2,1,0,FastFast,34,19,Woman,Right,
20,7,1,2.483907100000579,['n'],1,right,['u'],0,0.3438442999995459,0.2,0,0,FastFast,34,19,Woman,Right,
21,7,1,0.9014389000003575,['c'],0,right,['e'],1,0.21696040000097128,0.1,0,0,FastFast,34,19,Woman,Right,
22,7,1,1.8340337999998155,['c'],1,left,['u'],0,0.28145889999905194,0.1,0,0,FastFast,34,19,Woman,Right,
23,7,1,0.8169097999998485,['c'],1,left,['u'],0,0.19188519999988785,0.4,0,0,FastFast,34,19,Woman,Right,
24,7,1,2.900396200000614,['n'],1,right,['u'],0,0.7111521999995603,0.1,0,0,FastFast,34,19,Woman,Right,
25,7,1,0.8178267000002961,['c'],1,left,['e'],1,1.0531718000002002,0.2,1,0,FastFast,34,19,Woman,Right,
26,7,1,1.6992867000008118,['n'],1,right,['u'],0,0.3546827000009216,0.1,0,0,FastFast,34,19,Woman,Right,
27,7,1,1.1844631000003574,['c'],0,right,['u'],0,0.8067199999986769,0.2,1,0,FastFast,34,19,Woman,Right,
28,7,1,1.934323100000256,['c'],0,right,['u'],0,0.09220160000040778,0.2,1,0,FastFast,34,19,Woman,Right,
29,7,1,0.7004010000000562,['c'],1,left,['u'],0,0.11094930000035674,0.4,0,0,FastFast,34,19,Woman,Right,
30,7,1,3.050389999998515,['n'],0,left,['u'],0,0.5159017000005406,0.1,1,0,FastFast,34,19,Woman,Right,
31,7,1,1.1497667000003275,['n'],1,right,['e'],1,0.14838330000020505,0.4,1,0,FastFast,34,19,Woman,Right,
32,7,1,0.8169447999989643,['c'],1,left,['e'],1,0.1596594999991794,0.2,1,0,FastFast,34,19,Woman,Right,
33,7,1,2.100960700001451,['n'],1,right,['e'],1,0.3434820000002219,0.2,1,0,FastFast,34,19,Woman,Right,
34,7,1,1.101110300000073,['c'],1,left,['e'],1,0.11257200000000012,0.2,1,0,FastFast,34,19,Woman,Right,
35,7,1,0.7503978999993706,['n'],1,right,['e'],1,0.1120933000001969,0.1,1,0,FastFast,34,19,Woman,Right,
36,7,1,3.8003607999999076,['c'],1,left,['u'],0,0.3423430000002554,0.1,0,0,FastFast,34,19,Woman,Right,
37,7,1,3.4176508000000467,['n'],0,left,['u'],0,1.331593900000371,0.1,1,0,FastFast,34,19,Woman,Right,
38,7,1,2.0665120000012394,['n'],1,right,['u'],0,0.3658336999997118,0.1,0,0,FastFast,34,19,Woman,Right,
39,7,1,3.100666700000147,['n'],0,left,['u'],0,0.34172450000005483,0.1,1,0,FastFast,34,19,Woman,Right,
40,7,1,0.6680529000004753,['c'],0,right,['u'],0,0.46424289999959,0.2,1,0,FastFast,34,19,Woman,Right,
41,7,1,2.11676609999995,['n'],0,left,['u'],0,0.2994328000004316,0.2,1,0,FastFast,34,19,Woman,Right,
42,7,1,1.733320499999536,['n'],0,left,['u'],0,0.34913390000110667,0.2,1,0,FastFast,34,19,Woman,Right,
43,7,1,1.233680800000002,['c'],1,left,['u'],0,0.2560770000000048,0.4,0,0,FastFast,34,19,Woman,Right,
44,7,1,1.1660833999994793,['c'],0,right,['u'],0,0.8746198999997432,0.4,1,0,FastFast,34,19,Woman,Right,
45,7,1,2.85054990000026,['n'],0,left,['u'],0,0.35985040000014124,0.4,1,0,FastFast,34,19,Woman,Right,
46,7,1,3.3505453999987367,['n'],1,right,['u'],0,0.566348399999697,0.1,0,0,FastFast,34,19,Woman,Right,
47,7,1,4.017060700000002,['c'],0,right,['u'],0,0.24183740000080434,0.2,1,0,FastFast,34,19,Woman,Right,
48,7,1,2.2346381999996083,['n'],0,left,['u'],0,0.577749699999913,0.1,1,0,FastFast,34,19,Woman,Right,
49,7,1,1.217421600000307,['c'],1,left,['e'],1,0.861340299999938,0.4,1,0,FastFast,34,19,Woman,Right,
50,7,1,2.8007051999993564,['c'],1,left,['u'],0,0.4454323999998451,0.2,0,0,FastFast,34,19,Woman,Right,
51,7,1,0.9005908999988606,['n'],1,right,['e'],1,0.5700854999995499,0.4,1,0,FastFast,34,19,Woman,Right,
52,7,1,0.9337945999996009,['n'],1,right,['e'],1,0.1283069000000978,0.4,1,0,FastFast,34,19,Woman,Right,
53,7,1,0.7843723999994836,['c'],1,left,['e'],1,0.22197880000021541,0.4,1,0,FastFast,34,19,Woman,Right,
54,7,1,1.200453199999174,['n'],0,left,['e'],1,0.16782179999972868,0.1,0,0,FastFast,34,19,Woman,Right,
55,7,1,0.8011642000001302,['c'],1,left,['e'],1,0.16359769999871787,0.2,1,0,FastFast,34,19,Woman,Right,
56,7,1,0.8341237999993609,['n'],1,right,['e'],1,0.15776249999908032,0.1,1,0,FastFast,34,19,Woman,Right,
57,7,1,1.0174411999996664,['c'],1,left,['e'],1,0.20956010000008973,0.4,1,0,FastFast,34,19,Woman,Right,
58,7,1,0.9681246000000101,['n'],1,right,['u'],0,1.2211728999991465,0.1,0,0,FastFast,34,19,Woman,Right,
59,7,1,0.8175599999995029,['n'],1,right,['e'],1,0.13438859999951092,0.4,1,0,FastFast,34,19,Woman,Right,
0,8,1,1.5672348999996757,['n'],0,left,['e'],1,0.8518316999998206,0.2,0,0,AccFast,34,19,Woman,Right,
1,8,1,1.3496063999991748,['c'],1,left,['u'],0,0.31828020000102697,0.1,0,0,AccFast,34,19,Woman,Right,
2,8,1,0.7012151999988419,['n'],1,right,['e'],1,0.21579799999926763,0.4,1,0,AccFast,34,19,Woman,Right,
3,8,1,0.6674077000006946,['c'],1,left,['e'],1,0.35907419999966805,0.2,1,0,AccFast,34,19,Woman,Right,
4,8,1,0.7168643999993947,['n'],1,right,['e'],1,0.3025835999997071,0.2,1,0,AccFast,34,19,Woman,Right,
5,8,1,0.7008879000004526,['n'],1,right,['e'],1,0.18489319999935105,0.2,1,0,AccFast,34,19,Woman,Right,
6,8,1,0.7010529999988648,['c'],1,left,['e'],1,0.2639643000002252,0.4,1,0,AccFast,34,19,Woman,Right,
7,8,1,0.7678015000001324,['n'],1,right,['e'],1,0.273306600000069,0.4,1,0,AccFast,34,19,Woman,Right,
8,8,1,1.0839682999994693,['c'],1,left,['e'],1,6.061319899999944,0.4,1,0,AccFast,34,19,Woman,Right,
9,8,1,1.4675076999992598,['c'],1,left,['e'],1,0.787448700000823,0.1,1,0,AccFast,34,19,Woman,Right,
10,8,1,0.5668640999992931,['n'],1,right,['e'],1,0.35176159999900847,0.4,1,0,AccFast,34,19,Woman,Right,
11,8,1,1.6493186999996396,['c'],0,right,['u'],0,0.4185120000001916,0.1,1,0,AccFast,34,19,Woman,Right,
12,8,1,0.9002488000005542,['c'],1,left,['e'],1,0.9759685000008176,0.2,1,0,AccFast,34,19,Woman,Right,
13,8,1,0.8507724999999482,['c'],0,right,['u'],0,0.6340253999987908,0.1,1,0,AccFast,34,19,Woman,Right,
14,8,1,0.6991680999999517,['c'],1,left,['e'],1,0.28000450000035926,0.4,1,0,AccFast,34,19,Woman,Right,
15,8,1,2.601305500000308,['n'],0,left,['u'],0,0.6622503999988112,0.1,1,0,AccFast,34,19,Woman,Right,
16,8,1,2.01666540000042,['n'],1,right,['e'],1,0.2694563000004564,0.4,1,0,AccFast,34,19,Woman,Right,
17,8,1,0.5675358999997115,['c'],1,left,['e'],1,0.25429369999983464,0.4,1,0,AccFast,34,19,Woman,Right,
18,8,1,0.6011230000003707,['n'],1,right,['e'],1,0.15873300000021118,0.1,1,0,AccFast,34,19,Woman,Right,
19,8,1,0.7172083000004932,['c'],0,right,['e'],1,0.2703801999996358,0.1,0,0,AccFast,34,19,Woman,Right,
20,8,1,0.9505444000005809,['c'],0,right,['u'],0,1.5521248000004562,0.1,1,0,AccFast,34,19,Woman,Right,
21,8,1,0.6840689999989991,['n'],0,left,['e'],1,2.4254557999993267,0.1,0,0,AccFast,34,19,Woman,Right,
22,8,1,0.7006711000012729,['c'],1,left,['e'],1,0.7192073000005621,0.4,1,0,AccFast,34,19,Woman,Right,
23,8,1,0.6334200000001147,['c'],1,left,['e'],1,0.41202139999950305,0.2,1,0,AccFast,34,19,Woman,Right,
24,8,1,0.6329164999988279,['n'],1,right,['e'],1,0.18074820000038017,0.4,1,0,AccFast,34,19,Woman,Right,
25,8,1,2.7170567000011943,['n'],1,right,['u'],0,0.7713750999992044,0.1,0,0,AccFast,34,19,Woman,Right,
26,8,1,1.6677393999998458,['n'],0,left,['e'],1,0.8206355000002077,0.1,0,0,AccFast,34,19,Woman,Right,
27,8,1,1.6506673999992927,['c'],0,right,['u'],0,0.4684199000002991,0.2,1,0,AccFast,34,19,Woman,Right,
28,8,1,0.7842366999993828,['c'],1,left,['u'],0,1.1567004999997152,0.1,0,0,AccFast,34,19,Woman,Right,
29,8,1,0.534423400000378,['n'],1,right,['e'],1,0.3079574000003049,0.1,1,0,AccFast,34,19,Woman,Right,
30,8,1,0.5009043000009115,['c'],1,left,['e'],1,0.1982348000001366,0.1,1,0,AccFast,34,19,Woman,Right,
31,8,1,0.6336642999995092,['n'],0,left,['e'],1,0.2959366000013688,0.2,0,0,AccFast,34,19,Woman,Right,
32,8,1,0.7004386999997223,['c'],1,left,['e'],1,0.19360890000098152,0.2,1,0,AccFast,34,19,Woman,Right,
33,8,1,0.5842310999996698,['n'],1,right,['e'],1,0.2773802000010619,0.2,1,0,AccFast,34,19,Woman,Right,
34,8,1,0.7844963999996253,['n'],1,right,['u'],0,0.3657658999982232,0.2,0,0,AccFast,34,19,Woman,Right,
35,8,1,0.6827826000007917,['c'],0,right,['u'],0,2.0392642000006163,0.2,1,0,AccFast,34,19,Woman,Right,
36,8,1,2.017565399999512,['c'],1,left,['u'],0,0.21479009999893606,0.2,0,0,AccFast,34,19,Woman,Right,
37,8,1,0.866568900000857,['c'],1,left,['u'],0,0.2706060000000434,0.2,0,0,AccFast,34,19,Woman,Right,
38,8,1,0.8511280999991868,['n'],1,right,['u'],0,0.33955340000102296,0.4,0,0,AccFast,34,19,Woman,Right,
39,8,1,0.7842842000009114,['c'],1,left,['u'],0,0.23327539999991131,0.2,0,0,AccFast,34,19,Woman,Right,
40,8,1,0.9005015999991883,['c'],1,left,['u'],0,2.767081200001485,0.1,0,0,AccFast,34,19,Woman,Right,
41,8,1,0.6842900000010559,['c'],1,left,['e'],1,0.391064199999164,0.1,1,0,AccFast,34,19,Woman,Right,
42,8,1,0.8173817000006238,['n'],1,right,['e'],1,0.24943719999828318,0.4,1,0,AccFast,34,19,Woman,Right,
43,8,1,0.7006060999992769,['n'],1,right,['e'],1,1.0936985000007553,0.4,1,0,AccFast,34,19,Woman,Right,
44,8,1,0.6678302000000258,['n'],1,right,['e'],1,0.3381621000007726,0.2,1,0,AccFast,34,19,Woman,Right,
45,8,1,1.0338239000011527,['c'],1,left,['u'],0,0.9579587999996875,0.4,0,0,AccFast,34,19,Woman,Right,
46,8,1,0.8830466999988857,['n'],1,right,['e'],1,0.2631649999984802,0.2,1,0,AccFast,34,19,Woman,Right,
47,8,1,2.1007474000016373,['c'],1,left,['u'],0,0.362903199998982,0.1,0,0,AccFast,34,19,Woman,Right,
48,8,1,0.7837007000016456,['n'],1,right,['e'],1,0.2873455999997532,0.4,1,0,AccFast,34,19,Woman,Right,
49,8,1,0.9829284999996162,['n'],0,left,['e'],1,0.7361086999990221,0.2,0,0,AccFast,34,19,Woman,Right,
50,8,1,0.7005971999988105,['n'],0,left,['e'],1,0.2962504999995872,0.1,0,0,AccFast,34,19,Woman,Right,
51,8,1,0.9340716000006068,['n'],1,right,['u'],0,0.2012483999988035,0.2,0,0,AccFast,34,19,Woman,Right,
52,8,1,0.984206200000699,['n'],1,right,['u'],0,1.8364017000003514,0.4,0,0,AccFast,34,19,Woman,Right,
53,8,1,2.6502087999997457,['c'],0,right,['u'],0,0.18820299999970302,0.1,1,0,AccFast,34,19,Woman,Right,
54,8,1,0.532735099999627,['n'],1,right,['e'],1,0.3056082000002789,0.4,1,0,AccFast,34,19,Woman,Right,
55,8,1,1.0502121000008628,['n'],1,right,['e'],1,0.4939771999997902,0.2,1,0,AccFast,34,19,Woman,Right,
56,8,1,0.6506936000005226,['n'],0,left,['e'],1,0.1468698000007862,0.4,0,0,AccFast,34,19,Woman,Right,
57,8,1,0.8839781999995466,['n'],1,right,['e'],1,0.5559505000001081,0.4,1,0,AccFast,34,19,Woman,Right,
58,8,1,0.8333729000005405,['c'],1,left,['e'],1,0.13553200000023935,0.4,1,0,AccFast,34,19,Woman,Right,
59,8,1,1.4175263000015548,['n'],0,left,['u'],0,0.1713636000004044,0.1,1,0,AccFast,34,19,Woman,Right,
0,9,1,1.300041799999235,['n'],0,left,['e'],1,0.3667034000009153,0.4,0,0,AccAcc,34,19,Woman,Right,
1,9,1,1.2664863000009063,['n'],1,right,['u'],0,0.46338399999876856,0.1,0,0,AccAcc,34,19,Woman,Right,
2,9,1,1.5172066999984963,['n'],1,right,['u'],0,0.6583872999999585,0.2,0,0,AccAcc,34,19,Woman,Right,
3,9,1,0.9345045999998547,['c'],1,left,['u'],0,0.45365659999879426,0.1,0,0,AccAcc,34,19,Woman,Right,
4,9,1,0.7176433999993606,['n'],1,right,['e'],1,0.34530459999950835,0.4,1,0,AccAcc,34,19,Woman,Right,
5,9,1,1.1501662999999098,['c'],0,right,['u'],0,0.12761160000081873,0.1,1,0,AccAcc,34,19,Woman,Right,
6,9,1,1.1670462000001862,['n'],1,right,['u'],0,0.3665889000003517,0.1,0,0,AccAcc,34,19,Woman,Right,
7,9,1,1.050157699999545,['c'],0,right,['u'],0,0.3926676999999472,0.1,1,0,AccAcc,34,19,Woman,Right,
8,9,1,0.8521645999990142,['c'],1,left,['e'],1,0.8579651999989437,0.4,1,0,AccAcc,34,19,Woman,Right,
9,9,1,0.649776499998552,['n'],1,right,['e'],1,0.4000249000000622,0.1,1,0,AccAcc,34,19,Woman,Right,
10,9,1,0.9678022999996756,['n'],1,right,['e'],1,1.9478235999995377,0.2,1,0,AccAcc,34,19,Woman,Right,
11,9,1,0.7333825999994588,['n'],1,right,['e'],1,3.0434707999993407,0.4,1,0,AccAcc,34,19,Woman,Right,
12,9,1,1.050687499999185,['c'],1,left,['e'],1,0.3548515000002226,0.1,1,0,AccAcc,34,19,Woman,Right,
13,9,1,0.6682767000002059,['c'],1,left,['e'],1,0.2522265999996307,0.2,1,0,AccAcc,34,19,Woman,Right,
14,9,1,0.850047199999608,['c'],1,left,['e'],1,0.30639439999868046,0.4,1,0,AccAcc,34,19,Woman,Right,
15,9,1,0.6180641999999352,['n'],1,right,['e'],1,0.5121656000010262,0.4,1,0,AccAcc,34,19,Woman,Right,
16,9,1,0.6172573999992892,['n'],1,right,['e'],1,0.18123589999959222,0.2,1,0,AccAcc,34,19,Woman,Right,
17,9,1,0.6501819000004616,['c'],1,left,['e'],1,0.27823109999917506,0.4,1,0,AccAcc,34,19,Woman,Right,
18,9,1,0.6011447000000771,['c'],1,left,['e'],1,0.29393770000024233,0.4,1,0,AccAcc,34,19,Woman,Right,
19,9,1,0.617507700000715,['n'],0,left,['e'],1,0.2286753000007593,0.1,0,0,AccAcc,34,19,Woman,Right,
20,9,1,1.0181932999985293,['c'],0,right,['u'],0,0.1654605999992782,0.4,1,0,AccAcc,34,19,Woman,Right,
21,9,1,0.7506312999994407,['n'],0,left,['u'],0,0.30701699999917764,0.1,1,0,AccAcc,34,19,Woman,Right,
22,9,1,0.6839583000000857,['c'],1,left,['e'],1,0.27021179999974265,0.4,1,0,AccAcc,34,19,Woman,Right,
23,9,1,0.7501337000012427,['n'],1,right,['e'],1,0.32769630000075267,0.4,1,0,AccAcc,34,19,Woman,Right,
24,9,1,1.0168228000002273,['n'],1,right,['u'],0,1.0928196999993816,0.2,0,0,AccAcc,34,19,Woman,Right,
25,9,1,0.8341818999997486,['c'],1,left,['u'],0,0.3305940999998711,0.4,0,0,AccAcc,34,19,Woman,Right,
26,9,1,0.6674048000004404,['n'],0,left,['e'],1,0.5008773999998084,0.4,0,0,AccAcc,34,19,Woman,Right,
27,9,1,3.4674398000006477,['c'],1,left,['u'],0,0.36109720000058587,0.2,0,0,AccAcc,34,19,Woman,Right,
28,9,1,0.917754000000059,['n'],0,left,['u'],0,0.36080959999890183,0.1,1,0,AccAcc,34,19,Woman,Right,
29,9,1,1.8510863000010431,['n'],1,right,['u'],0,1.6201385999993363,0.2,0,0,AccAcc,34,19,Woman,Right,
30,9,1,0.932789500000581,['n'],1,right,['u'],0,1.7119641000008414,0.4,0,0,AccAcc,34,19,Woman,Right,
31,9,1,1.5171735999992961,['c'],0,right,['u'],0,0.27331410000078904,0.2,1,0,AccAcc,34,19,Woman,Right,
32,9,1,1.117455899999186,['c'],0,right,['u'],0,0.30033349999939674,0.2,1,0,AccAcc,34,19,Woman,Right,
33,9,1,1.4674654000009468,['n'],1,right,['u'],0,0.3443320999995194,0.1,0,0,AccAcc,34,19,Woman,Right,
34,9,1,0.9508952000014688,['n'],1,right,['u'],0,0.3433789999999135,0.4,0,0,AccAcc,34,19,Woman,Right,
35,9,1,1.6011335000002873,['n'],0,left,['u'],0,0.22020619999966584,0.1,1,0,AccAcc,34,19,Woman,Right,
36,9,1,1.6504211999999825,['n'],0,left,['u'],0,0.17993709999973362,0.1,1,0,AccAcc,34,19,Woman,Right,
37,9,1,2.5341130000015255,['c'],0,right,['u'],0,0.3939012000009825,0.2,1,0,AccAcc,34,19,Woman,Right,
38,9,1,1.5672498000003543,['c'],1,left,['u'],0,0.2065169000015885,0.2,0,0,AccAcc,34,19,Woman,Right,
39,9,1,2.517318100000921,['n'],0,left,['u'],0,0.3564822999996977,0.2,1,0,AccAcc,34,19,Woman,Right,
40,9,1,4.700730600001407,['c'],1,left,['u'],0,0.5255003000002034,0.2,0,0,AccAcc,34,19,Woman,Right,
41,9,1,1.234289500000159,['n'],1,right,['u'],0,0.23376959999950486,0.1,0,0,AccAcc,34,19,Woman,Right,
42,9,1,2.0172695000001113,['n'],0,left,['u'],0,0.33833030000096187,0.4,1,0,AccAcc,34,19,Woman,Right,
43,9,1,2.850144199999704,['c'],0,right,['u'],0,0.34162860000105866,0.2,1,0,AccAcc,34,19,Woman,Right,
44,9,1,1.2837215999988985,['n'],0,left,['u'],0,0.2956790000007459,0.4,1,0,AccAcc,34,19,Woman,Right,
45,9,1,2.100468599999658,['c'],1,left,['u'],0,0.2826050999992731,0.1,0,0,AccAcc,34,19,Woman,Right,
46,9,1,2.8502985999984958,['c'],0,right,['u'],0,0.25527380000130506,0.1,1,0,AccAcc,34,19,Woman,Right,
47,9,1,1.7174602999984927,['n'],1,right,['u'],0,0.2751871000000392,0.2,0,0,AccAcc,34,19,Woman,Right,
48,9,1,1.8169970999988436,['c'],0,right,['u'],0,0.19403269999929762,0.2,1,0,AccAcc,34,19,Woman,Right,
49,9,1,1.3677600999999413,['c'],0,right,['u'],0,0.40692329999910726,0.1,1,0,AccAcc,34,19,Woman,Right,
50,9,1,2.0176544999994803,['n'],0,left,['u'],0,0.2645879000010609,0.1,1,0,AccAcc,34,19,Woman,Right,
51,9,1,1.0333174000006693,['n'],1,right,['u'],0,0.24700799999845913,0.4,0,0,AccAcc,34,19,Woman,Right,
52,9,1,2.1826485999990837,['c'],1,left,['u'],0,0.2654350000011618,0.1,0,0,AccAcc,34,19,Woman,Right,
53,9,1,2.067166900000302,['c'],0,right,['e'],1,0.3815144000000146,0.2,0,0,AccAcc,34,19,Woman,Right,
54,9,1,0.8335609000005206,['n'],1,right,['u'],0,0.17597610000120767,0.2,0,0,AccAcc,34,19,Woman,Right,
55,9,1,2.1673164000003453,['c'],1,left,['e'],1,0.8043899000003876,0.1,1,0,AccAcc,34,19,Woman,Right,
56,9,1,1.2840357000004587,['c'],1,left,['e'],1,0.3716810000005353,0.2,1,0,AccAcc,34,19,Woman,Right,
57,9,1,1.4665309000010893,['n'],0,left,['u'],0,0.5090975999992224,0.4,1,0,AccAcc,34,19,Woman,Right,
58,9,1,1.2174530000011146,['c'],1,left,['e'],1,0.3146078999998281,0.2,1,0,AccAcc,34,19,Woman,Right,
59,9,1,1.2848613999994996,['c'],1,left,['u'],0,0.780945000000429,0.4,0,0,AccAcc,34,19,Woman,Right,
0,10,1,2.1157717000005505,['n'],0,left,['u'],0,0.49321690000033414,0.4,1,0,FastAcc,34,19,Woman,Right,
1,10,1,1.017829399999755,['n'],1,right,['e'],1,0.13049019999925804,0.4,1,0,FastAcc,34,19,Woman,Right,
2,10,1,0.43442270000014105,['c'],1,left,['e'],1,0.28618870000173047,0.1,1,0,FastAcc,34,19,Woman,Right,
3,10,1,0.4012461999991501,['n'],1,right,['e'],1,0.16533259999960137,0.4,1,0,FastAcc,34,19,Woman,Right,
4,10,1,0.416311200000564,['c'],0,right,['e'],1,0.19252290000076755,0.1,0,0,FastAcc,34,19,Woman,Right,
5,10,1,0.634155900001133,['c'],0,right,['e'],1,0.20974130000104196,0.1,0,0,FastAcc,34,19,Woman,Right,
6,10,1,0.5510185000002821,['n'],0,left,['e'],1,0.18200059999981022,0.2,0,0,FastAcc,34,19,Woman,Right,
7,10,1,0.766825600001539,['c'],1,left,['e'],1,0.4343530999994982,0.4,1,0,FastAcc,34,19,Woman,Right,
8,10,1,0.4504491000006965,['n'],1,right,['e'],1,0.38545999999951164,0.4,1,0,FastAcc,34,19,Woman,Right,
9,10,1,0.4835380999993504,['c'],0,right,['e'],1,0.16149589999986347,0.2,0,0,FastAcc,34,19,Woman,Right,
10,10,1,0.45005610000043816,['n'],1,right,['e'],1,0.21984599999996135,0.2,1,0,FastAcc,34,19,Woman,Right,
11,10,1,0.5842981000005238,['c'],1,left,['e'],1,0.6538084000003437,0.1,1,0,FastAcc,34,19,Woman,Right,
12,10,1,2.2497674000005645,['c'],1,left,['u'],0,0.2042579000008118,0.2,0,0,FastAcc,34,19,Woman,Right,
13,10,1,0.5501426000009815,['n'],1,right,['e'],1,0.2409678999993048,0.1,1,0,FastAcc,34,19,Woman,Right,
14,10,1,0.634146200000032,['n'],1,right,['u'],0,0.49629060000006575,0.2,0,0,FastAcc,34,19,Woman,Right,
15,10,1,0.6339140000000043,['n'],1,right,['e'],1,0.581378400000176,0.4,1,0,FastAcc,34,19,Woman,Right,
16,10,1,0.7160154000011971,['n'],1,right,['e'],1,0.7728827999999339,0.2,1,0,FastAcc,34,19,Woman,Right,
17,10,1,0.7017259000003833,['n'],0,left,['e'],1,1.0357276999984606,0.1,0,0,FastAcc,34,19,Woman,Right,
18,10,1,0.9170180999990407,['c'],1,left,['e'],1,0.5760851000013645,0.4,1,0,FastAcc,34,19,Woman,Right,
19,10,1,0.5341501999992033,['n'],0,left,['e'],1,0.4389905000007275,0.1,0,0,FastAcc,34,19,Woman,Right,
20,10,1,0.7338505999996414,['n'],0,left,['e'],1,0.20222079999985,0.4,0,0,FastAcc,34,19,Woman,Right,
21,10,1,0.6663659000005282,['c'],0,right,['e'],1,0.362232600000425,0.1,0,0,FastAcc,34,19,Woman,Right,
22,10,1,0.6843349999999191,['c'],0,right,['u'],0,0.3868345999999292,0.2,1,0,FastAcc,34,19,Woman,Right,
23,10,1,0.6345352000007551,['c'],1,left,['e'],1,0.6364462000001367,0.1,1,0,FastAcc,34,19,Woman,Right,
24,10,1,0.9675738000005367,['c'],1,left,['u'],0,1.1671145000000251,0.2,0,0,FastAcc,34,19,Woman,Right,
25,10,1,1.2510667000005924,['n'],0,left,['e'],1,0.36886349999986123,0.1,0,0,FastAcc,34,19,Woman,Right,
26,10,1,0.6678412999990542,['n'],0,left,['e'],1,0.3458262999993167,0.2,0,0,FastAcc,34,19,Woman,Right,
27,10,1,1.2168154999999388,['n'],1,right,['e'],1,0.2857337000004918,0.1,1,0,FastAcc,34,19,Woman,Right,
28,10,1,0.751233000000866,['n'],0,left,['u'],0,0.806750200001261,0.2,1,0,FastAcc,34,19,Woman,Right,
29,10,1,0.7172697999994853,['n'],0,left,['u'],0,0.7325442000001203,0.2,1,0,FastAcc,34,19,Woman,Right,
30,10,1,0.8339224999999715,['n'],0,left,['u'],0,0.6561897999999928,0.1,1,0,FastAcc,34,19,Woman,Right,
31,10,1,0.7007377999998425,['n'],0,left,['e'],1,0.3006955000000744,0.4,0,0,FastAcc,34,19,Woman,Right,
32,10,1,0.7178721000000223,['n'],1,right,['u'],0,0.5983540999986872,0.1,0,0,FastAcc,34,19,Woman,Right,
33,10,1,0.8508301000001666,['n'],0,left,['e'],1,0.39882570000008855,0.2,0,0,FastAcc,34,19,Woman,Right,
34,10,1,0.7839813999999024,['n'],1,right,['e'],1,0.4336075000010169,0.4,1,0,FastAcc,34,19,Woman,Right,
35,10,1,2.300845700001446,['c'],0,right,['u'],0,0.19879100000071048,0.2,1,0,FastAcc,34,19,Woman,Right,
36,10,1,0.46716750000086904,['n'],1,right,['e'],1,0.33573360000082175,0.4,1,0,FastAcc,34,19,Woman,Right,
37,10,1,0.5846946999990905,['n'],0,left,['u'],0,2.444286199999624,0.1,1,0,FastAcc,34,19,Woman,Right,
38,10,1,0.7338724999990518,['n'],0,left,['e'],1,0.2884496999995463,0.2,0,0,FastAcc,34,19,Woman,Right,
39,10,1,0.6176696999991691,['n'],0,left,['e'],1,0.4947720999989542,0.1,0,0,FastAcc,34,19,Woman,Right,
40,10,1,0.9007832999996026,['n'],0,left,['e'],1,0.9057909999992262,0.2,0,0,FastAcc,34,19,Woman,Right,
41,10,1,1.0004722000012407,['n'],1,right,['e'],1,1.1044394000000466,0.4,1,0,FastAcc,34,19,Woman,Right,
42,10,1,0.7843761000003724,['n'],1,right,['e'],1,0.8395191999989038,0.4,1,0,FastAcc,34,19,Woman,Right,
43,10,1,1.0831021999983932,['n'],1,right,['e'],1,0.5891806999989058,0.2,1,0,FastAcc,34,19,Woman,Right,
44,10,1,0.7004854999995587,['n'],0,left,['e'],1,0.5723821999999927,0.4,0,0,FastAcc,34,19,Woman,Right,
45,10,1,0.7006645999990724,['n'],1,right,['e'],1,0.2679303999993863,0.4,1,0,FastAcc,34,19,Woman,Right,
46,10,1,2.217446900000141,['n'],1,right,['u'],0,0.28309819999958563,0.2,0,0,FastAcc,34,19,Woman,Right,
47,10,1,0.9343840999990789,['n'],1,right,['u'],0,0.3008873999988282,0.2,0,0,FastAcc,34,19,Woman,Right,
48,10,1,2.5674122000000352,['n'],1,right,['e'],1,0.4768752999989374,0.2,1,0,FastAcc,34,19,Woman,Right,
49,10,1,2.217181400001209,['c'],1,left,['e'],1,0.37215889999970386,0.1,1,0,FastAcc,34,19,Woman,Right,
50,10,1,1.8340269000000262,['c'],1,left,['e'],1,0.28668430000107037,0.4,1,0,FastAcc,34,19,Woman,Right,
51,10,1,2.583980999999767,['c'],0,right,['u'],0,0.14250559999891266,0.1,1,0,FastAcc,34,19,Woman,Right,
52,10,1,1.5843887999999424,['c'],1,left,['e'],1,0.2843236999997316,0.4,1,0,FastAcc,34,19,Woman,Right,
53,10,1,1.733600399998977,['c'],1,left,['e'],1,0.23811559999921883,0.4,1,0,FastAcc,34,19,Woman,Right,
54,10,1,1.4177555999995093,['n'],0,left,['e'],1,0.2868358999985503,0.1,0,0,FastAcc,34,19,Woman,Right,
55,10,1,1.7505846999993082,['c'],0,right,['u'],0,0.09592399999928602,0.1,1,0,FastAcc,34,19,Woman,Right,
56,10,1,2.91672859999926,['n'],1,right,['e'],1,0.8897998000011285,0.4,1,0,FastAcc,34,19,Woman,Right,
57,10,1,0.7678261999990355,['n'],1,right,['e'],1,0.25017339999976684,0.4,1,0,FastAcc,34,19,Woman,Right,
58,10,1,0.9507758999989164,['c'],0,right,['e'],1,0.17262819999996282,0.1,0,0,FastAcc,34,19,Woman,Right,
59,10,1,1.6834617000004073,['n'],0,left,['u'],0,0.14902210000036575,0.2,1,0,FastAcc,34,19,Woman,Right,
0,11,1,0.7006317999985185,['c'],1,left,['e'],1,0.8439936000013404,0.2,1,0,FastFast,34,19,Woman,Right,
1,11,1,0.7179211999991821,['c'],1,left,['e'],1,0.16038380000100005,0.4,1,0,FastFast,34,19,Woman,Right,
2,11,1,0.36774420000074315,['n'],1,right,['e'],1,0.030044600000110222,0.2,1,0,FastFast,34,19,Woman,Right,
3,11,1,0.5849923999994644,['n'],1,right,['e'],1,0.11950040000010631,0.4,1,0,FastFast,34,19,Woman,Right,
4,11,1,0.31685639999886916,['c'],1,left,['e'],1,0.12055789999976696,0.2,1,0,FastFast,34,19,Woman,Right,
5,11,1,0.351067100000364,['n'],0,left,['e'],1,0.2001455999998143,0.1,0,0,FastFast,34,19,Woman,Right,
6,11,1,0.5177884999993694,['n'],1,right,['e'],1,0.07789099999899918,0.2,1,0,FastFast,34,19,Woman,Right,
7,11,1,0.7181008999996266,['n'],1,right,['e'],1,0.09682900000007066,0.4,1,0,FastFast,34,19,Woman,Right,
8,11,1,0.6344604999994772,['n'],1,right,['u'],0,0.8059549999998126,0.4,0,0,FastFast,34,19,Woman,Right,
9,11,1,0.7344011000004684,['c'],1,left,['e'],1,0.37911370000074385,0.1,1,0,FastFast,34,19,Woman,Right,
10,11,1,1.1020018999988679,['c'],1,left,['u'],0,0.14580430000023625,0.4,0,0,FastFast,34,19,Woman,Right,
11,11,1,0.9677113000016107,['c'],1,left,['e'],1,0.08804669999881298,0.4,1,0,FastFast,34,19,Woman,Right,
12,11,1,0.5173076999999466,['n'],1,right,['e'],1,0.3860459000006813,0.4,1,0,FastFast,34,19,Woman,Right,
13,11,1,1.3844860999997763,['n'],1,right,['e'],1,0.23769369999899936,0.2,1,0,FastFast,34,19,Woman,Right,
14,11,1,2.451106399999844,['n'],1,right,['u'],0,0.16517209999983606,0.2,0,0,FastFast,34,19,Woman,Right,
15,11,1,1.6672656999999163,['n'],1,right,['u'],0,0.4623903000010614,0.2,0,0,FastFast,34,19,Woman,Right,
16,11,1,1.6668938000002527,['n'],0,left,['e'],1,0.5239332999990438,0.2,0,0,FastFast,34,19,Woman,Right,
17,11,1,1.6511795000005804,['c'],0,right,['u'],0,0.055399800001396216,0.1,1,0,FastFast,34,19,Woman,Right,
18,11,1,1.1842297000002873,['n'],0,left,['u'],0,0.08861550000074203,0.1,1,0,FastFast,34,19,Woman,Right,
19,11,1,1.5330685000008089,['c'],1,left,['u'],0,0.05815680000159773,0.1,0,0,FastFast,34,19,Woman,Right,
20,11,1,1.0174382999994123,['n'],1,right,['e'],1,0.08209339999848453,0.1,1,0,FastFast,34,19,Woman,Right,
21,11,1,1.3842807000000903,['c'],1,left,['u'],0,0.07387090000156604,0.1,0,0,FastFast,34,19,Woman,Right,
22,11,1,1.1166338000002725,['n'],1,right,['u'],0,0.3644698000007338,0.4,0,0,FastFast,34,19,Woman,Right,
23,11,1,1.483324899998479,['c'],1,left,['e'],1,0.05306230000132928,0.4,1,0,FastFast,34,19,Woman,Right,
24,11,1,1.2844010999997408,['c'],1,left,['e'],1,0.13021130000015546,0.4,1,0,FastFast,34,19,Woman,Right,
25,11,1,1.2680741999993188,['n'],1,right,['e'],1,0.10842520000005607,0.2,1,0,FastFast,34,19,Woman,Right,
26,11,1,1.6830815999983315,['c'],0,right,['u'],0,0.05591459999959625,0.4,1,0,FastFast,34,19,Woman,Right,
27,11,1,2.4340606999994634,['c'],0,right,['u'],0,0.21475740000096266,0.1,1,0,FastFast,34,19,Woman,Right,
28,11,1,1.8509073999994143,['n'],1,right,['u'],0,0.08714679999866348,0.2,0,0,FastFast,34,19,Woman,Right,
29,11,1,1.234007400000337,['c'],0,right,['u'],0,0.06872269999985292,0.1,1,0,FastFast,34,19,Woman,Right,
30,11,1,1.3501446999998734,['c'],1,left,['e'],1,0.22224720000122034,0.4,1,0,FastFast,34,19,Woman,Right,
31,11,1,2.349122699999498,['c'],0,right,['u'],0,0.05891650000012305,0.1,1,0,FastFast,34,19,Woman,Right,
32,11,1,0.7004653999993025,['c'],1,left,['u'],0,0.03051680000135093,0.2,0,0,FastFast,34,19,Woman,Right,
33,11,1,1.8343948000001546,['n'],0,left,['u'],0,0.05444840000018303,0.2,1,0,FastFast,34,19,Woman,Right,
34,11,1,1.8007551999999123,['c'],0,right,['u'],0,0.047152099999948405,0.1,1,0,FastFast,34,19,Woman,Right,
35,11,1,1.2163514000003488,['c'],1,left,['u'],0,0.09455929999967339,0.1,0,0,FastFast,34,19,Woman,Right,
36,11,1,1.0842953999999736,['c'],0,right,['u'],0,0.3541834999996354,0.1,1,0,FastFast,34,19,Woman,Right,
37,11,1,1.2174093999983597,['c'],0,right,['u'],0,1.3979885000007926,0.1,1,0,FastFast,34,19,Woman,Right,
38,11,1,1.3497416000009252,['c'],1,left,['u'],0,0.05868720000034955,0.1,0,0,FastFast,34,19,Woman,Right,
39,11,1,1.1158885000004375,['c'],1,left,['u'],0,0.06273789999977453,0.2,0,0,FastFast,34,19,Woman,Right,
40,11,1,1.2004250999998476,['c'],1,left,['u'],0,0.10974840000017139,0.2,0,0,FastFast,34,19,Woman,Right,
41,11,1,2.300226699999257,['n'],0,left,['u'],0,0.48056720000022324,0.2,1,0,FastFast,34,19,Woman,Right,
42,11,1,2.7673379000007117,['n'],1,right,['u'],0,0.17716640000071493,0.1,0,0,FastFast,34,19,Woman,Right,
43,11,1,1.2010574999985693,['n'],1,right,['u'],0,0.31698279999909573,0.4,0,0,FastFast,34,19,Woman,Right,
44,11,1,2.6338430999985576,['c'],0,right,['u'],0,0.08977869999944232,0.4,1,0,FastFast,34,19,Woman,Right,
45,11,1,2.033542999999554,['c'],0,right,['u'],0,0.3595507000009093,0.2,1,0,FastFast,34,19,Woman,Right,
46,11,1,1.2006942999996681,['c'],1,left,['e'],1,0.15581679999922926,0.4,1,0,FastFast,34,19,Woman,Right,
47,11,1,1.3159759999998641,['c'],1,left,['u'],0,0.5000624000003882,0.1,0,0,FastFast,34,19,Woman,Right,
48,11,1,1.9509394999986398,['c'],0,right,['u'],0,0.16413739999916288,0.1,1,0,FastFast,34,19,Woman,Right,
49,11,1,1.2335328999997728,['c'],1,left,['e'],1,0.14319520000026387,0.4,1,0,FastFast,34,19,Woman,Right,
50,11,1,1.9672442999999475,['n'],0,left,['u'],0,0.26912629999969795,0.2,1,0,FastFast,34,19,Woman,Right,
51,11,1,0.7840999000000011,['c'],1,left,['u'],0,0.14994130000013683,0.4,0,0,FastFast,34,19,Woman,Right,
52,11,1,1.433858299998974,['n'],1,right,['u'],0,0.1365669999995589,0.1,0,0,FastFast,34,19,Woman,Right,
53,11,1,4.08364149999943,['n'],0,left,['u'],0,0.4347085000008519,0.2,1,0,FastFast,34,19,Woman,Right,
54,11,1,0.5847611999997753,['c'],1,left,['e'],1,0.2044261999999435,0.4,1,0,FastFast,34,19,Woman,Right,
55,11,1,0.8338304000008065,['n'],1,right,['e'],1,0.08566170000085549,0.2,1,0,FastFast,34,19,Woman,Right,
56,11,1,0.7840388999993593,['c'],0,right,['e'],1,0.13308719999986351,0.1,0,0,FastFast,34,19,Woman,Right,
57,11,1,0.8009092000011151,['n'],1,right,['e'],1,0.4501133999983722,0.2,1,0,FastFast,34,19,Woman,Right,
58,11,1,0.8836830000000191,['c'],1,left,['e'],1,0.11102789999858942,0.4,1,0,FastFast,34,19,Woman,Right,
59,11,1,0.6674774000002799,['c'],1,left,['e'],1,0.08282300000064424,0.4,1,0,FastFast,34,19,Woman,Right,
0,12,1,0.9667483000011998,['n'],1,right,['e'],1,0.19318890000067768,0.1,1,0,AccFast,34,19,Woman,Right,
1,12,1,0.7989842999995744,['c'],1,left,['e'],1,0.14098449999983131,0.4,1,0,AccFast,34,19,Woman,Right,
2,12,1,1.5517546999999468,['n'],0,left,['u'],0,0.18712279999999737,0.2,1,0,AccFast,34,19,Woman,Right,
3,12,1,1.1840495000014926,['c'],0,right,['u'],0,0.198746600000959,0.2,1,0,AccFast,34,19,Woman,Right,
4,12,1,0.7501572000001033,['n'],1,right,['e'],1,0.29114380000100937,0.4,1,0,AccFast,34,19,Woman,Right,
5,12,1,0.617588799999794,['n'],1,right,['e'],1,0.2261701000006724,0.4,1,0,AccFast,34,19,Woman,Right,
6,12,1,3.033292399999482,['c'],0,right,['e'],1,0.16248149999955785,0.4,0,0,AccFast,34,19,Woman,Right,
7,12,1,1.4835624000006646,['n'],0,left,['u'],0,0.1785290999996505,0.2,1,0,AccFast,34,19,Woman,Right,
8,12,1,0.7674383000012313,['c'],1,left,['e'],1,0.1127712999987125,0.2,1,0,AccFast,34,19,Woman,Right,
9,12,1,1.1501869999992778,['c'],0,right,['u'],0,0.11195539999971515,0.1,1,0,AccFast,34,19,Woman,Right,
10,12,1,0.7835986000009143,['n'],1,right,['u'],0,0.3023771999996825,0.1,0,0,AccFast,34,19,Woman,Right,
11,12,1,0.9334185000006983,['c'],0,right,['e'],1,0.2560293000005913,0.1,0,0,AccFast,34,19,Woman,Right,
12,12,1,0.733833100000993,['c'],1,left,['e'],1,0.4749844999987545,0.1,1,0,AccFast,34,19,Woman,Right,
13,12,1,1.1832420000009733,['n'],1,right,['e'],1,1.051820200000293,0.1,1,0,AccFast,34,19,Woman,Right,
14,12,1,0.7841781000006449,['c'],1,left,['e'],1,0.21192569999948319,0.2,1,0,AccFast,34,19,Woman,Right,
15,12,1,1.250789599998825,['c'],0,right,['u'],0,0.2197954999992362,0.1,1,0,AccFast,34,19,Woman,Right,
16,12,1,0.6838494000003266,['n'],0,left,['u'],0,0.4421837999998388,0.2,1,0,AccFast,34,19,Woman,Right,
17,12,1,0.700378899999123,['n'],1,right,['e'],1,0.23958070000117004,0.4,1,0,AccFast,34,19,Woman,Right,
18,12,1,0.9173484000002645,['c'],1,left,['e'],1,0.4354814999987866,0.1,1,0,AccFast,34,19,Woman,Right,
19,12,1,2.184044999999969,['c'],1,left,['e'],1,0.5899835000000166,0.4,1,0,AccFast,34,19,Woman,Right,
20,12,1,1.7998829999996815,['c'],1,left,['e'],1,1.3287256999992678,0.2,1,0,AccFast,34,19,Woman,Right,
21,12,1,1.067422500000248,['n'],1,right,['e'],1,0.1153881000009278,0.2,1,0,AccFast,34,19,Woman,Right,
22,12,1,1.1332418999991205,['c'],1,left,['e'],1,0.14805900000101246,0.4,1,0,AccFast,34,19,Woman,Right,
23,12,1,1.9509666000012658,['c'],0,right,['u'],0,0.4018847999996069,0.4,1,0,AccFast,34,19,Woman,Right,
24,12,1,0.7514768999990338,['n'],1,right,['e'],1,0.13483970000015688,0.4,1,0,AccFast,34,19,Woman,Right,
25,12,1,1.934105999998792,['c'],1,left,['u'],0,0.1341800999998668,0.1,0,0,AccFast,34,19,Woman,Right,
26,12,1,1.0651464000002306,['c'],1,left,['u'],0,0.2012248000010004,0.1,0,0,AccFast,34,19,Woman,Right,
27,12,1,1.2835334000010334,['c'],1,left,['u'],0,0.11195609999958833,0.2,0,0,AccFast,34,19,Woman,Right,
28,12,1,1.884391499999765,['c'],1,left,['u'],0,2.0993522999997367,0.2,0,0,AccFast,34,19,Woman,Right,
29,12,1,1.2334440000013274,['c'],0,right,['u'],0,0.6876674000013736,0.1,1,0,AccFast,34,19,Woman,Right,
30,12,1,0.6838459999999031,['n'],1,right,['e'],1,0.2674898999994184,0.1,1,0,AccFast,34,19,Woman,Right,
31,12,1,0.9168124999996508,['n'],1,right,['e'],1,0.1262365000002319,0.1,1,0,AccFast,34,19,Woman,Right,
32,12,1,1.033913899998879,['c'],1,left,['e'],1,0.22696360000009008,0.2,1,0,AccFast,34,19,Woman,Right,
33,12,1,0.834421100000327,['n'],1,right,['e'],1,0.21915059999992081,0.4,1,0,AccFast,34,19,Woman,Right,
34,12,1,1.0339858000006643,['c'],1,left,['e'],1,0.15563840000140772,0.4,1,0,AccFast,34,19,Woman,Right,
35,12,1,1.4168306000010489,['c'],0,right,['u'],0,0.1270585000002029,0.2,1,0,AccFast,34,19,Woman,Right,
36,12,1,0.8835650000000896,['n'],1,right,['e'],1,0.2019930000005843,0.4,1,0,AccFast,34,19,Woman,Right,
37,12,1,1.0504151999994065,['c'],1,left,['e'],1,0.18631450000066252,0.1,1,0,AccFast,34,19,Woman,Right,
38,12,1,0.9168052999993961,['c'],1,left,['e'],1,0.144378199998755,0.2,1,0,AccFast,34,19,Woman,Right,
39,12,1,0.7831186000003072,['n'],1,right,['e'],1,0.19001220000063768,0.4,1,0,AccFast,34,19,Woman,Right,
40,12,1,0.6838482000002841,['c'],1,left,['e'],1,0.6057543000006262,0.1,1,0,AccFast,34,19,Woman,Right,
41,12,1,4.382790399999067,['c'],1,left,['e'],1,0.20176140000148735,0.2,1,0,AccFast,34,19,Woman,Right,
42,12,1,1.1006760000000213,['c'],1,left,['e'],1,0.15180429999963962,0.4,1,0,AccFast,34,19,Woman,Right,
43,12,1,1.6841789000009157,['n'],0,left,['u'],0,0.2571195999989868,0.1,1,0,AccFast,34,19,Woman,Right,
44,12,1,2.017432700000427,['n'],1,right,['u'],0,0.3608445000008942,0.2,0,0,AccFast,34,19,Woman,Right,
45,12,1,1.3183011999990413,['c'],0,right,['u'],0,0.4725038000015047,0.1,1,0,AccFast,34,19,Woman,Right,
46,12,1,2.75012869999955,['n'],1,right,['u'],0,0.4746377000010398,0.2,0,0,AccFast,34,19,Woman,Right,
47,12,1,1.6675857999998698,['n'],1,right,['e'],1,0.9355911999991804,0.4,1,0,AccFast,34,19,Woman,Right,
48,12,1,1.617387599999347,['n'],1,right,['e'],1,1.0454699999991135,0.4,1,0,AccFast,34,19,Woman,Right,
49,12,1,2.1851225000009435,['c'],0,right,['e'],1,1.382262199998877,0.1,0,0,AccFast,34,19,Woman,Right,
50,12,1,1.1003330999992613,['c'],1,left,['e'],1,0.5500069999998232,0.1,1,0,AccFast,34,19,Woman,Right,
51,12,1,0.8341438999996171,['n'],1,right,['e'],1,0.2726450999998633,0.2,1,0,AccFast,34,19,Woman,Right,
52,12,1,0.734170699999595,['c'],1,left,['e'],1,0.13892810000106692,0.4,1,0,AccFast,34,19,Woman,Right,
53,12,1,0.91724030000114,['n'],0,left,['u'],0,0.2592568999989453,0.1,1,0,AccFast,34,19,Woman,Right,
54,12,1,0.6343610000003537,['c'],1,left,['e'],1,0.22622340000089025,0.4,1,0,AccFast,34,19,Woman,Right,
55,12,1,1.0503843999995297,['n'],1,right,['e'],1,0.13018249999913678,0.2,1,0,AccFast,34,19,Woman,Right,
56,12,1,1.016854899999089,['c'],1,left,['e'],1,0.13446750000002794,0.4,1,0,AccFast,34,19,Woman,Right,
57,12,1,1.0175627999997232,['c'],1,left,['e'],1,0.3307058999998844,0.2,1,0,AccFast,34,19,Woman,Right,
58,12,1,1.66763390000051,['n'],1,right,['u'],0,0.15786359999947308,0.4,0,0,AccFast,34,19,Woman,Right,
59,12,1,1.4833968999992067,['c'],1,left,['u'],0,0.09446249999928114,0.2,0,0,AccFast,34,19,Woman,Right,
0,13,1,1.8841111999990972,['c'],1,left,['e'],1,0.3002713000005315,0.2,1,0,AccAcc,34,19,Woman,Right,
1,13,1,1.0167438999997103,['c'],1,left,['e'],1,0.23398860000088462,0.2,1,0,AccAcc,34,19,Woman,Right,
2,13,1,0.6503781999999774,['n'],1,right,['e'],1,0.15300329999990936,0.4,1,0,AccAcc,34,19,Woman,Right,
3,13,1,0.833755999999994,['n'],1,right,['u'],0,0.7401229999995849,0.1,0,0,AccAcc,34,19,Woman,Right,
4,13,1,1.0338936999996804,['n'],0,left,['e'],1,0.2877036000008957,0.1,0,0,AccAcc,34,19,Woman,Right,
5,13,1,1.8171825999997964,['n'],1,right,['u'],0,0.1582526999991387,0.1,0,0,AccAcc,34,19,Woman,Right,
6,13,1,0.8341784000003827,['c'],0,right,['u'],0,0.7613421999994898,0.2,1,0,AccAcc,34,19,Woman,Right,
7,13,1,0.750484599999254,['c'],0,right,['u'],0,0.28893609999977343,0.1,1,0,AccAcc,34,19,Woman,Right,
8,13,1,0.7674067000007199,['c'],1,left,['e'],1,0.18407110000043758,0.4,1,0,AccAcc,34,19,Woman,Right,
9,13,1,1.2342217000004894,['n'],1,right,['u'],0,0.1778890000005049,0.2,0,0,AccAcc,34,19,Woman,Right,
10,13,1,0.5679184999989957,['c'],1,left,['e'],1,0.23082810000050813,0.4,1,0,AccAcc,34,19,Woman,Right,
11,13,1,1.7006412000009732,['c'],1,left,['e'],1,0.15591239999957907,0.4,1,0,AccAcc,34,19,Woman,Right,
12,13,1,0.7172764000006282,['c'],1,left,['e'],1,0.155601000000388,0.4,1,0,AccAcc,34,19,Woman,Right,
13,13,1,0.7333787999996275,['n'],0,left,['e'],1,0.17109249999884923,0.4,0,0,AccAcc,34,19,Woman,Right,
14,13,1,1.0676172000003135,['c'],1,left,['e'],1,0.17175440000028175,0.4,1,0,AccAcc,34,19,Woman,Right,
15,13,1,2.2167454000009457,['n'],0,left,['e'],1,0.27124389999880805,0.4,0,0,AccAcc,34,19,Woman,Right,
16,13,1,1.1337698999996064,['c'],0,right,['u'],0,0.6174186999996891,0.4,1,0,AccAcc,34,19,Woman,Right,
17,13,1,1.0323332000007213,['n'],1,right,['e'],1,0.18686440000055882,0.2,1,0,AccAcc,34,19,Woman,Right,
18,13,1,0.9183468999999604,['c'],1,left,['u'],0,0.9121651000004931,0.2,0,0,AccAcc,34,19,Woman,Right,
19,13,1,1.0006790999996156,['n'],0,left,['e'],1,0.6140146999987337,0.4,0,0,AccAcc,34,19,Woman,Right,
20,13,1,1.6676575000001321,['c'],1,left,['e'],1,0.41326520000075107,0.4,1,0,AccAcc,34,19,Woman,Right,
21,13,1,1.9340935999989597,['n'],0,left,['u'],0,0.7545797000002494,0.1,1,0,AccAcc,34,19,Woman,Right,
22,13,1,1.284259899999597,['n'],0,left,['u'],0,0.14690989999871817,0.2,1,0,AccAcc,34,19,Woman,Right,
23,13,1,1.067736999999397,['n'],1,right,['u'],0,0.16451969999980065,0.2,0,0,AccAcc,34,19,Woman,Right,
24,13,1,0.8164680999998382,['n'],1,right,['e'],1,0.15957499999967695,0.4,1,0,AccAcc,34,19,Woman,Right,
25,13,1,1.2843864999995276,['c'],0,right,['u'],0,0.13671340000109922,0.2,1,0,AccAcc,34,19,Woman,Right,
26,13,1,1.633873599999788,['n'],0,left,['u'],0,0.13246579999940877,0.1,1,0,AccAcc,34,19,Woman,Right,
27,13,1,1.2672196999992593,['n'],0,left,['e'],1,0.17492900000070222,0.4,0,0,AccAcc,34,19,Woman,Right,
28,13,1,1.8836171999992075,['n'],1,right,['u'],0,0.12743919999957143,0.2,0,0,AccAcc,34,19,Woman,Right,
29,13,1,4.8343744999983755,['c'],0,right,['u'],0,0.572180400000434,0.1,1,0,AccAcc,34,19,Woman,Right,
30,13,1,0.9169183000012708,['n'],0,left,['u'],0,0.5478751999999076,0.1,1,0,AccAcc,34,19,Woman,Right,
31,13,1,0.7002907000005507,['c'],1,left,['u'],0,0.9479372000005242,0.4,0,0,AccAcc,34,19,Woman,Right,
32,13,1,1.717117899999721,['n'],1,right,['u'],0,0.20366509999985283,0.2,0,0,AccAcc,34,19,Woman,Right,
33,13,1,1.7503647999983514,['n'],1,right,['u'],0,0.40033709999988787,0.1,0,0,AccAcc,34,19,Woman,Right,
34,13,1,0.9509569999991072,['c'],1,left,['e'],1,1.3567162999988795,0.4,1,0,AccAcc,34,19,Woman,Right,
35,13,1,1.6840674999984913,['n'],1,right,['u'],0,0.46996129999934055,0.1,0,0,AccAcc,34,19,Woman,Right,
36,13,1,1.667790800000148,['c'],1,left,['e'],1,0.2911396999988938,0.4,1,0,AccAcc,34,19,Woman,Right,
37,13,1,1.4346208999995724,['n'],0,left,['e'],1,0.11324140000033367,0.4,0,0,AccAcc,34,19,Woman,Right,
38,13,1,1.94981209999969,['n'],0,left,['u'],0,0.6088395999995555,0.2,1,0,AccAcc,34,19,Woman,Right,
39,13,1,1.0012765000010404,['c'],0,right,['u'],0,0.33945159999893804,0.1,1,0,AccAcc,34,19,Woman,Right,
40,13,1,1.0336191999995208,['n'],1,right,['u'],0,0.4789889999992738,0.2,0,0,AccAcc,34,19,Woman,Right,
41,13,1,1.5509759999986272,['c'],1,left,['u'],0,0.19208440000147675,0.1,0,0,AccAcc,34,19,Woman,Right,
42,13,1,0.8011045999992348,['c'],0,right,['u'],0,0.20300850000057835,0.2,1,0,AccAcc,34,19,Woman,Right,
43,13,1,1.2670887000003859,['c'],0,right,['u'],0,0.1313519000013912,0.2,1,0,AccAcc,34,19,Woman,Right,
44,13,1,1.5339380999994319,['n'],0,left,['u'],0,0.22754410000015923,0.2,1,0,AccAcc,34,19,Woman,Right,
45,13,1,0.9346896999995806,['n'],1,right,['u'],0,0.1829051000004256,0.1,0,0,AccAcc,34,19,Woman,Right,
46,13,1,0.6662555999992037,['n'],1,right,['e'],1,0.9038782000006904,0.2,1,0,AccAcc,34,19,Woman,Right,
47,13,1,0.66763279999941,['n'],1,right,['e'],1,0.1236391000002186,0.4,1,0,AccAcc,34,19,Woman,Right,
48,13,1,0.6509143999992375,['c'],1,left,['e'],1,0.20688549999977113,0.1,1,0,AccAcc,34,19,Woman,Right,
49,13,1,0.8841419999989739,['n'],0,left,['u'],0,0.3100856000000931,0.1,1,0,AccAcc,34,19,Woman,Right,
50,13,1,1.6324383999999554,['n'],0,left,['u'],0,0.20346860000063316,0.1,1,0,AccAcc,34,19,Woman,Right,
51,13,1,1.083472600001187,['n'],1,right,['u'],0,0.698059899999862,0.1,0,0,AccAcc,34,19,Woman,Right,
52,13,1,0.8009250000013708,['n'],1,right,['u'],0,0.240504500001407,0.2,0,0,AccAcc,34,19,Woman,Right,
53,13,1,0.9508084000008239,['n'],1,right,['u'],0,0.25954690000071423,0.4,0,0,AccAcc,34,19,Woman,Right,
54,13,1,0.6842235000003711,['c'],1,left,['e'],1,0.7045319000008021,0.2,1,0,AccAcc,34,19,Woman,Right,
55,13,1,0.6179922000010265,['n'],0,left,['e'],1,0.2863060999989102,0.1,0,0,AccAcc,34,19,Woman,Right,
56,13,1,0.6508735000006709,['n'],1,right,['e'],1,0.25170950000028824,0.4,1,0,AccAcc,34,19,Woman,Right,
57,13,1,0.5678787000015291,['n'],1,right,['u'],0,0.46107909999955154,0.2,0,0,AccAcc,34,19,Woman,Right,
58,13,1,0.7840177999987645,['n'],1,right,['u'],0,0.3019657000004372,0.1,0,0,AccAcc,34,19,Woman,Right,
59,13,1,0.801260899999761,['n'],1,right,['u'],0,0.32427649999954156,0.1,0,0,AccAcc,34,19,Woman,Right,
0,14,1,0.7002247000000352,['n'],1,right,['u'],0,0.2334441999992123,0.1,0,0,FastAcc,34,19,Woman,Right,
1,14,1,0.48315590000129305,['c'],1,left,['e'],1,0.3507938999991893,0.4,1,0,FastAcc,34,19,Woman,Right,
2,14,1,0.8175276000001759,['c'],0,right,['u'],0,0.7225809000010486,0.1,1,0,FastAcc,34,19,Woman,Right,
3,14,1,0.5169093000004068,['c'],1,left,['e'],1,0.40358029999879363,0.1,1,0,FastAcc,34,19,Woman,Right,
4,14,1,0.5174764000003051,['c'],1,left,['e'],1,0.14521779999995488,0.4,1,0,FastAcc,34,19,Woman,Right,
5,14,1,0.5515381000004709,['n'],1,right,['e'],1,0.24803669999892008,0.1,1,0,FastAcc,34,19,Woman,Right,
6,14,1,0.5005916000009165,['n'],1,right,['e'],1,0.25308440000117116,0.1,1,0,FastAcc,34,19,Woman,Right,
7,14,1,0.4678191000002698,['c'],1,left,['e'],1,0.3061054999998305,0.4,1,0,FastAcc,34,19,Woman,Right,
8,14,1,0.5168643999986671,['c'],1,left,['e'],1,0.11587520000102813,0.4,1,0,FastAcc,34,19,Woman,Right,
9,14,1,0.5008325999988301,['c'],1,left,['e'],1,0.12559220000002824,0.4,1,0,FastAcc,34,19,Woman,Right,
10,14,1,0.5675444999997126,['n'],1,right,['e'],1,0.2604558000002726,0.1,1,0,FastAcc,34,19,Woman,Right,
11,14,1,0.46776890000001004,['c'],1,left,['e'],1,0.13807480000104988,0.1,1,0,FastAcc,34,19,Woman,Right,
12,14,1,0.46679199999925913,['n'],1,right,['e'],1,0.1324719999993249,0.4,1,0,FastAcc,34,19,Woman,Right,
13,14,1,0.7171263999989606,['n'],0,left,['e'],1,0.08522460000131105,0.1,0,0,FastAcc,34,19,Woman,Right,
14,14,1,0.4179034999997384,['c'],1,left,['e'],1,0.1311721000001853,0.2,1,0,FastAcc,34,19,Woman,Right,
15,14,1,0.683407200000147,['c'],1,left,['e'],1,0.9491644999998243,0.4,1,0,FastAcc,34,19,Woman,Right,
16,14,1,0.6008305999985168,['n'],1,right,['u'],0,0.45726310000100057,0.2,0,0,FastAcc,34,19,Woman,Right,
17,14,1,0.6004437999999936,['c'],1,left,['u'],0,0.27360069999849657,0.1,0,0,FastAcc,34,19,Woman,Right,
18,14,1,0.5499571000000287,['n'],1,right,['e'],1,0.21152620000066236,0.4,1,0,FastAcc,34,19,Woman,Right,
19,14,1,0.41795839999940654,['c'],1,left,['e'],1,0.3645876999999018,0.1,1,0,FastAcc,34,19,Woman,Right,
20,14,1,0.5675945000002685,['n'],0,left,['e'],1,0.5218088000001444,0.2,0,0,FastAcc,34,19,Woman,Right,
21,14,1,0.6341009999996459,['c'],0,right,['u'],0,0.33429849999993166,0.2,1,0,FastAcc,34,19,Woman,Right,
22,14,1,0.916445400000157,['n'],1,right,['e'],1,0.19065620000037597,0.2,1,0,FastAcc,34,19,Woman,Right,
23,14,1,0.5342010000003938,['c'],1,left,['u'],0,0.5642919999991136,0.2,0,0,FastAcc,34,19,Woman,Right,
24,14,1,0.4676268999992317,['n'],1,right,['e'],1,0.22122529999978724,0.4,1,0,FastAcc,34,19,Woman,Right,
25,14,1,1.4670482000001357,['c'],0,right,['u'],0,0.23642240000117454,0.1,1,0,FastAcc,34,19,Woman,Right,
26,14,1,0.55043360000127,['n'],1,right,['u'],0,1.3114277000004222,0.2,0,0,FastAcc,34,19,Woman,Right,
27,14,1,0.734423699999752,['n'],0,left,['u'],0,0.3685674000007566,0.1,1,0,FastAcc,34,19,Woman,Right,
28,14,1,0.5841953999988618,['n'],1,right,['u'],0,0.5890546000009635,0.1,0,0,FastAcc,34,19,Woman,Right,
29,14,1,0.7171474999995553,['c'],1,left,['u'],0,0.2834671000000526,0.2,0,0,FastAcc,34,19,Woman,Right,
30,14,1,0.6177984000005381,['n'],1,right,['u'],0,0.25002019999919867,0.1,0,0,FastAcc,34,19,Woman,Right,
31,14,1,1.3009125999997195,['n'],1,right,['u'],0,0.3021617000013066,0.2,0,0,FastAcc,34,19,Woman,Right,
32,14,1,0.5010414000007586,['c'],1,left,['u'],0,0.19282030000067607,0.4,0,0,FastAcc,34,19,Woman,Right,
33,14,1,0.5002742999986367,['n'],1,right,['e'],1,0.11973110000144516,0.4,1,0,FastAcc,34,19,Woman,Right,
34,14,1,0.4672424999989744,['n'],1,right,['e'],1,0.17834039999979723,0.4,1,0,FastAcc,34,19,Woman,Right,
35,14,1,0.7174383000001399,['n'],0,left,['e'],1,0.14531960000022082,0.2,0,0,FastAcc,34,19,Woman,Right,
36,14,1,0.9177125000005617,['c'],1,left,['e'],1,0.18485620000137715,0.2,1,0,FastAcc,34,19,Woman,Right,
37,14,1,0.5669460000008257,['n'],0,left,['e'],1,0.1733461999992869,0.2,0,0,FastAcc,34,19,Woman,Right,
38,14,1,0.6836836000002222,['n'],1,right,['u'],0,0.19059590000142634,0.4,0,0,FastAcc,34,19,Woman,Right,
39,14,1,0.4493777999996382,['c'],1,left,['e'],1,0.37514550000014424,0.4,1,0,FastAcc,34,19,Woman,Right,
40,14,1,0.6344530999995186,['c'],1,left,['e'],1,0.20910209999965446,0.2,1,0,FastAcc,34,19,Woman,Right,
41,14,1,0.4510291000005964,['n'],1,right,['e'],1,0.2013182999999117,0.4,1,0,FastAcc,34,19,Woman,Right,
42,14,1,0.5333866999990278,['n'],1,right,['e'],1,0.12644080000063695,0.4,1,0,FastAcc,34,19,Woman,Right,
43,14,1,1.2672416000004887,['c'],0,right,['u'],0,0.08988090000093507,0.1,1,0,FastAcc,34,19,Woman,Right,
44,14,1,0.5508909000000131,['c'],1,left,['e'],1,0.2423661999982869,0.1,1,0,FastAcc,34,19,Woman,Right,
45,14,1,0.7341680000008637,['n'],0,left,['u'],0,0.33393419999993057,0.1,1,0,FastAcc,34,19,Woman,Right,
46,14,1,0.5499794999996084,['c'],1,left,['e'],1,0.2214958000004117,0.2,1,0,FastAcc,34,19,Woman,Right,
47,14,1,0.4677248000007239,['n'],1,right,['e'],1,0.16401310000037483,0.2,1,0,FastAcc,34,19,Woman,Right,
48,14,1,0.5668161000012333,['c'],0,right,['u'],0,0.34538919999977225,0.1,1,0,FastAcc,34,19,Woman,Right,
49,14,1,0.5669182000001456,['n'],1,right,['e'],1,0.21544859999994515,0.2,1,0,FastAcc,34,19,Woman,Right,
50,14,1,1.0840326999987155,['n'],1,right,['u'],0,0.4058106000011321,0.1,0,0,FastAcc,34,19,Woman,Right,
51,14,1,0.6169957000001887,['n'],1,right,['e'],1,0.28744779999942693,0.2,1,0,FastAcc,34,19,Woman,Right,
52,14,1,0.5509036000003107,['c'],1,left,['e'],1,0.16117550000126357,0.4,1,0,FastAcc,34,19,Woman,Right,
53,14,1,0.7509869000004983,['c'],1,left,['e'],1,0.22327779999977793,0.4,1,0,FastAcc,34,19,Woman,Right,
54,14,1,0.4676571999989392,['n'],1,right,['e'],1,0.1657814000009239,0.1,1,0,FastAcc,34,19,Woman,Right,
55,14,1,0.7156898000012006,['c'],1,left,['e'],1,0.18194800000128453,0.4,1,0,FastAcc,34,19,Woman,Right,
56,14,1,0.9007781999989675,['n'],0,left,['e'],1,0.13999129999865545,0.2,0,0,FastAcc,34,19,Woman,Right,
57,14,1,2.3663584999994782,['c'],1,left,['u'],0,0.10654710000017076,0.2,0,0,FastAcc,34,19,Woman,Right,
58,14,1,1.0335956999988412,['n'],1,right,['u'],0,0.1756084999997256,0.2,0,0,FastAcc,34,19,Woman,Right,
59,14,1,0.7840457000002061,['n'],1,right,['e'],1,0.1235928000005515,0.4,1,0,FastAcc,34,19,Woman,Right,
0,15,1,1.2177350999991177,['c'],1,left,['u'],0,0.2656403999990289,0.2,0,0,FastFast,34,19,Woman,Right,
1,15,1,0.5339836000002833,['c'],0,right,['e'],1,0.25155979999908595,0.1,0,0,FastFast,34,19,Woman,Right,
2,15,1,0.5004025999987789,['n'],1,right,['e'],1,0.2079671999999846,0.1,1,0,FastFast,34,19,Woman,Right,
3,15,1,0.6668105999997351,['n'],1,right,['e'],1,0.159427799999321,0.4,1,0,FastFast,34,19,Woman,Right,
4,15,1,0.9662525999992795,['n'],0,left,['e'],1,0.9342636999990646,0.1,0,0,FastFast,34,19,Woman,Right,
5,15,1,0.817966399999932,['n'],0,left,['e'],1,0.11392200000045705,0.1,0,0,FastFast,34,19,Woman,Right,
6,15,1,0.43404779999946186,['c'],1,left,['u'],0,0.06209080000007816,0.2,0,0,FastFast,34,19,Woman,Right,
7,15,1,0.4344330000003538,['n'],1,right,['e'],1,0.07683590000124241,0.4,1,0,FastFast,34,19,Woman,Right,
8,15,1,1.2672954999998183,['c'],0,right,['u'],0,0.07324530000005325,0.1,1,0,FastFast,34,19,Woman,Right,
9,15,1,0.5342117999989568,['n'],1,right,['e'],1,0.22765389999949548,0.2,1,0,FastFast,34,19,Woman,Right,
10,15,1,0.5512603000006493,['c'],0,right,['e'],1,0.21540709999862884,0.1,0,0,FastFast,34,19,Woman,Right,
11,15,1,1.049673299999995,['n'],0,left,['u'],0,0.10373559999970894,0.1,1,0,FastFast,34,19,Woman,Right,
12,15,1,0.6175376999999571,['c'],1,left,['e'],1,0.1407576000001427,0.4,1,0,FastFast,34,19,Woman,Right,
13,15,1,1.7508441999998468,['n'],1,right,['u'],0,0.11562410000078671,0.2,0,0,FastFast,34,19,Woman,Right,
14,15,1,1.2502177000005759,['n'],1,right,['u'],0,0.15954109999984212,0.1,0,0,FastFast,34,19,Woman,Right,
15,15,1,1.0506170000007842,['c'],1,left,['u'],0,0.16198410000106378,0.4,0,0,FastFast,34,19,Woman,Right,
16,15,1,0.6514420000003156,['c'],1,left,['u'],0,0.0995746999997209,0.2,0,0,FastFast,34,19,Woman,Right,
17,15,1,0.7166559000015695,['n'],1,right,['u'],0,0.10201380000034987,0.1,0,0,FastFast,34,19,Woman,Right,
18,15,1,1.4498114999987592,['c'],1,left,['u'],0,0.31421579999914684,0.2,0,0,FastFast,34,19,Woman,Right,
19,15,1,0.7838690999997198,['n'],1,right,['e'],1,0.1759703999996418,0.2,1,0,FastFast,34,19,Woman,Right,
20,15,1,0.7169675000004645,['n'],0,left,['e'],1,0.11146479999842995,0.1,0,0,FastFast,34,19,Woman,Right,
21,15,1,1.2505240000009508,['c'],1,left,['e'],1,0.15542880000066361,0.2,1,0,FastFast,34,19,Woman,Right,
22,15,1,0.5673406000005343,['n'],1,right,['e'],1,0.20918580000034126,0.4,1,0,FastFast,34,19,Woman,Right,
23,15,1,1.083708199999819,['n'],1,right,['e'],1,0.27226080000036745,0.4,1,0,FastFast,34,19,Woman,Right,
24,15,1,0.8676298999998835,['n'],1,right,['e'],1,0.11709850000079314,0.2,1,0,FastFast,34,19,Woman,Right,
25,15,1,0.9839815999985149,['n'],1,right,['e'],1,0.12361580000106187,0.1,1,0,FastFast,34,19,Woman,Right,
26,15,1,1.0670090000003256,['c'],1,left,['e'],1,0.11070079999990412,0.4,1,0,FastFast,34,19,Woman,Right,
27,15,1,0.7501936000007845,['c'],1,left,['e'],1,0.12709470000118017,0.4,1,0,FastFast,34,19,Woman,Right,
28,15,1,0.8502067999997962,['n'],1,right,['e'],1,0.12305170000036014,0.1,1,0,FastFast,34,19,Woman,Right,
29,15,1,0.8016753000010794,['n'],1,right,['e'],1,0.1523996999985684,0.2,1,0,FastFast,34,19,Woman,Right,
30,15,1,0.9009441999987757,['c'],1,left,['e'],1,0.11273000000073807,0.4,1,0,FastFast,34,19,Woman,Right,
31,15,1,0.7010850999995455,['c'],0,right,['u'],0,0.08235400000012305,0.2,1,0,FastFast,34,19,Woman,Right,
32,15,1,1.1342719000003854,['n'],1,right,['u'],0,0.11632050000116578,0.2,0,0,FastFast,34,19,Woman,Right,
33,15,1,0.9998899000001984,['n'],1,right,['e'],1,0.12224509999941802,0.4,1,0,FastFast,34,19,Woman,Right,
34,15,1,0.8507838000004995,['c'],1,left,['e'],1,0.11752220000016678,0.4,1,0,FastFast,34,19,Woman,Right,
35,15,1,0.7343098000001191,['n'],1,right,['e'],1,0.11772869999913382,0.4,1,0,FastFast,34,19,Woman,Right,
36,15,1,0.7678152000007685,['c'],1,left,['e'],1,0.16477769999983138,0.4,1,0,FastFast,34,19,Woman,Right,
37,15,1,0.8008440000012342,['n'],1,right,['e'],1,0.2406554999997752,0.1,1,0,FastFast,34,19,Woman,Right,
38,15,1,0.8677060000009078,['n'],1,right,['u'],0,0.1189379999996163,0.1,0,0,FastFast,34,19,Woman,Right,
39,15,1,0.751247099999091,['c'],1,left,['e'],1,0.1983782000006613,0.2,1,0,FastFast,34,19,Woman,Right,
40,15,1,0.6681226999990031,['n'],0,left,['e'],1,0.2300357999993139,0.1,0,0,FastFast,34,19,Woman,Right,
41,15,1,0.7513517000006686,['c'],1,left,['e'],1,0.22561850000056438,0.2,1,0,FastFast,34,19,Woman,Right,
42,15,1,1.6339446999991196,['n'],0,left,['u'],0,0.2818217999993067,0.2,1,0,FastFast,34,19,Woman,Right,
43,15,1,0.9162176000008913,['n'],1,right,['u'],0,0.204275800000687,0.4,0,0,FastFast,34,19,Woman,Right,
44,15,1,0.9994735000000219,['c'],0,right,['u'],0,0.22248639999997977,0.1,1,0,FastFast,34,19,Woman,Right,
45,15,1,0.7177267000006395,['n'],1,right,['u'],0,0.13946190000024217,0.4,0,0,FastFast,34,19,Woman,Right,
46,15,1,1.4009556000000885,['c'],1,left,['u'],0,0.09645639999871491,0.1,0,0,FastFast,34,19,Woman,Right,
47,15,1,1.067160500000682,['c'],1,left,['e'],1,0.10018320000017411,0.4,1,0,FastFast,34,19,Woman,Right,
48,15,1,0.8509745000010298,['n'],1,right,['e'],1,0.2405734999993001,0.4,1,0,FastFast,34,19,Woman,Right,
49,15,1,1.1511499000007461,['c'],1,left,['u'],0,0.13977190000150586,0.1,0,0,FastFast,34,19,Woman,Right,
50,15,1,0.9008879999983037,['c'],0,right,['u'],0,0.08524770000076387,0.1,1,0,FastFast,34,19,Woman,Right,
51,15,1,0.8676660000000993,['c'],1,left,['e'],1,0.04934550000143645,0.4,1,0,FastFast,34,19,Woman,Right,
52,15,1,0.6843074000007618,['c'],1,left,['e'],1,0.10225879999961762,0.4,1,0,FastFast,34,19,Woman,Right,
53,15,1,0.9340708999989147,['n'],1,right,['e'],1,0.11113440000008268,0.2,1,0,FastFast,34,19,Woman,Right,
54,15,1,0.584271900001113,['c'],1,left,['e'],1,0.10239480000018375,0.4,1,0,FastFast,34,19,Woman,Right,
55,15,1,1.0509552000003168,['c'],1,left,['u'],0,0.10654909999902884,0.2,0,0,FastFast,34,19,Woman,Right,
56,15,1,1.0497868999991624,['n'],1,right,['e'],1,0.15893299999879673,0.2,1,0,FastFast,34,19,Woman,Right,
57,15,1,0.7337197999986529,['c'],1,left,['u'],0,0.5419214000012289,0.2,0,0,FastFast,34,19,Woman,Right,
58,15,1,0.6836848999992071,['c'],1,left,['u'],0,0.09549779999906605,0.1,0,0,FastFast,34,19,Woman,Right,
59,15,1,0.9342169000010472,['c'],1,left,['u'],0,0.28088469999966037,0.2,0,0,FastFast,34,19,Woman,Right,
