withinblocktrial,block,block_repetition,rt,resp,cor,cresp,conf_press,cj,rtconf,coherence,metacognition,slow_trial,manipulation,sub,age,gender,handedness,
0,1,1,1.5173749000005046,['n'],1,right,none,-99,-99,0.5,-99,0,none,11,19,Woman,Right,
1,1,1,1.6170321000008698,['c'],1,left,none,-99,-99,0.5,-99,0,none,11,19,Woman,Right,
2,1,1,0.950670700000046,['n'],1,right,none,-99,-99,0.5,-99,0,none,11,19,Woman,Right,
3,1,1,0.8167544999996608,['c'],1,left,none,-99,-99,0.5,-99,0,none,11,19,Woman,Right,
4,1,1,0.6014142999993055,['n'],1,right,none,-99,-99,0.5,-99,0,none,11,19,Woman,Right,
5,1,1,0.6014605000000302,['c'],1,left,none,-99,-99,0.5,-99,0,none,11,19,Woman,Right,
6,1,1,3.216322400001445,['c'],1,left,none,-99,-99,0.5,-99,0,none,11,19,Woman,Right,
7,1,1,0.8505239999994956,['c'],1,left,none,-99,-99,0.5,-99,0,none,11,19,Woman,Right,
8,1,1,0.5675396000006003,['n'],1,right,none,-99,-99,0.5,-99,0,none,11,19,Woman,Right,
9,1,1,0.4838270000000193,['c'],1,left,none,-99,-99,0.5,-99,0,none,11,19,Woman,Right,
10,1,1,0.6162748999995529,['c'],1,left,none,-99,-99,0.5,-99,0,none,11,19,Woman,Right,
11,1,1,0.48443570000017644,['c'],1,left,none,-99,-99,0.5,-99,0,none,11,19,Woman,Right,
12,1,1,0.5168219999995927,['c'],1,left,none,-99,-99,0.5,-99,0,none,11,19,Woman,Right,
13,1,1,0.4335352999987663,['n'],1,right,none,-99,-99,0.5,-99,0,none,11,19,Woman,Right,
14,1,1,0.8677936000003683,['c'],0,right,none,-99,-99,0.5,-99,0,none,11,19,Woman,Right,
15,1,1,0.6171689999991941,['n'],1,right,none,-99,-99,0.5,-99,0,none,11,19,Woman,Right,
16,1,1,0.568859999999404,['c'],1,left,none,-99,-99,0.5,-99,0,none,11,19,Woman,Right,
17,1,1,0.8494137000016053,['c'],1,left,none,-99,-99,0.5,-99,0,none,11,19,Woman,Right,
18,1,1,0.8346008000007714,['n'],1,right,none,-99,-99,0.5,-99,0,none,11,19,Woman,Right,
19,1,1,0.6170041000004858,['c'],0,right,none,-99,-99,0.5,-99,0,none,11,19,Woman,Right,
20,1,1,1.1512617000007594,['c'],0,right,none,-99,-99,0.5,-99,0,none,11,19,Woman,Right,
21,1,1,1.0182494000000588,['n'],1,right,none,-99,-99,0.5,-99,0,none,11,19,Woman,Right,
22,1,1,2.315577800000028,['n'],1,right,none,-99,-99,0.5,-99,0,none,11,19,Woman,Right,
23,1,1,0.9003104000003077,['c'],1,left,none,-99,-99,0.5,-99,0,none,11,19,Woman,Right,
0,2,1,0.6338181000010081,['n'],1,right,none,-99,-99,0.4,-99,0,none,11,19,Woman,Right,
1,2,1,0.5504068000009283,['c'],1,left,none,-99,-99,0.4,-99,0,none,11,19,Woman,Right,
2,2,1,0.8512743999999657,['c'],1,left,none,-99,-99,0.2,-99,0,none,11,19,Woman,Right,
3,2,1,0.6837317999998049,['n'],1,right,none,-99,-99,0.1,-99,0,none,11,19,Woman,Right,
4,2,1,0.8344538000001194,['c'],0,right,none,-99,-99,0.4,-99,0,none,11,19,Woman,Right,
5,2,1,2.1177600999999413,['c'],1,left,none,-99,-99,0.2,-99,0,none,11,19,Woman,Right,
6,2,1,0.6327923000008013,['n'],1,right,none,-99,-99,0.4,-99,0,none,11,19,Woman,Right,
7,2,1,0.6839909999998781,['c'],1,left,none,-99,-99,0.1,-99,0,none,11,19,Woman,Right,
8,2,1,0.9662600999999995,['c'],1,left,none,-99,-99,0.2,-99,0,none,11,19,Woman,Right,
9,2,1,0.7509315000006609,['n'],1,right,none,-99,-99,0.4,-99,0,none,11,19,Woman,Right,
10,2,1,0.6015685000002122,['c'],1,left,none,-99,-99,0.1,-99,0,none,11,19,Woman,Right,
11,2,1,0.7676059999994322,['n'],0,left,none,-99,-99,0.2,-99,0,none,11,19,Woman,Right,
12,2,1,0.8337543000016012,['c'],1,left,none,-99,-99,0.2,-99,0,none,11,19,Woman,Right,
13,2,1,0.7172018999990541,['n'],1,right,none,-99,-99,0.4,-99,0,none,11,19,Woman,Right,
14,2,1,0.650750099999641,['c'],0,right,none,-99,-99,0.1,-99,0,none,11,19,Woman,Right,
15,2,1,0.9334792000008747,['n'],1,right,none,-99,-99,0.2,-99,0,none,11,19,Woman,Right,
16,2,1,0.751048100000844,['c'],1,left,none,-99,-99,0.2,-99,0,none,11,19,Woman,Right,
17,2,1,0.9846534999996948,['n'],1,right,none,-99,-99,0.1,-99,0,none,11,19,Woman,Right,
18,2,1,1.1508677000001626,['c'],0,right,none,-99,-99,0.4,-99,0,none,11,19,Woman,Right,
19,2,1,0.7177198999997927,['n'],1,right,none,-99,-99,0.4,-99,0,none,11,19,Woman,Right,
20,2,1,0.6996915999989142,['c'],1,left,none,-99,-99,0.2,-99,0,none,11,19,Woman,Right,
21,2,1,0.9510814000004757,['c'],1,left,none,-99,-99,0.1,-99,0,none,11,19,Woman,Right,
22,2,1,3.033770199999708,['n'],0,left,none,-99,-99,0.1,-99,0,none,11,19,Woman,Right,
23,2,1,0.7504907000002277,['n'],1,right,none,-99,-99,0.1,-99,0,none,11,19,Woman,Right,
0,3,1,0.8343750999993063,['c'],1,left,['u'],1,1.3588412999997672,0.4,1,0,none,11,19,Woman,Right,
1,3,1,1.984384500001397,['n'],1,right,['u'],1,1.1681875000012951,0.2,1,0,none,11,19,Woman,Right,
2,3,1,1.234412900001189,['c'],1,left,['e'],0,0.8067608000001201,0.2,0,0,none,11,19,Woman,Right,
3,3,1,0.7825410000004922,['n'],1,right,['u'],1,0.8311658000002353,0.2,1,0,none,11,19,Woman,Right,
4,3,1,1.1687876999985747,['n'],1,right,['u'],1,0.6606578999999329,0.4,1,0,none,11,19,Woman,Right,
5,3,1,1.2007424999992509,['c'],0,right,['e'],0,2.049561600000743,0.2,1,0,none,11,19,Woman,Right,
6,3,1,2.067712099998971,['n'],1,right,['e'],0,0.7708105999990948,0.1,0,0,none,11,19,Woman,Right,
7,3,1,1.3170479000000341,['c'],1,left,['u'],1,1.158632700000453,0.4,1,0,none,11,19,Woman,Right,
8,3,1,5.016428000000815,x,-99,left,none,-99,-99,0.1,-99,1,none,11,19,Woman,Right,
9,3,1,0.8501824999984819,['c'],1,left,['e'],0,1.1629904999990686,0.2,0,0,none,11,19,Woman,Right,
10,3,1,0.6499692999987019,['c'],1,left,['u'],1,1.5449963999999454,0.2,1,0,none,11,19,Woman,Right,
11,3,1,0.8506564999988768,['n'],1,right,['e'],0,0.6399359999995795,0.1,0,0,none,11,19,Woman,Right,
12,3,1,0.7169014000010066,['c'],1,left,['u'],1,2.3371776999993017,0.2,1,0,none,11,19,Woman,Right,
13,3,1,1.0663707999992766,['c'],1,left,['u'],1,0.559635999999955,0.4,1,0,none,11,19,Woman,Right,
14,3,1,1.8678475999986404,['n'],1,right,['e'],0,1.124860500000068,0.1,0,0,none,11,19,Woman,Right,
15,3,1,1.4335316000015155,['c'],1,left,['u'],1,0.8058655999993789,0.4,1,0,none,11,19,Woman,Right,
16,3,1,0.8669109000002209,['n'],1,right,['u'],1,1.161196100001689,0.1,1,0,none,11,19,Woman,Right,
17,3,1,2.100397199999861,['c'],1,left,['u'],1,0.8618578000005073,0.4,1,0,none,11,19,Woman,Right,
18,3,1,1.1351333000002342,['n'],1,right,['u'],1,0.6288593999997829,0.1,1,0,none,11,19,Woman,Right,
19,3,1,1.3677917999993952,['n'],1,right,['e'],0,0.9393298999984836,0.1,0,0,none,11,19,Woman,Right,
20,3,1,1.2345702000002348,['c'],1,left,['u'],1,1.4990156999992905,0.4,1,0,none,11,19,Woman,Right,
21,3,1,1.217888099999982,['n'],0,left,['e'],0,0.885007000000769,0.4,1,0,none,11,19,Woman,Right,
22,3,1,1.6843020000014803,['n'],1,right,['e'],0,0.884868600000118,0.1,0,0,none,11,19,Woman,Right,
23,3,1,1.432828300001347,['n'],1,right,['e'],0,0.927465900000243,0.2,0,0,none,11,19,Woman,Right,
0,4,1,1.7676979999996547,['n'],1,right,['u'],1,1.348048200001358,0.4,1,0,FastAcc,11,19,Woman,Right,
1,4,1,0.7343788999987737,['c'],1,left,['u'],1,2.3228687000009813,0.4,1,0,FastAcc,11,19,Woman,Right,
2,4,1,0.8511687999998685,['c'],1,left,['e'],0,2.230825399999958,0.2,0,0,FastAcc,11,19,Woman,Right,
3,4,1,1.068080099999861,['c'],1,left,['u'],1,1.4455617999992683,0.4,1,0,FastAcc,11,19,Woman,Right,
4,4,1,0.7178120999997191,['n'],0,left,['u'],1,0.7694553999990603,0.1,0,0,FastAcc,11,19,Woman,Right,
5,4,1,1.4177447000001848,['n'],1,right,['e'],0,2.5408629000012297,0.1,0,0,FastAcc,11,19,Woman,Right,
6,4,1,0.9164388999997755,['n'],1,right,['e'],0,3.030249699999331,0.4,0,0,FastAcc,11,19,Woman,Right,
7,4,1,0.6345965000000433,['c'],1,left,['e'],0,1.6536937000000762,0.1,0,0,FastAcc,11,19,Woman,Right,
8,4,1,0.717725700000301,['n'],0,left,['u'],1,1.2902684999990015,0.1,0,0,FastAcc,11,19,Woman,Right,
9,4,1,2.2328741000001173,['n'],0,left,['e'],0,1.8084434000011242,0.1,1,0,FastAcc,11,19,Woman,Right,
10,4,1,1.450419000000693,['n'],1,right,['u'],1,2.400822399999015,0.4,1,0,FastAcc,11,19,Woman,Right,
11,4,1,0.5851629999997385,['c'],1,left,['u'],1,3.1157975000005536,0.2,1,0,FastAcc,11,19,Woman,Right,
12,4,1,0.3832942000008188,['n'],0,left,['e'],0,3.0434079999995447,0.2,1,0,FastAcc,11,19,Woman,Right,
13,4,1,1.0003918999991583,['c'],1,left,['u'],1,0.692300200000318,0.4,1,0,FastAcc,11,19,Woman,Right,
14,4,1,1.3181155000002036,['n'],0,left,['e'],0,1.2704216000001907,0.1,1,0,FastAcc,11,19,Woman,Right,
15,4,1,0.53422110000065,['c'],0,right,['e'],0,2.3691645999988395,0.1,1,0,FastAcc,11,19,Woman,Right,
16,4,1,0.9674290999992081,['c'],0,right,['e'],0,3.742364499999894,0.1,1,0,FastAcc,11,19,Woman,Right,
17,4,1,1.1169281999991654,['n'],0,left,['u'],1,2.3521929000016826,0.2,0,0,FastAcc,11,19,Woman,Right,
18,4,1,1.08425250000073,['c'],1,left,['u'],1,1.592779900000096,0.2,1,0,FastAcc,11,19,Woman,Right,
19,4,1,1.368413899999723,['n'],1,right,['e'],0,1.717391400001361,0.2,0,0,FastAcc,11,19,Woman,Right,
20,4,1,0.6844328000006499,['c'],1,left,['u'],1,1.0479385999988153,0.2,1,0,FastAcc,11,19,Woman,Right,
21,4,1,1.2673858999987715,['c'],0,right,['u'],1,1.438172799998938,0.2,0,0,FastAcc,11,19,Woman,Right,
22,4,1,1.46768449999945,['c'],1,left,['u'],1,1.692716499999733,0.2,1,0,FastAcc,11,19,Woman,Right,
23,4,1,1.1840422000004764,['n'],1,right,['e'],0,1.358198199999606,0.2,0,0,FastAcc,11,19,Woman,Right,
24,4,1,1.118150299998888,['c'],0,right,['u'],1,1.3085104000001593,0.1,0,0,FastAcc,11,19,Woman,Right,
25,4,1,0.8844360999992205,['c'],1,left,['u'],1,1.0957092000007833,0.4,1,0,FastAcc,11,19,Woman,Right,
26,4,1,0.9347734000002674,['c'],0,right,['u'],1,1.0818302000006952,0.4,0,0,FastAcc,11,19,Woman,Right,
27,4,1,0.7177216999989469,['c'],1,left,['u'],1,1.091594100000293,0.4,1,0,FastAcc,11,19,Woman,Right,
28,4,1,0.8846594000006007,['c'],0,right,['u'],1,1.1594292999998288,0.4,0,0,FastAcc,11,19,Woman,Right,
29,4,1,0.7837562000004255,['c'],1,left,['u'],1,1.1804618999995,0.4,1,0,FastAcc,11,19,Woman,Right,
30,4,1,1.0165443000005325,['c'],0,right,['u'],1,1.0151467000014236,0.2,0,0,FastAcc,11,19,Woman,Right,
31,4,1,1.549653699999908,['c'],1,left,['e'],0,1.107862799999566,0.1,0,0,FastAcc,11,19,Woman,Right,
32,4,1,1.0171341000004759,['n'],0,left,['e'],0,0.864910799999052,0.2,1,0,FastAcc,11,19,Woman,Right,
33,4,1,3.3179110000000946,['n'],1,right,['u'],1,2.4447104999999283,0.1,1,0,FastAcc,11,19,Woman,Right,
34,4,1,1.5664386999997078,['n'],1,right,['e'],0,1.3912030999999843,0.1,0,0,FastAcc,11,19,Woman,Right,
35,4,1,1.7678432000011526,['n'],1,right,['u'],1,0.9313793000001169,0.2,1,0,FastAcc,11,19,Woman,Right,
36,4,1,1.5344254999999976,['n'],1,right,['u'],1,1.124001500000304,0.2,1,0,FastAcc,11,19,Woman,Right,
37,4,1,2.4008849000001646,['n'],0,left,['e'],0,1.1614806999987195,0.1,1,0,FastAcc,11,19,Woman,Right,
38,4,1,1.8508865000003425,['n'],1,right,['e'],0,2.132053299999825,0.2,0,0,FastAcc,11,19,Woman,Right,
39,4,1,1.2493680999996286,['c'],1,left,['u'],1,2.720383900001252,0.4,1,0,FastAcc,11,19,Woman,Right,
40,4,1,0.7843028999996022,['n'],1,right,['u'],1,1.2858436000005895,0.4,1,0,FastAcc,11,19,Woman,Right,
41,4,1,2.034383899999739,['c'],1,left,['u'],1,0.9955867999997281,0.1,1,0,FastAcc,11,19,Woman,Right,
42,4,1,1.0842705000013666,['n'],1,right,['u'],1,0.7549239999989368,0.2,1,0,FastAcc,11,19,Woman,Right,
43,4,1,2.665976000000228,['n'],1,right,['u'],1,0.8623268999999709,0.4,1,0,FastAcc,11,19,Woman,Right,
44,4,1,2.901175899998634,['n'],1,right,['u'],1,1.1298139999998966,0.1,1,0,FastAcc,11,19,Woman,Right,
45,4,1,1.4346040000000357,['n'],1,right,['u'],1,1.1255271999998513,0.1,1,0,FastAcc,11,19,Woman,Right,
46,4,1,1.951392199998736,['c'],1,left,['u'],1,0.9577523999996629,0.2,1,0,FastAcc,11,19,Woman,Right,
47,4,1,1.7344572999991215,['n'],0,left,['u'],1,0.9009743000005983,0.4,0,0,FastAcc,11,19,Woman,Right,
48,4,1,1.5836680000011256,['n'],1,right,['u'],1,0.660378500000661,0.1,1,0,FastAcc,11,19,Woman,Right,
49,4,1,1.0838060999994923,['n'],1,right,['u'],1,0.7534916000004159,0.4,1,0,FastAcc,11,19,Woman,Right,
50,4,1,0.7675281000010727,['c'],1,left,['u'],1,0.9513065000010101,0.1,1,0,FastAcc,11,19,Woman,Right,
51,4,1,0.6665625000005093,['n'],1,right,['u'],1,0.5697899000006146,0.4,1,0,FastAcc,11,19,Woman,Right,
52,4,1,0.7178282000004401,['n'],1,right,['u'],1,1.016084900000351,0.4,1,0,FastAcc,11,19,Woman,Right,
53,4,1,0.7179445999991003,['n'],0,left,['u'],1,1.0614151999998285,0.4,0,0,FastAcc,11,19,Woman,Right,
54,4,1,0.8005391000006057,['n'],1,right,['u'],1,0.9417022999987239,0.2,1,0,FastAcc,11,19,Woman,Right,
55,4,1,0.7178201999995508,['n'],0,left,['u'],1,1.1981879000013578,0.2,0,0,FastAcc,11,19,Woman,Right,
56,4,1,0.8658046000000468,['n'],0,left,['u'],1,1.0068482000006043,0.1,0,0,FastAcc,11,19,Woman,Right,
57,4,1,0.6997848999999405,['n'],1,right,['u'],1,1.069220999999743,0.4,1,0,FastAcc,11,19,Woman,Right,
58,4,1,0.9328724999995757,['n'],0,left,['u'],1,0.7191526000005979,0.1,0,0,FastAcc,11,19,Woman,Right,
59,4,1,0.8999586999998428,['n'],1,right,['u'],1,0.8014433999996982,0.2,1,0,FastAcc,11,19,Woman,Right,
0,5,1,1.5506334000001516,['n'],1,right,['u'],1,1.346595699998943,0.4,1,0,FastFast,11,19,Woman,Right,
1,5,1,1.1834131999985402,['c'],1,left,['u'],1,0.8637779000000592,0.1,1,0,FastFast,11,19,Woman,Right,
2,5,1,0.5847168000000238,['n'],1,right,['u'],1,0.5537270000004355,0.1,1,0,FastFast,11,19,Woman,Right,
3,5,1,0.5679437999988295,['c'],1,left,['u'],1,0.7338810000001104,0.4,1,0,FastFast,11,19,Woman,Right,
4,5,1,0.5175206000003527,['n'],1,right,['u'],1,0.36627510000107577,0.2,1,0,FastFast,11,19,Woman,Right,
5,5,1,0.6343284000013227,['n'],1,right,['u'],1,0.2966644999996788,0.4,1,0,FastFast,11,19,Woman,Right,
6,5,1,0.4667465999991691,['n'],1,right,['u'],1,0.26846069999919564,0.4,1,0,FastFast,11,19,Woman,Right,
7,5,1,1.1009587000007741,['c'],1,left,['u'],1,0.40830409999944095,0.4,1,0,FastFast,11,19,Woman,Right,
8,5,1,0.9500441999989562,['n'],1,right,['u'],1,0.29288939999969443,0.1,1,0,FastFast,11,19,Woman,Right,
9,5,1,1.3184571999991022,['n'],0,left,['u'],1,0.4552700999993249,0.1,0,0,FastFast,11,19,Woman,Right,
10,5,1,0.6007626999999047,['n'],1,right,['u'],1,0.3355620000002091,0.2,1,0,FastFast,11,19,Woman,Right,
11,5,1,0.8182761999996728,['n'],0,left,['u'],1,0.27598570000009204,0.1,0,0,FastFast,11,19,Woman,Right,
12,5,1,0.8844642999993084,['n'],1,right,['u'],1,0.23234860000047775,0.4,1,0,FastFast,11,19,Woman,Right,
13,5,1,1.2860560000008263,['n'],0,left,['u'],1,0.28547339999931864,0.1,0,0,FastFast,11,19,Woman,Right,
14,5,1,0.7177479000001767,['n'],0,left,['u'],1,0.280488599999444,0.1,0,0,FastFast,11,19,Woman,Right,
15,5,1,0.7672186999989208,['n'],0,left,['e'],0,0.46479309999995166,0.4,1,0,FastFast,11,19,Woman,Right,
16,5,1,0.7847080000010465,['n'],1,right,['u'],1,0.22522510000089824,0.2,1,0,FastFast,11,19,Woman,Right,
17,5,1,1.4343511999995826,['c'],1,left,['e'],0,0.48174500000095577,0.1,0,0,FastFast,11,19,Woman,Right,
18,5,1,1.2174224000009417,['n'],0,left,['e'],0,0.704475900000034,0.4,1,0,FastFast,11,19,Woman,Right,
19,5,1,1.468446100001529,['n'],0,left,['u'],1,0.476139599999442,0.2,0,0,FastFast,11,19,Woman,Right,
20,5,1,0.9685817999998108,['n'],0,left,['u'],1,0.3414470000006986,0.1,0,0,FastFast,11,19,Woman,Right,
21,5,1,0.6837699999996403,['c'],1,left,['u'],1,1.1029539999999542,0.2,1,0,FastFast,11,19,Woman,Right,
22,5,1,0.9011752000005799,['n'],1,right,['u'],1,0.24154280000038852,0.4,1,0,FastFast,11,19,Woman,Right,
23,5,1,1.8172369999992952,['c'],1,left,['u'],1,0.3866861999995308,0.1,1,0,FastFast,11,19,Woman,Right,
24,5,1,0.71762519999902,['n'],1,right,['u'],1,0.2808620999985578,0.2,1,0,FastFast,11,19,Woman,Right,
25,5,1,0.78374950000034,['n'],1,right,['u'],1,0.2402780000011262,0.1,1,0,FastFast,11,19,Woman,Right,
26,5,1,1.067152999999962,['n'],0,left,['u'],1,0.3505936000001384,0.1,0,0,FastFast,11,19,Woman,Right,
27,5,1,0.8346531999995932,['n'],1,right,['u'],1,0.3696155000016006,0.2,1,0,FastFast,11,19,Woman,Right,
28,5,1,1.350441000000501,['n'],1,right,['u'],1,0.3035005000001547,0.4,1,0,FastFast,11,19,Woman,Right,
29,5,1,2.467837399999553,['n'],1,right,['u'],1,0.5314190999997663,0.1,1,0,FastFast,11,19,Woman,Right,
30,5,1,0.7678008999992016,['n'],0,left,['u'],1,0.30581400000119174,0.2,0,0,FastFast,11,19,Woman,Right,
31,5,1,1.1511172999998962,['n'],1,right,['u'],1,0.3462457000005088,0.4,1,0,FastFast,11,19,Woman,Right,
32,5,1,0.6179697999996279,['c'],1,left,['u'],1,0.31014870000035444,0.4,1,0,FastFast,11,19,Woman,Right,
33,5,1,0.6513407000002189,['n'],1,right,['u'],1,0.2585056000007171,0.2,1,0,FastFast,11,19,Woman,Right,
34,5,1,0.6490026999999827,['c'],1,left,['u'],1,0.3702709000008326,0.4,1,0,FastFast,11,19,Woman,Right,
35,5,1,0.8683454999991227,['n'],1,right,['u'],1,0.19378790000155277,0.1,1,0,FastFast,11,19,Woman,Right,
36,5,1,2.8329744000002393,['n'],1,right,['e'],0,1.4844917000009445,0.1,0,0,FastFast,11,19,Woman,Right,
37,5,1,0.5489421000002039,['n'],0,left,['u'],1,0.22191489999931946,0.2,0,0,FastFast,11,19,Woman,Right,
38,5,1,2.300228000000061,['n'],1,right,['e'],0,0.6352836999994906,0.2,0,0,FastFast,11,19,Woman,Right,
39,5,1,1.6666510999984894,['c'],1,left,['u'],1,1.1703385000000708,0.2,1,0,FastFast,11,19,Woman,Right,
40,5,1,2.13379630000054,['n'],0,left,['e'],0,0.5925334999992629,0.2,1,0,FastFast,11,19,Woman,Right,
41,5,1,1.3342953999999736,['c'],1,left,['u'],1,0.5030564999997296,0.2,1,0,FastFast,11,19,Woman,Right,
42,5,1,0.8844976000000315,['n'],1,right,['u'],1,0.22523279999950319,0.4,1,0,FastFast,11,19,Woman,Right,
43,5,1,1.0998126000013144,['n'],1,right,['u'],1,0.3030080000007729,0.2,1,0,FastFast,11,19,Woman,Right,
44,5,1,0.6847767000017484,['n'],0,left,['u'],1,0.6820907999990595,0.4,0,0,FastFast,11,19,Woman,Right,
45,5,1,0.7175671999993938,['n'],1,right,['u'],1,0.22863440000037372,0.2,1,0,FastFast,11,19,Woman,Right,
46,5,1,0.7173058000007586,['c'],1,left,['u'],1,0.46490970000013476,0.4,1,0,FastFast,11,19,Woman,Right,
47,5,1,0.7172513000004983,['n'],1,right,['u'],1,0.30801339999925403,0.4,1,0,FastFast,11,19,Woman,Right,
48,5,1,1.0011794999991253,['n'],1,right,['u'],1,0.8023214000004373,0.4,1,0,FastFast,11,19,Woman,Right,
49,5,1,0.8511485999988508,['n'],1,right,['u'],1,0.40304640000067593,0.4,1,0,FastFast,11,19,Woman,Right,
50,5,1,0.8344527999997808,['c'],1,left,['u'],1,0.5641813999991427,0.2,1,0,FastFast,11,19,Woman,Right,
51,5,1,0.5676144000008208,['n'],1,right,['u'],1,0.40900930000134395,0.1,1,0,FastFast,11,19,Woman,Right,
52,5,1,3.732012099999338,['n'],0,left,['e'],0,0.8073370000001887,0.2,1,0,FastFast,11,19,Woman,Right,
53,5,1,1.3012235000005603,['n'],1,right,['u'],1,0.4371971000000485,0.1,1,0,FastFast,11,19,Woman,Right,
54,5,1,0.7849311999998463,['c'],1,left,['u'],1,0.518851499999073,0.4,1,0,FastFast,11,19,Woman,Right,
55,5,1,1.6345141999991029,['c'],1,left,['e'],0,0.8834595000007539,0.1,0,0,FastFast,11,19,Woman,Right,
56,5,1,1.850940399999672,['n'],1,right,['e'],0,0.7447114000005968,0.1,0,0,FastFast,11,19,Woman,Right,
57,5,1,0.8674269000002823,['c'],1,left,['e'],0,0.49070840000058524,0.2,0,0,FastFast,11,19,Woman,Right,
58,5,1,1.0510636000017257,['n'],1,right,['u'],1,0.9596689999998489,0.2,1,0,FastFast,11,19,Woman,Right,
59,5,1,1.3185457999989012,['n'],0,left,['u'],1,0.45563579999907233,0.1,0,0,FastFast,11,19,Woman,Right,
0,6,1,2.0679486000008183,['n'],0,left,['u'],1,2.232506399999693,0.2,0,0,AccFast,11,19,Woman,Right,
1,6,1,2.1325223999992886,['n'],0,left,['e'],0,0.5574875000002066,0.1,1,0,AccFast,11,19,Woman,Right,
2,6,1,1.7670610999994096,['n'],0,left,['e'],0,0.5147745000012947,0.2,1,0,AccFast,11,19,Woman,Right,
3,6,1,1.201744800000597,['n'],1,right,['e'],0,1.8407499000004464,0.2,0,0,AccFast,11,19,Woman,Right,
4,6,1,1.0176278999988426,['c'],1,left,['u'],1,0.641469700000016,0.4,1,0,AccFast,11,19,Woman,Right,
5,6,1,0.8328562999995484,['n'],1,right,['u'],1,0.3943191000016668,0.2,1,0,AccFast,11,19,Woman,Right,
6,6,1,1.1494035000014264,['n'],0,left,['e'],0,0.446409300000596,0.1,1,0,AccFast,11,19,Woman,Right,
7,6,1,0.8670951999993122,['c'],1,left,['u'],1,0.49163489999955345,0.4,1,0,AccFast,11,19,Woman,Right,
8,6,1,1.0501118000011047,['n'],0,left,['u'],1,0.577782100001059,0.1,0,0,AccFast,11,19,Woman,Right,
9,6,1,0.7513919000011811,['c'],1,left,['u'],1,0.622773999999481,0.1,1,0,AccFast,11,19,Woman,Right,
10,6,1,0.7848671000010654,['n'],1,right,['u'],1,0.6011230000003707,0.2,1,0,AccFast,11,19,Woman,Right,
11,6,1,1.4677627999990364,['n'],1,right,['u'],1,0.8569714000004751,0.4,1,0,AccFast,11,19,Woman,Right,
12,6,1,1.0669920000000275,['c'],1,left,['u'],1,0.9268555999988166,0.2,1,0,AccFast,11,19,Woman,Right,
13,6,1,0.7512302000013733,['n'],1,right,['u'],1,0.478633800001262,0.4,1,0,AccFast,11,19,Woman,Right,
14,6,1,2.732940400001098,['c'],0,right,['e'],0,0.9130761999986134,0.2,1,0,AccFast,11,19,Woman,Right,
15,6,1,0.7174118000002636,['n'],1,right,['u'],1,0.8180054999993445,0.2,1,0,AccFast,11,19,Woman,Right,
16,6,1,1.0834933999994973,['c'],1,left,['u'],1,0.4727115000005142,0.4,1,0,AccFast,11,19,Woman,Right,
17,6,1,0.6351725999993505,['n'],0,left,['u'],1,0.4787656999997125,0.4,0,0,AccFast,11,19,Woman,Right,
18,6,1,1.2008182000008674,['n'],1,right,['u'],1,0.42991210000036517,0.2,1,0,AccFast,11,19,Woman,Right,
19,6,1,1.8175854000000982,['n'],0,left,['e'],0,1.4624738999991678,0.2,1,0,AccFast,11,19,Woman,Right,
20,6,1,1.1671323999999004,['c'],1,left,['u'],1,0.543818399999509,0.2,1,0,AccFast,11,19,Woman,Right,
21,6,1,1.051723700000366,['c'],1,left,['u'],1,0.5149578000000474,0.4,1,0,AccFast,11,19,Woman,Right,
22,6,1,1.8514921000005415,['c'],1,left,['u'],1,0.934790499999508,0.1,1,0,AccFast,11,19,Woman,Right,
23,6,1,2.0513750000009168,['n'],1,right,['u'],1,0.7382254000003741,0.1,1,0,AccFast,11,19,Woman,Right,
24,6,1,0.801104199999827,['n'],1,right,['u'],1,0.9360347000001639,0.2,1,0,AccFast,11,19,Woman,Right,
25,6,1,2.334354800001165,['n'],1,right,['u'],1,0.6154750999994576,0.4,1,0,AccFast,11,19,Woman,Right,
26,6,1,2.6499330999995436,['c'],1,left,['e'],0,0.9995103999990533,0.1,0,0,AccFast,11,19,Woman,Right,
27,6,1,2.2661384000002727,['n'],1,right,['u'],1,1.2402597000000242,0.4,1,0,AccFast,11,19,Woman,Right,
28,6,1,0.7012135000004491,['n'],1,right,['u'],1,0.956995000000461,0.4,1,0,AccFast,11,19,Woman,Right,
29,6,1,0.9689844999993511,['n'],1,right,['u'],1,0.6744889000001422,0.2,1,0,AccFast,11,19,Woman,Right,
30,6,1,1.7510297000007995,['c'],1,left,['u'],1,0.7724134000000049,0.2,1,0,AccFast,11,19,Woman,Right,
31,6,1,1.000529999999344,['n'],0,left,['u'],1,0.5762570000006235,0.2,0,0,AccFast,11,19,Woman,Right,
32,6,1,0.8323265999988507,['n'],0,left,['u'],1,1.1314400999999634,0.1,0,0,AccFast,11,19,Woman,Right,
33,6,1,1.400405000000319,['n'],1,right,['u'],1,0.35995960000036575,0.4,1,0,AccFast,11,19,Woman,Right,
34,6,1,2.0178190999995422,['c'],1,left,['u'],1,0.9720658999995067,0.1,1,0,AccFast,11,19,Woman,Right,
35,6,1,0.767233300000953,['n'],0,left,['u'],1,0.4569314000000304,0.1,0,0,AccFast,11,19,Woman,Right,
36,6,1,0.8345558999990317,['n'],0,left,['u'],1,0.2968676000000414,0.1,0,0,AccFast,11,19,Woman,Right,
37,6,1,0.8504052999996929,['n'],1,right,['u'],1,0.3007419999994454,0.4,1,0,AccFast,11,19,Woman,Right,
38,6,1,0.6680283999994572,['n'],1,right,['u'],1,0.20028009999987262,0.4,1,0,AccFast,11,19,Woman,Right,
39,6,1,1.7158660000004602,['c'],1,left,['u'],1,0.718764100000044,0.4,1,0,AccFast,11,19,Woman,Right,
40,6,1,1.1675457000001188,['n'],1,right,['u'],1,0.4695565000001807,0.2,1,0,AccFast,11,19,Woman,Right,
41,6,1,1.0346043999998074,['n'],1,right,['u'],1,0.2361434000013105,0.1,1,0,AccFast,11,19,Woman,Right,
42,6,1,0.9338224999992235,['c'],1,left,['u'],1,0.6715604999990319,0.1,1,0,AccFast,11,19,Woman,Right,
43,6,1,1.017122899998867,['n'],1,right,['u'],1,0.41467519999969227,0.2,1,0,AccFast,11,19,Woman,Right,
44,6,1,0.7179414000001998,['c'],0,right,['u'],1,0.5957541999996465,0.1,0,0,AccFast,11,19,Woman,Right,
45,6,1,1.4666505999994115,['n'],1,right,['u'],1,0.7397025999998732,0.4,1,0,AccFast,11,19,Woman,Right,
46,6,1,1.3339814000009937,['c'],1,left,['u'],1,0.49953740000091784,0.4,1,0,AccFast,11,19,Woman,Right,
47,6,1,0.9182325999991008,['n'],1,right,['u'],1,0.4293734000002587,0.4,1,0,AccFast,11,19,Woman,Right,
48,6,1,0.8846016999996209,['c'],1,left,['u'],1,0.36308680000001914,0.4,1,0,AccFast,11,19,Woman,Right,
49,6,1,0.4674806000002718,['n'],1,right,['u'],1,0.2680423999991035,0.1,1,0,AccFast,11,19,Woman,Right,
50,6,1,0.7679267000003165,['c'],1,left,['u'],1,0.3090141000011499,0.1,1,0,AccFast,11,19,Woman,Right,
51,6,1,0.7175192999984574,['n'],1,right,['u'],1,0.22297429999889573,0.1,1,0,AccFast,11,19,Woman,Right,
52,6,1,1.432794099999228,['n'],1,right,['u'],1,0.17512429999987944,0.1,1,0,AccFast,11,19,Woman,Right,
53,6,1,1.933323900000687,['n'],1,right,['u'],1,0.3818676000009873,0.2,1,0,AccFast,11,19,Woman,Right,
54,6,1,0.7346176000010018,['c'],1,left,['u'],1,0.33951969999907305,0.4,1,0,AccFast,11,19,Woman,Right,
55,6,1,0.5506975999996939,['n'],1,right,['u'],1,0.22658400000000256,0.1,1,0,AccFast,11,19,Woman,Right,
56,6,1,0.7852122000003874,['c'],1,left,['u'],1,0.34899419999965176,0.2,1,0,AccFast,11,19,Woman,Right,
57,6,1,0.66792279999936,['n'],0,left,['e'],0,1.2546981000014057,0.4,1,0,AccFast,11,19,Woman,Right,
58,6,1,0.7178074999992532,['n'],1,right,['u'],1,0.5707503000012366,0.1,1,0,AccFast,11,19,Woman,Right,
59,6,1,0.7333646999995835,['n'],1,right,['u'],1,0.23319469999842113,0.2,1,0,AccFast,11,19,Woman,Right,
0,7,1,3.8161397999992914,['c'],1,left,['u'],1,4.213266999999178,0.4,1,0,AccAcc,11,19,Woman,Right,
1,7,1,1.3509076000009372,['n'],1,right,['u'],1,1.9615441000005376,0.1,1,0,AccAcc,11,19,Woman,Right,
2,7,1,1.0677974000009272,['n'],0,left,['u'],1,0.8509682999992947,0.2,0,0,AccAcc,11,19,Woman,Right,
3,7,1,1.4675655999999435,['n'],1,right,['u'],1,1.5446693000012601,0.4,1,0,AccAcc,11,19,Woman,Right,
4,7,1,1.2343098000001191,['c'],1,left,['u'],1,0.53996030000053,0.2,1,0,AccAcc,11,19,Woman,Right,
5,7,1,1.1676497999997082,['n'],0,left,['u'],1,0.37896309999996447,0.4,0,0,AccAcc,11,19,Woman,Right,
6,7,1,0.8843106999993324,['c'],1,left,['u'],1,0.41031199999997625,0.4,1,0,AccAcc,11,19,Woman,Right,
7,7,1,0.7841545999999653,['n'],1,right,['u'],1,0.33334370000011404,0.1,1,0,AccAcc,11,19,Woman,Right,
8,7,1,0.9165126999996573,['n'],1,right,['u'],1,0.3018026000008831,0.4,1,0,AccAcc,11,19,Woman,Right,
9,7,1,0.9500907000001462,['c'],1,left,['u'],1,0.33414989999982936,0.4,1,0,AccAcc,11,19,Woman,Right,
10,7,1,1.0345179000014468,['n'],1,right,['u'],1,0.29810709999946994,0.4,1,0,AccAcc,11,19,Woman,Right,
11,7,1,1.4511117999991257,['c'],1,left,['u'],1,1.590365699999893,0.1,1,0,AccAcc,11,19,Woman,Right,
12,7,1,2.3012831000014558,['n'],1,right,['u'],1,1.38999960000001,0.2,1,0,AccAcc,11,19,Woman,Right,
13,7,1,1.1677620000009483,['c'],1,left,['u'],1,1.3706145000014658,0.4,1,0,AccAcc,11,19,Woman,Right,
14,7,1,0.8012514999991254,['n'],1,right,['u'],1,1.286385400000654,0.1,1,0,AccAcc,11,19,Woman,Right,
15,7,1,0.7846744999988005,['c'],1,left,['u'],1,1.2542540000013105,0.2,1,0,AccAcc,11,19,Woman,Right,
16,7,1,1.9006161000015709,['n'],0,left,['e'],0,1.8029605000010633,0.1,1,0,AccAcc,11,19,Woman,Right,
17,7,1,0.8511046999992686,['n'],1,right,['u'],1,0.4199439000003622,0.4,1,0,AccAcc,11,19,Woman,Right,
18,7,1,1.1847097999998368,['n'],1,right,['u'],1,1.7340551999986928,0.4,1,0,AccAcc,11,19,Woman,Right,
19,7,1,1.8846309000000474,['n'],1,right,['e'],0,2.2004605999991327,0.4,0,0,AccAcc,11,19,Woman,Right,
20,7,1,0.7673149999991438,['n'],1,right,['u'],1,1.57229499999994,0.1,1,0,AccAcc,11,19,Woman,Right,
21,7,1,1.9344774000001053,['n'],1,right,['e'],0,0.39517089999935706,0.4,0,0,AccAcc,11,19,Woman,Right,
22,7,1,1.1505875000002561,['c'],1,left,['u'],1,0.4642488000008598,0.4,1,0,AccAcc,11,19,Woman,Right,
23,7,1,1.684181799999351,['n'],0,left,['e'],0,0.7641170000006241,0.2,1,0,AccAcc,11,19,Woman,Right,
24,7,1,1.0000925999993342,['n'],1,right,['e'],0,0.6483000999996875,0.1,0,0,AccAcc,11,19,Woman,Right,
25,7,1,1.7844390999998723,['c'],1,left,['u'],1,0.48920600000019476,0.2,1,0,AccAcc,11,19,Woman,Right,
26,7,1,2.7327557999997225,['n'],0,left,['e'],0,0.6673361000011937,0.2,1,0,AccAcc,11,19,Woman,Right,
27,7,1,0.816624099999899,['c'],1,left,['u'],1,0.40240090000042983,0.1,1,0,AccAcc,11,19,Woman,Right,
28,7,1,0.68470410000009,['c'],1,left,['e'],0,0.8572703999998339,0.4,0,0,AccAcc,11,19,Woman,Right,
29,7,1,1.5660078000000794,['n'],1,right,['e'],0,0.6369868999991013,0.2,0,0,AccAcc,11,19,Woman,Right,
30,7,1,0.9182565999999497,['n'],1,right,['u'],1,0.39973400000053516,0.1,1,0,AccAcc,11,19,Woman,Right,
31,7,1,1.0181693000013183,['n'],1,right,['e'],0,1.3373909000001731,0.1,0,0,AccAcc,11,19,Woman,Right,
32,7,1,1.7835992999989685,['c'],1,left,['u'],1,1.67975800000022,0.2,1,0,AccAcc,11,19,Woman,Right,
33,7,1,2.3999456000001373,['n'],0,left,['e'],0,1.7917959999995219,0.4,1,0,AccAcc,11,19,Woman,Right,
34,7,1,0.7510400000010122,['n'],1,right,['u'],1,1.0371221999994304,0.2,1,0,AccAcc,11,19,Woman,Right,
35,7,1,0.9504605000001902,['c'],1,left,['u'],1,0.7516790000008768,0.1,1,0,AccAcc,11,19,Woman,Right,
36,7,1,0.9005426999992778,['n'],1,right,['u'],1,0.8969708000004175,0.4,1,0,AccAcc,11,19,Woman,Right,
37,7,1,0.7339391999994405,['c'],1,left,['u'],1,2.6092159999989235,0.2,1,0,AccAcc,11,19,Woman,Right,
38,7,1,1.567710299999817,['n'],0,left,['u'],1,0.7335750999991433,0.1,0,0,AccAcc,11,19,Woman,Right,
39,7,1,0.8677743000007467,['n'],1,right,['u'],1,0.5757773999994242,0.4,1,0,AccAcc,11,19,Woman,Right,
40,7,1,0.851028099999894,['c'],1,left,['u'],1,0.40951829999903566,0.2,1,0,AccAcc,11,19,Woman,Right,
41,7,1,0.801182000001063,['n'],0,left,['u'],1,0.652045700000599,0.2,0,0,AccAcc,11,19,Woman,Right,
42,7,1,0.8163172999993549,['n'],1,right,['u'],1,0.43669430000045395,0.1,1,0,AccAcc,11,19,Woman,Right,
43,7,1,0.8995575999997527,['n'],1,right,['u'],1,0.7368912000001728,0.1,1,0,AccAcc,11,19,Woman,Right,
44,7,1,0.8679033000007621,['n'],1,right,['u'],1,0.6761978000013187,0.2,1,0,AccAcc,11,19,Woman,Right,
45,7,1,1.0671486999999615,['n'],0,left,['u'],1,0.7686658000002353,0.1,0,0,AccAcc,11,19,Woman,Right,
46,7,1,1.617783399999098,['n'],0,left,['e'],0,2.7397772000003897,0.2,1,0,AccAcc,11,19,Woman,Right,
47,7,1,0.9342207999998209,['n'],1,right,['e'],0,2.85208590000002,0.1,0,0,AccAcc,11,19,Woman,Right,
48,7,1,0.8675437999991118,['n'],1,right,['u'],1,1.0742546000001312,0.1,1,0,AccAcc,11,19,Woman,Right,
49,7,1,1.151125399999728,['n'],1,right,['u'],1,1.3721433999999135,0.2,1,0,AccAcc,11,19,Woman,Right,
50,7,1,1.2343995999999606,['n'],1,right,['e'],0,1.0467162000004464,0.1,0,0,AccAcc,11,19,Woman,Right,
51,7,1,0.9175491000005422,['n'],1,right,['u'],1,1.3384547000005114,0.4,1,0,AccAcc,11,19,Woman,Right,
52,7,1,0.6497937000003731,['n'],0,left,['u'],1,0.9104070000012143,0.2,0,0,AccAcc,11,19,Woman,Right,
53,7,1,1.2354149000002508,['n'],1,right,['u'],1,1.3387973999997484,0.1,1,0,AccAcc,11,19,Woman,Right,
54,7,1,1.184028199999375,['n'],0,left,['u'],1,0.6329409999998461,0.2,0,0,AccAcc,11,19,Woman,Right,
55,7,1,1.2008730999987165,['n'],1,right,['u'],1,0.6580722000016976,0.4,1,0,AccAcc,11,19,Woman,Right,
56,7,1,1.9824591999986296,['n'],0,left,['u'],1,0.7006862999987788,0.1,0,0,AccAcc,11,19,Woman,Right,
57,7,1,2.483612300000459,['n'],1,right,['u'],1,0.6065923000005569,0.2,1,0,AccAcc,11,19,Woman,Right,
58,7,1,1.3177902000006725,['n'],0,left,['e'],0,5.316450000000259,0.4,1,0,AccAcc,11,19,Woman,Right,
59,7,1,0.8672722999999678,['n'],0,left,['u'],1,1.440557900001295,0.2,0,0,AccAcc,11,19,Woman,Right,
0,8,1,0.683711100000437,['n'],0,left,['u'],1,2.36735520000002,0.1,0,0,FastAcc,11,19,Woman,Right,
1,8,1,0.38334389999909035,['c'],0,right,['e'],0,1.4285798000000796,0.4,1,0,FastAcc,11,19,Woman,Right,
2,8,1,0.717480200000864,['n'],0,left,['u'],1,1.44191630000023,0.2,0,0,FastAcc,11,19,Woman,Right,
3,8,1,0.5178307999995013,['c'],1,left,['u'],1,2.0377267000003485,0.4,1,0,FastAcc,11,19,Woman,Right,
4,8,1,0.3680229000001418,['n'],1,right,['u'],1,1.480282200000147,0.4,1,0,FastAcc,11,19,Woman,Right,
5,8,1,0.3831368000010116,['c'],0,right,['u'],1,1.6799824999998236,0.2,0,0,FastAcc,11,19,Woman,Right,
6,8,1,0.3670860000001994,['n'],1,right,['u'],1,1.6007456000006641,0.2,1,0,FastAcc,11,19,Woman,Right,
7,8,1,0.7174906000000192,['n'],1,right,['e'],0,1.6864246000004641,0.1,0,0,FastAcc,11,19,Woman,Right,
8,8,1,0.5340385999988939,['c'],0,right,['u'],1,0.8645956999989721,0.1,0,0,FastAcc,11,19,Woman,Right,
9,8,1,0.6509886999992887,['n'],1,right,['u'],1,0.6781653000016377,0.4,1,0,FastAcc,11,19,Woman,Right,
10,8,1,0.7008936000001995,['n'],1,right,['u'],1,2.785370599998714,0.2,1,0,FastAcc,11,19,Woman,Right,
11,8,1,0.951497100000779,['c'],1,left,['e'],0,0.8946486999993795,0.1,0,0,FastAcc,11,19,Woman,Right,
12,8,1,1.116661899999599,['n'],0,left,['e'],0,0.6587920000001759,0.1,1,0,FastAcc,11,19,Woman,Right,
13,8,1,0.6838899000013043,['n'],0,left,['u'],1,1.8383451999998215,0.2,0,0,FastAcc,11,19,Woman,Right,
14,8,1,1.0670921999990242,['c'],1,left,['u'],1,1.373207700000421,0.4,1,0,FastAcc,11,19,Woman,Right,
15,8,1,0.9011096999984147,['n'],0,left,['u'],1,2.0696774999996705,0.1,0,0,FastAcc,11,19,Woman,Right,
16,8,1,1.1008019000000786,['c'],1,left,['u'],1,2.377289899999596,0.4,1,0,FastAcc,11,19,Woman,Right,
17,8,1,0.8679049000002124,['n'],1,right,['u'],1,2.1222810999988724,0.4,1,0,FastAcc,11,19,Woman,Right,
18,8,1,1.8164983000006032,['c'],1,left,['u'],1,1.32800909999969,0.1,1,0,FastAcc,11,19,Woman,Right,
19,8,1,1.4679887000002054,['n'],1,right,['u'],1,1.6992898999997124,0.1,1,0,FastAcc,11,19,Woman,Right,
20,8,1,1.2005910000007134,['c'],1,left,['u'],1,0.6098767000003136,0.4,1,0,FastAcc,11,19,Woman,Right,
21,8,1,1.284563999999591,['n'],0,left,['u'],1,0.48903840000093624,0.1,0,0,FastAcc,11,19,Woman,Right,
22,8,1,1.1011606000010943,['c'],1,left,['u'],1,0.7801503000009689,0.4,1,0,FastAcc,11,19,Woman,Right,
23,8,1,0.9344294000002265,['n'],1,right,['u'],1,0.7620136999994429,0.1,1,0,FastAcc,11,19,Woman,Right,
24,8,1,1.3338754999986122,['c'],0,right,['u'],1,1.8966243000013492,0.2,0,0,FastAcc,11,19,Woman,Right,
25,8,1,1.0007383000011032,['c'],1,left,['u'],1,0.9991913999983808,0.2,1,0,FastAcc,11,19,Woman,Right,
26,8,1,1.284023199999865,['n'],1,right,['u'],1,1.1343639000006078,0.1,1,0,FastAcc,11,19,Woman,Right,
27,8,1,1.0344932999996672,['c'],1,left,['u'],1,0.6824710000000778,0.4,1,0,FastAcc,11,19,Woman,Right,
28,8,1,1.166492799999105,['n'],1,right,['u'],1,2.995263500000874,0.2,1,0,FastAcc,11,19,Woman,Right,
29,8,1,1.4009578000004694,['c'],1,left,['u'],1,1.1579455999999482,0.1,1,0,FastAcc,11,19,Woman,Right,
30,8,1,0.8011910000004718,['n'],1,right,['u'],1,0.7462313999985781,0.2,1,0,FastAcc,11,19,Woman,Right,
31,8,1,1.034461299999748,['n'],1,right,['u'],1,1.0136568999987503,0.4,1,0,FastAcc,11,19,Woman,Right,
32,8,1,0.9678819000000658,['c'],1,left,['u'],1,1.4645653999996284,0.1,1,0,FastAcc,11,19,Woman,Right,
33,8,1,1.2154059000004054,['n'],0,left,['u'],1,1.345292600000903,0.1,0,0,FastAcc,11,19,Woman,Right,
34,8,1,0.8841802000006282,['c'],0,right,['u'],1,1.4178701000000729,0.2,0,0,FastAcc,11,19,Woman,Right,
35,8,1,0.933589000000211,['n'],1,right,['u'],1,0.8303820000000997,0.4,1,0,FastAcc,11,19,Woman,Right,
36,8,1,1.0847733999999036,['n'],1,right,['u'],1,2.0841252000009263,0.4,1,0,FastAcc,11,19,Woman,Right,
37,8,1,0.6844896000002336,['c'],1,left,['u'],1,0.969045300000289,0.2,1,0,FastAcc,11,19,Woman,Right,
38,8,1,0.7343910999989021,['n'],1,right,['u'],1,0.8226087000002735,0.4,1,0,FastAcc,11,19,Woman,Right,
39,8,1,0.9831474000002345,['n'],1,right,['u'],1,0.7059418999997433,0.2,1,0,FastAcc,11,19,Woman,Right,
40,8,1,0.8675084999995306,['n'],1,right,['u'],1,0.6613347999991674,0.4,1,0,FastAcc,11,19,Woman,Right,
41,8,1,0.7507005999996181,['n'],1,right,['u'],1,0.5440582000010181,0.1,1,0,FastAcc,11,19,Woman,Right,
42,8,1,0.81833000000006,['n'],0,left,['u'],1,0.876054500000464,0.2,0,0,FastAcc,11,19,Woman,Right,
43,8,1,0.6678381999990961,['n'],1,right,['u'],1,0.8170881000005465,0.4,1,0,FastAcc,11,19,Woman,Right,
44,8,1,0.7501486000001023,['n'],0,left,['u'],1,0.8211981999993441,0.2,0,0,FastAcc,11,19,Woman,Right,
45,8,1,0.8513858000005712,['n'],1,right,['u'],1,0.45265480000125535,0.1,1,0,FastAcc,11,19,Woman,Right,
46,8,1,0.7179513000010047,['n'],0,left,['u'],1,0.361172599999918,0.1,0,0,FastAcc,11,19,Woman,Right,
47,8,1,0.8009526999994705,['n'],1,right,['u'],1,0.3651737000000139,0.1,1,0,FastAcc,11,19,Woman,Right,
48,8,1,0.7182086000011623,['n'],1,right,['u'],1,1.6838880999985122,0.2,1,0,FastAcc,11,19,Woman,Right,
49,8,1,0.617569199999707,['n'],1,right,['u'],1,0.9234296999984508,0.4,1,0,FastAcc,11,19,Woman,Right,
50,8,1,1.7510183000013058,['c'],1,left,['u'],1,0.33835850000104983,0.2,1,0,FastAcc,11,19,Woman,Right,
51,8,1,0.6849379999985103,['n'],1,right,['u'],1,0.3480911999995442,0.4,1,0,FastAcc,11,19,Woman,Right,
52,8,1,0.6346967999998014,['n'],1,right,['e'],0,0.9032346000003599,0.2,0,0,FastAcc,11,19,Woman,Right,
53,8,1,0.43312110000078974,['n'],0,left,['u'],1,0.6769411000004766,0.2,0,0,FastAcc,11,19,Woman,Right,
54,8,1,0.6339996000006067,['c'],1,left,['u'],1,0.5148443000016414,0.2,1,0,FastAcc,11,19,Woman,Right,
55,8,1,0.6008154000010109,['n'],0,left,['u'],1,0.31230890000006184,0.1,0,0,FastAcc,11,19,Woman,Right,
56,8,1,0.4343735000002198,['c'],1,left,['u'],1,0.36469409999881464,0.4,1,0,FastAcc,11,19,Woman,Right,
57,8,1,0.6671542999993108,['n'],0,left,['u'],1,0.7258793999990303,0.1,0,0,FastAcc,11,19,Woman,Right,
58,8,1,0.634466199999224,['c'],1,left,['u'],1,1.2663021999997,0.2,1,0,FastAcc,11,19,Woman,Right,
59,8,1,0.800292799998715,['c'],1,left,['e'],0,1.138818600000377,0.4,0,0,FastAcc,11,19,Woman,Right,
0,9,1,0.5018063000006805,['n'],1,right,['u'],1,0.6801907000008214,0.1,1,0,FastFast,11,19,Woman,Right,
1,9,1,0.6347005999996327,['c'],1,left,['u'],1,0.5338597000009031,0.4,1,0,FastFast,11,19,Woman,Right,
2,9,1,0.6345641999996587,['c'],1,left,['u'],1,0.4573971999998321,0.2,1,0,FastFast,11,19,Woman,Right,
3,9,1,0.3844697000004089,['n'],0,left,['u'],1,0.2826037000013457,0.1,0,0,FastFast,11,19,Woman,Right,
4,9,1,0.652217800001381,['n'],1,right,['u'],1,0.26362329999938083,0.4,1,0,FastFast,11,19,Woman,Right,
5,9,1,0.4685444999995525,['n'],0,left,['u'],1,0.2525268999997934,0.2,0,0,FastFast,11,19,Woman,Right,
6,9,1,1.367761800000153,['c'],0,right,['e'],0,0.622394500000155,0.1,1,0,FastFast,11,19,Woman,Right,
7,9,1,0.4840729999996256,['n'],1,right,['u'],1,0.18077400000038324,0.4,1,0,FastFast,11,19,Woman,Right,
8,9,1,0.5512104000008549,['c'],1,left,['u'],1,0.2980040000002191,0.4,1,0,FastFast,11,19,Woman,Right,
9,9,1,0.46698380000088946,['n'],1,right,['u'],1,0.1732825999988563,0.2,1,0,FastFast,11,19,Woman,Right,
10,9,1,0.9181311999982427,['c'],0,right,['e'],0,0.42049840000072436,0.2,1,0,FastFast,11,19,Woman,Right,
11,9,1,0.48389400000087335,['n'],1,right,['u'],1,0.19488079999973706,0.1,1,0,FastFast,11,19,Woman,Right,
12,9,1,1.0335826000009547,['n'],1,right,['e'],0,0.8679881999996724,0.2,0,0,FastFast,11,19,Woman,Right,
13,9,1,0.6177680000000692,['c'],1,left,['u'],1,0.4751556999999593,0.4,1,0,FastFast,11,19,Woman,Right,
14,9,1,0.8341545000002952,['n'],1,right,['e'],0,0.7296228000013798,0.1,0,0,FastFast,11,19,Woman,Right,
15,9,1,0.4995160999988002,['c'],1,left,['e'],0,0.7313985000000685,0.2,0,0,FastFast,11,19,Woman,Right,
16,9,1,0.6675655000017287,['c'],1,left,['u'],1,0.5331088000002637,0.2,1,0,FastFast,11,19,Woman,Right,
17,9,1,0.483352900000682,['n'],0,left,['e'],0,1.103271500000119,0.1,1,0,FastFast,11,19,Woman,Right,
18,9,1,0.5509512000007817,['n'],0,left,['e'],0,1.407438700000057,0.1,1,0,FastFast,11,19,Woman,Right,
19,9,1,0.5841288999999961,['n'],1,right,['u'],1,0.27442730000075244,0.4,1,0,FastFast,11,19,Woman,Right,
20,9,1,0.6509592000002158,['c'],0,right,['u'],1,0.4003058999987843,0.1,0,0,FastFast,11,19,Woman,Right,
21,9,1,1.034322700001212,['n'],0,left,['e'],0,0.7452413999999408,0.1,1,0,FastFast,11,19,Woman,Right,
22,9,1,0.7010209000000032,['n'],1,right,['e'],0,0.44973039999968023,0.2,0,0,FastFast,11,19,Woman,Right,
23,9,1,0.983629700000165,['n'],1,right,['e'],0,1.29081799999949,0.2,0,0,FastFast,11,19,Woman,Right,
24,9,1,0.4005116000007547,['c'],0,right,['e'],0,1.306645099999514,0.4,1,0,FastFast,11,19,Woman,Right,
25,9,1,0.5665429000000586,['c'],1,left,['u'],1,0.46602059999895573,0.1,1,0,FastFast,11,19,Woman,Right,
26,9,1,0.7497443000011117,['c'],1,left,['e'],0,0.6604647000003752,0.4,0,0,FastFast,11,19,Woman,Right,
27,9,1,0.45164629999999306,['n'],1,right,['u'],1,0.3299265999994532,0.2,1,0,FastFast,11,19,Woman,Right,
28,9,1,0.7669132000009995,['n'],1,right,['e'],0,0.6566622999998799,0.4,0,0,FastFast,11,19,Woman,Right,
29,9,1,0.9846410999998625,['n'],1,right,['u'],1,0.38568909999958123,0.4,1,0,FastFast,11,19,Woman,Right,
30,9,1,0.618040999999721,['n'],0,left,['u'],1,1.2119559000002482,0.1,0,0,FastFast,11,19,Woman,Right,
31,9,1,0.7180754999990313,['n'],1,right,['e'],0,0.2730569999985164,0.2,0,0,FastFast,11,19,Woman,Right,
32,9,1,2.067918099999588,['n'],1,right,['e'],0,0.39121500000146625,0.1,0,0,FastFast,11,19,Woman,Right,
33,9,1,0.601624200000515,['n'],1,right,['u'],1,0.25721879999946395,0.4,1,0,FastFast,11,19,Woman,Right,
34,9,1,0.61792400000013,['n'],1,right,['u'],1,0.5291565000006813,0.4,1,0,FastFast,11,19,Woman,Right,
35,9,1,0.9501688000000286,['c'],0,right,['u'],1,0.34410530000059225,0.1,0,0,FastFast,11,19,Woman,Right,
36,9,1,0.6172927999996318,['n'],1,right,['u'],1,0.2926173999985622,0.4,1,0,FastFast,11,19,Woman,Right,
37,9,1,0.5845199000013963,['c'],1,left,['u'],1,0.29231629999958386,0.2,1,0,FastFast,11,19,Woman,Right,
38,9,1,0.9010653999994247,['n'],0,left,['u'],1,0.40762899999936053,0.1,0,0,FastFast,11,19,Woman,Right,
39,9,1,0.7183005999995657,['n'],1,right,['u'],1,0.3171643999994558,0.2,1,0,FastFast,11,19,Woman,Right,
40,9,1,0.86719500000072,['c'],1,left,['u'],1,0.33616210000036517,0.1,1,0,FastFast,11,19,Woman,Right,
41,9,1,1.0848609999993641,['n'],0,left,['u'],1,0.4099521999996796,0.1,0,0,FastFast,11,19,Woman,Right,
42,9,1,0.6676850999992894,['n'],1,right,['u'],1,0.19367960000090534,0.2,1,0,FastFast,11,19,Woman,Right,
43,9,1,0.5845771000003879,['c'],1,left,['u'],1,0.34127489999991667,0.2,1,0,FastFast,11,19,Woman,Right,
44,9,1,1.0672943000008672,['n'],0,left,['u'],1,0.3198361000013392,0.4,0,0,FastFast,11,19,Woman,Right,
45,9,1,0.6511194000013347,['n'],0,left,['u'],1,0.2034060000005411,0.2,0,0,FastFast,11,19,Woman,Right,
46,9,1,0.7179845999999088,['c'],1,left,['u'],1,0.20123830000011367,0.1,1,0,FastFast,11,19,Woman,Right,
47,9,1,0.5845675000000483,['n'],0,left,['u'],1,0.25228450000031444,0.2,0,0,FastFast,11,19,Woman,Right,
48,9,1,0.5169767000006686,['c'],1,left,['u'],1,0.1758799999988696,0.1,1,0,FastFast,11,19,Woman,Right,
49,9,1,0.7353170000005775,['c'],1,left,['u'],1,0.2543012000005547,0.2,1,0,FastFast,11,19,Woman,Right,
50,9,1,0.8000456999998278,['n'],0,left,['u'],1,0.19891610000013316,0.2,0,0,FastFast,11,19,Woman,Right,
51,9,1,0.7010188999993261,['n'],1,right,['u'],1,0.3250724000008631,0.4,1,0,FastFast,11,19,Woman,Right,
52,9,1,0.8678531000005023,['n'],1,right,['e'],0,0.8721052000000782,0.4,0,0,FastFast,11,19,Woman,Right,
53,9,1,0.8346002999987832,['n'],0,left,['u'],1,0.16664980000132346,0.2,0,0,FastFast,11,19,Woman,Right,
54,9,1,0.9011881999995239,['c'],1,left,['u'],1,0.28715920000104234,0.4,1,0,FastFast,11,19,Woman,Right,
55,9,1,2.434134000000995,['c'],1,left,['e'],0,0.5802906999997504,0.4,0,0,FastFast,11,19,Woman,Right,
56,9,1,0.5513408000006166,['n'],0,left,['u'],1,0.1853596999990259,0.1,0,0,FastFast,11,19,Woman,Right,
57,9,1,0.6343586999992112,['n'],1,right,['u'],1,0.18722220000017842,0.1,1,0,FastFast,11,19,Woman,Right,
58,9,1,0.6012582000003022,['n'],1,right,['u'],1,0.1739532000010513,0.4,1,0,FastFast,11,19,Woman,Right,
59,9,1,0.666985100000602,['n'],1,right,['u'],1,0.19113610000022163,0.4,1,0,FastFast,11,19,Woman,Right,
0,10,1,1.967528000001039,['n'],1,right,['e'],0,1.08535110000048,0.1,0,0,AccFast,11,19,Woman,Right,
1,10,1,0.751334799999313,['n'],1,right,['e'],0,1.174571300000025,0.1,0,0,AccFast,11,19,Woman,Right,
2,10,1,1.3840098999990005,['c'],1,left,['u'],1,1.2833900000005087,0.1,1,0,AccFast,11,19,Woman,Right,
3,10,1,0.7347161000016058,['n'],1,right,['u'],1,0.3732460999999603,0.4,1,0,AccFast,11,19,Woman,Right,
4,10,1,1.1019111999994493,['c'],0,right,['u'],1,0.3809340000007069,0.1,0,0,AccFast,11,19,Woman,Right,
5,10,1,0.6680864000009024,['n'],1,right,['u'],1,0.5335270000014134,0.2,1,0,AccFast,11,19,Woman,Right,
6,10,1,1.0659582999996928,['n'],1,right,['e'],0,0.32910809999884805,0.1,0,0,AccFast,11,19,Woman,Right,
7,10,1,0.9851973999993788,['c'],1,left,['u'],1,0.37417509999977483,0.2,1,0,AccFast,11,19,Woman,Right,
8,10,1,0.8177580999999918,['n'],0,left,['u'],1,0.3613439999990078,0.4,0,0,AccFast,11,19,Woman,Right,
9,10,1,1.1000126999988424,['n'],0,left,['u'],1,0.5143100000004779,0.2,0,0,AccFast,11,19,Woman,Right,
10,10,1,1.7657340000005206,['c'],1,left,['u'],1,0.5384069000010641,0.2,1,0,AccFast,11,19,Woman,Right,
11,10,1,0.7007187999988673,['n'],1,right,['e'],0,0.2820755000011559,0.4,0,0,AccFast,11,19,Woman,Right,
12,10,1,0.6179972000009002,['n'],1,right,['u'],1,0.23245399999905203,0.4,1,0,AccFast,11,19,Woman,Right,
13,10,1,0.7010326999989047,['n'],0,left,['u'],1,0.4382261999999173,0.2,0,0,AccFast,11,19,Woman,Right,
14,10,1,0.9504541000005702,['n'],0,left,['e'],0,1.2004477999998926,0.1,1,0,AccFast,11,19,Woman,Right,
15,10,1,0.6677859000010358,['n'],1,right,['u'],1,0.2644976999999926,0.2,1,0,AccFast,11,19,Woman,Right,
16,10,1,0.6515729000002466,['n'],1,right,['u'],1,0.24601799999982177,0.2,1,0,AccFast,11,19,Woman,Right,
17,10,1,0.6010691999999835,['c'],1,left,['u'],1,0.26320789999954286,0.2,1,0,AccFast,11,19,Woman,Right,
18,10,1,0.4499354999989009,['n'],1,right,['u'],1,0.1882612000008521,0.1,1,0,AccFast,11,19,Woman,Right,
19,10,1,0.5513119999995979,['n'],1,right,['u'],1,0.3691944999991392,0.1,1,0,AccFast,11,19,Woman,Right,
20,10,1,0.5826799000005849,['n'],1,right,['u'],1,0.41352010000082373,0.2,1,0,AccFast,11,19,Woman,Right,
21,10,1,0.49994469999910507,['n'],1,right,['u'],1,0.25194439999904716,0.4,1,0,AccFast,11,19,Woman,Right,
22,10,1,0.5680513999996037,['n'],0,left,['u'],1,0.4129661999995733,0.4,0,0,AccFast,11,19,Woman,Right,
23,10,1,0.5341175000012299,['n'],1,right,['u'],1,0.45740639999894483,0.4,1,0,AccFast,11,19,Woman,Right,
24,10,1,0.5678296000005503,['n'],1,right,['u'],1,0.2910070999987511,0.4,1,0,AccFast,11,19,Woman,Right,
25,10,1,0.551077100000839,['n'],0,left,['u'],1,0.3562158000004274,0.1,0,0,AccFast,11,19,Woman,Right,
26,10,1,0.7679989000007481,['n'],0,left,['u'],1,0.24976439999954891,0.1,0,0,AccFast,11,19,Woman,Right,
27,10,1,0.6345856000007188,['n'],1,right,['u'],1,0.28053319999889936,0.4,1,0,AccFast,11,19,Woman,Right,
28,10,1,0.467562400001043,['n'],1,right,['u'],1,0.2692372000001342,0.1,1,0,AccFast,11,19,Woman,Right,
29,10,1,0.40115400000104273,['n'],0,left,['u'],1,0.24474170000030426,0.1,0,0,AccFast,11,19,Woman,Right,
30,10,1,0.43438249999962864,['n'],0,left,['u'],1,0.23589349999929254,0.4,0,0,AccFast,11,19,Woman,Right,
31,10,1,0.6183289999989938,['n'],0,left,['u'],1,0.22012290000020585,0.2,0,0,AccFast,11,19,Woman,Right,
32,10,1,1.6844711999983701,['n'],1,right,['e'],0,0.5627096999996866,0.2,0,0,AccFast,11,19,Woman,Right,
33,10,1,0.6013171000013244,['n'],1,right,['u'],1,0.2623731999992742,0.1,1,0,AccFast,11,19,Woman,Right,
34,10,1,0.5831375999987358,['n'],0,left,['u'],1,0.6785970999990241,0.1,0,0,AccFast,11,19,Woman,Right,
35,10,1,0.8345589999989897,['n'],1,right,['u'],1,0.9089417000013782,0.2,1,0,AccFast,11,19,Woman,Right,
36,10,1,0.9178668000004109,['c'],1,left,['e'],0,1.1584614999992482,0.2,0,0,AccFast,11,19,Woman,Right,
37,10,1,0.5180670999998256,['n'],1,right,['u'],1,0.24652979999882518,0.4,1,0,AccFast,11,19,Woman,Right,
38,10,1,0.9348094999986643,['c'],1,left,['e'],0,1.2892790999994759,0.4,0,0,AccFast,11,19,Woman,Right,
39,10,1,0.43466300000000047,['n'],0,left,['u'],1,0.24711430000024848,0.2,0,0,AccFast,11,19,Woman,Right,
40,10,1,0.5347365999987232,['n'],1,right,['u'],1,0.3300371000004816,0.1,1,0,AccFast,11,19,Woman,Right,
41,10,1,0.6167156999999861,['n'],1,right,['u'],1,0.2471477999988565,0.2,1,0,AccFast,11,19,Woman,Right,
42,10,1,0.6012147000001278,['n'],0,left,['u'],1,0.21491299999979674,0.2,0,0,AccFast,11,19,Woman,Right,
43,10,1,0.6511097000002337,['n'],0,left,['u'],1,0.48682559999906516,0.2,0,0,AccFast,11,19,Woman,Right,
44,10,1,0.749907000001258,['n'],0,left,['u'],1,0.2638482999991538,0.4,0,0,AccFast,11,19,Woman,Right,
45,10,1,0.6177683000005345,['n'],1,right,['u'],1,0.29457430000002205,0.4,1,0,AccFast,11,19,Woman,Right,
46,10,1,0.5681912999989436,['n'],0,left,['u'],1,0.3111045000005106,0.4,0,0,AccFast,11,19,Woman,Right,
47,10,1,0.4175710999988951,['n'],0,left,['u'],1,0.23660059999929217,0.1,0,0,AccFast,11,19,Woman,Right,
48,10,1,0.5013846000001649,['n'],0,left,['u'],1,0.16164260000005015,0.2,0,0,AccFast,11,19,Woman,Right,
49,10,1,0.5343413000009605,['n'],1,right,['u'],1,0.13637249999919732,0.4,1,0,AccFast,11,19,Woman,Right,
50,10,1,0.9012255999987246,['n'],1,right,['u'],1,0.30502049999995506,0.1,1,0,AccFast,11,19,Woman,Right,
51,10,1,0.984011600001395,['c'],1,left,['u'],1,0.8646454999998241,0.4,1,0,AccFast,11,19,Woman,Right,
52,10,1,0.6845866999992722,['n'],1,right,['e'],0,0.5968708000000333,0.4,0,0,AccFast,11,19,Woman,Right,
53,10,1,0.5493777000010596,['n'],0,left,['u'],1,0.26527059999898484,0.1,0,0,AccFast,11,19,Woman,Right,
54,10,1,0.5831406999986939,['n'],0,left,['u'],1,0.23407829999996466,0.2,0,0,AccFast,11,19,Woman,Right,
55,10,1,0.5848464000009699,['n'],1,right,['u'],1,0.20331650000116497,0.2,1,0,AccFast,11,19,Woman,Right,
56,10,1,0.7845789000002696,['n'],1,right,['u'],1,0.5022900999992999,0.1,1,0,AccFast,11,19,Woman,Right,
57,10,1,0.718250399999306,['n'],0,left,['u'],1,1.016841900000145,0.4,0,0,AccFast,11,19,Woman,Right,
58,10,1,1.0178733000011562,['n'],0,left,['u'],1,0.3130156999995961,0.4,0,0,AccFast,11,19,Woman,Right,
59,10,1,0.8844524000014644,['n'],0,left,['u'],1,0.2513878999998269,0.1,0,0,AccFast,11,19,Woman,Right,
0,11,1,1.734117799998785,['n'],0,left,['e'],0,4.747410400001172,0.1,1,0,AccAcc,11,19,Woman,Right,
1,11,1,1.3673519999993005,['n'],1,right,['u'],1,2.233889299999646,0.2,1,0,AccAcc,11,19,Woman,Right,
2,11,1,0.6843398999990313,['c'],1,left,['u'],1,1.1118905000002997,0.1,1,0,AccAcc,11,19,Woman,Right,
3,11,1,0.9166445000009844,['c'],1,left,['u'],1,0.36103469999943627,0.4,1,0,AccAcc,11,19,Woman,Right,
4,11,1,0.5185404000003473,['n'],0,left,['u'],1,0.32875850000164064,0.4,0,0,AccAcc,11,19,Woman,Right,
5,11,1,0.699367400000483,['n'],0,left,['u'],1,0.3544629999996687,0.2,0,0,AccAcc,11,19,Woman,Right,
6,11,1,1.001144200001363,['n'],1,right,['u'],1,0.7662260000015522,0.1,1,0,AccAcc,11,19,Woman,Right,
7,11,1,1.1514022999999725,['n'],1,right,['u'],1,0.46805489999860583,0.1,1,0,AccAcc,11,19,Woman,Right,
8,11,1,0.9164895999983855,['c'],1,left,['u'],1,0.31923640000059095,0.4,1,0,AccAcc,11,19,Woman,Right,
9,11,1,0.9327195999994728,['c'],1,left,['u'],1,0.5602409000002808,0.2,1,0,AccAcc,11,19,Woman,Right,
10,11,1,0.9011529999988852,['c'],1,left,['u'],1,0.2968130999997811,0.4,1,0,AccAcc,11,19,Woman,Right,
11,11,1,0.8999512999998842,['n'],0,left,['u'],1,0.2831375999994634,0.4,0,0,AccAcc,11,19,Woman,Right,
12,11,1,0.584087900000668,['c'],1,left,['u'],1,0.2181073000010656,0.2,1,0,AccAcc,11,19,Woman,Right,
13,11,1,0.7844872000005125,['n'],0,left,['u'],1,0.7724892999995063,0.1,0,0,AccAcc,11,19,Woman,Right,
14,11,1,1.0502371000002313,['c'],0,right,['u'],1,0.6064196000006632,0.1,0,0,AccAcc,11,19,Woman,Right,
15,11,1,0.9499642999999196,['n'],1,right,['u'],1,2.099564599999212,0.1,1,0,AccAcc,11,19,Woman,Right,
16,11,1,0.8993847999990976,['n'],1,right,['u'],1,0.7658535999999003,0.4,1,0,AccAcc,11,19,Woman,Right,
17,11,1,0.7510683000000427,['c'],0,right,['u'],1,0.4353233000001637,0.2,0,0,AccAcc,11,19,Woman,Right,
18,11,1,0.500278999999864,['n'],1,right,['u'],1,0.6087667000010697,0.4,1,0,AccAcc,11,19,Woman,Right,
19,11,1,0.717776600000434,['n'],1,right,['u'],1,0.3820584000004601,0.4,1,0,AccAcc,11,19,Woman,Right,
20,11,1,0.6178210999987641,['c'],1,left,['u'],1,0.3765148999991652,0.4,1,0,AccAcc,11,19,Woman,Right,
21,11,1,0.4672362000001158,['n'],1,right,['u'],1,0.42545460000110324,0.4,1,0,AccAcc,11,19,Woman,Right,
22,11,1,0.8166681999991852,['c'],1,left,['u'],1,0.49061710000023595,0.2,1,0,AccAcc,11,19,Woman,Right,
23,11,1,0.9161285999998654,['c'],1,left,['u'],1,0.7096500999996351,0.4,1,0,AccAcc,11,19,Woman,Right,
24,11,1,0.8010706999994,['n'],1,right,['u'],1,0.4597054999994725,0.2,1,0,AccAcc,11,19,Woman,Right,
25,11,1,0.5513368000010814,['n'],1,right,['u'],1,0.35789909999948577,0.4,1,0,AccAcc,11,19,Woman,Right,
26,11,1,1.0012215000006108,['n'],1,right,['u'],1,0.7222830999999132,0.4,1,0,AccAcc,11,19,Woman,Right,
27,11,1,1.08424130000094,['c'],1,left,['u'],1,0.3968806000011682,0.1,1,0,AccAcc,11,19,Woman,Right,
28,11,1,0.6186011000008875,['n'],1,right,['u'],1,0.2945745999986684,0.1,1,0,AccAcc,11,19,Woman,Right,
29,11,1,0.733798500001285,['n'],1,right,['u'],1,0.4162878000006458,0.1,1,0,AccAcc,11,19,Woman,Right,
30,11,1,1.2337554000005184,['c'],1,left,['u'],1,0.38470910000069125,0.2,1,0,AccAcc,11,19,Woman,Right,
31,11,1,0.7993444999992789,['n'],1,right,['u'],1,0.6606930999987526,0.1,1,0,AccAcc,11,19,Woman,Right,
32,11,1,1.001187400001072,['n'],0,left,['u'],1,0.38827889999993204,0.2,0,0,AccAcc,11,19,Woman,Right,
33,11,1,1.1176357000003918,['c'],0,right,['u'],1,0.44289109999954235,0.1,0,0,AccAcc,11,19,Woman,Right,
34,11,1,0.7172542999996949,['n'],1,right,['u'],1,0.28724139999940235,0.2,1,0,AccAcc,11,19,Woman,Right,
35,11,1,0.7677781999991566,['n'],1,right,['u'],1,0.2796570000009524,0.2,1,0,AccAcc,11,19,Woman,Right,
36,11,1,1.918209299999944,['n'],0,left,['u'],1,0.6741090000014083,0.1,0,0,AccAcc,11,19,Woman,Right,
37,11,1,1.8668283999995765,['c'],1,left,['e'],0,0.44760390000010375,0.2,0,0,AccAcc,11,19,Woman,Right,
38,11,1,0.8323870000003808,['n'],1,right,['u'],1,0.271905900001002,0.2,1,0,AccAcc,11,19,Woman,Right,
39,11,1,0.6847383999993326,['c'],1,left,['u'],1,0.7471451999990677,0.1,1,0,AccAcc,11,19,Woman,Right,
40,11,1,1.2346644999997807,['n'],1,right,['e'],0,0.7502554999991844,0.4,0,0,AccAcc,11,19,Woman,Right,
41,11,1,0.7510779000003822,['n'],1,right,['u'],1,0.5173417000005429,0.2,1,0,AccAcc,11,19,Woman,Right,
42,11,1,1.5181257000003825,['c'],1,left,['u'],1,0.6937087000005704,0.2,1,0,AccAcc,11,19,Woman,Right,
43,11,1,0.7163115000003017,['n'],1,right,['u'],1,1.7283442999996623,0.4,1,0,AccAcc,11,19,Woman,Right,
44,11,1,1.0505372999996325,['c'],1,left,['u'],1,1.9075300000004063,0.1,1,0,AccAcc,11,19,Woman,Right,
45,11,1,0.6179224000006798,['n'],1,right,['u'],1,1.2174624999988737,0.4,1,0,AccAcc,11,19,Woman,Right,
46,11,1,0.6511012999999366,['c'],1,left,['u'],1,0.48940570000013395,0.2,1,0,AccAcc,11,19,Woman,Right,
47,11,1,0.6006406000014977,['n'],1,right,['u'],1,0.4803320999999414,0.4,1,0,AccAcc,11,19,Woman,Right,
48,11,1,0.5512635000013688,['c'],0,right,['u'],1,0.4573686000003363,0.2,0,0,AccAcc,11,19,Woman,Right,
49,11,1,1.1012688999999227,['n'],0,left,['u'],1,0.5579398999998375,0.1,0,0,AccAcc,11,19,Woman,Right,
50,11,1,0.9512501999997767,['c'],1,left,['u'],1,0.4683104999985517,0.2,1,0,AccAcc,11,19,Woman,Right,
51,11,1,0.7341830000004848,['n'],1,right,['u'],1,0.550844400000642,0.4,1,0,AccAcc,11,19,Woman,Right,
52,11,1,0.7014328000004753,['c'],1,left,['u'],1,0.4550519999993412,0.1,1,0,AccAcc,11,19,Woman,Right,
53,11,1,0.9674009000009391,['n'],0,left,['e'],0,0.49696919999951206,0.1,1,0,AccAcc,11,19,Woman,Right,
54,11,1,2.3665853000002244,['n'],0,left,['e'],0,1.3451052000000345,0.1,1,0,AccAcc,11,19,Woman,Right,
55,11,1,1.9826506000008521,['c'],1,left,['u'],1,0.5911591999993107,0.2,1,0,AccAcc,11,19,Woman,Right,
56,11,1,1.3680480000002717,['n'],1,right,['u'],1,0.3069174000011117,0.1,1,0,AccAcc,11,19,Woman,Right,
57,11,1,1.3163975999996183,['n'],1,right,['u'],1,1.7014393999997992,0.4,1,0,AccAcc,11,19,Woman,Right,
58,11,1,0.8670011000012892,['n'],1,right,['u'],1,0.6567195999996329,0.4,1,0,AccAcc,11,19,Woman,Right,
59,11,1,0.9505360999992263,['c'],1,left,['u'],1,0.3232692000001407,0.2,1,0,AccAcc,11,19,Woman,Right,
0,12,1,1.3015034000000014,['n'],1,right,['u'],1,2.1227589000009175,0.4,1,0,FastAcc,11,19,Woman,Right,
1,12,1,0.383904899999834,['c'],1,left,['u'],1,0.8413777999994636,0.2,1,0,FastAcc,11,19,Woman,Right,
2,12,1,0.45029560000148194,['n'],1,right,['u'],1,1.0643012000000454,0.1,1,0,FastAcc,11,19,Woman,Right,
3,12,1,0.5509572999999364,['n'],1,right,['e'],0,1.4180319999995845,0.2,0,0,FastAcc,11,19,Woman,Right,
4,12,1,0.31791529999827617,['c'],0,right,['e'],0,1.1114563000010094,0.4,1,0,FastAcc,11,19,Woman,Right,
5,12,1,0.7835124000012001,['c'],0,right,['u'],1,0.9278819000010117,0.4,0,0,FastAcc,11,19,Woman,Right,
6,12,1,0.4008446999996522,['n'],1,right,['e'],0,0.6369861000002857,0.4,0,0,FastAcc,11,19,Woman,Right,
7,12,1,0.7514248000006774,['c'],0,right,['u'],1,1.303172199999608,0.2,0,0,FastAcc,11,19,Woman,Right,
8,12,1,0.4675274000001082,['n'],1,right,['u'],1,0.5312501000007614,0.4,1,0,FastAcc,11,19,Woman,Right,
9,12,1,0.5344599000000017,['c'],1,left,['u'],1,0.5548768999997264,0.2,1,0,FastAcc,11,19,Woman,Right,
10,12,1,0.7006923999997525,['c'],1,left,['e'],0,0.9233273999998346,0.4,0,0,FastAcc,11,19,Woman,Right,
11,12,1,0.5011748000015359,['n'],0,left,['u'],1,1.06099549999999,0.2,0,0,FastAcc,11,19,Woman,Right,
12,12,1,1.7512848999995185,['c'],0,right,['e'],0,0.7276729000004707,0.4,1,0,FastAcc,11,19,Woman,Right,
13,12,1,0.7171784000001935,['c'],1,left,['u'],1,0.4328235999983008,0.4,1,0,FastAcc,11,19,Woman,Right,
14,12,1,0.6513974999998027,['n'],1,right,['u'],1,0.36040090000096825,0.1,1,0,FastAcc,11,19,Woman,Right,
15,12,1,0.4672918000014761,['c'],1,left,['u'],1,0.2982026000008773,0.4,1,0,FastAcc,11,19,Woman,Right,
16,12,1,1.216221000000587,['n'],0,left,['u'],1,0.528032099999109,0.2,0,0,FastAcc,11,19,Woman,Right,
17,12,1,0.7338047000012011,['n'],1,right,['u'],1,0.23964650000016263,0.1,1,0,FastAcc,11,19,Woman,Right,
18,12,1,0.66784700000062,['c'],0,right,['e'],0,0.30219600000054925,0.2,1,0,FastAcc,11,19,Woman,Right,
19,12,1,0.9503508999987389,['c'],1,left,['u'],1,0.30253459999948973,0.1,1,0,FastAcc,11,19,Woman,Right,
20,12,1,0.6502648999994562,['n'],1,right,['u'],1,0.17082490000029793,0.4,1,0,FastAcc,11,19,Woman,Right,
21,12,1,0.4847363000008045,['c'],1,left,['u'],1,0.24314500000036787,0.4,1,0,FastAcc,11,19,Woman,Right,
22,12,1,0.668307800000548,['n'],0,left,['u'],1,0.16153269999995246,0.2,0,0,FastAcc,11,19,Woman,Right,
23,12,1,1.7509943999993993,['n'],1,right,['u'],1,0.3594964000003529,0.1,1,0,FastAcc,11,19,Woman,Right,
24,12,1,0.7170953000004374,['n'],1,right,['u'],1,0.1911258000000089,0.2,1,0,FastAcc,11,19,Woman,Right,
25,12,1,0.7829476000006252,['c'],1,left,['u'],1,0.2673052000009193,0.1,1,0,FastAcc,11,19,Woman,Right,
26,12,1,0.5497695000012754,['n'],1,right,['u'],1,0.285400100001425,0.4,1,0,FastAcc,11,19,Woman,Right,
27,12,1,0.5337209000008443,['c'],1,left,['u'],1,0.19015849999959755,0.2,1,0,FastAcc,11,19,Woman,Right,
28,12,1,0.5183039999992616,['n'],0,left,['u'],1,0.16459609999947133,0.2,0,0,FastAcc,11,19,Woman,Right,
29,12,1,0.5347242999996524,['c'],1,left,['u'],1,0.2513221000008343,0.4,1,0,FastAcc,11,19,Woman,Right,
30,12,1,0.5007681999995839,['n'],0,left,['e'],0,0.8313680999999633,0.4,1,0,FastAcc,11,19,Woman,Right,
31,12,1,0.7845206000001781,['c'],1,left,['u'],1,0.241011800000706,0.4,1,0,FastAcc,11,19,Woman,Right,
32,12,1,0.8182164000008925,['n'],1,right,['u'],1,0.21739660000093863,0.2,1,0,FastAcc,11,19,Woman,Right,
33,12,1,0.5177779000005103,['c'],1,left,['u'],1,0.3025281999998697,0.4,1,0,FastAcc,11,19,Woman,Right,
34,12,1,0.4660810000004858,['n'],1,right,['u'],1,1.1868959000003088,0.1,1,0,FastAcc,11,19,Woman,Right,
35,12,1,0.4674949000000197,['c'],1,left,['u'],1,0.24270230000001902,0.2,1,0,FastAcc,11,19,Woman,Right,
36,12,1,0.6337198999990505,['n'],1,right,['u'],1,0.3544095999986894,0.1,1,0,FastAcc,11,19,Woman,Right,
37,12,1,0.5504442999990715,['c'],1,left,['u'],1,0.19271149999985937,0.2,1,0,FastAcc,11,19,Woman,Right,
38,12,1,0.6191230999993422,['n'],1,right,['u'],1,0.22707069999887608,0.2,1,0,FastAcc,11,19,Woman,Right,
39,12,1,0.9180453999997553,['c'],1,left,['u'],1,0.16807200000039302,0.2,1,0,FastAcc,11,19,Woman,Right,
40,12,1,0.7011002999988705,['c'],1,left,['u'],1,0.19980570000006992,0.4,1,0,FastAcc,11,19,Woman,Right,
41,12,1,0.70102770000085,['n'],0,left,['u'],1,0.1982969000000594,0.1,0,0,FastAcc,11,19,Woman,Right,
42,12,1,1.5013154999996914,['c'],1,left,['u'],1,0.29261330000008456,0.4,1,0,FastAcc,11,19,Woman,Right,
43,12,1,0.8842936999990343,['n'],1,right,['u'],1,0.23234620000039286,0.1,1,0,FastAcc,11,19,Woman,Right,
44,12,1,0.8498799999997573,['n'],0,left,['u'],1,0.22363469999982044,0.1,0,0,FastAcc,11,19,Woman,Right,
45,12,1,0.6847925999991276,['n'],1,right,['u'],1,0.25417949999973644,0.1,1,0,FastAcc,11,19,Woman,Right,
46,12,1,0.6681783000003634,['n'],1,right,['u'],1,0.18751890000021376,0.1,1,0,FastAcc,11,19,Woman,Right,
47,12,1,0.7002438999988954,['n'],0,left,['u'],1,0.15533590000086406,0.1,0,0,FastAcc,11,19,Woman,Right,
48,12,1,0.8681978999993589,['n'],1,right,['u'],1,0.5962691999993694,0.2,1,0,FastAcc,11,19,Woman,Right,
49,12,1,0.6345557999993616,['c'],1,left,['u'],1,1.2215943000010157,0.1,1,0,FastAcc,11,19,Woman,Right,
50,12,1,0.4496828000010282,['n'],1,right,['u'],1,0.19797480000124779,0.1,1,0,FastAcc,11,19,Woman,Right,
51,12,1,0.8679780000002211,['n'],1,right,['e'],0,1.548933100000795,0.4,0,0,FastAcc,11,19,Woman,Right,
52,12,1,1.2838796000014554,['c'],1,left,['u'],1,0.17424260000007052,0.2,1,0,FastAcc,11,19,Woman,Right,
53,12,1,0.7511156000000483,['n'],1,right,['u'],1,0.7479528999992908,0.1,1,0,FastAcc,11,19,Woman,Right,
54,12,1,0.6180605999998079,['n'],0,left,['e'],0,0.7118909000000713,0.1,1,0,FastAcc,11,19,Woman,Right,
55,12,1,0.8011910000004718,['n'],1,right,['u'],1,0.38149179999891203,0.2,1,0,FastAcc,11,19,Woman,Right,
56,12,1,0.5345722999991267,['c'],1,left,['u'],1,0.18705810000028578,0.4,1,0,FastAcc,11,19,Woman,Right,
57,12,1,0.6181217000012111,['n'],1,right,['u'],1,0.20569129999967117,0.1,1,0,FastAcc,11,19,Woman,Right,
58,12,1,0.6330739999993966,['c'],0,right,['u'],1,0.2553600999999617,0.2,0,0,FastAcc,11,19,Woman,Right,
59,12,1,0.6511872000010044,['c'],1,left,['u'],1,0.20502269999997225,0.1,1,0,FastAcc,11,19,Woman,Right,
0,13,1,1.134601300000213,['n'],1,right,['u'],1,0.5692464999992808,0.4,1,0,FastFast,11,19,Woman,Right,
1,13,1,0.6011113000004116,['n'],1,right,['u'],1,0.46160500000041793,0.4,1,0,FastFast,11,19,Woman,Right,
2,13,1,0.5005766999984189,['c'],0,right,['u'],1,0.32907329999943613,0.2,0,0,FastFast,11,19,Woman,Right,
3,13,1,0.3507785999991029,['n'],0,left,['u'],1,0.1761982000007265,0.2,0,0,FastFast,11,19,Woman,Right,
4,13,1,0.6180459000006522,['c'],0,right,['u'],1,0.2434661999996024,0.2,0,0,FastFast,11,19,Woman,Right,
5,13,1,0.4182428999993135,['n'],1,right,['u'],1,0.1878290000004199,0.2,1,0,FastFast,11,19,Woman,Right,
6,13,1,0.4345257999993919,['n'],1,right,['u'],1,0.16517670000030193,0.2,1,0,FastFast,11,19,Woman,Right,
7,13,1,0.40058870000029856,['c'],1,left,['u'],1,0.0972395000007964,0.2,1,0,FastFast,11,19,Woman,Right,
8,13,1,0.38352779999877384,['n'],1,right,['u'],1,0.15970779999952356,0.4,1,0,FastFast,11,19,Woman,Right,
9,13,1,0.43473979999907897,['n'],1,right,['u'],1,0.12302080000154092,0.1,1,0,FastFast,11,19,Woman,Right,
10,13,1,0.617227599999751,['n'],1,right,['u'],1,0.1125726999998733,0.4,1,0,FastFast,11,19,Woman,Right,
11,13,1,0.7013387999995757,['n'],1,right,['u'],1,0.12951959999918472,0.2,1,0,FastFast,11,19,Woman,Right,
12,13,1,0.6180693999995128,['c'],1,left,['u'],1,0.1656831999989663,0.1,1,0,FastFast,11,19,Woman,Right,
13,13,1,0.5676807999989251,['n'],0,left,['u'],1,0.12317409999923257,0.4,0,0,FastFast,11,19,Woman,Right,
14,13,1,0.5178981999997632,['c'],1,left,['u'],1,0.11564870000074734,0.4,1,0,FastFast,11,19,Woman,Right,
15,13,1,0.6340320999988762,['n'],1,right,['u'],1,0.5841266999996151,0.1,1,0,FastFast,11,19,Woman,Right,
16,13,1,0.5182510000013281,['c'],1,left,['u'],1,0.1424659000003885,0.4,1,0,FastFast,11,19,Woman,Right,
17,13,1,0.4335432999996556,['n'],1,right,['u'],1,0.2501369000001432,0.1,1,0,FastFast,11,19,Woman,Right,
18,13,1,0.8011395000012271,['n'],0,left,['u'],1,0.0986854000002495,0.1,0,0,FastFast,11,19,Woman,Right,
19,13,1,0.4502087000000756,['c'],1,left,['u'],1,0.11114799999995739,0.4,1,0,FastFast,11,19,Woman,Right,
20,13,1,0.7009484999998676,['c'],1,left,['u'],1,0.09759649999978137,0.2,1,0,FastFast,11,19,Woman,Right,
21,13,1,0.4676280999992741,['n'],0,left,['u'],1,0.10894780000126048,0.2,0,0,FastFast,11,19,Woman,Right,
22,13,1,1.167971300001227,['c'],1,left,['e'],0,0.34868640000058804,0.1,0,0,FastFast,11,19,Woman,Right,
23,13,1,0.6513912999998865,['n'],0,left,['u'],1,0.1513076999999612,0.1,0,0,FastFast,11,19,Woman,Right,
24,13,1,0.5511569000009331,['c'],1,left,['u'],1,0.26929180000115593,0.4,1,0,FastFast,11,19,Woman,Right,
25,13,1,0.5016660000001139,['n'],1,right,['u'],1,0.1610034999994241,0.4,1,0,FastFast,11,19,Woman,Right,
26,13,1,0.5676834999994753,['c'],1,left,['u'],1,0.11942819999967469,0.2,1,0,FastFast,11,19,Woman,Right,
27,13,1,0.8005933000004006,['n'],1,right,['e'],0,0.3563543000000209,0.1,0,0,FastFast,11,19,Woman,Right,
28,13,1,0.5847398999994766,['n'],1,right,['u'],1,0.11388719999922614,0.4,1,0,FastFast,11,19,Woman,Right,
29,13,1,0.5672224999998434,['c'],1,left,['u'],1,0.1529320000008738,0.4,1,0,FastFast,11,19,Woman,Right,
30,13,1,0.5169896999996126,['n'],1,right,['u'],1,0.09624040000016976,0.4,1,0,FastFast,11,19,Woman,Right,
31,13,1,0.567918799999461,['c'],1,left,['u'],1,0.13582709999900544,0.2,1,0,FastFast,11,19,Woman,Right,
32,13,1,0.5847350000003644,['n'],1,right,['u'],1,0.09387090000018361,0.2,1,0,FastFast,11,19,Woman,Right,
33,13,1,0.8680499000001873,['n'],1,right,['u'],1,0.12188630000127887,0.1,1,0,FastFast,11,19,Woman,Right,
34,13,1,0.867813799999567,['c'],0,right,['u'],1,0.10078810000049998,0.2,0,0,FastFast,11,19,Woman,Right,
35,13,1,0.6680178999995405,['n'],0,left,['u'],1,0.13670799999999872,0.1,0,0,FastFast,11,19,Woman,Right,
36,13,1,0.7010711999992054,['n'],1,right,['u'],1,0.1537332999996579,0.2,1,0,FastFast,11,19,Woman,Right,
37,13,1,0.7678295999994589,['n'],1,right,['u'],1,0.0887789000007615,0.2,1,0,FastFast,11,19,Woman,Right,
38,13,1,0.6528895999999804,['c'],0,right,['u'],1,0.1402975000000879,0.2,0,0,FastFast,11,19,Woman,Right,
39,13,1,0.6847944000001007,['c'],1,left,['u'],1,0.1899983000002976,0.4,1,0,FastFast,11,19,Woman,Right,
40,13,1,0.5845166999988578,['n'],0,left,['u'],1,0.12985330000083195,0.1,0,0,FastFast,11,19,Woman,Right,
41,13,1,0.5346363999997266,['c'],1,left,['u'],1,0.13764609999998356,0.1,1,0,FastFast,11,19,Woman,Right,
42,13,1,0.48344839999845135,['n'],0,left,['u'],1,0.18030550000003132,0.1,0,0,FastFast,11,19,Woman,Right,
43,13,1,0.48328439999932016,['c'],0,right,['u'],1,0.10717209999893385,0.1,0,0,FastFast,11,19,Woman,Right,
44,13,1,0.6334999999999127,['c'],1,left,['u'],1,0.11171649999960209,0.4,1,0,FastFast,11,19,Woman,Right,
45,13,1,0.8849293000002945,['c'],1,left,['u'],1,0.1224170999994385,0.4,1,0,FastFast,11,19,Woman,Right,
46,13,1,0.5675762999999279,['c'],1,left,['u'],1,0.16128570000000764,0.4,1,0,FastFast,11,19,Woman,Right,
47,13,1,0.5015635999989172,['n'],1,right,['u'],1,0.12145999999847845,0.1,1,0,FastFast,11,19,Woman,Right,
48,13,1,0.5178151000000071,['c'],1,left,['u'],1,0.13041359999988344,0.2,1,0,FastFast,11,19,Woman,Right,
49,13,1,0.4338361999998597,['n'],1,right,['u'],1,0.0942613999995956,0.2,1,0,FastFast,11,19,Woman,Right,
50,13,1,1.1015747000001284,['n'],1,right,['e'],0,0.30519339999955264,0.4,0,0,FastFast,11,19,Woman,Right,
51,13,1,0.7174929000011616,['c'],1,left,['u'],1,0.12302679999993416,0.1,1,0,FastFast,11,19,Woman,Right,
52,13,1,1.8504292999987229,['c'],1,left,['u'],1,0.4466664999999921,0.2,1,0,FastFast,11,19,Woman,Right,
53,13,1,0.4844950000006065,['n'],1,right,['u'],1,0.12407999999959429,0.1,1,0,FastFast,11,19,Woman,Right,
54,13,1,0.5345321000004333,['c'],1,left,['u'],1,0.1482372000009491,0.1,1,0,FastFast,11,19,Woman,Right,
55,13,1,0.6182034000012209,['c'],1,left,['u'],1,0.1359119999997347,0.4,1,0,FastFast,11,19,Woman,Right,
56,13,1,0.5338641999987885,['n'],1,right,['u'],1,0.1114661999999953,0.4,1,0,FastFast,11,19,Woman,Right,
57,13,1,0.5347484000012628,['c'],0,right,['u'],1,0.10472309999931895,0.2,0,0,FastFast,11,19,Woman,Right,
58,13,1,0.667998599999919,['c'],0,right,['u'],1,0.20423370000025898,0.1,0,0,FastFast,11,19,Woman,Right,
59,13,1,0.5835096999999223,['c'],1,left,['u'],1,0.19108719999894674,0.1,1,0,FastFast,11,19,Woman,Right,
0,14,1,3.366132300001482,['c'],1,left,['u'],1,0.911560799999279,0.2,1,0,AccFast,11,19,Woman,Right,
1,14,1,1.9180718999996316,['n'],0,left,['u'],1,0.49686119999933,0.2,0,0,AccFast,11,19,Woman,Right,
2,14,1,1.450190700001258,['c'],1,left,['e'],0,1.0614643999997497,0.1,0,0,AccFast,11,19,Woman,Right,
3,14,1,0.8674943999994866,['n'],0,left,['e'],0,0.6514246000006096,0.2,1,0,AccFast,11,19,Woman,Right,
4,14,1,0.8016093999995064,['n'],1,right,['u'],1,0.6110539999990579,0.2,1,0,AccFast,11,19,Woman,Right,
5,14,1,0.5682042999997066,['c'],1,left,['u'],1,0.4067656999995961,0.4,1,0,AccFast,11,19,Woman,Right,
6,14,1,0.7185016000003088,['c'],1,left,['e'],0,0.7646562999998423,0.4,0,0,AccFast,11,19,Woman,Right,
7,14,1,0.484473499998785,['n'],1,right,['e'],0,0.41296820000025036,0.4,0,0,AccFast,11,19,Woman,Right,
8,14,1,0.6513161000002583,['n'],1,right,['u'],1,0.24483669999972335,0.4,1,0,AccFast,11,19,Woman,Right,
9,14,1,1.2344871000004787,['c'],0,right,['e'],0,0.90856150000036,0.2,1,0,AccFast,11,19,Woman,Right,
10,14,1,0.8499181000006502,['n'],1,right,['u'],1,0.3454860000001645,0.4,1,0,AccFast,11,19,Woman,Right,
11,14,1,0.8677772999999434,['c'],1,left,['u'],1,1.3067133000004105,0.2,1,0,AccFast,11,19,Woman,Right,
12,14,1,0.7844890000014857,['n'],1,right,['u'],1,0.282112099999722,0.4,1,0,AccFast,11,19,Woman,Right,
13,14,1,1.3669362000000547,['c'],1,left,['e'],0,0.842515899999853,0.2,0,0,AccFast,11,19,Woman,Right,
14,14,1,1.7516121999997267,['c'],0,right,['e'],0,0.5977118000009796,0.1,1,0,AccFast,11,19,Woman,Right,
15,14,1,0.6665761999993265,['n'],1,right,['u'],1,0.16601280000031693,0.4,1,0,AccFast,11,19,Woman,Right,
16,14,1,1.8661815999985265,['n'],1,right,['u'],1,0.1833040000001347,0.2,1,0,AccFast,11,19,Woman,Right,
17,14,1,2.4176818000014464,['c'],1,left,['e'],0,1.009200000000419,0.1,0,0,AccFast,11,19,Woman,Right,
18,14,1,0.6520270000000892,['c'],1,left,['u'],1,0.6898399000001518,0.2,1,0,AccFast,11,19,Woman,Right,
19,14,1,1.1676573999993707,['n'],0,left,['u'],1,0.6343682999995508,0.1,0,0,AccFast,11,19,Woman,Right,
20,14,1,2.133866600001056,['n'],0,left,['u'],1,1.2145878999999695,0.1,0,0,AccFast,11,19,Woman,Right,
21,14,1,0.9832346000002872,['n'],0,left,['u'],1,1.017409800000678,0.1,0,0,AccFast,11,19,Woman,Right,
22,14,1,0.8658795000010286,['n'],1,right,['u'],1,0.3207304999996268,0.1,1,0,AccFast,11,19,Woman,Right,
23,14,1,1.2843903000011778,['c'],1,left,['u'],1,0.306520800000726,0.2,1,0,AccFast,11,19,Woman,Right,
24,14,1,1.6854724000004353,['n'],1,right,['u'],1,0.46978669999953127,0.2,1,0,AccFast,11,19,Woman,Right,
25,14,1,1.482981999999538,['c'],0,right,['u'],1,1.7383520000003045,0.1,0,0,AccFast,11,19,Woman,Right,
26,14,1,1.4003579999989597,['n'],1,right,['u'],1,0.2235673000013776,0.2,1,0,AccFast,11,19,Woman,Right,
27,14,1,0.9150773000001209,['c'],0,right,['u'],1,0.42138119999981427,0.4,0,0,AccFast,11,19,Woman,Right,
28,14,1,0.6346417999993719,['c'],1,left,['u'],1,0.2370496000003186,0.4,1,0,AccFast,11,19,Woman,Right,
29,14,1,0.5506188999988808,['n'],1,right,['u'],1,0.19194699999934528,0.4,1,0,AccFast,11,19,Woman,Right,
30,14,1,1.2171290999995108,['c'],0,right,['u'],1,0.23491980000108015,0.2,0,0,AccFast,11,19,Woman,Right,
31,14,1,0.8346023999984027,['n'],1,right,['u'],1,0.14618780000091647,0.1,1,0,AccFast,11,19,Woman,Right,
32,14,1,0.6666380000006029,['c'],0,right,['u'],1,0.29208640000069863,0.1,0,0,AccFast,11,19,Woman,Right,
33,14,1,0.6514700999996421,['n'],1,right,['u'],1,0.48089010000148846,0.2,1,0,AccFast,11,19,Woman,Right,
34,14,1,1.0843224999989616,['c'],0,right,['e'],0,0.4687711999995372,0.1,1,0,AccFast,11,19,Woman,Right,
35,14,1,0.9680958000008104,['n'],1,right,['e'],0,0.2385389999999461,0.2,0,0,AccFast,11,19,Woman,Right,
36,14,1,0.950736799999504,['c'],1,left,['u'],1,0.14482160000079602,0.4,1,0,AccFast,11,19,Woman,Right,
37,14,1,0.6349309000015637,['n'],1,right,['u'],1,0.2766556999995373,0.1,1,0,AccFast,11,19,Woman,Right,
38,14,1,1.1668687999990652,['c'],1,left,['e'],0,0.39837439999973867,0.1,0,0,AccFast,11,19,Woman,Right,
39,14,1,0.9170256000015797,['c'],1,left,['u'],1,0.7475218999989011,0.4,1,0,AccFast,11,19,Woman,Right,
40,14,1,0.7840441999996983,['n'],1,right,['u'],1,0.19275790000028792,0.4,1,0,AccFast,11,19,Woman,Right,
41,14,1,0.9843371999995725,['c'],0,right,['u'],1,0.5332992999992712,0.1,0,0,AccFast,11,19,Woman,Right,
42,14,1,0.8844214999990072,['c'],1,left,['e'],0,0.5101469000001089,0.2,0,0,AccFast,11,19,Woman,Right,
43,14,1,1.0510599999997794,['c'],1,left,['e'],0,1.8104736999994202,0.2,0,0,AccFast,11,19,Woman,Right,
44,14,1,0.9510917999996309,['c'],1,left,['u'],1,1.2553523000005953,0.2,1,0,AccFast,11,19,Woman,Right,
45,14,1,1.0683977000007872,['c'],1,left,['u'],1,0.2691164999996545,0.4,1,0,AccFast,11,19,Woman,Right,
46,14,1,0.7161711000007926,['c'],1,left,['u'],1,0.16961649999939254,0.4,1,0,AccFast,11,19,Woman,Right,
47,14,1,1.0515165000015259,['n'],1,right,['u'],1,0.29810989999896265,0.1,1,0,AccFast,11,19,Woman,Right,
48,14,1,0.5332968000002438,['c'],1,left,['u'],1,0.23566799999935029,0.1,1,0,AccFast,11,19,Woman,Right,
49,14,1,1.3348734999999579,['n'],1,right,['u'],1,0.38297699999930046,0.2,1,0,AccFast,11,19,Woman,Right,
50,14,1,1.3334701000003406,['n'],1,right,['u'],1,0.6693179000012606,0.1,1,0,AccFast,11,19,Woman,Right,
51,14,1,0.5846032000008563,['c'],1,left,['u'],1,0.30116410000118776,0.4,1,0,AccFast,11,19,Woman,Right,
52,14,1,0.5337529000007635,['n'],1,right,['u'],1,0.20604869999988296,0.2,1,0,AccFast,11,19,Woman,Right,
53,14,1,0.5511796999999206,['c'],1,left,['u'],1,0.19435499999963213,0.4,1,0,AccFast,11,19,Woman,Right,
54,14,1,0.7683359000002383,['c'],1,left,['u'],1,0.4148356999994576,0.4,1,0,AccFast,11,19,Woman,Right,
55,14,1,0.7674306999997498,['n'],0,left,['u'],1,0.2097463999998581,0.1,0,0,AccFast,11,19,Woman,Right,
56,14,1,0.6343769999984943,['c'],0,right,['u'],1,0.2588386999996146,0.4,0,0,AccFast,11,19,Woman,Right,
57,14,1,0.5508384999993723,['c'],1,left,['u'],1,0.18150620000051276,0.4,1,0,AccFast,11,19,Woman,Right,
58,14,1,0.8505671000002621,['n'],1,right,['u'],1,0.2223455000003014,0.1,1,0,AccFast,11,19,Woman,Right,
59,14,1,0.70102020000013,['c'],1,left,['u'],1,0.26804400000037276,0.1,1,0,AccFast,11,19,Woman,Right,
0,15,1,0.8512049000000843,['c'],1,left,['u'],1,1.6545346999992034,0.4,1,0,AccAcc,11,19,Woman,Right,
1,15,1,1.1342915999994148,['n'],1,right,['u'],1,1.1939013000010164,0.2,1,0,AccAcc,11,19,Woman,Right,
2,15,1,1.401579400000628,['c'],1,left,['u'],1,0.7250292999997328,0.2,1,0,AccAcc,11,19,Woman,Right,
3,15,1,0.8159261000000697,['n'],1,right,['u'],1,0.810790999999881,0.4,1,0,AccAcc,11,19,Woman,Right,
4,15,1,1.0017397999999957,['n'],1,right,['u'],1,0.2925976000005903,0.2,1,0,AccAcc,11,19,Woman,Right,
5,15,1,0.8180242999987968,['n'],1,right,['u'],1,0.23499059999994643,0.1,1,0,AccAcc,11,19,Woman,Right,
6,15,1,1.7680517999997392,['n'],0,left,['u'],1,1.133560899999793,0.1,0,0,AccAcc,11,19,Woman,Right,
7,15,1,1.482291599999371,['n'],1,right,['u'],1,0.5689315999989049,0.2,1,0,AccAcc,11,19,Woman,Right,
8,15,1,1.4176102000001265,['n'],1,right,['u'],1,0.586608100000376,0.2,1,0,AccAcc,11,19,Woman,Right,
9,15,1,1.4511080000011134,['n'],1,right,['u'],1,1.035958299999038,0.2,1,0,AccAcc,11,19,Woman,Right,
10,15,1,1.8503285000006144,['n'],1,right,['u'],1,1.851539799999955,0.1,1,0,AccAcc,11,19,Woman,Right,
11,15,1,1.6180659999990894,['n'],1,right,['u'],1,0.46739119999983814,0.1,1,0,AccAcc,11,19,Woman,Right,
12,15,1,1.2670249000002514,['c'],1,left,['u'],1,0.4807109999983368,0.4,1,0,AccAcc,11,19,Woman,Right,
13,15,1,2.1510975000001054,['n'],0,left,['u'],1,0.6978445000004285,0.2,0,0,AccAcc,11,19,Woman,Right,
14,15,1,1.4014967000002798,['n'],0,left,['u'],1,0.21628469999996014,0.1,0,0,AccAcc,11,19,Woman,Right,
15,15,1,0.9676777000004222,['n'],1,right,['u'],1,0.17220180000003893,0.4,1,0,AccAcc,11,19,Woman,Right,
16,15,1,0.8508786999991571,['n'],1,right,['u'],1,0.16529259999879287,0.4,1,0,AccAcc,11,19,Woman,Right,
17,15,1,1.0012511000004451,['n'],1,right,['u'],1,0.9208601999998791,0.2,1,0,AccAcc,11,19,Woman,Right,
18,15,1,1.1009673999997176,['n'],0,left,['u'],1,0.23479679999945802,0.2,0,0,AccAcc,11,19,Woman,Right,
19,15,1,1.9344146999992518,['n'],1,right,['u'],1,0.3905933999994886,0.2,1,0,AccAcc,11,19,Woman,Right,
20,15,1,1.500976500001343,['n'],1,right,['u'],1,0.2378908999999112,0.4,1,0,AccAcc,11,19,Woman,Right,
21,15,1,1.0171150999995007,['c'],1,left,['u'],1,0.1585015000000567,0.4,1,0,AccAcc,11,19,Woman,Right,
22,15,1,0.7345146999996359,['n'],0,left,['u'],1,0.38127519999943615,0.2,0,0,AccAcc,11,19,Woman,Right,
23,15,1,1.0341169000002992,['c'],1,left,['u'],1,0.19922090000000026,0.1,1,0,AccAcc,11,19,Woman,Right,
24,15,1,0.816742000000886,['n'],0,left,['u'],1,0.20874709999952756,0.1,0,0,AccAcc,11,19,Woman,Right,
25,15,1,1.8667026999992231,['n'],1,right,['u'],1,0.1776317999992898,0.1,1,0,AccAcc,11,19,Woman,Right,
26,15,1,0.8846250999995391,['n'],0,left,['u'],1,0.4570579000010184,0.1,0,0,AccAcc,11,19,Woman,Right,
27,15,1,0.6508101999988867,['c'],1,left,['u'],1,0.20745459999852756,0.2,1,0,AccAcc,11,19,Woman,Right,
28,15,1,0.8168191000004299,['n'],0,left,['u'],1,0.23371299999962503,0.4,0,0,AccAcc,11,19,Woman,Right,
29,15,1,0.7345914999987144,['n'],1,right,['u'],1,0.21278829999937443,0.4,1,0,AccAcc,11,19,Woman,Right,
30,15,1,1.2175716000001557,['n'],1,right,['u'],1,0.28596769999967364,0.4,1,0,AccAcc,11,19,Woman,Right,
31,15,1,1.3661288999992394,['c'],1,left,['u'],1,0.25431620000017574,0.1,1,0,AccAcc,11,19,Woman,Right,
32,15,1,0.917634999999791,['c'],1,left,['u'],1,0.32215879999967,0.4,1,0,AccAcc,11,19,Woman,Right,
33,15,1,1.218305500000497,['n'],1,right,['u'],1,0.3273881999994046,0.2,1,0,AccAcc,11,19,Woman,Right,
34,15,1,1.9682041000014578,['c'],0,right,['e'],0,1.230708400000367,0.4,1,0,AccAcc,11,19,Woman,Right,
35,15,1,0.8511029000001145,['n'],1,right,['e'],0,0.6867283999999927,0.4,0,0,AccAcc,11,19,Woman,Right,
36,15,1,0.7513527999999496,['n'],1,right,['u'],1,0.502906300000177,0.2,1,0,AccAcc,11,19,Woman,Right,
37,15,1,0.6509776000002603,['c'],1,left,['u'],1,0.3000205999996979,0.2,1,0,AccAcc,11,19,Woman,Right,
38,15,1,0.5672782999990886,['n'],0,left,['u'],1,0.23499300000003132,0.1,0,0,AccAcc,11,19,Woman,Right,
39,15,1,0.8011038999993616,['n'],0,left,['u'],1,0.5481211000005715,0.2,0,0,AccAcc,11,19,Woman,Right,
40,15,1,1.401649699999325,['c'],1,left,['u'],1,0.37655199999971956,0.2,1,0,AccAcc,11,19,Woman,Right,
41,15,1,0.6011488999993162,['n'],1,right,['u'],1,0.3242489000003843,0.4,1,0,AccAcc,11,19,Woman,Right,
42,15,1,0.7850281999999424,['n'],1,right,['u'],1,0.2667920000003505,0.4,1,0,AccAcc,11,19,Woman,Right,
43,15,1,1.032880999999179,['n'],1,right,['u'],1,0.3136477999996714,0.1,1,0,AccAcc,11,19,Woman,Right,
44,15,1,0.7349666000009165,['n'],1,right,['u'],1,0.22559779999937746,0.1,1,0,AccAcc,11,19,Woman,Right,
45,15,1,0.6177379000000656,['n'],1,right,['u'],1,0.2746117000006052,0.1,1,0,AccAcc,11,19,Woman,Right,
46,15,1,0.5173781999983476,['c'],1,left,['u'],1,0.2135751000005257,0.4,1,0,AccAcc,11,19,Woman,Right,
47,15,1,0.7011552999993,['n'],0,left,['u'],1,0.19518280000011146,0.1,0,0,AccAcc,11,19,Woman,Right,
48,15,1,1.1663472000000183,['n'],0,left,['u'],1,0.319076199999472,0.1,0,0,AccAcc,11,19,Woman,Right,
49,15,1,1.2992553000003682,['n'],1,right,['u'],1,0.30545420000089507,0.4,1,0,AccAcc,11,19,Woman,Right,
50,15,1,0.6845873999991454,['n'],0,left,['u'],1,0.2838712000011583,0.1,0,0,AccAcc,11,19,Woman,Right,
51,15,1,0.5170477000010578,['n'],0,left,['u'],1,0.3503581999993912,0.2,0,0,AccAcc,11,19,Woman,Right,
52,15,1,0.6338017999987642,['n'],1,right,['u'],1,0.23361540000041714,0.1,1,0,AccAcc,11,19,Woman,Right,
53,15,1,0.8010851000017283,['n'],0,left,['u'],1,0.22633739999946556,0.2,0,0,AccAcc,11,19,Woman,Right,
54,15,1,0.750070299998697,['n'],0,left,['u'],1,0.27029140000013285,0.2,0,0,AccAcc,11,19,Woman,Right,
55,15,1,1.1169853000010335,['n'],0,left,['u'],1,0.2812322999998287,0.1,0,0,AccAcc,11,19,Woman,Right,
56,15,1,0.6345555000007153,['n'],0,left,['u'],1,0.3589307000002009,0.1,0,0,AccAcc,11,19,Woman,Right,
57,15,1,0.5012191999994684,['n'],1,right,['u'],1,0.29525400000056834,0.4,1,0,AccAcc,11,19,Woman,Right,
58,15,1,0.5844964999996591,['c'],1,left,['u'],1,0.19832820000010543,0.4,1,0,AccAcc,11,19,Woman,Right,
59,15,1,0.5344733000001725,['n'],1,right,['u'],1,0.28322509999998147,0.4,1,0,AccAcc,11,19,Woman,Right,
