withinblocktrial,block,block_repetition,rt,resp,cor,cresp,conf_press,cj,rtconf,coherence,slow_trial,manipulation,sub,age,gender,handedness,
0,1,1,3.8668840000000273,['n'],0,left,none,-99,-99,0.5,0,none,30,18,Woman,Right,
1,1,1,0.9163797000001068,['n'],1,right,none,-99,-99,0.5,0,none,30,18,Woman,Right,
2,1,1,0.8844137000000956,['c'],1,left,none,-99,-99,0.5,0,none,30,18,Woman,Right,
3,1,1,0.6010600999998132,['n'],1,right,none,-99,-99,0.5,0,none,30,18,Woman,Right,
4,1,1,0.817605199999889,['c'],0,right,none,-99,-99,0.5,0,none,30,18,Woman,Right,
5,1,1,0.7338961000000381,['c'],1,left,none,-99,-99,0.5,0,none,30,18,Woman,Right,
6,1,1,0.7171304999997119,['n'],1,right,none,-99,-99,0.5,0,none,30,18,Woman,Right,
7,1,1,1.034997199999907,['n'],1,right,none,-99,-99,0.5,0,none,30,18,Woman,Right,
8,1,1,0.8668812999999318,['c'],0,right,none,-99,-99,0.5,0,none,30,18,Woman,Right,
9,1,1,1.583882199999607,['n'],1,right,none,-99,-99,0.5,0,none,30,18,Woman,Right,
10,1,1,0.8679809999998724,['c'],1,left,none,-99,-99,0.5,0,none,30,18,Woman,Right,
11,1,1,1.3998444000003474,['n'],0,left,none,-99,-99,0.5,0,none,30,18,Woman,Right,
12,1,1,0.71691009999995,['n'],1,right,none,-99,-99,0.5,0,none,30,18,Woman,Right,
13,1,1,0.6168974000001981,['c'],1,left,none,-99,-99,0.5,0,none,30,18,Woman,Right,
14,1,1,0.7343298000000686,['n'],1,right,none,-99,-99,0.5,0,none,30,18,Woman,Right,
15,1,1,0.7663994999998067,['c'],1,left,none,-99,-99,0.5,0,none,30,18,Woman,Right,
16,1,1,0.6015260999997736,['c'],1,left,none,-99,-99,0.5,0,none,30,18,Woman,Right,
17,1,1,0.8833368000000519,['c'],1,left,none,-99,-99,0.5,0,none,30,18,Woman,Right,
18,1,1,0.7673589999999422,['n'],0,left,none,-99,-99,0.5,0,none,30,18,Woman,Right,
19,1,1,1.4163257000000158,['n'],0,left,none,-99,-99,0.5,0,none,30,18,Woman,Right,
20,1,1,0.9680644000000029,['n'],1,right,none,-99,-99,0.5,0,none,30,18,Woman,Right,
21,1,1,0.7009934999996403,['c'],1,left,none,-99,-99,0.5,0,none,30,18,Woman,Right,
22,1,1,1.5664348999998765,['n'],1,right,none,-99,-99,0.5,0,none,30,18,Woman,Right,
23,1,1,1.884679799999958,['c'],0,right,none,-99,-99,0.5,0,none,30,18,Woman,Right,
0,1,2,2.4011882999998306,['n'],1,right,none,-99,-99,0.5,0,none,30,18,Woman,Right,
1,1,2,0.8846991000000344,['n'],1,right,none,-99,-99,0.5,0,none,30,18,Woman,Right,
2,1,2,0.5005646999998135,['c'],1,left,none,-99,-99,0.5,0,none,30,18,Woman,Right,
3,1,2,0.7502890000000662,['n'],0,left,none,-99,-99,0.5,0,none,30,18,Woman,Right,
4,1,2,1.5486273999999867,['c'],1,left,none,-99,-99,0.5,0,none,30,18,Woman,Right,
5,1,2,0.866510500000004,['n'],0,left,none,-99,-99,0.5,0,none,30,18,Woman,Right,
6,1,2,2.6336231000000225,['c'],1,left,none,-99,-99,0.5,0,none,30,18,Woman,Right,
7,1,2,1.0170588999999381,['n'],0,left,none,-99,-99,0.5,0,none,30,18,Woman,Right,
8,1,2,0.7011695999999574,['c'],1,left,none,-99,-99,0.5,0,none,30,18,Woman,Right,
9,1,2,0.8512928000000102,['n'],1,right,none,-99,-99,0.5,0,none,30,18,Woman,Right,
10,1,2,0.9681822000002285,['c'],1,left,none,-99,-99,0.5,0,none,30,18,Woman,Right,
11,1,2,0.8508007999998881,['c'],1,left,none,-99,-99,0.5,0,none,30,18,Woman,Right,
12,1,2,0.46711160000040763,['n'],1,right,none,-99,-99,0.5,0,none,30,18,Woman,Right,
13,1,2,0.5178323999998611,['n'],1,right,none,-99,-99,0.5,0,none,30,18,Woman,Right,
14,1,2,0.7329835999998977,['c'],1,left,none,-99,-99,0.5,0,none,30,18,Woman,Right,
15,1,2,0.5009875000000648,['n'],1,right,none,-99,-99,0.5,0,none,30,18,Woman,Right,
16,1,2,0.5507972999998856,['c'],1,left,none,-99,-99,0.5,0,none,30,18,Woman,Right,
17,1,2,0.48372660000040923,['n'],1,right,none,-99,-99,0.5,0,none,30,18,Woman,Right,
18,1,2,0.6168971000001875,['n'],1,right,none,-99,-99,0.5,0,none,30,18,Woman,Right,
19,1,2,0.834214399999837,['c'],0,right,none,-99,-99,0.5,0,none,30,18,Woman,Right,
20,1,2,0.5338636999999835,['n'],1,right,none,-99,-99,0.5,0,none,30,18,Woman,Right,
21,1,2,0.5343987999999626,['c'],1,left,none,-99,-99,0.5,0,none,30,18,Woman,Right,
22,1,2,0.4345397000001867,['n'],1,right,none,-99,-99,0.5,0,none,30,18,Woman,Right,
23,1,2,0.44968969999990804,['n'],1,right,none,-99,-99,0.5,0,none,30,18,Woman,Right,
0,1,3,0.7349604999999428,['c'],1,left,none,-99,-99,0.5,0,none,30,18,Woman,Right,
1,1,3,0.46657679999998436,['c'],1,left,none,-99,-99,0.5,0,none,30,18,Woman,Right,
2,1,3,0.3993622000002688,['c'],1,left,none,-99,-99,0.5,0,none,30,18,Woman,Right,
3,1,3,0.48374920000014754,['n'],1,right,none,-99,-99,0.5,0,none,30,18,Woman,Right,
4,1,3,0.46716139999989537,['c'],1,left,none,-99,-99,0.5,0,none,30,18,Woman,Right,
5,1,3,0.8665826999999808,['n'],0,left,none,-99,-99,0.5,0,none,30,18,Woman,Right,
6,1,3,0.5171445000000858,['n'],1,right,none,-99,-99,0.5,0,none,30,18,Woman,Right,
7,1,3,0.6336474999998245,['n'],1,right,none,-99,-99,0.5,0,none,30,18,Woman,Right,
8,1,3,0.5005510999999387,['c'],1,left,none,-99,-99,0.5,0,none,30,18,Woman,Right,
9,1,3,0.4835317999995823,['n'],1,right,none,-99,-99,0.5,0,none,30,18,Woman,Right,
10,1,3,0.5006768000002921,['n'],1,right,none,-99,-99,0.5,0,none,30,18,Woman,Right,
11,1,3,1.00131569999985,['c'],0,right,none,-99,-99,0.5,0,none,30,18,Woman,Right,
12,1,3,0.6839411999999356,['c'],1,left,none,-99,-99,0.5,0,none,30,18,Woman,Right,
13,1,3,0.6169488999998975,['n'],1,right,none,-99,-99,0.5,0,none,30,18,Woman,Right,
14,1,3,0.6161374000002979,['c'],1,left,none,-99,-99,0.5,0,none,30,18,Woman,Right,
15,1,3,0.8508861000000252,['c'],1,left,none,-99,-99,0.5,0,none,30,18,Woman,Right,
16,1,3,0.9339073000001008,['n'],1,right,none,-99,-99,0.5,0,none,30,18,Woman,Right,
17,1,3,0.7345441999996183,['c'],1,left,none,-99,-99,0.5,0,none,30,18,Woman,Right,
18,1,3,0.7519147000002704,['c'],1,left,none,-99,-99,0.5,0,none,30,18,Woman,Right,
19,1,3,0.767133400000148,['n'],1,right,none,-99,-99,0.5,0,none,30,18,Woman,Right,
20,1,3,0.5004106000001229,['n'],1,right,none,-99,-99,0.5,0,none,30,18,Woman,Right,
21,1,3,0.6315795999998954,['n'],1,right,none,-99,-99,0.5,0,none,30,18,Woman,Right,
22,1,3,0.45111739999993006,['n'],1,right,none,-99,-99,0.5,0,none,30,18,Woman,Right,
23,1,3,0.3003997000000709,['n'],0,left,none,-99,-99,0.5,0,none,30,18,Woman,Right,
0,2,1,1.466029400000025,['n'],0,left,none,-99,-99,0.2,0,none,30,18,Woman,Right,
1,2,1,0.9493593000001965,['c'],0,right,none,-99,-99,0.1,0,none,30,18,Woman,Right,
2,2,1,0.7012608,['c'],1,left,none,-99,-99,0.4,0,none,30,18,Woman,Right,
3,2,1,0.9669692999996187,['n'],0,left,none,-99,-99,0.1,0,none,30,18,Woman,Right,
4,2,1,2.0833263999998053,['c'],1,left,none,-99,-99,0.4,0,none,30,18,Woman,Right,
5,2,1,0.8841744999999719,['n'],1,right,none,-99,-99,0.2,0,none,30,18,Woman,Right,
6,2,1,0.9336956000001919,['n'],1,right,none,-99,-99,0.4,0,none,30,18,Woman,Right,
7,2,1,1.032932399999936,['c'],1,left,none,-99,-99,0.2,0,none,30,18,Woman,Right,
8,2,1,1.0670301999998628,['n'],0,left,none,-99,-99,0.1,0,none,30,18,Woman,Right,
9,2,1,0.9845233000000917,['n'],1,right,none,-99,-99,0.2,0,none,30,18,Woman,Right,
10,2,1,0.6670739999999569,['n'],1,right,none,-99,-99,0.4,0,none,30,18,Woman,Right,
11,2,1,0.5846495999999206,['n'],1,right,none,-99,-99,0.4,0,none,30,18,Woman,Right,
12,2,1,0.8175145999998676,['n'],1,right,none,-99,-99,0.4,0,none,30,18,Woman,Right,
13,2,1,0.551816300000155,['n'],1,right,none,-99,-99,0.1,0,none,30,18,Woman,Right,
14,2,1,1.1837000000000444,['c'],1,left,none,-99,-99,0.1,0,none,30,18,Woman,Right,
15,2,1,1.3002722999999605,['c'],1,left,none,-99,-99,0.2,0,none,30,18,Woman,Right,
16,2,1,0.9347604999998111,['c'],1,left,none,-99,-99,0.2,0,none,30,18,Woman,Right,
17,2,1,2.2159504999999626,['n'],1,right,none,-99,-99,0.1,0,none,30,18,Woman,Right,
18,2,1,0.9013092000000142,['n'],1,right,none,-99,-99,0.2,0,none,30,18,Woman,Right,
19,2,1,0.6673030000001745,['c'],1,left,none,-99,-99,0.4,0,none,30,18,Woman,Right,
20,2,1,0.7670066999999108,['n'],0,left,none,-99,-99,0.2,0,none,30,18,Woman,Right,
21,2,1,0.900018700000146,['n'],1,right,none,-99,-99,0.1,0,none,30,18,Woman,Right,
22,2,1,0.6343007999998918,['n'],1,right,none,-99,-99,0.4,0,none,30,18,Woman,Right,
23,2,1,0.5685727000000043,['n'],0,left,none,-99,-99,0.1,0,none,30,18,Woman,Right,
0,3,1,1.5334540999997444,['n'],0,left,['2'],5,2.968684700000267,0.2,0,none,30,18,Woman,Right,
1,3,1,1.5167893999996522,['n'],1,right,['3'],4,2.000336300000072,0.2,0,none,30,18,Woman,Right,
2,3,1,1.2007931000002827,['c'],1,left,['3'],4,1.9515332999999373,0.2,0,none,30,18,Woman,Right,
3,3,1,0.7332298000001174,['c'],1,left,['2'],5,1.1515093000002707,0.4,0,none,30,18,Woman,Right,
4,3,1,2.316929000000073,['n'],1,right,['9'],2,1.1684168000001591,0.1,0,none,30,18,Woman,Right,
5,3,1,1.3331668999999238,['n'],1,right,['2'],5,1.801131599999735,0.4,0,none,30,18,Woman,Right,
6,3,1,2.415976199999932,['n'],0,left,['8'],3,1.9660310999997819,0.4,0,none,30,18,Woman,Right,
7,3,1,1.5351489999998194,['n'],1,right,['3'],4,2.417742900000121,0.2,0,none,30,18,Woman,Right,
8,3,1,0.9332430999997996,['n'],1,right,['2'],5,1.2510545000000093,0.2,0,none,30,18,Woman,Right,
9,3,1,2.717464900000323,['c'],0,right,['9'],2,1.4180428999998185,0.1,0,none,30,18,Woman,Right,
10,3,1,1.5669778999999835,['c'],1,left,['3'],4,1.2349327000001722,0.4,0,none,30,18,Woman,Right,
11,3,1,1.0334630000002107,['n'],1,right,['3'],4,1.7845510999995895,0.1,0,none,30,18,Woman,Right,
12,3,1,3.4660532000002604,['c'],1,left,['3'],4,1.6012529000004179,0.4,0,none,30,18,Woman,Right,
13,3,1,2.750351900000169,['n'],0,left,['3'],4,1.5678649000001315,0.1,0,none,30,18,Woman,Right,
14,3,1,1.6502120000000104,['c'],1,left,['2'],5,1.2837205999999242,0.4,0,none,30,18,Woman,Right,
15,3,1,1.233175299999857,['n'],1,right,['2'],5,1.3353573999997934,0.2,0,none,30,18,Woman,Right,
16,3,1,1.0172096000001147,['n'],1,right,['1'],6,0.7848414000000048,0.4,0,none,30,18,Woman,Right,
17,3,1,1.8669023000002198,['c'],1,left,['8'],3,1.6679451999998491,0.2,0,none,30,18,Woman,Right,
18,3,1,3.750828900000215,['n'],0,left,['9'],2,0.7013965999999527,0.2,0,none,30,18,Woman,Right,
19,3,1,3.3167677999999796,['n'],0,left,['9'],2,1.5182833000003484,0.1,0,none,30,18,Woman,Right,
20,3,1,3.966075699999692,['n'],1,right,['8'],3,1.9346239000001333,0.1,0,none,30,18,Woman,Right,
21,3,1,2.933504499999799,['c'],1,left,['3'],4,0.8333966999998665,0.4,0,none,30,18,Woman,Right,
22,3,1,3.2839810999998917,['c'],0,right,['9'],2,1.400266300000112,0.1,0,none,30,18,Woman,Right,
23,3,1,3.300534200000129,['n'],1,right,['3'],4,0.9853621000002022,0.1,0,none,30,18,Woman,Right,
0,4,1,3.2333269000000655,['n'],1,right,['3'],4,2.6840234999999666,0.1,0,AccAcc,30,18,Woman,Right,
1,4,1,2.4336992000003193,['n'],1,right,['8'],3,1.183761400000094,0.2,0,AccAcc,30,18,Woman,Right,
2,4,1,2.264469199999894,['c'],1,left,['3'],4,2.050871400000233,0.2,0,AccAcc,30,18,Woman,Right,
3,4,1,2.350342200000341,['c'],1,left,['9'],2,1.4499593999998979,0.1,0,AccAcc,30,18,Woman,Right,
4,4,1,3.5496758000003865,['n'],0,left,['8'],3,1.485521399999925,0.1,0,AccAcc,30,18,Woman,Right,
5,4,1,1.083879700000125,['n'],1,right,['2'],5,0.8675302999999985,0.4,0,AccAcc,30,18,Woman,Right,
6,4,1,3.0157854999997653,['n'],1,right,['2'],5,1.5680381999995916,0.4,0,AccAcc,30,18,Woman,Right,
7,4,1,1.183483199999955,['c'],1,left,['3'],4,0.918158499999663,0.4,0,AccAcc,30,18,Woman,Right,
8,4,1,0.8819908000000396,['n'],1,right,['1'],6,1.9018740999999864,0.4,0,AccAcc,30,18,Woman,Right,
9,4,1,3.434050599999864,['c'],1,left,['9'],2,1.3848663000003398,0.1,0,AccAcc,30,18,Woman,Right,
10,4,1,2.949377999999797,['c'],0,right,['8'],3,1.5674668999999994,0.2,0,AccAcc,30,18,Woman,Right,
11,4,1,2.1500412000000324,['c'],1,left,['2'],5,0.9848578999999518,0.4,0,AccAcc,30,18,Woman,Right,
12,4,1,2.2327086999998755,['c'],1,left,['3'],4,1.284715799999958,0.4,0,AccAcc,30,18,Woman,Right,
13,4,1,1.6503075999999055,['n'],1,right,['3'],4,1.967902000000322,0.1,0,AccAcc,30,18,Woman,Right,
14,4,1,5.0152807999998,x,-99,left,none,-99,-99,0.1,1,AccAcc,30,18,Woman,Right,
15,4,1,1.6175865999998678,['c'],1,left,['9'],2,1.4333271000000423,0.1,0,AccAcc,30,18,Woman,Right,
16,4,1,2.2000812999999653,['n'],0,left,['8'],3,1.5011684000000969,0.1,0,AccAcc,30,18,Woman,Right,
17,4,1,1.6331148999997822,['c'],1,left,['2'],5,1.0346070999999029,0.2,0,AccAcc,30,18,Woman,Right,
18,4,1,2.2502801000000545,['n'],0,left,['3'],4,1.1339441999998598,0.4,0,AccAcc,30,18,Woman,Right,
19,4,1,2.000714499999958,['n'],1,right,['3'],4,1.2346026000000165,0.1,0,AccAcc,30,18,Woman,Right,
20,4,1,0.7338242000000719,['c'],1,left,['1'],6,1.1841355999999905,0.4,0,AccAcc,30,18,Woman,Right,
21,4,1,1.349215600000207,['n'],1,right,['8'],3,1.1674553999996533,0.2,0,AccAcc,30,18,Woman,Right,
22,4,1,0.9341275000001588,['n'],1,right,['2'],5,0.8181042000001071,0.4,0,AccAcc,30,18,Woman,Right,
23,4,1,3.1504596000004312,['n'],0,left,['9'],2,0.9506830999998783,0.1,0,AccAcc,30,18,Woman,Right,
24,4,1,2.7319977000001927,['n'],1,right,['9'],2,1.535726600000089,0.2,0,AccAcc,30,18,Woman,Right,
25,4,1,0.9499218999999357,['n'],1,right,['3'],4,1.3169035000000804,0.4,0,AccAcc,30,18,Woman,Right,
26,4,1,3.5174145000000863,['n'],1,right,['8'],3,1.3843351999998958,0.1,0,AccAcc,30,18,Woman,Right,
27,4,1,1.065804300000309,['n'],1,right,['3'],4,1.018808799999988,0.4,0,AccAcc,30,18,Woman,Right,
28,4,1,0.9000128000002405,['c'],1,left,['2'],5,0.9362500000002001,0.4,0,AccAcc,30,18,Woman,Right,
29,4,1,1.7332725999999639,['n'],1,right,['3'],4,1.1346356000003652,0.4,0,AccAcc,30,18,Woman,Right,
30,4,1,3.183990900000026,['c'],1,left,['3'],4,1.3833795000000464,0.4,0,AccAcc,30,18,Woman,Right,
31,4,1,1.0674534000004314,['n'],0,left,['2'],5,0.9337571999999454,0.2,0,AccAcc,30,18,Woman,Right,
32,4,1,4.150413899999876,['n'],1,right,['3'],4,1.9002114999998412,0.2,0,AccAcc,30,18,Woman,Right,
33,4,1,1.4332759999997506,['n'],1,right,['8'],3,1.4346749999999702,0.2,0,AccAcc,30,18,Woman,Right,
34,4,1,3.8000745000003917,['c'],0,right,['8'],3,1.7510287000000062,0.2,0,AccAcc,30,18,Woman,Right,
35,4,1,2.732778099999905,['n'],0,left,['8'],3,1.3345171000000846,0.1,0,AccAcc,30,18,Woman,Right,
36,4,1,1.4674615000003541,['n'],1,right,['2'],5,1.216894400000001,0.4,0,AccAcc,30,18,Woman,Right,
37,4,1,1.2675395000001117,['c'],1,left,['3'],4,0.9849374999998872,0.4,0,AccAcc,30,18,Woman,Right,
38,4,1,0.9663554999997359,['n'],1,right,['2'],5,1.4180117000000791,0.4,0,AccAcc,30,18,Woman,Right,
39,4,1,2.1164001000001917,['c'],0,right,['9'],2,1.201302399999804,0.1,0,AccAcc,30,18,Woman,Right,
40,4,1,0.9326574000001528,['c'],1,left,['3'],4,0.868826800000079,0.4,0,AccAcc,30,18,Woman,Right,
41,4,1,3.0508584999997765,['n'],1,right,['9'],2,1.0513952999999674,0.2,0,AccAcc,30,18,Woman,Right,
42,4,1,1.701887700000043,['n'],1,right,['3'],4,0.984654099999716,0.4,0,AccAcc,30,18,Woman,Right,
43,4,1,2.3995755000000827,['c'],0,right,['9'],2,1.3010127999996257,0.1,0,AccAcc,30,18,Woman,Right,
44,4,1,3.066932100000031,['c'],1,left,['8'],3,1.4681275999996615,0.1,0,AccAcc,30,18,Woman,Right,
45,4,1,2.366683600000215,['n'],0,left,['3'],4,1.1329381999998986,0.2,0,AccAcc,30,18,Woman,Right,
46,4,1,1.9343423000000257,['c'],0,right,['3'],4,1.6840681999997287,0.1,0,AccAcc,30,18,Woman,Right,
47,4,1,2.750847899999826,['n'],0,left,['9'],2,1.0338509000002887,0.1,0,AccAcc,30,18,Woman,Right,
48,4,1,1.9502935000000434,['c'],1,left,['3'],4,0.8835032000001775,0.2,0,AccAcc,30,18,Woman,Right,
49,4,1,2.717605899999853,['c'],1,left,['2'],5,0.8344411000002765,0.1,0,AccAcc,30,18,Woman,Right,
50,4,1,2.2834336999999323,['n'],0,left,['3'],4,1.5179692000001523,0.4,0,AccAcc,30,18,Woman,Right,
51,4,1,2.250203799999781,['c'],1,left,['3'],4,0.8346230999995896,0.2,0,AccAcc,30,18,Woman,Right,
52,4,1,1.2004415000001245,['n'],1,right,['2'],5,2.3344664999999623,0.2,0,AccAcc,30,18,Woman,Right,
53,4,1,3.6334563000000344,['n'],0,left,['3'],4,1.4833612999996149,0.1,0,AccAcc,30,18,Woman,Right,
54,4,1,2.3143763000002764,['n'],1,right,['3'],4,1.1506914999999935,0.2,0,AccAcc,30,18,Woman,Right,
55,4,1,1.0665960999999697,['n'],1,right,['2'],5,0.6846756999998433,0.2,0,AccAcc,30,18,Woman,Right,
56,4,1,0.9169732000000295,['n'],1,right,['2'],5,1.3998153000002276,0.2,0,AccAcc,30,18,Woman,Right,
57,4,1,1.2341992000001483,['c'],1,left,['2'],5,0.7181995999999344,0.2,0,AccAcc,30,18,Woman,Right,
58,4,1,1.3337122000002637,['c'],1,left,['3'],4,0.7678934000000481,0.2,0,AccAcc,30,18,Woman,Right,
59,4,1,1.5667706000003818,['n'],1,right,['3'],4,2.3517194999999447,0.1,0,AccAcc,30,18,Woman,Right,
0,5,1,1.0004828000000998,['c'],1,left,['2'],5,2.5839703000001464,0.4,0,FastAcc,30,18,Woman,Right,
1,5,1,0.7664499000002252,['c'],1,left,['3'],4,1.9352036000000226,0.4,0,FastAcc,30,18,Woman,Right,
2,5,1,0.7999257999999827,['c'],1,left,['9'],2,1.052004499999839,0.1,0,FastAcc,30,18,Woman,Right,
3,5,1,0.5003296999998383,['n'],1,right,['1'],6,1.1182266999999229,0.2,0,FastAcc,30,18,Woman,Right,
4,5,1,0.7000642000002699,['c'],1,left,['3'],4,1.601405800000066,0.2,0,FastAcc,30,18,Woman,Right,
5,5,1,0.6677458999997725,['n'],1,right,['3'],4,1.334270899999865,0.1,0,FastAcc,30,18,Woman,Right,
6,5,1,1.1674519999996846,['n'],1,right,['9'],2,1.7991256000000249,0.2,0,FastAcc,30,18,Woman,Right,
7,5,1,0.5520613000003323,['n'],1,right,['2'],5,0.8360135999996601,0.4,0,FastAcc,30,18,Woman,Right,
8,5,1,1.5505490999998983,['c'],0,right,['9'],2,1.51722749999999,0.1,0,FastAcc,30,18,Woman,Right,
9,5,1,0.5493271999998797,['c'],1,left,['8'],3,1.567331600000216,0.2,0,FastAcc,30,18,Woman,Right,
10,5,1,0.8506083999996008,['n'],1,right,['9'],2,0.9013046999998551,0.1,0,FastAcc,30,18,Woman,Right,
11,5,1,0.8000678000003063,['n'],1,right,['1'],6,1.2020734000002449,0.4,0,FastAcc,30,18,Woman,Right,
12,5,1,1.1337383999998565,['c'],1,left,['8'],3,1.3512333999997281,0.1,0,FastAcc,30,18,Woman,Right,
13,5,1,1.5000200999998015,['n'],1,right,['8'],3,3.73434830000042,0.2,0,FastAcc,30,18,Woman,Right,
14,5,1,0.5507979000003616,['c'],1,left,['2'],5,0.8846401999999216,0.4,0,FastAcc,30,18,Woman,Right,
15,5,1,0.8838604000002306,['n'],0,left,['8'],3,1.9343399999997928,0.2,0,FastAcc,30,18,Woman,Right,
16,5,1,0.5838434000002053,['n'],1,right,['3'],4,1.2178905000000668,0.4,0,FastAcc,30,18,Woman,Right,
17,5,1,0.8670023999998193,['n'],1,right,['8'],3,1.118199900000036,0.1,0,FastAcc,30,18,Woman,Right,
18,5,1,0.5172732999999425,['c'],1,left,['2'],5,0.9846195999998599,0.4,0,FastAcc,30,18,Woman,Right,
19,5,1,1.0820686000001842,['c'],0,right,['3'],4,1.334853800000019,0.1,0,FastAcc,30,18,Woman,Right,
20,5,1,1.0504476000000977,['n'],1,right,['2'],5,1.8347759000002952,0.4,0,FastAcc,30,18,Woman,Right,
21,5,1,0.9500017999998818,['n'],0,left,['9'],2,1.9508577000001424,0.2,0,FastAcc,30,18,Woman,Right,
22,5,1,0.633760500000335,['c'],1,left,['1'],6,1.1513348999997106,0.4,0,FastAcc,30,18,Woman,Right,
23,5,1,0.7838087999998606,['n'],0,left,['8'],3,1.5826867000000675,0.1,0,FastAcc,30,18,Woman,Right,
24,5,1,0.8853232999999818,['c'],1,left,['3'],4,1.7333421000003,0.1,0,FastAcc,30,18,Woman,Right,
25,5,1,0.4339238000002297,['c'],1,left,['2'],5,1.0347131000003174,0.4,0,FastAcc,30,18,Woman,Right,
26,5,1,0.8002089000001433,['c'],1,left,['3'],4,1.1991159999997762,0.1,0,FastAcc,30,18,Woman,Right,
27,5,1,0.7354569000003721,['n'],0,left,['8'],3,0.9682181999996828,0.2,0,FastAcc,30,18,Woman,Right,
28,5,1,0.7332504000000881,['n'],0,left,['3'],4,1.2678138999999646,0.1,0,FastAcc,30,18,Woman,Right,
29,5,1,0.866575400000329,['c'],1,left,['1'],6,1.2179774999999609,0.4,0,FastAcc,30,18,Woman,Right,
30,5,1,0.8166092000001299,['n'],1,right,['3'],4,1.5682538000000932,0.2,0,FastAcc,30,18,Woman,Right,
31,5,1,1.1984118000000308,['c'],0,right,['2'],5,0.8693785000000389,0.2,0,FastAcc,30,18,Woman,Right,
32,5,1,1.3162022000001343,['n'],0,left,['3'],4,1.7676002000002882,0.2,0,FastAcc,30,18,Woman,Right,
33,5,1,0.5840362999997524,['c'],1,left,['3'],4,1.1846748999996635,0.4,0,FastAcc,30,18,Woman,Right,
34,5,1,0.5005740000001424,['n'],1,right,['3'],4,2.0013638000000356,0.4,0,FastAcc,30,18,Woman,Right,
35,5,1,0.7667888999999377,['c'],0,right,['9'],2,0.8848259000001235,0.1,0,FastAcc,30,18,Woman,Right,
36,5,1,1.0331582999997408,['n'],1,right,['9'],2,2.8843431000000237,0.2,0,FastAcc,30,18,Woman,Right,
37,5,1,1.1163547999999537,['n'],0,left,['3'],4,1.7686366999996608,0.4,0,FastAcc,30,18,Woman,Right,
38,5,1,1.8656009999999696,['n'],0,left,['8'],3,2.552012800000284,0.1,0,FastAcc,30,18,Woman,Right,
39,5,1,0.7505224000001363,['c'],1,left,['9'],2,1.4182366999998521,0.2,0,FastAcc,30,18,Woman,Right,
40,5,1,0.36668779999990875,['c'],0,right,['9'],2,2.0334075999999186,0.2,0,FastAcc,30,18,Woman,Right,
41,5,1,0.7187430999997559,['c'],1,left,['8'],3,1.4677097999997386,0.4,0,FastAcc,30,18,Woman,Right,
42,5,1,0.8325482000000193,['n'],1,right,['3'],4,1.1690013999996154,0.2,0,FastAcc,30,18,Woman,Right,
43,5,1,0.6332727999997587,['n'],1,right,['3'],4,1.0011755000000448,0.2,0,FastAcc,30,18,Woman,Right,
44,5,1,1.2335079999998015,['c'],0,right,['2'],5,1.6348556999996617,0.4,0,FastAcc,30,18,Woman,Right,
45,5,1,0.6664686000003712,['n'],1,right,['3'],4,1.317916200000127,0.1,0,FastAcc,30,18,Woman,Right,
46,5,1,1.4838574000000335,['n'],1,right,['9'],2,2.068126199999824,0.1,0,FastAcc,30,18,Woman,Right,
47,5,1,0.8664134000000558,['c'],1,left,['3'],4,1.5508217000001423,0.4,0,FastAcc,30,18,Woman,Right,
48,5,1,0.7001091000001907,['n'],1,right,['2'],5,0.8846552999998494,0.4,0,FastAcc,30,18,Woman,Right,
49,5,1,1.0002394999996795,['c'],1,left,['9'],2,2.1843769000001885,0.1,0,FastAcc,30,18,Woman,Right,
50,5,1,1.5001981999998861,['n'],0,left,['0'],1,4.133165600000211,0.2,0,FastAcc,30,18,Woman,Right,
51,5,1,0.7003180000001521,['n'],1,right,['8'],3,1.0678619999998773,0.4,0,FastAcc,30,18,Woman,Right,
52,5,1,0.7670410000000629,['c'],0,right,['9'],2,1.6014435000001868,0.2,0,FastAcc,30,18,Woman,Right,
53,5,1,1.0488681000001634,['c'],0,right,['8'],3,1.1359304999996311,0.1,0,FastAcc,30,18,Woman,Right,
54,5,1,1.0351584000000003,['n'],1,right,['3'],4,0.9681095000000823,0.4,0,FastAcc,30,18,Woman,Right,
55,5,1,2.0004045000000588,['n'],0,left,['3'],4,1.4509645999996792,0.1,0,FastAcc,30,18,Woman,Right,
56,5,1,0.8330888000000414,['c'],0,right,['9'],2,1.4177739000001566,0.2,0,FastAcc,30,18,Woman,Right,
57,5,1,0.8188509000001432,['c'],0,right,['8'],3,1.917459400000098,0.1,0,FastAcc,30,18,Woman,Right,
58,5,1,0.8844003000003795,['n'],0,left,['2'],5,1.2015456000003724,0.2,0,FastAcc,30,18,Woman,Right,
59,5,1,1.6664821999997912,['c'],1,left,['3'],4,0.9687810999998874,0.1,0,FastAcc,30,18,Woman,Right,
0,6,1,0.8182299999998577,['n'],1,right,['3'],4,0.6846793999998226,0.2,0,FastFast,30,18,Woman,Right,
1,6,1,0.8168896000001951,['c'],1,left,['8'],3,0.6514283000001342,0.2,0,FastFast,30,18,Woman,Right,
2,6,1,0.7670781000001625,['n'],1,right,['3'],4,0.5998623999998927,0.1,0,FastFast,30,18,Woman,Right,
3,6,1,0.8675662999999076,['c'],0,right,['9'],2,0.8165691999997762,0.1,0,FastFast,30,18,Woman,Right,
4,6,1,0.983858600000076,['c'],0,right,['9'],2,1.1514397000000827,0.1,0,FastFast,30,18,Woman,Right,
5,6,1,0.6831703000002562,['c'],1,left,['2'],5,0.5511098000001766,0.4,0,FastFast,30,18,Woman,Right,
6,6,1,0.6998418000002857,['c'],1,left,['2'],5,0.5843333999996503,0.4,0,FastFast,30,18,Woman,Right,
7,6,1,1.3501389000002746,['n'],0,left,['3'],4,0.3844981000002008,0.1,0,FastFast,30,18,Woman,Right,
8,6,1,0.8336758000000373,['n'],1,right,['2'],5,0.6183492000000115,0.4,0,FastFast,30,18,Woman,Right,
9,6,1,1.4172262000001865,['n'],1,right,['9'],2,0.7017077000000427,0.1,0,FastFast,30,18,Woman,Right,
10,6,1,0.9845120999998471,['c'],0,right,['3'],4,0.5677384999999049,0.2,0,FastFast,30,18,Woman,Right,
11,6,1,0.9171805000000859,['c'],1,left,['3'],4,0.585375699999986,0.2,0,FastFast,30,18,Woman,Right,
12,6,1,1.1166017000000465,['n'],1,right,['8'],3,0.6181738999998743,0.1,0,FastFast,30,18,Woman,Right,
13,6,1,0.7185810999999376,['c'],1,left,['1'],6,0.6690412000002652,0.4,0,FastFast,30,18,Woman,Right,
14,6,1,1.5828838000002179,['n'],1,right,['0'],1,1.134523100000024,0.1,0,FastFast,30,18,Woman,Right,
15,6,1,1.1847638999997798,['c'],1,left,['3'],4,0.6179228000000876,0.2,0,FastFast,30,18,Woman,Right,
16,6,1,0.6997159000002284,['n'],1,right,['2'],5,0.8015468000003239,0.2,0,FastFast,30,18,Woman,Right,
17,6,1,0.7170433999999659,['c'],1,left,['2'],5,0.5514545000000908,0.4,0,FastFast,30,18,Woman,Right,
18,6,1,1.2003896000001077,['n'],0,left,['8'],3,0.6344752999998491,0.1,0,FastFast,30,18,Woman,Right,
19,6,1,0.6335017000001244,['n'],1,right,['3'],4,0.5013417000000118,0.4,0,FastFast,30,18,Woman,Right,
20,6,1,0.8335261000001992,['n'],1,right,['2'],5,0.5007982000001903,0.4,0,FastFast,30,18,Woman,Right,
21,6,1,1.433477000000039,['n'],1,right,['2'],5,0.5348128000000543,0.1,0,FastFast,30,18,Woman,Right,
22,6,1,0.9664751999998771,['c'],1,left,['3'],4,0.7508726000000934,0.1,0,FastFast,30,18,Woman,Right,
23,6,1,0.9157758000001195,['c'],1,left,['2'],5,0.6022226999998566,0.4,0,FastFast,30,18,Woman,Right,
24,6,1,1.0836193000000094,['n'],0,left,['8'],3,0.5014219000004232,0.1,0,FastFast,30,18,Woman,Right,
25,6,1,0.6656959000001734,['n'],1,right,['9'],2,0.4182313000001159,0.2,0,FastFast,30,18,Woman,Right,
26,6,1,1.2001835000000938,['c'],0,right,['9'],2,0.45082959999990635,0.2,0,FastFast,30,18,Woman,Right,
27,6,1,0.8498540999999022,['c'],1,left,['1'],6,0.6346483000002081,0.4,0,FastFast,30,18,Woman,Right,
28,6,1,1.4333102000000508,['n'],0,left,['8'],3,0.8333536000000095,0.2,0,FastFast,30,18,Woman,Right,
29,6,1,0.5342547000000195,['c'],1,left,['3'],4,1.084639199999856,0.4,0,FastFast,30,18,Woman,Right,
30,6,1,0.6668867000003047,['c'],1,left,['2'],5,0.5516517000000931,0.4,0,FastFast,30,18,Woman,Right,
31,6,1,1.4340471000000434,['n'],0,left,['9'],2,0.6841337999999269,0.2,0,FastFast,30,18,Woman,Right,
32,6,1,0.7172365000001264,['n'],1,right,['2'],5,0.484851499999877,0.2,0,FastFast,30,18,Woman,Right,
33,6,1,1.2171392000000196,['c'],0,right,['8'],3,0.8835882000003039,0.1,0,FastFast,30,18,Woman,Right,
34,6,1,1.782949799999642,['n'],0,left,['9'],2,0.7007985999998709,0.1,0,FastFast,30,18,Woman,Right,
35,6,1,1.2660725000000639,['n'],1,right,['3'],4,1.200707500000135,0.2,0,FastFast,30,18,Woman,Right,
36,6,1,0.6678981000000022,['c'],1,left,['2'],5,0.5000878999999259,0.4,0,FastFast,30,18,Woman,Right,
37,6,1,0.9670759999999063,['n'],0,left,['3'],4,0.5668832999999722,0.2,0,FastFast,30,18,Woman,Right,
38,6,1,0.9178274000000783,['n'],0,left,['9'],2,0.6676776999997855,0.2,0,FastFast,30,18,Woman,Right,
39,6,1,1.5003985999996985,['n'],1,right,['8'],3,0.4844468000001143,0.2,0,FastFast,30,18,Woman,Right,
40,6,1,0.8671223999999711,['n'],1,right,['2'],5,0.6679917000001296,0.2,0,FastFast,30,18,Woman,Right,
41,6,1,1.100424799999928,['c'],0,right,['8'],3,0.5678563000001304,0.4,0,FastFast,30,18,Woman,Right,
42,6,1,0.600790799999686,['n'],1,right,['2'],5,0.4516751999999542,0.4,0,FastFast,30,18,Woman,Right,
43,6,1,0.6497411999998803,['c'],1,left,['2'],5,0.7684658000002855,0.4,0,FastFast,30,18,Woman,Right,
44,6,1,1.3834330999998201,['n'],0,left,['8'],3,0.6493712999999843,0.1,0,FastFast,30,18,Woman,Right,
45,6,1,0.6172234999999091,['c'],1,left,['2'],5,0.833474699999897,0.4,0,FastFast,30,18,Woman,Right,
46,6,1,1.2172341000000415,['n'],1,right,['9'],2,0.6691566000004059,0.1,0,FastFast,30,18,Woman,Right,
47,6,1,0.5669585999999072,['n'],1,right,['2'],5,0.9181252999997014,0.4,0,FastFast,30,18,Woman,Right,
48,6,1,1.5675572000000102,['n'],0,left,['9'],2,0.9326787999998487,0.2,0,FastFast,30,18,Woman,Right,
49,6,1,1.034295999999813,['n'],1,right,['3'],4,0.6688813999999184,0.4,0,FastFast,30,18,Woman,Right,
50,6,1,0.6325403999999253,['n'],1,right,['2'],5,1.6851129000001492,0.4,0,FastFast,30,18,Woman,Right,
51,6,1,1.5341942999998537,['c'],1,left,['8'],3,0.7180622999999287,0.2,0,FastFast,30,18,Woman,Right,
52,6,1,0.9838753999997607,['n'],0,left,['3'],4,0.6858149999998204,0.2,0,FastFast,30,18,Woman,Right,
53,6,1,1.2174818999997115,['n'],1,right,['2'],5,0.6505136000000675,0.2,0,FastFast,30,18,Woman,Right,
54,6,1,3.2992111000003206,['c'],1,left,['2'],5,0.9012617000003047,0.1,0,FastFast,30,18,Woman,Right,
55,6,1,0.7501478000003772,['n'],1,right,['1'],6,0.951973100000032,0.4,0,FastFast,30,18,Woman,Right,
56,6,1,1.5337167999996382,['c'],1,left,['2'],5,0.6514740000002348,0.1,0,FastFast,30,18,Woman,Right,
57,6,1,2.8500644999999167,['c'],0,right,['8'],3,0.4183935000000929,0.1,0,FastFast,30,18,Woman,Right,
58,6,1,2.5171097999996164,['c'],0,right,['9'],2,0.6678902000003291,0.1,0,FastFast,30,18,Woman,Right,
59,6,1,1.033095400000093,['c'],1,left,['9'],2,1.3344879999999648,0.1,0,FastFast,30,18,Woman,Right,
0,7,1,2.2675813999999264,['n'],1,right,['2'],5,1.2346464000002015,0.1,0,AccFast,30,18,Woman,Right,
1,7,1,2.1161308000000645,['c'],1,left,['8'],3,0.7681864999999561,0.2,0,AccFast,30,18,Woman,Right,
2,7,1,1.6344444000001204,['c'],1,left,['3'],4,0.5683868000000984,0.1,0,AccFast,30,18,Woman,Right,
3,7,1,1.1334081999998489,['n'],1,right,['3'],4,0.8350780000000668,0.2,0,AccFast,30,18,Woman,Right,
4,7,1,0.7490404000000126,['c'],1,left,['2'],5,0.48460449999993216,0.2,0,AccFast,30,18,Woman,Right,
5,7,1,1.950267900000199,['c'],0,right,['8'],3,0.7511911000001419,0.1,0,AccFast,30,18,Woman,Right,
6,7,1,1.5997526999999536,['c'],0,right,['8'],3,0.667755599999964,0.1,0,AccFast,30,18,Woman,Right,
7,7,1,0.816535599999952,['n'],1,right,['2'],5,0.5516350000002603,0.2,0,AccFast,30,18,Woman,Right,
8,7,1,1.6494355999998334,['n'],1,right,['2'],5,0.6851320999999189,0.2,0,AccFast,30,18,Woman,Right,
9,7,1,1.900629199999912,['n'],1,right,['9'],2,0.41797859999996945,0.4,0,AccFast,30,18,Woman,Right,
10,7,1,0.7663112999998702,['c'],1,left,['1'],6,0.501336899999842,0.4,0,AccFast,30,18,Woman,Right,
11,7,1,0.9842008999999052,['n'],1,right,['2'],5,0.8848256999999649,0.4,0,AccFast,30,18,Woman,Right,
12,7,1,1.766563600000154,['c'],1,left,['2'],5,0.6347278999996888,0.1,0,AccFast,30,18,Woman,Right,
13,7,1,1.0837634000004073,['c'],1,left,['3'],4,0.6510631999999532,0.4,0,AccFast,30,18,Woman,Right,
14,7,1,0.8004479999999603,['n'],1,right,['2'],5,0.5679152000002432,0.1,0,AccFast,30,18,Woman,Right,
15,7,1,0.8002787000000353,['c'],1,left,['1'],6,0.7845440999999482,0.2,0,AccFast,30,18,Woman,Right,
16,7,1,1.8168871999996554,['n'],1,right,['9'],2,0.5676557000001594,0.1,0,AccFast,30,18,Woman,Right,
17,7,1,0.9013954000001831,['c'],1,left,['2'],5,0.4350950999996712,0.4,0,AccFast,30,18,Woman,Right,
18,7,1,0.6171643000002405,['c'],1,left,['3'],4,0.9342309999997269,0.4,0,AccFast,30,18,Woman,Right,
19,7,1,1.0167602000001352,['c'],1,left,['3'],4,0.5680542999998579,0.1,0,AccFast,30,18,Woman,Right,
20,7,1,2.815741899999921,['n'],1,right,['9'],2,0.7688472999998339,0.1,0,AccFast,30,18,Woman,Right,
21,7,1,2.0333150999999816,['c'],1,left,['8'],3,0.6335392999999385,0.1,0,AccFast,30,18,Woman,Right,
22,7,1,0.9835947999999917,['n'],1,right,['2'],5,0.4181914000000688,0.2,0,AccFast,30,18,Woman,Right,
23,7,1,0.800444299999981,['c'],1,left,['2'],5,0.6844551000003776,0.4,0,AccFast,30,18,Woman,Right,
24,7,1,1.0668277999998281,['n'],1,right,['3'],4,0.6001923999997416,0.4,0,AccFast,30,18,Woman,Right,
25,7,1,2.398504799999955,['c'],0,right,['9'],2,0.8183026000001519,0.1,0,AccFast,30,18,Woman,Right,
26,7,1,1.483165199999803,['c'],1,left,['8'],3,1.2009640999999647,0.2,0,AccFast,30,18,Woman,Right,
27,7,1,2.4327806999999666,['n'],1,right,['0'],1,1.1348149000000376,0.1,0,AccFast,30,18,Woman,Right,
28,7,1,2.934628099999827,['c'],0,right,['3'],4,0.7348187999996298,0.1,0,AccFast,30,18,Woman,Right,
29,7,1,2.149614500000098,['c'],1,left,['2'],5,0.7016121000001476,0.1,0,AccFast,30,18,Woman,Right,
30,7,1,1.065624000000298,['n'],1,right,['2'],5,0.41868250000015905,0.2,0,AccFast,30,18,Woman,Right,
31,7,1,1.032441999999719,['c'],1,left,['2'],5,0.45214149999992514,0.4,0,AccFast,30,18,Woman,Right,
32,7,1,1.8665856999996322,['n'],1,right,['3'],4,0.3682224999997743,0.1,0,AccFast,30,18,Woman,Right,
33,7,1,1.4002537999999731,['c'],1,left,['2'],5,0.468182699999943,0.2,0,AccFast,30,18,Woman,Right,
34,7,1,1.6511788999996497,['n'],1,right,['2'],5,0.30125079999970694,0.4,0,AccFast,30,18,Woman,Right,
35,7,1,1.6336522999999943,['n'],1,right,['2'],5,0.5844264000002113,0.2,0,AccFast,30,18,Woman,Right,
36,7,1,2.0831444999998894,['c'],1,left,['9'],2,0.7345523999997567,0.1,0,AccFast,30,18,Woman,Right,
37,7,1,2.7998309999998128,['c'],1,left,['9'],2,0.6189990999996553,0.1,0,AccFast,30,18,Woman,Right,
38,7,1,2.2824507999998787,['n'],1,right,['8'],3,0.4688455000000431,0.1,0,AccFast,30,18,Woman,Right,
39,7,1,1.3842216000002736,['c'],1,left,['3'],4,0.46802549999983967,0.4,0,AccFast,30,18,Woman,Right,
40,7,1,1.0996921999999358,['c'],1,left,['1'],6,0.5513715999995839,0.4,0,AccFast,30,18,Woman,Right,
41,7,1,2.033604700000069,['c'],1,left,['3'],4,2.149698300000182,0.1,0,AccFast,30,18,Woman,Right,
42,7,1,1.1334115999998176,['n'],1,right,['2'],5,0.7685922000000573,0.2,0,AccFast,30,18,Woman,Right,
43,7,1,0.8823102999999719,['c'],1,left,['1'],6,0.43527739999990445,0.4,0,AccFast,30,18,Woman,Right,
44,7,1,1.7167685999997957,['c'],1,left,['1'],6,0.4838236999999026,0.1,0,AccFast,30,18,Woman,Right,
45,7,1,1.167236999999659,['n'],1,right,['2'],5,0.3007886000000326,0.4,0,AccFast,30,18,Woman,Right,
46,7,1,2.11801400000013,['n'],1,right,['8'],3,0.9513134000003447,0.4,0,AccFast,30,18,Woman,Right,
47,7,1,1.8997212999997828,['c'],1,left,['3'],4,0.5679485999999088,0.2,0,AccFast,30,18,Woman,Right,
48,7,1,1.183860299999651,['n'],1,right,['2'],5,0.5674932000001718,0.4,0,AccFast,30,18,Woman,Right,
49,7,1,0.9158036000003449,['c'],1,left,['3'],4,0.45201330000008966,0.4,0,AccFast,30,18,Woman,Right,
50,7,1,2.48343530000011,['c'],0,right,['3'],4,0.9845144000000801,0.2,0,AccFast,30,18,Woman,Right,
51,7,1,1.9005379999998695,['n'],0,left,['9'],2,0.5682992000001832,0.2,0,AccFast,30,18,Woman,Right,
52,7,1,1.201667400000133,['c'],1,left,['2'],5,0.28338480000002164,0.4,0,AccFast,30,18,Woman,Right,
53,7,1,2.466675699999996,['n'],0,left,['9'],2,0.4350666000000274,0.4,0,AccFast,30,18,Woman,Right,
54,7,1,2.1668672000000697,['c'],1,left,['8'],3,0.5198399000000791,0.2,0,AccFast,30,18,Woman,Right,
55,7,1,2.2170320999998694,['n'],1,right,['9'],2,0.7013990000000376,0.2,0,AccFast,30,18,Woman,Right,
56,7,1,1.2331176999996387,['n'],1,right,['2'],5,0.38418060000003607,0.4,0,AccFast,30,18,Woman,Right,
57,7,1,2.731775700000071,['c'],0,right,['3'],4,0.6851931000001059,0.2,0,AccFast,30,18,Woman,Right,
58,7,1,2.8334485000000313,['c'],1,left,['8'],3,1.0838156999998318,0.2,0,AccFast,30,18,Woman,Right,
59,7,1,2.665776299999834,['n'],1,right,['8'],3,0.600588499999958,0.2,0,AccFast,30,18,Woman,Right,
0,8,1,2.265256799999861,['c'],0,right,['2'],5,1.450801599999977,0.1,0,AccAcc,30,18,Woman,Right,
1,8,1,2.0501303999999436,['c'],1,left,['2'],5,0.6183634000003622,0.4,0,AccAcc,30,18,Woman,Right,
2,8,1,3.184704799999963,['n'],1,right,['8'],3,0.8678711000002295,0.2,0,AccAcc,30,18,Woman,Right,
3,8,1,2.2330542999998215,['c'],1,left,['2'],5,0.6856275000000096,0.1,0,AccAcc,30,18,Woman,Right,
4,8,1,2.415351699999974,['c'],1,left,['2'],5,1.8360513000002356,0.4,0,AccAcc,30,18,Woman,Right,
5,8,1,1.1152052000002186,['n'],1,right,['2'],5,0.9692133000003196,0.2,0,AccAcc,30,18,Woman,Right,
6,8,1,1.6497532000003048,['n'],1,right,['1'],6,0.5513718999995945,0.2,0,AccAcc,30,18,Woman,Right,
7,8,1,0.8009772000000339,['c'],1,left,['1'],6,0.5181384000002254,0.4,0,AccAcc,30,18,Woman,Right,
8,8,1,3.1316768000001503,['c'],1,left,['2'],5,0.7691128999999819,0.4,0,AccAcc,30,18,Woman,Right,
9,8,1,2.96674400000029,['c'],1,left,['2'],5,0.7015007999998488,0.1,0,AccAcc,30,18,Woman,Right,
10,8,1,0.9843574000001354,['n'],1,right,['2'],5,0.6687965000000986,0.2,0,AccAcc,30,18,Woman,Right,
11,8,1,1.7820557000000008,['c'],1,left,['3'],4,0.8177040999999008,0.2,0,AccAcc,30,18,Woman,Right,
12,8,1,2.3162747999999738,['c'],1,left,['8'],3,0.8181099999997059,0.2,0,AccAcc,30,18,Woman,Right,
13,8,1,1.4160315999997692,['n'],1,right,['8'],3,0.9184141999999156,0.1,0,AccAcc,30,18,Woman,Right,
14,8,1,3.4174001000001226,['c'],0,right,['9'],2,1.484821600000032,0.2,0,AccAcc,30,18,Woman,Right,
15,8,1,2.349564900000132,['c'],1,left,['3'],4,0.9662523000001784,0.2,0,AccAcc,30,18,Woman,Right,
16,8,1,1.150496799999928,['c'],1,left,['2'],5,0.5826935999998568,0.4,0,AccAcc,30,18,Woman,Right,
17,8,1,0.9510911000002125,['n'],1,right,['2'],5,0.6500996999998279,0.4,0,AccAcc,30,18,Woman,Right,
18,8,1,2.083802000000105,['n'],1,right,['2'],5,0.917782200000147,0.1,0,AccAcc,30,18,Woman,Right,
19,8,1,1.7335257999998248,['n'],1,right,['9'],2,0.4676260999999613,0.1,0,AccAcc,30,18,Woman,Right,
20,8,1,1.533533499999976,['c'],1,left,['9'],2,0.7348071999999775,0.2,0,AccAcc,30,18,Woman,Right,
21,8,1,1.3657822999998643,['c'],1,left,['2'],5,0.7671166000000085,0.2,0,AccAcc,30,18,Woman,Right,
22,8,1,1.1997036999996453,['c'],1,left,['2'],5,0.5674728999997569,0.4,0,AccAcc,30,18,Woman,Right,
23,8,1,2.5179879000002074,['c'],1,left,['3'],4,0.8676141999999345,0.4,0,AccAcc,30,18,Woman,Right,
24,8,1,1.5655877999997756,['c'],1,left,['8'],3,0.6352362000002358,0.4,0,AccAcc,30,18,Woman,Right,
25,8,1,2.3331835999997566,['c'],1,left,['8'],3,0.7518629999999575,0.2,0,AccAcc,30,18,Woman,Right,
26,8,1,2.5505589999997937,['c'],1,left,['8'],3,0.7666548000001967,0.4,0,AccAcc,30,18,Woman,Right,
27,8,1,1.9507535000002463,['n'],1,right,['3'],4,1.4171391999998377,0.1,0,AccAcc,30,18,Woman,Right,
28,8,1,1.3333662999998523,['n'],0,left,['3'],4,2.417929700000059,0.4,0,AccAcc,30,18,Woman,Right,
29,8,1,2.148783700000422,['c'],0,right,['9'],2,0.9677466999996795,0.1,0,AccAcc,30,18,Woman,Right,
30,8,1,2.233998100000008,['c'],0,right,['3'],4,1.0176316000001862,0.2,0,AccAcc,30,18,Woman,Right,
31,8,1,1.6334996000000501,['c'],1,left,['2'],5,0.7010574000000815,0.1,0,AccAcc,30,18,Woman,Right,
32,8,1,1.2845142999999553,['n'],1,right,['2'],5,1.1173518999999033,0.2,0,AccAcc,30,18,Woman,Right,
33,8,1,2.417185999999674,['c'],0,right,['9'],2,0.7677309999999125,0.1,0,AccAcc,30,18,Woman,Right,
34,8,1,3.1487701999999445,['c'],1,left,['9'],2,1.0519963000001553,0.2,0,AccAcc,30,18,Woman,Right,
35,8,1,1.7174472000001515,['n'],1,right,['2'],5,0.5689377999997305,0.2,0,AccAcc,30,18,Woman,Right,
36,8,1,3.23308440000028,['c'],1,left,['8'],3,1.0016306999996232,0.1,0,AccAcc,30,18,Woman,Right,
37,8,1,0.9675876999999673,['n'],1,right,['1'],6,0.7508191000001716,0.4,0,AccAcc,30,18,Woman,Right,
38,8,1,2.3174685999997564,['c'],1,left,['2'],5,0.6331804000001284,0.1,0,AccAcc,30,18,Woman,Right,
39,8,1,3.234107199999926,['c'],1,left,['2'],5,1.3997569999996813,0.1,0,AccAcc,30,18,Woman,Right,
40,8,1,3.316223699999682,['c'],1,left,['9'],2,0.9010310999997273,0.1,0,AccAcc,30,18,Woman,Right,
41,8,1,2.099717999999939,['n'],1,right,['3'],4,1.051343800000268,0.1,0,AccAcc,30,18,Woman,Right,
42,8,1,2.783882100000028,['c'],0,right,['3'],4,0.8178747000001749,0.2,0,AccAcc,30,18,Woman,Right,
43,8,1,0.9996457999995982,['n'],1,right,['1'],6,0.535042699999849,0.4,0,AccAcc,30,18,Woman,Right,
44,8,1,1.0161023999999088,['n'],1,right,['1'],6,0.7515631999999641,0.4,0,AccAcc,30,18,Woman,Right,
45,8,1,0.9998958999999559,['c'],1,left,['1'],6,0.5688334999999825,0.4,0,AccAcc,30,18,Woman,Right,
46,8,1,0.8842079999999441,['n'],1,right,['1'],6,0.5670695999997406,0.4,0,AccAcc,30,18,Woman,Right,
47,8,1,0.7839251999998851,['c'],1,left,['1'],6,0.6661923999999999,0.4,0,AccAcc,30,18,Woman,Right,
48,8,1,1.6010698000000048,['n'],0,left,['2'],5,0.6015018000002783,0.4,0,AccAcc,30,18,Woman,Right,
49,8,1,1.4330015000000458,['c'],1,left,['2'],5,0.5668232000002718,0.1,0,AccAcc,30,18,Woman,Right,
50,8,1,2.617502499999773,['n'],1,right,['8'],3,1.0178946999999425,0.1,0,AccAcc,30,18,Woman,Right,
51,8,1,3.3827745000003233,['c'],0,right,['3'],4,0.8012354000002233,0.1,0,AccAcc,30,18,Woman,Right,
52,8,1,0.9829362000000401,['n'],1,right,['1'],6,0.43488479999996343,0.4,0,AccAcc,30,18,Woman,Right,
53,8,1,2.2497866999997314,['n'],1,right,['9'],2,0.601640800000041,0.4,0,AccAcc,30,18,Woman,Right,
54,8,1,2.4677796999999373,['c'],1,left,['8'],3,0.9346042000001944,0.1,0,AccAcc,30,18,Woman,Right,
55,8,1,1.3001973999998881,['n'],1,right,['2'],5,0.9013157999997929,0.2,0,AccAcc,30,18,Woman,Right,
56,8,1,2.5843048000001545,['n'],1,right,['9'],2,0.46777449999990495,0.2,0,AccAcc,30,18,Woman,Right,
57,8,1,1.400488399999631,['n'],1,right,['2'],5,0.5174637000000075,0.2,0,AccAcc,30,18,Woman,Right,
58,8,1,2.650032099999862,['n'],0,left,['3'],4,1.0838310999997702,0.1,0,AccAcc,30,18,Woman,Right,
59,8,1,2.2676319000001968,['n'],1,right,['2'],5,0.9015561999999591,0.2,0,AccAcc,30,18,Woman,Right,
0,9,1,1.0333201999997073,['c'],1,left,['2'],5,1.6841395000001285,0.2,0,FastAcc,30,18,Woman,Right,
1,9,1,0.8154945000001135,['n'],1,right,['8'],3,1.6185935000003155,0.4,0,FastAcc,30,18,Woman,Right,
2,9,1,0.6663256000001638,['c'],1,left,['3'],4,1.7501547000001665,0.1,0,FastAcc,30,18,Woman,Right,
3,9,1,0.7333575000002384,['c'],1,left,['9'],2,0.9522472999997262,0.2,0,FastAcc,30,18,Woman,Right,
4,9,1,0.6671280000000479,['c'],1,left,['8'],3,1.0679016999997657,0.1,0,FastAcc,30,18,Woman,Right,
5,9,1,1.798829299999852,['n'],1,right,['8'],3,2.7506089000003158,0.2,0,FastAcc,30,18,Woman,Right,
6,9,1,0.8664522999997644,['c'],1,left,['9'],2,1.068001699999968,0.1,0,FastAcc,30,18,Woman,Right,
7,9,1,0.6825315000000955,['c'],1,left,['3'],4,2.0833032999998977,0.1,0,FastAcc,30,18,Woman,Right,
8,9,1,0.9518310999997084,['c'],1,left,['8'],3,1.416081099999701,0.1,0,FastAcc,30,18,Woman,Right,
9,9,1,1.2010623999999552,['c'],1,left,['9'],2,1.1841317000003073,0.1,0,FastAcc,30,18,Woman,Right,
10,9,1,2.1823773000000983,['c'],0,right,['3'],4,1.652757599999859,0.1,0,FastAcc,30,18,Woman,Right,
11,9,1,0.5828510999999708,['n'],1,right,['2'],5,0.7683670999999777,0.2,0,FastAcc,30,18,Woman,Right,
12,9,1,1.767432000000099,['n'],1,right,['3'],4,1.1827446000002055,0.1,0,FastAcc,30,18,Woman,Right,
13,9,1,2.300136400000156,['n'],1,right,['8'],3,1.6012132999999267,0.1,0,FastAcc,30,18,Woman,Right,
14,9,1,0.6839233000000604,['n'],1,right,['2'],5,0.9016630999999506,0.4,0,FastAcc,30,18,Woman,Right,
15,9,1,0.7328291999997418,['n'],1,right,['3'],4,1.368341099999725,0.1,0,FastAcc,30,18,Woman,Right,
16,9,1,0.6508036000000175,['n'],1,right,['3'],4,1.4167670000001635,0.2,0,FastAcc,30,18,Woman,Right,
17,9,1,0.7662000000000262,['n'],1,right,['1'],6,0.8187738000001445,0.4,0,FastAcc,30,18,Woman,Right,
18,9,1,0.7826429000001554,['c'],1,left,['3'],4,1.5687704000001759,0.1,0,FastAcc,30,18,Woman,Right,
19,9,1,0.7822950999998284,['c'],1,left,['3'],4,2.001811000000089,0.2,0,FastAcc,30,18,Woman,Right,
20,9,1,1.467605000000276,['n'],0,left,['9'],2,1.3167881999997917,0.2,0,FastAcc,30,18,Woman,Right,
21,9,1,0.6822121000000152,['c'],1,left,['3'],4,1.718236600000182,0.1,0,FastAcc,30,18,Woman,Right,
22,9,1,0.6826843000003464,['n'],1,right,['1'],6,1.051469300000008,0.4,0,FastAcc,30,18,Woman,Right,
23,9,1,1.0828481000003194,['c'],1,left,['9'],2,2.135946800000056,0.4,0,FastAcc,30,18,Woman,Right,
24,9,1,0.666736199999832,['n'],1,right,['3'],4,1.55091369999991,0.1,0,FastAcc,30,18,Woman,Right,
25,9,1,0.8833012000000053,['c'],1,left,['9'],2,1.7177285000002485,0.2,0,FastAcc,30,18,Woman,Right,
26,9,1,1.1498535999999149,['n'],1,right,['8'],3,1.6182757999999922,0.1,0,FastAcc,30,18,Woman,Right,
27,9,1,0.7836229999998068,['n'],1,right,['9'],2,1.0677021999999852,0.1,0,FastAcc,30,18,Woman,Right,
28,9,1,0.9507278000000952,['c'],0,right,['9'],2,1.0512932999999975,0.4,0,FastAcc,30,18,Woman,Right,
29,9,1,0.6167233000001033,['c'],1,left,['8'],3,1.0679328999999598,0.2,0,FastAcc,30,18,Woman,Right,
30,9,1,0.6672803999999815,['n'],1,right,['3'],4,1.2679858999999851,0.4,0,FastAcc,30,18,Woman,Right,
31,9,1,0.6832208999999239,['n'],1,right,['8'],3,1.0840548999999555,0.4,0,FastAcc,30,18,Woman,Right,
32,9,1,0.8170712999999523,['c'],1,left,['3'],4,1.0683979000000363,0.1,0,FastAcc,30,18,Woman,Right,
33,9,1,0.9336002000000008,['n'],1,right,['9'],2,1.0011187000000064,0.2,0,FastAcc,30,18,Woman,Right,
34,9,1,0.9831970999998703,['c'],1,left,['3'],4,1.1681125000000065,0.2,0,FastAcc,30,18,Woman,Right,
35,9,1,0.76552700000002,['c'],1,left,['2'],5,1.0170008000000053,0.4,0,FastAcc,30,18,Woman,Right,
36,9,1,0.7011210999999093,['c'],1,left,['3'],4,1.5176323999999113,0.2,0,FastAcc,30,18,Woman,Right,
37,9,1,0.7339027999996688,['n'],1,right,['3'],4,1.101685500000258,0.4,0,FastAcc,30,18,Woman,Right,
38,9,1,0.851640899999893,['c'],0,right,['9'],2,1.3345874999999978,0.1,0,FastAcc,30,18,Woman,Right,
39,9,1,0.6838893999997708,['n'],1,right,['9'],2,1.3676156000001356,0.2,0,FastAcc,30,18,Woman,Right,
40,9,1,1.0510017999999945,['n'],0,left,['9'],2,1.4349733999997625,0.1,0,FastAcc,30,18,Woman,Right,
41,9,1,0.7675483000002714,['c'],1,left,['3'],4,1.1680474999998296,0.2,0,FastAcc,30,18,Woman,Right,
42,9,1,0.7171260999998594,['c'],1,left,['8'],3,1.0844721999997091,0.2,0,FastAcc,30,18,Woman,Right,
43,9,1,0.6335062999996808,['n'],1,right,['3'],4,1.435892700000295,0.4,0,FastAcc,30,18,Woman,Right,
44,9,1,0.8651694999998654,['n'],1,right,['2'],5,1.6518918000001577,0.2,0,FastAcc,30,18,Woman,Right,
45,9,1,0.9334603000002062,['c'],0,right,['3'],4,0.9344920000003185,0.4,0,FastAcc,30,18,Woman,Right,
46,9,1,0.8672520999998596,['n'],1,right,['8'],3,1.717526800000087,0.4,0,FastAcc,30,18,Woman,Right,
47,9,1,0.6672257999998692,['n'],1,right,['9'],2,1.783437000000049,0.4,0,FastAcc,30,18,Woman,Right,
48,9,1,0.8160110999997414,['c'],1,left,['3'],4,1.6501932000001034,0.2,0,FastAcc,30,18,Woman,Right,
49,9,1,0.9170591000001878,['c'],1,left,['8'],3,1.5333590999998705,0.2,0,FastAcc,30,18,Woman,Right,
50,9,1,0.6511399000000893,['c'],1,left,['0'],1,0.9841733000002932,0.4,0,FastAcc,30,18,Woman,Right,
51,9,1,0.9668370999997933,['c'],1,left,['3'],4,1.284591100000398,0.4,0,FastAcc,30,18,Woman,Right,
52,9,1,0.7345208000006096,['c'],1,left,['8'],3,1.1181033000002571,0.4,0,FastAcc,30,18,Woman,Right,
53,9,1,0.6499438000000737,['n'],1,right,['1'],6,0.9013310999998794,0.4,0,FastAcc,30,18,Woman,Right,
54,9,1,0.8494397000004028,['c'],1,left,['3'],4,0.9022293000007267,0.2,0,FastAcc,30,18,Woman,Right,
55,9,1,0.9331213000004936,['n'],0,left,['8'],3,1.1502073999999993,0.2,0,FastAcc,30,18,Woman,Right,
56,9,1,0.46707450000030803,['n'],1,right,['2'],5,0.8332974999993894,0.4,0,FastAcc,30,18,Woman,Right,
57,9,1,1.132983299999978,['c'],1,left,['3'],4,1.2189705999999205,0.1,0,FastAcc,30,18,Woman,Right,
58,9,1,0.9662932999999612,['n'],1,right,['8'],3,0.8179165999999896,0.4,0,FastAcc,30,18,Woman,Right,
59,9,1,0.6156042000002344,['n'],1,right,['9'],2,1.384993000000577,0.1,0,FastAcc,30,18,Woman,Right,
0,10,1,1.101070499999878,['n'],1,right,['8'],3,0.8013842000000295,0.1,0,FastFast,30,18,Woman,Right,
1,10,1,0.7004741999999169,['c'],1,left,['3'],4,0.5837232999992921,0.2,0,FastFast,30,18,Woman,Right,
2,10,1,0.8673952999997709,['n'],0,left,['9'],2,0.5829727000000275,0.2,0,FastFast,30,18,Woman,Right,
3,10,1,0.7836488000002646,['n'],1,right,['2'],5,0.817399600000499,0.2,0,FastFast,30,18,Woman,Right,
4,10,1,0.7989456000004793,['c'],0,right,['9'],2,1.0859500000005937,0.4,0,FastFast,30,18,Woman,Right,
5,10,1,0.7171285000003991,['c'],1,left,['3'],4,0.683517600000414,0.4,0,FastFast,30,18,Woman,Right,
6,10,1,1.5335552999995343,['n'],0,left,['3'],4,0.7851293000003352,0.1,0,FastFast,30,18,Woman,Right,
7,10,1,0.6329786000005697,['n'],1,right,['3'],4,0.7017484000007244,0.4,0,FastFast,30,18,Woman,Right,
8,10,1,0.8503766999992877,['c'],0,right,['9'],2,0.435432000000219,0.1,0,FastFast,30,18,Woman,Right,
9,10,1,0.899171799999749,['c'],1,left,['9'],2,0.5190259000000879,0.2,0,FastFast,30,18,Woman,Right,
10,10,1,0.71733949999998,['n'],1,right,['8'],3,0.5007111000004443,0.1,0,FastFast,30,18,Woman,Right,
11,10,1,0.8172764000000825,['n'],1,right,['9'],2,0.7496384000005492,0.4,0,FastFast,30,18,Woman,Right,
12,10,1,0.8333622000000105,['n'],1,right,['8'],3,0.5345370999993975,0.4,0,FastFast,30,18,Woman,Right,
13,10,1,0.9004800000002433,['c'],0,right,['3'],4,0.9000835999995616,0.1,0,FastFast,30,18,Woman,Right,
14,10,1,0.6503200999995897,['c'],1,left,['3'],4,0.5333990999997695,0.2,0,FastFast,30,18,Woman,Right,
15,10,1,0.7008688999994774,['n'],1,right,['2'],5,0.6179583000002822,0.2,0,FastFast,30,18,Woman,Right,
16,10,1,0.583744100000331,['n'],1,right,['9'],2,0.6180209000003742,0.1,0,FastFast,30,18,Woman,Right,
17,10,1,0.8664771000003384,['c'],1,left,['3'],4,0.6016378000003897,0.2,0,FastFast,30,18,Woman,Right,
18,10,1,0.7010466000001543,['c'],1,left,['2'],5,0.5678484999998545,0.4,0,FastFast,30,18,Woman,Right,
19,10,1,1.2998617000002923,['n'],0,left,['9'],2,0.5024148000002242,0.4,0,FastFast,30,18,Woman,Right,
20,10,1,0.6661936999998943,['n'],1,right,['8'],3,0.46684280000044964,0.1,0,FastFast,30,18,Woman,Right,
21,10,1,0.5342704000004233,['n'],1,right,['8'],3,0.5835660000002463,0.1,0,FastFast,30,18,Woman,Right,
22,10,1,0.48314879999998084,['c'],1,left,['1'],6,0.5690936000000875,0.2,0,FastFast,30,18,Woman,Right,
23,10,1,0.6669159000002765,['n'],0,left,['2'],5,0.4179348999996364,0.2,0,FastFast,30,18,Woman,Right,
24,10,1,0.6177752000003238,['c'],1,left,['3'],4,0.4848535000000993,0.4,0,FastFast,30,18,Woman,Right,
25,10,1,0.8175503000002209,['c'],1,left,['2'],5,0.4835133999995378,0.1,0,FastFast,30,18,Woman,Right,
26,10,1,0.5320585999998002,['n'],1,right,['1'],6,0.4360221000006277,0.4,0,FastFast,30,18,Woman,Right,
27,10,1,1.316782300000341,['n'],0,left,['3'],4,0.46785019999970245,0.1,0,FastFast,30,18,Woman,Right,
28,10,1,1.4837932000000364,['c'],0,right,['8'],3,0.31804079999983514,0.2,0,FastFast,30,18,Woman,Right,
29,10,1,0.6158493000002636,['n'],1,right,['2'],5,0.4183848000002399,0.4,0,FastFast,30,18,Woman,Right,
30,10,1,0.7175638999997318,['c'],1,left,['3'],4,1.0513783999995212,0.2,0,FastFast,30,18,Woman,Right,
31,10,1,0.9346384999998918,['n'],1,right,['9'],2,0.4500895000001037,0.1,0,FastFast,30,18,Woman,Right,
32,10,1,1.1836105000002135,['c'],0,right,['9'],2,0.500085499999841,0.2,0,FastFast,30,18,Woman,Right,
33,10,1,0.8660643000002892,['c'],0,right,['3'],4,0.8341154999998253,0.1,0,FastFast,30,18,Woman,Right,
34,10,1,0.7686920999994982,['n'],0,left,['3'],4,0.5014151999994283,0.1,0,FastFast,30,18,Woman,Right,
35,10,1,0.6505047000000559,['n'],1,right,['2'],5,0.41684839999925316,0.4,0,FastFast,30,18,Woman,Right,
36,10,1,0.7176687000001039,['c'],1,left,['2'],5,0.4834242999995695,0.4,0,FastFast,30,18,Woman,Right,
37,10,1,1.0525458999991315,['c'],1,left,['2'],5,0.4012921000003189,0.2,0,FastFast,30,18,Woman,Right,
38,10,1,0.6335207000001901,['n'],1,right,['2'],5,0.46813420000034967,0.2,0,FastFast,30,18,Woman,Right,
39,10,1,0.6327275000003283,['n'],1,right,['2'],5,0.4016971000000922,0.4,0,FastFast,30,18,Woman,Right,
40,10,1,1.0337039000005461,['c'],0,right,['9'],2,0.5181833000006009,0.2,0,FastFast,30,18,Woman,Right,
41,10,1,1.1835657999999967,['n'],0,left,['0'],1,1.2833231000004162,0.1,0,FastFast,30,18,Woman,Right,
42,10,1,1.016847200000484,['c'],1,left,['1'],6,0.65131460000066,0.4,0,FastFast,30,18,Woman,Right,
43,10,1,1.1339227999997092,['c'],1,left,['3'],4,0.5347508000004382,0.2,0,FastFast,30,18,Woman,Right,
44,10,1,0.5661975000002712,['n'],1,right,['2'],5,0.4346009999999296,0.4,0,FastFast,30,18,Woman,Right,
45,10,1,1.1506482000004326,['c'],1,left,['9'],2,0.4832552999996551,0.1,0,FastFast,30,18,Woman,Right,
46,10,1,0.8512315999996645,['n'],1,right,['8'],3,0.3165803000001688,0.2,0,FastFast,30,18,Woman,Right,
47,10,1,0.9835192000000461,['n'],1,right,['3'],4,0.35216660000060074,0.2,0,FastFast,30,18,Woman,Right,
48,10,1,0.7010578000008536,['c'],1,left,['2'],5,0.4181447000000844,0.1,0,FastFast,30,18,Woman,Right,
49,10,1,0.9989709000001312,['n'],0,left,['8'],3,0.3025396000002729,0.1,0,FastFast,30,18,Woman,Right,
50,10,1,0.8492521999996825,['n'],1,right,['2'],5,0.35087299999941024,0.4,0,FastFast,30,18,Woman,Right,
51,10,1,0.6498021999996126,['c'],1,left,['2'],5,0.43658330000016576,0.4,0,FastFast,30,18,Woman,Right,
52,10,1,0.7988803000007465,['n'],1,right,['9'],2,0.46807760000046983,0.1,0,FastFast,30,18,Woman,Right,
53,10,1,0.6832272999999986,['n'],1,right,['1'],6,0.40135150000060094,0.4,0,FastFast,30,18,Woman,Right,
54,10,1,1.0172726000000694,['n'],0,left,['2'],5,0.5685971999992034,0.1,0,FastFast,30,18,Woman,Right,
55,10,1,1.0158883000003698,['c'],1,left,['8'],3,0.434389299999566,0.4,0,FastFast,30,18,Woman,Right,
56,10,1,0.7844976999995197,['c'],1,left,['3'],4,0.4014612000000852,0.2,0,FastFast,30,18,Woman,Right,
57,10,1,1.2508625999998912,['n'],0,left,['3'],4,0.3349577999997564,0.1,0,FastFast,30,18,Woman,Right,
58,10,1,0.8004121999993004,['n'],1,right,['2'],5,0.31809460000022227,0.4,0,FastFast,30,18,Woman,Right,
59,10,1,1.36603869999999,['c'],1,left,['8'],3,0.5359998000003543,0.2,0,FastFast,30,18,Woman,Right,
0,11,1,0.8335464000001593,['n'],1,right,['3'],4,0.501553299999614,0.2,0,AccFast,30,18,Woman,Right,
1,11,1,1.7836698999999498,['c'],0,right,['8'],3,0.7676910999998654,0.1,0,AccFast,30,18,Woman,Right,
2,11,1,1.5179594000001089,['c'],1,left,['3'],4,0.7012738000003083,0.1,0,AccFast,30,18,Woman,Right,
3,11,1,0.9658361000001605,['c'],1,left,['2'],5,0.31898399999954563,0.4,0,AccFast,30,18,Woman,Right,
4,11,1,2.1167563999997583,['n'],0,left,['8'],3,0.333560099999886,0.2,0,AccFast,30,18,Woman,Right,
5,11,1,1.8010739999999714,['c'],1,left,['3'],4,0.4002497999999832,0.4,0,AccFast,30,18,Woman,Right,
6,11,1,0.9504895000000033,['n'],1,right,['1'],6,0.3169238000000405,0.4,0,AccFast,30,18,Woman,Right,
7,11,1,1.58412589999989,['n'],1,right,['2'],5,0.38459580000017013,0.2,0,AccFast,30,18,Woman,Right,
8,11,1,0.8502945000000182,['c'],1,left,['1'],6,0.3181139999996958,0.4,0,AccFast,30,18,Woman,Right,
9,11,1,1.166295099999843,['n'],1,right,['1'],6,0.28339429999959975,0.2,0,AccFast,30,18,Woman,Right,
10,11,1,1.6672691000003397,['c'],1,left,['3'],4,0.3347840999995242,0.2,0,AccFast,30,18,Woman,Right,
11,11,1,0.8338475999998991,['n'],1,right,['2'],5,0.5341416000001118,0.2,0,AccFast,30,18,Woman,Right,
12,11,1,1.083650100000341,['c'],1,left,['2'],5,0.6847372000001997,0.4,0,AccFast,30,18,Woman,Right,
13,11,1,1.0155939000005674,['n'],1,right,['2'],5,0.3676294999995662,0.1,0,AccFast,30,18,Woman,Right,
14,11,1,1.2834465000005366,['n'],1,right,['2'],5,0.36927079999986745,0.1,0,AccFast,30,18,Woman,Right,
15,11,1,1.7325535999998465,['n'],0,left,['9'],2,0.33531649999986257,0.1,0,AccFast,30,18,Woman,Right,
16,11,1,1.4177332999997816,['c'],1,left,['2'],5,0.3346758999996382,0.1,0,AccFast,30,18,Woman,Right,
17,11,1,1.5002371000000494,['n'],1,right,['9'],2,0.35137310000027355,0.1,0,AccFast,30,18,Woman,Right,
18,11,1,1.2319492999995418,['c'],1,left,['1'],6,0.28600530000039726,0.4,0,AccFast,30,18,Woman,Right,
19,11,1,2.2336151999998037,['c'],1,left,['8'],3,0.38345989999925223,0.2,0,AccFast,30,18,Woman,Right,
20,11,1,0.8332537000005686,['c'],1,left,['1'],6,0.5024780000003375,0.4,0,AccFast,30,18,Woman,Right,
21,11,1,2.6156504999999015,['c'],0,right,['8'],3,1.035330700000486,0.2,0,AccFast,30,18,Woman,Right,
22,11,1,1.3007090000000971,['c'],1,left,['3'],4,0.567931900000076,0.4,0,AccFast,30,18,Woman,Right,
23,11,1,1.267340299999887,['n'],1,right,['2'],5,0.3015044999992824,0.4,0,AccFast,30,18,Woman,Right,
24,11,1,1.833100199999535,['c'],1,left,['3'],4,0.3507695000007516,0.4,0,AccFast,30,18,Woman,Right,
25,11,1,1.9665678999999727,['c'],1,left,['8'],3,0.5353874000002179,0.2,0,AccFast,30,18,Woman,Right,
26,11,1,1.5670215000000098,['c'],1,left,['3'],4,0.2501953999999387,0.4,0,AccFast,30,18,Woman,Right,
27,11,1,1.8338542000001326,['c'],1,left,['2'],5,0.35046929999953136,0.2,0,AccFast,30,18,Woman,Right,
28,11,1,1.067704899999626,['c'],1,left,['1'],6,0.36804009999923437,0.4,0,AccFast,30,18,Woman,Right,
29,11,1,1.7835162999999739,['n'],1,right,['8'],3,0.4501876000003904,0.2,0,AccFast,30,18,Woman,Right,
30,11,1,1.9172914000000674,['n'],1,right,['3'],4,0.8000310000006721,0.1,0,AccFast,30,18,Woman,Right,
31,11,1,1.850922399999945,['c'],0,right,['9'],2,0.26801199999954406,0.1,0,AccFast,30,18,Woman,Right,
32,11,1,1.4009071000000404,['n'],1,right,['3'],4,0.4661561000002621,0.2,0,AccFast,30,18,Woman,Right,
33,11,1,1.3849177000001873,['c'],1,left,['3'],4,0.3171509000003425,0.1,0,AccFast,30,18,Woman,Right,
34,11,1,1.4844786000003296,['n'],0,left,['9'],2,0.28408200000012584,0.1,0,AccFast,30,18,Woman,Right,
35,11,1,0.8837633000002825,['n'],1,right,['1'],6,0.26705519999995886,0.4,0,AccFast,30,18,Woman,Right,
36,11,1,1.8011542999993253,['n'],1,right,['3'],4,0.2663806000000477,0.1,0,AccFast,30,18,Woman,Right,
37,11,1,1.4503163000008499,['n'],1,right,['2'],5,0.23563469999953668,0.1,0,AccFast,30,18,Woman,Right,
38,11,1,2.265225900000587,['n'],0,left,['9'],2,0.35170800000014424,0.2,0,AccFast,30,18,Woman,Right,
39,11,1,1.5678210999994917,['n'],1,right,['8'],3,0.451267899999948,0.1,0,AccFast,30,18,Woman,Right,
40,11,1,1.1497172999997929,['n'],1,right,['1'],6,0.21854590000020835,0.4,0,AccFast,30,18,Woman,Right,
41,11,1,0.9672559000000547,['n'],1,right,['1'],6,0.21784919999936392,0.4,0,AccFast,30,18,Woman,Right,
42,11,1,2.0335009000000355,['n'],1,right,['2'],5,0.5341577999997753,0.1,0,AccFast,30,18,Woman,Right,
43,11,1,1.4843752999995559,['n'],1,right,['3'],4,0.300826199999392,0.1,0,AccFast,30,18,Woman,Right,
44,11,1,0.7335744000001796,['c'],1,left,['1'],6,0.7173731999992015,0.4,0,AccFast,30,18,Woman,Right,
45,11,1,1.383506000000125,['n'],1,right,['3'],4,0.25154250000014144,0.2,0,AccFast,30,18,Woman,Right,
46,11,1,1.6018287999995664,['n'],1,right,['9'],2,0.3169490999998743,0.2,0,AccFast,30,18,Woman,Right,
47,11,1,0.8838716999998724,['c'],1,left,['1'],6,0.2182305999995151,0.2,0,AccFast,30,18,Woman,Right,
48,11,1,2.1667183999998088,['c'],1,left,['3'],4,0.6185721000001649,0.1,0,AccFast,30,18,Woman,Right,
49,11,1,1.917749599999297,['c'],1,left,['8'],3,0.5507956999999806,0.2,0,AccFast,30,18,Woman,Right,
50,11,1,1.8174841999998534,['c'],1,left,['8'],3,0.5180712999999741,0.1,0,AccFast,30,18,Woman,Right,
51,11,1,0.9504041999998663,['n'],1,right,['1'],6,0.3349857000002885,0.4,0,AccFast,30,18,Woman,Right,
52,11,1,1.5660993999999846,['c'],1,left,['3'],4,0.3178803999999218,0.2,0,AccFast,30,18,Woman,Right,
53,11,1,1.6343056999994587,['c'],1,left,['9'],2,0.3333824999999706,0.2,0,AccFast,30,18,Woman,Right,
54,11,1,0.766884100000425,['c'],1,left,['1'],6,0.2505569999993895,0.4,0,AccFast,30,18,Woman,Right,
55,11,1,1.5848794999992606,['c'],1,left,['1'],6,0.3519963999997344,0.2,0,AccFast,30,18,Woman,Right,
56,11,1,0.9182507999994414,['n'],1,right,['1'],6,0.35133200000018405,0.4,0,AccFast,30,18,Woman,Right,
57,11,1,0.8507338999997955,['n'],1,right,['1'],6,0.28460270000050514,0.4,0,AccFast,30,18,Woman,Right,
58,11,1,3.633606200000031,['c'],0,right,['3'],4,0.6518729999997959,0.1,0,AccFast,30,18,Woman,Right,
59,11,1,2.3335448999996515,['n'],1,right,['8'],3,0.5514450000000579,0.1,0,AccFast,30,18,Woman,Right,
0,12,1,2.0828746000006504,['n'],1,right,['2'],5,0.8175658000000112,0.1,0,AccAcc,30,18,Woman,Right,
1,12,1,0.9686287000004086,['n'],1,right,['1'],6,0.7337263999997958,0.4,0,AccAcc,30,18,Woman,Right,
2,12,1,1.4339127000002918,['c'],1,left,['3'],4,0.48534749999998894,0.1,0,AccAcc,30,18,Woman,Right,
3,12,1,2.450494699999581,['c'],1,left,['8'],3,1.3517748999993273,0.1,0,AccAcc,30,18,Woman,Right,
4,12,1,2.6652908999994906,['c'],1,left,['3'],4,0.8338481000000684,0.2,0,AccAcc,30,18,Woman,Right,
5,12,1,0.8161278999996284,['n'],1,right,['1'],6,0.43576840000059747,0.4,0,AccAcc,30,18,Woman,Right,
6,12,1,1.8513543999997637,['c'],1,left,['8'],3,0.933355300000585,0.1,0,AccAcc,30,18,Woman,Right,
7,12,1,1.2177414999996472,['c'],1,left,['2'],5,0.6180748999995558,0.4,0,AccAcc,30,18,Woman,Right,
8,12,1,2.0341066999999384,['c'],1,left,['2'],5,0.7349246999992829,0.4,0,AccAcc,30,18,Woman,Right,
9,12,1,1.466412599999785,['n'],1,right,['2'],5,0.7681407000000036,0.1,0,AccAcc,30,18,Woman,Right,
10,12,1,2.616604499999994,['c'],0,right,['9'],2,0.5184509999999136,0.1,0,AccAcc,30,18,Woman,Right,
11,12,1,1.4327438000000257,['c'],1,left,['2'],5,0.700253199999679,0.4,0,AccAcc,30,18,Woman,Right,
12,12,1,2.4006829999998445,['c'],1,left,['2'],5,0.8498317000003226,0.1,0,AccAcc,30,18,Woman,Right,
13,12,1,1.4174966000000495,['n'],1,right,['1'],6,0.567025599999397,0.2,0,AccAcc,30,18,Woman,Right,
14,12,1,2.383427499999925,['n'],1,right,['9'],2,0.7511893999999302,0.2,0,AccAcc,30,18,Woman,Right,
15,12,1,2.066117999999733,['c'],1,left,['2'],5,0.6026915000002191,0.2,0,AccAcc,30,18,Woman,Right,
16,12,1,2.233559100000093,['n'],0,left,['8'],3,0.8000803000004453,0.2,0,AccAcc,30,18,Woman,Right,
17,12,1,2.4832476000001407,['c'],1,left,['3'],4,0.7335458999996263,0.1,0,AccAcc,30,18,Woman,Right,
18,12,1,1.9845885999993698,['n'],1,right,['8'],3,1.2346575000001394,0.2,0,AccAcc,30,18,Woman,Right,
19,12,1,1.3820005999996283,['c'],1,left,['3'],4,0.7853139999997438,0.2,0,AccAcc,30,18,Woman,Right,
20,12,1,0.9336745000000519,['n'],1,right,['1'],6,0.41807319999952597,0.4,0,AccAcc,30,18,Woman,Right,
21,12,1,2.383184600000277,['c'],1,left,['2'],5,0.5519923000001654,0.2,0,AccAcc,30,18,Woman,Right,
22,12,1,1.8832607000003918,['n'],1,right,['3'],4,0.8505419000002803,0.1,0,AccAcc,30,18,Woman,Right,
23,12,1,1.88453649999974,['n'],1,right,['3'],4,0.4347346999993533,0.1,0,AccAcc,30,18,Woman,Right,
24,12,1,0.8834606000000349,['n'],1,right,['1'],6,0.50120059999972,0.4,0,AccAcc,30,18,Woman,Right,
25,12,1,2.2499448999997185,['c'],0,right,['3'],4,0.6180878000004668,0.1,0,AccAcc,30,18,Woman,Right,
26,12,1,2.0176135000001523,['c'],1,left,['3'],4,0.5181942999997773,0.4,0,AccAcc,30,18,Woman,Right,
27,12,1,0.7502868999999919,['n'],1,right,['1'],6,0.36845240000002377,0.4,0,AccAcc,30,18,Woman,Right,
28,12,1,0.6503089000007094,['c'],1,left,['1'],6,0.3850388999999268,0.4,0,AccAcc,30,18,Woman,Right,
29,12,1,1.2661001999995278,['c'],1,left,['2'],5,0.4006787999996959,0.4,0,AccAcc,30,18,Woman,Right,
30,12,1,1.4830988000003344,['n'],1,right,['9'],2,0.7189414000004035,0.1,0,AccAcc,30,18,Woman,Right,
31,12,1,1.5337938000002396,['c'],1,left,['3'],4,0.4347576999998637,0.2,0,AccAcc,30,18,Woman,Right,
32,12,1,1.3489166999997906,['n'],0,left,['8'],3,0.40229959999942366,0.2,0,AccAcc,30,18,Woman,Right,
33,12,1,1.599178800000118,['c'],1,left,['2'],5,0.683822599999985,0.2,0,AccAcc,30,18,Woman,Right,
34,12,1,1.4506369000000632,['n'],0,left,['3'],4,0.7510153000002902,0.4,0,AccAcc,30,18,Woman,Right,
35,12,1,0.9347496000000319,['n'],1,right,['2'],5,0.5341740000003483,0.4,0,AccAcc,30,18,Woman,Right,
36,12,1,1.600474199999553,['c'],0,right,['3'],4,0.5029131999999663,0.1,0,AccAcc,30,18,Woman,Right,
37,12,1,1.1338936000001922,['c'],1,left,['3'],4,0.5345182999999452,0.4,0,AccAcc,30,18,Woman,Right,
38,12,1,1.365614899999855,['c'],1,left,['8'],3,0.7012748000006468,0.2,0,AccAcc,30,18,Woman,Right,
39,12,1,1.0488818000003448,['c'],1,left,['2'],5,0.5187481999992087,0.4,0,AccAcc,30,18,Woman,Right,
40,12,1,1.5504837999997108,['n'],1,right,['9'],2,0.3846018999993248,0.1,0,AccAcc,30,18,Woman,Right,
41,12,1,1.282606300000225,['n'],1,right,['8'],3,0.8187066999998933,0.1,0,AccAcc,30,18,Woman,Right,
42,12,1,1.0666912999995475,['n'],1,right,['1'],6,0.7674552999997104,0.4,0,AccAcc,30,18,Woman,Right,
43,12,1,1.7837466999999378,['c'],0,right,['9'],2,0.6019956000000093,0.1,0,AccAcc,30,18,Woman,Right,
44,12,1,1.368404400000145,['n'],1,right,['2'],5,0.6502725999998802,0.2,0,AccAcc,30,18,Woman,Right,
45,12,1,1.033292199999778,['c'],1,left,['2'],5,0.6849898000000394,0.4,0,AccAcc,30,18,Woman,Right,
46,12,1,1.3168194999998377,['n'],1,right,['3'],4,0.44914739999967424,0.2,0,AccAcc,30,18,Woman,Right,
47,12,1,1.6845789999997578,['n'],1,right,['8'],3,0.6680380999996487,0.2,0,AccAcc,30,18,Woman,Right,
48,12,1,1.3169378000002325,['n'],1,right,['8'],3,0.7504044000006616,0.4,0,AccAcc,30,18,Woman,Right,
49,12,1,1.6659019999997327,['c'],1,left,['3'],4,0.7006462999997893,0.2,0,AccAcc,30,18,Woman,Right,
50,12,1,1.532660300000316,['n'],1,right,['9'],2,0.6181747999999061,0.1,0,AccAcc,30,18,Woman,Right,
51,12,1,1.2338764999994964,['c'],1,left,['3'],4,0.6177999000001364,0.2,0,AccAcc,30,18,Woman,Right,
52,12,1,1.0841768999998749,['c'],1,left,['8'],3,0.5678403000001708,0.1,0,AccAcc,30,18,Woman,Right,
53,12,1,1.1172371000002386,['n'],1,right,['2'],5,0.5016325999995388,0.2,0,AccAcc,30,18,Woman,Right,
54,12,1,1.5490052000004653,['n'],0,left,['3'],4,0.6192104000001564,0.4,0,AccAcc,30,18,Woman,Right,
55,12,1,0.8010605999998006,['c'],1,left,['1'],6,0.6849891000001662,0.4,0,AccAcc,30,18,Woman,Right,
56,12,1,0.8339134999996531,['n'],1,right,['1'],6,0.6349593000004461,0.2,0,AccAcc,30,18,Woman,Right,
57,12,1,1.4838812999996662,['n'],1,right,['9'],2,0.45122799999990093,0.2,0,AccAcc,30,18,Woman,Right,
58,12,1,1.5990168999996968,['c'],1,left,['8'],3,1.183879700000034,0.1,0,AccAcc,30,18,Woman,Right,
59,12,1,1.3992715000003955,['c'],0,right,['8'],3,0.7173783999996886,0.1,0,AccAcc,30,18,Woman,Right,
0,13,1,1.3175991999996768,['c'],1,left,['2'],5,1.8346244000003935,0.2,0,FastAcc,30,18,Woman,Right,
1,13,1,0.6014119999999821,['c'],1,left,['1'],6,0.4686173999998573,0.4,0,FastAcc,30,18,Woman,Right,
2,13,1,1.2663431999999375,['c'],1,left,['1'],6,0.5339928000003056,0.2,0,FastAcc,30,18,Woman,Right,
3,13,1,0.9669291999998677,['c'],1,left,['2'],5,0.834841700000652,0.2,0,FastAcc,30,18,Woman,Right,
4,13,1,1.166286300000138,['n'],1,right,['3'],4,0.8350314999997863,0.2,0,FastAcc,30,18,Woman,Right,
5,13,1,0.9818247000002884,['n'],1,right,['9'],2,1.0858891999996558,0.1,0,FastAcc,30,18,Woman,Right,
6,13,1,0.7337927000007767,['n'],1,right,['9'],2,0.7513679000003322,0.2,0,FastAcc,30,18,Woman,Right,
7,13,1,0.5506581999998161,['c'],1,left,['1'],6,0.5514286000006905,0.4,0,FastAcc,30,18,Woman,Right,
8,13,1,0.9358653999997841,['c'],1,left,['2'],5,0.5832664999998087,0.4,0,FastAcc,30,18,Woman,Right,
9,13,1,0.7833750999998301,['n'],1,right,['3'],4,1.7676478000003044,0.2,0,FastAcc,30,18,Woman,Right,
10,13,1,0.8502225000001999,['n'],1,right,['3'],4,0.9684620999996696,0.2,0,FastAcc,30,18,Woman,Right,
11,13,1,1.2656829999996262,['c'],0,right,['8'],3,1.0524325000005774,0.1,0,FastAcc,30,18,Woman,Right,
12,13,1,1.0158634999997957,['n'],0,left,['8'],3,0.8844756999997117,0.1,0,FastAcc,30,18,Woman,Right,
13,13,1,0.8674734000005628,['n'],1,right,['2'],5,0.7687452000000121,0.2,0,FastAcc,30,18,Woman,Right,
14,13,1,0.8499293999993824,['c'],1,left,['1'],6,0.633770700000241,0.4,0,FastAcc,30,18,Woman,Right,
15,13,1,1.6011939999998503,['n'],0,left,['8'],3,0.9351042999996935,0.1,0,FastAcc,30,18,Woman,Right,
16,13,1,0.8504612999995516,['n'],1,right,['1'],6,0.5678890999997748,0.4,0,FastAcc,30,18,Woman,Right,
17,13,1,1.517232199999853,['n'],1,right,['2'],5,0.9512113999999201,0.1,0,FastAcc,30,18,Woman,Right,
18,13,1,0.8330229999992298,['n'],1,right,['2'],5,0.7338952999998583,0.4,0,FastAcc,30,18,Woman,Right,
19,13,1,1.4315634000004138,['c'],1,left,['2'],5,0.6526112999999896,0.1,0,FastAcc,30,18,Woman,Right,
20,13,1,0.6003977000000305,['n'],1,right,['3'],4,1.3184205999996266,0.4,0,FastAcc,30,18,Woman,Right,
21,13,1,1.3665932000003522,['c'],0,right,['8'],3,0.732938699999977,0.1,0,FastAcc,30,18,Woman,Right,
22,13,1,0.5171884999999747,['c'],1,left,['1'],6,0.5188254000004235,0.4,0,FastAcc,30,18,Woman,Right,
23,13,1,1.1848841999999422,['c'],0,right,['8'],3,0.7674542000004294,0.1,0,FastAcc,30,18,Woman,Right,
24,13,1,0.7159961999996085,['n'],1,right,['9'],2,0.8521018999999797,0.4,0,FastAcc,30,18,Woman,Right,
25,13,1,0.7006865000003017,['c'],1,left,['1'],6,0.5336752000002889,0.4,0,FastAcc,30,18,Woman,Right,
26,13,1,1.0842047999994975,['n'],1,right,['2'],5,0.668252699999357,0.4,0,FastAcc,30,18,Woman,Right,
27,13,1,1.1835884000001897,['n'],1,right,['2'],5,0.9002425999997286,0.2,0,FastAcc,30,18,Woman,Right,
28,13,1,0.817158400000153,['c'],1,left,['2'],5,1.0514378999996552,0.1,0,FastAcc,30,18,Woman,Right,
29,13,1,0.5341433000003235,['c'],0,right,['8'],3,1.0510064000000057,0.1,0,FastAcc,30,18,Woman,Right,
30,13,1,0.7170267999999851,['n'],1,right,['3'],4,1.235759600000165,0.2,0,FastAcc,30,18,Woman,Right,
31,13,1,0.8662213999996311,['c'],1,left,['3'],4,1.1675108999997974,0.1,0,FastAcc,30,18,Woman,Right,
32,13,1,0.8340124999995169,['n'],1,right,['3'],4,1.1676649999999427,0.2,0,FastAcc,30,18,Woman,Right,
33,13,1,0.7675061999998434,['n'],1,right,['2'],5,0.5345918000002712,0.4,0,FastAcc,30,18,Woman,Right,
34,13,1,0.6326167000006535,['n'],1,right,['1'],6,0.43529170000056183,0.4,0,FastAcc,30,18,Woman,Right,
35,13,1,0.5336314999995011,['c'],1,left,['1'],6,0.5511889999997948,0.4,0,FastAcc,30,18,Woman,Right,
36,13,1,1.232633700000406,['c'],1,left,['3'],4,0.7852751000000353,0.1,0,FastAcc,30,18,Woman,Right,
37,13,1,0.7838776999997208,['c'],1,left,['1'],6,0.8679473000001963,0.2,0,FastAcc,30,18,Woman,Right,
38,13,1,1.0331678000002285,['c'],1,left,['2'],5,0.55164380000042,0.1,0,FastAcc,30,18,Woman,Right,
39,13,1,1.050457500000448,['c'],1,left,['2'],5,0.6164295999997194,0.2,0,FastAcc,30,18,Woman,Right,
40,13,1,0.7185652999996819,['n'],1,right,['1'],6,0.7177031999999599,0.4,0,FastAcc,30,18,Woman,Right,
41,13,1,1.399387299999944,['n'],0,left,['8'],3,0.7841601000000082,0.2,0,FastAcc,30,18,Woman,Right,
42,13,1,0.6330216999995173,['c'],0,right,['9'],2,0.8859941999999137,0.1,0,FastAcc,30,18,Woman,Right,
43,13,1,0.5503968000002715,['c'],1,left,['1'],6,0.7517201999999088,0.4,0,FastAcc,30,18,Woman,Right,
44,13,1,1.0004577999998219,['c'],0,right,['2'],5,1.134598300000107,0.2,0,FastAcc,30,18,Woman,Right,
45,13,1,0.7504183000000921,['c'],1,left,['3'],4,0.9179886000001716,0.1,0,FastAcc,30,18,Woman,Right,
46,13,1,0.7653138999994553,['n'],1,right,['8'],3,1.0507980000002135,0.2,0,FastAcc,30,18,Woman,Right,
47,13,1,0.8179839000003994,['c'],1,left,['3'],4,0.7008365000001504,0.1,0,FastAcc,30,18,Woman,Right,
48,13,1,0.9501399000000674,['c'],1,left,['9'],2,1.7181121000003259,0.2,0,FastAcc,30,18,Woman,Right,
49,13,1,0.6335217000005287,['n'],1,right,['3'],4,0.9013853000005838,0.2,0,FastAcc,30,18,Woman,Right,
50,13,1,0.5843827999997302,['c'],1,left,['1'],6,0.651770000000397,0.4,0,FastAcc,30,18,Woman,Right,
51,13,1,0.9004523000003246,['n'],1,right,['2'],5,0.5340587999999116,0.1,0,FastAcc,30,18,Woman,Right,
52,13,1,1.1160090999992462,['n'],0,left,['3'],4,0.6189428000006956,0.1,0,FastAcc,30,18,Woman,Right,
53,13,1,0.5655655000000479,['c'],1,left,['9'],2,0.9349820999996155,0.2,0,FastAcc,30,18,Woman,Right,
54,13,1,0.5505212999996729,['n'],1,right,['1'],6,0.4676065000003291,0.4,0,FastAcc,30,18,Woman,Right,
55,13,1,0.6004898999999568,['n'],1,right,['2'],5,0.5020041999996465,0.4,0,FastAcc,30,18,Woman,Right,
56,13,1,0.6324774999993679,['c'],0,right,['9'],2,0.9520273999996789,0.2,0,FastAcc,30,18,Woman,Right,
57,13,1,0.6501050999995641,['c'],1,left,['2'],5,1.0677959999993618,0.1,0,FastAcc,30,18,Woman,Right,
58,13,1,0.7190861999997651,['n'],0,left,['8'],3,1.2500264999998763,0.1,0,FastAcc,30,18,Woman,Right,
59,13,1,0.5838722000007692,['c'],1,left,['2'],5,0.66805899999963,0.4,0,FastAcc,30,18,Woman,Right,
0,14,1,0.7348593999995501,['c'],1,left,['3'],4,0.4338698999999906,0.1,0,FastFast,30,18,Woman,Right,
1,14,1,0.6343907000000399,['c'],0,right,['8'],3,0.7012353999998595,0.1,0,FastFast,30,18,Woman,Right,
2,14,1,0.7340457000000242,['n'],1,right,['3'],4,0.7170654000001377,0.1,0,FastFast,30,18,Woman,Right,
3,14,1,0.50164070000028,['c'],1,left,['2'],5,0.4192036000004009,0.2,0,FastFast,30,18,Woman,Right,
4,14,1,0.7005141999998159,['c'],1,left,['2'],5,0.35142499999983556,0.1,0,FastFast,30,18,Woman,Right,
5,14,1,0.7676914000003308,['n'],0,left,['2'],5,0.36827509999966423,0.1,0,FastFast,30,18,Woman,Right,
6,14,1,1.0505530000000363,['c'],1,left,['9'],2,0.40142759999980626,0.1,0,FastFast,30,18,Woman,Right,
7,14,1,0.6815624000000753,['n'],1,right,['2'],5,0.6184608999992633,0.2,0,FastFast,30,18,Woman,Right,
8,14,1,0.699843399999736,['n'],1,right,['2'],5,0.4513129000006302,0.4,0,FastFast,30,18,Woman,Right,
9,14,1,0.533941099999538,['c'],1,left,['3'],4,0.4346555999991324,0.4,0,FastFast,30,18,Woman,Right,
10,14,1,0.5504084000003786,['n'],1,right,['2'],5,0.4013062000003629,0.4,0,FastFast,30,18,Woman,Right,
11,14,1,0.7511090999996668,['c'],1,left,['2'],5,0.4505803999991258,0.1,0,FastFast,30,18,Woman,Right,
12,14,1,0.8500669000004564,['n'],1,right,['8'],3,0.4674709000000803,0.2,0,FastFast,30,18,Woman,Right,
13,14,1,0.5167194000005111,['n'],1,right,['8'],3,0.41743529999985185,0.4,0,FastFast,30,18,Woman,Right,
14,14,1,0.7174061000005167,['c'],1,left,['2'],5,0.3833379000006971,0.4,0,FastFast,30,18,Woman,Right,
15,14,1,0.6510914000000412,['c'],1,left,['2'],5,0.38475540000035835,0.4,0,FastFast,30,18,Woman,Right,
16,14,1,0.700391800000034,['n'],1,right,['3'],4,0.41664719999971567,0.2,0,FastFast,30,18,Woman,Right,
17,14,1,0.6173675000000003,['n'],1,right,['2'],5,0.3683584999998857,0.4,0,FastFast,30,18,Woman,Right,
18,14,1,1.1330266000004485,['c'],1,left,['8'],3,0.35186890000022686,0.1,0,FastFast,30,18,Woman,Right,
19,14,1,0.8823219999994762,['c'],1,left,['8'],3,0.40237859999979264,0.2,0,FastFast,30,18,Woman,Right,
20,14,1,0.5820979999998599,['n'],1,right,['3'],4,0.3520386000000144,0.1,0,FastFast,30,18,Woman,Right,
21,14,1,0.8164958999996088,['n'],1,right,['3'],4,0.33365869999943243,0.4,0,FastFast,30,18,Woman,Right,
22,14,1,1.4342835999996169,['c'],0,right,['9'],2,0.3012981000001673,0.4,0,FastFast,30,18,Woman,Right,
23,14,1,0.650402799999938,['c'],0,right,['3'],4,0.5500597999998718,0.1,0,FastFast,30,18,Woman,Right,
24,14,1,1.1175556999996843,['n'],1,right,['8'],3,0.3504601000004186,0.4,0,FastFast,30,18,Woman,Right,
25,14,1,0.950114900000699,['c'],1,left,['3'],4,0.38473199999953067,0.4,0,FastFast,30,18,Woman,Right,
26,14,1,1.4511021999996956,['n'],1,right,['9'],2,0.3662168000000747,0.2,0,FastFast,30,18,Woman,Right,
27,14,1,0.6842428999998447,['c'],1,left,['1'],6,0.7014030999998795,0.4,0,FastFast,30,18,Woman,Right,
28,14,1,0.9162698000000091,['n'],0,left,['2'],5,0.3997216000007029,0.1,0,FastFast,30,18,Woman,Right,
29,14,1,0.8835940999997547,['n'],1,right,['3'],4,0.4686001000000033,0.2,0,FastFast,30,18,Woman,Right,
30,14,1,0.7162682999996832,['n'],1,right,['2'],5,0.7667430999999851,0.4,0,FastFast,30,18,Woman,Right,
31,14,1,0.8996227999996336,['c'],1,left,['9'],2,0.4356232000000091,0.2,0,FastFast,30,18,Woman,Right,
32,14,1,1.3337648000006084,['n'],1,right,['8'],3,0.5684414000006655,0.2,0,FastFast,30,18,Woman,Right,
33,14,1,0.683907900000122,['n'],1,right,['3'],4,0.6003160999998727,0.4,0,FastFast,30,18,Woman,Right,
34,14,1,0.6833273000002009,['n'],1,right,['8'],3,0.45252290000007633,0.2,0,FastFast,30,18,Woman,Right,
35,14,1,0.7826591000002736,['c'],1,left,['3'],4,0.6845982999993794,0.1,0,FastFast,30,18,Woman,Right,
36,14,1,0.8664725999997245,['n'],1,right,['8'],3,0.48552030000064406,0.1,0,FastFast,30,18,Woman,Right,
37,14,1,2.017001899999741,['c'],1,left,['3'],4,0.7834556000007069,0.1,0,FastFast,30,18,Woman,Right,
38,14,1,1.48399100000006,['n'],1,right,['9'],2,0.33463299999948504,0.2,0,FastFast,30,18,Woman,Right,
39,14,1,0.9329833000001599,['c'],1,left,['2'],5,0.36833149999984016,0.4,0,FastFast,30,18,Woman,Right,
40,14,1,1.0668796999998449,['c'],1,left,['3'],4,0.4679014000003008,0.2,0,FastFast,30,18,Woman,Right,
41,14,1,0.7843503999993118,['n'],1,right,['1'],6,0.4335803999993004,0.4,0,FastFast,30,18,Woman,Right,
42,14,1,0.9675640000004933,['c'],1,left,['3'],4,0.6514164999998684,0.2,0,FastFast,30,18,Woman,Right,
43,14,1,0.8004738999998153,['n'],1,right,['1'],6,0.30015800000001036,0.4,0,FastFast,30,18,Woman,Right,
44,14,1,1.3501196999995955,['c'],1,left,['3'],4,0.35024239999984275,0.2,0,FastFast,30,18,Woman,Right,
45,14,1,0.8676254000001791,['c'],1,left,['2'],5,0.31718069999988074,0.4,0,FastFast,30,18,Woman,Right,
46,14,1,0.7337478999997984,['n'],1,right,['1'],6,0.31855890000042564,0.2,0,FastFast,30,18,Woman,Right,
47,14,1,0.966702400000031,['c'],0,right,['2'],5,0.3514377000001332,0.2,0,FastFast,30,18,Woman,Right,
48,14,1,0.8662672000000384,['c'],1,left,['2'],5,0.3352591000002576,0.2,0,FastFast,30,18,Woman,Right,
49,14,1,1.5010511000000406,['n'],1,right,['8'],3,0.36757200000010926,0.1,0,FastFast,30,18,Woman,Right,
50,14,1,1.1506578999997146,['c'],1,left,['2'],5,0.499391100000139,0.2,0,FastFast,30,18,Woman,Right,
51,14,1,1.3672199000002365,['n'],0,left,['3'],4,0.3188571000000593,0.1,0,FastFast,30,18,Woman,Right,
52,14,1,0.7836984999994456,['n'],1,right,['1'],6,0.3000138999996125,0.4,0,FastFast,30,18,Woman,Right,
53,14,1,0.9521731000004365,['c'],1,left,['8'],3,0.35028179999972053,0.1,0,FastFast,30,18,Woman,Right,
54,14,1,0.8683197999998811,['n'],1,right,['2'],5,0.268028299999969,0.2,0,FastFast,30,18,Woman,Right,
55,14,1,0.9674593999998251,['n'],1,right,['2'],5,0.26828109999951266,0.1,0,FastFast,30,18,Woman,Right,
56,14,1,0.7171780000007857,['c'],1,left,['1'],6,0.2845988999997644,0.4,0,FastFast,30,18,Woman,Right,
57,14,1,0.9663428000003478,['c'],1,left,['3'],4,0.35114789999988716,0.2,0,FastFast,30,18,Woman,Right,
58,14,1,0.967830700000377,['n'],0,left,['8'],3,0.2851749999999811,0.1,0,FastFast,30,18,Woman,Right,
59,14,1,1.0343628999999055,['c'],1,left,['3'],4,0.4336137000000235,0.1,0,FastFast,30,18,Woman,Right,
0,15,1,1.3350250000003143,['n'],0,left,['3'],4,0.38450489999922866,0.1,0,AccFast,30,18,Woman,Right,
1,15,1,1.166270299999269,['c'],1,left,['3'],4,1.000992899999801,0.2,0,AccFast,30,18,Woman,Right,
2,15,1,1.0160875000001397,['n'],1,right,['1'],6,0.31912390000070445,0.2,0,AccFast,30,18,Woman,Right,
3,15,1,0.8499944999994113,['c'],1,left,['1'],6,0.7180646999995588,0.4,0,AccFast,30,18,Woman,Right,
4,15,1,1.7835618999997678,['c'],1,left,['2'],5,0.40119980000054056,0.2,0,AccFast,30,18,Woman,Right,
5,15,1,0.9165202000003774,['n'],1,right,['1'],6,0.3014923999999155,0.1,0,AccFast,30,18,Woman,Right,
6,15,1,1.7336286999998265,['n'],1,right,['8'],3,0.33333610000045155,0.1,0,AccFast,30,18,Woman,Right,
7,15,1,0.9006108000003223,['n'],1,right,['2'],5,0.3180762000001778,0.2,0,AccFast,30,18,Woman,Right,
8,15,1,1.6995733000003383,['n'],0,left,['9'],2,0.251144299999396,0.2,0,AccFast,30,18,Woman,Right,
9,15,1,1.8840307000000394,['n'],0,left,['8'],3,0.4845918000000893,0.2,0,AccFast,30,18,Woman,Right,
10,15,1,1.9328002000002016,['n'],1,right,['8'],3,0.38447480000013456,0.2,0,AccFast,30,18,Woman,Right,
11,15,1,0.883054799999627,['c'],1,left,['1'],6,0.35088290000021516,0.4,0,AccFast,30,18,Woman,Right,
12,15,1,1.1335541999997076,['n'],1,right,['2'],5,0.4678809999995792,0.1,0,AccFast,30,18,Woman,Right,
13,15,1,1.1842934999995123,['n'],1,right,['2'],5,0.3184709999995903,0.4,0,AccFast,30,18,Woman,Right,
14,15,1,1.5669901000001119,['c'],1,left,['2'],5,0.6182504999997036,0.1,0,AccFast,30,18,Woman,Right,
15,15,1,1.184088499999234,['c'],1,left,['2'],5,0.4180802999999287,0.4,0,AccFast,30,18,Woman,Right,
16,15,1,1.6327495000005001,['c'],1,left,['3'],4,0.38464590000057797,0.2,0,AccFast,30,18,Woman,Right,
17,15,1,1.3666456000000835,['n'],1,right,['3'],4,0.30196350000005623,0.1,0,AccFast,30,18,Woman,Right,
18,15,1,1.5005445000006148,['c'],1,left,['3'],4,0.3344507000001613,0.2,0,AccFast,30,18,Woman,Right,
19,15,1,0.8340281999999206,['n'],1,right,['1'],6,0.2512824000004912,0.4,0,AccFast,30,18,Woman,Right,
20,15,1,1.0495585999997274,['n'],1,right,['2'],5,0.21808099999998376,0.2,0,AccFast,30,18,Woman,Right,
21,15,1,1.7831046000001152,['c'],1,left,['9'],2,0.2189343000000008,0.1,0,AccFast,30,18,Woman,Right,
22,15,1,1.700246700000207,['c'],1,left,['8'],3,0.25123570000050677,0.2,0,AccFast,30,18,Woman,Right,
23,15,1,2.082535999999891,['c'],1,left,['8'],3,0.2358153000004677,0.1,0,AccFast,30,18,Woman,Right,
24,15,1,0.9816726999997627,['c'],1,left,['3'],4,0.2523273999995581,0.2,0,AccFast,30,18,Woman,Right,
25,15,1,0.6342828999995618,['n'],1,right,['1'],6,0.2685055000001739,0.4,0,AccFast,30,18,Woman,Right,
26,15,1,2.199474099999861,['n'],1,right,['3'],4,0.5844802000001437,0.1,0,AccFast,30,18,Woman,Right,
27,15,1,2.0505237999996098,['c'],1,left,['8'],3,0.28464749999966443,0.1,0,AccFast,30,18,Woman,Right,
28,15,1,2.0170533000000432,['n'],0,left,['8'],3,0.41667669999969803,0.2,0,AccFast,30,18,Woman,Right,
29,15,1,2.367573800000173,['c'],1,left,['9'],2,0.5345737999996345,0.1,0,AccFast,30,18,Woman,Right,
30,15,1,0.7999086999998326,['n'],1,right,['1'],6,0.25140319999991334,0.4,0,AccFast,30,18,Woman,Right,
31,15,1,0.8838026000003083,['n'],0,left,['0'],1,0.9668910000000324,0.4,0,AccFast,30,18,Woman,Right,
32,15,1,1.5667675000004238,['n'],1,right,['2'],5,0.918061299999863,0.1,0,AccFast,30,18,Woman,Right,
33,15,1,1.7328301999996256,['n'],1,right,['3'],4,0.2671172000000297,0.2,0,AccFast,30,18,Woman,Right,
34,15,1,0.8660171999999875,['n'],1,right,['1'],6,0.23552440000003116,0.2,0,AccFast,30,18,Woman,Right,
35,15,1,0.6823967000000266,['n'],1,right,['1'],6,0.2687706000006074,0.4,0,AccFast,30,18,Woman,Right,
36,15,1,1.0504172999999355,['c'],1,left,['1'],6,0.26793760000055045,0.4,0,AccFast,30,18,Woman,Right,
37,15,1,0.9664520999995148,['c'],1,left,['1'],6,0.26747530000011466,0.4,0,AccFast,30,18,Woman,Right,
38,15,1,0.8003036999998585,['c'],1,left,['1'],6,0.26824669999950856,0.4,0,AccFast,30,18,Woman,Right,
39,15,1,1.650937100000192,['c'],1,left,['2'],5,0.21763520000058634,0.1,0,AccFast,30,18,Woman,Right,
40,15,1,0.9172015000003739,['c'],1,left,['1'],6,0.26674129999992147,0.4,0,AccFast,30,18,Woman,Right,
41,15,1,2.3843590999995286,['c'],0,right,['2'],5,0.5681155000002036,0.1,0,AccFast,30,18,Woman,Right,
42,15,1,1.9821774000001824,['n'],1,right,['3'],4,0.568833999999697,0.1,0,AccFast,30,18,Woman,Right,
43,15,1,2.151125200000024,['n'],1,right,['9'],2,0.26822160000028816,0.1,0,AccFast,30,18,Woman,Right,
44,15,1,2.533894700000019,['n'],1,right,['3'],4,0.6509758000001966,0.4,0,AccFast,30,18,Woman,Right,
45,15,1,2.1002315999994607,['c'],0,right,['3'],4,0.3845172999999704,0.2,0,AccFast,30,18,Woman,Right,
46,15,1,1.2166190999996616,['n'],1,right,['1'],6,0.3013250000003609,0.1,0,AccFast,30,18,Woman,Right,
47,15,1,0.8497692000000825,['c'],1,left,['1'],6,0.3687067000000752,0.2,0,AccFast,30,18,Woman,Right,
48,15,1,0.7669536999992488,['n'],1,right,['1'],6,0.2677801999998337,0.4,0,AccFast,30,18,Woman,Right,
49,15,1,1.6499723999995695,['c'],0,right,['3'],4,0.28596159999960946,0.2,0,AccFast,30,18,Woman,Right,
50,15,1,2.0003141999995933,['c'],1,left,['2'],5,0.5166120999992927,0.4,0,AccFast,30,18,Woman,Right,
51,15,1,1.667418600000019,['n'],0,left,['8'],3,0.28563450000001467,0.2,0,AccFast,30,18,Woman,Right,
52,15,1,0.7997688000004928,['c'],1,left,['1'],6,0.21769300000050862,0.4,0,AccFast,30,18,Woman,Right,
53,15,1,1.5671571000002587,['n'],0,left,['0'],1,0.8348012000005838,0.1,0,AccFast,30,18,Woman,Right,
54,15,1,0.9840628000001743,['n'],1,right,['1'],6,0.23459809999985737,0.4,0,AccFast,30,18,Woman,Right,
55,15,1,2.166232499999751,['c'],0,right,['3'],4,0.684664000000339,0.1,0,AccFast,30,18,Woman,Right,
56,15,1,0.7334668000003148,['n'],1,right,['1'],6,0.25076179999996384,0.4,0,AccFast,30,18,Woman,Right,
57,15,1,0.8338997999999265,['n'],1,right,['1'],6,0.2514979999996285,0.2,0,AccFast,30,18,Woman,Right,
58,15,1,0.6680930000002263,['n'],1,right,['1'],6,0.26892060000045603,0.4,0,AccFast,30,18,Woman,Right,
59,15,1,2.333421499999531,['c'],1,left,['3'],4,0.2682315000001836,0.1,0,AccFast,30,18,Woman,Right,
