withinblocktrial,block,block_repetition,rt,resp,cor,cresp,conf_press,cj,rtconf,coherence,slow_trial,manipulation,sub,age,gender,handedness,
0,1,1,2.0839510999994673,['c'],0,right,none,-99,-99,0.5,0,none,27,18,Man,Right,
1,1,1,2.1845823000003293,['c'],1,left,none,-99,-99,0.5,0,none,27,18,Man,Right,
2,1,1,0.8006068000004234,['n'],1,right,none,-99,-99,0.5,0,none,27,18,Man,Right,
3,1,1,1.617135600000438,['n'],1,right,none,-99,-99,0.5,0,none,27,18,Man,Right,
4,1,1,1.2172497999999905,['n'],1,right,none,-99,-99,0.5,0,none,27,18,Man,Right,
5,1,1,0.7513466000000335,['c'],1,left,none,-99,-99,0.5,0,none,27,18,Man,Right,
6,1,1,0.6492771000002904,['n'],0,left,none,-99,-99,0.5,0,none,27,18,Man,Right,
7,1,1,2.1997219000004407,['c'],1,left,none,-99,-99,0.5,0,none,27,18,Man,Right,
8,1,1,0.9682131999998091,['c'],1,left,none,-99,-99,0.5,0,none,27,18,Man,Right,
9,1,1,0.6839640999996845,['c'],1,left,none,-99,-99,0.5,0,none,27,18,Man,Right,
10,1,1,1.5995820999996795,['c'],0,right,none,-99,-99,0.5,0,none,27,18,Man,Right,
11,1,1,0.9990607999998247,['c'],0,right,none,-99,-99,0.5,0,none,27,18,Man,Right,
12,1,1,0.6523894000001746,['n'],1,right,none,-99,-99,0.5,0,none,27,18,Man,Right,
13,1,1,0.5671124999998938,['n'],1,right,none,-99,-99,0.5,0,none,27,18,Man,Right,
14,1,1,1.9835902999993777,['n'],0,left,none,-99,-99,0.5,0,none,27,18,Man,Right,
15,1,1,2.699430599999687,['c'],1,left,none,-99,-99,0.5,0,none,27,18,Man,Right,
16,1,1,0.6680624999999054,['c'],0,right,none,-99,-99,0.5,0,none,27,18,Man,Right,
17,1,1,1.650399500000276,['c'],1,left,none,-99,-99,0.5,0,none,27,18,Man,Right,
18,1,1,0.8836168000007092,['c'],1,left,none,-99,-99,0.5,0,none,27,18,Man,Right,
19,1,1,0.5504620000001523,['c'],1,left,none,-99,-99,0.5,0,none,27,18,Man,Right,
20,1,1,1.4510073999999804,['c'],0,right,none,-99,-99,0.5,0,none,27,18,Man,Right,
21,1,1,0.6167457000001377,['c'],0,right,none,-99,-99,0.5,0,none,27,18,Man,Right,
22,1,1,0.6494552999993175,['c'],0,right,none,-99,-99,0.5,0,none,27,18,Man,Right,
23,1,1,0.2514649000004283,['n'],0,left,none,-99,-99,0.5,0,none,27,18,Man,Right,
0,1,2,3.4505058000004283,['c'],1,left,none,-99,-99,0.5,0,none,27,18,Man,Right,
1,1,2,0.8837486000002173,['c'],0,right,none,-99,-99,0.5,0,none,27,18,Man,Right,
2,1,2,1.9332518999999593,['n'],0,left,none,-99,-99,0.5,0,none,27,18,Man,Right,
3,1,2,2.2002023000004556,['c'],1,left,none,-99,-99,0.5,0,none,27,18,Man,Right,
4,1,2,2.299705499999618,['n'],1,right,none,-99,-99,0.5,0,none,27,18,Man,Right,
5,1,2,2.3340072999999393,['n'],0,left,none,-99,-99,0.5,0,none,27,18,Man,Right,
6,1,2,0.8012262000002011,['c'],1,left,none,-99,-99,0.5,0,none,27,18,Man,Right,
7,1,2,2.8002608999995573,['n'],1,right,none,-99,-99,0.5,0,none,27,18,Man,Right,
8,1,2,4.549785100000008,['n'],1,right,none,-99,-99,0.5,0,none,27,18,Man,Right,
9,1,2,1.5171722999994017,['c'],1,left,none,-99,-99,0.5,0,none,27,18,Man,Right,
10,1,2,4.401134800000364,['c'],1,left,none,-99,-99,0.5,0,none,27,18,Man,Right,
11,1,2,0.9344015999995463,['n'],1,right,none,-99,-99,0.5,0,none,27,18,Man,Right,
12,1,2,4.450073699999848,['n'],1,right,none,-99,-99,0.5,0,none,27,18,Man,Right,
13,1,2,3.4166751000002478,['n'],1,right,none,-99,-99,0.5,0,none,27,18,Man,Right,
14,1,2,2.733357099999921,['n'],1,right,none,-99,-99,0.5,0,none,27,18,Man,Right,
15,1,2,2.4839741000005233,['n'],1,right,none,-99,-99,0.5,0,none,27,18,Man,Right,
16,1,2,2.933584200000041,['n'],1,right,none,-99,-99,0.5,0,none,27,18,Man,Right,
17,1,2,1.165331299999707,['c'],1,left,none,-99,-99,0.5,0,none,27,18,Man,Right,
18,1,2,1.167422099999385,['n'],1,right,none,-99,-99,0.5,0,none,27,18,Man,Right,
19,1,2,0.8831377999995311,['c'],1,left,none,-99,-99,0.5,0,none,27,18,Man,Right,
20,1,2,0.9507440999996106,['c'],1,left,none,-99,-99,0.5,0,none,27,18,Man,Right,
21,1,2,0.7169077999997171,['n'],1,right,none,-99,-99,0.5,0,none,27,18,Man,Right,
22,1,2,0.6839557000002969,['c'],1,left,none,-99,-99,0.5,0,none,27,18,Man,Right,
23,1,2,0.5826637999998638,['c'],1,left,none,-99,-99,0.5,0,none,27,18,Man,Right,
0,2,1,1.084045900000092,['c'],1,left,none,-99,-99,0.4,0,none,27,18,Man,Right,
1,2,1,3.5167578999999023,['c'],0,right,none,-99,-99,0.1,0,none,27,18,Man,Right,
2,2,1,3.4339063999996142,['n'],1,right,none,-99,-99,0.2,0,none,27,18,Man,Right,
3,2,1,2.90007180000066,['n'],1,right,none,-99,-99,0.4,0,none,27,18,Man,Right,
4,2,1,5.016285199999402,x,-99,right,none,-99,-99,0.1,1,none,27,18,Man,Right,
5,2,1,0.6505487000003995,['c'],1,left,none,-99,-99,0.1,0,none,27,18,Man,Right,
6,2,1,0.5502828000007867,['c'],0,right,none,-99,-99,0.4,0,none,27,18,Man,Right,
7,2,1,1.6658334000003379,['n'],0,left,none,-99,-99,0.2,0,none,27,18,Man,Right,
8,2,1,2.1990819000002375,['n'],1,right,none,-99,-99,0.4,0,none,27,18,Man,Right,
9,2,1,1.4153692999998384,['n'],1,right,none,-99,-99,0.4,0,none,27,18,Man,Right,
10,2,1,0.5834004999996978,['c'],1,left,none,-99,-99,0.2,0,none,27,18,Man,Right,
11,2,1,1.9181243000002723,['c'],1,left,none,-99,-99,0.4,0,none,27,18,Man,Right,
12,2,1,0.9008709999998246,['n'],0,left,none,-99,-99,0.1,0,none,27,18,Man,Right,
13,2,1,2.5335170000007565,['n'],1,right,none,-99,-99,0.2,0,none,27,18,Man,Right,
14,2,1,2.899305799999638,['c'],1,left,none,-99,-99,0.1,0,none,27,18,Man,Right,
15,2,1,2.8173397999998997,['c'],1,left,none,-99,-99,0.1,0,none,27,18,Man,Right,
16,2,1,2.349159100000179,['c'],1,left,none,-99,-99,0.2,0,none,27,18,Man,Right,
17,2,1,1.4658448000000135,['n'],1,right,none,-99,-99,0.4,0,none,27,18,Man,Right,
18,2,1,1.6018062000002828,['n'],1,right,none,-99,-99,0.4,0,none,27,18,Man,Right,
19,2,1,2.5832487999996374,['n'],0,left,none,-99,-99,0.2,0,none,27,18,Man,Right,
20,2,1,3.165296500000295,['c'],1,left,none,-99,-99,0.2,0,none,27,18,Man,Right,
21,2,1,2.1164181000003737,['n'],1,right,none,-99,-99,0.2,0,none,27,18,Man,Right,
22,2,1,2.6335831999995207,['c'],0,right,none,-99,-99,0.1,0,none,27,18,Man,Right,
23,2,1,1.6998247000001356,['c'],1,left,none,-99,-99,0.1,0,none,27,18,Man,Right,
0,3,1,2.284173699999883,['c'],1,left,['9'],5,2.585245500000383,0.2,0,none,27,18,Man,Right,
1,3,1,3.782214199999544,['n'],1,right,['3'],3,3.9674261000000115,0.1,0,none,27,18,Man,Right,
2,3,1,1.9178326999999626,['n'],1,right,['9'],5,0.9679876000000149,0.2,0,none,27,18,Man,Right,
3,3,1,3.2336527000006754,['n'],1,right,['9'],5,1.017186999999467,0.1,0,none,27,18,Man,Right,
4,3,1,2.4836441000006744,['n'],1,right,['0'],6,0.6847173999994993,0.4,0,none,27,18,Man,Right,
5,3,1,2.200720399999227,['c'],1,left,['9'],5,2.183210700000018,0.1,0,none,27,18,Man,Right,
6,3,1,3.350011900000027,['c'],0,right,['8'],4,1.1013810000004014,0.2,0,none,27,18,Man,Right,
7,3,1,1.5339230999998108,['n'],0,left,['0'],6,0.70137270000032,0.1,0,none,27,18,Man,Right,
8,3,1,2.3324462999999014,['n'],0,left,['9'],5,0.7020808000006582,0.1,0,none,27,18,Man,Right,
9,3,1,2.2999562000004516,['n'],0,left,['8'],4,1.184567700000116,0.4,0,none,27,18,Man,Right,
10,3,1,2.016132600000674,['n'],1,right,['9'],5,0.7835117000004175,0.2,0,none,27,18,Man,Right,
11,3,1,1.9341260999999577,['n'],1,right,['9'],5,0.41685469999993074,0.4,0,none,27,18,Man,Right,
12,3,1,1.1007238000001962,['n'],0,left,['9'],5,0.3679627999999866,0.2,0,none,27,18,Man,Right,
13,3,1,3.4988616999999067,['n'],0,left,['9'],5,1.1015901999999187,0.1,0,none,27,18,Man,Right,
14,3,1,2.5663800000002084,['c'],0,right,['3'],3,1.551260100000036,0.2,0,none,27,18,Man,Right,
15,3,1,1.5823519000005035,['n'],1,right,['9'],5,0.5184325999998691,0.4,0,none,27,18,Man,Right,
16,3,1,1.1500760000008086,['c'],1,left,['8'],4,0.4681343000002016,0.2,0,none,27,18,Man,Right,
17,3,1,0.9157226000006631,['c'],1,left,['9'],5,0.38531200000034005,0.4,0,none,27,18,Man,Right,
18,3,1,0.6007386999999653,['n'],1,right,['8'],4,0.6349165000001449,0.4,0,none,27,18,Man,Right,
19,3,1,0.8504508999994869,['n'],1,right,['8'],4,0.6848071999993408,0.1,0,none,27,18,Man,Right,
20,3,1,0.7340785999995205,['c'],1,left,['0'],6,0.4177672999994684,0.4,0,none,27,18,Man,Right,
21,3,1,0.9672645999999077,['n'],1,right,['9'],5,0.41814940000040224,0.2,0,none,27,18,Man,Right,
22,3,1,1.9999218000002656,['n'],0,left,['9'],5,0.46753110000008746,0.4,0,none,27,18,Man,Right,
23,3,1,1.1003498999998556,['n'],0,left,['9'],5,0.5015128000004552,0.1,0,none,27,18,Man,Right,
0,4,1,2.8175429000002623,['n'],0,left,['9'],5,1.368262400000276,0.1,0,AccAcc,27,18,Man,Right,
1,4,1,1.8993442000000869,['n'],1,right,['9'],5,0.6683935000000929,0.1,0,AccAcc,27,18,Man,Right,
2,4,1,3.0663668999995934,['n'],1,right,['9'],5,0.9837847999997393,0.4,0,AccAcc,27,18,Man,Right,
3,4,1,1.6003537999995388,['n'],1,right,['8'],4,0.8346799000000829,0.4,0,AccAcc,27,18,Man,Right,
4,4,1,2.4821953000000576,['n'],1,right,['8'],4,0.6361094000003504,0.1,0,AccAcc,27,18,Man,Right,
5,4,1,1.5506480999993073,['c'],1,left,['8'],4,0.7179740999999922,0.1,0,AccAcc,27,18,Man,Right,
6,4,1,0.6002716000002692,['n'],0,left,['8'],4,0.3506479000006948,0.1,0,AccAcc,27,18,Man,Right,
7,4,1,0.6346275000005335,['c'],1,left,['8'],4,0.3680750999992597,0.2,0,AccAcc,27,18,Man,Right,
8,4,1,0.8006230000000869,['c'],1,left,['9'],5,0.6348400999995647,0.4,0,AccAcc,27,18,Man,Right,
9,4,1,0.6171532999996998,['n'],1,right,['8'],4,0.6346724000004542,0.2,0,AccAcc,27,18,Man,Right,
10,4,1,0.684235599999738,['c'],1,left,['3'],3,0.6681211999994048,0.2,0,AccAcc,27,18,Man,Right,
11,4,1,0.5514806999999564,['n'],1,right,['8'],4,0.5835296000004746,0.2,0,AccAcc,27,18,Man,Right,
12,4,1,0.3508811000001515,['c'],0,right,['8'],4,0.31833849999929953,0.1,0,AccAcc,27,18,Man,Right,
13,4,1,0.66719699999976,['n'],1,right,['9'],5,0.5659454000006008,0.2,0,AccAcc,27,18,Man,Right,
14,4,1,0.9355819000002157,['n'],1,right,['3'],3,0.48461570000017673,0.2,0,AccAcc,27,18,Man,Right,
15,4,1,1.2330463000007512,['c'],1,left,['8'],4,0.7679529999995793,0.1,0,AccAcc,27,18,Man,Right,
16,4,1,0.7659519999997428,['n'],1,right,['9'],5,0.7502950999996756,0.2,0,AccAcc,27,18,Man,Right,
17,4,1,1.0671417000003203,['c'],1,left,['3'],3,0.3673022000002675,0.4,0,AccAcc,27,18,Man,Right,
18,4,1,1.6320648000000801,['n'],1,right,['9'],5,0.3675990000001548,0.2,0,AccAcc,27,18,Man,Right,
19,4,1,1.6680976999996346,['n'],0,left,['8'],4,0.45070229999964795,0.1,0,AccAcc,27,18,Man,Right,
20,4,1,1.8006380000006175,['c'],1,left,['9'],5,0.2841081000005943,0.2,0,AccAcc,27,18,Man,Right,
21,4,1,2.082891000000018,['c'],1,left,['9'],5,0.4019555000004402,0.4,0,AccAcc,27,18,Man,Right,
22,4,1,1.8995280999997703,['n'],1,right,['3'],3,0.6848455999997896,0.1,0,AccAcc,27,18,Man,Right,
23,4,1,3.1833881000002293,['c'],1,left,['2'],2,1.2017389000002368,0.4,0,AccAcc,27,18,Man,Right,
24,4,1,2.1500261999999566,['n'],0,left,['8'],4,0.6002037999996901,0.4,0,AccAcc,27,18,Man,Right,
25,4,1,1.2998063999993974,['c'],1,left,['3'],3,0.4010023999999248,0.4,0,AccAcc,27,18,Man,Right,
26,4,1,2.933327300000201,['n'],1,right,['9'],5,0.5180811999998696,0.2,0,AccAcc,27,18,Man,Right,
27,4,1,2.8161683999996967,['c'],1,left,['9'],5,0.25045049999971525,0.4,0,AccAcc,27,18,Man,Right,
28,4,1,2.1663103999999294,['n'],0,left,['8'],4,0.7512493000003815,0.4,0,AccAcc,27,18,Man,Right,
29,4,1,2.033039099999769,['c'],1,left,['9'],5,0.4178703999996287,0.4,0,AccAcc,27,18,Man,Right,
30,4,1,1.0173336999996536,['n'],1,right,['8'],4,0.8180019999999786,0.4,0,AccAcc,27,18,Man,Right,
31,4,1,1.0012368999996397,['n'],1,right,['9'],5,0.4830997999997635,0.2,0,AccAcc,27,18,Man,Right,
32,4,1,2.1670643999996173,['n'],1,right,['8'],4,0.7345816999995805,0.2,0,AccAcc,27,18,Man,Right,
33,4,1,3.2326005000004443,['n'],0,left,['8'],4,0.4679353000001356,0.1,0,AccAcc,27,18,Man,Right,
34,4,1,2.283991700000115,['n'],1,right,['3'],3,0.45168160000048374,0.2,0,AccAcc,27,18,Man,Right,
35,4,1,1.8830117999996219,['n'],1,right,['2'],2,0.7182812999999442,0.1,0,AccAcc,27,18,Man,Right,
36,4,1,1.0825002999999924,['n'],1,right,['9'],5,0.5007240000004458,0.2,0,AccAcc,27,18,Man,Right,
37,4,1,1.1176376000003074,['n'],0,left,['9'],5,0.3682245999998486,0.2,0,AccAcc,27,18,Man,Right,
38,4,1,3.215668099999675,['n'],1,right,['9'],5,0.3348897999994733,0.2,0,AccAcc,27,18,Man,Right,
39,4,1,1.5673377000002802,['c'],1,left,['9'],5,0.36820150000039575,0.1,0,AccAcc,27,18,Man,Right,
40,4,1,2.0007014000002528,['n'],0,left,['9'],5,0.31801309999991645,0.4,0,AccAcc,27,18,Man,Right,
41,4,1,1.799685099999806,['n'],1,right,['9'],5,0.28481319999991683,0.4,0,AccAcc,27,18,Man,Right,
42,4,1,2.0671744999999646,['n'],0,left,['0'],6,0.5000241999996433,0.4,0,AccAcc,27,18,Man,Right,
43,4,1,1.7170003000001088,['n'],0,left,['0'],6,0.4515725000001112,0.1,0,AccAcc,27,18,Man,Right,
44,4,1,1.433390099999997,['n'],1,right,['0'],6,0.2845194999999876,0.1,0,AccAcc,27,18,Man,Right,
45,4,1,0.3833303999999771,['n'],1,right,['9'],5,0.3007772000000841,0.1,0,AccAcc,27,18,Man,Right,
46,4,1,2.45054859999982,['n'],1,right,['8'],4,0.684757100000752,0.4,0,AccAcc,27,18,Man,Right,
47,4,1,1.1336532000004809,['n'],1,right,['9'],5,0.4679862000002686,0.2,0,AccAcc,27,18,Man,Right,
48,4,1,1.149334099999578,['c'],1,left,['3'],3,1.5518771000006382,0.4,0,AccAcc,27,18,Man,Right,
49,4,1,1.0839230999999927,['n'],1,right,['8'],4,0.4016439999995782,0.1,0,AccAcc,27,18,Man,Right,
50,4,1,2.2493274999997084,['n'],0,left,['9'],5,0.4012901000005513,0.4,0,AccAcc,27,18,Man,Right,
51,4,1,2.4656928000003973,['n'],1,right,['8'],4,0.467993899999783,0.1,0,AccAcc,27,18,Man,Right,
52,4,1,1.734244299999773,['n'],1,right,['9'],5,0.4670592000002216,0.1,0,AccAcc,27,18,Man,Right,
53,4,1,1.3176412000002529,['n'],0,left,['9'],5,0.4514521999999488,0.2,0,AccAcc,27,18,Man,Right,
54,4,1,2.2502157999997507,['c'],1,left,['3'],3,1.0012475999992603,0.1,0,AccAcc,27,18,Man,Right,
55,4,1,2.267690599999696,['c'],1,left,['3'],3,0.7844793999993271,0.2,0,AccAcc,27,18,Man,Right,
56,4,1,1.3337638000002698,['c'],1,left,['3'],3,0.6512454000003345,0.4,0,AccAcc,27,18,Man,Right,
57,4,1,0.7989284000004773,['n'],1,right,['9'],5,0.30213459999959014,0.4,0,AccAcc,27,18,Man,Right,
58,4,1,1.5834955999998783,['c'],1,left,['9'],5,0.31817429999955493,0.2,0,AccAcc,27,18,Man,Right,
59,4,1,1.4338048999998136,['n'],1,right,['9'],5,0.284805299999789,0.1,0,AccAcc,27,18,Man,Right,
0,5,1,0.667900099999315,['n'],1,right,['9'],5,0.1684931999998298,0.4,0,FastAcc,27,18,Man,Right,
1,5,1,0.683745799999997,['n'],1,right,['9'],5,1.7180717000001096,0.1,0,FastAcc,27,18,Man,Right,
2,5,1,1.1342029999996157,['n'],0,left,['0'],6,0.36687629999960336,0.2,0,FastAcc,27,18,Man,Right,
3,5,1,1.1008275999993202,['n'],1,right,['9'],5,0.3013467999999193,0.2,0,FastAcc,27,18,Man,Right,
4,5,1,0.7666002999994816,['n'],1,right,['9'],5,0.23531420000017533,0.1,0,FastAcc,27,18,Man,Right,
5,5,1,1.3479095000002417,['c'],1,left,['9'],5,0.31924049999997806,0.1,0,FastAcc,27,18,Man,Right,
6,5,1,0.6668310000004567,['n'],1,right,['9'],5,0.2178767000004882,0.2,0,FastAcc,27,18,Man,Right,
7,5,1,1.2500232000002143,['c'],0,right,['9'],5,0.25200800000038726,0.4,0,FastAcc,27,18,Man,Right,
8,5,1,1.0508309000006193,['c'],1,left,['9'],5,0.23470420000012382,0.4,0,FastAcc,27,18,Man,Right,
9,5,1,0.7839837999999872,['n'],0,left,['9'],5,0.20127250000041386,0.1,0,FastAcc,27,18,Man,Right,
10,5,1,1.0003055999995922,['c'],1,left,['9'],5,0.1847078999999212,0.4,0,FastAcc,27,18,Man,Right,
11,5,1,1.0492282000004707,['c'],0,right,['9'],5,0.23523440000008122,0.1,0,FastAcc,27,18,Man,Right,
12,5,1,1.2657258999997794,['n'],1,right,['9'],5,0.23562589999983174,0.2,0,FastAcc,27,18,Man,Right,
13,5,1,0.9496699999999691,['c'],0,right,['9'],5,0.21781900000041787,0.2,0,FastAcc,27,18,Man,Right,
14,5,1,0.7508122999997795,['n'],0,left,['3'],3,0.234956900000725,0.2,0,FastAcc,27,18,Man,Right,
15,5,1,1.3996921000007205,['c'],1,left,['2'],2,0.4844392000004518,0.1,0,FastAcc,27,18,Man,Right,
16,5,1,0.45025669999995444,['c'],1,left,['8'],4,0.2181548999997176,0.1,0,FastAcc,27,18,Man,Right,
17,5,1,1.9509783000003154,['c'],0,right,['8'],4,0.1674892999999429,0.2,0,FastAcc,27,18,Man,Right,
18,5,1,2.0162876999993387,['c'],0,right,['8'],4,0.6688105999992331,0.2,0,FastAcc,27,18,Man,Right,
19,5,1,1.1176094000002195,['c'],0,right,['8'],4,0.15176100000007864,0.2,0,FastAcc,27,18,Man,Right,
20,5,1,1.6005685000000085,['c'],1,left,['8'],4,0.2347964000000502,0.1,0,FastAcc,27,18,Man,Right,
21,5,1,1.133392200000344,['c'],1,left,['3'],3,0.33466889999999694,0.4,0,FastAcc,27,18,Man,Right,
22,5,1,0.46711120000054507,['c'],1,left,['9'],5,0.2346360999999888,0.4,0,FastAcc,27,18,Man,Right,
23,5,1,0.8503202000001693,['n'],1,right,['2'],2,0.25137459999950806,0.4,0,FastAcc,27,18,Man,Right,
24,5,1,1.0173128999995242,['c'],0,right,['9'],5,0.2675477000002502,0.1,0,FastAcc,27,18,Man,Right,
25,5,1,0.6339735000001383,['c'],1,left,['9'],5,0.25137549999999464,0.2,0,FastAcc,27,18,Man,Right,
26,5,1,1.1989767999994,['n'],1,right,['2'],2,0.8182943000001615,0.2,0,FastAcc,27,18,Man,Right,
27,5,1,0.33373329999994894,['c'],0,right,['9'],5,0.11644500000056723,0.4,0,FastAcc,27,18,Man,Right,
28,5,1,1.783684500000163,['c'],1,left,['9'],5,1.1336040000005596,0.4,0,FastAcc,27,18,Man,Right,
29,5,1,1.5521892999995544,['c'],0,right,['2'],2,0.3013165000002118,0.1,0,FastAcc,27,18,Man,Right,
30,5,1,2.1995090999998865,['c'],1,left,['8'],4,1.7495849999995698,0.4,0,FastAcc,27,18,Man,Right,
31,5,1,1.2166876999999658,['n'],0,left,['2'],2,0.31824649999998655,0.4,0,FastAcc,27,18,Man,Right,
32,5,1,2.184175100000175,['n'],1,right,['9'],5,0.8516385000002629,0.2,0,FastAcc,27,18,Man,Right,
33,5,1,1.7008304000000862,['n'],1,right,['9'],5,0.4346239999995305,0.4,0,FastAcc,27,18,Man,Right,
34,5,1,0.7170342000008532,['c'],1,left,['9'],5,0.3513860000002751,0.1,0,FastAcc,27,18,Man,Right,
35,5,1,2.5500676000001476,['n'],0,left,['3'],3,0.26899910000065574,0.1,0,FastAcc,27,18,Man,Right,
36,5,1,2.0836985999994795,['n'],1,right,['8'],4,0.36718180000025313,0.1,0,FastAcc,27,18,Man,Right,
37,5,1,0.9005090000000564,['c'],1,left,['8'],4,0.4013893999999709,0.2,0,FastAcc,27,18,Man,Right,
38,5,1,1.5819953000000169,['n'],0,left,['2'],2,0.8015072999996846,0.2,0,FastAcc,27,18,Man,Right,
39,5,1,1.4677309999997306,['c'],1,left,['9'],5,0.7351066000001083,0.4,0,FastAcc,27,18,Man,Right,
40,5,1,1.582175499999721,['n'],1,right,['3'],3,0.868484300000091,0.2,0,FastAcc,27,18,Man,Right,
41,5,1,2.5491879999999583,['n'],1,right,['2'],2,1.0852415999997902,0.4,0,FastAcc,27,18,Man,Right,
42,5,1,1.4328733000002103,['c'],1,left,['9'],5,0.23459030000049097,0.4,0,FastAcc,27,18,Man,Right,
43,5,1,0.9337211000001844,['c'],1,left,['8'],4,0.6014377999999851,0.2,0,FastAcc,27,18,Man,Right,
44,5,1,1.950187100000221,['n'],0,left,['3'],3,0.3166997000007541,0.4,0,FastAcc,27,18,Man,Right,
45,5,1,1.0671101999996608,['c'],0,right,['9'],5,0.4160961999996289,0.1,0,FastAcc,27,18,Man,Right,
46,5,1,2.101637600000686,['n'],1,right,['2'],2,0.3680351000002702,0.1,0,FastAcc,27,18,Man,Right,
47,5,1,2.3514178000004904,['n'],1,right,['2'],2,1.4014078000000154,0.4,0,FastAcc,27,18,Man,Right,
48,5,1,1.3659916999995403,['c'],1,left,['9'],5,0.35155239999949117,0.2,0,FastAcc,27,18,Man,Right,
49,5,1,1.1844691000005696,['c'],0,right,['9'],5,0.4016958000001978,0.1,0,FastAcc,27,18,Man,Right,
50,5,1,0.9671772000001511,['n'],1,right,['8'],4,0.5680180999997901,0.4,0,FastAcc,27,18,Man,Right,
51,5,1,1.4995867999996335,['n'],1,right,['9'],5,0.46648460000051273,0.1,0,FastAcc,27,18,Man,Right,
52,5,1,1.8003732999995918,['c'],1,left,['9'],5,0.25160520000008546,0.1,0,FastAcc,27,18,Man,Right,
53,5,1,1.0334782999998424,['n'],0,left,['8'],4,0.3180204000000231,0.1,0,FastAcc,27,18,Man,Right,
54,5,1,1.7164293000005273,['c'],1,left,['3'],3,0.36788609999985056,0.1,0,FastAcc,27,18,Man,Right,
55,5,1,2.217398300000241,['c'],1,left,['3'],3,0.6343027000002621,0.4,0,FastAcc,27,18,Man,Right,
56,5,1,2.0509781999999177,['n'],1,right,['9'],5,0.6679603000002317,0.4,0,FastAcc,27,18,Man,Right,
57,5,1,1.8997243000003436,['c'],0,right,['8'],4,0.7183579000002283,0.2,0,FastAcc,27,18,Man,Right,
58,5,1,2.249217900000076,['c'],1,left,['8'],4,0.6009604000000763,0.2,0,FastAcc,27,18,Man,Right,
59,5,1,1.3507472999999663,['c'],1,left,['9'],5,0.4346114999998463,0.2,0,FastAcc,27,18,Man,Right,
0,6,1,1.350241900000583,['c'],1,left,['8'],4,0.1344691000003877,0.4,0,FastFast,27,18,Man,Right,
1,6,1,0.8155446000000666,['c'],1,left,['8'],4,0.4679253999993307,0.2,0,FastFast,27,18,Man,Right,
2,6,1,1.3676475000002029,['c'],1,left,['9'],5,0.30131789999995817,0.4,0,FastFast,27,18,Man,Right,
3,6,1,1.099406899999849,['n'],1,right,['8'],4,0.2669912999999724,0.1,0,FastFast,27,18,Man,Right,
4,6,1,0.4506252000001041,['c'],1,left,['8'],4,0.5001359999996566,0.4,0,FastFast,27,18,Man,Right,
5,6,1,0.4998235000002751,['c'],1,left,['8'],4,0.26764989999992395,0.4,0,FastFast,27,18,Man,Right,
6,6,1,1.0507013999995252,['n'],1,right,['8'],4,0.3013879000000088,0.2,0,FastFast,27,18,Man,Right,
7,6,1,0.3171370999998544,['n'],0,left,['9'],5,0.13496240000040416,0.1,0,FastFast,27,18,Man,Right,
8,6,1,0.5497738000003665,['n'],1,right,['8'],4,0.06796369999938179,0.2,0,FastFast,27,18,Man,Right,
9,6,1,0.4169110000002547,['n'],0,left,['9'],5,0.0683550000003379,0.2,0,FastFast,27,18,Man,Right,
10,6,1,0.8992645999996967,['n'],1,right,['9'],5,0.03488809999998921,0.4,0,FastFast,27,18,Man,Right,
11,6,1,1.1340398000002097,['n'],1,right,['9'],5,0.051360599999497936,0.1,0,FastFast,27,18,Man,Right,
12,6,1,0.6508711999995285,['c'],0,right,['8'],4,0.11784239999997226,0.2,0,FastFast,27,18,Man,Right,
13,6,1,0.600492900000063,['n'],1,right,['8'],4,0.16714409999985946,0.4,0,FastFast,27,18,Man,Right,
14,6,1,0.6342972000002192,['c'],0,right,['8'],4,0.11779569999998785,0.1,0,FastFast,27,18,Man,Right,
15,6,1,0.5169982999996137,['c'],1,left,['8'],4,0.08469859999968321,0.4,0,FastFast,27,18,Man,Right,
16,6,1,0.583904000000075,['c'],1,left,['8'],4,0.05154560000028141,0.4,0,FastFast,27,18,Man,Right,
17,6,1,0.449314499999673,['n'],1,right,['8'],4,0.034672300000238465,0.4,0,FastFast,27,18,Man,Right,
18,6,1,0.5169183999996676,['n'],1,right,['8'],4,0.11815449999994598,0.2,0,FastFast,27,18,Man,Right,
19,6,1,0.40005269999983284,['c'],1,left,['8'],4,0.10075879999931203,0.4,0,FastFast,27,18,Man,Right,
20,6,1,0.3839546999997765,['n'],0,left,['8'],4,0.08489999999983411,0.1,0,FastFast,27,18,Man,Right,
21,6,1,0.5502944999998363,['n'],1,right,['8'],4,0.08357129999967583,0.4,0,FastFast,27,18,Man,Right,
22,6,1,0.5337912999993932,['n'],1,right,['8'],4,0.01782999999977619,0.2,0,FastFast,27,18,Man,Right,
23,6,1,0.8843582999998034,['c'],1,left,['8'],4,0.10075090000009368,0.2,0,FastFast,27,18,Man,Right,
24,6,1,0.5339820999997755,['n'],1,right,['8'],4,0.10187280000081955,0.4,0,FastFast,27,18,Man,Right,
25,6,1,1.0502869000001738,['n'],1,right,['8'],4,0.0679617000005237,0.1,0,FastFast,27,18,Man,Right,
26,6,1,0.8675028999996357,['c'],0,right,['8'],4,0.13478219999979046,0.2,0,FastFast,27,18,Man,Right,
27,6,1,0.5337130999996589,['n'],1,right,['8'],4,0.06815910000022996,0.1,0,FastFast,27,18,Man,Right,
28,6,1,0.33390139999937674,['c'],1,left,['8'],4,0.1513993999997183,0.2,0,FastFast,27,18,Man,Right,
29,6,1,0.6985360999997283,['n'],1,right,['8'],4,0.10104849999970611,0.4,0,FastFast,27,18,Man,Right,
30,6,1,0.334492500000124,['c'],1,left,['8'],4,0.06862249999994674,0.1,0,FastFast,27,18,Man,Right,
31,6,1,0.5999651000001904,['c'],1,left,['8'],4,0.06819929999983287,0.2,0,FastFast,27,18,Man,Right,
32,6,1,0.5005833000004714,['c'],1,left,['8'],4,0.0514578000002075,0.1,0,FastFast,27,18,Man,Right,
33,6,1,0.4169187999996211,['n'],1,right,['8'],4,0.03486770000017714,0.2,0,FastFast,27,18,Man,Right,
34,6,1,0.5504622000007657,['n'],1,right,['8'],4,0.06800050000038027,0.4,0,FastFast,27,18,Man,Right,
35,6,1,0.8155888999999661,['c'],0,right,['8'],4,0.08581740000045102,0.1,0,FastFast,27,18,Man,Right,
36,6,1,1.2177725999999893,['n'],0,left,['8'],4,0.08391909999954805,0.1,0,FastFast,27,18,Man,Right,
37,6,1,0.9337971999993897,['c'],0,right,['8'],4,0.06809720000001107,0.4,0,FastFast,27,18,Man,Right,
38,6,1,0.6507092000001649,['c'],1,left,['8'],4,0.05139300000064395,0.4,0,FastFast,27,18,Man,Right,
39,6,1,0.6835221000001184,['n'],1,right,['8'],4,0.0684320000000298,0.2,0,FastFast,27,18,Man,Right,
40,6,1,0.550568800000292,['c'],1,left,['8'],4,0.08471860000008746,0.2,0,FastFast,27,18,Man,Right,
41,6,1,0.6003752000005989,['n'],1,right,['8'],4,0.06758019999961107,0.1,0,FastFast,27,18,Man,Right,
42,6,1,0.6162108999997145,['n'],1,right,['8'],4,0.052202800000486604,0.2,0,FastFast,27,18,Man,Right,
43,6,1,0.4656482000000324,['c'],1,left,['8'],4,0.0855823000001692,0.4,0,FastFast,27,18,Man,Right,
44,6,1,1.300312300000769,['c'],0,right,['8'],4,0.08480919999965408,0.2,0,FastFast,27,18,Man,Right,
45,6,1,0.9511996000001091,['n'],1,right,['9'],5,0.08498449999933655,0.2,0,FastFast,27,18,Man,Right,
46,6,1,0.9499061000005895,['c'],1,left,['8'],4,0.10192129999995814,0.2,0,FastFast,27,18,Man,Right,
47,6,1,1.067201699999714,['c'],1,left,['8'],4,0.10021919999962847,0.2,0,FastFast,27,18,Man,Right,
48,6,1,0.6345749000001888,['c'],1,left,['9'],5,0.5682208999996874,0.1,0,FastFast,27,18,Man,Right,
49,6,1,0.6838583999997354,['c'],1,left,['8'],4,0.16813159999946947,0.1,0,FastFast,27,18,Man,Right,
50,6,1,0.750111399999696,"['n', 'c']",0,left,['8'],4,0.035225200000240875,0.1,0,FastFast,27,18,Man,Right,
51,6,1,0.5178728000000774,['c'],0,right,['8'],4,0.05138650000026246,0.4,0,FastFast,27,18,Man,Right,
52,6,1,0.6831685999995898,['n'],0,left,['8'],4,0.05085589999998774,0.1,0,FastFast,27,18,Man,Right,
53,6,1,0.5670632999999725,['n'],0,left,['8'],4,0.10008269999980257,0.1,0,FastFast,27,18,Man,Right,
54,6,1,0.7669708000003084,['c'],1,left,['8'],4,4.151106699999218,0.1,0,FastFast,27,18,Man,Right,
55,6,1,0.732220399999278,['c'],1,left,['8'],4,0.10224560000006022,0.2,0,FastFast,27,18,Man,Right,
56,6,1,0.6997657000001709,['n'],1,right,['8'],4,0.03459680000014487,0.4,0,FastFast,27,18,Man,Right,
57,6,1,0.66707150000002,['c'],0,right,['8'],4,3.6837304999999105,0.1,0,FastFast,27,18,Man,Right,
58,6,1,0.7008670000004713,['c'],1,left,['8'],4,0.034613299999364244,0.1,0,FastFast,27,18,Man,Right,
59,6,1,0.7844382000002952,['n'],1,right,['8'],4,0.018065900000692636,0.4,0,FastFast,27,18,Man,Right,
0,7,1,4.58412429999953,['n'],1,right,['8'],4,1.2013594999998531,0.2,0,AccFast,27,18,Man,Right,
1,7,1,1.2008711999997104,['c'],1,left,['8'],4,0.7348841999992146,0.1,0,AccFast,27,18,Man,Right,
2,7,1,1.3337255000005825,['n'],1,right,['8'],4,0.31809680000060325,0.2,0,AccFast,27,18,Man,Right,
3,7,1,1.7008740000001126,['c'],1,left,['8'],4,0.2344997999998668,0.1,0,AccFast,27,18,Man,Right,
4,7,1,3.0674724000000424,['n'],0,left,['8'],4,0.21819909999976517,0.2,0,AccFast,27,18,Man,Right,
5,7,1,1.6836691999997129,['c'],1,left,['8'],4,0.3168834000007337,0.2,0,AccFast,27,18,Man,Right,
6,7,1,3.934042799999588,['c'],1,left,['8'],4,0.1186281999998755,0.2,0,AccFast,27,18,Man,Right,
7,7,1,0.5672270000004573,['c'],1,left,['8'],4,0.2830954000000929,0.1,0,AccFast,27,18,Man,Right,
8,7,1,0.5343487000000096,['n'],0,left,['8'],4,0.1334699000008186,0.4,0,AccFast,27,18,Man,Right,
9,7,1,3.69987890000084,['c'],0,right,['8'],4,0.16822119999960705,0.1,0,AccFast,27,18,Man,Right,
10,7,1,2.149136400000316,['c'],0,right,['8'],4,0.11874100000022736,0.2,0,AccFast,27,18,Man,Right,
11,7,1,1.0818181000004188,['c'],1,left,['8'],4,0.034445899999809626,0.4,0,AccFast,27,18,Man,Right,
12,7,1,1.9839311000005182,['c'],1,left,['8'],4,0.23325829999976122,0.2,0,AccFast,27,18,Man,Right,
13,7,1,0.6501429999998436,['c'],0,right,['8'],4,0.11801079999986541,0.1,0,AccFast,27,18,Man,Right,
14,7,1,2.550065700000232,['n'],1,right,['8'],4,0.3686655999999857,0.2,0,AccFast,27,18,Man,Right,
15,7,1,2.7501713000001473,['n'],1,right,['8'],4,0.15121910000016214,0.1,0,AccFast,27,18,Man,Right,
16,7,1,2.2495883999999933,['n'],1,right,['8'],4,0.11698669999987032,0.4,0,AccFast,27,18,Man,Right,
17,7,1,2.8169785000000047,['n'],1,right,['8'],4,0.08473749999939173,0.2,0,AccFast,27,18,Man,Right,
18,7,1,2.1013308999999936,['c'],1,left,['3'],3,2.8342958999992334,0.4,0,AccFast,27,18,Man,Right,
19,7,1,3.6164860999997472,['c'],0,right,['8'],4,0.351280200000474,0.2,0,AccFast,27,18,Man,Right,
20,7,1,2.633925399999498,['n'],0,left,['8'],4,0.16809400000056485,0.1,0,AccFast,27,18,Man,Right,
21,7,1,1.9494737000004534,['n'],1,right,['8'],4,1.051237000000583,0.4,0,AccFast,27,18,Man,Right,
22,7,1,0.8502982999998494,['c'],1,left,['9'],5,0.15137609999965207,0.4,0,AccFast,27,18,Man,Right,
23,7,1,0.8669773999999961,['c'],0,right,['9'],5,0.10171449999961624,0.4,0,AccFast,27,18,Man,Right,
24,7,1,0.6501935999995112,['n'],0,left,['8'],4,0.06782550000025367,0.1,0,AccFast,27,18,Man,Right,
25,7,1,2.0845218000004024,['c'],0,right,['8'],4,0.11819430000014108,0.1,0,AccFast,27,18,Man,Right,
26,7,1,2.3998781000000236,['n'],1,right,['8'],4,0.5014087999998083,0.2,0,AccFast,27,18,Man,Right,
27,7,1,0.6834732000006625,['c'],1,left,['8'],4,0.15178990000003978,0.2,0,AccFast,27,18,Man,Right,
28,7,1,0.5340392000007341,['n'],1,right,['8'],4,0.13523260000056325,0.4,0,AccFast,27,18,Man,Right,
29,7,1,1.4668967999996312,['n'],1,right,['8'],4,0.08503029999974387,0.2,0,AccFast,27,18,Man,Right,
30,7,1,0.46661630000016885,['c'],0,right,['8'],4,0.051494000000275264,0.1,0,AccFast,27,18,Man,Right,
31,7,1,1.734025599999768,['c'],0,right,['8'],4,0.10169289999976172,0.4,0,AccFast,27,18,Man,Right,
32,7,1,0.7338392999999996,['n'],1,right,['8'],4,0.10136710000006133,0.1,0,AccFast,27,18,Man,Right,
33,7,1,1.0171637000003102,['n'],1,right,['8'],4,0.05167580000033922,0.2,0,AccFast,27,18,Man,Right,
34,7,1,0.5838244000005943,['c'],1,left,['8'],4,0.10036760000002687,0.4,0,AccFast,27,18,Man,Right,
35,7,1,0.6844242999995913,['c'],1,left,['8'],4,0.10147490000053949,0.1,0,AccFast,27,18,Man,Right,
36,7,1,0.7986314999998285,['c'],1,left,['8'],4,0.1355282000004081,0.1,0,AccFast,27,18,Man,Right,
37,7,1,1.3652137999997649,['n'],0,left,['8'],4,0.08578290000059496,0.1,0,AccFast,27,18,Man,Right,
38,7,1,2.4990572999995493,['n'],1,right,['8'],4,0.0689487999998164,0.2,0,AccFast,27,18,Man,Right,
39,7,1,2.2668013000002247,['n'],0,left,['8'],4,0.08472399999936897,0.2,0,AccFast,27,18,Man,Right,
40,7,1,0.9839263000003484,['c'],1,left,['8'],4,0.08409710000069026,0.2,0,AccFast,27,18,Man,Right,
41,7,1,3.4334468999995806,['n'],0,left,['8'],4,0.06815839999944728,0.4,0,AccFast,27,18,Man,Right,
42,7,1,1.7008711999997104,['c'],1,left,['8'],4,0.11733230000027106,0.4,0,AccFast,27,18,Man,Right,
43,7,1,2.748773899999833,['n'],1,right,['8'],4,0.06901769999967655,0.1,0,AccFast,27,18,Man,Right,
44,7,1,2.965627999999924,['n'],0,left,['8'],4,0.1679125999999087,0.2,0,AccFast,27,18,Man,Right,
45,7,1,4.384436700000151,['c'],1,left,['8'],4,0.6180131000000983,0.2,0,AccFast,27,18,Man,Right,
46,7,1,0.4341058999998495,['n'],1,right,['8'],4,0.23490990000027523,0.1,0,AccFast,27,18,Man,Right,
47,7,1,1.249491699999453,['n'],1,right,['8'],4,0.5672318999995696,0.4,0,AccFast,27,18,Man,Right,
48,7,1,2.935142899999846,['n'],1,right,['8'],4,0.9507685999997193,0.4,0,AccFast,27,18,Man,Right,
49,7,1,1.2169509000004837,['n'],1,right,['8'],4,0.4346468999992794,0.4,0,AccFast,27,18,Man,Right,
50,7,1,0.6663266000005024,['c'],1,left,['8'],4,0.3182667000000947,0.4,0,AccFast,27,18,Man,Right,
51,7,1,3.032122000000527,['c'],1,left,['8'],4,0.0178077000000485,0.1,0,AccFast,27,18,Man,Right,
52,7,1,1.1501162000004115,['n'],1,right,['8'],4,0.051612199999908626,0.1,0,AccFast,27,18,Man,Right,
53,7,1,0.7346212000002197,['c'],1,left,['8'],4,0.718223300000318,0.2,0,AccFast,27,18,Man,Right,
54,7,1,3.3662727000000814,['n'],1,right,['8'],4,0.5517922999997609,0.1,0,AccFast,27,18,Man,Right,
55,7,1,1.5498078000000532,['c'],1,left,['8'],4,0.10216110000055778,0.4,0,AccFast,27,18,Man,Right,
56,7,1,2.6832217999999557,['c'],1,left,['8'],4,0.4506269000003158,0.4,0,AccFast,27,18,Man,Right,
57,7,1,2.9338426999993317,['n'],1,right,['8'],4,0.03473749999920983,0.4,0,AccFast,27,18,Man,Right,
58,7,1,3.133764300000621,['n'],1,right,['8'],4,0.13495770000008633,0.4,0,AccFast,27,18,Man,Right,
59,7,1,3.232674400000178,['c'],1,left,['8'],4,0.11844770000061544,0.1,0,AccFast,27,18,Man,Right,
0,8,1,3.9164958000001207,['c'],0,right,['3'],3,2.1673836999998457,0.2,0,AccAcc,27,18,Man,Right,
1,8,1,2.851161200000206,['c'],1,left,['3'],3,0.567772800000057,0.1,0,AccAcc,27,18,Man,Right,
2,8,1,3.433629799999835,['n'],0,left,['8'],4,0.9179993000007016,0.4,0,AccAcc,27,18,Man,Right,
3,8,1,2.8333323999995628,['n'],1,right,['8'],4,0.9345380000004297,0.4,0,AccAcc,27,18,Man,Right,
4,8,1,1.5323053000001892,['n'],1,right,['9'],5,0.2681370000000243,0.4,0,AccAcc,27,18,Man,Right,
5,8,1,2.0837207000004128,['n'],1,right,['9'],5,0.6512003999996523,0.1,0,AccAcc,27,18,Man,Right,
6,8,1,1.0011093000002802,['c'],1,left,['3'],3,0.9513034000001426,0.4,0,AccAcc,27,18,Man,Right,
7,8,1,2.667155800000728,['n'],0,left,['8'],4,0.6502044999997452,0.1,0,AccAcc,27,18,Man,Right,
8,8,1,3.0673507999999856,['n'],1,right,['8'],4,0.851698800000122,0.1,0,AccAcc,27,18,Man,Right,
9,8,1,2.3830244000000675,['c'],1,left,['8'],4,0.883164100000613,0.1,0,AccAcc,27,18,Man,Right,
10,8,1,5.000260299999354,x,-99,left,none,-99,-99,0.1,1,AccAcc,27,18,Man,Right,
11,8,1,0.9347717999999077,['c'],1,left,['8'],4,0.9845310000000609,0.4,0,AccAcc,27,18,Man,Right,
12,8,1,2.1330896999998004,['c'],1,left,['8'],4,0.8514442999994571,0.4,0,AccAcc,27,18,Man,Right,
13,8,1,0.9164997999996558,['n'],0,left,['8'],4,0.501185500000247,0.1,0,AccAcc,27,18,Man,Right,
14,8,1,2.3149617999997645,['n'],0,left,['8'],4,0.6507983000001332,0.1,0,AccAcc,27,18,Man,Right,
15,8,1,3.3351749999992535,['n'],1,right,['8'],4,0.31829020000077435,0.2,0,AccAcc,27,18,Man,Right,
16,8,1,1.2838755000002493,['c'],0,right,['8'],4,0.2514348999993672,0.1,0,AccAcc,27,18,Man,Right,
17,8,1,1.7002652999999555,['c'],0,right,['8'],4,0.16817659999924217,0.1,0,AccAcc,27,18,Man,Right,
18,8,1,1.1840103000004092,['n'],0,left,['9'],5,0.5516087000005427,0.4,0,AccAcc,27,18,Man,Right,
19,8,1,2.250340999999935,['c'],0,right,['8'],4,0.23408150000068417,0.2,0,AccAcc,27,18,Man,Right,
20,8,1,1.7982761000002938,['n'],0,left,['9'],5,0.5009196000000884,0.2,0,AccAcc,27,18,Man,Right,
21,8,1,3.04945940000016,['n'],1,right,['8'],4,0.6345571000001655,0.2,0,AccAcc,27,18,Man,Right,
22,8,1,2.6494589000003543,['c'],1,left,['8'],4,0.11728839999977936,0.1,0,AccAcc,27,18,Man,Right,
23,8,1,1.7500728999993953,['n'],0,left,['9'],5,0.33377999999993335,0.2,0,AccAcc,27,18,Man,Right,
24,8,1,2.883219100000133,['n'],0,left,['8'],4,0.5184112999995705,0.2,0,AccAcc,27,18,Man,Right,
25,8,1,2.0494823999997607,['n'],1,right,['8'],4,0.8846060999994734,0.1,0,AccAcc,27,18,Man,Right,
26,8,1,2.6999424000005092,['n'],0,left,['9'],5,0.5354354000000967,0.2,0,AccAcc,27,18,Man,Right,
27,8,1,2.4666201,['n'],0,left,['9'],5,0.48448780000035185,0.2,0,AccAcc,27,18,Man,Right,
28,8,1,1.5816906000000017,['n'],0,left,['8'],4,0.6841698999996879,0.4,0,AccAcc,27,18,Man,Right,
29,8,1,2.4010818999995536,['c'],0,right,['9'],5,0.11842520000027434,0.1,0,AccAcc,27,18,Man,Right,
30,8,1,1.5316638999993302,['n'],0,left,['9'],5,0.48488649999944755,0.2,0,AccAcc,27,18,Man,Right,
31,8,1,1.4821580999996513,['n'],1,right,['8'],4,0.6862727999996423,0.2,0,AccAcc,27,18,Man,Right,
32,8,1,2.6170062000001053,['n'],0,left,['8'],4,1.584501100000125,0.2,0,AccAcc,27,18,Man,Right,
33,8,1,1.4005631999998513,['n'],1,right,['8'],4,0.5516735999999582,0.1,0,AccAcc,27,18,Man,Right,
34,8,1,2.3168010999997932,['n'],0,left,['8'],4,0.41798839999955817,0.2,0,AccAcc,27,18,Man,Right,
35,8,1,1.1338652999993428,['n'],1,right,['8'],4,0.451412800000071,0.1,0,AccAcc,27,18,Man,Right,
36,8,1,1.4816470999994635,['n'],0,left,['8'],4,0.41930430000047636,0.4,0,AccAcc,27,18,Man,Right,
37,8,1,2.1001987999998164,['c'],0,right,['8'],4,0.2515708999999333,0.1,0,AccAcc,27,18,Man,Right,
38,8,1,0.8171536999998352,['n'],0,left,['8'],4,0.45014439999977185,0.2,0,AccAcc,27,18,Man,Right,
39,8,1,2.700898699999925,['n'],0,left,['8'],4,2.301031399999374,0.2,0,AccAcc,27,18,Man,Right,
40,8,1,0.7337143000004289,['n'],1,right,['8'],4,0.3168208000006416,0.2,0,AccAcc,27,18,Man,Right,
41,8,1,2.3999688000003516,['n'],1,right,['8'],4,1.2178731999993033,0.2,0,AccAcc,27,18,Man,Right,
42,8,1,1.5839076000002024,['c'],0,right,['8'],4,0.3513095999996949,0.1,0,AccAcc,27,18,Man,Right,
43,8,1,2.1008700000002136,['c'],0,right,['8'],4,0.3346608000001652,0.4,0,AccAcc,27,18,Man,Right,
44,8,1,2.3838309999991907,['c'],1,left,['8'],4,1.4846078999999008,0.4,0,AccAcc,27,18,Man,Right,
45,8,1,0.5504258999999365,['c'],0,right,['8'],4,0.38505020000047807,0.4,0,AccAcc,27,18,Man,Right,
46,8,1,1.048516899999413,['c'],1,left,['8'],4,0.20021209999958955,0.1,0,AccAcc,27,18,Man,Right,
47,8,1,2.8660290999996505,['n'],1,right,['8'],4,0.5181887999997343,0.4,0,AccAcc,27,18,Man,Right,
48,8,1,3.2995414999995774,['n'],1,right,['8'],4,0.3171431000000666,0.2,0,AccAcc,27,18,Man,Right,
49,8,1,1.4513031999995292,['c'],0,right,['8'],4,0.23581990000002406,0.1,0,AccAcc,27,18,Man,Right,
50,8,1,0.7841078000001289,['n'],1,right,['8'],4,0.7844701000003624,0.2,0,AccAcc,27,18,Man,Right,
51,8,1,1.834490299999743,['n'],1,right,['8'],4,0.350740500000029,0.1,0,AccAcc,27,18,Man,Right,
52,8,1,1.9503984000002674,['c'],1,left,['8'],4,0.1344747000002826,0.4,0,AccAcc,27,18,Man,Right,
53,8,1,1.8336047000002509,['c'],1,left,['8'],4,0.35069909999947413,0.4,0,AccAcc,27,18,Man,Right,
54,8,1,0.9817797999994582,['n'],0,left,['8'],4,0.6861510000007911,0.4,0,AccAcc,27,18,Man,Right,
55,8,1,0.6831706000002669,['c'],0,right,['8'],4,0.08509200000025885,0.4,0,AccAcc,27,18,Man,Right,
56,8,1,2.4668578999999227,['n'],1,right,['8'],4,0.30145290000018576,0.4,0,AccAcc,27,18,Man,Right,
57,8,1,2.648814200000743,['n'],0,left,['8'],4,0.3855263000004925,0.4,0,AccAcc,27,18,Man,Right,
58,8,1,2.3664417999998477,['c'],0,right,['8'],4,0.13458239999999932,0.4,0,AccAcc,27,18,Man,Right,
59,8,1,1.8508252000001448,['c'],0,right,['8'],4,0.70132410000042,0.2,0,AccAcc,27,18,Man,Right,
0,9,1,0.7176144999993994,['n'],1,right,['8'],4,0.7012563999996928,0.1,0,FastAcc,27,18,Man,Right,
1,9,1,1.8514824999992925,['c'],1,left,['8'],4,1.684599999999591,0.4,0,FastAcc,27,18,Man,Right,
2,9,1,1.31512180000027,['c'],1,left,['8'],4,0.8340196999997715,0.2,0,FastAcc,27,18,Man,Right,
3,9,1,1.316613199999665,['n'],1,right,['8'],4,0.6169684999995297,0.2,0,FastAcc,27,18,Man,Right,
4,9,1,1.8665854999999283,['n'],1,right,['8'],4,1.1181155000003855,0.4,0,FastAcc,27,18,Man,Right,
5,9,1,0.9988299000006009,['n'],1,right,['8'],4,0.91895680000016,0.4,0,FastAcc,27,18,Man,Right,
6,9,1,0.5828543999996327,['c'],1,left,['8'],4,0.5854624000003241,0.4,0,FastAcc,27,18,Man,Right,
7,9,1,0.6669830000000729,['n'],1,right,['8'],4,0.46804080000038084,0.2,0,FastAcc,27,18,Man,Right,
8,9,1,0.6497206000003644,['n'],1,right,['8'],4,0.5512484000000768,0.4,0,FastAcc,27,18,Man,Right,
9,9,1,1.734085299999606,['n'],1,right,['8'],4,0.7015539000003628,0.4,0,FastAcc,27,18,Man,Right,
10,9,1,2.332431699999688,['n'],1,right,['8'],4,0.6685913000001165,0.4,0,FastAcc,27,18,Man,Right,
11,9,1,0.8662733999999546,['c'],0,right,['9'],5,0.7347660000004907,0.1,0,FastAcc,27,18,Man,Right,
12,9,1,0.7170475000002625,['c'],1,left,['8'],4,0.5513955999995233,0.4,0,FastAcc,27,18,Man,Right,
13,9,1,1.566914299999553,['n'],1,right,['8'],4,0.684602399999676,0.2,0,FastAcc,27,18,Man,Right,
14,9,1,2.465876600000229,['n'],0,left,['8'],4,0.6509916999993948,0.1,0,FastAcc,27,18,Man,Right,
15,9,1,1.7503704999999172,['c'],1,left,['8'],4,0.6180779000005714,0.1,0,FastAcc,27,18,Man,Right,
16,9,1,2.28350170000067,['n'],1,right,['8'],4,0.918122900000526,0.2,0,FastAcc,27,18,Man,Right,
17,9,1,3.149891399999433,['n'],1,right,['8'],4,0.5844940999995742,0.2,0,FastAcc,27,18,Man,Right,
18,9,1,2.9484882999995534,['n'],1,right,['8'],4,0.7848706000004313,0.2,0,FastAcc,27,18,Man,Right,
19,9,1,1.7483930999997028,['c'],1,left,['8'],4,0.4842846000001373,0.1,0,FastAcc,27,18,Man,Right,
20,9,1,1.3833266999999978,['c'],1,left,['8'],4,0.11825919999955659,0.4,0,FastAcc,27,18,Man,Right,
21,9,1,2.233855499999663,['c'],0,right,['8'],4,0.13493630000084522,0.1,0,FastAcc,27,18,Man,Right,
22,9,1,0.6842517000004591,['c'],1,left,['8'],4,2.200917300000583,0.4,0,FastAcc,27,18,Man,Right,
23,9,1,1.749109600000338,['n'],0,left,['8'],4,0.6665961999997307,0.4,0,FastAcc,27,18,Man,Right,
24,9,1,1.033667499999865,['n'],1,right,['8'],4,0.35050409999985277,0.4,0,FastAcc,27,18,Man,Right,
25,9,1,3.450852699999814,['c'],1,left,['8'],4,0.20106049999958486,0.1,0,FastAcc,27,18,Man,Right,
26,9,1,2.6496843000004446,['n'],1,right,['8'],4,1.0343015999997078,0.1,0,FastAcc,27,18,Man,Right,
27,9,1,1.2658633999999438,['c'],1,left,['8'],4,0.6850709000000279,0.1,0,FastAcc,27,18,Man,Right,
28,9,1,1.7669882999998663,['n'],0,left,['8'],4,0.6512776999998096,0.1,0,FastAcc,27,18,Man,Right,
29,9,1,0.9170349999994869,['c'],0,right,['8'],4,0.9181125999994038,0.1,0,FastAcc,27,18,Man,Right,
30,9,1,1.2162805999996635,['n'],0,left,['8'],4,0.4848142999999254,0.4,0,FastAcc,27,18,Man,Right,
31,9,1,1.4654202000001533,['c'],1,left,['8'],4,0.386350400000083,0.2,0,FastAcc,27,18,Man,Right,
32,9,1,2.7833562999994683,['n'],1,right,['8'],4,0.8176776999998765,0.1,0,FastAcc,27,18,Man,Right,
33,9,1,0.7675912000004246,['n'],1,right,['8'],4,0.5014537000006385,0.2,0,FastAcc,27,18,Man,Right,
34,9,1,0.6319314000002123,['n'],1,right,['8'],4,0.5177503000004435,0.2,0,FastAcc,27,18,Man,Right,
35,9,1,1.050814100000025,['c'],1,left,['8'],4,0.4168230000004769,0.1,0,FastAcc,27,18,Man,Right,
36,9,1,3.6323515999993106,['c'],1,left,['8'],4,0.9357047000003149,0.2,0,FastAcc,27,18,Man,Right,
37,9,1,2.2010889000002862,['n'],0,left,['8'],4,0.8512418999998772,0.4,0,FastAcc,27,18,Man,Right,
38,9,1,2.2832844000004116,['n'],0,left,['8'],4,0.5846409999994648,0.2,0,FastAcc,27,18,Man,Right,
39,9,1,2.8835422000001927,['n'],0,left,['8'],4,0.684809000000314,0.1,0,FastAcc,27,18,Man,Right,
40,9,1,1.700292300000001,['n'],0,left,['9'],5,0.7007471000006262,0.1,0,FastAcc,27,18,Man,Right,
41,9,1,2.7169940000003407,['c'],0,right,['8'],4,0.5341212000002997,0.1,0,FastAcc,27,18,Man,Right,
42,9,1,2.3822958999999173,['n'],1,right,['8'],4,0.8189382000000478,0.4,0,FastAcc,27,18,Man,Right,
43,9,1,3.014766599999348,['n'],1,right,['8'],4,0.25133939999977883,0.1,0,FastAcc,27,18,Man,Right,
44,9,1,2.1504948000001605,['n'],0,left,['8'],4,0.2510398000003988,0.2,0,FastAcc,27,18,Man,Right,
45,9,1,2.101220900000044,['c'],0,right,['8'],4,0.1176420000001599,0.1,0,FastAcc,27,18,Man,Right,
46,9,1,2.284432499999639,['n'],1,right,['8'],4,0.28496930000073917,0.2,0,FastAcc,27,18,Man,Right,
47,9,1,2.2836294999997335,['n'],1,right,['8'],4,0.23402580000038142,0.2,0,FastAcc,27,18,Man,Right,
48,9,1,2.7175077000010788,['c'],1,left,['8'],4,0.23358200000075158,0.1,0,FastAcc,27,18,Man,Right,
49,9,1,1.7334895000003598,['c'],1,left,['8'],4,0.0833892000009655,0.4,0,FastAcc,27,18,Man,Right,
50,9,1,0.6658923000013601,['c'],1,left,['8'],4,0.06749850000051083,0.4,0,FastAcc,27,18,Man,Right,
51,9,1,1.2334754000003159,['n'],1,right,['8'],4,0.4190467999997054,0.2,0,FastAcc,27,18,Man,Right,
52,9,1,1.017012900001646,['n'],1,right,['8'],4,1.1342278000010992,0.4,0,FastAcc,27,18,Man,Right,
53,9,1,2.3995470000008936,['n'],1,right,['8'],4,0.4848452999995061,0.2,0,FastAcc,27,18,Man,Right,
54,9,1,1.9822213999996166,['c'],1,left,['8'],4,2.6184573999998975,0.2,0,FastAcc,27,18,Man,Right,
55,9,1,1.1005138000000443,['n'],1,right,['8'],4,0.2345140999987052,0.2,0,FastAcc,27,18,Man,Right,
56,9,1,1.7501737000002322,['n'],0,left,['8'],4,0.16842840000026627,0.1,0,FastAcc,27,18,Man,Right,
57,9,1,1.6152574000007007,['c'],1,left,['8'],4,0.035427499999059364,0.4,0,FastAcc,27,18,Man,Right,
58,9,1,0.750524499999301,['c'],1,left,['8'],4,0.06716339999911725,0.4,0,FastAcc,27,18,Man,Right,
59,9,1,0.6656466000004002,['c'],1,left,['8'],4,0.7675874000015028,0.2,0,FastAcc,27,18,Man,Right,
0,10,1,0.7845018999996682,['c'],0,right,['8'],4,0.10025360000145156,0.2,0,FastFast,27,18,Man,Right,
1,10,1,0.4341853000005358,['n'],1,right,['8'],4,0.2018490999998903,0.4,0,FastFast,27,18,Man,Right,
2,10,1,0.5153116000001319,['c'],1,left,['8'],4,0.0512378000003082,0.4,0,FastFast,27,18,Man,Right,
3,10,1,0.36719190000076196,['n'],1,right,['8'],4,0.03425440000137314,0.4,0,FastFast,27,18,Man,Right,
4,10,1,0.3689089999988937,['c'],1,left,['8'],4,0.017818099999203696,0.1,0,FastFast,27,18,Man,Right,
5,10,1,0.4835932000005414,['c'],1,left,['8'],4,0.03483099999903061,0.2,0,FastFast,27,18,Man,Right,
6,10,1,0.6493619000011677,['c'],1,left,['8'],4,0.01834419999977399,0.2,0,FastFast,27,18,Man,Right,
7,10,1,0.88500810000005,['n'],1,right,['8'],4,0.9178601000003255,0.1,0,FastFast,27,18,Man,Right,
8,10,1,0.5500998000006803,['n'],1,right,['8'],4,0.418921100001171,0.4,0,FastFast,27,18,Man,Right,
9,10,1,0.4669216999991477,['c'],1,left,['8'],4,0.05109759999868402,0.4,0,FastFast,27,18,Man,Right,
10,10,1,0.48277539999980945,['n'],0,left,['8'],4,0.03541840000070806,0.2,0,FastFast,27,18,Man,Right,
11,10,1,0.6003935000007914,['n'],1,right,['8'],4,0.01791830000001937,0.4,0,FastFast,27,18,Man,Right,
12,10,1,0.485009899999568,['c'],1,left,['8'],4,0.9161567999999534,0.4,0,FastFast,27,18,Man,Right,
13,10,1,1.0185722000005626,['n'],0,left,['8'],4,0.01814389999890409,0.2,0,FastFast,27,18,Man,Right,
14,10,1,0.45026750000033644,['c'],1,left,['8'],4,0.017278399998758687,0.1,0,FastFast,27,18,Man,Right,
15,10,1,0.49971130000085395,['n'],1,right,['8'],4,1.250741800000469,0.1,0,FastFast,27,18,Man,Right,
16,10,1,0.7848269999994955,['n'],0,left,['8'],4,0.018192999999882886,0.1,0,FastFast,27,18,Man,Right,
17,10,1,0.3507009000004473,['c'],1,left,['8'],4,0.8827989000001253,0.2,0,FastFast,27,18,Man,Right,
18,10,1,0.6838465000000724,['n'],1,right,['8'],4,0.4675948999993125,0.1,0,FastFast,27,18,Man,Right,
19,10,1,0.4178367000004073,['c'],1,left,['8'],4,0.5334904999999708,0.2,0,FastFast,27,18,Man,Right,
20,10,1,0.6020781999995961,['c'],1,left,['8'],4,0.35130840000056196,0.4,0,FastFast,27,18,Man,Right,
21,10,1,0.4011950000003708,['n'],1,right,['9'],5,0.03460059999997611,0.4,0,FastFast,27,18,Man,Right,
22,10,1,0.5487914000004821,['c'],1,left,['9'],5,0.017450600000302074,0.2,0,FastFast,27,18,Man,Right,
23,10,1,0.6179408000007243,['n'],1,right,['9'],5,0.5348977000012383,0.2,0,FastFast,27,18,Man,Right,
24,10,1,0.7832360000011249,['n'],0,left,['9'],5,0.3517114999995101,0.4,0,FastFast,27,18,Man,Right,
25,10,1,0.36789609999868844,['c'],1,left,['8'],4,3.3674043999999412,0.1,0,FastFast,27,18,Man,Right,
26,10,1,0.46691590000045835,['n'],1,right,['8'],4,0.0513611000005767,0.2,0,FastFast,27,18,Man,Right,
27,10,1,0.8830730999998195,['c'],1,left,['3'],3,0.1186517999994976,0.1,0,FastFast,27,18,Man,Right,
28,10,1,0.7682671000002301,['c'],1,left,['8'],4,0.0347974999986036,0.1,0,FastFast,27,18,Man,Right,
29,10,1,1.882829700000002,['n'],1,right,['9'],5,0.5011568999998417,0.1,0,FastFast,27,18,Man,Right,
30,10,1,0.9346829000005528,['n'],0,left,['8'],4,0.3510203999994701,0.4,0,FastFast,27,18,Man,Right,
31,10,1,0.715904299999238,['c'],0,right,['8'],4,0.38416610000058427,0.4,0,FastFast,27,18,Man,Right,
32,10,1,1.2667882000005193,['n'],1,right,['8'],4,0.4861913000004279,0.1,0,FastFast,27,18,Man,Right,
33,10,1,1.050789500000974,['n'],1,right,['8'],4,0.36715670000012324,0.4,0,FastFast,27,18,Man,Right,
34,10,1,0.5331578000004811,['c'],1,left,['8'],4,0.3341370999987703,0.4,0,FastFast,27,18,Man,Right,
35,10,1,0.5007960999992065,['n'],0,left,['8'],4,0.01764799999909883,0.1,0,FastFast,27,18,Man,Right,
36,10,1,0.7339967000007164,['n'],1,right,['8'],4,0.9021800999998959,0.4,0,FastFast,27,18,Man,Right,
37,10,1,0.6996925999992527,['c'],1,left,['8'],4,0.7504805000007764,0.2,0,FastFast,27,18,Man,Right,
38,10,1,0.6160734000004595,['n'],1,right,['8'],4,0.4014108999999735,0.1,0,FastFast,27,18,Man,Right,
39,10,1,0.6002507000011974,['n'],1,right,['2'],2,0.03563080000094487,0.2,0,FastFast,27,18,Man,Right,
40,10,1,0.8155683999993926,['n'],1,right,['2'],2,2.0501360000016575,0.2,0,FastFast,27,18,Man,Right,
41,10,1,0.9344423999991704,['n'],1,right,['2'],2,0.5017990999986068,0.1,0,FastFast,27,18,Man,Right,
42,10,1,0.5168137999989995,['c'],0,right,['3'],3,0.8680985999999393,0.1,0,FastFast,27,18,Man,Right,
43,10,1,0.7668076999998448,['c'],1,left,['9'],5,0.11841529999946943,0.2,0,FastFast,27,18,Man,Right,
44,10,1,1.9821974000005866,['n'],0,left,['8'],4,0.3507190000000264,0.2,0,FastFast,27,18,Man,Right,
45,10,1,0.7993167000004178,['n'],1,right,['8'],4,0.368766700001288,0.1,0,FastFast,27,18,Man,Right,
46,10,1,0.6503572000001441,['n'],1,right,['8'],4,0.38585170000078506,0.1,0,FastFast,27,18,Man,Right,
47,10,1,1.0495343000002322,['n'],1,right,['8'],4,0.6014020999991772,0.1,0,FastFast,27,18,Man,Right,
48,10,1,0.7160629000009067,['c'],1,left,['8'],4,0.3687045999995462,0.2,0,FastFast,27,18,Man,Right,
49,10,1,1.3500363000002835,['c'],1,left,['8'],4,0.36793649999890476,0.4,0,FastFast,27,18,Man,Right,
50,10,1,0.7504398999990372,['c'],1,left,['8'],4,0.6684454999995069,0.2,0,FastFast,27,18,Man,Right,
51,10,1,0.6836385000005976,['c'],1,left,['8'],4,0.36872310000035213,0.2,0,FastFast,27,18,Man,Right,
52,10,1,0.7520779999995284,['n'],1,right,['8'],4,0.3500198999990971,0.2,0,FastFast,27,18,Man,Right,
53,10,1,1.4015806000006705,['n'],1,right,['8'],4,0.41801940000004834,0.4,0,FastFast,27,18,Man,Right,
54,10,1,2.2501100999998016,['n'],1,right,['8'],4,0.33453169999847887,0.4,0,FastFast,27,18,Man,Right,
55,10,1,0.7009343999998237,['c'],1,left,['8'],4,0.36794519999966724,0.4,0,FastFast,27,18,Man,Right,
56,10,1,0.8996309000012843,['n'],1,right,['0'],6,0.3342670000001817,0.1,0,FastFast,27,18,Man,Right,
57,10,1,1.0666413999988436,['c'],0,right,['9'],5,0.06873040000027686,0.2,0,FastFast,27,18,Man,Right,
58,10,1,0.7819813000005524,['n'],1,right,['9'],5,0.034393900001305155,0.4,0,FastFast,27,18,Man,Right,
59,10,1,1.483739200000855,['c'],1,left,['8'],4,0.3853933999998844,0.1,0,FastFast,27,18,Man,Right,
0,11,1,4.182659000000058,['n'],1,right,['8'],4,0.6349933000001329,0.1,0,AccFast,27,18,Man,Right,
1,11,1,0.9008169999997335,['c'],0,right,['8'],4,0.2352869999995164,0.4,0,AccFast,27,18,Man,Right,
2,11,1,3.4160285999987536,['n'],0,left,['8'],4,0.08496390000073006,0.1,0,AccFast,27,18,Man,Right,
3,11,1,1.2011667999995552,['c'],1,left,['8'],4,0.018643100000190316,0.2,0,AccFast,27,18,Man,Right,
4,11,1,0.7996848000002501,['n'],1,right,['9'],5,0.35152410000046075,0.4,0,AccFast,27,18,Man,Right,
5,11,1,0.800342599999567,['c'],0,right,['8'],4,0.06924650000109978,0.1,0,AccFast,27,18,Man,Right,
6,11,1,1.1005886000002647,['n'],0,left,['9'],5,0.3345954000014899,0.2,0,AccFast,27,18,Man,Right,
7,11,1,1.283943200000067,['n'],0,left,['9'],5,0.33473140000023704,0.1,0,AccFast,27,18,Man,Right,
8,11,1,0.9170627000003151,['c'],1,left,['9'],5,0.018306599999050377,0.2,0,AccFast,27,18,Man,Right,
9,11,1,0.7677862000000459,['n'],0,left,['0'],6,0.06840069999998377,0.1,0,AccFast,27,18,Man,Right,
10,11,1,1.1501172999996925,['c'],1,left,['0'],6,0.01785320000089996,0.2,0,AccFast,27,18,Man,Right,
11,11,1,0.53369770000063,['n'],0,left,['9'],5,0.10210360000019136,0.1,0,AccFast,27,18,Man,Right,
12,11,1,0.5669361000000208,['c'],1,left,['8'],4,0.05094160000044212,0.4,0,AccFast,27,18,Man,Right,
13,11,1,0.8482196999993903,['n'],1,right,['9'],5,0.08569809999971767,0.2,0,AccFast,27,18,Man,Right,
14,11,1,0.668191000000661,['c'],1,left,['8'],4,0.11701630000061414,0.2,0,AccFast,27,18,Man,Right,
15,11,1,0.6513499000011507,['n'],0,left,['9'],5,0.06812229999923147,0.1,0,AccFast,27,18,Man,Right,
16,11,1,0.4503287999996246,['c'],0,right,['8'],4,0.8513044999999693,0.2,0,AccFast,27,18,Man,Right,
17,11,1,0.6837398999996367,['n'],1,right,['9'],5,0.06822739999915939,0.4,0,AccFast,27,18,Man,Right,
18,11,1,1.06586470000002,['c'],1,left,['9'],5,0.06807930000104534,0.2,0,AccFast,27,18,Man,Right,
19,11,1,1.3343538000008266,['c'],1,left,['9'],5,0.16692890000012994,0.4,0,AccFast,27,18,Man,Right,
20,11,1,0.6992012000009709,['n'],1,right,['9'],5,0.017645900001298287,0.4,0,AccFast,27,18,Man,Right,
21,11,1,0.6504607000006217,['c'],1,left,['8'],4,0.06785560000025725,0.4,0,AccFast,27,18,Man,Right,
22,11,1,0.33343059999970137,['n'],1,right,['8'],4,0.11738399999921967,0.4,0,AccFast,27,18,Man,Right,
23,11,1,0.48326169999927515,['n'],1,right,['8'],4,0.06841560000066238,0.1,0,AccFast,27,18,Man,Right,
24,11,1,0.6181300999996893,['c'],1,left,['8'],4,0.4346473000005062,0.2,0,AccFast,27,18,Man,Right,
25,11,1,0.9825634999997419,['c'],1,left,['8'],4,0.10213010000006761,0.4,0,AccFast,27,18,Man,Right,
26,11,1,0.4982692000012321,['n'],1,right,['8'],4,0.10286980000091717,0.1,0,AccFast,27,18,Man,Right,
27,11,1,0.5325441000004503,['n'],1,right,['8'],4,0.05199690000154078,0.4,0,AccFast,27,18,Man,Right,
28,11,1,0.41794339999978547,['n'],1,right,['8'],4,0.051407999999355525,0.1,0,AccFast,27,18,Man,Right,
29,11,1,0.31704890000037267,['c'],1,left,['8'],4,0.06704400000126043,0.1,0,AccFast,27,18,Man,Right,
30,11,1,0.3509869000008621,['n'],1,right,['8'],4,0.05017469999984314,0.4,0,AccFast,27,18,Man,Right,
31,11,1,0.36745369999880495,['n'],0,left,['8'],4,0.06798949999938486,0.2,0,AccFast,27,18,Man,Right,
32,11,1,0.29962410000007367,['c'],0,right,['8'],4,0.05153020000034303,0.4,0,AccFast,27,18,Man,Right,
33,11,1,0.46715840000069875,['n'],1,right,['8'],4,0.1016224000013608,0.2,0,AccFast,27,18,Man,Right,
34,11,1,0.5505610000000161,['n'],0,left,['8'],4,1.1181087000004482,0.2,0,AccFast,27,18,Man,Right,
35,11,1,0.8170393000000331,['n'],0,left,['8'],4,0.05158160000064527,0.2,0,AccFast,27,18,Man,Right,
36,11,1,0.733963999999105,['n'],1,right,['8'],4,0.06654920000073616,0.1,0,AccFast,27,18,Man,Right,
37,11,1,0.6671666000002006,['n'],1,right,['8'],4,0.017931899999894085,0.1,0,AccFast,27,18,Man,Right,
38,11,1,0.8680056000011973,['c'],1,left,['0'],6,0.1335503999998764,0.2,0,AccFast,27,18,Man,Right,
39,11,1,0.6830198000006931,['c'],1,left,['0'],6,0.052424399998926674,0.4,0,AccFast,27,18,Man,Right,
40,11,1,0.5011680999996315,['n'],1,right,['0'],6,0.06839930000023742,0.1,0,AccFast,27,18,Man,Right,
41,11,1,0.4344947999998112,['n'],1,right,['0'],6,0.05155179999928805,0.4,0,AccFast,27,18,Man,Right,
42,11,1,0.5504409000004671,['c'],1,left,['0'],6,0.06795590000001539,0.1,0,AccFast,27,18,Man,Right,
43,11,1,0.48380159999942407,['n'],1,right,['0'],6,0.017695000000458094,0.4,0,AccFast,27,18,Man,Right,
44,11,1,0.5005109000012453,['c'],0,right,['0'],6,0.03448750000097789,0.2,0,AccFast,27,18,Man,Right,
45,11,1,0.748845899999651,['n'],0,left,['0'],6,0.052121900000202004,0.2,0,AccFast,27,18,Man,Right,
46,11,1,0.515633600000001,['c'],1,left,['0'],6,0.03397109999968961,0.4,0,AccFast,27,18,Man,Right,
47,11,1,0.3993364999987534,['n'],1,right,['0'],6,0.01778770000055374,0.2,0,AccFast,27,18,Man,Right,
48,11,1,0.4009906999999657,['c'],0,right,['0'],6,0.08440840000002936,0.2,0,AccFast,27,18,Man,Right,
49,11,1,0.4182135000010021,['n'],0,left,['0'],6,0.0680793999999878,0.1,0,AccFast,27,18,Man,Right,
50,11,1,1.199689999999464,['c'],0,right,['0'],6,0.017811399999118294,0.4,0,AccFast,27,18,Man,Right,
51,11,1,0.45053350000125647,['n'],1,right,['0'],6,0.05013610000059998,0.2,0,AccFast,27,18,Man,Right,
52,11,1,0.5176733000007516,['n'],0,left,['9'],5,0.06812780000109342,0.1,0,AccFast,27,18,Man,Right,
53,11,1,0.5503376999986358,['n'],1,right,['9'],5,0.03404439999940223,0.4,0,AccFast,27,18,Man,Right,
54,11,1,0.40044619999935094,['n'],1,right,['9'],5,0.034221900001284666,0.4,0,AccFast,27,18,Man,Right,
55,11,1,0.5167224000015267,['n'],0,left,['9'],5,0.051446700001179124,0.1,0,AccFast,27,18,Man,Right,
56,11,1,0.41723540000020876,['n'],0,left,['8'],4,1.1845929999999498,0.4,0,AccFast,27,18,Man,Right,
57,11,1,0.465000099999088,['n'],0,left,['9'],5,0.03472610000062559,0.1,0,AccFast,27,18,Man,Right,
58,11,1,0.7506038999999873,['n'],1,right,['9'],5,0.05065889999968931,0.2,0,AccFast,27,18,Man,Right,
59,11,1,0.465536499999871,['n'],1,right,['9'],5,0.0351314999988972,0.1,0,AccFast,27,18,Man,Right,
0,12,1,0.9344807999987097,['n'],0,left,['9'],5,0.06783230000110052,0.2,0,AccAcc,27,18,Man,Right,
1,12,1,0.5489510999996128,['n'],1,right,['9'],5,0.08564339999975346,0.2,0,AccAcc,27,18,Man,Right,
2,12,1,0.6171177999985957,['n'],0,left,['8'],4,0.09995309999976598,0.2,0,AccAcc,27,18,Man,Right,
3,12,1,0.5188006999997015,['n'],1,right,['8'],4,0.09955960000115738,0.1,0,AccAcc,27,18,Man,Right,
4,12,1,1.3508155999988958,['n'],0,left,['8'],4,0.035114899999825866,0.4,0,AccAcc,27,18,Man,Right,
5,12,1,0.5825626999994711,['n'],1,right,['8'],4,0.13541309999891382,0.2,0,AccAcc,27,18,Man,Right,
6,12,1,0.8835347000003821,['n'],0,left,['9'],5,0.06807619999926828,0.4,0,AccAcc,27,18,Man,Right,
7,12,1,0.8848386000008759,['n'],1,right,['0'],6,0.018172100000811042,0.2,0,AccAcc,27,18,Man,Right,
8,12,1,0.8512644000002183,['n'],0,left,['0'],6,0.03503189999901224,0.1,0,AccAcc,27,18,Man,Right,
9,12,1,0.8997325000000274,['n'],0,left,['0'],6,0.03485050000017509,0.1,0,AccAcc,27,18,Man,Right,
10,12,1,2.0332082000004448,['c'],1,left,['0'],6,0.10165459999916493,0.1,0,AccAcc,27,18,Man,Right,
11,12,1,1.1998865000005026,['n'],1,right,['0'],6,0.050911899999846355,0.1,0,AccAcc,27,18,Man,Right,
12,12,1,0.7678233999995427,['c'],0,right,['9'],5,0.08450880000054894,0.4,0,AccAcc,27,18,Man,Right,
13,12,1,1.7492566000000807,['n'],0,left,['8'],4,0.10208670000065467,0.4,0,AccAcc,27,18,Man,Right,
14,12,1,0.7344709999997576,"['n', 'c']",1,right,['8'],4,0.0679602000000159,0.4,0,AccAcc,27,18,Man,Right,
15,12,1,0.7504911000014545,['n'],1,right,['8'],4,0.1514839999999822,0.4,0,AccAcc,27,18,Man,Right,
16,12,1,1.3836198999997578,['n'],1,right,['8'],4,0.06836719999955676,0.4,0,AccAcc,27,18,Man,Right,
17,12,1,0.39955559999907564,['c'],1,left,['9'],5,0.0669106000004831,0.4,0,AccAcc,27,18,Man,Right,
18,12,1,0.434889000000112,['n'],0,left,['8'],4,0.1681380000009085,0.2,0,AccAcc,27,18,Man,Right,
19,12,1,1.1657772999988083,['n'],1,right,['8'],4,0.18530439999994996,0.4,0,AccAcc,27,18,Man,Right,
20,12,1,0.6324595999994926,['c'],1,left,['9'],5,0.05217169999923499,0.4,0,AccAcc,27,18,Man,Right,
21,12,1,0.4657595000007859,['n'],1,right,['9'],5,0.03555250000135857,0.4,0,AccAcc,27,18,Man,Right,
22,12,1,0.36640729999999166,['c'],1,left,['9'],5,0.0854049000008672,0.1,0,AccAcc,27,18,Man,Right,
23,12,1,0.3505617999999231,['n'],1,right,['9'],5,0.08458950000022014,0.2,0,AccAcc,27,18,Man,Right,
24,12,1,0.7670911000004708,['n'],1,right,['9'],5,0.017990399999689544,0.4,0,AccAcc,27,18,Man,Right,
25,12,1,0.5180433000004996,['c'],1,left,['9'],5,0.034921399999802816,0.1,0,AccAcc,27,18,Man,Right,
26,12,1,0.5338049000001774,['c'],1,left,['9'],5,0.08519619999970018,0.4,0,AccAcc,27,18,Man,Right,
27,12,1,0.5164110999994591,['c'],1,left,['9'],5,0.03467089999867312,0.4,0,AccAcc,27,18,Man,Right,
28,12,1,0.5670864000003348,['n'],1,right,['9'],5,0.03473920000033104,0.1,0,AccAcc,27,18,Man,Right,
29,12,1,0.4178721000007499,['n'],1,right,['9'],5,0.018312000000150874,0.1,0,AccAcc,27,18,Man,Right,
30,12,1,0.41759749999982887,['c'],0,right,['9'],5,1.1500678000011249,0.2,0,AccAcc,27,18,Man,Right,
31,12,1,0.3179460999999719,['n'],1,right,['9'],5,0.034822100000383216,0.1,0,AccAcc,27,18,Man,Right,
32,12,1,0.4844152999994549,['c'],1,left,['9'],5,0.05131160000019008,0.4,0,AccAcc,27,18,Man,Right,
33,12,1,0.9001038000005792,['c'],1,left,['9'],5,0.03459530000145605,0.4,0,AccAcc,27,18,Man,Right,
34,12,1,0.6676939000008133,['c'],1,left,['9'],5,0.03483830000004673,0.1,0,AccAcc,27,18,Man,Right,
35,12,1,0.6831361000004108,['c'],1,left,['9'],5,0.08369909999964875,0.2,0,AccAcc,27,18,Man,Right,
36,12,1,0.8676955999999336,['c'],0,right,['9'],5,0.017709200001263525,0.1,0,AccAcc,27,18,Man,Right,
37,12,1,0.4832955000001675,['c'],1,left,['9'],5,0.05188290000114648,0.2,0,AccAcc,27,18,Man,Right,
38,12,1,0.533102899998994,['c'],1,left,['9'],5,0.05140440000104718,0.1,0,AccAcc,27,18,Man,Right,
39,12,1,0.5673080999986269,['c'],0,right,['9'],5,0.051862500000424916,0.2,0,AccAcc,27,18,Man,Right,
40,12,1,0.69930260000001,['n'],1,right,['9'],5,0.017883399999846006,0.2,0,AccAcc,27,18,Man,Right,
41,12,1,1.1990522999985842,['c'],1,left,['8'],4,0.10303159999966738,0.2,0,AccAcc,27,18,Man,Right,
42,12,1,0.632119199999579,['c'],1,left,['8'],4,0.05129040000065288,0.2,0,AccAcc,27,18,Man,Right,
43,12,1,0.8014222999991034,['n'],1,right,['0'],6,0.05004869999902439,0.1,0,AccAcc,27,18,Man,Right,
44,12,1,0.9181631000010384,['c'],1,left,['8'],4,0.10239229999933741,0.4,0,AccAcc,27,18,Man,Right,
45,12,1,0.5839455000004818,['n'],0,left,['9'],5,0.0681841000005079,0.2,0,AccAcc,27,18,Man,Right,
46,12,1,0.9330931000004057,['n'],1,right,['8'],4,0.15154570000049716,0.2,0,AccAcc,27,18,Man,Right,
47,12,1,0.7331675999994332,['c'],1,left,['9'],5,0.10218069999973522,0.4,0,AccAcc,27,18,Man,Right,
48,12,1,0.4501441000011255,['n'],1,right,['9'],5,0.05166760000065551,0.1,0,AccAcc,27,18,Man,Right,
49,12,1,2.066337799999019,['n'],0,left,['9'],5,0.06722159999844735,0.1,0,AccAcc,27,18,Man,Right,
50,12,1,1.2153023999999277,['n'],0,left,['9'],5,0.10213779999867256,0.2,0,AccAcc,27,18,Man,Right,
51,12,1,1.2503660000002128,['n'],1,right,['9'],5,0.03454059999967285,0.1,0,AccAcc,27,18,Man,Right,
52,12,1,0.48451660000137053,['c'],0,right,['0'],6,0.0664742999997543,0.2,0,AccAcc,27,18,Man,Right,
53,12,1,0.4179807000000437,['n'],1,right,['8'],4,0.06657909999921685,0.2,0,AccAcc,27,18,Man,Right,
54,12,1,0.6510840999999346,['n'],1,right,['8'],4,0.10036430000036489,0.1,0,AccAcc,27,18,Man,Right,
55,12,1,0.734355599999617,['n'],1,right,['8'],4,0.0681949000008899,0.4,0,AccAcc,27,18,Man,Right,
56,12,1,0.41723369999999704,['c'],1,left,['9'],5,0.08486639999864565,0.1,0,AccAcc,27,18,Man,Right,
57,12,1,0.6999748999987787,['n'],1,right,['0'],6,0.085455099999308,0.4,0,AccAcc,27,18,Man,Right,
58,12,1,0.6343787999994674,['c'],1,left,['9'],5,0.684579599999779,0.2,0,AccAcc,27,18,Man,Right,
59,12,1,1.9505185999987589,['n'],1,right,['9'],5,0.035066700000243145,0.1,0,AccAcc,27,18,Man,Right,
0,13,1,0.7679549000004045,['c'],0,right,['9'],5,0.10167700000056357,0.4,0,FastAcc,27,18,Man,Right,
1,13,1,0.5667733000009321,['n'],1,right,['9'],5,0.10128009999971255,0.4,0,FastAcc,27,18,Man,Right,
2,13,1,0.48362749999978405,['c'],1,left,['8'],4,0.051637500000651926,0.2,0,FastAcc,27,18,Man,Right,
3,13,1,0.4331134000003658,['n'],1,right,['9'],5,0.03464039999926172,0.4,0,FastAcc,27,18,Man,Right,
4,13,1,0.5157697000013286,['c'],0,right,['8'],4,0.20138829999996233,0.2,0,FastAcc,27,18,Man,Right,
5,13,1,1.0839758000001893,['c'],1,left,['9'],5,0.06605579999995825,0.2,0,FastAcc,27,18,Man,Right,
6,13,1,0.3012178999997559,['n'],1,right,['0'],6,0.01792560000103549,0.4,0,FastAcc,27,18,Man,Right,
7,13,1,0.5683707999996841,['c'],1,left,['9'],5,0.0677679000000353,0.2,0,FastAcc,27,18,Man,Right,
8,13,1,0.6172272999992856,['c'],1,left,['9'],5,0.017781700000341516,0.4,0,FastAcc,27,18,Man,Right,
9,13,1,0.5008587000011175,['n'],1,right,['8'],4,0.10013079999953334,0.4,0,FastAcc,27,18,Man,Right,
10,13,1,0.6511567999987165,['c'],0,right,['9'],5,0.26684170000044105,0.1,0,FastAcc,27,18,Man,Right,
11,13,1,1.6501850000004197,['n'],1,right,['3'],3,0.18540110000139975,0.4,0,FastAcc,27,18,Man,Right,
12,13,1,0.5838436000012734,['c'],1,left,['3'],3,0.08296580000023823,0.4,0,FastAcc,27,18,Man,Right,
13,13,1,0.8178167000005487,['c'],1,left,['3'],3,0.08458229999996547,0.2,0,FastAcc,27,18,Man,Right,
14,13,1,0.5661410000011529,['n'],1,right,['3'],3,0.03538669999943522,0.2,0,FastAcc,27,18,Man,Right,
15,13,1,0.6840249999986554,['c'],0,right,['3'],3,0.051507300000594114,0.1,0,FastAcc,27,18,Man,Right,
16,13,1,0.749653999999282,['n'],1,right,['3'],3,0.4167084000000614,0.2,0,FastAcc,27,18,Man,Right,
17,13,1,0.9503814999989117,['c'],1,left,['3'],3,0.8679426000016974,0.1,0,FastAcc,27,18,Man,Right,
18,13,1,0.8331457000003866,['n'],0,left,['3'],3,0.28472770000007586,0.1,0,FastAcc,27,18,Man,Right,
19,13,1,1.13354260000051,['n'],1,right,['3'],3,0.21748660000048403,0.1,0,FastAcc,27,18,Man,Right,
20,13,1,1.5505651000003127,['n'],0,left,['3'],3,0.18497339999885298,0.2,0,FastAcc,27,18,Man,Right,
21,13,1,0.7668606000006548,['n'],1,right,['3'],3,0.21837830000004033,0.2,0,FastAcc,27,18,Man,Right,
22,13,1,1.2333816999998817,['n'],1,right,['3'],3,0.38482330000078946,0.4,0,FastAcc,27,18,Man,Right,
23,13,1,0.582138900001155,['c'],1,left,['3'],3,0.01847789999919769,0.2,0,FastAcc,27,18,Man,Right,
24,13,1,0.8525347000013426,['c'],0,right,['3'],3,0.051494800000000396,0.1,0,FastAcc,27,18,Man,Right,
25,13,1,0.5994661999993696,['c'],1,left,['3'],3,0.11806740000065474,0.4,0,FastAcc,27,18,Man,Right,
26,13,1,0.9847246999997878,['n'],1,right,['3'],3,2.7345664000004035,0.2,0,FastAcc,27,18,Man,Right,
27,13,1,0.6671544000000722,['c'],1,left,['3'],3,0.018039200000202982,0.1,0,FastAcc,27,18,Man,Right,
28,13,1,0.8507988000001205,['n'],0,left,['3'],3,1.5177718000013556,0.1,0,FastAcc,27,18,Man,Right,
29,13,1,0.6012635999995837,['c'],1,left,['2'],2,0.03389040000001842,0.4,0,FastAcc,27,18,Man,Right,
30,13,1,0.9004844999999477,['n'],0,left,['3'],3,0.1847901000001002,0.2,0,FastAcc,27,18,Man,Right,
31,13,1,1.3163213999996515,['n'],1,right,['2'],2,0.03554009999970731,0.2,0,FastAcc,27,18,Man,Right,
32,13,1,1.91686590000063,['n'],1,right,['3'],3,0.15142759999980626,0.4,0,FastAcc,27,18,Man,Right,
33,13,1,0.9010895999999775,['n'],0,left,['3'],3,0.11803200000031211,0.1,0,FastAcc,27,18,Man,Right,
34,13,1,0.8492691999999806,['n'],1,right,['1'],1,0.08570939999844995,0.4,0,FastAcc,27,18,Man,Right,
35,13,1,1.9835115999994741,['n'],0,left,['3'],3,0.05139430000053835,0.1,0,FastAcc,27,18,Man,Right,
36,13,1,1.4000560999993468,['n'],0,left,['3'],3,0.05137990000002901,0.2,0,FastAcc,27,18,Man,Right,
37,13,1,0.7670377000013104,['n'],1,right,['1'],1,0.08474170000044978,0.1,0,FastAcc,27,18,Man,Right,
38,13,1,1.5999609999998938,['c'],0,right,['3'],3,0.1509951000007277,0.1,0,FastAcc,27,18,Man,Right,
39,13,1,1.567156299999624,['n'],0,left,['3'],3,0.10145999999986088,0.4,0,FastAcc,27,18,Man,Right,
40,13,1,0.6338790999998309,['n'],1,right,['2'],2,0.1178036000001157,0.2,0,FastAcc,27,18,Man,Right,
41,13,1,0.7171890999998141,['c'],1,left,['3'],3,0.25119640000048093,0.2,0,FastAcc,27,18,Man,Right,
42,13,1,0.8995705000015732,['c'],1,left,['3'],3,0.03502450000087265,0.4,0,FastAcc,27,18,Man,Right,
43,13,1,0.6992480999997497,['n'],1,right,['3'],3,0.11815870000100404,0.2,0,FastAcc,27,18,Man,Right,
44,13,1,1.8830887999993138,['c'],0,right,['3'],3,0.8346941999989212,0.1,0,FastAcc,27,18,Man,Right,
45,13,1,2.46584939999957,['c'],1,left,['3'],3,0.5003409000000829,0.1,0,FastAcc,27,18,Man,Right,
46,13,1,2.3676381000004767,['c'],1,left,['3'],3,0.018137900000510854,0.1,0,FastAcc,27,18,Man,Right,
47,13,1,1.6487777999991522,['n'],0,left,['3'],3,0.05230940000001283,0.1,0,FastAcc,27,18,Man,Right,
48,13,1,1.8662428999996337,['n'],1,right,['3'],3,0.10155959999974584,0.2,0,FastAcc,27,18,Man,Right,
49,13,1,1.3337573000007978,['n'],0,left,['3'],3,0.04984390000026906,0.1,0,FastAcc,27,18,Man,Right,
50,13,1,1.249620299999151,['c'],1,left,['3'],3,0.05136839999977383,0.4,0,FastAcc,27,18,Man,Right,
51,13,1,0.948558400001275,['c'],1,left,['3'],3,1.1524326999988261,0.2,0,FastAcc,27,18,Man,Right,
52,13,1,2.1177656999989267,['c'],1,left,['3'],3,0.10143700000116951,0.1,0,FastAcc,27,18,Man,Right,
53,13,1,2.09990260000086,['n'],0,left,['3'],3,0.08477250000032654,0.1,0,FastAcc,27,18,Man,Right,
54,13,1,1.683535899999697,['n'],1,right,['3'],3,0.049569400000109454,0.1,0,FastAcc,27,18,Man,Right,
55,13,1,1.0678642000002583,['c'],0,right,['3'],3,0.06675689999974566,0.4,0,FastAcc,27,18,Man,Right,
56,13,1,0.4333875000011176,['n'],0,left,['2'],2,0.16870620000008785,0.4,0,FastAcc,27,18,Man,Right,
57,13,1,0.8488852000009501,['n'],1,right,['3'],3,0.11846239999977115,0.4,0,FastAcc,27,18,Man,Right,
58,13,1,2.467301299999235,['n'],1,right,['3'],3,0.10087520000161021,0.2,0,FastAcc,27,18,Man,Right,
59,13,1,0.3351301999991847,['c'],0,right,['3'],3,0.03408159999889904,0.4,0,FastAcc,27,18,Man,Right,
0,14,1,1.0175607000001037,['c'],0,right,['9'],5,0.15141229999971983,0.1,0,FastFast,27,18,Man,Right,
1,14,1,0.566689100000076,['n'],1,right,['8'],4,0.08541619999959948,0.2,0,FastFast,27,18,Man,Right,
2,14,1,0.45123050000074727,['n'],1,right,['8'],4,0.0848400999984733,0.4,0,FastFast,27,18,Man,Right,
3,14,1,0.5168637999995553,['n'],0,left,['8'],4,0.5348181999997905,0.1,0,FastFast,27,18,Man,Right,
4,14,1,0.550430299999789,['n'],1,right,['8'],4,0.034870400000727386,0.1,0,FastFast,27,18,Man,Right,
5,14,1,0.5339505999982066,['c'],1,left,['8'],4,0.0669158000000607,0.4,0,FastFast,27,18,Man,Right,
6,14,1,0.36702730000070005,['n'],0,left,['8'],4,0.06819929999983287,0.2,0,FastFast,27,18,Man,Right,
7,14,1,0.5334117999991577,['n'],0,left,['8'],4,0.08491760000106297,0.1,0,FastFast,27,18,Man,Right,
8,14,1,0.43289809999987483,['n'],1,right,['8'],4,0.051351900001463946,0.2,0,FastFast,27,18,Man,Right,
9,14,1,0.5168932000015047,['n'],0,left,['8'],4,0.05229289999988396,0.1,0,FastFast,27,18,Man,Right,
10,14,1,0.46721809999871766,['n'],1,right,['8'],4,0.03465460000006715,0.2,0,FastFast,27,18,Man,Right,
11,14,1,0.3833219000007375,['c'],1,left,['8'],4,0.085349099999803,0.2,0,FastFast,27,18,Man,Right,
12,14,1,0.48452089999955206,['n'],1,right,['8'],4,0.06758300000001327,0.1,0,FastFast,27,18,Man,Right,
13,14,1,0.5849921999997605,['n'],1,right,['8'],4,0.05141479999838339,0.2,0,FastFast,27,18,Man,Right,
14,14,1,0.43417069999850355,['c'],0,right,['8'],4,0.08482960000037565,0.4,0,FastFast,27,18,Man,Right,
15,14,1,0.3664236000004166,['n'],0,left,['8'],4,0.018574800000351388,0.2,0,FastFast,27,18,Man,Right,
16,14,1,0.8327666000004683,['c'],0,right,['8'],4,0.08497609999903943,0.4,0,FastFast,27,18,Man,Right,
17,14,1,1.516814599999634,['n'],1,right,['9'],5,0.06773190000058094,0.4,0,FastFast,27,18,Man,Right,
18,14,1,0.6338961000001291,['n'],0,left,['8'],4,0.05152769999949669,0.2,0,FastFast,27,18,Man,Right,
19,14,1,0.5162251999990985,['n'],0,left,['9'],5,0.06829650000145193,0.2,0,FastFast,27,18,Man,Right,
20,14,1,0.8170167000007496,['n'],0,left,['8'],4,0.1331969000002573,0.1,0,FastFast,27,18,Man,Right,
21,14,1,0.43459729999995034,['n'],1,right,['9'],5,0.051458699999784585,0.2,0,FastFast,27,18,Man,Right,
22,14,1,0.48279230000116513,['n'],0,left,['9'],5,0.051736999999775435,0.1,0,FastFast,27,18,Man,Right,
23,14,1,0.9676810000000842,['n'],0,left,['9'],5,0.03318729999955394,0.1,0,FastFast,27,18,Man,Right,
24,14,1,0.4999571999996988,['n'],1,right,['9'],5,0.03528740000001562,0.4,0,FastFast,27,18,Man,Right,
25,14,1,0.36716880000130914,['n'],0,left,['0'],6,0.034544000000096275,0.1,0,FastFast,27,18,Man,Right,
26,14,1,0.6673014000007242,['n'],0,left,['9'],5,0.5678595999997924,0.1,0,FastFast,27,18,Man,Right,
27,14,1,0.7992298000008304,['n'],0,left,['9'],5,0.05207439999867347,0.4,0,FastFast,27,18,Man,Right,
28,14,1,0.6997343999992154,['n'],0,left,['9'],5,0.01824739999938174,0.2,0,FastFast,27,18,Man,Right,
29,14,1,0.46732689999953436,['c'],1,left,['8'],4,0.0678198000005068,0.2,0,FastFast,27,18,Man,Right,
30,14,1,0.45024019999982556,['n'],0,left,['8'],4,0.051528699999835226,0.1,0,FastFast,27,18,Man,Right,
31,14,1,0.46675239999967744,['n'],1,right,['8'],4,0.05151049999949464,0.4,0,FastFast,27,18,Man,Right,
32,14,1,0.5337261000004219,['c'],1,left,['8'],4,0.08344709999983024,0.2,0,FastFast,27,18,Man,Right,
33,14,1,0.4335702999997011,['n'],1,right,['8'],4,0.06719469999916328,0.4,0,FastFast,27,18,Man,Right,
34,14,1,0.4345257999993919,['c'],1,left,['8'],4,0.06737619999876188,0.4,0,FastFast,27,18,Man,Right,
35,14,1,0.334068500000285,['n'],1,right,['8'],4,0.06803619999845978,0.4,0,FastFast,27,18,Man,Right,
36,14,1,0.38367119999929855,['c'],0,right,['9'],5,0.06683279999924707,0.2,0,FastFast,27,18,Man,Right,
37,14,1,0.6334370999993553,['n'],1,right,['8'],4,0.05239419999998063,0.4,0,FastFast,27,18,Man,Right,
38,14,1,0.48389640000095824,['n'],0,left,['8'],4,0.05134209999960149,0.1,0,FastFast,27,18,Man,Right,
39,14,1,0.48378760000014154,['c'],1,left,['8'],4,0.06817210000008345,0.2,0,FastFast,27,18,Man,Right,
40,14,1,0.5336026000004495,['n'],1,right,['8'],4,0.03482310000072175,0.2,0,FastFast,27,18,Man,Right,
41,14,1,0.549869899999976,['n'],0,left,['8'],4,0.018329399999856832,0.1,0,FastFast,27,18,Man,Right,
42,14,1,0.583976600000824,['n'],0,left,['8'],4,0.06811579999884998,0.1,0,FastFast,27,18,Man,Right,
43,14,1,0.4341892000011285,['n'],1,right,['8'],4,0.035003200000574,0.4,0,FastFast,27,18,Man,Right,
44,14,1,0.46720709999863175,['n'],0,left,['8'],4,0.04995710000002873,0.4,0,FastFast,27,18,Man,Right,
45,14,1,0.45108909999908064,['n'],0,left,['8'],4,0.06816610000169021,0.4,0,FastFast,27,18,Man,Right,
46,14,1,0.6993627000010747,['n'],1,right,['8'],4,0.10239840000031109,0.1,0,FastFast,27,18,Man,Right,
47,14,1,0.5333976999991137,['c'],0,right,['9'],5,0.06722599999920931,0.4,0,FastFast,27,18,Man,Right,
48,14,1,0.5505303999998432,['n'],0,left,['9'],5,0.1178541999997833,0.1,0,FastFast,27,18,Man,Right,
49,14,1,0.3845808999994915,['c'],0,right,['8'],4,0.20160910000049626,0.4,0,FastFast,27,18,Man,Right,
50,14,1,0.7162928999987344,['n'],1,right,['8'],4,0.03483889999915846,0.2,0,FastFast,27,18,Man,Right,
51,14,1,0.7001025999998092,['n'],1,right,['9'],5,0.06830029999946419,0.2,0,FastFast,27,18,Man,Right,
52,14,1,0.7842252999998891,['n'],1,right,['8'],4,0.6524159999989934,0.4,0,FastFast,27,18,Man,Right,
53,14,1,0.5338412000000972,['n'],1,right,['8'],4,0.0847087999991345,0.1,0,FastFast,27,18,Man,Right,
54,14,1,0.483383100001447,['n'],1,right,['8'],4,0.06832240000039747,0.1,0,FastFast,27,18,Man,Right,
55,14,1,0.6159676999996009,['n'],1,right,['8'],4,0.035003900000447175,0.2,0,FastFast,27,18,Man,Right,
56,14,1,0.7017462999992858,['n'],0,left,['8'],4,0.11845750000065891,0.4,0,FastFast,27,18,Man,Right,
57,14,1,0.633568600000217,['n'],0,left,['8'],4,0.08512069999960659,0.4,0,FastFast,27,18,Man,Right,
58,14,1,0.4996651000001293,['n'],0,left,['8'],4,0.05198750000090513,0.1,0,FastFast,27,18,Man,Right,
59,14,1,0.5507340999993176,['n'],1,right,['8'],4,0.03449379999983648,0.2,0,FastFast,27,18,Man,Right,
0,15,1,1.1180674999995972,['n'],0,left,['9'],5,0.11808500000006461,0.1,0,AccFast,27,18,Man,Right,
1,15,1,0.48397380000096746,['n'],1,right,['8'],4,0.06808200000159559,0.4,0,AccFast,27,18,Man,Right,
2,15,1,0.6339379999990342,['n'],1,right,['8'],4,0.05171149999841873,0.4,0,AccFast,27,18,Man,Right,
3,15,1,0.6504344999993918,['n'],1,right,['9'],5,0.018431099999361322,0.2,0,AccFast,27,18,Man,Right,
4,15,1,0.4839092000001983,['n'],0,left,['9'],5,0.05165880000095058,0.1,0,AccFast,27,18,Man,Right,
5,15,1,0.4832750000005035,['n'],0,left,['0'],6,0.018197800000052666,0.1,0,AccFast,27,18,Man,Right,
6,15,1,0.3171338000011019,['c'],0,right,['9'],5,0.051548499999626074,0.1,0,AccFast,27,18,Man,Right,
7,15,1,0.2838738000009471,['n'],0,left,['8'],4,0.08461940000051982,0.4,0,AccFast,27,18,Man,Right,
8,15,1,0.6186440999990737,['n'],1,right,['9'],5,0.03475890000117943,0.4,0,AccFast,27,18,Man,Right,
9,15,1,1.2491690999995626,['n'],1,right,['8'],4,0.0346955999993952,0.1,0,AccFast,27,18,Man,Right,
10,15,1,0.9512296000011702,['n'],1,right,['8'],4,0.0686946000005264,0.4,0,AccFast,27,18,Man,Right,
11,15,1,0.9327714000010019,['c'],1,left,['9'],5,0.06836360000124841,0.4,0,AccFast,27,18,Man,Right,
12,15,1,0.48402549999991606,['n'],1,right,['9'],5,0.034824700000172015,0.1,0,AccFast,27,18,Man,Right,
13,15,1,1.917770500000188,['c'],1,left,['8'],4,0.06808469999850786,0.1,0,AccFast,27,18,Man,Right,
14,15,1,1.0664555999992444,['c'],1,left,['8'],4,1.2336587000008876,0.4,0,AccFast,27,18,Man,Right,
15,15,1,0.7335136000001512,['c'],1,left,['9'],5,0.08461500000157685,0.2,0,AccFast,27,18,Man,Right,
16,15,1,1.6173665999995137,['n'],1,right,['9'],5,0.04981420000149228,0.1,0,AccFast,27,18,Man,Right,
17,15,1,0.8332745999996405,['c'],1,left,['9'],5,0.0342940999998973,0.2,0,AccFast,27,18,Man,Right,
18,15,1,2.316940099999556,['c'],0,right,['9'],5,0.6512787000010576,0.2,0,AccFast,27,18,Man,Right,
19,15,1,1.43316810000033,['n'],1,right,['9'],5,0.33441489999859186,0.2,0,AccFast,27,18,Man,Right,
20,15,1,1.2659745999990264,['c'],0,right,['9'],5,0.03498850000141829,0.4,0,AccFast,27,18,Man,Right,
21,15,1,0.6338784999989002,['c'],1,left,['9'],5,0.05143649999990885,0.2,0,AccFast,27,18,Man,Right,
22,15,1,0.9159599000013259,['c'],1,left,['9'],5,0.017712299999402603,0.1,0,AccFast,27,18,Man,Right,
23,15,1,0.9985458999999537,['c'],1,left,['9'],5,0.5019592999997258,0.2,0,AccFast,27,18,Man,Right,
24,15,1,0.666911500000424,['c'],0,right,['9'],5,0.05055189999984577,0.4,0,AccFast,27,18,Man,Right,
25,15,1,0.6331644999991113,['c'],1,left,['9'],5,0.0684452000004967,0.4,0,AccFast,27,18,Man,Right,
26,15,1,1.3175848000009864,['c'],1,left,['9'],5,0.05133009999917704,0.1,0,AccFast,27,18,Man,Right,
27,15,1,1.299614499999734,['n'],1,right,['9'],5,0.01813389999915671,0.2,0,AccFast,27,18,Man,Right,
28,15,1,1.0339609000002383,['n'],0,left,['9'],5,0.4680532000002131,0.1,0,AccFast,27,18,Man,Right,
29,15,1,0.7328128999997716,['n'],1,right,['9'],5,0.03499129999909201,0.2,0,AccFast,27,18,Man,Right,
30,15,1,2.1818051999998715,['n'],1,right,['9'],5,0.01799380000011297,0.4,0,AccFast,27,18,Man,Right,
31,15,1,1.4511864000014612,['n'],1,right,['9'],5,0.017455100000006496,0.4,0,AccFast,27,18,Man,Right,
32,15,1,0.8492267000001448,['n'],1,right,['9'],5,0.017549199999848497,0.2,0,AccFast,27,18,Man,Right,
33,15,1,1.0346898000007059,['n'],0,left,['9'],5,0.05016140000043379,0.2,0,AccFast,27,18,Man,Right,
34,15,1,0.7677523000002111,['c'],0,right,['0'],6,0.06785530000161089,0.1,0,AccFast,27,18,Man,Right,
35,15,1,0.549950099999478,['n'],1,right,['9'],5,0.01798860000053537,0.1,0,AccFast,27,18,Man,Right,
36,15,1,0.600487300000168,['c'],1,left,['9'],5,0.1682237000004534,0.4,0,AccFast,27,18,Man,Right,
37,15,1,2.1827665000000707,['n'],1,right,['9'],5,0.06914649999998801,0.2,0,AccFast,27,18,Man,Right,
38,15,1,0.6341919000005873,['c'],1,left,['8'],4,0.11924050000015995,0.2,0,AccFast,27,18,Man,Right,
39,15,1,0.5667536000000837,['n'],1,right,['9'],5,0.017997900000409572,0.2,0,AccFast,27,18,Man,Right,
40,15,1,0.7847371000007115,['n'],0,left,['9'],5,0.06896129999950062,0.4,0,AccFast,27,18,Man,Right,
41,15,1,0.6171303999999509,['n'],1,right,['9'],5,0.05174029999943741,0.4,0,AccFast,27,18,Man,Right,
42,15,1,0.5662929999998596,['c'],1,left,['9'],5,0.03508920000058424,0.2,0,AccFast,27,18,Man,Right,
43,15,1,0.6506742000001395,['n'],1,right,['9'],5,0.13348969999969995,0.1,0,AccFast,27,18,Man,Right,
44,15,1,0.4500246999996307,['c'],0,right,['9'],5,0.06824909999886586,0.4,0,AccFast,27,18,Man,Right,
45,15,1,2.668172300000151,['n'],0,left,['9'],5,0.06641590000072028,0.1,0,AccFast,27,18,Man,Right,
46,15,1,1.0509206000006088,['c'],1,left,['9'],5,0.051654700000653975,0.1,0,AccFast,27,18,Man,Right,
47,15,1,0.582817000000432,['n'],1,right,['9'],5,0.017199199999595294,0.1,0,AccFast,27,18,Man,Right,
48,15,1,0.6184988000004523,['n'],0,left,['0'],6,0.04973220000101719,0.2,0,AccFast,27,18,Man,Right,
49,15,1,1.5845924999994168,['n'],1,right,['2'],2,0.1019495000000461,0.4,0,AccFast,27,18,Man,Right,
50,15,1,0.549395199999708,['n'],1,right,['2'],2,0.11736449999989418,0.4,0,AccFast,27,18,Man,Right,
51,15,1,0.3668393999996624,['n'],0,left,['8'],4,0.03452350000043225,0.4,0,AccFast,27,18,Man,Right,
52,15,1,0.5165257000007841,['c'],1,left,['9'],5,0.30144120000113617,0.2,0,AccFast,27,18,Man,Right,
53,15,1,0.5171466000010696,['c'],1,left,['9'],5,0.2347645999998349,0.4,0,AccFast,27,18,Man,Right,
54,15,1,0.8675609999991138,['n'],0,left,['3'],3,0.018080199999531033,0.1,0,AccFast,27,18,Man,Right,
55,15,1,1.3834101000011287,['c'],1,left,['3'],3,0.06833410000035656,0.2,0,AccFast,27,18,Man,Right,
56,15,1,0.7006411999991542,['n'],0,left,['3'],3,0.06667910000032862,0.2,0,AccFast,27,18,Man,Right,
57,15,1,0.5841261000005034,['n'],1,right,['3'],3,0.034679799999139505,0.1,0,AccFast,27,18,Man,Right,
58,15,1,0.5489784000001237,['n'],1,right,['3'],3,0.6520034999994095,0.2,0,AccFast,27,18,Man,Right,
59,15,1,1.5993221000007907,['c'],1,left,['3'],3,0.7189636000002793,0.1,0,AccFast,27,18,Man,Right,
