withinblocktrial,block,block_repetition,rt,resp,cor,cresp,conf_press,cj,rtconf,coherence,slow_trial,manipulation,sub,age,gender,handedness,
0,1,1,2.6172992000001614,['c'],0,right,none,-99,-99,0.5,0,none,31,19,Man,Right,
1,1,1,2.799909200000002,['n'],1,right,none,-99,-99,0.5,0,none,31,19,Man,Right,
2,1,1,4.08353870000019,['c'],0,right,none,-99,-99,0.5,0,none,31,19,Man,Right,
3,1,1,0.6357056000001648,['n'],1,right,none,-99,-99,0.5,0,none,31,19,Man,Right,
4,1,1,0.38366709999991144,['n'],0,left,none,-99,-99,0.5,0,none,31,19,Man,Right,
5,1,1,0.5161206000002494,['c'],1,left,none,-99,-99,0.5,0,none,31,19,Man,Right,
6,1,1,4.349835999999868,['n'],1,right,none,-99,-99,0.5,0,none,31,19,Man,Right,
7,1,1,1.9171575999998822,['n'],0,left,none,-99,-99,0.5,0,none,31,19,Man,Right,
8,1,1,1.1006390999996256,['c'],0,right,none,-99,-99,0.5,0,none,31,19,Man,Right,
9,1,1,0.9509124999999585,['n'],0,left,none,-99,-99,0.5,0,none,31,19,Man,Right,
10,1,1,1.2666519999997945,['c'],0,right,none,-99,-99,0.5,0,none,31,19,Man,Right,
11,1,1,4.116604100000131,['n'],1,right,none,-99,-99,0.5,0,none,31,19,Man,Right,
12,1,1,1.2166304000002128,['c'],1,left,none,-99,-99,0.5,0,none,31,19,Man,Right,
13,1,1,1.1836158000000978,['c'],1,left,none,-99,-99,0.5,0,none,31,19,Man,Right,
14,1,1,1.0666161999997712,['c'],0,right,none,-99,-99,0.5,0,none,31,19,Man,Right,
15,1,1,2.2019884000001184,['c'],1,left,none,-99,-99,0.5,0,none,31,19,Man,Right,
16,1,1,1.4506642999999713,['c'],1,left,none,-99,-99,0.5,0,none,31,19,Man,Right,
17,1,1,2.0167692999998508,['c'],1,left,none,-99,-99,0.5,0,none,31,19,Man,Right,
18,1,1,0.48380909999968935,['c'],0,right,none,-99,-99,0.5,0,none,31,19,Man,Right,
19,1,1,0.21757419999994454,['n'],0,left,none,-99,-99,0.5,0,none,31,19,Man,Right,
20,1,1,0.2841990999995687,"['n', 'c']",1,right,none,-99,-99,0.5,0,none,31,19,Man,Right,
21,1,1,0.2840368999995917,['c'],1,left,none,-99,-99,0.5,0,none,31,19,Man,Right,
22,1,1,0.1338397999998051,['c'],1,left,none,-99,-99,0.5,0,none,31,19,Man,Right,
23,1,1,0.31539999999995416,['c'],0,right,none,-99,-99,0.5,0,none,31,19,Man,Right,
0,1,2,0.4171060000003308,['c'],0,right,none,-99,-99,0.5,0,none,31,19,Man,Right,
1,1,2,0.26743149999992966,['c'],1,left,none,-99,-99,0.5,0,none,31,19,Man,Right,
2,1,2,0.51570189999984,['c'],1,left,none,-99,-99,0.5,0,none,31,19,Man,Right,
3,1,2,0.3677015999996911,['n'],0,left,none,-99,-99,0.5,0,none,31,19,Man,Right,
4,1,2,0.9502083000002131,['n'],0,left,none,-99,-99,0.5,0,none,31,19,Man,Right,
5,1,2,0.8658565999999155,['n'],0,left,none,-99,-99,0.5,0,none,31,19,Man,Right,
6,1,2,0.7678534000001491,['c'],1,left,none,-99,-99,0.5,0,none,31,19,Man,Right,
7,1,2,1.6343630999999732,['c'],0,right,none,-99,-99,0.5,0,none,31,19,Man,Right,
8,1,2,0.35100459999966915,['n'],1,right,none,-99,-99,0.5,0,none,31,19,Man,Right,
9,1,2,0.6171129999997902,['n'],1,right,none,-99,-99,0.5,0,none,31,19,Man,Right,
10,1,2,0.8668919000001551,['n'],0,left,none,-99,-99,0.5,0,none,31,19,Man,Right,
11,1,2,0.5011046999998143,['n'],1,right,none,-99,-99,0.5,0,none,31,19,Man,Right,
12,1,2,0.5825230000000374,['n'],0,left,none,-99,-99,0.5,0,none,31,19,Man,Right,
13,1,2,0.9168264999998428,['n'],1,right,none,-99,-99,0.5,0,none,31,19,Man,Right,
14,1,2,0.6171196000000236,['c'],1,left,none,-99,-99,0.5,0,none,31,19,Man,Right,
15,1,2,0.91781200000014,['n'],1,right,none,-99,-99,0.5,0,none,31,19,Man,Right,
16,1,2,0.6172075999998015,['c'],1,left,none,-99,-99,0.5,0,none,31,19,Man,Right,
17,1,2,0.3997345000002497,['n'],1,right,none,-99,-99,0.5,0,none,31,19,Man,Right,
18,1,2,0.6002375000002758,['c'],0,right,none,-99,-99,0.5,0,none,31,19,Man,Right,
19,1,2,0.28290570000035586,['n'],1,right,none,-99,-99,0.5,0,none,31,19,Man,Right,
20,1,2,0.31741409999995085,['c'],1,left,none,-99,-99,0.5,0,none,31,19,Man,Right,
21,1,2,0.28483520000008866,['n'],0,left,none,-99,-99,0.5,0,none,31,19,Man,Right,
22,1,2,1.2008452000000034,['c'],0,right,none,-99,-99,0.5,0,none,31,19,Man,Right,
23,1,2,1.8828977999996823,['c'],0,right,none,-99,-99,0.5,0,none,31,19,Man,Right,
0,1,3,0.4004706000000624,['n'],1,right,none,-99,-99,0.5,0,none,31,19,Man,Right,
1,1,3,0.31860790000018824,['n'],0,left,none,-99,-99,0.5,0,none,31,19,Man,Right,
2,1,3,0.30047819999981584,['c'],1,left,none,-99,-99,0.5,0,none,31,19,Man,Right,
3,1,3,0.4673835999997209,['n'],0,left,none,-99,-99,0.5,0,none,31,19,Man,Right,
4,1,3,0.26701050000019677,['c'],0,right,none,-99,-99,0.5,0,none,31,19,Man,Right,
5,1,3,0.46754369999962364,['n'],1,right,none,-99,-99,0.5,0,none,31,19,Man,Right,
6,1,3,0.5507778999999573,['n'],1,right,none,-99,-99,0.5,0,none,31,19,Man,Right,
7,1,3,0.4673577000003206,['n'],0,left,none,-99,-99,0.5,0,none,31,19,Man,Right,
8,1,3,0.34986849999995684,['c'],0,right,none,-99,-99,0.5,0,none,31,19,Man,Right,
9,1,3,0.7842695999997886,['n'],1,right,none,-99,-99,0.5,0,none,31,19,Man,Right,
10,1,3,0.5163940000002185,['n'],0,left,none,-99,-99,0.5,0,none,31,19,Man,Right,
11,1,3,0.36752279999973325,['n'],1,right,none,-99,-99,0.5,0,none,31,19,Man,Right,
12,1,3,0.4003757999998925,['c'],0,right,none,-99,-99,0.5,0,none,31,19,Man,Right,
13,1,3,0.11714860000029148,['n'],1,right,none,-99,-99,0.5,0,none,31,19,Man,Right,
14,1,3,0.49931599999990794,['n'],1,right,none,-99,-99,0.5,0,none,31,19,Man,Right,
15,1,3,0.9826355000000149,['n'],0,left,none,-99,-99,0.5,0,none,31,19,Man,Right,
16,1,3,2.050042299999859,['c'],1,left,none,-99,-99,0.5,0,none,31,19,Man,Right,
17,1,3,0.4678748999999698,['n'],0,left,none,-99,-99,0.5,0,none,31,19,Man,Right,
18,1,3,0.267012700000123,['c'],1,left,none,-99,-99,0.5,0,none,31,19,Man,Right,
19,1,3,0.28372499999977663,['n'],0,left,none,-99,-99,0.5,0,none,31,19,Man,Right,
20,1,3,0.283878900000218,['c'],1,left,none,-99,-99,0.5,0,none,31,19,Man,Right,
21,1,3,0.26682249999976193,['c'],0,right,none,-99,-99,0.5,0,none,31,19,Man,Right,
22,1,3,0.08415950000016892,['n'],0,left,none,-99,-99,0.5,0,none,31,19,Man,Right,
23,1,3,0.28327649999982896,['c'],0,right,none,-99,-99,0.5,0,none,31,19,Man,Right,
0,1,4,0.5342253999997411,['c'],1,left,none,-99,-99,0.5,0,none,31,19,Man,Right,
1,1,4,0.5661107000000811,['n'],0,left,none,-99,-99,0.5,0,none,31,19,Man,Right,
2,1,4,0.34985420000020895,['c'],0,right,none,-99,-99,0.5,0,none,31,19,Man,Right,
3,1,4,2.933353800000077,['c'],0,right,none,-99,-99,0.5,0,none,31,19,Man,Right,
4,1,4,0.5847238000001198,['n'],0,left,none,-99,-99,0.5,0,none,31,19,Man,Right,
5,1,4,0.3663237000000663,['c'],0,right,none,-99,-99,0.5,0,none,31,19,Man,Right,
6,1,4,0.3005268000001706,['c'],0,right,none,-99,-99,0.5,0,none,31,19,Man,Right,
7,1,4,0.3671570999999858,['c'],1,left,none,-99,-99,0.5,0,none,31,19,Man,Right,
8,1,4,0.3002114000000802,['c'],0,right,none,-99,-99,0.5,0,none,31,19,Man,Right,
9,1,4,0.16777060000003985,['n'],0,left,none,-99,-99,0.5,0,none,31,19,Man,Right,
10,1,4,0.5011139999996885,['c'],0,right,none,-99,-99,0.5,0,none,31,19,Man,Right,
11,1,4,0.36765269999978045,['n'],0,left,none,-99,-99,0.5,0,none,31,19,Man,Right,
12,1,4,0.6008834000003844,['c'],0,right,none,-99,-99,0.5,0,none,31,19,Man,Right,
13,1,4,0.7667253999998138,['n'],0,left,none,-99,-99,0.5,0,none,31,19,Man,Right,
14,1,4,0.5494818000001942,['c'],0,right,none,-99,-99,0.5,0,none,31,19,Man,Right,
15,1,4,0.4186570000001666,['n'],1,right,none,-99,-99,0.5,0,none,31,19,Man,Right,
16,1,4,0.4999377999997705,['n'],0,left,none,-99,-99,0.5,0,none,31,19,Man,Right,
17,1,4,0.23370750000003682,['c'],1,left,none,-99,-99,0.5,0,none,31,19,Man,Right,
18,1,4,3.134163400000034,['n'],1,right,none,-99,-99,0.5,0,none,31,19,Man,Right,
19,1,4,0.8672584999999344,['n'],1,right,none,-99,-99,0.5,0,none,31,19,Man,Right,
20,1,4,0.4494108999997479,['c'],1,left,none,-99,-99,0.5,0,none,31,19,Man,Right,
21,1,4,0.2337697000002663,['n'],0,left,none,-99,-99,0.5,0,none,31,19,Man,Right,
22,1,4,0.26702389999991283,['c'],0,right,none,-99,-99,0.5,0,none,31,19,Man,Right,
23,1,4,0.3509830000002694,['n'],0,left,none,-99,-99,0.5,0,none,31,19,Man,Right,
0,1,5,0.3176334000004317,['c'],1,left,none,-99,-99,0.5,0,none,31,19,Man,Right,
1,1,5,0.8001343000000816,['n'],1,right,none,-99,-99,0.5,0,none,31,19,Man,Right,
2,1,5,0.8180733999997756,['n'],1,right,none,-99,-99,0.5,0,none,31,19,Man,Right,
3,1,5,0.5669923000000381,['n'],0,left,none,-99,-99,0.5,0,none,31,19,Man,Right,
4,1,5,0.7167375999997603,['n'],1,right,none,-99,-99,0.5,0,none,31,19,Man,Right,
5,1,5,0.683665700000347,['n'],0,left,none,-99,-99,0.5,0,none,31,19,Man,Right,
6,1,5,1.0343533000000207,['c'],0,right,none,-99,-99,0.5,0,none,31,19,Man,Right,
7,1,5,0.5837194000000636,['n'],1,right,none,-99,-99,0.5,0,none,31,19,Man,Right,
8,1,5,0.4170409000003019,['n'],1,right,none,-99,-99,0.5,0,none,31,19,Man,Right,
9,1,5,0.28453570000010586,['c'],1,left,none,-99,-99,0.5,0,none,31,19,Man,Right,
10,1,5,0.23385430000007545,['n'],0,left,none,-99,-99,0.5,0,none,31,19,Man,Right,
11,1,5,0.2838894999999866,['n'],1,right,none,-99,-99,0.5,0,none,31,19,Man,Right,
12,1,5,0.5999996000000465,['c'],0,right,none,-99,-99,0.5,0,none,31,19,Man,Right,
13,1,5,0.24873799999977564,['n'],0,left,none,-99,-99,0.5,0,none,31,19,Man,Right,
14,1,5,0.2328299999999217,['c'],1,left,none,-99,-99,0.5,0,none,31,19,Man,Right,
15,1,5,0.45151979999991454,['c'],1,left,none,-99,-99,0.5,0,none,31,19,Man,Right,
16,1,5,1.567583900000045,['n'],1,right,none,-99,-99,0.5,0,none,31,19,Man,Right,
17,1,5,0.25167689999989307,['c'],1,left,none,-99,-99,0.5,0,none,31,19,Man,Right,
18,1,5,0.2677733000000444,['n'],0,left,none,-99,-99,0.5,0,none,31,19,Man,Right,
19,1,5,0.30033510000021124,['c'],1,left,none,-99,-99,0.5,0,none,31,19,Man,Right,
20,1,5,0.5843572999997377,['n'],1,right,none,-99,-99,0.5,0,none,31,19,Man,Right,
21,1,5,0.3507633999997779,['c'],0,right,none,-99,-99,0.5,0,none,31,19,Man,Right,
22,1,5,0.2844521000001805,['n'],1,right,none,-99,-99,0.5,0,none,31,19,Man,Right,
23,1,5,0.2163036000001739,['c'],1,left,none,-99,-99,0.5,0,none,31,19,Man,Right,
0,1,6,0.36713289999988774,['n'],1,right,none,-99,-99,0.5,0,none,31,19,Man,Right,
1,1,6,0.4334857999997439,['c'],1,left,none,-99,-99,0.5,0,none,31,19,Man,Right,
2,1,6,0.36709430000018983,['n'],1,right,none,-99,-99,0.5,0,none,31,19,Man,Right,
3,1,6,0.2503833000000668,['c'],1,left,none,-99,-99,0.5,0,none,31,19,Man,Right,
4,1,6,0.3347078000001602,['n'],1,right,none,-99,-99,0.5,0,none,31,19,Man,Right,
5,1,6,0.284627300000011,['c'],1,left,none,-99,-99,0.5,0,none,31,19,Man,Right,
6,1,6,0.25091169999996055,['n'],0,left,none,-99,-99,0.5,0,none,31,19,Man,Right,
7,1,6,0.2661090999999942,['n'],1,right,none,-99,-99,0.5,0,none,31,19,Man,Right,
8,1,6,0.25083530000028986,['c'],0,right,none,-99,-99,0.5,0,none,31,19,Man,Right,
9,1,6,0.20101309999972727,['c'],1,left,none,-99,-99,0.5,0,none,31,19,Man,Right,
10,1,6,0.01772110000001703,['n'],0,left,none,-99,-99,0.5,0,none,31,19,Man,Right,
11,1,6,0.21677930000032575,['n'],1,right,none,-99,-99,0.5,0,none,31,19,Man,Right,
12,1,6,0.2835984999996981,['c'],0,right,none,-99,-99,0.5,0,none,31,19,Man,Right,
13,1,6,0.03329280000025392,['c'],1,left,none,-99,-99,0.5,0,none,31,19,Man,Right,
14,1,6,0.24965210000027582,['n'],0,left,none,-99,-99,0.5,0,none,31,19,Man,Right,
15,1,6,0.23284999999987122,['n'],1,right,none,-99,-99,0.5,0,none,31,19,Man,Right,
16,1,6,0.3325110999999197,['n'],0,left,none,-99,-99,0.5,0,none,31,19,Man,Right,
17,1,6,0.234629699999914,['n'],1,right,none,-99,-99,0.5,0,none,31,19,Man,Right,
18,1,6,0.0673426000003019,['c'],1,left,none,-99,-99,0.5,0,none,31,19,Man,Right,
19,1,6,0.26796699999977136,['n'],1,right,none,-99,-99,0.5,0,none,31,19,Man,Right,
20,1,6,0.06772670000009384,['c'],0,right,none,-99,-99,0.5,0,none,31,19,Man,Right,
21,1,6,0.26749840000002223,['c'],1,left,none,-99,-99,0.5,0,none,31,19,Man,Right,
22,1,6,0.2837954000001446,['n'],0,left,none,-99,-99,0.5,0,none,31,19,Man,Right,
23,1,6,0.1500359000001481,['n'],1,right,none,-99,-99,0.5,0,none,31,19,Man,Right,
0,1,7,0.3342563000001064,['c'],1,left,none,-99,-99,0.5,0,none,31,19,Man,Right,
1,1,7,0.26768230000016047,['n'],1,right,none,-99,-99,0.5,0,none,31,19,Man,Right,
2,1,7,0.3335261000001992,['c'],0,right,none,-99,-99,0.5,0,none,31,19,Man,Right,
3,1,7,0.2498936999995749,['n'],0,left,none,-99,-99,0.5,0,none,31,19,Man,Right,
4,1,7,0.26717920000010054,['c'],1,left,none,-99,-99,0.5,0,none,31,19,Man,Right,
5,1,7,0.2671764000001531,['n'],0,left,none,-99,-99,0.5,0,none,31,19,Man,Right,
6,1,7,0.499563599999874,['n'],0,left,none,-99,-99,0.5,0,none,31,19,Man,Right,
7,1,7,0.39993550000008327,['n'],1,right,none,-99,-99,0.5,0,none,31,19,Man,Right,
8,1,7,0.2003709999999046,['c'],0,right,none,-99,-99,0.5,0,none,31,19,Man,Right,
9,1,7,0.10112160000016956,['n'],0,left,none,-99,-99,0.5,0,none,31,19,Man,Right,
10,1,7,0.3334728999998333,['c'],0,right,none,-99,-99,0.5,0,none,31,19,Man,Right,
11,1,7,0.21811639999987165,['n'],1,right,none,-99,-99,0.5,0,none,31,19,Man,Right,
12,1,7,0.23439060000009704,['c'],0,right,none,-99,-99,0.5,0,none,31,19,Man,Right,
13,1,7,0.3171198000000004,['n'],0,left,none,-99,-99,0.5,0,none,31,19,Man,Right,
14,1,7,0.449035399999957,['c'],0,right,none,-99,-99,0.5,0,none,31,19,Man,Right,
15,1,7,0.3004238999997142,['n'],0,left,none,-99,-99,0.5,0,none,31,19,Man,Right,
16,1,7,0.1681109999999535,['c'],1,left,none,-99,-99,0.5,0,none,31,19,Man,Right,
17,1,7,0.05166759999974602,['n'],1,right,none,-99,-99,0.5,0,none,31,19,Man,Right,
18,1,7,0.249689600000238,['c'],0,right,none,-99,-99,0.5,0,none,31,19,Man,Right,
19,1,7,0.018383099999937258,['c'],0,right,none,-99,-99,0.5,0,none,31,19,Man,Right,
20,1,7,0.23564299999998184,['c'],1,left,none,-99,-99,0.5,0,none,31,19,Man,Right,
21,1,7,0.1488547000003564,['n'],1,right,none,-99,-99,0.5,0,none,31,19,Man,Right,
22,1,7,0.2521116000002621,['c'],1,left,none,-99,-99,0.5,0,none,31,19,Man,Right,
23,1,7,0.23357769999984157,['n'],0,left,none,-99,-99,0.5,0,none,31,19,Man,Right,
0,1,8,0.46828400000003967,['n'],1,right,none,-99,-99,0.5,0,none,31,19,Man,Right,
1,1,8,0.3000040000001718,['c'],0,right,none,-99,-99,0.5,0,none,31,19,Man,Right,
2,1,8,0.8003042000000278,['n'],0,left,none,-99,-99,0.5,0,none,31,19,Man,Right,
3,1,8,0.35070459999997183,['n'],0,left,none,-99,-99,0.5,0,none,31,19,Man,Right,
4,1,8,0.3671806000002107,['c'],1,left,none,-99,-99,0.5,0,none,31,19,Man,Right,
5,1,8,0.5663016999997126,['n'],0,left,none,-99,-99,0.5,0,none,31,19,Man,Right,
6,1,8,0.15132220000032248,['n'],1,right,none,-99,-99,0.5,0,none,31,19,Man,Right,
7,1,8,0.4654985000001943,['c'],1,left,none,-99,-99,0.5,0,none,31,19,Man,Right,
8,1,8,0.25020379999978104,['n'],0,left,none,-99,-99,0.5,0,none,31,19,Man,Right,
9,1,8,0.5845406000003095,['c'],0,right,none,-99,-99,0.5,0,none,31,19,Man,Right,
10,1,8,0.26924959999996645,['c'],0,right,none,-99,-99,0.5,0,none,31,19,Man,Right,
11,1,8,0.3008607000001575,['c'],0,right,none,-99,-99,0.5,0,none,31,19,Man,Right,
12,1,8,0.31643320000011954,['n'],0,left,none,-99,-99,0.5,0,none,31,19,Man,Right,
13,1,8,0.29940579999993133,['c'],0,right,none,-99,-99,0.5,0,none,31,19,Man,Right,
14,1,8,0.8484732999995686,['n'],0,left,none,-99,-99,0.5,0,none,31,19,Man,Right,
15,1,8,0.34944229999973686,['c'],0,right,none,-99,-99,0.5,0,none,31,19,Man,Right,
16,1,8,0.15038929999991524,['n'],0,left,none,-99,-99,0.5,0,none,31,19,Man,Right,
17,1,8,0.2678971000000274,['c'],1,left,none,-99,-99,0.5,0,none,31,19,Man,Right,
18,1,8,0.350649599999997,['n'],1,right,none,-99,-99,0.5,0,none,31,19,Man,Right,
19,1,8,0.06865040000002409,['c'],1,left,none,-99,-99,0.5,0,none,31,19,Man,Right,
20,1,8,0.23354209999979503,['c'],0,right,none,-99,-99,0.5,0,none,31,19,Man,Right,
21,1,8,0.6646878000001379,['n'],1,right,none,-99,-99,0.5,0,none,31,19,Man,Right,
22,1,8,0.9331354999999348,['n'],1,right,none,-99,-99,0.5,0,none,31,19,Man,Right,
23,1,8,0.05022689999987051,['n'],0,left,none,-99,-99,0.5,0,none,31,19,Man,Right,
0,1,9,0.20023519999995187,['n'],0,left,none,-99,-99,0.5,0,none,31,19,Man,Right,
1,1,9,0.38434129999996003,['n'],0,left,none,-99,-99,0.5,0,none,31,19,Man,Right,
2,1,9,0.21676109999998516,['n'],0,left,none,-99,-99,0.5,0,none,31,19,Man,Right,
3,1,9,0.06676040000002104,['c'],0,right,none,-99,-99,0.5,0,none,31,19,Man,Right,
4,1,9,0.516520600000149,['n'],1,right,none,-99,-99,0.5,0,none,31,19,Man,Right,
5,1,9,0.032962599999791564,['c'],0,right,none,-99,-99,0.5,0,none,31,19,Man,Right,
6,1,9,0.4339004000003115,['n'],1,right,none,-99,-99,0.5,0,none,31,19,Man,Right,
7,1,9,0.03447679999999309,['c'],0,right,none,-99,-99,0.5,0,none,31,19,Man,Right,
8,1,9,0.30045560000007754,['n'],1,right,none,-99,-99,0.5,0,none,31,19,Man,Right,
9,1,9,0.06802539999989676,['c'],1,left,none,-99,-99,0.5,0,none,31,19,Man,Right,
10,1,9,0.2843400000001566,['n'],0,left,none,-99,-99,0.5,0,none,31,19,Man,Right,
11,1,9,0.21621559999994133,['n'],0,left,none,-99,-99,0.5,0,none,31,19,Man,Right,
12,1,9,0.26663749999988795,['n'],1,right,none,-99,-99,0.5,0,none,31,19,Man,Right,
13,1,9,0.04988679999996748,['c'],1,left,none,-99,-99,0.5,0,none,31,19,Man,Right,
14,1,9,0.3011225000000195,['n'],1,right,none,-99,-99,0.5,0,none,31,19,Man,Right,
15,1,9,0.5835274000000936,['c'],1,left,none,-99,-99,0.5,0,none,31,19,Man,Right,
16,1,9,0.10022690000005241,['n'],1,right,none,-99,-99,0.5,0,none,31,19,Man,Right,
17,1,9,0.5671782999997959,['n'],0,left,none,-99,-99,0.5,0,none,31,19,Man,Right,
18,1,9,0.26681709999957093,['c'],0,right,none,-99,-99,0.5,0,none,31,19,Man,Right,
19,1,9,0.5003983000001426,['n'],0,left,none,-99,-99,0.5,0,none,31,19,Man,Right,
20,1,9,0.11648070000001098,['c'],1,left,none,-99,-99,0.5,0,none,31,19,Man,Right,
21,1,9,0.3824994000001425,['n'],0,left,none,-99,-99,0.5,0,none,31,19,Man,Right,
22,1,9,0.234259800000018,['c'],0,right,none,-99,-99,0.5,0,none,31,19,Man,Right,
23,1,9,0.2840928000000531,['n'],1,right,none,-99,-99,0.5,0,none,31,19,Man,Right,
0,1,10,0.16595909999978176,['n'],0,left,none,-99,-99,0.5,0,none,31,19,Man,Right,
1,1,10,0.14943339999990712,['c'],0,right,none,-99,-99,0.5,0,none,31,19,Man,Right,
2,1,10,0.4669914000000972,['n'],0,left,none,-99,-99,0.5,0,none,31,19,Man,Right,
3,1,10,0.43460129999994024,['c'],0,right,none,-99,-99,0.5,0,none,31,19,Man,Right,
4,1,10,0.06787690000010116,['n'],1,right,none,-99,-99,0.5,0,none,31,19,Man,Right,
5,1,10,0.1509661000000051,['c'],0,right,none,-99,-99,0.5,0,none,31,19,Man,Right,
6,1,10,0.35098500000003696,['n'],1,right,none,-99,-99,0.5,0,none,31,19,Man,Right,
7,1,10,0.16659100000015314,['n'],0,left,none,-99,-99,0.5,0,none,31,19,Man,Right,
8,1,10,0.2012549000000945,['n'],0,left,none,-99,-99,0.5,0,none,31,19,Man,Right,
9,1,10,0.26657369999975344,['c'],1,left,none,-99,-99,0.5,0,none,31,19,Man,Right,
10,1,10,0.16803110000000743,['n'],0,left,none,-99,-99,0.5,0,none,31,19,Man,Right,
11,1,10,0.21703889999980674,['c'],0,right,none,-99,-99,0.5,0,none,31,19,Man,Right,
12,1,10,0.5002656999999999,['c'],0,right,none,-99,-99,0.5,0,none,31,19,Man,Right,
13,1,10,0.23372859999972206,['n'],1,right,none,-99,-99,0.5,0,none,31,19,Man,Right,
14,1,10,0.45100490000004356,['n'],0,left,none,-99,-99,0.5,0,none,31,19,Man,Right,
15,1,10,0.36695479999980307,['n'],0,left,none,-99,-99,0.5,0,none,31,19,Man,Right,
16,1,10,0.317259599999943,['c'],0,right,none,-99,-99,0.5,0,none,31,19,Man,Right,
17,1,10,0.44897579999997106,['n'],1,right,none,-99,-99,0.5,0,none,31,19,Man,Right,
18,1,10,0.41748699999970995,['c'],1,left,none,-99,-99,0.5,0,none,31,19,Man,Right,
19,1,10,0.28255330000001777,['n'],1,right,none,-99,-99,0.5,0,none,31,19,Man,Right,
20,1,10,0.3492804999996224,['c'],1,left,none,-99,-99,0.5,0,none,31,19,Man,Right,
21,1,10,0.35026010000001406,['n'],1,right,none,-99,-99,0.5,0,none,31,19,Man,Right,
22,1,10,0.7158588000002055,['n'],0,left,none,-99,-99,0.5,0,none,31,19,Man,Right,
23,1,10,0.6655347999999321,['n'],0,left,none,-99,-99,0.5,0,none,31,19,Man,Right,
0,1,11,0.28425659999993513,['c'],1,left,none,-99,-99,0.5,0,none,31,19,Man,Right,
1,1,11,0.3507031000003735,['c'],1,left,none,-99,-99,0.5,0,none,31,19,Man,Right,
2,1,11,0.9491348000001381,['n'],1,right,none,-99,-99,0.5,0,none,31,19,Man,Right,
3,1,11,1.7333914999999251,['n'],1,right,none,-99,-99,0.5,0,none,31,19,Man,Right,
4,1,11,0.501878300000044,['c'],0,right,none,-99,-99,0.5,0,none,31,19,Man,Right,
5,1,11,0.25016310000000885,['n'],1,right,none,-99,-99,0.5,0,none,31,19,Man,Right,
6,1,11,0.2165935000002719,['c'],1,left,none,-99,-99,0.5,0,none,31,19,Man,Right,
7,1,11,0.9502658999999767,['c'],0,right,none,-99,-99,0.5,0,none,31,19,Man,Right,
8,1,11,2.734061499999825,['n'],1,right,none,-99,-99,0.5,0,none,31,19,Man,Right,
9,1,11,1.0163023999998586,['n'],1,right,none,-99,-99,0.5,0,none,31,19,Man,Right,
10,1,11,0.5003764000002775,['c'],1,left,none,-99,-99,0.5,0,none,31,19,Man,Right,
11,1,11,1.068057399999816,['c'],0,right,none,-99,-99,0.5,0,none,31,19,Man,Right,
12,1,11,0.7169933999998648,['n'],1,right,none,-99,-99,0.5,0,none,31,19,Man,Right,
13,1,11,0.7170240000000376,['c'],0,right,none,-99,-99,0.5,0,none,31,19,Man,Right,
14,1,11,0.4159088999999767,['c'],1,left,none,-99,-99,0.5,0,none,31,19,Man,Right,
15,1,11,0.6010176999998293,['n'],1,right,none,-99,-99,0.5,0,none,31,19,Man,Right,
16,1,11,0.21702229999982592,['n'],0,left,none,-99,-99,0.5,0,none,31,19,Man,Right,
17,1,11,0.43434700000034354,['n'],0,left,none,-99,-99,0.5,0,none,31,19,Man,Right,
18,1,11,0.3179683000003024,['n'],0,left,none,-99,-99,0.5,0,none,31,19,Man,Right,
19,1,11,0.2333733000000393,['n'],1,right,none,-99,-99,0.5,0,none,31,19,Man,Right,
20,1,11,0.2506439999997383,['n'],0,left,none,-99,-99,0.5,0,none,31,19,Man,Right,
21,1,11,0.21586489999981495,['n'],0,left,none,-99,-99,0.5,0,none,31,19,Man,Right,
22,1,11,0.15129449999994904,['n'],0,left,none,-99,-99,0.5,0,none,31,19,Man,Right,
23,1,11,0.3676245999999992,['n'],0,left,none,-99,-99,0.5,0,none,31,19,Man,Right,
0,1,12,0.5511943000001338,['c'],1,left,none,-99,-99,0.5,0,none,31,19,Man,Right,
1,1,12,0.3001294999999118,['c'],0,right,none,-99,-99,0.5,0,none,31,19,Man,Right,
2,1,12,0.4338705000000118,['n'],0,left,none,-99,-99,0.5,0,none,31,19,Man,Right,
3,1,12,0.9330620000000636,['c'],0,right,none,-99,-99,0.5,0,none,31,19,Man,Right,
4,1,12,0.5677753999998458,['c'],1,left,none,-99,-99,0.5,0,none,31,19,Man,Right,
5,1,12,0.6836421999996674,['c'],1,left,none,-99,-99,0.5,0,none,31,19,Man,Right,
6,1,12,0.6838438999998289,['n'],0,left,none,-99,-99,0.5,0,none,31,19,Man,Right,
7,1,12,0.7847447999997712,['c'],0,right,none,-99,-99,0.5,0,none,31,19,Man,Right,
8,1,12,0.9817262999999912,['c'],1,left,none,-99,-99,0.5,0,none,31,19,Man,Right,
9,1,12,1.864972299999863,['n'],0,left,none,-99,-99,0.5,0,none,31,19,Man,Right,
10,1,12,0.4845957000002272,['c'],0,right,none,-99,-99,0.5,0,none,31,19,Man,Right,
11,1,12,0.35028490000013335,['n'],1,right,none,-99,-99,0.5,0,none,31,19,Man,Right,
12,1,12,1.049638099999811,['n'],1,right,none,-99,-99,0.5,0,none,31,19,Man,Right,
13,1,12,0.5513649999998051,['c'],1,left,none,-99,-99,0.5,0,none,31,19,Man,Right,
14,1,12,0.3502137999998922,['n'],1,right,none,-99,-99,0.5,0,none,31,19,Man,Right,
15,1,12,0.29990989999987505,['c'],0,right,none,-99,-99,0.5,0,none,31,19,Man,Right,
16,1,12,0.36612620000005336,['n'],1,right,none,-99,-99,0.5,0,none,31,19,Man,Right,
17,1,12,0.33366099999966536,['c'],0,right,none,-99,-99,0.5,0,none,31,19,Man,Right,
18,1,12,0.6837362999999641,['n'],1,right,none,-99,-99,0.5,0,none,31,19,Man,Right,
19,1,12,0.3153789999996661,['c'],1,left,none,-99,-99,0.5,0,none,31,19,Man,Right,
20,1,12,0.4349152999998296,['n'],0,left,none,-99,-99,0.5,0,none,31,19,Man,Right,
21,1,12,0.35115559999985635,['c'],0,right,none,-99,-99,0.5,0,none,31,19,Man,Right,
22,1,12,0.2829620999996223,['n'],0,left,none,-99,-99,0.5,0,none,31,19,Man,Right,
23,1,12,0.599837799999932,['c'],1,left,none,-99,-99,0.5,0,none,31,19,Man,Right,
0,1,13,0.33299699999997756,['n'],0,left,none,-99,-99,0.5,0,none,31,19,Man,Right,
1,1,13,0.050838499999827036,['c'],0,right,none,-99,-99,0.5,0,none,31,19,Man,Right,
2,1,13,0.06666349999977683,['c'],1,left,none,-99,-99,0.5,0,none,31,19,Man,Right,
3,1,13,0.26712029999998776,['c'],1,left,none,-99,-99,0.5,0,none,31,19,Man,Right,
4,1,13,0.30039880000003905,['n'],0,left,none,-99,-99,0.5,0,none,31,19,Man,Right,
5,1,13,0.33248409999987416,['n'],0,left,none,-99,-99,0.5,0,none,31,19,Man,Right,
6,1,13,0.9497286000000713,['n'],0,left,none,-99,-99,0.5,0,none,31,19,Man,Right,
7,1,13,0.4003935000000638,['n'],1,right,none,-99,-99,0.5,0,none,31,19,Man,Right,
8,1,13,0.2838785999997526,['c'],1,left,none,-99,-99,0.5,0,none,31,19,Man,Right,
9,1,13,0.41617079999969064,['n'],1,right,none,-99,-99,0.5,0,none,31,19,Man,Right,
10,1,13,1.416651400000319,['c'],1,left,none,-99,-99,0.5,0,none,31,19,Man,Right,
11,1,13,0.4511035999998967,['c'],0,right,none,-99,-99,0.5,0,none,31,19,Man,Right,
12,1,13,0.2510330999998587,['c'],0,right,none,-99,-99,0.5,0,none,31,19,Man,Right,
13,1,13,1.0669393999996828,['n'],1,right,none,-99,-99,0.5,0,none,31,19,Man,Right,
14,1,13,1.0005333999997674,['c'],0,right,none,-99,-99,0.5,0,none,31,19,Man,Right,
15,1,13,0.601016399999935,['n'],1,right,none,-99,-99,0.5,0,none,31,19,Man,Right,
16,1,13,0.38352069999973537,['n'],1,right,none,-99,-99,0.5,0,none,31,19,Man,Right,
17,1,13,0.6168871999998373,['c'],0,right,none,-99,-99,0.5,0,none,31,19,Man,Right,
18,1,13,0.5342992000000777,['c'],0,right,none,-99,-99,0.5,0,none,31,19,Man,Right,
19,1,13,0.9494913999997152,['c'],1,left,none,-99,-99,0.5,0,none,31,19,Man,Right,
20,1,13,0.28363260000014634,['n'],0,left,none,-99,-99,0.5,0,none,31,19,Man,Right,
21,1,13,0.23268740000003163,['n'],0,left,none,-99,-99,0.5,0,none,31,19,Man,Right,
22,1,13,0.40144450000025245,['n'],0,left,none,-99,-99,0.5,0,none,31,19,Man,Right,
23,1,13,0.2842262000003757,['n'],1,right,none,-99,-99,0.5,0,none,31,19,Man,Right,
0,1,14,0.4845664999998007,['n'],1,right,none,-99,-99,0.5,0,none,31,19,Man,Right,
1,1,14,0.16660349999983737,['n'],0,left,none,-99,-99,0.5,0,none,31,19,Man,Right,
2,1,14,0.41643829999975424,['c'],1,left,none,-99,-99,0.5,0,none,31,19,Man,Right,
3,1,14,0.017182300000058603,['n'],0,left,none,-99,-99,0.5,0,none,31,19,Man,Right,
4,1,14,0.03422159999990981,['c'],0,right,none,-99,-99,0.5,0,none,31,19,Man,Right,
5,1,14,0.1168612999999823,['n'],0,left,none,-99,-99,0.5,0,none,31,19,Man,Right,
6,1,14,0.20285560000002079,['c'],0,right,none,-99,-99,0.5,0,none,31,19,Man,Right,
7,1,14,0.06690930000013395,['n'],0,left,none,-99,-99,0.5,0,none,31,19,Man,Right,
8,1,14,0.26711269999987053,['c'],0,right,none,-99,-99,0.5,0,none,31,19,Man,Right,
9,1,14,0.20101459999978033,['n'],0,left,none,-99,-99,0.5,0,none,31,19,Man,Right,
10,1,14,0.15021410000008473,['n'],1,right,none,-99,-99,0.5,0,none,31,19,Man,Right,
11,1,14,0.25096910000002026,['n'],1,right,none,-99,-99,0.5,0,none,31,19,Man,Right,
12,1,14,0.23296220000020185,['n'],1,right,none,-99,-99,0.5,0,none,31,19,Man,Right,
13,1,14,0.2848674000001665,['c'],1,left,none,-99,-99,0.5,0,none,31,19,Man,Right,
14,1,14,0.2838827999999012,['c'],1,left,none,-99,-99,0.5,0,none,31,19,Man,Right,
15,1,14,0.3507610999999997,['c'],1,left,none,-99,-99,0.5,0,none,31,19,Man,Right,
16,1,14,0.23439330000019254,['n'],0,left,none,-99,-99,0.5,0,none,31,19,Man,Right,
17,1,14,0.16642049999973096,['n'],0,left,none,-99,-99,0.5,0,none,31,19,Man,Right,
18,1,14,0.2667670000000726,['n'],1,right,none,-99,-99,0.5,0,none,31,19,Man,Right,
19,1,14,0.0178235999997014,['n'],0,left,none,-99,-99,0.5,0,none,31,19,Man,Right,
20,1,14,0.4326061000001573,['c'],0,right,none,-99,-99,0.5,0,none,31,19,Man,Right,
21,1,14,0.29961569999977655,['n'],1,right,none,-99,-99,0.5,0,none,31,19,Man,Right,
22,1,14,0.5996396000000459,['c'],0,right,none,-99,-99,0.5,0,none,31,19,Man,Right,
23,1,14,0.41722600000002785,['n'],1,right,none,-99,-99,0.5,0,none,31,19,Man,Right,
0,1,15,0.6158417999999983,['n'],1,right,none,-99,-99,0.5,0,none,31,19,Man,Right,
1,1,15,0.38375319999977364,['c'],1,left,none,-99,-99,0.5,0,none,31,19,Man,Right,
2,1,15,0.38143730000001597,['n'],1,right,none,-99,-99,0.5,0,none,31,19,Man,Right,
3,1,15,0.06698669999968843,['c'],1,left,none,-99,-99,0.5,0,none,31,19,Man,Right,
4,1,15,0.2347159000000829,['n'],0,left,none,-99,-99,0.5,0,none,31,19,Man,Right,
5,1,15,0.4676563999996688,['c'],0,right,none,-99,-99,0.5,0,none,31,19,Man,Right,
6,1,15,1.3010145999996894,['n'],0,left,none,-99,-99,0.5,0,none,31,19,Man,Right,
7,1,15,0.9668462999998155,['c'],1,left,none,-99,-99,0.5,0,none,31,19,Man,Right,
8,1,15,0.8337392999997064,['n'],1,right,none,-99,-99,0.5,0,none,31,19,Man,Right,
9,1,15,0.8006239999999707,['c'],0,right,none,-99,-99,0.5,0,none,31,19,Man,Right,
10,1,15,0.9501265999997486,['c'],0,right,none,-99,-99,0.5,0,none,31,19,Man,Right,
11,1,15,0.5337223999999878,['n'],0,left,none,-99,-99,0.5,0,none,31,19,Man,Right,
12,1,15,0.35024109999994835,['n'],0,left,none,-99,-99,0.5,0,none,31,19,Man,Right,
13,1,15,0.63376930000004,['c'],0,right,none,-99,-99,0.5,0,none,31,19,Man,Right,
14,1,15,0.3679372000001422,['n'],1,right,none,-99,-99,0.5,0,none,31,19,Man,Right,
15,1,15,0.4501978000002964,['n'],0,left,none,-99,-99,0.5,0,none,31,19,Man,Right,
16,1,15,0.5176974000000882,['n'],1,right,none,-99,-99,0.5,0,none,31,19,Man,Right,
17,1,15,0.2668860000003406,['c'],0,right,none,-99,-99,0.5,0,none,31,19,Man,Right,
18,1,15,0.2681702999998379,['n'],0,left,none,-99,-99,0.5,0,none,31,19,Man,Right,
19,1,15,0.033759700000246085,['c'],0,right,none,-99,-99,0.5,0,none,31,19,Man,Right,
20,1,15,0.049053400000047986,['n'],1,right,none,-99,-99,0.5,0,none,31,19,Man,Right,
21,1,15,0.26731919999974707,['n'],0,left,none,-99,-99,0.5,0,none,31,19,Man,Right,
22,1,15,0.18310600000040722,['n'],0,left,none,-99,-99,0.5,0,none,31,19,Man,Right,
23,1,15,0.16816879999987577,['n'],0,left,none,-99,-99,0.5,0,none,31,19,Man,Right,
0,1,16,0.5666435000002821,['n'],0,left,none,-99,-99,0.5,0,none,31,19,Man,Right,
1,1,16,0.2825229000000036,['c'],1,left,none,-99,-99,0.5,0,none,31,19,Man,Right,
2,1,16,0.36700939999991533,['c'],0,right,none,-99,-99,0.5,0,none,31,19,Man,Right,
3,1,16,0.1009380999998939,['c'],0,right,none,-99,-99,0.5,0,none,31,19,Man,Right,
4,1,16,0.017380300000240823,['n'],0,left,none,-99,-99,0.5,0,none,31,19,Man,Right,
5,1,16,0.4845902999995815,['n'],1,right,none,-99,-99,0.5,0,none,31,19,Man,Right,
6,1,16,0.24971060000007128,['n'],1,right,none,-99,-99,0.5,0,none,31,19,Man,Right,
7,1,16,0.10027709999985746,['n'],0,left,none,-99,-99,0.5,0,none,31,19,Man,Right,
8,1,16,0.46713679999993474,['c'],0,right,none,-99,-99,0.5,0,none,31,19,Man,Right,
9,1,16,0.3660709000000679,['n'],0,left,none,-99,-99,0.5,0,none,31,19,Man,Right,
10,1,16,0.16762550000021292,['c'],1,left,none,-99,-99,0.5,0,none,31,19,Man,Right,
11,1,16,0.03398289999995541,['n'],1,right,none,-99,-99,0.5,0,none,31,19,Man,Right,
12,1,16,0.6000332999997227,['c'],0,right,none,-99,-99,0.5,0,none,31,19,Man,Right,
13,1,16,0.33484129999988,['n'],0,left,none,-99,-99,0.5,0,none,31,19,Man,Right,
14,1,16,0.6511233000001084,['c'],1,left,none,-99,-99,0.5,0,none,31,19,Man,Right,
15,1,16,0.28318339999987074,['n'],1,right,none,-99,-99,0.5,0,none,31,19,Man,Right,
16,1,16,2.3007603999999446,['n'],1,right,none,-99,-99,0.5,0,none,31,19,Man,Right,
17,1,16,4.166576300000088,['n'],0,left,none,-99,-99,0.5,0,none,31,19,Man,Right,
18,1,16,0.3505562000000282,['c'],1,left,none,-99,-99,0.5,0,none,31,19,Man,Right,
19,1,16,0.7325866000001042,['n'],0,left,none,-99,-99,0.5,0,none,31,19,Man,Right,
20,1,16,1.8169315999998616,['n'],1,right,none,-99,-99,0.5,0,none,31,19,Man,Right,
21,1,16,0.7831215999999586,['n'],1,right,none,-99,-99,0.5,0,none,31,19,Man,Right,
22,1,16,0.6004369000002043,['n'],1,right,none,-99,-99,0.5,0,none,31,19,Man,Right,
23,1,16,0.6503278000000137,['c'],1,left,none,-99,-99,0.5,0,none,31,19,Man,Right,
0,1,17,0.03448190000017348,['n'],0,left,none,-99,-99,0.5,0,none,31,19,Man,Right,
1,1,17,0.24994879999985642,['n'],0,left,none,-99,-99,0.5,0,none,31,19,Man,Right,
2,1,17,0.2172339999997348,['n'],0,left,none,-99,-99,0.5,0,none,31,19,Man,Right,
3,1,17,0.050860800000009476,['n'],1,right,none,-99,-99,0.5,0,none,31,19,Man,Right,
4,1,17,0.26777579999998125,['n'],0,left,none,-99,-99,0.5,0,none,31,19,Man,Right,
5,1,17,0.30151999999998225,['n'],0,left,none,-99,-99,0.5,0,none,31,19,Man,Right,
6,1,17,0.23511190000044735,['n'],1,right,none,-99,-99,0.5,0,none,31,19,Man,Right,
7,1,17,0.23343100000010963,['n'],0,left,none,-99,-99,0.5,0,none,31,19,Man,Right,
8,1,17,0.3312713000000258,['n'],0,left,none,-99,-99,0.5,0,none,31,19,Man,Right,
9,1,17,0.018441100000018196,['n'],1,right,none,-99,-99,0.5,0,none,31,19,Man,Right,
10,1,17,0.11797359999991386,['n'],0,left,none,-99,-99,0.5,0,none,31,19,Man,Right,
11,1,17,0.050038800000038464,['n'],1,right,none,-99,-99,0.5,0,none,31,19,Man,Right,
12,1,17,0.2844539999996414,['n'],1,right,none,-99,-99,0.5,0,none,31,19,Man,Right,
13,1,17,0.13304650000009133,['n'],1,right,none,-99,-99,0.5,0,none,31,19,Man,Right,
14,1,17,0.29932929999995395,['n'],0,left,none,-99,-99,0.5,0,none,31,19,Man,Right,
15,1,17,0.034159100000124454,['n'],0,left,none,-99,-99,0.5,0,none,31,19,Man,Right,
16,1,17,0.05093799999986004,['n'],0,left,none,-99,-99,0.5,0,none,31,19,Man,Right,
17,1,17,0.016395599999668775,['n'],1,right,none,-99,-99,0.5,0,none,31,19,Man,Right,
18,1,17,0.8683020999997098,['n'],1,right,none,-99,-99,0.5,0,none,31,19,Man,Right,
19,1,17,0.26715680000006614,['n'],0,left,none,-99,-99,0.5,0,none,31,19,Man,Right,
20,1,17,0.4336594999999761,['n'],1,right,none,-99,-99,0.5,0,none,31,19,Man,Right,
21,1,17,0.14897949999976845,['n'],1,right,none,-99,-99,0.5,0,none,31,19,Man,Right,
22,1,17,0.19897949999995035,['n'],1,right,none,-99,-99,0.5,0,none,31,19,Man,Right,
23,1,17,0.43426799999997456,['c'],0,right,none,-99,-99,0.5,0,none,31,19,Man,Right,
0,1,18,0.4837553000002117,['n'],0,left,none,-99,-99,0.5,0,none,31,19,Man,Right,
1,1,18,0.6509224000001268,['n'],1,right,none,-99,-99,0.5,0,none,31,19,Man,Right,
2,1,18,0.583818600000086,['n'],1,right,none,-99,-99,0.5,0,none,31,19,Man,Right,
3,1,18,0.01693169999998645,['n'],0,left,none,-99,-99,0.5,0,none,31,19,Man,Right,
4,1,18,0.2835904999997183,['n'],0,left,none,-99,-99,0.5,0,none,31,19,Man,Right,
5,1,18,0.2331638999999086,['n'],1,right,none,-99,-99,0.5,0,none,31,19,Man,Right,
6,1,18,0.19936849999976403,['n'],1,right,none,-99,-99,0.5,0,none,31,19,Man,Right,
7,1,18,0.03454999999985375,['n'],1,right,none,-99,-99,0.5,0,none,31,19,Man,Right,
8,1,18,0.25030359999982466,['n'],0,left,none,-99,-99,0.5,0,none,31,19,Man,Right,
9,1,18,0.4002292000000125,['n'],1,right,none,-99,-99,0.5,0,none,31,19,Man,Right,
10,1,18,0.1839657000000443,['n'],0,left,none,-99,-99,0.5,0,none,31,19,Man,Right,
11,1,18,0.23453199999994467,['n'],0,left,none,-99,-99,0.5,0,none,31,19,Man,Right,
12,1,18,0.03213569999979882,['n'],0,left,none,-99,-99,0.5,0,none,31,19,Man,Right,
13,1,18,0.2348013999999239,['n'],0,left,none,-99,-99,0.5,0,none,31,19,Man,Right,
14,1,18,0.34903209999993123,['n'],0,left,none,-99,-99,0.5,0,none,31,19,Man,Right,
15,1,18,0.3678690000001552,['n'],0,left,none,-99,-99,0.5,0,none,31,19,Man,Right,
16,1,18,0.09969079999973474,['n'],0,left,none,-99,-99,0.5,0,none,31,19,Man,Right,
17,1,18,0.3172586999999112,['n'],1,right,none,-99,-99,0.5,0,none,31,19,Man,Right,
18,1,18,0.15132449999964592,['n'],1,right,none,-99,-99,0.5,0,none,31,19,Man,Right,
19,1,18,0.48410619999958726,['n'],1,right,none,-99,-99,0.5,0,none,31,19,Man,Right,
20,1,18,0.5005129000001034,['n'],1,right,none,-99,-99,0.5,0,none,31,19,Man,Right,
21,1,18,0.20017330000018774,['n'],1,right,none,-99,-99,0.5,0,none,31,19,Man,Right,
22,1,18,0.21789059999991878,['n'],1,right,none,-99,-99,0.5,0,none,31,19,Man,Right,
23,1,18,0.16714159999992262,['n'],0,left,none,-99,-99,0.5,0,none,31,19,Man,Right,
0,1,19,0.23464560000002166,['n'],1,right,none,-99,-99,0.5,0,none,31,19,Man,Right,
1,1,19,0.11716740000019854,['n'],0,left,none,-99,-99,0.5,0,none,31,19,Man,Right,
2,1,19,0.3992048000000068,['n'],0,left,none,-99,-99,0.5,0,none,31,19,Man,Right,
3,1,19,0.21711909999976342,['n'],0,left,none,-99,-99,0.5,0,none,31,19,Man,Right,
4,1,19,0.1169924999999239,['n'],1,right,none,-99,-99,0.5,0,none,31,19,Man,Right,
5,1,19,0.14948139999978594,['n'],0,left,none,-99,-99,0.5,0,none,31,19,Man,Right,
6,1,19,0.1338077999998859,['n'],1,right,none,-99,-99,0.5,0,none,31,19,Man,Right,
7,1,19,0.06714819999979227,['n'],0,left,none,-99,-99,0.5,0,none,31,19,Man,Right,
8,1,19,0.03342629999997371,['n'],1,right,none,-99,-99,0.5,0,none,31,19,Man,Right,
9,1,19,0.26824420000002647,['n'],0,left,none,-99,-99,0.5,0,none,31,19,Man,Right,
10,1,19,0.4676918000000114,['n'],0,left,none,-99,-99,0.5,0,none,31,19,Man,Right,
11,1,19,0.23390109999991182,['n'],0,left,none,-99,-99,0.5,0,none,31,19,Man,Right,
12,1,19,0.23374609999973472,['n'],1,right,none,-99,-99,0.5,0,none,31,19,Man,Right,
13,1,19,0.2498726999997416,['n'],1,right,none,-99,-99,0.5,0,none,31,19,Man,Right,
14,1,19,0.23418160000028365,['n'],0,left,none,-99,-99,0.5,0,none,31,19,Man,Right,
15,1,19,0.14927110000007815,['n'],0,left,none,-99,-99,0.5,0,none,31,19,Man,Right,
16,1,19,0.46692559999974037,['n'],1,right,none,-99,-99,0.5,0,none,31,19,Man,Right,
17,1,19,0.23367370000005394,['n'],1,right,none,-99,-99,0.5,0,none,31,19,Man,Right,
18,1,19,0.06768269999975018,['n'],1,right,none,-99,-99,0.5,0,none,31,19,Man,Right,
19,1,19,0.26563119999991613,['n'],1,right,none,-99,-99,0.5,0,none,31,19,Man,Right,
20,1,19,0.0339177999999265,['n'],1,right,none,-99,-99,0.5,0,none,31,19,Man,Right,
21,1,19,0.11711490000016056,['n'],0,left,none,-99,-99,0.5,0,none,31,19,Man,Right,
22,1,19,0.4175414000001183,['n'],0,left,none,-99,-99,0.5,0,none,31,19,Man,Right,
23,1,19,0.1994712000000618,['n'],1,right,none,-99,-99,0.5,0,none,31,19,Man,Right,
0,1,20,0.43332699999973556,['n'],0,left,none,-99,-99,0.5,0,none,31,19,Man,Right,
1,1,20,0.033476100000370934,['n'],1,right,none,-99,-99,0.5,0,none,31,19,Man,Right,
2,1,20,0.25058390000003783,['n'],0,left,none,-99,-99,0.5,0,none,31,19,Man,Right,
3,1,20,0.16810080000004746,['n'],1,right,none,-99,-99,0.5,0,none,31,19,Man,Right,
4,1,20,0.2841118999999708,['n'],0,left,none,-99,-99,0.5,0,none,31,19,Man,Right,
5,1,20,0.31578300000001036,['n'],1,right,none,-99,-99,0.5,0,none,31,19,Man,Right,
6,1,20,0.30059179999989283,['n'],0,left,none,-99,-99,0.5,0,none,31,19,Man,Right,
7,1,20,0.2521174999997129,['n'],1,right,none,-99,-99,0.5,0,none,31,19,Man,Right,
8,1,20,0.4837083000002167,['n'],1,right,none,-99,-99,0.5,0,none,31,19,Man,Right,
9,1,20,0.23395659999960117,['n'],0,left,none,-99,-99,0.5,0,none,31,19,Man,Right,
10,1,20,0.28375350000032995,['n'],1,right,none,-99,-99,0.5,0,none,31,19,Man,Right,
11,1,20,0.2672077000001991,['n'],0,left,none,-99,-99,0.5,0,none,31,19,Man,Right,
12,1,20,0.24928159999990385,['n'],1,right,none,-99,-99,0.5,0,none,31,19,Man,Right,
13,1,20,0.250317399999858,['n'],0,left,none,-99,-99,0.5,0,none,31,19,Man,Right,
14,1,20,0.2836652999999387,['n'],0,left,none,-99,-99,0.5,0,none,31,19,Man,Right,
15,1,20,0.13351419999980862,['n'],0,left,none,-99,-99,0.5,0,none,31,19,Man,Right,
16,1,20,0.3172042999999576,['n'],0,left,none,-99,-99,0.5,0,none,31,19,Man,Right,
17,1,20,0.06703340000012759,['n'],0,left,none,-99,-99,0.5,0,none,31,19,Man,Right,
18,1,20,0.4836009999999078,['n'],1,right,none,-99,-99,0.5,0,none,31,19,Man,Right,
19,1,20,0.33433549999972456,['n'],1,right,none,-99,-99,0.5,0,none,31,19,Man,Right,
20,1,20,0.26701679999996486,['n'],0,left,none,-99,-99,0.5,0,none,31,19,Man,Right,
21,1,20,0.20039709999991828,['n'],1,right,none,-99,-99,0.5,0,none,31,19,Man,Right,
22,1,20,0.23253539999996065,['n'],1,right,none,-99,-99,0.5,0,none,31,19,Man,Right,
23,1,20,0.16706329999988156,['n'],1,right,none,-99,-99,0.5,0,none,31,19,Man,Right,
0,1,21,0.28363130000025194,['n'],0,left,none,-99,-99,0.5,0,none,31,19,Man,Right,
1,1,21,0.2171995999997307,['n'],1,right,none,-99,-99,0.5,0,none,31,19,Man,Right,
2,1,21,0.2329276000000391,['n'],0,left,none,-99,-99,0.5,0,none,31,19,Man,Right,
3,1,21,0.21901880000041274,['n'],1,right,none,-99,-99,0.5,0,none,31,19,Man,Right,
4,1,21,0.2345153000001119,['n'],0,left,none,-99,-99,0.5,0,none,31,19,Man,Right,
5,1,21,0.2348245000002862,['n'],1,right,none,-99,-99,0.5,0,none,31,19,Man,Right,
6,1,21,0.1002904000001763,['n'],0,left,none,-99,-99,0.5,0,none,31,19,Man,Right,
7,1,21,0.06696170000031998,['n'],0,left,none,-99,-99,0.5,0,none,31,19,Man,Right,
8,1,21,0.21581049999986135,['n'],0,left,none,-99,-99,0.5,0,none,31,19,Man,Right,
9,1,21,0.09958350000033533,['n'],0,left,none,-99,-99,0.5,0,none,31,19,Man,Right,
10,1,21,0.11685680000027787,['n'],1,right,none,-99,-99,0.5,0,none,31,19,Man,Right,
11,1,21,0.033582700000351906,['n'],0,left,none,-99,-99,0.5,0,none,31,19,Man,Right,
12,1,21,0.06721680000009655,['n'],1,right,none,-99,-99,0.5,0,none,31,19,Man,Right,
13,1,21,0.017033600000104343,['n'],1,right,none,-99,-99,0.5,0,none,31,19,Man,Right,
14,1,21,0.6826682999999321,['n'],1,right,none,-99,-99,0.5,0,none,31,19,Man,Right,
15,1,21,0.23441860000002634,['n'],0,left,none,-99,-99,0.5,0,none,31,19,Man,Right,
16,1,21,0.06791479999992589,['n'],1,right,none,-99,-99,0.5,0,none,31,19,Man,Right,
17,1,21,0.032906699999784905,['n'],1,right,none,-99,-99,0.5,0,none,31,19,Man,Right,
18,1,21,0.1836014000000432,['n'],1,right,none,-99,-99,0.5,0,none,31,19,Man,Right,
19,1,21,0.21642540000038935,['n'],0,left,none,-99,-99,0.5,0,none,31,19,Man,Right,
20,1,21,0.09835070000008272,['n'],1,right,none,-99,-99,0.5,0,none,31,19,Man,Right,
21,1,21,0.06796919999987949,['n'],0,left,none,-99,-99,0.5,0,none,31,19,Man,Right,
22,1,21,0.21675370000002658,['n'],1,right,none,-99,-99,0.5,0,none,31,19,Man,Right,
23,1,21,0.2672930000003362,['n'],0,left,none,-99,-99,0.5,0,none,31,19,Man,Right,
0,1,22,0.23444359999984954,['n'],1,right,none,-99,-99,0.5,0,none,31,19,Man,Right,
1,1,22,0.06769590000021708,['n'],0,left,none,-99,-99,0.5,0,none,31,19,Man,Right,
2,1,22,0.10085959999969418,['n'],0,left,none,-99,-99,0.5,0,none,31,19,Man,Right,
3,1,22,0.3664837000001171,['n'],0,left,none,-99,-99,0.5,0,none,31,19,Man,Right,
4,1,22,0.050732000000152766,['n'],1,right,none,-99,-99,0.5,0,none,31,19,Man,Right,
5,1,22,0.13461559999996098,['n'],1,right,none,-99,-99,0.5,0,none,31,19,Man,Right,
6,1,22,0.05025599999999031,['n'],1,right,none,-99,-99,0.5,0,none,31,19,Man,Right,
7,1,22,0.1503419999999096,['n'],0,left,none,-99,-99,0.5,0,none,31,19,Man,Right,
8,1,22,0.10133820000010019,['n'],0,left,none,-99,-99,0.5,0,none,31,19,Man,Right,
9,1,22,0.2001058999999259,['n'],1,right,none,-99,-99,0.5,0,none,31,19,Man,Right,
10,1,22,0.05035889999999199,['n'],0,left,none,-99,-99,0.5,0,none,31,19,Man,Right,
11,1,22,0.18440210000017032,['n'],1,right,none,-99,-99,0.5,0,none,31,19,Man,Right,
12,1,22,0.13344780000034007,['n'],1,right,none,-99,-99,0.5,0,none,31,19,Man,Right,
13,1,22,0.3676439000000755,['n'],1,right,none,-99,-99,0.5,0,none,31,19,Man,Right,
14,1,22,0.19972489999963727,['c'],1,left,none,-99,-99,0.5,0,none,31,19,Man,Right,
15,1,22,0.38402380000025005,['n'],1,right,none,-99,-99,0.5,0,none,31,19,Man,Right,
16,1,22,0.23403770000004442,['n'],0,left,none,-99,-99,0.5,0,none,31,19,Man,Right,
17,1,22,0.11884620000000723,['n'],0,left,none,-99,-99,0.5,0,none,31,19,Man,Right,
18,1,22,0.45045070000014675,['n'],1,right,none,-99,-99,0.5,0,none,31,19,Man,Right,
19,1,22,0.2984473000001344,['n'],1,right,none,-99,-99,0.5,0,none,31,19,Man,Right,
20,1,22,0.3006401999996342,['n'],1,right,none,-99,-99,0.5,0,none,31,19,Man,Right,
21,1,22,0.20008800000005067,['n'],0,left,none,-99,-99,0.5,0,none,31,19,Man,Right,
22,1,22,0.21699900000021444,['n'],0,left,none,-99,-99,0.5,0,none,31,19,Man,Right,
23,1,22,0.06877840000015567,['n'],0,left,none,-99,-99,0.5,0,none,31,19,Man,Right,
0,1,23,0.16710190000003422,['n'],0,left,none,-99,-99,0.5,0,none,31,19,Man,Right,
1,1,23,0.1844746000001578,['n'],1,right,none,-99,-99,0.5,0,none,31,19,Man,Right,
2,1,23,0.23407829999996466,['n'],0,left,none,-99,-99,0.5,0,none,31,19,Man,Right,
3,1,23,0.16827920000014274,['n'],0,left,none,-99,-99,0.5,0,none,31,19,Man,Right,
4,1,23,0.05041650000021036,['n'],0,left,none,-99,-99,0.5,0,none,31,19,Man,Right,
5,1,23,0.18365300000004936,['n'],1,right,none,-99,-99,0.5,0,none,31,19,Man,Right,
6,1,23,0.0322664000000259,['n'],1,right,none,-99,-99,0.5,0,none,31,19,Man,Right,
7,1,23,0.06772440000031565,['n'],1,right,none,-99,-99,0.5,0,none,31,19,Man,Right,
8,1,23,0.10145150000016656,['n'],1,right,none,-99,-99,0.5,0,none,31,19,Man,Right,
9,1,23,0.03455279999980121,['n'],0,left,none,-99,-99,0.5,0,none,31,19,Man,Right,
10,1,23,0.11691219999966052,['n'],0,left,none,-99,-99,0.5,0,none,31,19,Man,Right,
11,1,23,0.018047800000204006,['n'],1,right,none,-99,-99,0.5,0,none,31,19,Man,Right,
12,1,23,0.5849361000000499,['n'],1,right,none,-99,-99,0.5,0,none,31,19,Man,Right,
13,1,23,0.16721989999996367,['n'],1,right,none,-99,-99,0.5,0,none,31,19,Man,Right,
14,1,23,0.16665310000007594,['n'],1,right,none,-99,-99,0.5,0,none,31,19,Man,Right,
15,1,23,0.15122149999979229,['n'],0,left,none,-99,-99,0.5,0,none,31,19,Man,Right,
16,1,23,0.23493969999981346,['n'],0,left,none,-99,-99,0.5,0,none,31,19,Man,Right,
17,1,23,0.14931430000024193,['n'],1,right,none,-99,-99,0.5,0,none,31,19,Man,Right,
18,1,23,0.2512235999997756,['n'],0,left,none,-99,-99,0.5,0,none,31,19,Man,Right,
19,1,23,0.18317300000035175,['n'],1,right,none,-99,-99,0.5,0,none,31,19,Man,Right,
20,1,23,0.1687418000001344,['n'],1,right,none,-99,-99,0.5,0,none,31,19,Man,Right,
21,1,23,0.16654800000014802,['n'],0,left,none,-99,-99,0.5,0,none,31,19,Man,Right,
22,1,23,0.21704130000034638,['n'],0,left,none,-99,-99,0.5,0,none,31,19,Man,Right,
23,1,23,0.2503861999998662,['n'],0,left,none,-99,-99,0.5,0,none,31,19,Man,Right,
0,1,24,0.3847572999998192,['n'],0,left,none,-99,-99,0.5,0,none,31,19,Man,Right,
1,1,24,0.2493320999997195,['n'],1,right,none,-99,-99,0.5,0,none,31,19,Man,Right,
2,1,24,0.08415030000014667,['n'],1,right,none,-99,-99,0.5,0,none,31,19,Man,Right,
3,1,24,0.15001870000014605,['c'],0,right,none,-99,-99,0.5,0,none,31,19,Man,Right,
4,1,24,0.15063359999976456,['c'],1,left,none,-99,-99,0.5,0,none,31,19,Man,Right,
5,1,24,0.018423499999698834,['n'],1,right,none,-99,-99,0.5,0,none,31,19,Man,Right,
6,1,24,0.0677507999998852,['n'],1,right,none,-99,-99,0.5,0,none,31,19,Man,Right,
7,1,24,0.18360460000030798,['n'],0,left,none,-99,-99,0.5,0,none,31,19,Man,Right,
8,1,24,0.1846440999997867,['n'],1,right,none,-99,-99,0.5,0,none,31,19,Man,Right,
9,1,24,0.3995445999998992,['c'],1,left,none,-99,-99,0.5,0,none,31,19,Man,Right,
10,1,24,0.28260739999996076,['n'],0,left,none,-99,-99,0.5,0,none,31,19,Man,Right,
11,1,24,0.35042440000006536,['n'],1,right,none,-99,-99,0.5,0,none,31,19,Man,Right,
12,1,24,0.20061230000010255,['n'],1,right,none,-99,-99,0.5,0,none,31,19,Man,Right,
13,1,24,0.2512993999998798,['c'],0,right,none,-99,-99,0.5,0,none,31,19,Man,Right,
14,1,24,0.28399949999993623,['c'],0,right,none,-99,-99,0.5,0,none,31,19,Man,Right,
15,1,24,0.21703100000013364,['c'],1,left,none,-99,-99,0.5,0,none,31,19,Man,Right,
16,1,24,0.11680240000032427,['c'],1,left,none,-99,-99,0.5,0,none,31,19,Man,Right,
17,1,24,0.2832794000000831,['c'],1,left,none,-99,-99,0.5,0,none,31,19,Man,Right,
18,1,24,0.23234260000026552,['n'],0,left,none,-99,-99,0.5,0,none,31,19,Man,Right,
19,1,24,0.18292990000009013,['n'],0,left,none,-99,-99,0.5,0,none,31,19,Man,Right,
20,1,24,0.20036659999959738,['n'],1,right,none,-99,-99,0.5,0,none,31,19,Man,Right,
21,1,24,0.13325829999985217,['n'],1,right,none,-99,-99,0.5,0,none,31,19,Man,Right,
22,1,24,0.05033980000007432,['n'],0,left,none,-99,-99,0.5,0,none,31,19,Man,Right,
23,1,24,0.08400699999992867,['c'],1,left,none,-99,-99,0.5,0,none,31,19,Man,Right,
0,1,25,0.31809330000032787,['n'],0,left,none,-99,-99,0.5,0,none,31,19,Man,Right,
1,1,25,0.16749439999966853,['n'],1,right,none,-99,-99,0.5,0,none,31,19,Man,Right,
2,1,25,0.21611709999979212,['n'],0,left,none,-99,-99,0.5,0,none,31,19,Man,Right,
3,1,25,0.08422459999974308,['n'],1,right,none,-99,-99,0.5,0,none,31,19,Man,Right,
4,1,25,0.26680800000031013,['n'],0,left,none,-99,-99,0.5,0,none,31,19,Man,Right,
5,1,25,0.050221200000123645,['n'],1,right,none,-99,-99,0.5,0,none,31,19,Man,Right,
6,1,25,0.25090810000028796,['n'],0,left,none,-99,-99,0.5,0,none,31,19,Man,Right,
7,1,25,0.20175810000000638,['n'],0,left,none,-99,-99,0.5,0,none,31,19,Man,Right,
8,1,25,0.2338383999999678,['n'],0,left,none,-99,-99,0.5,0,none,31,19,Man,Right,
9,1,25,0.20074180000028718,['n'],1,right,none,-99,-99,0.5,0,none,31,19,Man,Right,
10,1,25,0.06671730000016396,['n'],0,left,none,-99,-99,0.5,0,none,31,19,Man,Right,
11,1,25,0.09944080000013855,['n'],1,right,none,-99,-99,0.5,0,none,31,19,Man,Right,
12,1,25,0.033279400000083115,['n'],0,left,none,-99,-99,0.5,0,none,31,19,Man,Right,
13,1,25,0.28365560000020196,['n'],1,right,none,-99,-99,0.5,0,none,31,19,Man,Right,
14,1,25,0.18401640000001862,['n'],0,left,none,-99,-99,0.5,0,none,31,19,Man,Right,
15,1,25,0.06714299999975992,['n'],1,right,none,-99,-99,0.5,0,none,31,19,Man,Right,
16,1,25,0.23433139999997366,['n'],0,left,none,-99,-99,0.5,0,none,31,19,Man,Right,
17,1,25,0.16798210000024483,['n'],1,right,none,-99,-99,0.5,0,none,31,19,Man,Right,
18,1,25,0.20091619999993782,['n'],0,left,none,-99,-99,0.5,0,none,31,19,Man,Right,
19,1,25,0.15026239999997415,['n'],1,right,none,-99,-99,0.5,0,none,31,19,Man,Right,
20,1,25,0.03448849999995218,['n'],1,right,none,-99,-99,0.5,0,none,31,19,Man,Right,
21,1,25,0.5340100000003076,['n'],1,right,none,-99,-99,0.5,0,none,31,19,Man,Right,
22,1,25,0.16564500000004045,['n'],1,right,none,-99,-99,0.5,0,none,31,19,Man,Right,
23,1,25,0.2679579000000558,['c'],1,left,none,-99,-99,0.5,0,none,31,19,Man,Right,
0,1,26,0.483067299999675,['n'],0,left,none,-99,-99,0.5,0,none,31,19,Man,Right,
1,1,26,0.10079739999991943,['n'],1,right,none,-99,-99,0.5,0,none,31,19,Man,Right,
2,1,26,0.13532309999982317,['n'],0,left,none,-99,-99,0.5,0,none,31,19,Man,Right,
3,1,26,0.26580490000014834,['n'],1,right,none,-99,-99,0.5,0,none,31,19,Man,Right,
4,1,26,0.23336680000011256,['n'],1,right,none,-99,-99,0.5,0,none,31,19,Man,Right,
5,1,26,0.03410699999994904,['n'],1,right,none,-99,-99,0.5,0,none,31,19,Man,Right,
6,1,26,0.2336672000001272,['n'],0,left,none,-99,-99,0.5,0,none,31,19,Man,Right,
7,1,26,0.40076770000041506,['n'],0,left,none,-99,-99,0.5,0,none,31,19,Man,Right,
8,1,26,0.25039590000005774,['n'],1,right,none,-99,-99,0.5,0,none,31,19,Man,Right,
9,1,26,0.18426589999990028,['n'],1,right,none,-99,-99,0.5,0,none,31,19,Man,Right,
10,1,26,0.08316009999998641,['c'],0,right,none,-99,-99,0.5,0,none,31,19,Man,Right,
11,1,26,0.25091799999972864,['c'],1,left,none,-99,-99,0.5,0,none,31,19,Man,Right,
12,1,26,0.23472769999989396,['c'],0,right,none,-99,-99,0.5,0,none,31,19,Man,Right,
13,1,26,0.4003325000003315,['n'],0,left,none,-99,-99,0.5,0,none,31,19,Man,Right,
14,1,26,0.3008441000001767,['n'],0,left,none,-99,-99,0.5,0,none,31,19,Man,Right,
15,1,26,0.10127009999996517,['c'],0,right,none,-99,-99,0.5,0,none,31,19,Man,Right,
16,1,26,0.2505434999998215,['c'],1,left,none,-99,-99,0.5,0,none,31,19,Man,Right,
17,1,26,0.23440279999977065,['c'],1,left,none,-99,-99,0.5,0,none,31,19,Man,Right,
18,1,26,0.11666109999987384,['c'],1,left,none,-99,-99,0.5,0,none,31,19,Man,Right,
19,1,26,0.11829729999999472,['n'],1,right,none,-99,-99,0.5,0,none,31,19,Man,Right,
20,1,26,0.2507864999997764,['n'],1,right,none,-99,-99,0.5,0,none,31,19,Man,Right,
21,1,26,0.15134989999978643,['n'],1,right,none,-99,-99,0.5,0,none,31,19,Man,Right,
22,1,26,0.15112309999994977,['c'],1,left,none,-99,-99,0.5,0,none,31,19,Man,Right,
23,1,26,0.11695830000007845,['c'],1,left,none,-99,-99,0.5,0,none,31,19,Man,Right,
0,1,27,0.3345024000000194,['n'],1,right,none,-99,-99,0.5,0,none,31,19,Man,Right,
1,1,27,0.068149799999901,['c'],1,left,none,-99,-99,0.5,0,none,31,19,Man,Right,
2,1,27,0.15048729999989519,['n'],1,right,none,-99,-99,0.5,0,none,31,19,Man,Right,
3,1,27,0.1339364000000387,['n'],0,left,none,-99,-99,0.5,0,none,31,19,Man,Right,
4,1,27,0.06779420000020764,['n'],0,left,none,-99,-99,0.5,0,none,31,19,Man,Right,
5,1,27,0.3836599000001115,['n'],0,left,none,-99,-99,0.5,0,none,31,19,Man,Right,
6,1,27,0.21692570000004707,['n'],1,right,none,-99,-99,0.5,0,none,31,19,Man,Right,
7,1,27,0.09828340000012759,['n'],1,right,none,-99,-99,0.5,0,none,31,19,Man,Right,
8,1,27,0.251982599999792,['n'],0,left,none,-99,-99,0.5,0,none,31,19,Man,Right,
9,1,27,0.033280500000273605,['c'],1,left,none,-99,-99,0.5,0,none,31,19,Man,Right,
10,1,27,0.08426609999969514,['c'],0,right,none,-99,-99,0.5,0,none,31,19,Man,Right,
11,1,27,0.21644240000023274,['n'],1,right,none,-99,-99,0.5,0,none,31,19,Man,Right,
12,1,27,0.06717939999998634,['c'],1,left,none,-99,-99,0.5,0,none,31,19,Man,Right,
13,1,27,0.21855069999992338,['c'],1,left,none,-99,-99,0.5,0,none,31,19,Man,Right,
14,1,27,0.11694859999988694,['n'],0,left,none,-99,-99,0.5,0,none,31,19,Man,Right,
15,1,27,0.2505427000000964,['n'],1,right,none,-99,-99,0.5,0,none,31,19,Man,Right,
16,1,27,0.1332139000001007,['n'],0,left,none,-99,-99,0.5,0,none,31,19,Man,Right,
17,1,27,0.25062370000023293,['n'],1,right,none,-99,-99,0.5,0,none,31,19,Man,Right,
18,1,27,0.23373829999991358,['n'],1,right,none,-99,-99,0.5,0,none,31,19,Man,Right,
19,1,27,0.25161819999993895,['n'],1,right,none,-99,-99,0.5,0,none,31,19,Man,Right,
20,1,27,0.23411189999978887,['n'],1,right,none,-99,-99,0.5,0,none,31,19,Man,Right,
21,1,27,0.05038169999988895,['n'],1,right,none,-99,-99,0.5,0,none,31,19,Man,Right,
22,1,27,0.11768649999976333,['n'],0,left,none,-99,-99,0.5,0,none,31,19,Man,Right,
23,1,27,0.2685279000002083,['n'],0,left,none,-99,-99,0.5,0,none,31,19,Man,Right,
0,1,28,0.13503209999998944,['n'],1,right,none,-99,-99,0.5,0,none,31,19,Man,Right,
1,1,28,0.35047020000001794,['n'],0,left,none,-99,-99,0.5,0,none,31,19,Man,Right,
2,1,28,0.31629290000000765,['n'],0,left,none,-99,-99,0.5,0,none,31,19,Man,Right,
3,1,28,0.084279400000014,['c'],1,left,none,-99,-99,0.5,0,none,31,19,Man,Right,
4,1,28,0.1003845000000183,['n'],1,right,none,-99,-99,0.5,0,none,31,19,Man,Right,
5,1,28,0.10059969999974783,['c'],1,left,none,-99,-99,0.5,0,none,31,19,Man,Right,
6,1,28,0.017709499999909895,"['n', 'c']",1,right,none,-99,-99,0.5,0,none,31,19,Man,Right,
7,1,28,0.2169317000002593,"['n', 'c']",1,right,none,-99,-99,0.5,0,none,31,19,Man,Right,
8,1,28,0.018504799999846,"['n', 'c']",1,right,none,-99,-99,0.5,0,none,31,19,Man,Right,
9,1,28,0.10063829999990048,['c'],1,left,none,-99,-99,0.5,0,none,31,19,Man,Right,
10,1,28,0.06825499999968088,"['n', 'c']",0,left,none,-99,-99,0.5,0,none,31,19,Man,Right,
11,1,28,0.016214100000070175,['c'],0,right,none,-99,-99,0.5,0,none,31,19,Man,Right,
12,1,28,0.06673109999974258,['n'],1,right,none,-99,-99,0.5,0,none,31,19,Man,Right,
13,1,28,0.04989389999991545,['n'],1,right,none,-99,-99,0.5,0,none,31,19,Man,Right,
14,1,28,0.06717929999967964,['n'],0,left,none,-99,-99,0.5,0,none,31,19,Man,Right,
15,1,28,0.01654580000013084,['c'],1,left,none,-99,-99,0.5,0,none,31,19,Man,Right,
16,1,28,0.43299119999983304,['n'],1,right,none,-99,-99,0.5,0,none,31,19,Man,Right,
17,1,28,0.4011126000000331,['n'],0,left,none,-99,-99,0.5,0,none,31,19,Man,Right,
18,1,28,0.23410250000006272,['c'],0,right,none,-99,-99,0.5,0,none,31,19,Man,Right,
19,1,28,0.015565899999728572,['n'],1,right,none,-99,-99,0.5,0,none,31,19,Man,Right,
20,1,28,0.1831902000003538,['n'],1,right,none,-99,-99,0.5,0,none,31,19,Man,Right,
21,1,28,0.10100479999982781,['c'],1,left,none,-99,-99,0.5,0,none,31,19,Man,Right,
22,1,28,0.11565449999989141,['n'],0,left,none,-99,-99,0.5,0,none,31,19,Man,Right,
23,1,28,0.08426989999998113,['n'],0,left,none,-99,-99,0.5,0,none,31,19,Man,Right,
0,1,29,0.26732899999979054,['n'],1,right,none,-99,-99,0.5,0,none,31,19,Man,Right,
1,1,29,0.14954420000003665,['n'],1,right,none,-99,-99,0.5,0,none,31,19,Man,Right,
2,1,29,0.014711499999975786,['c'],1,left,none,-99,-99,0.5,0,none,31,19,Man,Right,
3,1,29,0.2011387000002287,"['n', 'c']",0,left,none,-99,-99,0.5,0,none,31,19,Man,Right,
4,1,29,0.05064169999968726,['n'],1,right,none,-99,-99,0.5,0,none,31,19,Man,Right,
5,1,29,0.24985460000016246,['n'],0,left,none,-99,-99,0.5,0,none,31,19,Man,Right,
6,1,29,0.2174761999999646,['c'],1,left,none,-99,-99,0.5,0,none,31,19,Man,Right,
7,1,29,0.05208479999964766,['c'],0,right,none,-99,-99,0.5,0,none,31,19,Man,Right,
8,1,29,0.25116720000005444,['n'],0,left,none,-99,-99,0.5,0,none,31,19,Man,Right,
9,1,29,0.03456110000024637,['n'],0,left,none,-99,-99,0.5,0,none,31,19,Man,Right,
10,1,29,0.18531269999994038,['n'],0,left,none,-99,-99,0.5,0,none,31,19,Man,Right,
11,1,29,0.300439400000414,"['n', 'c']",0,left,none,-99,-99,0.5,0,none,31,19,Man,Right,
12,1,29,0.16822030000002997,['c'],0,right,none,-99,-99,0.5,0,none,31,19,Man,Right,
13,1,29,0.11667179999994914,['n'],1,right,none,-99,-99,0.5,0,none,31,19,Man,Right,
14,1,29,0.08340840000028038,['n'],1,right,none,-99,-99,0.5,0,none,31,19,Man,Right,
15,1,29,0.20093619999988732,['n'],1,right,none,-99,-99,0.5,0,none,31,19,Man,Right,
16,1,29,0.21799160000000484,['n'],0,left,none,-99,-99,0.5,0,none,31,19,Man,Right,
17,1,29,0.1998293999999987,"['n', 'c']",0,left,none,-99,-99,0.5,0,none,31,19,Man,Right,
18,1,29,0.66642580000007,['n'],0,left,none,-99,-99,0.5,0,none,31,19,Man,Right,
19,1,29,0.46822870000005423,['n'],1,right,none,-99,-99,0.5,0,none,31,19,Man,Right,
20,1,29,0.1997465999997985,['c'],0,right,none,-99,-99,0.5,0,none,31,19,Man,Right,
21,1,29,0.1828061000001071,['n'],1,right,none,-99,-99,0.5,0,none,31,19,Man,Right,
22,1,29,0.431837799999812,['n'],1,right,none,-99,-99,0.5,0,none,31,19,Man,Right,
23,1,29,0.2660243000000264,['c'],1,left,none,-99,-99,0.5,0,none,31,19,Man,Right,
0,1,30,0.5341260999998667,['n'],0,left,none,-99,-99,0.5,0,none,31,19,Man,Right,
1,1,30,0.5165239000002657,['n'],1,right,none,-99,-99,0.5,0,none,31,19,Man,Right,
2,1,30,0.2324463999998443,['c'],1,left,none,-99,-99,0.5,0,none,31,19,Man,Right,
3,1,30,0.41800130000001445,"['n', 'c']",0,left,none,-99,-99,0.5,0,none,31,19,Man,Right,
4,1,30,0.08184490000030564,['c'],0,right,none,-99,-99,0.5,0,none,31,19,Man,Right,
5,1,30,0.1666774999998779,"['n', 'c']",0,left,none,-99,-99,0.5,0,none,31,19,Man,Right,
6,1,30,0.11719709999988481,['n'],0,left,none,-99,-99,0.5,0,none,31,19,Man,Right,
7,1,30,0.13457340000013573,['n'],0,left,none,-99,-99,0.5,0,none,31,19,Man,Right,
8,1,30,0.08483470000010129,"['n', 'c']",1,right,none,-99,-99,0.5,0,none,31,19,Man,Right,
9,1,30,0.04878520000011122,['n'],0,left,none,-99,-99,0.5,0,none,31,19,Man,Right,
10,1,30,0.38304650000009133,['n'],0,left,none,-99,-99,0.5,0,none,31,19,Man,Right,
11,1,30,0.29968250000001717,['c'],0,right,none,-99,-99,0.5,0,none,31,19,Man,Right,
12,1,30,0.3169032000000698,"['n', 'c']",0,left,none,-99,-99,0.5,0,none,31,19,Man,Right,
13,1,30,0.09943869999960953,['n'],1,right,none,-99,-99,0.5,0,none,31,19,Man,Right,
14,1,30,0.2172006999999212,['c'],0,right,none,-99,-99,0.5,0,none,31,19,Man,Right,
15,1,30,0.0511026000003767,['c'],0,right,none,-99,-99,0.5,0,none,31,19,Man,Right,
16,1,30,0.4664492000001701,['n'],0,left,none,-99,-99,0.5,0,none,31,19,Man,Right,
17,1,30,0.017877400000088528,['c'],1,left,none,-99,-99,0.5,0,none,31,19,Man,Right,
18,1,30,0.23313489999964077,['n'],1,right,none,-99,-99,0.5,0,none,31,19,Man,Right,
19,1,30,0.1841073000000506,['c'],0,right,none,-99,-99,0.5,0,none,31,19,Man,Right,
20,1,30,0.23347629999989294,['n'],1,right,none,-99,-99,0.5,0,none,31,19,Man,Right,
21,1,30,0.05050900000014735,['c'],1,left,none,-99,-99,0.5,0,none,31,19,Man,Right,
22,1,30,0.10047070000018721,['c'],0,right,none,-99,-99,0.5,0,none,31,19,Man,Right,
23,1,30,0.399526700000024,['n'],1,right,none,-99,-99,0.5,0,none,31,19,Man,Right,
0,1,31,0.2824608000000808,['c'],0,right,none,-99,-99,0.5,0,none,31,19,Man,Right,
1,1,31,0.10125809999999547,['n'],1,right,none,-99,-99,0.5,0,none,31,19,Man,Right,
2,1,31,0.31852630000003046,['n'],1,right,none,-99,-99,0.5,0,none,31,19,Man,Right,
3,1,31,0.16765699999996286,['n'],1,right,none,-99,-99,0.5,0,none,31,19,Man,Right,
4,1,31,0.10126730000001771,['n'],1,right,none,-99,-99,0.5,0,none,31,19,Man,Right,
5,1,31,0.1662575000000288,['n'],1,right,none,-99,-99,0.5,0,none,31,19,Man,Right,
6,1,31,0.05061459999978979,['c'],0,right,none,-99,-99,0.5,0,none,31,19,Man,Right,
7,1,31,0.368376200000057,['c'],1,left,none,-99,-99,0.5,0,none,31,19,Man,Right,
8,1,31,0.13399630000003526,['c'],1,left,none,-99,-99,0.5,0,none,31,19,Man,Right,
9,1,31,0.06751139999960287,['c'],1,left,none,-99,-99,0.5,0,none,31,19,Man,Right,
10,1,31,0.13210970000000088,['n'],1,right,none,-99,-99,0.5,0,none,31,19,Man,Right,
11,1,31,0.05047809999996389,['n'],0,left,none,-99,-99,0.5,0,none,31,19,Man,Right,
12,1,31,0.2839707000002818,['n'],1,right,none,-99,-99,0.5,0,none,31,19,Man,Right,
13,1,31,0.3993859000001976,['n'],0,left,none,-99,-99,0.5,0,none,31,19,Man,Right,
14,1,31,0.15150350000021717,['n'],1,right,none,-99,-99,0.5,0,none,31,19,Man,Right,
15,1,31,0.28499210000063613,['n'],1,right,none,-99,-99,0.5,0,none,31,19,Man,Right,
16,1,31,0.4017725000003338,['n'],0,left,none,-99,-99,0.5,0,none,31,19,Man,Right,
17,1,31,0.25019500000053085,['c'],1,left,none,-99,-99,0.5,0,none,31,19,Man,Right,
18,1,31,0.08310170000004291,['n'],0,left,none,-99,-99,0.5,0,none,31,19,Man,Right,
19,1,31,0.14927189999980328,['n'],0,left,none,-99,-99,0.5,0,none,31,19,Man,Right,
20,1,31,0.30110139999942476,['c'],0,right,none,-99,-99,0.5,0,none,31,19,Man,Right,
21,1,31,0.40156279999973776,['n'],0,left,none,-99,-99,0.5,0,none,31,19,Man,Right,
22,1,31,0.38458259999970323,['n'],0,left,none,-99,-99,0.5,0,none,31,19,Man,Right,
23,1,31,0.11711209999975836,['n'],0,left,none,-99,-99,0.5,0,none,31,19,Man,Right,
0,1,32,0.4164065999993909,['c'],0,right,none,-99,-99,0.5,0,none,31,19,Man,Right,
1,1,32,0.33465439999963564,['n'],0,left,none,-99,-99,0.5,0,none,31,19,Man,Right,
2,1,32,0.018106700000316778,['c'],0,right,none,-99,-99,0.5,0,none,31,19,Man,Right,
3,1,32,1.0507631000000401,['n'],0,left,none,-99,-99,0.5,0,none,31,19,Man,Right,
4,1,32,0.018254200000228593,['n'],0,left,none,-99,-99,0.5,0,none,31,19,Man,Right,
5,1,32,0.21665010000015172,['n'],0,left,none,-99,-99,0.5,0,none,31,19,Man,Right,
6,1,32,0.2494194000000789,"['n', 'c']",1,right,none,-99,-99,0.5,0,none,31,19,Man,Right,
7,1,32,0.11700530000052822,['n'],0,left,none,-99,-99,0.5,0,none,31,19,Man,Right,
8,1,32,0.25062809999963065,['n'],0,left,none,-99,-99,0.5,0,none,31,19,Man,Right,
9,1,32,0.25151780000032886,['c'],1,left,none,-99,-99,0.5,0,none,31,19,Man,Right,
10,1,32,0.18345049999970797,['n'],1,right,none,-99,-99,0.5,0,none,31,19,Man,Right,
11,1,32,0.21776179999960732,['c'],0,right,none,-99,-99,0.5,0,none,31,19,Man,Right,
12,1,32,0.4328083999998853,['n'],1,right,none,-99,-99,0.5,0,none,31,19,Man,Right,
13,1,32,0.3007145000001401,['n'],1,right,none,-99,-99,0.5,0,none,31,19,Man,Right,
14,1,32,0.21670539999922767,['n'],1,right,none,-99,-99,0.5,0,none,31,19,Man,Right,
15,1,32,0.2670343999998295,['n'],1,right,none,-99,-99,0.5,0,none,31,19,Man,Right,
16,1,32,0.3517606000004889,['c'],0,right,none,-99,-99,0.5,0,none,31,19,Man,Right,
17,1,32,0.10136140000031446,['n'],0,left,none,-99,-99,0.5,0,none,31,19,Man,Right,
18,1,32,0.4692224999998871,['c'],1,left,none,-99,-99,0.5,0,none,31,19,Man,Right,
19,1,32,0.13356970000040747,['n'],1,right,none,-99,-99,0.5,0,none,31,19,Man,Right,
20,1,32,0.06712329999936628,['n'],0,left,none,-99,-99,0.5,0,none,31,19,Man,Right,
21,1,32,0.1992614999999205,['c'],1,left,none,-99,-99,0.5,0,none,31,19,Man,Right,
22,1,32,0.11683319999974628,['n'],0,left,none,-99,-99,0.5,0,none,31,19,Man,Right,
23,1,32,0.13325040000017907,['n'],1,right,none,-99,-99,0.5,0,none,31,19,Man,Right,
0,1,33,0.21775420000085433,['n'],1,right,none,-99,-99,0.5,0,none,31,19,Man,Right,
1,1,33,0.03340899999966496,['n'],1,right,none,-99,-99,0.5,0,none,31,19,Man,Right,
2,1,33,0.25081109999973705,"['n', 'c']",1,right,none,-99,-99,0.5,0,none,31,19,Man,Right,
3,1,33,0.06834690000050614,"['n', 'c']",0,left,none,-99,-99,0.5,0,none,31,19,Man,Right,
4,1,33,0.21641129999989062,['c'],1,left,none,-99,-99,0.5,0,none,31,19,Man,Right,
5,1,33,0.21828409999943688,"['n', 'c']",0,left,none,-99,-99,0.5,0,none,31,19,Man,Right,
6,1,33,0.04993529999956081,['n'],1,right,none,-99,-99,0.5,0,none,31,19,Man,Right,
7,1,33,0.38384709999991173,['c'],0,right,none,-99,-99,0.5,0,none,31,19,Man,Right,
8,1,33,0.33276109999951586,['n'],0,left,none,-99,-99,0.5,0,none,31,19,Man,Right,
9,1,33,0.1651200999995126,"['n', 'c']",1,right,none,-99,-99,0.5,0,none,31,19,Man,Right,
10,1,33,0.4501491000000897,['n'],1,right,none,-99,-99,0.5,0,none,31,19,Man,Right,
11,1,33,0.3834931000001234,['n'],1,right,none,-99,-99,0.5,0,none,31,19,Man,Right,
12,1,33,0.08588030000009894,"['n', 'c']",0,left,none,-99,-99,0.5,0,none,31,19,Man,Right,
13,1,33,0.366280000000188,['n'],0,left,none,-99,-99,0.5,0,none,31,19,Man,Right,
14,1,33,0.2514092999999775,"['n', 'c']",1,right,none,-99,-99,0.5,0,none,31,19,Man,Right,
15,1,33,0.06817470000078174,['c'],1,left,none,-99,-99,0.5,0,none,31,19,Man,Right,
16,1,33,0.10000549999949726,['c'],0,right,none,-99,-99,0.5,0,none,31,19,Man,Right,
17,1,33,0.06686390000049869,['n'],1,right,none,-99,-99,0.5,0,none,31,19,Man,Right,
18,1,33,0.183300099999542,['c'],1,left,none,-99,-99,0.5,0,none,31,19,Man,Right,
19,1,33,0.18529709999984334,['n'],0,left,none,-99,-99,0.5,0,none,31,19,Man,Right,
20,1,33,0.30051449999973556,['n'],0,left,none,-99,-99,0.5,0,none,31,19,Man,Right,
21,1,33,0.2654214000003776,['n'],0,left,none,-99,-99,0.5,0,none,31,19,Man,Right,
22,1,33,0.3494774000000689,['c'],1,left,none,-99,-99,0.5,0,none,31,19,Man,Right,
23,1,33,0.1016408000004958,"['n', 'c']",1,right,none,-99,-99,0.5,0,none,31,19,Man,Right,
0,1,34,0.1507166999999754,['n'],0,left,none,-99,-99,0.5,0,none,31,19,Man,Right,
1,1,34,0.033003800000187766,['c'],1,left,none,-99,-99,0.5,0,none,31,19,Man,Right,
2,1,34,0.1516842999999426,"['n', 'c']",0,left,none,-99,-99,0.5,0,none,31,19,Man,Right,
3,1,34,1.0340783999999985,['n'],0,left,none,-99,-99,0.5,0,none,31,19,Man,Right,
4,1,34,0.35036420000051294,['n'],0,left,none,-99,-99,0.5,0,none,31,19,Man,Right,
5,1,34,0.3684354999995776,['c'],1,left,none,-99,-99,0.5,0,none,31,19,Man,Right,
6,1,34,0.25157429999944725,['c'],1,left,none,-99,-99,0.5,0,none,31,19,Man,Right,
7,1,34,0.2842883000002985,['c'],0,right,none,-99,-99,0.5,0,none,31,19,Man,Right,
8,1,34,1.2339779000003546,"['n', 'c']",1,right,none,-99,-99,0.5,0,none,31,19,Man,Right,
9,1,34,0.3166250000003856,['c'],0,right,none,-99,-99,0.5,0,none,31,19,Man,Right,
10,1,34,1.2669956999998249,['n'],1,right,none,-99,-99,0.5,0,none,31,19,Man,Right,
11,1,34,0.29947209999954794,['c'],1,left,none,-99,-99,0.5,0,none,31,19,Man,Right,
12,1,34,0.033905000000231666,['n'],0,left,none,-99,-99,0.5,0,none,31,19,Man,Right,
13,1,34,0.15122209999935876,['n'],1,right,none,-99,-99,0.5,0,none,31,19,Man,Right,
14,1,34,0.03447570000025735,['c'],0,right,none,-99,-99,0.5,0,none,31,19,Man,Right,
15,1,34,0.14972120000038558,['n'],1,right,none,-99,-99,0.5,0,none,31,19,Man,Right,
16,1,34,0.4502539000004617,['n'],1,right,none,-99,-99,0.5,0,none,31,19,Man,Right,
17,1,34,0.2507881000001362,['c'],0,right,none,-99,-99,0.5,0,none,31,19,Man,Right,
18,1,34,0.2839304000008269,"['n', 'c']",1,right,none,-99,-99,0.5,0,none,31,19,Man,Right,
19,1,34,0.384931399999914,"['n', 'c']",0,left,none,-99,-99,0.5,0,none,31,19,Man,Right,
20,1,34,0.6509216999993441,"['n', 'c']",1,right,none,-99,-99,0.5,0,none,31,19,Man,Right,
21,1,34,1.050818600000639,"['n', 'c']",0,left,none,-99,-99,0.5,0,none,31,19,Man,Right,
22,1,34,0.28396450000036566,['n'],0,left,none,-99,-99,0.5,0,none,31,19,Man,Right,
23,1,34,1.3841847000003327,['n'],1,right,none,-99,-99,0.5,0,none,31,19,Man,Right,
0,1,35,0.5830732999993415,['n'],0,left,none,-99,-99,0.5,0,none,31,19,Man,Right,
1,1,35,0.5006042999993952,"['n', 'c']",0,left,none,-99,-99,0.5,0,none,31,19,Man,Right,
2,1,35,0.25128700000004756,['n'],0,left,none,-99,-99,0.5,0,none,31,19,Man,Right,
3,1,35,0.7343204999997397,['n'],1,right,none,-99,-99,0.5,0,none,31,19,Man,Right,
4,1,35,0.01659849999941798,['n'],0,left,none,-99,-99,0.5,0,none,31,19,Man,Right,
5,1,35,0.1169977999998082,['n'],1,right,none,-99,-99,0.5,0,none,31,19,Man,Right,
6,1,35,0.10102850000021135,['n'],0,left,none,-99,-99,0.5,0,none,31,19,Man,Right,
7,1,35,0.14982810000037716,['n'],1,right,none,-99,-99,0.5,0,none,31,19,Man,Right,
8,1,35,0.11651260000053298,['n'],0,left,none,-99,-99,0.5,0,none,31,19,Man,Right,
9,1,35,0.13275890000022628,['n'],1,right,none,-99,-99,0.5,0,none,31,19,Man,Right,
10,1,35,0.1005418999993708,['n'],0,left,none,-99,-99,0.5,0,none,31,19,Man,Right,
11,1,35,0.31771219999973255,['n'],1,right,none,-99,-99,0.5,0,none,31,19,Man,Right,
12,1,35,0.11637470000005123,['n'],0,left,none,-99,-99,0.5,0,none,31,19,Man,Right,
13,1,35,0.18457519999992655,['n'],0,left,none,-99,-99,0.5,0,none,31,19,Man,Right,
14,1,35,0.21766389999993407,['n'],1,right,none,-99,-99,0.5,0,none,31,19,Man,Right,
15,1,35,0.21794359999967128,['n'],1,right,none,-99,-99,0.5,0,none,31,19,Man,Right,
16,1,35,0.08427220000066882,['n'],1,right,none,-99,-99,0.5,0,none,31,19,Man,Right,
17,1,35,0.20096970000031433,['n'],1,right,none,-99,-99,0.5,0,none,31,19,Man,Right,
18,1,35,0.04952239999965968,['n'],1,right,none,-99,-99,0.5,0,none,31,19,Man,Right,
19,1,35,0.38418149999961315,['n'],1,right,none,-99,-99,0.5,0,none,31,19,Man,Right,
20,1,35,0.09951009999986127,['n'],1,right,none,-99,-99,0.5,0,none,31,19,Man,Right,
21,1,35,0.25027009999939764,['n'],0,left,none,-99,-99,0.5,0,none,31,19,Man,Right,
22,1,35,0.21738269999968907,['n'],0,left,none,-99,-99,0.5,0,none,31,19,Man,Right,
23,1,35,0.2506681999993816,['n'],0,left,none,-99,-99,0.5,0,none,31,19,Man,Right,
0,1,36,0.05069490000005317,['n'],0,left,none,-99,-99,0.5,0,none,31,19,Man,Right,
1,1,36,0.26737690000027214,['n'],0,left,none,-99,-99,0.5,0,none,31,19,Man,Right,
2,1,36,0.11626459999934013,['n'],0,left,none,-99,-99,0.5,0,none,31,19,Man,Right,
3,1,36,0.06760009999925387,['n'],0,left,none,-99,-99,0.5,0,none,31,19,Man,Right,
4,1,36,0.15041199999996024,['n'],1,right,none,-99,-99,0.5,0,none,31,19,Man,Right,
5,1,36,0.051091899999846646,['n'],1,right,none,-99,-99,0.5,0,none,31,19,Man,Right,
6,1,36,0.13272860000051878,['n'],0,left,none,-99,-99,0.5,0,none,31,19,Man,Right,
7,1,36,0.2677350000003571,['n'],1,right,none,-99,-99,0.5,0,none,31,19,Man,Right,
8,1,36,0.5515856000001804,['n'],1,right,none,-99,-99,0.5,0,none,31,19,Man,Right,
9,1,36,0.2336543999999776,['n'],0,left,none,-99,-99,0.5,0,none,31,19,Man,Right,
10,1,36,0.2505440000004455,['c'],1,left,none,-99,-99,0.5,0,none,31,19,Man,Right,
11,1,36,0.29996440000013536,['c'],0,right,none,-99,-99,0.5,0,none,31,19,Man,Right,
12,1,36,0.11534479999954783,['c'],1,left,none,-99,-99,0.5,0,none,31,19,Man,Right,
13,1,36,1.2498304999999164,['c'],1,left,none,-99,-99,0.5,0,none,31,19,Man,Right,
14,1,36,0.4162621000004947,['c'],1,left,none,-99,-99,0.5,0,none,31,19,Man,Right,
15,1,36,0.266422199999397,['c'],0,right,none,-99,-99,0.5,0,none,31,19,Man,Right,
16,1,36,0.051636799999869254,['c'],0,right,none,-99,-99,0.5,0,none,31,19,Man,Right,
17,1,36,0.017305600000327104,['c'],1,left,none,-99,-99,0.5,0,none,31,19,Man,Right,
18,1,36,0.5012844000002588,['c'],0,right,none,-99,-99,0.5,0,none,31,19,Man,Right,
19,1,36,0.1656050999999934,['c'],0,right,none,-99,-99,0.5,0,none,31,19,Man,Right,
20,1,36,0.30142889999933686,['n'],1,right,none,-99,-99,0.5,0,none,31,19,Man,Right,
21,1,36,0.03487409999979718,['c'],0,right,none,-99,-99,0.5,0,none,31,19,Man,Right,
22,1,36,0.29959580000013375,"['n', 'c']",0,left,none,-99,-99,0.5,0,none,31,19,Man,Right,
23,1,36,0.20113559999936115,['n'],1,right,none,-99,-99,0.5,0,none,31,19,Man,Right,
0,1,37,0.1346257000004698,['n'],1,right,none,-99,-99,0.5,0,none,31,19,Man,Right,
1,1,37,0.06771110000045155,['c'],0,right,none,-99,-99,0.5,0,none,31,19,Man,Right,
2,1,37,0.1499285999998392,['n'],1,right,none,-99,-99,0.5,0,none,31,19,Man,Right,
3,1,37,0.05002870000043913,['c'],1,left,none,-99,-99,0.5,0,none,31,19,Man,Right,
4,1,37,0.10047479999957432,['n'],0,left,none,-99,-99,0.5,0,none,31,19,Man,Right,
5,1,37,0.33292570000048727,['n'],0,left,none,-99,-99,0.5,0,none,31,19,Man,Right,
6,1,37,0.4010444000005009,['n'],0,left,none,-99,-99,0.5,0,none,31,19,Man,Right,
7,1,37,0.16816620000008697,['c'],1,left,none,-99,-99,0.5,0,none,31,19,Man,Right,
8,1,37,0.050366399999802525,['c'],0,right,none,-99,-99,0.5,0,none,31,19,Man,Right,
9,1,37,0.43306290000055014,['c'],1,left,none,-99,-99,0.5,0,none,31,19,Man,Right,
10,1,37,0.016772500000115542,['n'],0,left,none,-99,-99,0.5,0,none,31,19,Man,Right,
11,1,37,0.19993949999934557,['n'],1,right,none,-99,-99,0.5,0,none,31,19,Man,Right,
12,1,37,0.2669200999998793,['c'],0,right,none,-99,-99,0.5,0,none,31,19,Man,Right,
13,1,37,0.017879099999845494,['n'],0,left,none,-99,-99,0.5,0,none,31,19,Man,Right,
14,1,37,0.41539490000013757,['n'],0,left,none,-99,-99,0.5,0,none,31,19,Man,Right,
15,1,37,0.09923630000048433,['n'],0,left,none,-99,-99,0.5,0,none,31,19,Man,Right,
16,1,37,0.10048170000027312,['n'],1,right,none,-99,-99,0.5,0,none,31,19,Man,Right,
17,1,37,0.11873780000041734,['n'],1,right,none,-99,-99,0.5,0,none,31,19,Man,Right,
18,1,37,0.3511173000006238,['n'],0,left,none,-99,-99,0.5,0,none,31,19,Man,Right,
19,1,37,0.23434509999970032,['n'],1,right,none,-99,-99,0.5,0,none,31,19,Man,Right,
20,1,37,0.03543850000005477,['n'],1,right,none,-99,-99,0.5,0,none,31,19,Man,Right,
21,1,37,0.30132230000072013,['n'],1,right,none,-99,-99,0.5,0,none,31,19,Man,Right,
22,1,37,0.20090310000068712,['n'],1,right,none,-99,-99,0.5,0,none,31,19,Man,Right,
23,1,37,0.032810600000630075,['n'],0,left,none,-99,-99,0.5,0,none,31,19,Man,Right,
0,1,38,0.20116609999968205,"['n', 'c']",0,left,none,-99,-99,0.5,0,none,31,19,Man,Right,
1,1,38,0.21608740000010584,['n'],1,right,none,-99,-99,0.5,0,none,31,19,Man,Right,
2,1,38,0.15070360000026994,['n'],0,left,none,-99,-99,0.5,0,none,31,19,Man,Right,
3,1,38,0.049841600000036124,['n'],0,left,none,-99,-99,0.5,0,none,31,19,Man,Right,
4,1,38,0.06798000000071625,['n'],1,right,none,-99,-99,0.5,0,none,31,19,Man,Right,
5,1,38,0.1833414000002449,['n'],0,left,none,-99,-99,0.5,0,none,31,19,Man,Right,
6,1,38,0.14998819999982516,['n'],1,right,none,-99,-99,0.5,0,none,31,19,Man,Right,
7,1,38,0.1838793999995687,['n'],1,right,none,-99,-99,0.5,0,none,31,19,Man,Right,
8,1,38,0.28453759999956674,['n'],1,right,none,-99,-99,0.5,0,none,31,19,Man,Right,
9,1,38,0.16678279999996448,['n'],1,right,none,-99,-99,0.5,0,none,31,19,Man,Right,
10,1,38,0.21717420000004495,['n'],1,right,none,-99,-99,0.5,0,none,31,19,Man,Right,
11,1,38,0.3333247999999003,['c'],1,left,none,-99,-99,0.5,0,none,31,19,Man,Right,
12,1,38,0.1842268000000331,['c'],1,left,none,-99,-99,0.5,0,none,31,19,Man,Right,
13,1,38,0.28461000000061176,['c'],0,right,none,-99,-99,0.5,0,none,31,19,Man,Right,
14,1,38,0.40056579999964015,['n'],0,left,none,-99,-99,0.5,0,none,31,19,Man,Right,
15,1,38,0.18365840000024036,['n'],0,left,none,-99,-99,0.5,0,none,31,19,Man,Right,
16,1,38,0.3008220000001529,['n'],1,right,none,-99,-99,0.5,0,none,31,19,Man,Right,
17,1,38,0.3003027999993719,['n'],0,left,none,-99,-99,0.5,0,none,31,19,Man,Right,
18,1,38,0.18301229999997304,['n'],1,right,none,-99,-99,0.5,0,none,31,19,Man,Right,
19,1,38,0.033739800000148534,['n'],0,left,none,-99,-99,0.5,0,none,31,19,Man,Right,
20,1,38,0.3173507999999856,['n'],1,right,none,-99,-99,0.5,0,none,31,19,Man,Right,
21,1,38,0.18447500000002037,['n'],0,left,none,-99,-99,0.5,0,none,31,19,Man,Right,
22,1,38,0.2503043999995498,['n'],0,left,none,-99,-99,0.5,0,none,31,19,Man,Right,
23,1,38,0.033024500000465196,['n'],1,right,none,-99,-99,0.5,0,none,31,19,Man,Right,
0,1,39,0.267739600000823,['n'],0,left,none,-99,-99,0.5,0,none,31,19,Man,Right,
1,1,39,0.28322840000055294,['n'],0,left,none,-99,-99,0.5,0,none,31,19,Man,Right,
2,1,39,0.5005422000003819,['n'],0,left,none,-99,-99,0.5,0,none,31,19,Man,Right,
3,1,39,0.08367689999977301,['n'],0,left,none,-99,-99,0.5,0,none,31,19,Man,Right,
4,1,39,0.04972749999978987,['n'],1,right,none,-99,-99,0.5,0,none,31,19,Man,Right,
5,1,39,0.1345309999996971,['n'],0,left,none,-99,-99,0.5,0,none,31,19,Man,Right,
6,1,39,0.30022330000065267,['n'],1,right,none,-99,-99,0.5,0,none,31,19,Man,Right,
7,1,39,0.2505135999999766,['n'],1,right,none,-99,-99,0.5,0,none,31,19,Man,Right,
8,1,39,0.032649900000251364,['n'],0,left,none,-99,-99,0.5,0,none,31,19,Man,Right,
9,1,39,0.01698839999971824,['n'],1,right,none,-99,-99,0.5,0,none,31,19,Man,Right,
10,1,39,0.09983849999935046,['n'],1,right,none,-99,-99,0.5,0,none,31,19,Man,Right,
11,1,39,0.10053960000004736,['n'],0,left,none,-99,-99,0.5,0,none,31,19,Man,Right,
12,1,39,0.03539790000013454,['n'],1,right,none,-99,-99,0.5,0,none,31,19,Man,Right,
13,1,39,0.2997427999998763,['n'],1,right,none,-99,-99,0.5,0,none,31,19,Man,Right,
14,1,39,0.11732639999991079,['n'],1,right,none,-99,-99,0.5,0,none,31,19,Man,Right,
15,1,39,0.16702600000007806,['n'],0,left,none,-99,-99,0.5,0,none,31,19,Man,Right,
16,1,39,0.0836448999998538,['n'],0,left,none,-99,-99,0.5,0,none,31,19,Man,Right,
17,1,39,0.08346769999934622,['n'],0,left,none,-99,-99,0.5,0,none,31,19,Man,Right,
18,1,39,0.2321124999998574,['n'],1,right,none,-99,-99,0.5,0,none,31,19,Man,Right,
19,1,39,0.2838915000002089,['n'],1,right,none,-99,-99,0.5,0,none,31,19,Man,Right,
20,1,39,0.21708050000052026,['n'],1,right,none,-99,-99,0.5,0,none,31,19,Man,Right,
21,1,39,0.26669349999974656,['n'],0,left,none,-99,-99,0.5,0,none,31,19,Man,Right,
22,1,39,0.16694449999977223,['n'],1,right,none,-99,-99,0.5,0,none,31,19,Man,Right,
23,1,39,0.08489869999993971,['n'],0,left,none,-99,-99,0.5,0,none,31,19,Man,Right,
0,1,40,0.41665389999980107,['n'],0,left,none,-99,-99,0.5,0,none,31,19,Man,Right,
1,1,40,0.016504299999724026,['n'],0,left,none,-99,-99,0.5,0,none,31,19,Man,Right,
2,1,40,0.3682547999997041,['n'],1,right,none,-99,-99,0.5,0,none,31,19,Man,Right,
3,1,40,0.04862709999997605,['n'],0,left,none,-99,-99,0.5,0,none,31,19,Man,Right,
4,1,40,0.16681490000064514,['n'],0,left,none,-99,-99,0.5,0,none,31,19,Man,Right,
5,1,40,0.5838729999995849,['n'],1,right,none,-99,-99,0.5,0,none,31,19,Man,Right,
6,1,40,0.13406320000012784,['n'],0,left,none,-99,-99,0.5,0,none,31,19,Man,Right,
7,1,40,0.13462690000051225,['n'],1,right,none,-99,-99,0.5,0,none,31,19,Man,Right,
8,1,40,0.6509130000004006,['n'],1,right,none,-99,-99,0.5,0,none,31,19,Man,Right,
9,1,40,0.28384139999980107,['c'],0,right,none,-99,-99,0.5,0,none,31,19,Man,Right,
10,1,40,0.2171214999998483,['n'],0,left,none,-99,-99,0.5,0,none,31,19,Man,Right,
11,1,40,0.08299040000019886,['n'],0,left,none,-99,-99,0.5,0,none,31,19,Man,Right,
12,1,40,0.1648936000001413,['n'],0,left,none,-99,-99,0.5,0,none,31,19,Man,Right,
13,1,40,0.10034410000025673,['n'],0,left,none,-99,-99,0.5,0,none,31,19,Man,Right,
14,1,40,0.4495323000001008,['n'],1,right,none,-99,-99,0.5,0,none,31,19,Man,Right,
15,1,40,0.16606690000025992,['n'],1,right,none,-99,-99,0.5,0,none,31,19,Man,Right,
16,1,40,0.36485129999982746,['n'],1,right,none,-99,-99,0.5,0,none,31,19,Man,Right,
17,1,40,0.3503736000002391,['n'],1,right,none,-99,-99,0.5,0,none,31,19,Man,Right,
18,1,40,0.11645470000075875,['n'],1,right,none,-99,-99,0.5,0,none,31,19,Man,Right,
19,1,40,0.40106379999997444,['n'],1,right,none,-99,-99,0.5,0,none,31,19,Man,Right,
20,1,40,0.1826656000002913,['n'],0,left,none,-99,-99,0.5,0,none,31,19,Man,Right,
21,1,40,0.26746259999981703,['n'],0,left,none,-99,-99,0.5,0,none,31,19,Man,Right,
22,1,40,0.16708699999981036,['n'],0,left,none,-99,-99,0.5,0,none,31,19,Man,Right,
23,1,40,0.31688320000012027,['n'],1,right,none,-99,-99,0.5,0,none,31,19,Man,Right,
0,1,41,0.31622369999968214,['n'],1,right,none,-99,-99,0.5,0,none,31,19,Man,Right,
1,1,41,0.1512726000000839,['n'],0,left,none,-99,-99,0.5,0,none,31,19,Man,Right,
2,1,41,0.18395270000019082,['n'],0,left,none,-99,-99,0.5,0,none,31,19,Man,Right,
3,1,41,0.16717119999975694,['n'],0,left,none,-99,-99,0.5,0,none,31,19,Man,Right,
4,1,41,0.1505285000002914,['n'],1,right,none,-99,-99,0.5,0,none,31,19,Man,Right,
5,1,41,0.06742290000056528,['n'],1,right,none,-99,-99,0.5,0,none,31,19,Man,Right,
6,1,41,0.18280910000066797,['n'],0,left,none,-99,-99,0.5,0,none,31,19,Man,Right,
7,1,41,0.3176610000000437,['n'],0,left,none,-99,-99,0.5,0,none,31,19,Man,Right,
8,1,41,0.016812399999253103,['n'],1,right,none,-99,-99,0.5,0,none,31,19,Man,Right,
9,1,41,0.7668678999998519,['n'],1,right,none,-99,-99,0.5,0,none,31,19,Man,Right,
10,1,41,0.5514705000005051,['n'],0,left,none,-99,-99,0.5,0,none,31,19,Man,Right,
11,1,41,0.04871550000007119,['n'],1,right,none,-99,-99,0.5,0,none,31,19,Man,Right,
12,1,41,0.30189489999975194,['n'],1,right,none,-99,-99,0.5,0,none,31,19,Man,Right,
13,1,41,0.2193067999996856,['n'],1,right,none,-99,-99,0.5,0,none,31,19,Man,Right,
14,1,41,0.13480770000023767,['n'],1,right,none,-99,-99,0.5,0,none,31,19,Man,Right,
15,1,41,0.18370629999935773,['n'],1,right,none,-99,-99,0.5,0,none,31,19,Man,Right,
16,1,41,0.01628320000054373,['n'],0,left,none,-99,-99,0.5,0,none,31,19,Man,Right,
17,1,41,0.21676579999984824,['n'],1,right,none,-99,-99,0.5,0,none,31,19,Man,Right,
18,1,41,0.050033499999699416,['n'],0,left,none,-99,-99,0.5,0,none,31,19,Man,Right,
19,1,41,0.11640220000026602,['n'],0,left,none,-99,-99,0.5,0,none,31,19,Man,Right,
20,1,41,0.06797230000029231,['n'],0,left,none,-99,-99,0.5,0,none,31,19,Man,Right,
21,1,41,0.2510960999998133,['n'],0,left,none,-99,-99,0.5,0,none,31,19,Man,Right,
22,1,41,0.20159750000038912,['n'],0,left,none,-99,-99,0.5,0,none,31,19,Man,Right,
23,1,41,0.33330039999964356,['n'],1,right,none,-99,-99,0.5,0,none,31,19,Man,Right,
0,1,42,4.334855099999913,['n'],0,left,none,-99,-99,0.5,0,none,31,19,Man,Right,
1,1,42,1.0184628000006342,['n'],1,right,none,-99,-99,0.5,0,none,31,19,Man,Right,
2,1,42,4.132454300000063,['c'],0,right,none,-99,-99,0.5,0,none,31,19,Man,Right,
3,1,42,0.5824566000001141,['n'],1,right,none,-99,-99,0.5,0,none,31,19,Man,Right,
4,1,42,1.1323182000005545,['n'],0,left,none,-99,-99,0.5,0,none,31,19,Man,Right,
5,1,42,2.5498859999997876,['c'],0,right,none,-99,-99,0.5,0,none,31,19,Man,Right,
6,1,42,0.08452549999947223,['c'],1,left,none,-99,-99,0.5,0,none,31,19,Man,Right,
7,1,42,0.1348735999999917,['n'],0,left,none,-99,-99,0.5,0,none,31,19,Man,Right,
8,1,42,0.21759780000047613,['c'],1,left,none,-99,-99,0.5,0,none,31,19,Man,Right,
9,1,42,0.2826838000000862,['n'],0,left,none,-99,-99,0.5,0,none,31,19,Man,Right,
10,1,42,1.832387700000254,['n'],1,right,none,-99,-99,0.5,0,none,31,19,Man,Right,
11,1,42,0.566097400000217,['n'],1,right,none,-99,-99,0.5,0,none,31,19,Man,Right,
12,1,42,1.433448199999475,['c'],1,left,none,-99,-99,0.5,0,none,31,19,Man,Right,
13,1,42,3.5331952000005913,['n'],0,left,none,-99,-99,0.5,0,none,31,19,Man,Right,
14,1,42,0.2829033999996682,['c'],0,right,none,-99,-99,0.5,0,none,31,19,Man,Right,
15,1,42,0.2675037999997585,['n'],0,left,none,-99,-99,0.5,0,none,31,19,Man,Right,
16,1,42,0.48430110000026616,['c'],0,right,none,-99,-99,0.5,0,none,31,19,Man,Right,
17,1,42,0.016163700000106473,['n'],0,left,none,-99,-99,0.5,0,none,31,19,Man,Right,
18,1,42,0.1171596000003774,['n'],1,right,none,-99,-99,0.5,0,none,31,19,Man,Right,
19,1,42,0.39977039999939734,['n'],0,left,none,-99,-99,0.5,0,none,31,19,Man,Right,
20,1,42,0.08372419999977865,['c'],0,right,none,-99,-99,0.5,0,none,31,19,Man,Right,
21,1,42,0.28419859999939945,['n'],1,right,none,-99,-99,0.5,0,none,31,19,Man,Right,
22,1,42,0.20135430000027554,['n'],1,right,none,-99,-99,0.5,0,none,31,19,Man,Right,
23,1,42,0.36613930000021355,['n'],0,left,none,-99,-99,0.5,0,none,31,19,Man,Right,
0,1,43,0.5173287999996319,['n'],1,right,none,-99,-99,0.5,0,none,31,19,Man,Right,
1,1,43,1.4336440000006405,['n'],0,left,none,-99,-99,0.5,0,none,31,19,Man,Right,
2,1,43,0.4512826000000132,['c'],1,left,none,-99,-99,0.5,0,none,31,19,Man,Right,
3,1,43,0.7671370999996725,['c'],1,left,none,-99,-99,0.5,0,none,31,19,Man,Right,
4,1,43,1.7339116000002832,['n'],1,right,none,-99,-99,0.5,0,none,31,19,Man,Right,
5,1,43,0.8337850000007165,['n'],1,right,none,-99,-99,0.5,0,none,31,19,Man,Right,
6,1,43,0.9336327999999412,['c'],0,right,none,-99,-99,0.5,0,none,31,19,Man,Right,
7,1,43,1.166980899999544,['c'],0,right,none,-99,-99,0.5,0,none,31,19,Man,Right,
8,1,43,0.7176868000005925,['n'],0,left,none,-99,-99,0.5,0,none,31,19,Man,Right,
9,1,43,2.3160874000004696,['n'],0,left,none,-99,-99,0.5,0,none,31,19,Man,Right,
10,1,43,0.6324964000004911,['c'],0,right,none,-99,-99,0.5,0,none,31,19,Man,Right,
11,1,43,0.4666422000000239,['n'],1,right,none,-99,-99,0.5,0,none,31,19,Man,Right,
12,1,43,2.632760800000142,['n'],1,right,none,-99,-99,0.5,0,none,31,19,Man,Right,
13,1,43,2.5502783000001727,['c'],1,left,none,-99,-99,0.5,0,none,31,19,Man,Right,
14,1,43,5.01539159999993,x,-99,left,none,-99,-99,0.5,1,none,31,19,Man,Right,
15,1,43,1.3004864999993515,['n'],0,left,none,-99,-99,0.5,0,none,31,19,Man,Right,
16,1,43,0.5325560000001133,['c'],0,right,none,-99,-99,0.5,0,none,31,19,Man,Right,
17,1,43,0.24910839999938617,['n'],1,right,none,-99,-99,0.5,0,none,31,19,Man,Right,
18,1,43,0.4338655000001381,['n'],0,left,none,-99,-99,0.5,0,none,31,19,Man,Right,
19,1,43,0.08177270000032877,['c'],1,left,none,-99,-99,0.5,0,none,31,19,Man,Right,
20,1,43,1.1998287000005803,['c'],0,right,none,-99,-99,0.5,0,none,31,19,Man,Right,
21,1,43,1.6826721999996153,['n'],1,right,none,-99,-99,0.5,0,none,31,19,Man,Right,
22,1,43,1.183521799999653,['n'],0,left,none,-99,-99,0.5,0,none,31,19,Man,Right,
23,1,43,0.6824737999995705,['c'],1,left,none,-99,-99,0.5,0,none,31,19,Man,Right,
0,1,44,1.2510968999995384,['c'],1,left,none,-99,-99,0.5,0,none,31,19,Man,Right,
1,1,44,0.9655586999997468,['c'],1,left,none,-99,-99,0.5,0,none,31,19,Man,Right,
2,1,44,1.3178816999998162,['n'],0,left,none,-99,-99,0.5,0,none,31,19,Man,Right,
3,1,44,0.7168631999993522,['n'],1,right,none,-99,-99,0.5,0,none,31,19,Man,Right,
4,1,44,3.117657199999485,['c'],0,right,none,-99,-99,0.5,0,none,31,19,Man,Right,
5,1,44,0.5507599000002301,['n'],0,left,none,-99,-99,0.5,0,none,31,19,Man,Right,
6,1,44,0.2998070000003281,['c'],1,left,none,-99,-99,0.5,0,none,31,19,Man,Right,
7,1,44,0.21705649999967136,['n'],0,left,none,-99,-99,0.5,0,none,31,19,Man,Right,
8,1,44,0.09932779999962804,['c'],1,left,none,-99,-99,0.5,0,none,31,19,Man,Right,
9,1,44,0.11729059999925084,['c'],1,left,none,-99,-99,0.5,0,none,31,19,Man,Right,
10,1,44,0.18322239999997691,['c'],0,right,none,-99,-99,0.5,0,none,31,19,Man,Right,
11,1,44,0.18303969999942638,['c'],0,right,none,-99,-99,0.5,0,none,31,19,Man,Right,
12,1,44,0.06718329999966954,['n'],1,right,none,-99,-99,0.5,0,none,31,19,Man,Right,
13,1,44,0.1662841000006665,['c'],0,right,none,-99,-99,0.5,0,none,31,19,Man,Right,
14,1,44,0.58315119999952,['n'],1,right,none,-99,-99,0.5,0,none,31,19,Man,Right,
15,1,44,0.20142200000009325,['n'],1,right,none,-99,-99,0.5,0,none,31,19,Man,Right,
16,1,44,0.3004860999999437,['n'],1,right,none,-99,-99,0.5,0,none,31,19,Man,Right,
17,1,44,0.06639319999976578,['n'],0,left,none,-99,-99,0.5,0,none,31,19,Man,Right,
18,1,44,0.36815870000009454,['c'],1,left,none,-99,-99,0.5,0,none,31,19,Man,Right,
19,1,44,1.0175546999998915,['c'],1,left,none,-99,-99,0.5,0,none,31,19,Man,Right,
20,1,44,1.7484176999996635,['c'],0,right,none,-99,-99,0.5,0,none,31,19,Man,Right,
21,1,44,0.33469940000031784,['n'],1,right,none,-99,-99,0.5,0,none,31,19,Man,Right,
22,1,44,0.7841262000001734,['c'],1,left,none,-99,-99,0.5,0,none,31,19,Man,Right,
23,1,44,1.0325849999999264,['c'],0,right,none,-99,-99,0.5,0,none,31,19,Man,Right,
0,1,45,0.6830671999996412,['n'],0,left,none,-99,-99,0.5,0,none,31,19,Man,Right,
1,1,45,0.2670256999999765,['c'],1,left,none,-99,-99,0.5,0,none,31,19,Man,Right,
2,1,45,0.4180739999992511,"['n', 'c']",0,left,none,-99,-99,0.5,0,none,31,19,Man,Right,
3,1,45,0.2178926999995383,['n'],1,right,none,-99,-99,0.5,0,none,31,19,Man,Right,
4,1,45,0.3502771000003122,['n'],0,left,none,-99,-99,0.5,0,none,31,19,Man,Right,
5,1,45,0.13427299999966635,['c'],1,left,none,-99,-99,0.5,0,none,31,19,Man,Right,
6,1,45,0.01759200000014971,['c'],1,left,none,-99,-99,0.5,0,none,31,19,Man,Right,
7,1,45,0.2336358000002292,['c'],1,left,none,-99,-99,0.5,0,none,31,19,Man,Right,
8,1,45,0.017258699999729288,['n'],1,right,none,-99,-99,0.5,0,none,31,19,Man,Right,
9,1,45,0.01708119999966584,['n'],1,right,none,-99,-99,0.5,0,none,31,19,Man,Right,
10,1,45,1.0170029000000795,['n'],0,left,none,-99,-99,0.5,0,none,31,19,Man,Right,
11,1,45,0.334623300000203,['n'],1,right,none,-99,-99,0.5,0,none,31,19,Man,Right,
12,1,45,2.350118299999849,['c'],1,left,none,-99,-99,0.5,0,none,31,19,Man,Right,
13,1,45,1.6337930999998207,['n'],1,right,none,-99,-99,0.5,0,none,31,19,Man,Right,
14,1,45,1.1176140000006853,['c'],0,right,none,-99,-99,0.5,0,none,31,19,Man,Right,
15,1,45,0.5658694000003379,['n'],0,left,none,-99,-99,0.5,0,none,31,19,Man,Right,
16,1,45,0.6155558999998902,['n'],0,left,none,-99,-99,0.5,0,none,31,19,Man,Right,
17,1,45,0.21626889999970444,['n'],1,right,none,-99,-99,0.5,0,none,31,19,Man,Right,
18,1,45,0.4512303999999858,['n'],1,right,none,-99,-99,0.5,0,none,31,19,Man,Right,
19,1,45,0.6010154999994484,['n'],0,left,none,-99,-99,0.5,0,none,31,19,Man,Right,
20,1,45,0.3843157000001156,['n'],1,right,none,-99,-99,0.5,0,none,31,19,Man,Right,
21,1,45,3.082962000000407,['n'],1,right,none,-99,-99,0.5,0,none,31,19,Man,Right,
22,1,45,1.0003033000002688,['c'],0,right,none,-99,-99,0.5,0,none,31,19,Man,Right,
23,1,45,0.284541399999398,['c'],0,right,none,-99,-99,0.5,0,none,31,19,Man,Right,
0,1,46,0.984238699999878,['n'],0,left,none,-99,-99,0.5,0,none,31,19,Man,Right,
1,1,46,0.0837773000002926,['c'],1,left,none,-99,-99,0.5,0,none,31,19,Man,Right,
2,1,46,0.13466799999969226,['n'],0,left,none,-99,-99,0.5,0,none,31,19,Man,Right,
3,1,46,0.017677600000752136,['c'],0,right,none,-99,-99,0.5,0,none,31,19,Man,Right,
4,1,46,0.16703320000033273,['n'],0,left,none,-99,-99,0.5,0,none,31,19,Man,Right,
5,1,46,0.31733859999985725,['c'],0,right,none,-99,-99,0.5,0,none,31,19,Man,Right,
6,1,46,0.31697859999985667,['n'],0,left,none,-99,-99,0.5,0,none,31,19,Man,Right,
7,1,46,0.0996618999997736,['c'],0,right,none,-99,-99,0.5,0,none,31,19,Man,Right,
8,1,46,0.3506698999999571,['n'],1,right,none,-99,-99,0.5,0,none,31,19,Man,Right,
9,1,46,0.23366860000078304,['n'],1,right,none,-99,-99,0.5,0,none,31,19,Man,Right,
10,1,46,0.48378969999976107,['n'],1,right,none,-99,-99,0.5,0,none,31,19,Man,Right,
11,1,46,0.13437570000041887,['n'],0,left,none,-99,-99,0.5,0,none,31,19,Man,Right,
12,1,46,0.1335983999997552,['c'],1,left,none,-99,-99,0.5,0,none,31,19,Man,Right,
13,1,46,0.3008741000003283,['c'],0,right,none,-99,-99,0.5,0,none,31,19,Man,Right,
14,1,46,0.2676872000001822,['n'],0,left,none,-99,-99,0.5,0,none,31,19,Man,Right,
15,1,46,0.13372230000004492,['c'],1,left,none,-99,-99,0.5,0,none,31,19,Man,Right,
16,1,46,0.2657865999999558,['c'],0,right,none,-99,-99,0.5,0,none,31,19,Man,Right,
17,1,46,0.10117999999965832,['n'],0,left,none,-99,-99,0.5,0,none,31,19,Man,Right,
18,1,46,0.3154488999998648,['n'],1,right,none,-99,-99,0.5,0,none,31,19,Man,Right,
19,1,46,0.3516632999999274,['n'],1,right,none,-99,-99,0.5,0,none,31,19,Man,Right,
20,1,46,0.7509725999998409,['c'],1,left,none,-99,-99,0.5,0,none,31,19,Man,Right,
21,1,46,0.2837393999998312,['c'],1,left,none,-99,-99,0.5,0,none,31,19,Man,Right,
22,1,46,0.9164552000002004,['n'],1,right,none,-99,-99,0.5,0,none,31,19,Man,Right,
23,1,46,1.133643099999972,['c'],0,right,none,-99,-99,0.5,0,none,31,19,Man,Right,
0,1,47,0.9174769000001106,['c'],0,right,none,-99,-99,0.5,0,none,31,19,Man,Right,
1,1,47,0.45097439999972266,['n'],1,right,none,-99,-99,0.5,0,none,31,19,Man,Right,
2,1,47,0.06675230000018928,['n'],0,left,none,-99,-99,0.5,0,none,31,19,Man,Right,
3,1,47,0.2169475999999122,['n'],1,right,none,-99,-99,0.5,0,none,31,19,Man,Right,
4,1,47,0.050629700000172306,['n'],0,left,none,-99,-99,0.5,0,none,31,19,Man,Right,
5,1,47,0.26783569999952306,['c'],1,left,none,-99,-99,0.5,0,none,31,19,Man,Right,
6,1,47,0.18312340000011318,['c'],0,right,none,-99,-99,0.5,0,none,31,19,Man,Right,
7,1,47,0.3173944999998639,['c'],0,right,none,-99,-99,0.5,0,none,31,19,Man,Right,
8,1,47,0.315908199999285,['n'],0,left,none,-99,-99,0.5,0,none,31,19,Man,Right,
9,1,47,0.017890099999931408,['n'],1,right,none,-99,-99,0.5,0,none,31,19,Man,Right,
10,1,47,0.18341330000021117,['n'],0,left,none,-99,-99,0.5,0,none,31,19,Man,Right,
11,1,47,0.5659636999998838,['c'],0,right,none,-99,-99,0.5,0,none,31,19,Man,Right,
12,1,47,0.14984009999989212,['n'],1,right,none,-99,-99,0.5,0,none,31,19,Man,Right,
13,1,47,0.8822788000006767,['c'],0,right,none,-99,-99,0.5,0,none,31,19,Man,Right,
14,1,47,0.04963730000054056,['n'],0,left,none,-99,-99,0.5,0,none,31,19,Man,Right,
15,1,47,0.11723089999941294,['n'],0,left,none,-99,-99,0.5,0,none,31,19,Man,Right,
16,1,47,0.10006179999982123,['n'],0,left,none,-99,-99,0.5,0,none,31,19,Man,Right,
17,1,47,0.1840533000004143,['c'],1,left,none,-99,-99,0.5,0,none,31,19,Man,Right,
18,1,47,0.26813510000010865,['c'],0,right,none,-99,-99,0.5,0,none,31,19,Man,Right,
19,1,47,0.43248440000024857,['n'],1,right,none,-99,-99,0.5,0,none,31,19,Man,Right,
20,1,47,0.23361339999974007,['n'],1,right,none,-99,-99,0.5,0,none,31,19,Man,Right,
21,1,47,0.2511985999999524,['n'],0,left,none,-99,-99,0.5,0,none,31,19,Man,Right,
22,1,47,0.2004629000002751,['n'],0,left,none,-99,-99,0.5,0,none,31,19,Man,Right,
23,1,47,0.150467700000263,['n'],0,left,none,-99,-99,0.5,0,none,31,19,Man,Right,
0,1,48,0.36671389999992243,['c'],0,right,none,-99,-99,0.5,0,none,31,19,Man,Right,
1,1,48,0.018171499999880325,['n'],0,left,none,-99,-99,0.5,0,none,31,19,Man,Right,
2,1,48,0.20115630000054807,['n'],1,right,none,-99,-99,0.5,0,none,31,19,Man,Right,
3,1,48,0.2501584000001458,['n'],0,left,none,-99,-99,0.5,0,none,31,19,Man,Right,
4,1,48,0.25010000000020227,['n'],0,left,none,-99,-99,0.5,0,none,31,19,Man,Right,
5,1,48,0.38247390000015,['n'],0,left,none,-99,-99,0.5,0,none,31,19,Man,Right,
6,1,48,0.01652990000002319,['n'],1,right,none,-99,-99,0.5,0,none,31,19,Man,Right,
7,1,48,0.015450300000338757,['n'],1,right,none,-99,-99,0.5,0,none,31,19,Man,Right,
8,1,48,0.2681290999998964,['n'],0,left,none,-99,-99,0.5,0,none,31,19,Man,Right,
9,1,48,0.10097620000033203,['c'],0,right,none,-99,-99,0.5,0,none,31,19,Man,Right,
10,1,48,0.10116310000012163,['n'],1,right,none,-99,-99,0.5,0,none,31,19,Man,Right,
11,1,48,0.2170492999994167,['n'],1,right,none,-99,-99,0.5,0,none,31,19,Man,Right,
12,1,48,0.35009749999971973,['c'],1,left,none,-99,-99,0.5,0,none,31,19,Man,Right,
13,1,48,0.2841124000005948,['n'],1,right,none,-99,-99,0.5,0,none,31,19,Man,Right,
14,1,48,0.1678630999995221,['n'],1,right,none,-99,-99,0.5,0,none,31,19,Man,Right,
15,1,48,0.10239799999999377,['n'],1,right,none,-99,-99,0.5,0,none,31,19,Man,Right,
16,1,48,0.6659318000001804,['c'],1,left,none,-99,-99,0.5,0,none,31,19,Man,Right,
17,1,48,0.617207999999664,['c'],1,left,none,-99,-99,0.5,0,none,31,19,Man,Right,
18,1,48,0.5675171000002592,['c'],1,left,none,-99,-99,0.5,0,none,31,19,Man,Right,
19,1,48,0.23490049999963958,['n'],1,right,none,-99,-99,0.5,0,none,31,19,Man,Right,
20,1,48,0.26683649999995396,['n'],0,left,none,-99,-99,0.5,0,none,31,19,Man,Right,
21,1,48,0.2999638999999661,['n'],1,right,none,-99,-99,0.5,0,none,31,19,Man,Right,
22,1,48,0.3676113000001351,['n'],0,left,none,-99,-99,0.5,0,none,31,19,Man,Right,
23,1,48,0.20008970000071713,['n'],0,left,none,-99,-99,0.5,0,none,31,19,Man,Right,
0,1,49,0.3667767000006279,['n'],1,right,none,-99,-99,0.5,0,none,31,19,Man,Right,
1,1,49,0.2508262999999715,['c'],1,left,none,-99,-99,0.5,0,none,31,19,Man,Right,
2,1,49,0.2501806000000215,['n'],1,right,none,-99,-99,0.5,0,none,31,19,Man,Right,
3,1,49,0.06788270000015473,['n'],0,left,none,-99,-99,0.5,0,none,31,19,Man,Right,
4,1,49,0.23418109999965964,['n'],1,right,none,-99,-99,0.5,0,none,31,19,Man,Right,
5,1,49,0.11689310000019759,['n'],0,left,none,-99,-99,0.5,0,none,31,19,Man,Right,
6,1,49,0.3337349000003087,['n'],1,right,none,-99,-99,0.5,0,none,31,19,Man,Right,
7,1,49,0.21666749999985768,['n'],0,left,none,-99,-99,0.5,0,none,31,19,Man,Right,
8,1,49,0.01632080000035785,['n'],0,left,none,-99,-99,0.5,0,none,31,19,Man,Right,
9,1,49,0.4009798999995837,['n'],1,right,none,-99,-99,0.5,0,none,31,19,Man,Right,
10,1,49,0.26691370000025927,['n'],1,right,none,-99,-99,0.5,0,none,31,19,Man,Right,
11,1,49,0.250104900000224,['n'],0,left,none,-99,-99,0.5,0,none,31,19,Man,Right,
12,1,49,0.1169240000008358,['n'],1,right,none,-99,-99,0.5,0,none,31,19,Man,Right,
13,1,49,0.38257960000009916,['n'],0,left,none,-99,-99,0.5,0,none,31,19,Man,Right,
14,1,49,0.2838892999998279,['n'],1,right,none,-99,-99,0.5,0,none,31,19,Man,Right,
15,1,49,0.5180419999996957,['c'],0,right,none,-99,-99,0.5,0,none,31,19,Man,Right,
16,1,49,0.6994706999994378,['c'],1,left,none,-99,-99,0.5,0,none,31,19,Man,Right,
17,1,49,0.7676272999997309,['n'],1,right,none,-99,-99,0.5,0,none,31,19,Man,Right,
18,1,49,0.5169534999995449,['n'],0,left,none,-99,-99,0.5,0,none,31,19,Man,Right,
19,1,49,0.28388879999965866,['c'],0,right,none,-99,-99,0.5,0,none,31,19,Man,Right,
20,1,49,0.21687329999986105,['n'],1,right,none,-99,-99,0.5,0,none,31,19,Man,Right,
21,1,49,0.2168552000002819,['n'],0,left,none,-99,-99,0.5,0,none,31,19,Man,Right,
22,1,49,0.43293829999947775,['c'],1,left,none,-99,-99,0.5,0,none,31,19,Man,Right,
23,1,49,0.0831239999997706,['c'],1,left,none,-99,-99,0.5,0,none,31,19,Man,Right,
0,1,50,0.2654231999995318,['n'],1,right,none,-99,-99,0.5,0,none,31,19,Man,Right,
1,1,50,0.3320423999994091,['n'],1,right,none,-99,-99,0.5,0,none,31,19,Man,Right,
2,1,50,0.8009650000003603,['c'],1,left,none,-99,-99,0.5,0,none,31,19,Man,Right,
3,1,50,1.0341820999992706,['n'],1,right,none,-99,-99,0.5,0,none,31,19,Man,Right,
4,1,50,0.5013641000005009,['n'],0,left,none,-99,-99,0.5,0,none,31,19,Man,Right,
5,1,50,0.26702209999984916,['c'],0,right,none,-99,-99,0.5,0,none,31,19,Man,Right,
6,1,50,0.08417559999998048,['n'],1,right,none,-99,-99,0.5,0,none,31,19,Man,Right,
7,1,50,0.09930160000021715,['n'],1,right,none,-99,-99,0.5,0,none,31,19,Man,Right,
8,1,50,0.4998494000001301,['c'],1,left,none,-99,-99,0.5,0,none,31,19,Man,Right,
9,1,50,0.032620400000269,['n'],0,left,none,-99,-99,0.5,0,none,31,19,Man,Right,
10,1,50,0.5831055999997261,['n'],0,left,none,-99,-99,0.5,0,none,31,19,Man,Right,
11,1,50,0.14923339999950258,['c'],0,right,none,-99,-99,0.5,0,none,31,19,Man,Right,
12,1,50,0.28315310000016325,['n'],0,left,none,-99,-99,0.5,0,none,31,19,Man,Right,
13,1,50,0.017305800000031013,['c'],1,left,none,-99,-99,0.5,0,none,31,19,Man,Right,
14,1,50,0.7167697999993834,['n'],0,left,none,-99,-99,0.5,0,none,31,19,Man,Right,
15,1,50,0.8001939000005223,['n'],1,right,none,-99,-99,0.5,0,none,31,19,Man,Right,
16,1,50,0.6003290999997262,['n'],1,right,none,-99,-99,0.5,0,none,31,19,Man,Right,
17,1,50,0.21792360000017652,['n'],1,right,none,-99,-99,0.5,0,none,31,19,Man,Right,
18,1,50,1.050162100000307,['c'],1,left,none,-99,-99,0.5,0,none,31,19,Man,Right,
19,1,50,0.6167208999995637,['n'],0,left,none,-99,-99,0.5,0,none,31,19,Man,Right,
20,1,50,0.9665340000001379,['c'],1,left,none,-99,-99,0.5,0,none,31,19,Man,Right,
21,1,50,1.1010630000000674,['c'],0,right,none,-99,-99,0.5,0,none,31,19,Man,Right,
22,1,50,0.34933249999994587,['n'],0,left,none,-99,-99,0.5,0,none,31,19,Man,Right,
23,1,50,0.2173348000005717,['n'],1,right,none,-99,-99,0.5,0,none,31,19,Man,Right,
0,1,51,0.36851669999941805,['n'],0,left,none,-99,-99,0.5,0,none,31,19,Man,Right,
1,1,51,0.2502665000001798,['n'],1,right,none,-99,-99,0.5,0,none,31,19,Man,Right,
2,1,51,0.0995361999994202,['c'],0,right,none,-99,-99,0.5,0,none,31,19,Man,Right,
3,1,51,0.30103090000011434,['n'],0,left,none,-99,-99,0.5,0,none,31,19,Man,Right,
4,1,51,0.05046750000019529,['c'],1,left,none,-99,-99,0.5,0,none,31,19,Man,Right,
5,1,51,0.11611219999940658,['n'],0,left,none,-99,-99,0.5,0,none,31,19,Man,Right,
6,1,51,0.016270999999505875,['c'],0,right,none,-99,-99,0.5,0,none,31,19,Man,Right,
7,1,51,0.03394460000072286,['n'],0,left,none,-99,-99,0.5,0,none,31,19,Man,Right,
8,1,51,0.01753240000016376,['n'],1,right,none,-99,-99,0.5,0,none,31,19,Man,Right,
9,1,51,0.45055669999965176,['c'],1,left,none,-99,-99,0.5,0,none,31,19,Man,Right,
10,1,51,0.24878110000008746,['n'],1,right,none,-99,-99,0.5,0,none,31,19,Man,Right,
11,1,51,0.6334272000003693,['c'],1,left,none,-99,-99,0.5,0,none,31,19,Man,Right,
12,1,51,0.28339080000023387,['c'],1,left,none,-99,-99,0.5,0,none,31,19,Man,Right,
13,1,51,0.9663110999999844,['n'],0,left,none,-99,-99,0.5,0,none,31,19,Man,Right,
14,1,51,0.334967300000244,['n'],1,right,none,-99,-99,0.5,0,none,31,19,Man,Right,
15,1,51,0.3831325999999535,['n'],1,right,none,-99,-99,0.5,0,none,31,19,Man,Right,
16,1,51,0.898630100000446,['c'],1,left,none,-99,-99,0.5,0,none,31,19,Man,Right,
17,1,51,1.2847639999999956,['c'],0,right,none,-99,-99,0.5,0,none,31,19,Man,Right,
18,1,51,0.21676909999951022,['n'],1,right,none,-99,-99,0.5,0,none,31,19,Man,Right,
19,1,51,0.08396360000006098,['n'],1,right,none,-99,-99,0.5,0,none,31,19,Man,Right,
20,1,51,0.21635060000062367,['n'],0,left,none,-99,-99,0.5,0,none,31,19,Man,Right,
21,1,51,0.08391180000035092,['n'],0,left,none,-99,-99,0.5,0,none,31,19,Man,Right,
22,1,51,0.034106299999621115,['c'],0,right,none,-99,-99,0.5,0,none,31,19,Man,Right,
