withinblocktrial,block,block_repetition,rt,resp,cor,cresp,conf_press,cj,rtconf,coherence,slow_trial,manipulation,sub,age,gender,handedness,
0,1,1,2.9483792000000903,['c'],0,right,none,-99,-99,0.5,0,none,26,19,Woman,Right,
1,1,1,1.2330707000000984,['n'],0,left,none,-99,-99,0.5,0,none,26,19,Woman,Right,
2,1,1,1.7842813999995997,['n'],1,right,none,-99,-99,0.5,0,none,26,19,Woman,Right,
3,1,1,2.1835534000001644,['n'],0,left,none,-99,-99,0.5,0,none,26,19,Woman,Right,
4,1,1,2.6325769000004584,['c'],1,left,none,-99,-99,0.5,0,none,26,19,Woman,Right,
5,1,1,1.5669889000000694,['n'],1,right,none,-99,-99,0.5,0,none,26,19,Woman,Right,
6,1,1,2.634374199999911,['c'],0,right,none,-99,-99,0.5,0,none,26,19,Woman,Right,
7,1,1,0.7345236999999543,['n'],1,right,none,-99,-99,0.5,0,none,26,19,Woman,Right,
8,1,1,2.0008723000000828,['c'],1,left,none,-99,-99,0.5,0,none,26,19,Woman,Right,
9,1,1,1.682603399999607,['n'],1,right,none,-99,-99,0.5,0,none,26,19,Woman,Right,
10,1,1,1.3344230000002426,['c'],1,left,none,-99,-99,0.5,0,none,26,19,Woman,Right,
11,1,1,2.2008879000004526,['c'],0,right,none,-99,-99,0.5,0,none,26,19,Woman,Right,
12,1,1,1.2330501000005825,['n'],0,left,none,-99,-99,0.5,0,none,26,19,Woman,Right,
13,1,1,0.7671721999995498,['c'],1,left,none,-99,-99,0.5,0,none,26,19,Woman,Right,
14,1,1,0.7503905000003215,['c'],0,right,none,-99,-99,0.5,0,none,26,19,Woman,Right,
15,1,1,0.9671122999998261,['c'],1,left,none,-99,-99,0.5,0,none,26,19,Woman,Right,
16,1,1,0.9001645999996981,['c'],1,left,none,-99,-99,0.5,0,none,26,19,Woman,Right,
17,1,1,0.7000286000002234,['n'],1,right,none,-99,-99,0.5,0,none,26,19,Woman,Right,
18,1,1,0.6502787999997963,['n'],1,right,none,-99,-99,0.5,0,none,26,19,Woman,Right,
19,1,1,0.533121200000096,['c'],1,left,none,-99,-99,0.5,0,none,26,19,Woman,Right,
20,1,1,0.8997168000005331,['n'],1,right,none,-99,-99,0.5,0,none,26,19,Woman,Right,
21,1,1,1.1511766000003263,['c'],0,right,none,-99,-99,0.5,0,none,26,19,Woman,Right,
22,1,1,0.7492989000002126,['c'],1,left,none,-99,-99,0.5,0,none,26,19,Woman,Right,
23,1,1,1.1675160000004325,['n'],0,left,none,-99,-99,0.5,0,none,26,19,Woman,Right,
0,1,2,1.8505411999994976,['c'],0,right,none,-99,-99,0.5,0,none,26,19,Woman,Right,
1,1,2,0.6162223999999696,['n'],1,right,none,-99,-99,0.5,0,none,26,19,Woman,Right,
2,1,2,0.6002730000000156,['c'],1,left,none,-99,-99,0.5,0,none,26,19,Woman,Right,
3,1,2,0.5508042999999816,['n'],1,right,none,-99,-99,0.5,0,none,26,19,Woman,Right,
4,1,2,0.5504582999992635,['c'],1,left,none,-99,-99,0.5,0,none,26,19,Woman,Right,
5,1,2,0.73377789999995,['c'],1,left,none,-99,-99,0.5,0,none,26,19,Woman,Right,
6,1,2,0.4510392000001957,['n'],1,right,none,-99,-99,0.5,0,none,26,19,Woman,Right,
7,1,2,0.5004618000002665,['c'],1,left,none,-99,-99,0.5,0,none,26,19,Woman,Right,
8,1,2,0.4671631000001071,['c'],1,left,none,-99,-99,0.5,0,none,26,19,Woman,Right,
9,1,2,0.4013666999999259,['n'],1,right,none,-99,-99,0.5,0,none,26,19,Woman,Right,
10,1,2,0.5337718000000677,['n'],1,right,none,-99,-99,0.5,0,none,26,19,Woman,Right,
11,1,2,0.7671086000000287,['c'],1,left,none,-99,-99,0.5,0,none,26,19,Woman,Right,
12,1,2,0.6668798000000606,['n'],1,right,none,-99,-99,0.5,0,none,26,19,Woman,Right,
13,1,2,0.434773199999654,['c'],1,left,none,-99,-99,0.5,0,none,26,19,Woman,Right,
14,1,2,0.40086890000020503,['n'],1,right,none,-99,-99,0.5,0,none,26,19,Woman,Right,
15,1,2,0.4321928999997908,['c'],1,left,none,-99,-99,0.5,0,none,26,19,Woman,Right,
16,1,2,0.38482440000007045,['n'],1,right,none,-99,-99,0.5,0,none,26,19,Woman,Right,
17,1,2,0.45092100000056234,['c'],1,left,none,-99,-99,0.5,0,none,26,19,Woman,Right,
18,1,2,0.7829703999996127,['c'],1,left,none,-99,-99,0.5,0,none,26,19,Woman,Right,
19,1,2,0.4993359000000055,['n'],1,right,none,-99,-99,0.5,0,none,26,19,Woman,Right,
20,1,2,0.4337149999992107,['c'],1,left,none,-99,-99,0.5,0,none,26,19,Woman,Right,
21,1,2,0.4840254000000641,['n'],1,right,none,-99,-99,0.5,0,none,26,19,Woman,Right,
22,1,2,0.33444390000022395,['c'],1,left,none,-99,-99,0.5,0,none,26,19,Woman,Right,
23,1,2,0.4513213000000178,['n'],1,right,none,-99,-99,0.5,0,none,26,19,Woman,Right,
0,2,1,2.4010385000001406,['n'],0,left,none,-99,-99,0.2,0,none,26,19,Woman,Right,
1,2,1,0.7334358999996766,['n'],1,right,none,-99,-99,0.2,0,none,26,19,Woman,Right,
2,2,1,0.767710299999635,['c'],1,left,none,-99,-99,0.4,0,none,26,19,Woman,Right,
3,2,1,0.5834918000000471,['n'],1,right,none,-99,-99,0.2,0,none,26,19,Woman,Right,
4,2,1,0.4334478000000672,['n'],1,right,none,-99,-99,0.2,0,none,26,19,Woman,Right,
5,2,1,0.43361019999974815,['n'],1,right,none,-99,-99,0.2,0,none,26,19,Woman,Right,
6,2,1,0.4506143999997221,['n'],1,right,none,-99,-99,0.4,0,none,26,19,Woman,Right,
7,2,1,0.40104080000037357,['n'],1,right,none,-99,-99,0.1,0,none,26,19,Woman,Right,
8,2,1,0.5506276000005528,['c'],1,left,none,-99,-99,0.1,0,none,26,19,Woman,Right,
9,2,1,0.36789220000082423,['n'],0,left,none,-99,-99,0.2,0,none,26,19,Woman,Right,
10,2,1,0.41651329999967857,['n'],0,left,none,-99,-99,0.1,0,none,26,19,Woman,Right,
11,2,1,0.6343191999994815,['c'],1,left,none,-99,-99,0.1,0,none,26,19,Woman,Right,
12,2,1,0.43454100000053586,['n'],1,right,none,-99,-99,0.1,0,none,26,19,Woman,Right,
13,2,1,0.4318947000001572,['n'],1,right,none,-99,-99,0.2,0,none,26,19,Woman,Right,
14,2,1,0.4503057000001718,['c'],0,right,none,-99,-99,0.1,0,none,26,19,Woman,Right,
15,2,1,0.31804339999962394,['n'],0,left,none,-99,-99,0.1,0,none,26,19,Woman,Right,
16,2,1,0.7173636999996233,['c'],1,left,none,-99,-99,0.4,0,none,26,19,Woman,Right,
17,2,1,0.48446140000032756,['n'],0,left,none,-99,-99,0.4,0,none,26,19,Woman,Right,
18,2,1,0.4338431000005585,['c'],0,right,none,-99,-99,0.4,0,none,26,19,Woman,Right,
19,2,1,0.417788699999619,['n'],0,left,none,-99,-99,0.2,0,none,26,19,Woman,Right,
20,2,1,0.8166768999999476,['c'],1,left,none,-99,-99,0.1,0,none,26,19,Woman,Right,
21,2,1,0.601115899999968,['c'],1,left,none,-99,-99,0.4,0,none,26,19,Woman,Right,
22,2,1,0.6007769999996526,['n'],1,right,none,-99,-99,0.4,0,none,26,19,Woman,Right,
23,2,1,0.5004406999996718,['n'],1,right,none,-99,-99,0.4,0,none,26,19,Woman,Right,
0,3,1,1.0509510000001683,['n'],1,right,['3'],4,1.8834597000004578,0.4,0,none,26,19,Woman,Right,
1,3,1,2.30244330000005,['n'],0,left,['2'],5,1.4015572999996948,0.1,0,none,26,19,Woman,Right,
2,3,1,0.716534799999863,['c'],1,left,['1'],6,1.0010197999999946,0.2,0,none,26,19,Woman,Right,
3,3,1,0.44980949999990116,['n'],0,left,['2'],5,1.384484600000178,0.4,0,none,26,19,Woman,Right,
4,3,1,0.5510690999999497,['n'],1,right,['2'],5,0.5512934999997015,0.1,0,none,26,19,Woman,Right,
5,3,1,0.6991608000007545,['c'],1,left,['1'],6,0.8002257000007376,0.4,0,none,26,19,Woman,Right,
6,3,1,1.4508099000004222,['n'],0,left,['8'],3,0.4855686999999307,0.1,0,none,26,19,Woman,Right,
7,3,1,0.6338143000002674,['n'],0,left,['3'],4,1.2677653999999166,0.2,0,none,26,19,Woman,Right,
8,3,1,2.249272000000019,['n'],1,right,['3'],4,1.3846462000001338,0.2,0,none,26,19,Woman,Right,
9,3,1,0.8169661000001724,['c'],1,left,['2'],5,0.7505221000001256,0.4,0,none,26,19,Woman,Right,
10,3,1,0.45048419999966427,['n'],1,right,['1'],6,1.1339822999998432,0.1,0,none,26,19,Woman,Right,
11,3,1,0.4842220000000452,['n'],1,right,['2'],5,0.8513787000001685,0.4,0,none,26,19,Woman,Right,
12,3,1,1.484229100000448,['c'],0,right,['8'],3,0.5183718999996927,0.2,0,none,26,19,Woman,Right,
13,3,1,0.4504268000000593,['n'],1,right,['2'],5,0.8346102000004976,0.4,0,none,26,19,Woman,Right,
14,3,1,0.467056199999206,['n'],1,right,['2'],5,0.6661856000000625,0.2,0,none,26,19,Woman,Right,
15,3,1,0.8858334000005925,['n'],1,right,['9'],2,0.7345759999998336,0.4,0,none,26,19,Woman,Right,
16,3,1,0.7998032999994393,['c'],1,left,['2'],5,0.7841915999997582,0.4,0,none,26,19,Woman,Right,
17,3,1,0.8338543999998365,['n'],0,left,['8'],3,0.650527100000545,0.1,0,none,26,19,Woman,Right,
18,3,1,0.43307610000010754,['n'],0,left,['2'],5,1.018174299999373,0.1,0,none,26,19,Woman,Right,
19,3,1,0.6169898999996803,['n'],1,right,['8'],3,1.1344312999999602,0.1,0,none,26,19,Woman,Right,
20,3,1,0.3846979999998439,['n'],1,right,['2'],5,0.8512417000001733,0.1,0,none,26,19,Woman,Right,
21,3,1,2.2497246000002633,['n'],0,left,['8'],3,1.6502552000001742,0.2,0,none,26,19,Woman,Right,
22,3,1,0.517338199999358,['n'],1,right,['2'],5,0.8684155999999348,0.2,0,none,26,19,Woman,Right,
23,3,1,0.6332196000003023,['c'],1,left,['3'],4,1.1522493000002214,0.2,0,none,26,19,Woman,Right,
0,4,1,4.550328100000115,['c'],1,left,['8'],3,2.5509931999995388,0.4,0,AccAcc,26,19,Woman,Right,
1,4,1,0.4831623000000036,['n'],1,right,['3'],4,1.2679332999996404,0.4,0,AccAcc,26,19,Woman,Right,
2,4,1,0.66800400000011,['n'],0,left,['3'],4,3.6345965000000433,0.2,0,AccAcc,26,19,Woman,Right,
3,4,1,1.3000535999999556,['c'],1,left,['3'],4,3.084324800000104,0.1,0,AccAcc,26,19,Woman,Right,
4,4,1,0.7836698999999498,['n'],1,right,['9'],2,2.233060500000647,0.4,0,AccAcc,26,19,Woman,Right,
5,4,1,1.000531100000444,['c'],1,left,['3'],4,1.401213899999675,0.2,0,AccAcc,26,19,Woman,Right,
6,4,1,1.0171983999998702,['c'],1,left,['8'],3,3.0010339000000386,0.1,0,AccAcc,26,19,Woman,Right,
7,4,1,1.0501760999995895,['c'],1,left,['2'],5,1.2511443000003055,0.1,0,AccAcc,26,19,Woman,Right,
8,4,1,0.9663413999996919,['n'],1,right,['2'],5,1.0669757999994545,0.2,0,AccAcc,26,19,Woman,Right,
9,4,1,0.7015190000001894,['c'],1,left,['2'],5,1.2512079999996786,0.2,0,AccAcc,26,19,Woman,Right,
10,4,1,0.8008350000000064,['n'],1,right,['3'],4,1.4845101000000795,0.2,0,AccAcc,26,19,Woman,Right,
11,4,1,1.9504243000001225,['c'],0,right,['9'],2,1.3013493999997081,0.1,0,AccAcc,26,19,Woman,Right,
12,4,1,0.9489817999992738,['c'],1,left,['2'],5,1.501723200000015,0.2,0,AccAcc,26,19,Woman,Right,
13,4,1,0.8834421000001385,['c'],0,right,['3'],4,1.5510818000002473,0.1,0,AccAcc,26,19,Woman,Right,
14,4,1,1.7341264999995474,['n'],0,left,['9'],2,0.9680560999995578,0.1,0,AccAcc,26,19,Woman,Right,
15,4,1,0.9001888000002509,['c'],1,left,['8'],3,1.2012402999998812,0.4,0,AccAcc,26,19,Woman,Right,
16,4,1,0.9156381999991936,['c'],1,left,['2'],5,0.9835683000001154,0.1,0,AccAcc,26,19,Woman,Right,
17,4,1,0.751618000000235,['n'],1,right,['2'],5,0.8169338000006974,0.4,0,AccAcc,26,19,Woman,Right,
18,4,1,0.7326903000002858,['c'],0,right,['3'],4,0.8181793000003381,0.2,0,AccAcc,26,19,Woman,Right,
19,4,1,0.5839034999999058,['n'],1,right,['3'],4,1.0497309000002133,0.1,0,AccAcc,26,19,Woman,Right,
20,4,1,0.634168900000077,['n'],1,right,['3'],4,1.2513515999999072,0.4,0,AccAcc,26,19,Woman,Right,
21,4,1,0.700218599999971,['c'],1,left,['3'],4,0.8845914000003177,0.2,0,AccAcc,26,19,Woman,Right,
22,4,1,0.9000006999995094,['n'],0,left,['8'],3,1.9683825000001889,0.2,0,AccAcc,26,19,Woman,Right,
23,4,1,5.015914699999485,x,-99,right,none,-99,-99,0.2,1,AccAcc,26,19,Woman,Right,
24,4,1,0.8511583999998038,['n'],1,right,['8'],3,1.2173182999995333,0.1,0,AccAcc,26,19,Woman,Right,
25,4,1,0.5999971000001096,['n'],1,right,['3'],4,1.0845933000000514,0.4,0,AccAcc,26,19,Woman,Right,
26,4,1,0.9337266000002273,['c'],0,right,['2'],5,1.184726700000283,0.2,0,AccAcc,26,19,Woman,Right,
27,4,1,1.0333735999993223,['n'],1,right,['3'],4,1.2183248000001186,0.1,0,AccAcc,26,19,Woman,Right,
28,4,1,0.7329498000008243,['c'],1,left,['8'],3,0.7512298000001465,0.1,0,AccAcc,26,19,Woman,Right,
29,4,1,0.9008140000005369,['c'],0,right,['9'],2,0.6680154999994556,0.1,0,AccAcc,26,19,Woman,Right,
30,4,1,1.0507626999997228,['c'],0,right,['9'],2,0.40133980000064184,0.1,0,AccAcc,26,19,Woman,Right,
31,4,1,0.800767700000506,['n'],1,right,['9'],2,0.4510826999994606,0.4,0,AccAcc,26,19,Woman,Right,
32,4,1,2.28276889999961,['n'],0,left,['9'],2,0.8015542999992249,0.1,0,AccAcc,26,19,Woman,Right,
33,4,1,0.6839305000003151,['c'],1,left,['9'],2,0.5850180999996155,0.2,0,AccAcc,26,19,Woman,Right,
34,4,1,0.9501730000001771,['n'],1,right,['9'],2,1.0677867999993396,0.4,0,AccAcc,26,19,Woman,Right,
35,4,1,0.7337354999999661,['n'],1,right,['9'],2,0.5349529000004623,0.4,0,AccAcc,26,19,Woman,Right,
36,4,1,0.6844774000001053,['n'],1,right,['8'],3,0.8663099000004877,0.4,0,AccAcc,26,19,Woman,Right,
37,4,1,0.7839297999998962,['n'],1,right,['8'],3,0.43476509999982227,0.1,0,AccAcc,26,19,Woman,Right,
38,4,1,0.7506724000004397,['c'],0,right,['9'],2,0.3842419000002337,0.1,0,AccAcc,26,19,Woman,Right,
39,4,1,4.01737570000023,['n'],0,left,['9'],2,0.4336261000007653,0.4,0,AccAcc,26,19,Woman,Right,
40,4,1,1.9005965000005745,['c'],1,left,['9'],2,0.6181643999998414,0.4,0,AccAcc,26,19,Woman,Right,
41,4,1,0.7505535999998756,['n'],1,right,['9'],2,0.40116630000011355,0.4,0,AccAcc,26,19,Woman,Right,
42,4,1,0.7661391000001458,['n'],1,right,['9'],2,0.3015242000001308,0.4,0,AccAcc,26,19,Woman,Right,
43,4,1,0.6828070000001389,['c'],1,left,['9'],2,0.417930399999932,0.4,0,AccAcc,26,19,Woman,Right,
44,4,1,0.83262570000079,['n'],1,right,['9'],2,0.43584499999997206,0.2,0,AccAcc,26,19,Woman,Right,
45,4,1,0.9511724000003596,['c'],1,left,['3'],4,1.0348470999997517,0.2,0,AccAcc,26,19,Woman,Right,
46,4,1,0.9500898000005691,['n'],1,right,['9'],2,0.3845240000000558,0.1,0,AccAcc,26,19,Woman,Right,
47,4,1,0.9837650999998004,['c'],1,left,['9'],2,0.5678632999997717,0.2,0,AccAcc,26,19,Woman,Right,
48,4,1,0.5668755999995483,['c'],1,left,['0'],1,0.5349442999995517,0.2,0,AccAcc,26,19,Woman,Right,
49,4,1,0.9165470999996614,['c'],1,left,['2'],5,0.9184584999993604,0.2,0,AccAcc,26,19,Woman,Right,
50,4,1,0.9834893999995984,['n'],0,left,['9'],2,0.6346407999999428,0.2,0,AccAcc,26,19,Woman,Right,
51,4,1,0.9494832999998835,['n'],1,right,['9'],2,0.3170104999999239,0.1,0,AccAcc,26,19,Woman,Right,
52,4,1,1.0321614000004047,['n'],1,right,['8'],3,0.3673195000001215,0.4,0,AccAcc,26,19,Woman,Right,
53,4,1,0.851115800000116,['n'],0,left,['9'],2,0.3672530000003462,0.2,0,AccAcc,26,19,Woman,Right,
54,4,1,1.0837734999995519,['n'],0,left,['9'],2,0.3513898999999583,0.1,0,AccAcc,26,19,Woman,Right,
55,4,1,0.8336417999998957,['n'],1,right,['2'],5,1.0682377000002816,0.4,0,AccAcc,26,19,Woman,Right,
56,4,1,1.3502789000003759,['c'],1,left,['2'],5,0.6012992000005397,0.2,0,AccAcc,26,19,Woman,Right,
57,4,1,0.9672927000001437,['c'],1,left,['2'],5,0.33513349999975617,0.1,0,AccAcc,26,19,Woman,Right,
58,4,1,1.1665586999997686,['n'],0,left,['9'],2,0.4181438999994498,0.4,0,AccAcc,26,19,Woman,Right,
59,4,1,0.6507848999999624,['c'],1,left,['1'],6,1.1514178999996147,0.4,0,AccAcc,26,19,Woman,Right,
0,5,1,0.8175198999997519,['c'],1,left,['2'],5,0.6849854000001869,0.1,0,FastAcc,26,19,Woman,Right,
1,5,1,0.616394599999694,['n'],1,right,['9'],2,0.26811929999985296,0.2,0,FastAcc,26,19,Woman,Right,
2,5,1,0.5171497000001182,['c'],1,left,['2'],5,0.28473180000037246,0.4,0,FastAcc,26,19,Woman,Right,
3,5,1,0.4829023000002053,['n'],1,right,['2'],5,0.3680164000006698,0.4,0,FastAcc,26,19,Woman,Right,
4,5,1,0.45149899999978516,['n'],0,left,['2'],5,0.3513522000002922,0.2,0,FastAcc,26,19,Woman,Right,
5,5,1,0.7677314000002298,['c'],1,left,['2'],5,0.6849837999998272,0.2,0,FastAcc,26,19,Woman,Right,
6,5,1,0.4501804000001357,['n'],1,right,['3'],4,0.5513185999998313,0.1,0,FastAcc,26,19,Woman,Right,
7,5,1,0.5006554000001415,['c'],1,left,['2'],5,0.35129310000047553,0.2,0,FastAcc,26,19,Woman,Right,
8,5,1,0.5341752000003908,['c'],1,left,['2'],5,0.38371269999970536,0.2,0,FastAcc,26,19,Woman,Right,
9,5,1,1.0163296000000628,['n'],1,right,['8'],3,0.4519026000007216,0.1,0,FastAcc,26,19,Woman,Right,
10,5,1,0.5497904000003473,['c'],1,left,['2'],5,0.30155179999928805,0.1,0,FastAcc,26,19,Woman,Right,
11,5,1,0.5661475000006249,['n'],1,right,['9'],2,0.2355852999999115,0.1,0,FastAcc,26,19,Woman,Right,
12,5,1,0.6005183999996007,['n'],1,right,['2'],5,0.3507881000005,0.4,0,FastAcc,26,19,Woman,Right,
13,5,1,0.5002473000004102,['c'],0,right,['2'],5,0.3014283999991676,0.1,0,FastAcc,26,19,Woman,Right,
14,5,1,0.6172573000003467,['n'],1,right,['1'],6,0.5678233999997246,0.4,0,FastAcc,26,19,Woman,Right,
15,5,1,0.8671160999992935,['c'],0,right,['2'],5,0.2346806999994442,0.1,0,FastAcc,26,19,Woman,Right,
16,5,1,0.6841684000000896,['c'],1,left,['2'],5,0.3189774000002217,0.1,0,FastAcc,26,19,Woman,Right,
17,5,1,0.48371190000034403,['c'],1,left,['1'],6,0.30148150000059104,0.4,0,FastAcc,26,19,Woman,Right,
18,5,1,0.5171138000005158,['n'],1,right,['2'],5,0.3341595000001689,0.4,0,FastAcc,26,19,Woman,Right,
19,5,1,0.5657884000002014,['n'],1,right,['1'],6,0.3352444000001924,0.4,0,FastAcc,26,19,Woman,Right,
20,5,1,0.6005057000002125,['c'],1,left,['2'],5,0.6348732000005839,0.1,0,FastAcc,26,19,Woman,Right,
21,5,1,0.6342351000002964,['c'],1,left,['1'],6,0.2683455000005779,0.2,0,FastAcc,26,19,Woman,Right,
22,5,1,1.2669282000006206,['n'],1,right,['9'],2,0.5182230999998865,0.1,0,FastAcc,26,19,Woman,Right,
23,5,1,0.4505699999999706,['c'],0,right,['2'],5,0.2347338999998101,0.4,0,FastAcc,26,19,Woman,Right,
24,5,1,0.9672630000004574,['n'],0,left,['3'],4,0.317129300000488,0.1,0,FastAcc,26,19,Woman,Right,
25,5,1,0.550702800000181,['c'],1,left,['2'],5,0.7180385999999999,0.1,0,FastAcc,26,19,Woman,Right,
26,5,1,0.36701069999980973,['n'],0,left,['9'],2,0.26780849999977363,0.1,0,FastAcc,26,19,Woman,Right,
27,5,1,0.36754240000027494,['c'],0,right,['2'],5,0.2847781999998915,0.2,0,FastAcc,26,19,Woman,Right,
28,5,1,0.4170700000004217,['n'],1,right,['9'],2,0.2843023000004905,0.2,0,FastAcc,26,19,Woman,Right,
29,5,1,0.6337774999992689,['n'],1,right,['9'],2,0.51773299999968,0.4,0,FastAcc,26,19,Woman,Right,
30,5,1,0.38394479999988107,['c'],0,right,['9'],2,0.5179551000001084,0.4,0,FastAcc,26,19,Woman,Right,
31,5,1,0.49977770000077726,['n'],1,right,['2'],5,0.3179580000005444,0.2,0,FastAcc,26,19,Woman,Right,
32,5,1,0.5499571000000287,['n'],0,left,['0'],1,0.58486240000002,0.4,0,FastAcc,26,19,Woman,Right,
33,5,1,0.5172899000008329,['n'],1,right,['2'],5,0.3013818999997966,0.4,0,FastAcc,26,19,Woman,Right,
34,5,1,0.3841669000003094,['c'],1,left,['2'],5,0.3014614999992773,0.2,0,FastAcc,26,19,Woman,Right,
35,5,1,0.48387929999989865,['c'],0,right,['2'],5,0.36805529999946884,0.1,0,FastAcc,26,19,Woman,Right,
36,5,1,0.800437800000509,['c'],0,right,['0'],1,0.6682958000001236,0.2,0,FastAcc,26,19,Woman,Right,
37,5,1,0.6496594999998706,['c'],0,right,['2'],5,0.35277700000006007,0.1,0,FastAcc,26,19,Woman,Right,
38,5,1,0.6503679999996166,['c'],0,right,['0'],1,0.8666660999997475,0.2,0,FastAcc,26,19,Woman,Right,
39,5,1,0.6008847000002788,['c'],1,left,['2'],5,0.31790879999971366,0.1,0,FastAcc,26,19,Woman,Right,
40,5,1,0.5172516000002361,['n'],1,right,['0'],1,0.3182208999996874,0.2,0,FastAcc,26,19,Woman,Right,
41,5,1,0.9499869000001127,['n'],1,right,['0'],1,0.23540540000067267,0.2,0,FastAcc,26,19,Woman,Right,
42,5,1,0.45009810000010475,['c'],0,right,['2'],5,0.28480469999976776,0.1,0,FastAcc,26,19,Woman,Right,
43,5,1,0.3506433000002289,['n'],1,right,['0'],1,0.2680566999997609,0.2,0,FastAcc,26,19,Woman,Right,
44,5,1,0.6670330000006288,['c'],1,left,['2'],5,1.5500847000002977,0.4,0,FastAcc,26,19,Woman,Right,
45,5,1,0.7508212000002459,['c'],0,right,['2'],5,0.2346175000002404,0.4,0,FastAcc,26,19,Woman,Right,
46,5,1,0.5005213000004005,['n'],0,left,['9'],2,0.3005392999994001,0.1,0,FastAcc,26,19,Woman,Right,
47,5,1,0.4177652999997008,['c'],1,left,['2'],5,0.21690010000020266,0.2,0,FastAcc,26,19,Woman,Right,
48,5,1,0.4513561000003392,['n'],0,left,['0'],1,0.2510050000000774,0.4,0,FastAcc,26,19,Woman,Right,
49,5,1,0.4344150000006266,['c'],1,left,['2'],5,0.684872699999687,0.2,0,FastAcc,26,19,Woman,Right,
50,5,1,0.4979059999996025,['n'],0,left,['2'],5,0.3509819000000789,0.4,0,FastAcc,26,19,Woman,Right,
51,5,1,0.41645969999990484,['c'],0,right,['2'],5,1.0688608999998905,0.4,0,FastAcc,26,19,Woman,Right,
52,5,1,0.5836240999997244,['c'],1,left,['2'],5,0.41797459999997955,0.4,0,FastAcc,26,19,Woman,Right,
53,5,1,0.4832948999992368,['n'],0,left,['2'],5,0.3349306999998589,0.4,0,FastAcc,26,19,Woman,Right,
54,5,1,0.6997002000007342,['n'],0,left,['0'],1,0.23513360000015382,0.1,0,FastAcc,26,19,Woman,Right,
55,5,1,0.4506283999999141,['c'],1,left,['2'],5,0.2336660999999367,0.2,0,FastAcc,26,19,Woman,Right,
56,5,1,0.6510055999997348,['n'],0,left,['0'],1,0.28482030000031955,0.1,0,FastAcc,26,19,Woman,Right,
57,5,1,0.5004158000001553,['c'],1,left,['2'],5,0.3011324000008244,0.4,0,FastAcc,26,19,Woman,Right,
58,5,1,0.5672379999996338,['n'],0,left,['0'],1,0.2346663999996963,0.2,0,FastAcc,26,19,Woman,Right,
59,5,1,0.6504094000001714,['c'],0,right,['2'],5,0.21811739999975543,0.2,0,FastAcc,26,19,Woman,Right,
0,6,1,3.1511034000004656,['n'],0,left,['2'],5,0.5179957999998805,0.1,0,FastFast,26,19,Woman,Right,
1,6,1,0.7339762999999948,['n'],1,right,['2'],5,0.2347074999997858,0.2,0,FastFast,26,19,Woman,Right,
2,6,1,0.7171359000003577,['n'],1,right,['2'],5,0.20131899999978486,0.1,0,FastFast,26,19,Woman,Right,
3,6,1,0.4004757000002428,['n'],0,left,['9'],2,0.5836179999996602,0.4,0,FastFast,26,19,Woman,Right,
4,6,1,0.6339199000003646,['c'],1,left,['2'],5,0.3014679999996588,0.4,0,FastFast,26,19,Woman,Right,
5,6,1,0.3667284999992262,['c'],1,left,['2'],5,0.2518331000001126,0.4,0,FastFast,26,19,Woman,Right,
6,6,1,0.6172405999996045,['n'],1,right,['9'],2,0.31791729999986273,0.1,0,FastFast,26,19,Woman,Right,
7,6,1,0.8007740000002741,['c'],1,left,['2'],5,0.4013997999991261,0.1,0,FastFast,26,19,Woman,Right,
8,6,1,0.46732819999942876,['c'],1,left,['2'],5,0.26811199999974633,0.4,0,FastFast,26,19,Woman,Right,
9,6,1,0.4007148999999117,['n'],1,right,['2'],5,0.6006724999997459,0.1,0,FastFast,26,19,Woman,Right,
10,6,1,0.8003940000007788,['n'],0,left,['9'],2,0.23484619999999268,0.2,0,FastFast,26,19,Woman,Right,
11,6,1,0.3826128000000608,['c'],1,left,['2'],5,0.2857242000000042,0.4,0,FastFast,26,19,Woman,Right,
12,6,1,0.4001208999998198,['n'],1,right,['2'],5,0.418274300000121,0.2,0,FastFast,26,19,Woman,Right,
13,6,1,0.549076199999945,['n'],1,right,['2'],5,0.48356580000017857,0.4,0,FastFast,26,19,Woman,Right,
14,6,1,0.4187793999999485,['n'],1,right,['9'],2,0.44955320000008214,0.1,0,FastFast,26,19,Woman,Right,
15,6,1,0.6346430999992663,['c'],0,right,['2'],5,0.2508573000004617,0.2,0,FastFast,26,19,Woman,Right,
16,6,1,0.45056509999994887,['n'],1,right,['9'],2,0.2854805999995733,0.4,0,FastFast,26,19,Woman,Right,
17,6,1,0.5002129000004061,['c'],1,left,['2'],5,0.23475500000040483,0.2,0,FastFast,26,19,Woman,Right,
18,6,1,0.4504366999999547,['n'],1,right,['2'],5,0.30147519999991346,0.1,0,FastFast,26,19,Woman,Right,
19,6,1,0.6001308000004428,['n'],0,left,['2'],5,0.18428430000039953,0.1,0,FastFast,26,19,Woman,Right,
20,6,1,0.41610659999969357,['c'],1,left,['2'],5,0.3356018000004042,0.4,0,FastFast,26,19,Woman,Right,
21,6,1,0.5169891999994434,['n'],1,right,['2'],5,0.45120139999926323,0.1,0,FastFast,26,19,Woman,Right,
22,6,1,0.5169465999997556,['n'],1,right,['9'],2,1.051459100000102,0.1,0,FastFast,26,19,Woman,Right,
23,6,1,0.6997325000002093,['n'],1,right,['9'],2,0.7518588000002637,0.2,0,FastFast,26,19,Woman,Right,
24,6,1,0.8836370999997598,['n'],1,right,['2'],5,0.5848667000000205,0.2,0,FastFast,26,19,Woman,Right,
25,6,1,0.6003462999997282,['c'],1,left,['2'],5,0.26812450000034005,0.1,0,FastFast,26,19,Woman,Right,
26,6,1,0.5021614000006593,['n'],1,right,['1'],6,0.4179886000001716,0.2,0,FastFast,26,19,Woman,Right,
27,6,1,0.5168218999997407,['c'],1,left,['1'],6,0.45119100000010803,0.4,0,FastFast,26,19,Woman,Right,
28,6,1,0.6180813000000853,['c'],1,left,['1'],6,0.3681108000000677,0.2,0,FastFast,26,19,Woman,Right,
29,6,1,0.4318415999996432,['n'],0,left,['2'],5,0.385878899999625,0.1,0,FastFast,26,19,Woman,Right,
30,6,1,0.7003622000001997,['n'],0,left,['0'],1,1.0011893999999302,0.1,0,FastFast,26,19,Woman,Right,
31,6,1,0.6170093000000634,['c'],1,left,['1'],6,0.5845790000003035,0.4,0,FastFast,26,19,Woman,Right,
32,6,1,0.5835533999998006,['n'],0,left,['2'],5,0.5185252000001128,0.1,0,FastFast,26,19,Woman,Right,
33,6,1,0.5172701000001325,['n'],1,right,['2'],5,0.3848342999999659,0.4,0,FastFast,26,19,Woman,Right,
34,6,1,0.6508553999992728,['c'],1,left,['2'],5,0.4014931000001525,0.1,0,FastFast,26,19,Woman,Right,
35,6,1,0.45017790000019886,['n'],1,right,['2'],5,0.33452889999989566,0.1,0,FastFast,26,19,Woman,Right,
36,6,1,0.38278360000003886,['c'],1,left,['2'],5,0.2517360000001645,0.4,0,FastFast,26,19,Woman,Right,
37,6,1,0.467150300000867,['n'],1,right,['2'],5,0.2670422999999573,0.2,0,FastFast,26,19,Woman,Right,
38,6,1,0.5332829999997557,['c'],1,left,['2'],5,0.41916309999942314,0.2,0,FastFast,26,19,Woman,Right,
39,6,1,0.5014378000005308,['n'],1,right,['2'],5,0.30074710000008054,0.2,0,FastFast,26,19,Woman,Right,
40,6,1,0.5335604000001695,['c'],1,left,['2'],5,0.30153190000055474,0.4,0,FastFast,26,19,Woman,Right,
41,6,1,0.3004852000003666,['n'],0,left,['9'],2,0.601562599999852,0.2,0,FastFast,26,19,Woman,Right,
42,6,1,0.43368960000043444,['c'],0,right,['2'],5,0.2680118999996921,0.2,0,FastFast,26,19,Woman,Right,
43,6,1,0.383750200000577,['c'],0,right,['2'],5,0.384602599999198,0.1,0,FastFast,26,19,Woman,Right,
44,6,1,0.4819784000010259,['c'],1,left,['2'],5,0.3020586999991792,0.2,0,FastFast,26,19,Woman,Right,
45,6,1,1.0671225000005506,['c'],0,right,['3'],4,0.5015038000001368,0.2,0,FastFast,26,19,Woman,Right,
46,6,1,0.6009283000003052,['n'],1,right,['2'],5,0.2347009999994043,0.4,0,FastFast,26,19,Woman,Right,
47,6,1,0.48261140000067826,['c'],1,left,['2'],5,0.3354694000008749,0.2,0,FastFast,26,19,Woman,Right,
48,6,1,0.43462689999978465,['c'],1,left,['2'],5,0.21776449999924807,0.4,0,FastFast,26,19,Woman,Right,
49,6,1,0.5837290999988909,['c'],0,right,['2'],5,0.3183251999998902,0.1,0,FastFast,26,19,Woman,Right,
50,6,1,0.7511682999993354,['c'],1,left,['2'],5,0.3015523000012763,0.4,0,FastFast,26,19,Woman,Right,
51,6,1,0.6000784000007116,['n'],1,right,['9'],2,0.7847253999989334,0.2,0,FastFast,26,19,Woman,Right,
52,6,1,0.6673144999986107,['n'],1,right,['9'],2,0.23478980000072625,0.2,0,FastFast,26,19,Woman,Right,
53,6,1,0.46766760000173235,['n'],1,right,['2'],5,0.41674330000023474,0.4,0,FastFast,26,19,Woman,Right,
54,6,1,0.48558130000128585,['c'],0,right,['2'],5,0.23478780000004917,0.1,0,FastFast,26,19,Woman,Right,
55,6,1,0.4336641999998392,['c'],1,left,['2'],5,0.18495900000016263,0.4,0,FastFast,26,19,Woman,Right,
56,6,1,0.4170663000004424,['c'],1,left,['2'],5,0.21833850000075472,0.1,0,FastFast,26,19,Woman,Right,
57,6,1,0.3170559999998659,['c'],1,left,['2'],5,0.2341385999989143,0.4,0,FastFast,26,19,Woman,Right,
58,6,1,0.334318399998665,['c'],0,right,"['0', '9']",1,0.7183230999999068,0.4,0,FastFast,26,19,Woman,Right,
59,6,1,0.7170405999986542,['n'],1,right,['2'],5,0.28496630000154255,0.2,0,FastFast,26,19,Woman,Right,
0,7,1,3.017686799999865,['n'],1,right,['2'],5,0.5846703999995952,0.1,0,AccFast,26,19,Woman,Right,
1,7,1,1.0488994000006642,['n'],1,right,['9'],2,0.28475000000071304,0.2,0,AccFast,26,19,Woman,Right,
2,7,1,0.7672772999994777,['n'],1,right,['2'],5,0.23375530000157596,0.1,0,AccFast,26,19,Woman,Right,
3,7,1,0.4670304999999644,['c'],1,left,['2'],5,0.30131259999870963,0.2,0,AccFast,26,19,Woman,Right,
4,7,1,0.4836548000002949,['n'],0,left,['9'],2,0.3010776999999507,0.2,0,AccFast,26,19,Woman,Right,
5,7,1,0.6840881000007357,['c'],0,right,['2'],5,0.28466130000015255,0.1,0,AccFast,26,19,Woman,Right,
6,7,1,0.6001292999990255,['c'],1,left,['2'],5,0.28503729999829375,0.4,0,AccFast,26,19,Woman,Right,
7,7,1,0.8325617000009515,['n'],0,left,['9'],2,0.5354660999983025,0.4,0,AccFast,26,19,Woman,Right,
8,7,1,0.916960200000176,['c'],1,left,['9'],2,0.38499079999928654,0.2,0,AccFast,26,19,Woman,Right,
9,7,1,0.6503518000008626,['c'],1,left,['9'],2,0.45074320000094303,0.2,0,AccFast,26,19,Woman,Right,
10,7,1,0.43423099999927217,['c'],0,right,['2'],5,0.7013951000008092,0.1,0,AccFast,26,19,Woman,Right,
11,7,1,0.5167442999991181,['n'],1,right,['9'],2,0.5357401000001119,0.2,0,AccFast,26,19,Woman,Right,
12,7,1,0.833669399999053,['c'],0,right,['9'],2,0.9675731000006635,0.1,0,AccFast,26,19,Woman,Right,
13,7,1,0.5336418000006233,['n'],1,right,['9'],2,0.3678445000005013,0.4,0,AccFast,26,19,Woman,Right,
14,7,1,0.5840122000008705,['c'],1,left,['2'],5,0.2517351000005874,0.1,0,AccFast,26,19,Woman,Right,
15,7,1,0.4829833999992843,['c'],1,left,['2'],5,0.4680357000015647,0.4,0,AccFast,26,19,Woman,Right,
16,7,1,0.5820930000008957,['n'],1,right,['9'],2,0.2846220999999787,0.4,0,AccFast,26,19,Woman,Right,
17,7,1,0.566461899999922,['n'],1,right,['8'],3,0.3512468999997509,0.2,0,AccFast,26,19,Woman,Right,
18,7,1,0.7844029999996565,['n'],1,right,['2'],5,0.15186370000083116,0.4,0,AccFast,26,19,Woman,Right,
19,7,1,0.5489916000005906,['n'],1,right,['2'],5,0.1860032999993564,0.1,0,AccFast,26,19,Woman,Right,
20,7,1,0.5169836999994004,['n'],0,left,['2'],5,0.318009799999345,0.1,0,AccFast,26,19,Woman,Right,
21,7,1,0.6505696000003809,['c'],1,left,['3'],4,0.5846619000003557,0.1,0,AccFast,26,19,Woman,Right,
22,7,1,0.5829425000010815,['n'],1,right,['2'],5,0.3836941999998089,0.4,0,AccFast,26,19,Woman,Right,
23,7,1,0.500314699998853,['n'],1,right,['9'],2,0.28470649999871966,0.1,0,AccFast,26,19,Woman,Right,
24,7,1,0.5165534000007028,['n'],1,right,['2'],5,0.18519569999989471,0.4,0,AccFast,26,19,Woman,Right,
25,7,1,0.6996495999992476,['c'],1,left,['9'],2,0.3526045999988128,0.2,0,AccFast,26,19,Woman,Right,
26,7,1,0.7346251999988453,['c'],1,left,['2'],5,0.5672135000004346,0.4,0,AccFast,26,19,Woman,Right,
27,7,1,0.5337751999995817,['n'],0,left,['9'],2,0.5349071000000549,0.2,0,AccFast,26,19,Woman,Right,
28,7,1,0.550663899999563,['c'],1,left,['9'],2,0.4348439999994298,0.1,0,AccFast,26,19,Woman,Right,
29,7,1,0.566330999999991,['c'],1,left,['2'],5,0.233786599999803,0.2,0,AccFast,26,19,Woman,Right,
30,7,1,2.151129399999263,['n'],1,right,['9'],2,0.6514028000001417,0.4,0,AccFast,26,19,Woman,Right,
31,7,1,0.6498508999993646,['n'],1,right,['0'],1,1.267804500001148,0.2,0,AccFast,26,19,Woman,Right,
32,7,1,0.5826521999988472,['n'],1,right,['9'],2,0.36890179999863904,0.4,0,AccFast,26,19,Woman,Right,
33,7,1,1.0337363999988156,['n'],0,left,['9'],2,0.4994611000001896,0.1,0,AccFast,26,19,Woman,Right,
34,7,1,0.8172563999996783,['c'],1,left,['2'],5,0.33478419999846665,0.4,0,AccFast,26,19,Woman,Right,
35,7,1,0.4000402000001486,['n'],1,right,['9'],2,0.25214989999949466,0.4,0,AccFast,26,19,Woman,Right,
36,7,1,0.4838916999997309,['c'],0,right,['0'],1,2.1344119000004866,0.4,0,AccFast,26,19,Woman,Right,
37,7,1,0.6509184000005916,['c'],1,left,['2'],5,0.4500991000004433,0.4,0,AccFast,26,19,Woman,Right,
38,7,1,0.5335102999997616,['c'],1,left,['2'],5,0.21817120000014256,0.4,0,AccFast,26,19,Woman,Right,
39,7,1,0.5004715000013675,['c'],0,right,['2'],5,0.3342130000000907,0.2,0,AccFast,26,19,Woman,Right,
40,7,1,0.7672370000000228,['c'],0,right,['3'],4,0.2680287999992288,0.2,0,AccFast,26,19,Woman,Right,
41,7,1,0.9002317000013136,['c'],0,right,['9'],2,0.3013004999993427,0.4,0,AccFast,26,19,Woman,Right,
42,7,1,0.6666215999994165,['c'],1,left,['9'],2,0.2347618000003422,0.2,0,AccFast,26,19,Woman,Right,
43,7,1,0.7664917000001878,['n'],1,right,['9'],2,0.20111460000043735,0.1,0,AccFast,26,19,Woman,Right,
44,7,1,0.6503799000001891,['c'],0,right,['2'],5,0.21819069999946805,0.1,0,AccFast,26,19,Woman,Right,
45,7,1,0.5170730999998341,['n'],0,left,['9'],2,0.21868220000033034,0.1,0,AccFast,26,19,Woman,Right,
46,7,1,0.3843027999992046,['c'],1,left,['2'],5,0.36816490000092017,0.2,0,AccFast,26,19,Woman,Right,
47,7,1,0.7169987999986915,['c'],1,left,['2'],5,0.4179489999987709,0.2,0,AccFast,26,19,Woman,Right,
48,7,1,1.101067100000364,['c'],0,right,['2'],5,0.28458150000005844,0.1,0,AccFast,26,19,Woman,Right,
49,7,1,0.6175273999997444,['c'],1,left,['3'],4,0.30145009999978356,0.1,0,AccFast,26,19,Woman,Right,
50,7,1,0.4339640000016516,['c'],1,left,['3'],4,0.30148669999834965,0.2,0,AccFast,26,19,Woman,Right,
51,7,1,0.5497481999991578,['c'],1,left,['3'],4,0.2521374999996624,0.2,0,AccFast,26,19,Woman,Right,
52,7,1,1.433527299999696,['c'],1,left,['3'],4,0.3349006000007648,0.1,0,AccFast,26,19,Woman,Right,
53,7,1,0.8330979000002117,['n'],1,right,['0'],1,0.2509274000003643,0.1,0,AccFast,26,19,Woman,Right,
54,7,1,0.36626259999866306,['n'],1,right,['9'],2,0.21760170000015933,0.4,0,AccFast,26,19,Woman,Right,
55,7,1,0.667045500000313,['c'],0,right,['2'],5,0.284239600001456,0.4,0,AccFast,26,19,Woman,Right,
56,7,1,0.5005545000003622,['c'],1,left,['3'],4,0.33513680000032764,0.4,0,AccFast,26,19,Woman,Right,
57,7,1,0.9175900999998703,['n'],0,left,['9'],2,0.28464119999989634,0.2,0,AccFast,26,19,Woman,Right,
58,7,1,0.5506972000002861,['c'],0,right,['3'],4,0.3013210999997682,0.1,0,AccFast,26,19,Woman,Right,
59,7,1,0.5337693000001309,['n'],0,left,['9'],2,0.31817730000148003,0.2,0,AccFast,26,19,Woman,Right,
0,8,1,0.6675458000008803,['n'],0,left,['3'],4,0.4348293000002741,0.4,0,AccAcc,26,19,Woman,Right,
1,8,1,0.9499037999994471,['c'],1,left,['8'],3,0.7513359999993554,0.4,0,AccAcc,26,19,Woman,Right,
2,8,1,0.5660430000007182,['c'],1,left,['9'],2,0.3347236999998131,0.4,0,AccAcc,26,19,Woman,Right,
3,8,1,0.5668138000000909,['c'],1,left,['8'],3,0.31845479999901727,0.1,0,AccAcc,26,19,Woman,Right,
4,8,1,0.5678236999992805,['c'],1,left,['3'],4,0.40077480000036303,0.4,0,AccAcc,26,19,Woman,Right,
5,8,1,0.5521321000014723,['n'],1,right,['3'],4,0.3676945999995951,0.1,0,AccAcc,26,19,Woman,Right,
6,8,1,0.5675752999995893,['c'],1,left,['3'],4,0.3014641000008851,0.4,0,AccAcc,26,19,Woman,Right,
7,8,1,0.8836045999996713,['n'],1,right,['2'],5,0.28507840000020224,0.1,0,AccAcc,26,19,Woman,Right,
8,8,1,0.7002649000005476,['c'],1,left,['2'],5,0.21701299999949697,0.2,0,AccAcc,26,19,Woman,Right,
9,8,1,0.7160970999993879,['n'],1,right,['2'],5,0.3522138999996969,0.4,0,AccAcc,26,19,Woman,Right,
10,8,1,0.5503673000002891,['c'],0,right,['9'],2,0.6180975999996008,0.1,0,AccAcc,26,19,Woman,Right,
11,8,1,0.466666799999075,['c'],1,left,['2'],5,0.268873099999837,0.4,0,AccAcc,26,19,Woman,Right,
12,8,1,0.516016600000512,['c'],0,right,['2'],5,0.21848159999899508,0.2,0,AccAcc,26,19,Woman,Right,
13,8,1,0.733914200000072,['n'],1,right,['9'],2,0.3179867999988346,0.1,0,AccAcc,26,19,Woman,Right,
14,8,1,0.4839959999990242,['n'],1,right,['9'],2,0.2355050999995001,0.4,0,AccAcc,26,19,Woman,Right,
15,8,1,0.5176473000010446,['n'],1,right,['0'],1,1.7347129000008863,0.2,0,AccAcc,26,19,Woman,Right,
16,8,1,1.633642000000691,['c'],0,right,['8'],3,1.3168065999998362,0.2,0,AccAcc,26,19,Woman,Right,
17,8,1,0.5675142999989475,['n'],1,right,['2'],5,0.26788050000141084,0.4,0,AccAcc,26,19,Woman,Right,
18,8,1,0.9664845000006608,['n'],1,right,['8'],3,0.2012616000010894,0.1,0,AccAcc,26,19,Woman,Right,
19,8,1,0.5836488000004465,['c'],1,left,['2'],5,0.2693331999998918,0.4,0,AccAcc,26,19,Woman,Right,
20,8,1,0.5836482000013348,['c'],1,left,['1'],6,0.4683071999988897,0.2,0,AccAcc,26,19,Woman,Right,
21,8,1,0.5840791000009631,['c'],1,left,['2'],5,0.35130670000035025,0.1,0,AccAcc,26,19,Woman,Right,
22,8,1,0.8164754000008543,['n'],1,right,['9'],2,0.2180807000004279,0.1,0,AccAcc,26,19,Woman,Right,
23,8,1,0.7008659000002808,['n'],1,right,['8'],3,0.3352234000012686,0.1,0,AccAcc,26,19,Woman,Right,
24,8,1,1.0669775999995181,['n'],1,right,['9'],2,0.5682274999999208,0.1,0,AccAcc,26,19,Woman,Right,
25,8,1,0.7006868000007671,['n'],1,right,['8'],3,0.25080529999831924,0.1,0,AccAcc,26,19,Woman,Right,
26,8,1,0.6835539000003337,['c'],1,left,['2'],5,0.40126969999982975,0.2,0,AccAcc,26,19,Woman,Right,
27,8,1,0.5487401000009413,['c'],1,left,['2'],5,0.26782209999873885,0.4,0,AccAcc,26,19,Woman,Right,
28,8,1,0.3689909999993688,['c'],0,right,['2'],5,0.2514757000008103,0.2,0,AccAcc,26,19,Woman,Right,
29,8,1,0.6346904999991239,['n'],1,right,['3'],4,0.35100929999862274,0.1,0,AccAcc,26,19,Woman,Right,
30,8,1,0.6336460999991687,['n'],1,right,['3'],4,0.46717229999921983,0.4,0,AccAcc,26,19,Woman,Right,
31,8,1,0.5668618999989121,['n'],1,right,['3'],4,0.41710560000137775,0.4,0,AccAcc,26,19,Woman,Right,
32,8,1,0.9673704999986512,['n'],0,left,['3'],4,0.6846574999999575,0.1,0,AccAcc,26,19,Woman,Right,
33,8,1,0.933517600000414,['n'],0,left,['9'],2,0.2510992999996233,0.2,0,AccAcc,26,19,Woman,Right,
34,8,1,0.8165735000002314,['c'],1,left,['3'],4,0.9344674999993003,0.2,0,AccAcc,26,19,Woman,Right,
35,8,1,1.234237500000745,['n'],0,left,['3'],4,0.201594500000283,0.1,0,AccAcc,26,19,Woman,Right,
36,8,1,0.6153862999999546,['c'],0,right,['3'],4,0.41825950000020384,0.2,0,AccAcc,26,19,Woman,Right,
37,8,1,1.083523499999501,['n'],0,left,['8'],3,0.26701370000046154,0.2,0,AccAcc,26,19,Woman,Right,
38,8,1,0.7002245000003313,['c'],0,right,['3'],4,0.25081390000013926,0.4,0,AccAcc,26,19,Woman,Right,
39,8,1,1.067193100001532,['c'],1,left,['2'],5,0.5516371000012441,0.2,0,AccAcc,26,19,Woman,Right,
40,8,1,3.4008634999991045,['c'],1,left,['1'],6,0.26796070000091277,0.4,0,AccAcc,26,19,Woman,Right,
41,8,1,1.50042620000022,['c'],1,left,['9'],2,0.6514521999997669,0.2,0,AccAcc,26,19,Woman,Right,
42,8,1,2.5176121999993484,['n'],1,right,['9'],2,0.2504657000008592,0.2,0,AccAcc,26,19,Woman,Right,
43,8,1,0.9159392999990814,['n'],0,left,['9'],2,0.2184119000012288,0.1,0,AccAcc,26,19,Woman,Right,
44,8,1,0.5181142000001273,['c'],1,left,['2'],5,1.2833784999984346,0.4,0,AccAcc,26,19,Woman,Right,
45,8,1,2.665617700000439,['n'],0,left,['9'],2,0.23533799999859184,0.4,0,AccAcc,26,19,Woman,Right,
46,8,1,0.8511250000010477,['n'],1,right,['9'],2,0.2837232000001677,0.2,0,AccAcc,26,19,Woman,Right,
47,8,1,0.73322090000147,['c'],0,right,['9'],2,0.3841642999996111,0.2,0,AccAcc,26,19,Woman,Right,
48,8,1,0.4506861999998364,['n'],1,right,['3'],4,0.4513091999997414,0.2,0,AccAcc,26,19,Woman,Right,
49,8,1,0.799968399998761,['n'],1,right,['0'],1,0.6335338999997475,0.2,0,AccAcc,26,19,Woman,Right,
50,8,1,1.116855600001145,['n'],0,left,['9'],2,0.2181466999991244,0.2,0,AccAcc,26,19,Woman,Right,
51,8,1,0.9001415000002453,['c'],1,left,['0'],1,0.7181025000008958,0.1,0,AccAcc,26,19,Woman,Right,
52,8,1,0.7338350999998511,['c'],0,right,['3'],4,0.35150810000050114,0.4,0,AccAcc,26,19,Woman,Right,
53,8,1,0.7335425000001123,['n'],1,right,['9'],2,0.28482160000021395,0.2,0,AccAcc,26,19,Woman,Right,
54,8,1,0.784204999999929,['n'],0,left,['8'],3,0.4512730999995256,0.1,0,AccAcc,26,19,Woman,Right,
55,8,1,0.5170187000003352,['n'],1,right,['3'],4,0.4682766999994783,0.4,0,AccAcc,26,19,Woman,Right,
56,8,1,0.5999962000005326,['n'],0,left,['3'],4,0.23479849999966973,0.1,0,AccAcc,26,19,Woman,Right,
57,8,1,0.732950499999788,['n'],0,left,['3'],4,0.33502799999951094,0.4,0,AccAcc,26,19,Woman,Right,
58,8,1,1.1991680999999517,['n'],1,right,['2'],5,0.6523111000005883,0.1,0,AccAcc,26,19,Woman,Right,
59,8,1,0.7329823999989458,['n'],0,left,['2'],5,0.3186884000006103,0.1,0,AccAcc,26,19,Woman,Right,
0,9,1,0.6839273999994475,['n'],0,left,['8'],3,2.434427800000776,0.1,0,FastAcc,26,19,Woman,Right,
1,9,1,1.183439799999178,['c'],1,left,['3'],4,0.8346392999992531,0.4,0,FastAcc,26,19,Woman,Right,
2,9,1,0.4833584999996674,['n'],1,right,['3'],4,0.40145380000103614,0.1,0,FastAcc,26,19,Woman,Right,
3,9,1,0.6838729999999487,['c'],1,left,['3'],4,0.3516120999993291,0.4,0,FastAcc,26,19,Woman,Right,
4,9,1,0.7496338999990257,['n'],0,left,['9'],2,0.23377960000107123,0.2,0,FastAcc,26,19,Woman,Right,
5,9,1,0.6498742000003404,['c'],1,left,['9'],2,0.5682742999997572,0.1,0,FastAcc,26,19,Woman,Right,
6,9,1,0.6837780000005296,['n'],1,right,['3'],4,0.368379499999719,0.2,0,FastAcc,26,19,Woman,Right,
7,9,1,0.5511458999990282,['c'],1,left,['3'],4,0.4012226999984705,0.1,0,FastAcc,26,19,Woman,Right,
8,9,1,0.7003487999991194,['n'],0,left,['2'],5,0.30175080000117305,0.4,0,FastAcc,26,19,Woman,Right,
9,9,1,1.0330343000005087,['c'],1,left,['2'],5,0.3515657000007195,0.2,0,FastAcc,26,19,Woman,Right,
10,9,1,0.7005104999989271,['n'],0,left,['8'],3,0.7012444000010873,0.2,0,FastAcc,26,19,Woman,Right,
11,9,1,0.7497497000003932,['n'],0,left,['9'],2,1.2348514999994222,0.1,0,FastAcc,26,19,Woman,Right,
12,9,1,0.9502621999999974,['n'],1,right,['8'],3,0.8345360999992408,0.1,0,FastAcc,26,19,Woman,Right,
13,9,1,0.5001141000011557,['n'],1,right,['2'],5,0.301370200000747,0.4,0,FastAcc,26,19,Woman,Right,
14,9,1,0.6338444000011805,['n'],1,right,['2'],5,0.26808600000003935,0.2,0,FastAcc,26,19,Woman,Right,
15,9,1,0.5170751000005112,['n'],1,right,['2'],5,0.6173306000000593,0.4,0,FastAcc,26,19,Woman,Right,
16,9,1,0.9670512000011513,['c'],1,left,['9'],2,0.4846679000002041,0.4,0,FastAcc,26,19,Woman,Right,
17,9,1,1.2169591999991098,['c'],1,left,['2'],5,0.3682230000013078,0.4,0,FastAcc,26,19,Woman,Right,
18,9,1,0.4993567000001349,['n'],1,right,['2'],5,0.36635609999939334,0.1,0,FastAcc,26,19,Woman,Right,
19,9,1,0.45135669999945094,['c'],1,left,['2'],5,0.2675087999996322,0.4,0,FastAcc,26,19,Woman,Right,
20,9,1,0.4668911000007938,['c'],1,left,['2'],5,0.2678373999988253,0.4,0,FastAcc,26,19,Woman,Right,
21,9,1,0.6330287000000681,['c'],1,left,['2'],5,0.3180749000002834,0.1,0,FastAcc,26,19,Woman,Right,
22,9,1,0.46710149999853456,['c'],1,left,['9'],2,0.7331998999998177,0.1,0,FastAcc,26,19,Woman,Right,
23,9,1,0.717951800001174,['c'],1,left,['2'],5,0.28522759999941627,0.4,0,FastAcc,26,19,Woman,Right,
24,9,1,0.5993753999991895,['n'],1,right,['2'],5,0.7174488000000565,0.2,0,FastAcc,26,19,Woman,Right,
25,9,1,0.6177275000009104,['c'],1,left,['2'],5,0.268111699999281,0.2,0,FastAcc,26,19,Woman,Right,
26,9,1,0.48367549999966286,['n'],1,right,['2'],5,0.45140379999975266,0.2,0,FastAcc,26,19,Woman,Right,
27,9,1,0.5505104999992909,['n'],1,right,['2'],5,0.20135219999974652,0.2,0,FastAcc,26,19,Woman,Right,
28,9,1,0.48377869999967515,['c'],1,left,['2'],5,0.30020040000090376,0.1,0,FastAcc,26,19,Woman,Right,
29,9,1,0.46649840000100085,['n'],1,right,['3'],4,0.5679521999991266,0.1,0,FastAcc,26,19,Woman,Right,
30,9,1,0.5012131000003137,['n'],1,right,['2'],5,0.268041399998765,0.4,0,FastAcc,26,19,Woman,Right,
31,9,1,0.5006940000002942,['n'],1,right,['3'],4,0.4348840000002383,0.2,0,FastAcc,26,19,Woman,Right,
32,9,1,0.4668980000005831,['n'],1,right,['2'],5,0.35133200000018405,0.4,0,FastAcc,26,19,Woman,Right,
33,9,1,0.5003264000006311,['n'],1,right,['2'],5,0.28473289999965345,0.2,0,FastAcc,26,19,Woman,Right,
34,9,1,0.484021300000677,['n'],1,right,['3'],4,0.41776930000014545,0.2,0,FastAcc,26,19,Woman,Right,
35,9,1,0.5669511999985843,['n'],1,right,['2'],5,0.18429370000012568,0.2,0,FastAcc,26,19,Woman,Right,
36,9,1,0.5831522000007681,['n'],1,right,['9'],2,0.6998774000003323,0.1,0,FastAcc,26,19,Woman,Right,
37,9,1,0.5499848999988899,['n'],1,right,['9'],2,1.0840908999998646,0.2,0,FastAcc,26,19,Woman,Right,
38,9,1,0.5158147000001918,['n'],1,right,['9'],2,0.3187089000002743,0.2,0,FastAcc,26,19,Woman,Right,
39,9,1,0.5507574000002933,['n'],1,right,['9'],2,0.33412420000058773,0.2,0,FastAcc,26,19,Woman,Right,
40,9,1,0.5663741999997001,['n'],1,right,['8'],3,0.484736200000043,0.4,0,FastAcc,26,19,Woman,Right,
41,9,1,0.950924999999188,['c'],1,left,['8'],3,1.1512846999994508,0.1,0,FastAcc,26,19,Woman,Right,
42,9,1,0.6332578000001376,['n'],1,right,['2'],5,0.48473360000025423,0.4,0,FastAcc,26,19,Woman,Right,
43,9,1,0.6839571000000433,['c'],1,left,['2'],5,0.3014815999995335,0.4,0,FastAcc,26,19,Woman,Right,
44,9,1,0.666698400000314,['c'],1,left,['2'],5,0.43356849999872793,0.2,0,FastAcc,26,19,Woman,Right,
45,9,1,0.6835918000015226,['c'],1,left,['3'],4,0.518264199999976,0.2,0,FastAcc,26,19,Woman,Right,
46,9,1,0.9010410999999294,['c'],1,left,['2'],5,0.25163679999968736,0.2,0,FastAcc,26,19,Woman,Right,
47,9,1,0.5164727999999741,['c'],0,right,['2'],5,0.2848198000010598,0.1,0,FastAcc,26,19,Woman,Right,
48,9,1,0.8335876000001008,['n'],1,right,"['9', '8']",2,0.6520204000007652,0.1,0,FastAcc,26,19,Woman,Right,
49,9,1,0.6174995999990642,['n'],1,right,['3'],4,0.2669696000011754,0.4,0,FastAcc,26,19,Woman,Right,
50,9,1,0.6010826000001543,['n'],1,right,['3'],4,0.3014689999999973,0.1,0,FastAcc,26,19,Woman,Right,
51,9,1,0.5502372000009927,['n'],0,left,['3'],4,0.28465390000019397,0.1,0,FastAcc,26,19,Woman,Right,
52,9,1,0.5828636000005645,['n'],0,left,['3'],4,0.31890149999890127,0.1,0,FastAcc,26,19,Woman,Right,
53,9,1,0.5327656999997998,['n'],0,left,['9'],2,0.28495870000006107,0.4,0,FastAcc,26,19,Woman,Right,
54,9,1,0.6840300999992905,['c'],0,right,['9'],2,0.5679127000003064,0.1,0,FastAcc,26,19,Woman,Right,
55,9,1,0.9174062999991293,['n'],1,right,['0'],1,0.3013659000007465,0.4,0,FastAcc,26,19,Woman,Right,
56,9,1,0.5845231000002968,['n'],0,left,['9'],2,0.2668789999988803,0.1,0,FastAcc,26,19,Woman,Right,
57,9,1,0.7003452999997535,['c'],1,left,['9'],2,0.4179600000006758,0.4,0,FastAcc,26,19,Woman,Right,
58,9,1,0.7344192000000476,['c'],1,left,['3'],4,0.30132940000112285,0.4,0,FastAcc,26,19,Woman,Right,
59,9,1,0.4666035999998712,['n'],1,right,['3'],4,0.2842070999995485,0.2,0,FastAcc,26,19,Woman,Right,
0,10,1,0.8677194000010786,['n'],0,left,['2'],5,0.13470849999976053,0.1,0,FastFast,26,19,Woman,Right,
1,10,1,0.716365099999166,['n'],1,right,['3'],4,0.16836089999924297,0.2,0,FastFast,26,19,Woman,Right,
2,10,1,0.7505058999995526,['n'],0,left,['3'],4,0.2514916000000085,0.2,0,FastFast,26,19,Woman,Right,
3,10,1,0.34942169999885664,['c'],0,right,['3'],4,0.46798760000092443,0.2,0,FastFast,26,19,Woman,Right,
4,10,1,0.3174710999992385,['n'],1,right,['9'],2,0.2515835000012885,0.4,0,FastFast,26,19,Woman,Right,
5,10,1,0.5340326000005007,['c'],1,left,['9'],2,0.1849817999991501,0.4,0,FastFast,26,19,Woman,Right,
6,10,1,0.5501535999992484,['n'],1,right,['3'],4,0.16667340000094555,0.4,0,FastFast,26,19,Woman,Right,
7,10,1,0.3665237999994133,['c'],1,left,['3'],4,0.21801530000084313,0.4,0,FastFast,26,19,Woman,Right,
8,10,1,0.3820350999994844,['c'],0,right,['9'],2,0.5519516000003932,0.1,0,FastFast,26,19,Woman,Right,
9,10,1,0.43333349999920756,['n'],1,right,['3'],4,0.2181216000008135,0.2,0,FastFast,26,19,Woman,Right,
10,10,1,0.417039100000693,['c'],1,left,['3'],4,0.21801530000084313,0.1,0,FastFast,26,19,Woman,Right,
11,10,1,0.3839614000007714,['n'],1,right,['9'],2,0.20075720000022557,0.4,0,FastFast,26,19,Woman,Right,
12,10,1,0.48455399999875226,['c'],1,left,['3'],4,0.15219880000040575,0.1,0,FastFast,26,19,Woman,Right,
13,10,1,0.448774799999228,['c'],1,left,['3'],4,0.18417399999998452,0.4,0,FastFast,26,19,Woman,Right,
14,10,1,0.41684189999978116,['n'],1,right,['3'],4,0.4357476000004681,0.1,0,FastFast,26,19,Woman,Right,
15,10,1,0.38365189999967697,['c'],0,right,['3'],4,0.20124529999884544,0.1,0,FastFast,26,19,Woman,Right,
16,10,1,0.5505759999996371,['n'],1,right,['3'],4,0.1667699999998149,0.2,0,FastFast,26,19,Woman,Right,
17,10,1,0.48307650000060676,['n'],1,right,['3'],4,0.20200859999931708,0.2,0,FastFast,26,19,Woman,Right,
18,10,1,0.8171548999998777,['c'],0,right,['9'],2,0.16799290000017209,0.2,0,FastFast,26,19,Woman,Right,
19,10,1,0.3832681000003504,['n'],0,left,['3'],4,0.4001497000008385,0.4,0,FastFast,26,19,Woman,Right,
20,10,1,0.4679569999989326,['c'],1,left,['3'],4,0.21823360000053071,0.2,0,FastFast,26,19,Woman,Right,
21,10,1,0.38328489999912563,['n'],1,right,['3'],4,0.18496269999923243,0.1,0,FastFast,26,19,Woman,Right,
22,10,1,0.7505459000003611,['c'],1,left,['3'],4,0.16645100000096136,0.2,0,FastFast,26,19,Woman,Right,
23,10,1,0.6009099999992031,['n'],1,right,['3'],4,0.1837641000001895,0.2,0,FastFast,26,19,Woman,Right,
24,10,1,0.6672333999995317,['c'],0,right,['9'],2,0.4181477000001905,0.2,0,FastFast,26,19,Woman,Right,
25,10,1,0.433901500000502,['n'],1,right,['3'],4,0.15150960000028135,0.1,0,FastFast,26,19,Woman,Right,
26,10,1,0.7005270999998174,['n'],0,left,['8'],3,0.20247070000004896,0.1,0,FastFast,26,19,Woman,Right,
27,10,1,0.331893399999899,['c'],1,left,['3'],4,0.23531680000087363,0.4,0,FastFast,26,19,Woman,Right,
28,10,1,0.7340077999997447,['n'],0,left,['0'],1,0.8003446999991866,0.2,0,FastFast,26,19,Woman,Right,
29,10,1,0.599664199999097,['c'],1,left,['3'],4,0.23491809999904945,0.4,0,FastFast,26,19,Woman,Right,
30,10,1,0.4668375000001106,['n'],1,right,['3'],4,0.40125500000067404,0.1,0,FastFast,26,19,Woman,Right,
31,10,1,0.800854300001447,['c'],0,right,['8'],3,0.2681871000004321,0.1,0,FastFast,26,19,Woman,Right,
32,10,1,0.8831083000004583,['n'],1,right,['9'],2,0.21813850000035018,0.2,0,FastFast,26,19,Woman,Right,
33,10,1,0.4173477999993338,['c'],1,left,['3'],4,0.5015935999999783,0.4,0,FastFast,26,19,Woman,Right,
34,10,1,0.4169774999991205,['n'],0,left,['9'],2,0.4834637999992992,0.4,0,FastFast,26,19,Woman,Right,
35,10,1,0.5842659999998432,['c'],1,left,['3'],4,0.16820569999981672,0.4,0,FastFast,26,19,Woman,Right,
36,10,1,0.4507835000003979,['c'],1,left,['3'],4,0.1680856999992102,0.2,0,FastFast,26,19,Woman,Right,
37,10,1,0.5003613999997469,['n'],0,left,['9'],2,0.48448020000068936,0.1,0,FastFast,26,19,Woman,Right,
38,10,1,0.2673147000004974,['c'],0,right,['9'],2,0.43450920000032056,0.4,0,FastFast,26,19,Woman,Right,
39,10,1,0.6003959999998187,['c'],0,right,['0'],1,0.31772079999973357,0.1,0,FastFast,26,19,Woman,Right,
40,10,1,0.40056339999864576,['n'],0,left,['9'],2,0.25136989999919024,0.1,0,FastFast,26,19,Woman,Right,
41,10,1,0.5332589000008738,['c'],0,right,['3'],4,0.2012986000008823,0.2,0,FastFast,26,19,Woman,Right,
42,10,1,0.3834093000004941,['n'],1,right,['9'],2,0.4354436999983591,0.4,0,FastFast,26,19,Woman,Right,
43,10,1,0.20028800000000047,['c'],1,left,['9'],2,0.2682033000000956,0.2,0,FastFast,26,19,Woman,Right,
44,10,1,0.33270599999923434,['c'],1,left,['3'],4,0.23564269999951648,0.4,0,FastFast,26,19,Woman,Right,
45,10,1,0.46722109999973327,['n'],1,right,['3'],4,0.201443100000688,0.4,0,FastFast,26,19,Woman,Right,
46,10,1,0.34971739999855345,['c'],1,left,['9'],2,0.18473709999852872,0.1,0,FastFast,26,19,Woman,Right,
47,10,1,0.36755149999953574,['n'],1,right,['9'],2,0.6013416999994661,0.2,0,FastFast,26,19,Woman,Right,
48,10,1,0.41714740000134043,['n'],1,right,['8'],3,0.41801310000118974,0.4,0,FastFast,26,19,Woman,Right,
49,10,1,0.5824596000002202,['n'],0,left,['9'],2,0.2522434999991674,0.4,0,FastFast,26,19,Woman,Right,
50,10,1,0.28439310000067053,['n'],1,right,['9'],2,0.6346842000002653,0.2,0,FastFast,26,19,Woman,Right,
51,10,1,0.9996428999984346,['n'],1,right,['0'],1,0.2353953999991063,0.1,0,FastFast,26,19,Woman,Right,
52,10,1,0.5663879000003362,['c'],1,left,['3'],4,0.1514354999999341,0.4,0,FastFast,26,19,Woman,Right,
53,10,1,0.4007043000001431,['c'],1,left,['3'],4,0.5346487999995588,0.1,0,FastFast,26,19,Woman,Right,
54,10,1,0.3176127999995515,['n'],0,left,['9'],2,0.20147799999904237,0.2,0,FastFast,26,19,Woman,Right,
55,10,1,0.41730120000102033,['n'],0,left,['0'],1,0.40125260000058915,0.1,0,FastFast,26,19,Woman,Right,
56,10,1,0.4835036000004038,['c'],0,right,['0'],1,0.36806280000018887,0.1,0,FastFast,26,19,Woman,Right,
57,10,1,0.3843317000009847,['n'],0,left,['9'],2,0.2342248999993899,0.4,0,FastFast,26,19,Woman,Right,
58,10,1,0.6673437000008562,['c'],1,left,['3'],4,0.21791920000032405,0.2,0,FastFast,26,19,Woman,Right,
59,10,1,0.4166454000005615,['c'],0,right,['0'],1,0.28553830000055314,0.1,0,FastFast,26,19,Woman,Right,
0,11,1,1.21747890000006,['c'],0,right,['9'],2,2.2343332000000373,0.2,0,AccFast,26,19,Woman,Right,
1,11,1,0.4999239000007947,['n'],0,left,['9'],2,0.5681129000004148,0.2,0,AccFast,26,19,Woman,Right,
2,11,1,0.782435400000395,['c'],1,left,['3'],4,0.8851541000003635,0.2,0,AccFast,26,19,Woman,Right,
3,11,1,0.5339763000010862,['c'],1,left,['3'],4,0.2670529000006354,0.1,0,AccFast,26,19,Woman,Right,
4,11,1,0.4823560000004363,['n'],1,right,['3'],4,0.7687320999993972,0.4,0,AccFast,26,19,Woman,Right,
5,11,1,0.5504397000004246,['c'],1,left,['3'],4,0.3340158999999403,0.1,0,AccFast,26,19,Woman,Right,
6,11,1,0.7669697999990603,['n'],0,left,['3'],4,0.2681401999998343,0.1,0,AccFast,26,19,Woman,Right,
7,11,1,0.5006481000000349,['n'],0,left,['3'],4,0.23457240000061574,0.2,0,AccFast,26,19,Woman,Right,
8,11,1,0.6505987000000459,['c'],1,left,['9'],2,0.26803040000049805,0.2,0,AccFast,26,19,Woman,Right,
9,11,1,0.5510063000001537,['c'],1,left,['3'],4,0.21833259999948496,0.4,0,AccFast,26,19,Woman,Right,
10,11,1,0.4005858000000444,['n'],1,right,['3'],4,0.3166407999997318,0.4,0,AccFast,26,19,Woman,Right,
11,11,1,1.2668054000005213,['n'],1,right,['0'],1,0.5517533999991429,0.1,0,AccFast,26,19,Woman,Right,
12,11,1,0.5158785000003263,['c'],0,right,['3'],4,0.20069519999924523,0.1,0,AccFast,26,19,Woman,Right,
13,11,1,0.617954400000599,['n'],1,right,['3'],4,0.1513992000000144,0.2,0,AccFast,26,19,Woman,Right,
14,11,1,0.8506809000009525,['n'],0,left,['3'],4,0.2180980000011914,0.2,0,AccFast,26,19,Woman,Right,
15,11,1,0.5338897000001452,['c'],1,left,['3'],4,0.4178243999995175,0.1,0,AccFast,26,19,Woman,Right,
16,11,1,0.4004852000016399,['n'],0,left,"['0', '9']",1,0.7684871999990719,0.4,0,AccFast,26,19,Woman,Right,
17,11,1,0.5511107999991509,['c'],1,left,['3'],4,0.16809660000035365,0.4,0,AccFast,26,19,Woman,Right,
18,11,1,0.8666353000007803,['c'],1,left,['3'],4,0.251410400000168,0.2,0,AccFast,26,19,Woman,Right,
19,11,1,0.4159084000002622,['c'],0,right,['3'],4,0.18475750000106927,0.1,0,AccFast,26,19,Woman,Right,
20,11,1,0.4837109000000055,['c'],1,left,['3'],4,0.2677237999996578,0.4,0,AccFast,26,19,Woman,Right,
21,11,1,0.6832412999992812,['n'],1,right,['3'],4,0.3839477999990777,0.1,0,AccFast,26,19,Woman,Right,
22,11,1,0.9828208999988419,['n'],1,right,['3'],4,0.2520941999991919,0.2,0,AccFast,26,19,Woman,Right,
23,11,1,0.5836800999986735,['n'],1,right,['3'],4,0.16793940000025032,0.4,0,AccFast,26,19,Woman,Right,
24,11,1,0.5338411999982782,['c'],0,right,['9'],2,0.5846469999996771,0.4,0,AccFast,26,19,Woman,Right,
25,11,1,0.5164856000010332,['n'],1,right,['3'],4,0.15120639999986452,0.4,0,AccFast,26,19,Woman,Right,
26,11,1,0.7496528000010585,['n'],1,right,['9'],2,0.533378600001015,0.2,0,AccFast,26,19,Woman,Right,
27,11,1,0.5843753999997716,['n'],1,right,['9'],2,0.2169659999999567,0.4,0,AccFast,26,19,Woman,Right,
28,11,1,0.6503331000003527,['n'],1,right,['9'],2,0.25160200000027544,0.1,0,AccFast,26,19,Woman,Right,
29,11,1,1.0004263999999239,['n'],0,left,['9'],2,0.23464729999977862,0.1,0,AccFast,26,19,Woman,Right,
30,11,1,0.517387999998391,['c'],1,left,['3'],4,0.20137980000072275,0.1,0,AccFast,26,19,Woman,Right,
31,11,1,0.3669493999987026,['c'],1,left,['3'],4,0.23471149999932095,0.2,0,AccFast,26,19,Woman,Right,
32,11,1,0.3842311999997037,['c'],0,right,['0'],1,0.5667807999998331,0.4,0,AccFast,26,19,Woman,Right,
33,11,1,0.4176106999984768,['n'],1,right,['9'],2,0.31743439999991097,0.4,0,AccFast,26,19,Woman,Right,
34,11,1,0.44978769999943324,['c'],1,left,['3'],4,0.2181083999985276,0.1,0,AccFast,26,19,Woman,Right,
35,11,1,0.5332493999994767,['c'],1,left,['3'],4,0.5013381000007939,0.2,0,AccFast,26,19,Woman,Right,
36,11,1,0.5671645000002172,['n'],1,right,['3'],4,0.21788290000040433,0.1,0,AccFast,26,19,Woman,Right,
37,11,1,0.5004183000000921,['c'],0,right,['9'],2,0.35021469999992405,0.2,0,AccFast,26,19,Woman,Right,
38,11,1,0.4342610000003333,['n'],1,right,['9'],2,0.3675472999984777,0.1,0,AccFast,26,19,Woman,Right,
39,11,1,0.5344179000003351,['c'],1,left,['3'],4,0.28481839999949443,0.1,0,AccFast,26,19,Woman,Right,
40,11,1,0.41622060000008787,['c'],1,left,['3'],4,0.46690789999956905,0.4,0,AccFast,26,19,Woman,Right,
41,11,1,0.6502115999992384,['c'],1,left,['3'],4,0.23470939999970142,0.2,0,AccFast,26,19,Woman,Right,
42,11,1,0.6330536999994365,['n'],0,left,['3'],4,0.26805939999940165,0.4,0,AccFast,26,19,Woman,Right,
43,11,1,0.6502935999997135,['c'],1,left,['3'],4,0.23491760000069917,0.1,0,AccFast,26,19,Woman,Right,
44,11,1,0.43411509999896225,['n'],1,right,['3'],4,0.21835850000024948,0.2,0,AccFast,26,19,Woman,Right,
45,11,1,0.5003765000001295,['c'],1,left,['3'],4,0.30143670000143175,0.2,0,AccFast,26,19,Woman,Right,
46,11,1,0.5837633999999525,['n'],0,left,['3'],4,0.21858649999921909,0.4,0,AccFast,26,19,Woman,Right,
47,11,1,0.48354569999901287,['n'],1,right,['3'],4,0.18424919999961276,0.4,0,AccFast,26,19,Woman,Right,
48,11,1,0.44976320000023406,['n'],1,right,['3'],4,0.15215159999934258,0.4,0,AccFast,26,19,Woman,Right,
49,11,1,0.5503972999995312,['n'],0,left,['3'],4,0.18490620000011404,0.1,0,AccFast,26,19,Woman,Right,
50,11,1,0.6169738000007783,['n'],1,right,['9'],2,0.3013126999994711,0.1,0,AccFast,26,19,Woman,Right,
51,11,1,0.8504958000012266,['c'],1,left,['3'],4,0.3513401000000158,0.2,0,AccFast,26,19,Woman,Right,
52,11,1,0.43381090000002587,['n'],1,right,['3'],4,0.21786099999917496,0.4,0,AccFast,26,19,Woman,Right,
53,11,1,0.7007274999996298,['n'],0,left,['3'],4,0.5349210999993375,0.1,0,AccFast,26,19,Woman,Right,
54,11,1,0.6674234000001888,['c'],0,right,['3'],4,0.2688359000003402,0.2,0,AccFast,26,19,Woman,Right,
55,11,1,0.6014601000006223,['c'],1,left,['3'],4,0.2177850000007311,0.2,0,AccFast,26,19,Woman,Right,
56,11,1,0.5668502999997145,['n'],1,right,['3'],4,0.2010960999996314,0.4,0,AccFast,26,19,Woman,Right,
57,11,1,0.5165409999990516,['n'],1,right,['3'],4,0.1682597999988502,0.4,0,AccFast,26,19,Woman,Right,
58,11,1,0.8158535999991727,['n'],1,right,['3'],4,0.2678555000002234,0.2,0,AccFast,26,19,Woman,Right,
59,11,1,0.7336523000012676,['n'],1,right,['3'],4,0.4346149000011792,0.1,0,AccFast,26,19,Woman,Right,
0,12,1,0.734602200000154,['n'],1,right,['3'],4,0.30165929999930086,0.2,0,AccAcc,26,19,Woman,Right,
1,12,1,0.4834257999991678,['n'],1,right,['3'],4,0.05152569999881962,0.2,0,AccAcc,26,19,Woman,Right,
2,12,1,0.6172951000007743,['n'],0,left,['8'],3,0.18451599999934842,0.1,0,AccAcc,26,19,Woman,Right,
3,12,1,0.4672219000003679,['n'],1,right,['8'],3,0.23430550000011863,0.1,0,AccAcc,26,19,Woman,Right,
4,12,1,0.3007772999990266,['n'],0,left,['0'],1,0.8846254000000044,0.4,0,AccAcc,26,19,Woman,Right,
5,12,1,1.7825917999998637,['n'],0,left,['3'],4,1.1013136000001396,0.1,0,AccAcc,26,19,Woman,Right,
6,12,1,0.6514771999991353,['n'],1,right,['3'],4,0.21814420000009704,0.1,0,AccAcc,26,19,Woman,Right,
7,12,1,0.532962299999781,['c'],1,left,['3'],4,0.4182124999988446,0.4,0,AccAcc,26,19,Woman,Right,
8,12,1,0.4839819000007992,['c'],1,left,['3'],4,0.23448869999992894,0.4,0,AccAcc,26,19,Woman,Right,
9,12,1,0.5011933000005229,['c'],1,left,['0'],1,1.868008600000394,0.4,0,AccAcc,26,19,Woman,Right,
10,12,1,0.6671618000000308,['n'],0,left,['3'],4,0.20138029999907303,0.4,0,AccAcc,26,19,Woman,Right,
11,12,1,1.3658740000009857,['n'],0,left,['8'],3,0.2849724999996397,0.1,0,AccAcc,26,19,Woman,Right,
12,12,1,0.5339383999998972,['c'],1,left,['9'],2,0.3512516999999207,0.4,0,AccAcc,26,19,Woman,Right,
13,12,1,0.5652890000001207,['n'],1,right,['3'],4,0.8195490999987669,0.4,0,AccAcc,26,19,Woman,Right,
14,12,1,0.583768799999234,['c'],0,right,['3'],4,0.28419639999992796,0.4,0,AccAcc,26,19,Woman,Right,
15,12,1,0.7004713999995147,['c'],0,right,['3'],4,0.3680983999984164,0.2,0,AccAcc,26,19,Woman,Right,
16,12,1,0.6676402999983111,['n'],1,right,['3'],4,0.15150489999905403,0.2,0,AccAcc,26,19,Woman,Right,
17,12,1,0.5498145999990811,['n'],1,right,['3'],4,0.2187723000006372,0.4,0,AccAcc,26,19,Woman,Right,
18,12,1,0.6006620000007388,['c'],1,left,['3'],4,0.21690829999897687,0.4,0,AccAcc,26,19,Woman,Right,
19,12,1,0.5168971999992209,['c'],1,left,['3'],4,0.23483429999942018,0.1,0,AccAcc,26,19,Woman,Right,
20,12,1,0.8660486999997374,['n'],0,left,['9'],2,0.28530510000018694,0.1,0,AccAcc,26,19,Woman,Right,
21,12,1,0.5001161999989563,['n'],1,right,['8'],3,0.30169870000099763,0.4,0,AccAcc,26,19,Woman,Right,
22,12,1,0.316242400000192,['c'],0,right,['3'],4,0.18594320000011066,0.2,0,AccAcc,26,19,Woman,Right,
23,12,1,0.8986588000007032,['c'],1,left,['3'],4,0.23619379999945522,0.4,0,AccAcc,26,19,Woman,Right,
24,12,1,0.5327993000009883,['c'],1,left,['3'],4,0.25172399999974004,0.2,0,AccAcc,26,19,Woman,Right,
25,12,1,0.5503724999998667,['c'],1,left,['3'],4,0.20124609999948007,0.4,0,AccAcc,26,19,Woman,Right,
26,12,1,0.5998056999997061,['c'],1,left,['3'],4,0.20023200000105135,0.2,0,AccAcc,26,19,Woman,Right,
27,12,1,0.48409560000072815,['c'],1,left,['3'],4,0.2661667000011221,0.2,0,AccAcc,26,19,Woman,Right,
28,12,1,0.5340759999999136,['c'],0,right,['3'],4,0.2510148000001209,0.1,0,AccAcc,26,19,Woman,Right,
29,12,1,0.5998878000009427,['n'],1,right,['8'],3,0.2514539000003424,0.2,0,AccAcc,26,19,Woman,Right,
30,12,1,0.5839474000003975,['c'],1,left,['3'],4,0.21851360000073328,0.2,0,AccAcc,26,19,Woman,Right,
31,12,1,0.6500481000002765,['n'],1,right,['9'],2,0.2504188000002614,0.1,0,AccAcc,26,19,Woman,Right,
32,12,1,0.5676488000008248,['n'],1,right,['9'],2,0.20119139999951585,0.2,0,AccAcc,26,19,Woman,Right,
33,12,1,0.6839966000006825,['c'],1,left,['3'],4,0.23395370000071125,0.1,0,AccAcc,26,19,Woman,Right,
34,12,1,0.49981280000065453,['n'],1,right,['9'],2,0.26879510000071605,0.1,0,AccAcc,26,19,Woman,Right,
35,12,1,0.5997938000000431,['n'],1,right,['3'],4,0.13490289999936067,0.2,0,AccAcc,26,19,Woman,Right,
36,12,1,0.5008493000004819,['c'],1,left,['3'],4,0.4183729000014864,0.4,0,AccAcc,26,19,Woman,Right,
37,12,1,0.6663839000011649,['n'],1,right,['3'],4,0.13455849999991187,0.4,0,AccAcc,26,19,Woman,Right,
38,12,1,0.4660776000000624,['c'],1,left,['3'],4,0.2022462999993877,0.4,0,AccAcc,26,19,Woman,Right,
39,12,1,0.4664740999996866,['c'],1,left,['3'],4,0.401088599999639,0.4,0,AccAcc,26,19,Woman,Right,
40,12,1,0.6674904999999853,['n'],1,right,['3'],4,0.5853315999993356,0.1,0,AccAcc,26,19,Woman,Right,
41,12,1,0.36749959999906423,['c'],0,right,['3'],4,0.2682118000011542,0.1,0,AccAcc,26,19,Woman,Right,
42,12,1,0.44999319999988074,['n'],1,right,['3'],4,0.24964940000063507,0.2,0,AccAcc,26,19,Woman,Right,
43,12,1,0.5673938999989332,['n'],1,right,['3'],4,0.1698646999993798,0.4,0,AccAcc,26,19,Woman,Right,
44,12,1,0.8172330999987025,['c'],1,left,['3'],4,0.1842159999996511,0.4,0,AccAcc,26,19,Woman,Right,
45,12,1,0.5509760999993887,['n'],0,left,['0'],1,1.5855843000008463,0.4,0,AccAcc,26,19,Woman,Right,
46,12,1,1.2345630999989226,['c'],1,left,['3'],4,0.1831732999999076,0.2,0,AccAcc,26,19,Woman,Right,
47,12,1,0.8660587000013038,['n'],0,left,['8'],3,0.31783920000088983,0.1,0,AccAcc,26,19,Woman,Right,
48,12,1,0.633254800000941,['n'],1,right,['8'],3,0.21661130000029516,0.1,0,AccAcc,26,19,Woman,Right,
49,12,1,0.45136089999869,['n'],1,right,['3'],4,0.24939939999967464,0.1,0,AccAcc,26,19,Woman,Right,
50,12,1,0.4178456000008737,['n'],1,right,['3'],4,0.20047229999909177,0.2,0,AccAcc,26,19,Woman,Right,
51,12,1,1.1159474999985832,['n'],1,right,['3'],4,3.5688683000007586,0.2,0,AccAcc,26,19,Woman,Right,
52,12,1,1.6676950000000943,['n'],1,right,['9'],2,0.23449079999954847,0.1,0,AccAcc,26,19,Woman,Right,
53,12,1,0.8011778000000049,['c'],1,left,['3'],4,0.233409099999335,0.1,0,AccAcc,26,19,Woman,Right,
54,12,1,0.5329982999992353,['c'],1,left,['3'],4,0.28386069999942265,0.1,0,AccAcc,26,19,Woman,Right,
55,12,1,0.4843894999994518,['n'],1,right,['9'],2,0.5181111000001692,0.2,0,AccAcc,26,19,Woman,Right,
56,12,1,0.7160350000012841,['n'],1,right,['8'],3,0.20116809999854013,0.2,0,AccAcc,26,19,Woman,Right,
57,12,1,0.5840996000006271,['n'],0,left,['3'],4,0.1673730999991676,0.2,0,AccAcc,26,19,Woman,Right,
58,12,1,0.43298679999861633,['c'],0,right,['8'],3,0.3013256000012916,0.1,0,AccAcc,26,19,Woman,Right,
59,12,1,0.4666438999993261,['c'],1,left,['8'],3,0.3188264000000345,0.2,0,AccAcc,26,19,Woman,Right,
0,13,1,0.4498634999999922,['n'],0,left,"['9', '8']",2,0.6693778000008024,0.2,0,FastAcc,26,19,Woman,Right,
1,13,1,0.5659522000005381,['n'],1,right,['3'],4,0.40137460000005376,0.4,0,FastAcc,26,19,Woman,Right,
2,13,1,0.3824827999997069,['c'],0,right,['3'],4,0.23429130000113219,0.2,0,FastAcc,26,19,Woman,Right,
3,13,1,0.4501347999994323,['n'],0,left,['0'],1,0.6021010000004026,0.2,0,FastAcc,26,19,Woman,Right,
4,13,1,0.6012895000003482,['c'],1,left,['3'],4,0.19964299999992363,0.2,0,FastAcc,26,19,Woman,Right,
5,13,1,0.6333716999997705,['c'],1,left,['3'],4,0.18504319999919971,0.1,0,FastAcc,26,19,Woman,Right,
6,13,1,0.8321426000002248,['n'],1,right,['9'],2,0.16699899999912304,0.2,0,FastAcc,26,19,Woman,Right,
7,13,1,0.4518594999990455,['c'],1,left,['3'],4,0.434549399999014,0.4,0,FastAcc,26,19,Woman,Right,
8,13,1,0.7671593000013672,['n'],0,left,['8'],3,0.21799579999969865,0.1,0,FastAcc,26,19,Woman,Right,
9,13,1,0.4646970000012516,['n'],1,right,['3'],4,0.21951520000038727,0.4,0,FastAcc,26,19,Woman,Right,
10,13,1,0.5165569999990112,['c'],1,left,['3'],4,0.20086740000078862,0.4,0,FastAcc,26,19,Woman,Right,
11,13,1,0.6673245999991195,['n'],0,left,['9'],2,0.20025899999927788,0.1,0,FastAcc,26,19,Woman,Right,
12,13,1,0.8660949999994045,['n'],1,right,['9'],2,0.2185035999991669,0.2,0,FastAcc,26,19,Woman,Right,
13,13,1,0.5333572999988974,['c'],1,left,['3'],4,0.20120410000163247,0.4,0,FastAcc,26,19,Woman,Right,
14,13,1,0.5836388000006991,['c'],1,left,['2'],5,0.1668599999993603,0.4,0,FastAcc,26,19,Woman,Right,
15,13,1,0.999378100001195,['n'],0,left,['9'],2,0.268881699999838,0.1,0,FastAcc,26,19,Woman,Right,
16,13,1,0.5333054000002448,['c'],1,left,['3'],4,0.30149080000046524,0.2,0,FastAcc,26,19,Woman,Right,
17,13,1,0.60061929999938,['c'],1,left,['3'],4,0.2847763000008854,0.4,0,FastAcc,26,19,Woman,Right,
18,13,1,0.6317151999992348,['n'],1,right,['3'],4,0.6852732999996078,0.4,0,FastAcc,26,19,Woman,Right,
19,13,1,0.4498266999999032,['c'],0,right,['3'],4,0.18309279999994033,0.1,0,FastAcc,26,19,Woman,Right,
20,13,1,0.968243799999982,['c'],0,right,['3'],4,0.3174481999994896,0.1,0,FastAcc,26,19,Woman,Right,
21,13,1,0.8010907999996562,['c'],0,right,['3'],4,0.36689079999996466,0.4,0,FastAcc,26,19,Woman,Right,
22,13,1,0.6839999000003445,['n'],1,right,['9'],2,0.21620340000117722,0.1,0,FastAcc,26,19,Woman,Right,
23,13,1,0.5339624999996886,['n'],1,right,['9'],2,0.16927729999952135,0.2,0,FastAcc,26,19,Woman,Right,
24,13,1,0.7163761000010709,['n'],1,right,['9'],2,0.1832102999997005,0.4,0,FastAcc,26,19,Woman,Right,
25,13,1,0.7505079000002297,['n'],1,right,['9'],2,0.18490689999998722,0.1,0,FastAcc,26,19,Woman,Right,
26,13,1,0.9831997000001138,['n'],0,left,['9'],2,0.18464569999923697,0.1,0,FastAcc,26,19,Woman,Right,
27,13,1,0.5685471999986476,['c'],1,left,['3'],4,0.2512453999988793,0.2,0,FastAcc,26,19,Woman,Right,
28,13,1,0.550505900000644,['c'],1,left,['2'],5,0.950435099999595,0.4,0,FastAcc,26,19,Woman,Right,
29,13,1,1.049583199999688,['c'],0,right,['2'],5,0.36709330000121554,0.1,0,FastAcc,26,19,Woman,Right,
30,13,1,0.5494050999986939,['n'],1,right,['3'],4,0.4355986999999004,0.1,0,FastAcc,26,19,Woman,Right,
31,13,1,0.5337352000005922,['c'],0,right,['3'],4,0.2849002000002656,0.1,0,FastAcc,26,19,Woman,Right,
32,13,1,0.6996323999992455,['c'],1,left,['3'],4,0.23422240000036254,0.2,0,FastAcc,26,19,Woman,Right,
33,13,1,0.7489453999987745,['n'],1,right,['8'],3,0.23384389999955602,0.4,0,FastAcc,26,19,Woman,Right,
34,13,1,0.8685298999989755,['n'],1,right,['3'],4,0.10172260000035749,0.1,0,FastAcc,26,19,Woman,Right,
35,13,1,0.5671145000014803,['n'],0,left,['3'],4,0.1514251000007789,0.2,0,FastAcc,26,19,Woman,Right,
36,13,1,0.5836772000002384,['n'],1,right,['9'],2,0.9336416999994981,0.2,0,FastAcc,26,19,Woman,Right,
37,13,1,0.7836615000014717,['n'],1,right,['9'],2,0.20192230000066047,0.2,0,FastAcc,26,19,Woman,Right,
38,13,1,0.432791700000962,['n'],1,right,['9'],2,0.2015808999985893,0.4,0,FastAcc,26,19,Woman,Right,
39,13,1,1.3986296999992192,['n'],1,right,['9'],2,0.2515882000006968,0.1,0,FastAcc,26,19,Woman,Right,
40,13,1,0.5671485999992001,['c'],1,left,['3'],4,0.2836252999986755,0.2,0,FastAcc,26,19,Woman,Right,
41,13,1,0.5013878999998269,['n'],1,right,['9'],2,0.2668978000001516,0.4,0,FastAcc,26,19,Woman,Right,
42,13,1,0.6339388999986113,['n'],1,right,['9'],2,0.2512260999992577,0.4,0,FastAcc,26,19,Woman,Right,
43,13,1,0.5502311000000191,['n'],1,right,['3'],4,0.10019250000004831,0.2,0,FastAcc,26,19,Woman,Right,
44,13,1,0.9329355000008945,['c'],1,left,['3'],4,0.26856730000145035,0.1,0,FastAcc,26,19,Woman,Right,
45,13,1,1.0336695999994845,['n'],1,right,['9'],2,0.25149450000026263,0.2,0,FastAcc,26,19,Woman,Right,
46,13,1,0.7157114999990881,['n'],0,left,['0'],1,1.2686303000009502,0.4,0,FastAcc,26,19,Woman,Right,
47,13,1,0.6841039999999339,['c'],1,left,['3'],4,0.2167100999995455,0.4,0,FastAcc,26,19,Woman,Right,
48,13,1,0.44982399999935296,['n'],0,left,['0'],1,0.418991399999868,0.2,0,FastAcc,26,19,Woman,Right,
49,13,1,0.6831898000000365,['c'],1,left,['3'],4,0.26809209999919403,0.4,0,FastAcc,26,19,Woman,Right,
50,13,1,1.0842135999992024,['c'],1,left,['9'],2,0.25139299999864306,0.2,0,FastAcc,26,19,Woman,Right,
51,13,1,0.6672296999986429,['c'],1,left,['9'],2,1.1679000000003725,0.4,0,FastAcc,26,19,Woman,Right,
52,13,1,0.4660024999993766,['c'],1,left,['3'],4,0.2687124000003678,0.2,0,FastAcc,26,19,Woman,Right,
53,13,1,0.5511822999997094,['n'],1,right,['3'],4,0.3167948999998771,0.1,0,FastAcc,26,19,Woman,Right,
54,13,1,0.6004302000001189,['c'],1,left,['3'],4,0.3833990000002814,0.4,0,FastAcc,26,19,Woman,Right,
55,13,1,0.49967780000042694,['n'],1,right,['2'],5,0.3678362999999081,0.1,0,FastAcc,26,19,Woman,Right,
56,13,1,0.4830461999990803,['n'],0,left,['3'],4,0.23392749999948137,0.2,0,FastAcc,26,19,Woman,Right,
57,13,1,0.6329939999995986,['n'],0,left,['9'],2,0.41957750000074157,0.1,0,FastAcc,26,19,Woman,Right,
58,13,1,1.6822548000000097,['n'],1,right,['9'],2,0.2185129000008601,0.1,0,FastAcc,26,19,Woman,Right,
59,13,1,0.6673090999993292,['n'],1,right,['9'],2,0.25168660000053933,0.1,0,FastAcc,26,19,Woman,Right,
0,14,1,0.8668324999998731,['n'],1,right,['9'],2,0.23480380000000878,0.4,0,FastFast,26,19,Woman,Right,
1,14,1,0.8678897000008874,['c'],0,right,['3'],4,0.23325909999948635,0.2,0,FastFast,26,19,Woman,Right,
2,14,1,0.4992055000002438,['n'],1,right,"['8', '3']",3,0.23551989999941725,0.2,0,FastFast,26,19,Woman,Right,
3,14,1,0.4661305000008724,['c'],0,right,['3'],4,0.20048310000129277,0.1,0,FastFast,26,19,Woman,Right,
4,14,1,0.4499866000005568,['n'],1,right,['8'],3,0.18465139999898383,0.1,0,FastFast,26,19,Woman,Right,
5,14,1,0.4497942999987572,['c'],0,right,['3'],4,0.1858711000004405,0.1,0,FastFast,26,19,Woman,Right,
6,14,1,0.8488178999996308,['c'],1,left,['3'],4,0.20236900000054447,0.2,0,FastFast,26,19,Woman,Right,
7,14,1,1.0831479000007675,['n'],1,right,['8'],3,0.14974619999884453,0.2,0,FastFast,26,19,Woman,Right,
8,14,1,0.649441300000035,['c'],1,left,['3'],4,0.21755110000049172,0.4,0,FastFast,26,19,Woman,Right,
9,14,1,0.4502052999996522,['n'],0,left,['9'],2,0.20087400000011257,0.2,0,FastFast,26,19,Woman,Right,
10,14,1,1.4187063000008493,['n'],0,left,['3'],4,0.26694810000117286,0.4,0,FastFast,26,19,Woman,Right,
11,14,1,0.6013230000007752,['n'],0,left,['8'],3,0.45116549999875133,0.1,0,FastFast,26,19,Woman,Right,
12,14,1,0.46590370000012626,['c'],1,left,['3'],4,0.18484350000107952,0.4,0,FastFast,26,19,Woman,Right,
13,14,1,0.6329187000010279,['n'],0,left,['3'],4,0.15210449999904085,0.4,0,FastFast,26,19,Woman,Right,
14,14,1,0.8664434999991499,['c'],0,right,['9'],2,0.5170526000001701,0.2,0,FastFast,26,19,Woman,Right,
15,14,1,0.5504115000003367,['c'],1,left,['3'],4,0.20130079999944428,0.1,0,FastFast,26,19,Woman,Right,
16,14,1,0.5161260000004404,['c'],0,right,['9'],2,0.36814619999859133,0.1,0,FastFast,26,19,Woman,Right,
17,14,1,0.383729699999094,['c'],1,left,['3'],4,0.3178583000008075,0.4,0,FastFast,26,19,Woman,Right,
18,14,1,0.7504697000003944,['c'],0,right,['3'],4,0.4692131000010704,0.2,0,FastFast,26,19,Woman,Right,
19,14,1,0.6006378999991284,['c'],1,left,['3'],4,0.23524130000078003,0.4,0,FastFast,26,19,Woman,Right,
20,14,1,0.45137269999941054,['c'],1,left,['3'],4,0.2671976999990875,0.1,0,FastFast,26,19,Woman,Right,
21,14,1,0.7497354999995878,['n'],1,right,['9'],2,0.21912539999902947,0.2,0,FastFast,26,19,Woman,Right,
22,14,1,0.5652986000004603,['n'],1,right,['3'],4,0.35275739999997313,0.4,0,FastFast,26,19,Woman,Right,
23,14,1,0.46620310000071186,['n'],0,left,['3'],4,0.20195239999884507,0.1,0,FastFast,26,19,Woman,Right,
24,14,1,0.6342984999992041,['c'],1,left,['3'],4,0.2847029999993538,0.2,0,FastFast,26,19,Woman,Right,
25,14,1,0.6992561999995814,['c'],0,right,['3'],4,0.8687277999997605,0.2,0,FastFast,26,19,Woman,Right,
26,14,1,0.9340333999989525,['n'],0,left,['9'],2,0.21736419999979262,0.1,0,FastFast,26,19,Woman,Right,
27,14,1,0.7836417999988043,['c'],1,left,['3'],4,0.23427950000041164,0.4,0,FastFast,26,19,Woman,Right,
28,14,1,0.7832417000008718,['c'],1,left,['3'],4,0.2342503999989276,0.4,0,FastFast,26,19,Woman,Right,
29,14,1,0.6507863000006182,['c'],1,left,['3'],4,0.2683094000003621,0.2,0,FastFast,26,19,Woman,Right,
30,14,1,0.4007751000008284,['n'],0,left,['0'],1,1.0834641999990708,0.4,0,FastFast,26,19,Woman,Right,
31,14,1,1.8165800999995554,['n'],1,right,"['2', '3']",5,0.18420870000045397,0.1,0,FastFast,26,19,Woman,Right,
32,14,1,0.4833631000001333,['n'],1,right,['2'],5,0.10191599999961909,0.4,0,FastFast,26,19,Woman,Right,
33,14,1,0.48366989999885845,['n'],1,right,['3'],4,0.21732159999919531,0.2,0,FastFast,26,19,Woman,Right,
34,14,1,0.5671156999997038,['n'],0,left,['3'],4,0.21853269999883196,0.1,0,FastFast,26,19,Woman,Right,
35,14,1,0.5676003000007768,['c'],1,left,['3'],4,0.28356990000065707,0.1,0,FastFast,26,19,Woman,Right,
36,14,1,0.4510308000008081,['c'],1,left,['3'],4,0.40142460000060964,0.2,0,FastFast,26,19,Woman,Right,
37,14,1,0.517148899998574,['n'],1,right,['3'],4,0.4839492999999493,0.4,0,FastFast,26,19,Woman,Right,
38,14,1,0.48311459999968065,['c'],0,right,['9'],2,1.7343303999987256,0.2,0,FastFast,26,19,Woman,Right,
39,14,1,1.0172215000002325,['c'],1,left,['3'],4,0.28471990000070946,0.1,0,FastFast,26,19,Woman,Right,
40,14,1,0.9156671000000642,['n'],1,right,['3'],4,0.28550560000076075,0.1,0,FastFast,26,19,Woman,Right,
41,14,1,1.1338274000008823,['c'],1,left,['3'],4,0.3841171000003669,0.4,0,FastFast,26,19,Woman,Right,
42,14,1,0.5342153999990842,['n'],1,right,['3'],4,0.2013516000006348,0.4,0,FastFast,26,19,Woman,Right,
43,14,1,0.400473099998635,['c'],0,right,['9'],2,0.7680842999998276,0.2,0,FastFast,26,19,Woman,Right,
44,14,1,0.3677860000007058,['n'],1,right,['3'],4,0.40212350000001607,0.2,0,FastFast,26,19,Woman,Right,
45,14,1,0.7496403999994072,['n'],0,left,['8'],3,0.18384819999846513,0.1,0,FastFast,26,19,Woman,Right,
46,14,1,0.4008001999991393,['n'],1,right,['3'],4,0.3846635999998398,0.2,0,FastFast,26,19,Woman,Right,
47,14,1,0.46725400000104855,['n'],0,left,['8'],3,1.0506828999987192,0.1,0,FastFast,26,19,Woman,Right,
48,14,1,0.6177475000004051,['n'],1,right,['8'],3,0.28345269999954326,0.1,0,FastFast,26,19,Woman,Right,
49,14,1,0.48270989999946323,['n'],1,right,['3'],4,0.26706500000000233,0.2,0,FastFast,26,19,Woman,Right,
50,14,1,0.40085610000096494,['n'],0,left,['9'],2,0.5166930999985198,0.4,0,FastFast,26,19,Woman,Right,
51,14,1,0.48450530000081926,['n'],1,right,['2'],5,0.534164900000178,0.4,0,FastFast,26,19,Woman,Right,
52,14,1,0.4684058000002551,['c'],0,right,['2'],5,0.2840710999989824,0.2,0,FastFast,26,19,Woman,Right,
53,14,1,0.4839933999992354,['n'],1,right,['3'],4,0.5686081000003469,0.1,0,FastFast,26,19,Woman,Right,
54,14,1,1.1175438000009308,['c'],1,left,['9'],2,0.5013624000002892,0.1,0,FastFast,26,19,Woman,Right,
55,14,1,0.5845340000014403,['c'],1,left,['2'],5,0.4683442000005016,0.4,0,FastFast,26,19,Woman,Right,
56,14,1,0.4689379999999801,['n'],1,right,['2'],5,0.2679500000012922,0.2,0,FastFast,26,19,Woman,Right,
57,14,1,0.6838497000007919,['n'],1,right,['3'],4,0.7182560999990528,0.4,0,FastFast,26,19,Woman,Right,
58,14,1,0.5837742000003345,['c'],1,left,['2'],5,0.5515836999984458,0.4,0,FastFast,26,19,Woman,Right,
59,14,1,0.8505113000010169,['n'],0,left,['9'],2,0.30010829999991984,0.1,0,FastFast,26,19,Woman,Right,
0,15,1,3.1831544999986363,['n'],0,left,['3'],4,0.8020925000000716,0.2,0,AccFast,26,19,Woman,Right,
1,15,1,2.215838400001303,['c'],1,left,['3'],4,0.2189502999990509,0.4,0,AccFast,26,19,Woman,Right,
2,15,1,0.667139799999859,['n'],0,left,['3'],4,0.20138020000013057,0.1,0,AccFast,26,19,Woman,Right,
3,15,1,0.6009614000013244,['c'],0,right,['3'],4,0.20161910000024363,0.2,0,AccFast,26,19,Woman,Right,
4,15,1,0.33331489999909536,['c'],1,left,['9'],2,0.35237190000043483,0.4,0,AccFast,26,19,Woman,Right,
5,15,1,0.4668109000012919,['c'],1,left,['9'],2,0.5344101999999111,0.1,0,AccFast,26,19,Woman,Right,
6,15,1,0.633112199999232,['c'],1,left,['3'],4,0.16675060000125086,0.1,0,AccFast,26,19,Woman,Right,
7,15,1,0.5012225000009494,['n'],1,right,['3'],4,0.21657930000037595,0.4,0,AccFast,26,19,Woman,Right,
8,15,1,0.6684019999993325,['c'],1,left,['3'],4,0.2845772999990004,0.4,0,AccFast,26,19,Woman,Right,
9,15,1,0.7334654000005685,['n'],0,left,['3'],4,0.21696980000160693,0.2,0,AccFast,26,19,Woman,Right,
10,15,1,0.684798199999932,['n'],1,right,['3'],4,0.11681580000004033,0.2,0,AccFast,26,19,Woman,Right,
11,15,1,0.9336404000005132,['c'],1,left,['9'],2,0.2516211000001931,0.1,0,AccFast,26,19,Woman,Right,
12,15,1,0.5321114999987913,['c'],1,left,['3'],4,0.269282999999632,0.1,0,AccFast,26,19,Woman,Right,
13,15,1,0.4492231999993237,['n'],1,right,['3'],4,0.268955300000016,0.2,0,AccFast,26,19,Woman,Right,
14,15,1,0.5657539000003453,['c'],0,right,['9'],2,0.5685372000007192,0.1,0,AccFast,26,19,Woman,Right,
15,15,1,0.6491241000003356,['c'],1,left,['3'],4,0.2676774000010482,0.2,0,AccFast,26,19,Woman,Right,
16,15,1,0.6673967999995511,['n'],1,right,['3'],4,0.3835959999996703,0.2,0,AccFast,26,19,Woman,Right,
17,15,1,0.40006200000061654,['c'],1,left,['3'],4,0.43601069999931497,0.2,0,AccFast,26,19,Woman,Right,
18,15,1,0.5506114999989222,['n'],1,right,['3'],4,0.13436949999959324,0.2,0,AccFast,26,19,Woman,Right,
19,15,1,1.0664169000010588,['c'],1,left,['3'],4,0.23540200000024925,0.1,0,AccFast,26,19,Woman,Right,
20,15,1,0.5504294000002119,['n'],1,right,['3'],4,0.2015385000013339,0.4,0,AccFast,26,19,Woman,Right,
21,15,1,0.5164934000003996,['n'],1,right,['3'],4,0.16728390000025684,0.2,0,AccFast,26,19,Woman,Right,
22,15,1,0.7174692999997205,['c'],1,left,['3'],4,0.19958989999940968,0.4,0,AccFast,26,19,Woman,Right,
23,15,1,0.5515740000009828,['c'],1,left,['3'],4,0.20155509999858623,0.4,0,AccFast,26,19,Woman,Right,
24,15,1,0.5166802000003372,['c'],1,left,['3'],4,0.2344998000007763,0.2,0,AccFast,26,19,Woman,Right,
25,15,1,0.8989329999985785,['n'],1,right,['3'],4,0.08503680000103486,0.1,0,AccFast,26,19,Woman,Right,
26,15,1,0.6498372000005475,['n'],1,right,['3'],4,0.08463560000018333,0.1,0,AccFast,26,19,Woman,Right,
27,15,1,0.649390399999902,['c'],1,left,['3'],4,0.16782870000133698,0.4,0,AccFast,26,19,Woman,Right,
28,15,1,0.5505618999995932,['n'],1,right,['3'],4,0.2163961999995081,0.4,0,AccFast,26,19,Woman,Right,
29,15,1,0.49986680000074557,['c'],1,left,['3'],4,0.18445499999870663,0.2,0,AccFast,26,19,Woman,Right,
30,15,1,0.5172445999996853,['n'],1,right,['3'],4,0.15127659999961907,0.2,0,AccFast,26,19,Woman,Right,
31,15,1,0.6006993999999395,['n'],1,right,['3'],4,0.08458059999975376,0.2,0,AccFast,26,19,Woman,Right,
32,15,1,0.5171055999999226,['n'],1,right,['3'],4,0.133694000000105,0.4,0,AccFast,26,19,Woman,Right,
33,15,1,0.5677474000003713,['c'],1,left,['3'],4,0.2514917999997124,0.4,0,AccFast,26,19,Woman,Right,
34,15,1,0.45021470000028785,['n'],0,left,['3'],4,0.3684145000006538,0.4,0,AccFast,26,19,Woman,Right,
35,15,1,0.5677754999996978,['c'],1,left,['3'],4,0.2666449999996985,0.4,0,AccFast,26,19,Woman,Right,
36,15,1,0.8159315000011702,['n'],1,right,['3'],4,0.28548810000029334,0.2,0,AccFast,26,19,Woman,Right,
37,15,1,0.7653429000001779,['n'],1,right,['9'],2,0.5009929000007105,0.1,0,AccFast,26,19,Woman,Right,
38,15,1,0.5509880000008707,['c'],0,right,['3'],4,0.23473089999970398,0.1,0,AccFast,26,19,Woman,Right,
39,15,1,1.3324791000013647,['n'],0,left,['9'],2,0.919527799998832,0.1,0,AccFast,26,19,Woman,Right,
40,15,1,0.6343403000009857,['c'],1,left,['3'],4,0.16817510000146285,0.4,0,AccFast,26,19,Woman,Right,
41,15,1,0.6318016000004718,['n'],1,right,['9'],2,0.21846290000030422,0.1,0,AccFast,26,19,Woman,Right,
42,15,1,0.5337670000008075,['c'],1,left,['3'],4,0.2184415000010631,0.2,0,AccFast,26,19,Woman,Right,
43,15,1,0.5183202999996865,['n'],1,right,['3'],4,0.3180720000000292,0.4,0,AccFast,26,19,Woman,Right,
44,15,1,0.6652126999997563,['n'],1,right,['9'],2,0.21737059999941266,0.1,0,AccFast,26,19,Woman,Right,
45,15,1,0.8509592999998858,['n'],1,right,['0'],1,0.2677235999999539,0.2,0,AccFast,26,19,Woman,Right,
46,15,1,2.1994264000004478,['n'],0,left,['3'],4,0.5352754000014102,0.2,0,AccFast,26,19,Woman,Right,
47,15,1,0.767071099999157,['c'],1,left,['3'],4,0.2680435000002035,0.1,0,AccFast,26,19,Woman,Right,
48,15,1,1.6491420000002108,['n'],1,right,['3'],4,0.301218800001152,0.1,0,AccFast,26,19,Woman,Right,
49,15,1,1.1672517000006337,['c'],1,left,['3'],4,0.2504495000011957,0.1,0,AccFast,26,19,Woman,Right,
50,15,1,0.5679096000003483,['n'],1,right,['3'],4,0.16824310000083642,0.1,0,AccFast,26,19,Woman,Right,
51,15,1,0.4669702999999572,['c'],1,left,['3'],4,0.20133829999940644,0.1,0,AccFast,26,19,Woman,Right,
52,15,1,0.5337698000003002,['n'],1,right,['3'],4,0.16803369999979623,0.4,0,AccFast,26,19,Woman,Right,
53,15,1,0.44930199999907927,['c'],0,right,['3'],4,0.21767780000118364,0.2,0,AccFast,26,19,Woman,Right,
54,15,1,0.432781999999861,['n'],1,right,['3'],4,0.1520380000001751,0.4,0,AccFast,26,19,Woman,Right,
55,15,1,1.2665591000004497,['n'],1,right,['0'],1,0.6336003999986133,0.2,0,AccFast,26,19,Woman,Right,
56,15,1,0.6002488000012818,['n'],1,right,['3'],4,0.11694779999925231,0.4,0,AccFast,26,19,Woman,Right,
57,15,1,0.5674614999988989,['n'],1,right,['3'],4,0.10122679999949469,0.4,0,AccFast,26,19,Woman,Right,
58,15,1,0.7512064999991708,['c'],1,left,['3'],4,0.20195760000024165,0.1,0,AccFast,26,19,Woman,Right,
59,15,1,0.4843197999998665,['c'],1,left,['3'],4,0.16825649999918824,0.4,0,AccFast,26,19,Woman,Right,
