withinblocktrial,block,block_repetition,rt,resp,cor,cresp,conf_press,cj,rtconf,coherence,slow_trial,manipulation,sub,age,gender,handedness,
0,1,1,2.0343621000001804,['c'],0,right,none,-99,-99,0.5,0,none,28,18,Woman,Right,
1,1,1,1.116487700000107,['c'],0,right,none,-99,-99,0.5,0,none,28,18,Woman,Right,
2,1,1,2.800152700000581,['c'],1,left,none,-99,-99,0.5,0,none,28,18,Woman,Right,
3,1,1,1.4180332000005365,['c'],0,right,none,-99,-99,0.5,0,none,28,18,Woman,Right,
4,1,1,1.48414159999993,['n'],1,right,none,-99,-99,0.5,0,none,28,18,Woman,Right,
5,1,1,1.0678829999997106,['c'],0,right,none,-99,-99,0.5,0,none,28,18,Woman,Right,
6,1,1,0.9330878000000666,['c'],1,left,none,-99,-99,0.5,0,none,28,18,Woman,Right,
7,1,1,1.6673540000001594,['c'],0,right,none,-99,-99,0.5,0,none,28,18,Woman,Right,
8,1,1,1.616775399999824,['n'],1,right,none,-99,-99,0.5,0,none,28,18,Woman,Right,
9,1,1,0.9674025000003894,['c'],0,right,none,-99,-99,0.5,0,none,28,18,Woman,Right,
10,1,1,0.9334301999997479,['c'],1,left,none,-99,-99,0.5,0,none,28,18,Woman,Right,
11,1,1,1.7180482000003394,['c'],1,left,none,-99,-99,0.5,0,none,28,18,Woman,Right,
12,1,1,0.7486335000003237,['n'],0,left,none,-99,-99,0.5,0,none,28,18,Woman,Right,
13,1,1,0.868580700000166,['n'],1,right,none,-99,-99,0.5,0,none,28,18,Woman,Right,
14,1,1,1.067229000000225,['n'],1,right,none,-99,-99,0.5,0,none,28,18,Woman,Right,
15,1,1,0.7004739999993035,['c'],1,left,none,-99,-99,0.5,0,none,28,18,Woman,Right,
16,1,1,0.9013221000004705,['n'],1,right,none,-99,-99,0.5,0,none,28,18,Woman,Right,
17,1,1,0.7996911999998702,['n'],0,left,none,-99,-99,0.5,0,none,28,18,Woman,Right,
18,1,1,0.8493870000002062,['c'],1,left,none,-99,-99,0.5,0,none,28,18,Woman,Right,
19,1,1,0.617795400000432,['c'],1,left,none,-99,-99,0.5,0,none,28,18,Woman,Right,
20,1,1,0.6679831999999806,['n'],1,right,none,-99,-99,0.5,0,none,28,18,Woman,Right,
21,1,1,0.7170365000001766,['n'],0,left,none,-99,-99,0.5,0,none,28,18,Woman,Right,
22,1,1,0.6835897000000841,['c'],1,left,none,-99,-99,0.5,0,none,28,18,Woman,Right,
23,1,1,0.784759899999699,['c'],1,left,none,-99,-99,0.5,0,none,28,18,Woman,Right,
0,1,2,0.7326030000003811,['c'],1,left,none,-99,-99,0.5,0,none,28,18,Woman,Right,
1,1,2,0.7671446000003925,['n'],1,right,none,-99,-99,0.5,0,none,28,18,Woman,Right,
2,1,2,0.6512044999999489,['c'],1,left,none,-99,-99,0.5,0,none,28,18,Woman,Right,
3,1,2,0.48272739999993064,['n'],1,right,none,-99,-99,0.5,0,none,28,18,Woman,Right,
4,1,2,0.618478999999752,['c'],1,left,none,-99,-99,0.5,0,none,28,18,Woman,Right,
5,1,2,1.0338853000002928,['c'],1,left,none,-99,-99,0.5,0,none,28,18,Woman,Right,
6,1,2,0.684132899999895,['n'],1,right,none,-99,-99,0.5,0,none,28,18,Woman,Right,
7,1,2,0.8006651000005149,['n'],1,right,none,-99,-99,0.5,0,none,28,18,Woman,Right,
8,1,2,0.5500621000001047,['c'],0,right,none,-99,-99,0.5,0,none,28,18,Woman,Right,
9,1,2,0.6348314000006212,['c'],1,left,none,-99,-99,0.5,0,none,28,18,Woman,Right,
10,1,2,0.8836992999995346,['c'],1,left,none,-99,-99,0.5,0,none,28,18,Woman,Right,
11,1,2,0.6671261000001323,['c'],1,left,none,-99,-99,0.5,0,none,28,18,Woman,Right,
12,1,2,0.6843251999998756,['n'],1,right,none,-99,-99,0.5,0,none,28,18,Woman,Right,
13,1,2,0.7180181999992783,['n'],0,left,none,-99,-99,0.5,0,none,28,18,Woman,Right,
14,1,2,0.5838018000004013,['c'],1,left,none,-99,-99,0.5,0,none,28,18,Woman,Right,
15,1,2,1.0347299000004568,['c'],1,left,none,-99,-99,0.5,0,none,28,18,Woman,Right,
16,1,2,0.7665412999995169,['c'],0,right,none,-99,-99,0.5,0,none,28,18,Woman,Right,
17,1,2,0.784226700000545,['c'],0,right,none,-99,-99,0.5,0,none,28,18,Woman,Right,
18,1,2,0.7339474000000337,['n'],1,right,none,-99,-99,0.5,0,none,28,18,Woman,Right,
19,1,2,0.6657961000000796,['c'],1,left,none,-99,-99,0.5,0,none,28,18,Woman,Right,
20,1,2,0.6823811000003843,['c'],0,right,none,-99,-99,0.5,0,none,28,18,Woman,Right,
21,1,2,0.9013082000001305,['c'],0,right,none,-99,-99,0.5,0,none,28,18,Woman,Right,
22,1,2,0.8343066999996154,['c'],1,left,none,-99,-99,0.5,0,none,28,18,Woman,Right,
23,1,2,0.5491815000004863,['c'],0,right,none,-99,-99,0.5,0,none,28,18,Woman,Right,
0,1,3,0.7679552999998123,['c'],1,left,none,-99,-99,0.5,0,none,28,18,Woman,Right,
1,1,3,0.5179430999996839,['n'],1,right,none,-99,-99,0.5,0,none,28,18,Woman,Right,
2,1,3,0.5828480000000127,['c'],0,right,none,-99,-99,0.5,0,none,28,18,Woman,Right,
3,1,3,0.7169084999995903,['n'],0,left,none,-99,-99,0.5,0,none,28,18,Woman,Right,
4,1,3,0.6174227999999857,['c'],0,right,none,-99,-99,0.5,0,none,28,18,Woman,Right,
5,1,3,0.533855599999697,['c'],0,right,none,-99,-99,0.5,0,none,28,18,Woman,Right,
6,1,3,0.8838457000001654,['c'],0,right,none,-99,-99,0.5,0,none,28,18,Woman,Right,
7,1,3,0.9160996000000523,['c'],0,right,none,-99,-99,0.5,0,none,28,18,Woman,Right,
8,1,3,0.7683351999994557,['n'],0,left,none,-99,-99,0.5,0,none,28,18,Woman,Right,
9,1,3,0.617804999999862,['c'],1,left,none,-99,-99,0.5,0,none,28,18,Woman,Right,
10,1,3,0.8841083999996044,['c'],0,right,none,-99,-99,0.5,0,none,28,18,Woman,Right,
11,1,3,1.0005672999996023,['c'],0,right,none,-99,-99,0.5,0,none,28,18,Woman,Right,
12,1,3,0.5673463000002812,['n'],0,left,none,-99,-99,0.5,0,none,28,18,Woman,Right,
13,1,3,0.5836764999994557,['c'],0,right,none,-99,-99,0.5,0,none,28,18,Woman,Right,
14,1,3,1.6349269000002096,['c'],1,left,none,-99,-99,0.5,0,none,28,18,Woman,Right,
15,1,3,0.40121580000050017,['n'],0,left,none,-99,-99,0.5,0,none,28,18,Woman,Right,
16,1,3,1.0017351999995299,['c'],0,right,none,-99,-99,0.5,0,none,28,18,Woman,Right,
17,1,3,0.3509483999996519,['n'],1,right,none,-99,-99,0.5,0,none,28,18,Woman,Right,
18,1,3,0.35013960000014777,['n'],0,left,none,-99,-99,0.5,0,none,28,18,Woman,Right,
19,1,3,0.5508009000004677,['c'],1,left,none,-99,-99,0.5,0,none,28,18,Woman,Right,
20,1,3,0.6505635000003167,['c'],1,left,none,-99,-99,0.5,0,none,28,18,Woman,Right,
21,1,3,0.384533399999782,['n'],0,left,none,-99,-99,0.5,0,none,28,18,Woman,Right,
22,1,3,0.8828342999995584,['n'],0,left,none,-99,-99,0.5,0,none,28,18,Woman,Right,
23,1,3,0.48369540000021516,['n'],1,right,none,-99,-99,0.5,0,none,28,18,Woman,Right,
0,1,4,0.8507194999992862,['c'],1,left,none,-99,-99,0.5,0,none,28,18,Woman,Right,
1,1,4,1.1673825999996552,['c'],1,left,none,-99,-99,0.5,0,none,28,18,Woman,Right,
2,1,4,0.8672551999998177,['c'],0,right,none,-99,-99,0.5,0,none,28,18,Woman,Right,
3,1,4,0.9676552000000811,['n'],1,right,none,-99,-99,0.5,0,none,28,18,Woman,Right,
4,1,4,0.950995399999556,['c'],1,left,none,-99,-99,0.5,0,none,28,18,Woman,Right,
5,1,4,1.2837050000007366,['n'],0,left,none,-99,-99,0.5,0,none,28,18,Woman,Right,
6,1,4,0.8005721999998059,['c'],1,left,none,-99,-99,0.5,0,none,28,18,Woman,Right,
7,1,4,0.750598199999331,['n'],1,right,none,-99,-99,0.5,0,none,28,18,Woman,Right,
8,1,4,1.0341047000001709,['c'],1,left,none,-99,-99,0.5,0,none,28,18,Woman,Right,
9,1,4,1.283856900000501,['n'],0,left,none,-99,-99,0.5,0,none,28,18,Woman,Right,
10,1,4,1.0846425999998246,['n'],1,right,none,-99,-99,0.5,0,none,28,18,Woman,Right,
11,1,4,1.1999703000001318,['c'],0,right,none,-99,-99,0.5,0,none,28,18,Woman,Right,
12,1,4,1.0994063999996797,['c'],1,left,none,-99,-99,0.5,0,none,28,18,Woman,Right,
13,1,4,0.9178900999995676,['n'],1,right,none,-99,-99,0.5,0,none,28,18,Woman,Right,
14,1,4,0.7847937999995338,['c'],1,left,none,-99,-99,0.5,0,none,28,18,Woman,Right,
15,1,4,1.0498767999997654,['n'],1,right,none,-99,-99,0.5,0,none,28,18,Woman,Right,
16,1,4,0.7496163999994678,['c'],0,right,none,-99,-99,0.5,0,none,28,18,Woman,Right,
17,1,4,0.8668508999999176,['c'],1,left,none,-99,-99,0.5,0,none,28,18,Woman,Right,
18,1,4,0.8672889999998006,['n'],1,right,none,-99,-99,0.5,0,none,28,18,Woman,Right,
19,1,4,0.899287700000059,['c'],0,right,none,-99,-99,0.5,0,none,28,18,Woman,Right,
20,1,4,0.6830785000001924,['c'],0,right,none,-99,-99,0.5,0,none,28,18,Woman,Right,
21,1,4,0.6010003999999753,['c'],1,left,none,-99,-99,0.5,0,none,28,18,Woman,Right,
22,1,4,0.9015478000001167,['n'],0,left,none,-99,-99,0.5,0,none,28,18,Woman,Right,
23,1,4,1.0847962999996525,['c'],0,right,none,-99,-99,0.5,0,none,28,18,Woman,Right,
0,1,5,0.8343500999999378,['c'],1,left,none,-99,-99,0.5,0,none,28,18,Woman,Right,
1,1,5,0.9671798000008494,['n'],1,right,none,-99,-99,0.5,0,none,28,18,Woman,Right,
2,1,5,0.8672082000002774,['n'],1,right,none,-99,-99,0.5,0,none,28,18,Woman,Right,
3,1,5,0.7839715999998589,['c'],1,left,none,-99,-99,0.5,0,none,28,18,Woman,Right,
4,1,5,0.7321045999997295,['n'],1,right,none,-99,-99,0.5,0,none,28,18,Woman,Right,
5,1,5,0.7172180000006847,['n'],1,right,none,-99,-99,0.5,0,none,28,18,Woman,Right,
6,1,5,0.8003398999999263,['n'],1,right,none,-99,-99,0.5,0,none,28,18,Woman,Right,
7,1,5,0.851420899999539,['c'],1,left,none,-99,-99,0.5,0,none,28,18,Woman,Right,
8,1,5,0.7492987000005087,['c'],0,right,none,-99,-99,0.5,0,none,28,18,Woman,Right,
9,1,5,0.934201099999882,['c'],0,right,none,-99,-99,0.5,0,none,28,18,Woman,Right,
10,1,5,1.3173080999995364,['c'],0,right,none,-99,-99,0.5,0,none,28,18,Woman,Right,
11,1,5,1.1502787999997963,['c'],1,left,none,-99,-99,0.5,0,none,28,18,Woman,Right,
12,1,5,0.9829911000006177,['n'],1,right,none,-99,-99,0.5,0,none,28,18,Woman,Right,
13,1,5,0.749898399999438,['c'],0,right,none,-99,-99,0.5,0,none,28,18,Woman,Right,
14,1,5,0.8673968000002787,['c'],1,left,none,-99,-99,0.5,0,none,28,18,Woman,Right,
15,1,5,1.5337417000000642,['n'],0,left,none,-99,-99,0.5,0,none,28,18,Woman,Right,
16,1,5,0.6335179999996399,['c'],1,left,none,-99,-99,0.5,0,none,28,18,Woman,Right,
17,1,5,0.7005718999998862,['c'],1,left,none,-99,-99,0.5,0,none,28,18,Woman,Right,
18,1,5,0.8161763999996765,['n'],1,right,none,-99,-99,0.5,0,none,28,18,Woman,Right,
19,1,5,0.6344868999995015,['c'],1,left,none,-99,-99,0.5,0,none,28,18,Woman,Right,
20,1,5,0.883671200000208,['c'],1,left,none,-99,-99,0.5,0,none,28,18,Woman,Right,
21,1,5,0.8157393000001321,['c'],0,right,none,-99,-99,0.5,0,none,28,18,Woman,Right,
22,1,5,0.7011972000000242,['c'],1,left,none,-99,-99,0.5,0,none,28,18,Woman,Right,
23,1,5,0.9824793999996473,['n'],0,left,none,-99,-99,0.5,0,none,28,18,Woman,Right,
0,1,6,0.7670595999998113,['c'],1,left,none,-99,-99,0.5,0,none,28,18,Woman,Right,
1,1,6,0.8000959000000876,['n'],0,left,none,-99,-99,0.5,0,none,28,18,Woman,Right,
2,1,6,0.7493613000006007,['n'],0,left,none,-99,-99,0.5,0,none,28,18,Woman,Right,
3,1,6,0.4839003999995839,['c'],0,right,none,-99,-99,0.5,0,none,28,18,Woman,Right,
4,1,6,0.4845472000006339,['n'],0,left,none,-99,-99,0.5,0,none,28,18,Woman,Right,
5,1,6,0.3668385999999373,['n'],0,left,none,-99,-99,0.5,0,none,28,18,Woman,Right,
6,1,6,0.5513409000004685,['c'],0,right,none,-99,-99,0.5,0,none,28,18,Woman,Right,
7,1,6,0.7003858999996737,['c'],0,right,none,-99,-99,0.5,0,none,28,18,Woman,Right,
8,1,6,0.6673032999997304,['c'],1,left,none,-99,-99,0.5,0,none,28,18,Woman,Right,
9,1,6,0.6677006999998412,['c'],1,left,none,-99,-99,0.5,0,none,28,18,Woman,Right,
10,1,6,0.7840476000001217,['n'],0,left,none,-99,-99,0.5,0,none,28,18,Woman,Right,
11,1,6,0.8337330000003931,['c'],1,left,none,-99,-99,0.5,0,none,28,18,Woman,Right,
12,1,6,1.7167901999991955,['n'],1,right,none,-99,-99,0.5,0,none,28,18,Woman,Right,
13,1,6,0.8838196000006064,['c'],0,right,none,-99,-99,0.5,0,none,28,18,Woman,Right,
14,1,6,1.067042799999399,['n'],1,right,none,-99,-99,0.5,0,none,28,18,Woman,Right,
15,1,6,0.9168737999998484,['c'],1,left,none,-99,-99,0.5,0,none,28,18,Woman,Right,
16,1,6,0.8665338999999221,['c'],1,left,none,-99,-99,0.5,0,none,28,18,Woman,Right,
17,1,6,0.7330474999998842,['n'],1,right,none,-99,-99,0.5,0,none,28,18,Woman,Right,
18,1,6,0.8006795999999667,['n'],0,left,none,-99,-99,0.5,0,none,28,18,Woman,Right,
19,1,6,0.6505556000001889,['c'],0,right,none,-99,-99,0.5,0,none,28,18,Woman,Right,
20,1,6,0.7504679000003307,['c'],0,right,none,-99,-99,0.5,0,none,28,18,Woman,Right,
21,1,6,0.44983870000032766,['c'],0,right,none,-99,-99,0.5,0,none,28,18,Woman,Right,
22,1,6,2.2004366999999547,['c'],0,right,none,-99,-99,0.5,0,none,28,18,Woman,Right,
23,1,6,0.40109429999938584,['n'],1,right,none,-99,-99,0.5,0,none,28,18,Woman,Right,
0,1,7,0.8013234999998531,['c'],0,right,none,-99,-99,0.5,0,none,28,18,Woman,Right,
1,1,7,0.8004340999996202,['n'],1,right,none,-99,-99,0.5,0,none,28,18,Woman,Right,
2,1,7,1.251337799999419,['c'],0,right,none,-99,-99,0.5,0,none,28,18,Woman,Right,
3,1,7,0.5663395999999921,['n'],0,left,none,-99,-99,0.5,0,none,28,18,Woman,Right,
4,1,7,0.9516145000006873,['c'],1,left,none,-99,-99,0.5,0,none,28,18,Woman,Right,
5,1,7,1.1681963999999425,['n'],1,right,none,-99,-99,0.5,0,none,28,18,Woman,Right,
6,1,7,0.9850114999999278,['n'],1,right,none,-99,-99,0.5,0,none,28,18,Woman,Right,
7,1,7,0.8665965999998662,['c'],1,left,none,-99,-99,0.5,0,none,28,18,Woman,Right,
8,1,7,0.5840989999996964,['c'],0,right,none,-99,-99,0.5,0,none,28,18,Woman,Right,
9,1,7,0.5495590000000448,['c'],1,left,none,-99,-99,0.5,0,none,28,18,Woman,Right,
10,1,7,0.6011335999992298,['n'],0,left,none,-99,-99,0.5,0,none,28,18,Woman,Right,
11,1,7,0.3834274999999252,['n'],0,left,none,-99,-99,0.5,0,none,28,18,Woman,Right,
12,1,7,0.44994600000063656,['n'],1,right,none,-99,-99,0.5,0,none,28,18,Woman,Right,
13,1,7,0.4011218000005101,['c'],0,right,none,-99,-99,0.5,0,none,28,18,Woman,Right,
14,1,7,0.45057600000018283,['c'],1,left,none,-99,-99,0.5,0,none,28,18,Woman,Right,
15,1,7,0.8167295000002923,['c'],0,right,none,-99,-99,0.5,0,none,28,18,Woman,Right,
16,1,7,0.41771280000011757,['n'],0,left,none,-99,-99,0.5,0,none,28,18,Woman,Right,
17,1,7,0.2838665999997829,['n'],0,left,none,-99,-99,0.5,0,none,28,18,Woman,Right,
18,1,7,0.7677227999993192,['c'],1,left,none,-99,-99,0.5,0,none,28,18,Woman,Right,
19,1,7,0.9164936999995916,['n'],1,right,none,-99,-99,0.5,0,none,28,18,Woman,Right,
20,1,7,1.5836687000000893,['n'],1,right,none,-99,-99,0.5,0,none,28,18,Woman,Right,
21,1,7,0.8835328000004665,['c'],1,left,none,-99,-99,0.5,0,none,28,18,Woman,Right,
22,1,7,1.2695744000002378,['c'],1,left,none,-99,-99,0.5,0,none,28,18,Woman,Right,
23,1,7,0.8171459999994113,['n'],1,right,none,-99,-99,0.5,0,none,28,18,Woman,Right,
0,1,8,0.6341496999993979,['c'],0,right,none,-99,-99,0.5,0,none,28,18,Woman,Right,
1,1,8,0.7004443000005267,['c'],0,right,none,-99,-99,0.5,0,none,28,18,Woman,Right,
2,1,8,0.7997648000000481,['c'],1,left,none,-99,-99,0.5,0,none,28,18,Woman,Right,
3,1,8,2.1167570999996315,['n'],1,right,none,-99,-99,0.5,0,none,28,18,Woman,Right,
4,1,8,0.9011582000002818,['c'],1,left,none,-99,-99,0.5,0,none,28,18,Woman,Right,
5,1,8,0.7999250000002576,['c'],1,left,none,-99,-99,0.5,0,none,28,18,Woman,Right,
6,1,8,0.8677331000008053,['n'],0,left,none,-99,-99,0.5,0,none,28,18,Woman,Right,
7,1,8,0.8493048999998791,['c'],0,right,none,-99,-99,0.5,0,none,28,18,Woman,Right,
8,1,8,1.167674000000261,['n'],1,right,none,-99,-99,0.5,0,none,28,18,Woman,Right,
9,1,8,0.7675439000004189,['c'],0,right,none,-99,-99,0.5,0,none,28,18,Woman,Right,
10,1,8,1.7160211999998864,['c'],1,left,none,-99,-99,0.5,0,none,28,18,Woman,Right,
11,1,8,0.8514406999993298,['c'],1,left,none,-99,-99,0.5,0,none,28,18,Woman,Right,
12,1,8,1.1009459000006245,['n'],1,right,none,-99,-99,0.5,0,none,28,18,Woman,Right,
13,1,8,0.7157209999995757,['c'],0,right,none,-99,-99,0.5,0,none,28,18,Woman,Right,
14,1,8,0.7501259999999093,['c'],0,right,none,-99,-99,0.5,0,none,28,18,Woman,Right,
15,1,8,0.9840708000001541,['n'],1,right,none,-99,-99,0.5,0,none,28,18,Woman,Right,
16,1,8,0.8512290999997276,['c'],1,left,none,-99,-99,0.5,0,none,28,18,Woman,Right,
17,1,8,0.8012792999998055,['n'],0,left,none,-99,-99,0.5,0,none,28,18,Woman,Right,
18,1,8,1.4343532000002597,['c'],0,right,none,-99,-99,0.5,0,none,28,18,Woman,Right,
19,1,8,0.9178515000003244,['c'],1,left,none,-99,-99,0.5,0,none,28,18,Woman,Right,
20,1,8,1.8171657000002597,['c'],0,right,none,-99,-99,0.5,0,none,28,18,Woman,Right,
21,1,8,0.8518334999998842,['c'],1,left,none,-99,-99,0.5,0,none,28,18,Woman,Right,
22,1,8,0.7998668999998699,['n'],0,left,none,-99,-99,0.5,0,none,28,18,Woman,Right,
23,1,8,0.3998236999996152,['n'],0,left,none,-99,-99,0.5,0,none,28,18,Woman,Right,
0,1,9,0.8996837000004234,['c'],0,right,none,-99,-99,0.5,0,none,28,18,Woman,Right,
1,1,9,0.9014987000000474,['c'],1,left,none,-99,-99,0.5,0,none,28,18,Woman,Right,
2,1,9,1.8007307999996556,['c'],0,right,none,-99,-99,0.5,0,none,28,18,Woman,Right,
3,1,9,0.6671581999999034,['c'],1,left,none,-99,-99,0.5,0,none,28,18,Woman,Right,
4,1,9,0.731948999999986,['c'],0,right,none,-99,-99,0.5,0,none,28,18,Woman,Right,
5,1,9,0.6342405999994298,['n'],1,right,none,-99,-99,0.5,0,none,28,18,Woman,Right,
6,1,9,2.467265299999781,['c'],1,left,none,-99,-99,0.5,0,none,28,18,Woman,Right,
7,1,9,1.2503104000006715,['n'],1,right,none,-99,-99,0.5,0,none,28,18,Woman,Right,
8,1,9,0.8996471999998903,['n'],1,right,none,-99,-99,0.5,0,none,28,18,Woman,Right,
9,1,9,0.8649878000005629,['c'],0,right,none,-99,-99,0.5,0,none,28,18,Woman,Right,
10,1,9,0.7520382000002428,['c'],1,left,none,-99,-99,0.5,0,none,28,18,Woman,Right,
11,1,9,0.8338950999996086,['n'],0,left,none,-99,-99,0.5,0,none,28,18,Woman,Right,
12,1,9,1.1679486000002726,['n'],1,right,none,-99,-99,0.5,0,none,28,18,Woman,Right,
13,1,9,1.9339438999995764,['n'],1,right,none,-99,-99,0.5,0,none,28,18,Woman,Right,
14,1,9,1.60103270000036,['c'],1,left,none,-99,-99,0.5,0,none,28,18,Woman,Right,
15,1,9,0.9849869999998191,['n'],0,left,none,-99,-99,0.5,0,none,28,18,Woman,Right,
16,1,9,1.0163820000007036,['n'],1,right,none,-99,-99,0.5,0,none,28,18,Woman,Right,
17,1,9,1.2671399000000747,['c'],1,left,none,-99,-99,0.5,0,none,28,18,Woman,Right,
18,1,9,2.017563600000358,['c'],1,left,none,-99,-99,0.5,0,none,28,18,Woman,Right,
19,1,9,1.5012300999997024,['c'],1,left,none,-99,-99,0.5,0,none,28,18,Woman,Right,
20,1,9,0.9178031000001283,['n'],1,right,none,-99,-99,0.5,0,none,28,18,Woman,Right,
21,1,9,0.8991364000003159,['c'],0,right,none,-99,-99,0.5,0,none,28,18,Woman,Right,
22,1,9,1.1171943999997893,['c'],1,left,none,-99,-99,0.5,0,none,28,18,Woman,Right,
23,1,9,1.0672398999995494,['c'],1,left,none,-99,-99,0.5,0,none,28,18,Woman,Right,
0,1,10,0.6187981999992189,['c'],1,left,none,-99,-99,0.5,0,none,28,18,Woman,Right,
1,1,10,0.6323767999992924,['n'],0,left,none,-99,-99,0.5,0,none,28,18,Woman,Right,
2,1,10,0.9507008000000496,['c'],1,left,none,-99,-99,0.5,0,none,28,18,Woman,Right,
3,1,10,0.9152336999995896,['n'],1,right,none,-99,-99,0.5,0,none,28,18,Woman,Right,
4,1,10,0.685295600000245,['c'],1,left,none,-99,-99,0.5,0,none,28,18,Woman,Right,
5,1,10,0.8338480000002164,['n'],0,left,none,-99,-99,0.5,0,none,28,18,Woman,Right,
6,1,10,0.9178314000000682,['n'],1,right,none,-99,-99,0.5,0,none,28,18,Woman,Right,
7,1,10,0.9667411999998876,['c'],0,right,none,-99,-99,0.5,0,none,28,18,Woman,Right,
8,1,10,0.7507599000000482,['c'],1,left,none,-99,-99,0.5,0,none,28,18,Woman,Right,
9,1,10,0.7177045999997063,['n'],0,left,none,-99,-99,0.5,0,none,28,18,Woman,Right,
10,1,10,0.7686321999999564,['n'],1,right,none,-99,-99,0.5,0,none,28,18,Woman,Right,
11,1,10,0.9669698999996399,['n'],1,right,none,-99,-99,0.5,0,none,28,18,Woman,Right,
12,1,10,1.1010506999991776,['n'],1,right,none,-99,-99,0.5,0,none,28,18,Woman,Right,
13,1,10,0.6841115000006539,['n'],0,left,none,-99,-99,0.5,0,none,28,18,Woman,Right,
14,1,10,0.5493963999997504,['c'],0,right,none,-99,-99,0.5,0,none,28,18,Woman,Right,
15,1,10,0.9997576999994635,['n'],1,right,none,-99,-99,0.5,0,none,28,18,Woman,Right,
16,1,10,0.9660745999999563,['c'],0,right,none,-99,-99,0.5,0,none,28,18,Woman,Right,
17,1,10,0.8179066000002422,['c'],1,left,none,-99,-99,0.5,0,none,28,18,Woman,Right,
18,1,10,1.0015243999996528,['n'],0,left,none,-99,-99,0.5,0,none,28,18,Woman,Right,
19,1,10,0.8163003999998182,['n'],1,right,none,-99,-99,0.5,0,none,28,18,Woman,Right,
20,1,10,1.365856999999778,['n'],1,right,none,-99,-99,0.5,0,none,28,18,Woman,Right,
21,1,10,0.7164882000006401,['c'],1,left,none,-99,-99,0.5,0,none,28,18,Woman,Right,
22,1,10,0.7662831999996342,['c'],1,left,none,-99,-99,0.5,0,none,28,18,Woman,Right,
23,1,10,0.800287400000343,['n'],1,right,none,-99,-99,0.5,0,none,28,18,Woman,Right,
0,1,11,0.7007145999996283,['c'],1,left,none,-99,-99,0.5,0,none,28,18,Woman,Right,
1,1,11,0.5652487999996083,['n'],1,right,none,-99,-99,0.5,0,none,28,18,Woman,Right,
2,1,11,0.5834587999997893,['c'],1,left,none,-99,-99,0.5,0,none,28,18,Woman,Right,
3,1,11,0.4839620000002469,['c'],0,right,none,-99,-99,0.5,0,none,28,18,Woman,Right,
4,1,11,0.8670066999993651,['n'],1,right,none,-99,-99,0.5,0,none,28,18,Woman,Right,
5,1,11,0.5832099999997808,['c'],1,left,none,-99,-99,0.5,0,none,28,18,Woman,Right,
6,1,11,0.6170449000001099,['c'],1,left,none,-99,-99,0.5,0,none,28,18,Woman,Right,
7,1,11,0.5006763999999748,['n'],1,right,none,-99,-99,0.5,0,none,28,18,Woman,Right,
8,1,11,0.501060999999936,['c'],1,left,none,-99,-99,0.5,0,none,28,18,Woman,Right,
9,1,11,0.5843022000008204,['c'],0,right,none,-99,-99,0.5,0,none,28,18,Woman,Right,
10,1,11,0.7170790999998644,['c'],1,left,none,-99,-99,0.5,0,none,28,18,Woman,Right,
11,1,11,0.5002946000004158,['n'],0,left,none,-99,-99,0.5,0,none,28,18,Woman,Right,
12,1,11,0.6343595999996978,['c'],1,left,none,-99,-99,0.5,0,none,28,18,Woman,Right,
13,1,11,0.5669119000003775,['c'],1,left,none,-99,-99,0.5,0,none,28,18,Woman,Right,
14,1,11,0.7505049999999756,['n'],1,right,none,-99,-99,0.5,0,none,28,18,Woman,Right,
15,1,11,0.7672939999993105,['c'],0,right,none,-99,-99,0.5,0,none,28,18,Woman,Right,
16,1,11,0.8002208999996583,['c'],0,right,none,-99,-99,0.5,0,none,28,18,Woman,Right,
17,1,11,0.6519723999999769,['c'],0,right,none,-99,-99,0.5,0,none,28,18,Woman,Right,
18,1,11,0.4659808000005796,['c'],1,left,none,-99,-99,0.5,0,none,28,18,Woman,Right,
19,1,11,0.8008975000002465,['n'],1,right,none,-99,-99,0.5,0,none,28,18,Woman,Right,
20,1,11,0.5839489999998477,['c'],1,left,none,-99,-99,0.5,0,none,28,18,Woman,Right,
21,1,11,0.7818930000003093,['c'],1,left,none,-99,-99,0.5,0,none,28,18,Woman,Right,
22,1,11,0.7340680000006614,['c'],0,right,none,-99,-99,0.5,0,none,28,18,Woman,Right,
23,1,11,0.7679674999999406,['c'],0,right,none,-99,-99,0.5,0,none,28,18,Woman,Right,
0,1,12,0.7006962999994357,['c'],1,left,none,-99,-99,0.5,0,none,28,18,Woman,Right,
1,1,12,0.7504075999995621,['n'],0,left,none,-99,-99,0.5,0,none,28,18,Woman,Right,
2,1,12,0.7002808000006553,['c'],1,left,none,-99,-99,0.5,0,none,28,18,Woman,Right,
3,1,12,0.9838788999995813,['n'],1,right,none,-99,-99,0.5,0,none,28,18,Woman,Right,
4,1,12,0.6677045000005819,['c'],0,right,none,-99,-99,0.5,0,none,28,18,Woman,Right,
5,1,12,0.9338468000005378,['c'],1,left,none,-99,-99,0.5,0,none,28,18,Woman,Right,
6,1,12,0.7503724999996848,['n'],1,right,none,-99,-99,0.5,0,none,28,18,Woman,Right,
7,1,12,0.7177474000000075,['c'],1,left,none,-99,-99,0.5,0,none,28,18,Woman,Right,
8,1,12,0.7670057999994242,['n'],1,right,none,-99,-99,0.5,0,none,28,18,Woman,Right,
9,1,12,0.6010895999997956,['c'],0,right,none,-99,-99,0.5,0,none,28,18,Woman,Right,
10,1,12,0.5672085000005609,['c'],1,left,none,-99,-99,0.5,0,none,28,18,Woman,Right,
11,1,12,0.5670258000000103,['n'],0,left,none,-99,-99,0.5,0,none,28,18,Woman,Right,
12,1,12,0.7341084999998202,['c'],1,left,none,-99,-99,0.5,0,none,28,18,Woman,Right,
13,1,12,0.5838959000002433,['n'],1,right,none,-99,-99,0.5,0,none,28,18,Woman,Right,
14,1,12,1.217139700000189,['n'],1,right,none,-99,-99,0.5,0,none,28,18,Woman,Right,
15,1,12,0.517721199999869,['c'],0,right,none,-99,-99,0.5,0,none,28,18,Woman,Right,
16,1,12,0.4993481999999858,['c'],0,right,none,-99,-99,0.5,0,none,28,18,Woman,Right,
17,1,12,0.5000083000004452,['c'],1,left,none,-99,-99,0.5,0,none,28,18,Woman,Right,
18,1,12,0.6339636000002429,['c'],1,left,none,-99,-99,0.5,0,none,28,18,Woman,Right,
19,1,12,0.35135019999961514,['n'],1,right,none,-99,-99,0.5,0,none,28,18,Woman,Right,
20,1,12,0.5684535000000324,['c'],0,right,none,-99,-99,0.5,0,none,28,18,Woman,Right,
21,1,12,0.44914560000052006,['c'],1,left,none,-99,-99,0.5,0,none,28,18,Woman,Right,
22,1,12,0.866112300000168,['n'],1,right,none,-99,-99,0.5,0,none,28,18,Woman,Right,
23,1,12,0.9005947999994532,['n'],0,left,none,-99,-99,0.5,0,none,28,18,Woman,Right,
0,1,13,0.6842748999997639,['c'],1,left,none,-99,-99,0.5,0,none,28,18,Woman,Right,
1,1,13,0.4659327999997913,['n'],1,right,none,-99,-99,0.5,0,none,28,18,Woman,Right,
2,1,13,0.9013077999998131,['n'],1,right,none,-99,-99,0.5,0,none,28,18,Woman,Right,
3,1,13,0.7343080999999074,['n'],1,right,none,-99,-99,0.5,0,none,28,18,Woman,Right,
4,1,13,0.48231050000049436,['c'],1,left,none,-99,-99,0.5,0,none,28,18,Woman,Right,
5,1,13,0.7847633999999744,['c'],1,left,none,-99,-99,0.5,0,none,28,18,Woman,Right,
6,1,13,0.6663973000004262,['n'],1,right,none,-99,-99,0.5,0,none,28,18,Woman,Right,
7,1,13,0.5999045999997179,['n'],1,right,none,-99,-99,0.5,0,none,28,18,Woman,Right,
8,1,13,0.5833530999998402,['n'],1,right,none,-99,-99,0.5,0,none,28,18,Woman,Right,
9,1,13,0.5332871000000523,['c'],0,right,none,-99,-99,0.5,0,none,28,18,Woman,Right,
10,1,13,0.6679344000003766,['c'],0,right,none,-99,-99,0.5,0,none,28,18,Woman,Right,
11,1,13,0.4179455000003145,['c'],1,left,none,-99,-99,0.5,0,none,28,18,Woman,Right,
12,1,13,0.6163912000001801,['c'],1,left,none,-99,-99,0.5,0,none,28,18,Woman,Right,
13,1,13,0.8508896000003006,['n'],0,left,none,-99,-99,0.5,0,none,28,18,Woman,Right,
14,1,13,0.6483723999999711,['c'],1,left,none,-99,-99,0.5,0,none,28,18,Woman,Right,
15,1,13,0.5672209999993356,['c'],1,left,none,-99,-99,0.5,0,none,28,18,Woman,Right,
16,1,13,0.5492527999995218,['n'],1,right,none,-99,-99,0.5,0,none,28,18,Woman,Right,
17,1,13,0.6341722000006484,['c'],1,left,none,-99,-99,0.5,0,none,28,18,Woman,Right,
18,1,13,0.533844699999463,['n'],1,right,none,-99,-99,0.5,0,none,28,18,Woman,Right,
19,1,13,0.7997802999998385,['n'],1,right,none,-99,-99,0.5,0,none,28,18,Woman,Right,
20,1,13,0.5342197999998461,['c'],1,left,none,-99,-99,0.5,0,none,28,18,Woman,Right,
21,1,13,1.0345741999999518,['n'],0,left,none,-99,-99,0.5,0,none,28,18,Woman,Right,
22,1,13,0.5014374000002135,['c'],1,left,none,-99,-99,0.5,0,none,28,18,Woman,Right,
23,1,13,0.534572799999296,['n'],1,right,none,-99,-99,0.5,0,none,28,18,Woman,Right,
0,1,14,0.701006000000234,['c'],0,right,none,-99,-99,0.5,0,none,28,18,Woman,Right,
1,1,14,0.8834304000001794,['c'],0,right,none,-99,-99,0.5,0,none,28,18,Woman,Right,
2,1,14,0.4678334000000177,['c'],1,left,none,-99,-99,0.5,0,none,28,18,Woman,Right,
3,1,14,0.5332052999992811,['c'],1,left,none,-99,-99,0.5,0,none,28,18,Woman,Right,
4,1,14,0.7180189999999129,['n'],1,right,none,-99,-99,0.5,0,none,28,18,Woman,Right,
5,1,14,0.5663003999998182,['c'],1,left,none,-99,-99,0.5,0,none,28,18,Woman,Right,
6,1,14,0.8167237000006935,['n'],1,right,none,-99,-99,0.5,0,none,28,18,Woman,Right,
7,1,14,0.43367339999986143,['c'],1,left,none,-99,-99,0.5,0,none,28,18,Woman,Right,
8,1,14,0.5337978999996267,['c'],1,left,none,-99,-99,0.5,0,none,28,18,Woman,Right,
9,1,14,0.5678597999994963,['c'],1,left,none,-99,-99,0.5,0,none,28,18,Woman,Right,
10,1,14,0.48313690000031784,['n'],1,right,none,-99,-99,0.5,0,none,28,18,Woman,Right,
11,1,14,0.40081739999914134,['c'],0,right,none,-99,-99,0.5,0,none,28,18,Woman,Right,
12,1,14,0.4857644000003347,['c'],1,left,none,-99,-99,0.5,0,none,28,18,Woman,Right,
13,1,14,0.43419379999977536,['c'],1,left,none,-99,-99,0.5,0,none,28,18,Woman,Right,
14,1,14,0.5172333999998955,['c'],1,left,none,-99,-99,0.5,0,none,28,18,Woman,Right,
15,1,14,0.38315830000010465,['n'],1,right,none,-99,-99,0.5,0,none,28,18,Woman,Right,
16,1,14,0.46804359999987355,['c'],1,left,none,-99,-99,0.5,0,none,28,18,Woman,Right,
17,1,14,0.3822903000000224,['n'],1,right,none,-99,-99,0.5,0,none,28,18,Woman,Right,
18,1,14,0.38433139999960986,['c'],1,left,none,-99,-99,0.5,0,none,28,18,Woman,Right,
19,1,14,0.500528800000211,['c'],1,left,none,-99,-99,0.5,0,none,28,18,Woman,Right,
20,1,14,0.4331593000006251,['n'],1,right,none,-99,-99,0.5,0,none,28,18,Woman,Right,
21,1,14,0.4847076999994897,['n'],1,right,none,-99,-99,0.5,0,none,28,18,Woman,Right,
22,1,14,0.517244199999368,['c'],0,right,none,-99,-99,0.5,0,none,28,18,Woman,Right,
23,1,14,0.6514127999998891,['c'],0,right,none,-99,-99,0.5,0,none,28,18,Woman,Right,
0,1,15,0.5345411000007516,['c'],0,right,none,-99,-99,0.5,0,none,28,18,Woman,Right,
1,1,15,0.6832207000006747,['n'],1,right,none,-99,-99,0.5,0,none,28,18,Woman,Right,
2,1,15,0.4172016000002259,['c'],0,right,none,-99,-99,0.5,0,none,28,18,Woman,Right,
3,1,15,0.41793719999986934,['c'],1,left,none,-99,-99,0.5,0,none,28,18,Woman,Right,
4,1,15,0.7003088000001298,['n'],0,left,none,-99,-99,0.5,0,none,28,18,Woman,Right,
5,1,15,0.5008577999997215,['c'],1,left,none,-99,-99,0.5,0,none,28,18,Woman,Right,
6,1,15,1.3504357000001619,['c'],0,right,none,-99,-99,0.5,0,none,28,18,Woman,Right,
7,1,15,0.5172389999997904,['c'],1,left,none,-99,-99,0.5,0,none,28,18,Woman,Right,
8,1,15,0.5511088000002928,['n'],1,right,none,-99,-99,0.5,0,none,28,18,Woman,Right,
9,1,15,0.4332302000002528,['c'],1,left,none,-99,-99,0.5,0,none,28,18,Woman,Right,
10,1,15,0.4506050999998479,['c'],1,left,none,-99,-99,0.5,0,none,28,18,Woman,Right,
11,1,15,0.5672420000000784,['c'],1,left,none,-99,-99,0.5,0,none,28,18,Woman,Right,
12,1,15,0.6507450999997673,['c'],1,left,none,-99,-99,0.5,0,none,28,18,Woman,Right,
13,1,15,0.6009324000006018,['c'],1,left,none,-99,-99,0.5,0,none,28,18,Woman,Right,
14,1,15,0.602046999999402,['c'],1,left,none,-99,-99,0.5,0,none,28,18,Woman,Right,
15,1,15,0.4332002000001012,['n'],1,right,none,-99,-99,0.5,0,none,28,18,Woman,Right,
16,1,15,0.399876100000256,['c'],0,right,none,-99,-99,0.5,0,none,28,18,Woman,Right,
17,1,15,0.40015390000007756,['c'],1,left,none,-99,-99,0.5,0,none,28,18,Woman,Right,
18,1,15,0.3838439000001017,['n'],1,right,none,-99,-99,0.5,0,none,28,18,Woman,Right,
19,1,15,0.4508028000000195,['c'],0,right,none,-99,-99,0.5,0,none,28,18,Woman,Right,
20,1,15,0.5003684000002977,['n'],1,right,none,-99,-99,0.5,0,none,28,18,Woman,Right,
21,1,15,0.4171526999998605,['c'],1,left,none,-99,-99,0.5,0,none,28,18,Woman,Right,
22,1,15,0.43404539999937697,['n'],1,right,none,-99,-99,0.5,0,none,28,18,Woman,Right,
23,1,15,0.334100899999612,['n'],1,right,none,-99,-99,0.5,0,none,28,18,Woman,Right,
0,1,16,0.5848392999996577,['c'],1,left,none,-99,-99,0.5,0,none,28,18,Woman,Right,
1,1,16,0.6505083000001832,['n'],0,left,none,-99,-99,0.5,0,none,28,18,Woman,Right,
2,1,16,0.433973899999728,['c'],0,right,none,-99,-99,0.5,0,none,28,18,Woman,Right,
3,1,16,0.5849674999999479,['n'],1,right,none,-99,-99,0.5,0,none,28,18,Woman,Right,
4,1,16,0.6839178999998694,['n'],1,right,none,-99,-99,0.5,0,none,28,18,Woman,Right,
5,1,16,0.49979459999940445,['n'],1,right,none,-99,-99,0.5,0,none,28,18,Woman,Right,
6,1,16,0.5508429999999862,['n'],1,right,none,-99,-99,0.5,0,none,28,18,Woman,Right,
7,1,16,0.4844479000003048,['c'],0,right,none,-99,-99,0.5,0,none,28,18,Woman,Right,
8,1,16,0.48475239999970654,['c'],0,right,none,-99,-99,0.5,0,none,28,18,Woman,Right,
9,1,16,0.4669534000004205,['c'],1,left,none,-99,-99,0.5,0,none,28,18,Woman,Right,
10,1,16,0.5012938999998369,['c'],1,left,none,-99,-99,0.5,0,none,28,18,Woman,Right,
11,1,16,0.6349619000002349,['c'],1,left,none,-99,-99,0.5,0,none,28,18,Woman,Right,
12,1,16,0.6170708999998169,['c'],1,left,none,-99,-99,0.5,0,none,28,18,Woman,Right,
13,1,16,0.983151700000235,['n'],1,right,none,-99,-99,0.5,0,none,28,18,Woman,Right,
14,1,16,0.49961439999970025,['n'],1,right,none,-99,-99,0.5,0,none,28,18,Woman,Right,
15,1,16,0.4173562000005404,['c'],1,left,none,-99,-99,0.5,0,none,28,18,Woman,Right,
16,1,16,0.5660168000003978,['c'],0,right,none,-99,-99,0.5,0,none,28,18,Woman,Right,
17,1,16,0.4176274999999805,['c'],1,left,none,-99,-99,0.5,0,none,28,18,Woman,Right,
18,1,16,0.28348360000018147,['n'],0,left,none,-99,-99,0.5,0,none,28,18,Woman,Right,
19,1,16,0.4169412999999622,['c'],1,left,none,-99,-99,0.5,0,none,28,18,Woman,Right,
20,1,16,0.43511430000035034,['c'],0,right,none,-99,-99,0.5,0,none,28,18,Woman,Right,
21,1,16,0.8678162000005614,['c'],0,right,none,-99,-99,0.5,0,none,28,18,Woman,Right,
22,1,16,0.6014184000005116,['c'],1,left,none,-99,-99,0.5,0,none,28,18,Woman,Right,
23,1,16,0.5672037000003911,['c'],1,left,none,-99,-99,0.5,0,none,28,18,Woman,Right,
0,1,17,1.0015655000006518,['n'],1,right,none,-99,-99,0.5,0,none,28,18,Woman,Right,
1,1,17,0.5667731000003187,['c'],1,left,none,-99,-99,0.5,0,none,28,18,Woman,Right,
2,1,17,1.0841341999994256,['n'],1,right,none,-99,-99,0.5,0,none,28,18,Woman,Right,
3,1,17,0.5019970999992438,['c'],1,left,none,-99,-99,0.5,0,none,28,18,Woman,Right,
4,1,17,0.6673538000004555,['n'],1,right,none,-99,-99,0.5,0,none,28,18,Woman,Right,
5,1,17,0.5177118000001428,['c'],1,left,none,-99,-99,0.5,0,none,28,18,Woman,Right,
6,1,17,0.7340635999998995,['c'],1,left,none,-99,-99,0.5,0,none,28,18,Woman,Right,
7,1,17,0.9676545000002079,['n'],1,right,none,-99,-99,0.5,0,none,28,18,Woman,Right,
8,1,17,0.7159771000006003,['c'],1,left,none,-99,-99,0.5,0,none,28,18,Woman,Right,
9,1,17,1.1339061999997284,['n'],0,left,none,-99,-99,0.5,0,none,28,18,Woman,Right,
10,1,17,0.7336981000007654,['n'],0,left,none,-99,-99,0.5,0,none,28,18,Woman,Right,
11,1,17,0.9345598999998401,['n'],1,right,none,-99,-99,0.5,0,none,28,18,Woman,Right,
12,1,17,0.9340889000004609,['n'],1,right,none,-99,-99,0.5,0,none,28,18,Woman,Right,
13,1,17,1.150561899999957,['n'],1,right,none,-99,-99,0.5,0,none,28,18,Woman,Right,
14,1,17,0.9332022999997207,['n'],1,right,none,-99,-99,0.5,0,none,28,18,Woman,Right,
15,1,17,1.0504085000002306,['c'],1,left,none,-99,-99,0.5,0,none,28,18,Woman,Right,
16,1,17,0.8829031999994186,['n'],1,right,none,-99,-99,0.5,0,none,28,18,Woman,Right,
17,1,17,0.8659358000004431,['c'],1,left,none,-99,-99,0.5,0,none,28,18,Woman,Right,
18,1,17,0.7506538999996337,['n'],1,right,none,-99,-99,0.5,0,none,28,18,Woman,Right,
19,1,17,0.8670344000001933,['c'],0,right,none,-99,-99,0.5,0,none,28,18,Woman,Right,
20,1,17,0.9172981000001528,['n'],0,left,none,-99,-99,0.5,0,none,28,18,Woman,Right,
21,1,17,0.6673773000002257,['n'],1,right,none,-99,-99,0.5,0,none,28,18,Woman,Right,
22,1,17,0.6841804999994565,['c'],1,left,none,-99,-99,0.5,0,none,28,18,Woman,Right,
23,1,17,0.6185226999996303,['c'],1,left,none,-99,-99,0.5,0,none,28,18,Woman,Right,
0,1,18,0.8520312000000558,['n'],1,right,none,-99,-99,0.5,0,none,28,18,Woman,Right,
1,1,18,0.6337565000003451,['c'],0,right,none,-99,-99,0.5,0,none,28,18,Woman,Right,
2,1,18,0.6996081999996022,['c'],1,left,none,-99,-99,0.5,0,none,28,18,Woman,Right,
3,1,18,0.7345019999993383,['c'],1,left,none,-99,-99,0.5,0,none,28,18,Woman,Right,
4,1,18,0.6507138000006307,['n'],0,left,none,-99,-99,0.5,0,none,28,18,Woman,Right,
5,1,18,0.7674302999994325,['n'],1,right,none,-99,-99,0.5,0,none,28,18,Woman,Right,
6,1,18,0.7850608999997348,['n'],1,right,none,-99,-99,0.5,0,none,28,18,Woman,Right,
7,1,18,0.599517200000264,['c'],1,left,none,-99,-99,0.5,0,none,28,18,Woman,Right,
8,1,18,1.1493647999996028,['c'],1,left,none,-99,-99,0.5,0,none,28,18,Woman,Right,
9,1,18,0.5340652000004411,['n'],1,right,none,-99,-99,0.5,0,none,28,18,Woman,Right,
10,1,18,0.8839247999994768,['n'],0,left,none,-99,-99,0.5,0,none,28,18,Woman,Right,
11,1,18,0.6672334000004412,['c'],1,left,none,-99,-99,0.5,0,none,28,18,Woman,Right,
12,1,18,0.899145899999894,['c'],1,left,none,-99,-99,0.5,0,none,28,18,Woman,Right,
13,1,18,0.5846094999997149,['c'],0,right,none,-99,-99,0.5,0,none,28,18,Woman,Right,
14,1,18,0.9672132000005149,['n'],1,right,none,-99,-99,0.5,0,none,28,18,Woman,Right,
15,1,18,0.6017985999997109,['c'],1,left,none,-99,-99,0.5,0,none,28,18,Woman,Right,
16,1,18,0.7003608999993958,['n'],1,right,none,-99,-99,0.5,0,none,28,18,Woman,Right,
17,1,18,0.6503015999996933,['c'],1,left,none,-99,-99,0.5,0,none,28,18,Woman,Right,
18,1,18,0.45142590000068594,['n'],1,right,none,-99,-99,0.5,0,none,28,18,Woman,Right,
19,1,18,0.5340932999997676,['c'],1,left,none,-99,-99,0.5,0,none,28,18,Woman,Right,
20,1,18,0.7007170999995651,['n'],1,right,none,-99,-99,0.5,0,none,28,18,Woman,Right,
21,1,18,0.7514048999992156,['c'],0,right,none,-99,-99,0.5,0,none,28,18,Woman,Right,
22,1,18,0.784187600000223,['n'],1,right,none,-99,-99,0.5,0,none,28,18,Woman,Right,
23,1,18,0.5836956999992253,['c'],1,left,none,-99,-99,0.5,0,none,28,18,Woman,Right,
0,1,19,0.9017992999997659,['c'],1,left,none,-99,-99,0.5,0,none,28,18,Woman,Right,
1,1,19,0.7671821000003547,['n'],0,left,none,-99,-99,0.5,0,none,28,18,Woman,Right,
2,1,19,0.5831339000005755,['c'],0,right,none,-99,-99,0.5,0,none,28,18,Woman,Right,
3,1,19,0.4678812000001926,['c'],0,right,none,-99,-99,0.5,0,none,28,18,Woman,Right,
4,1,19,1.1180303999999524,['c'],0,right,none,-99,-99,0.5,0,none,28,18,Woman,Right,
5,1,19,0.5833173999999417,['n'],1,right,none,-99,-99,0.5,0,none,28,18,Woman,Right,
6,1,19,0.5179654000003211,['c'],1,left,none,-99,-99,0.5,0,none,28,18,Woman,Right,
7,1,19,0.5501125000000684,['n'],1,right,none,-99,-99,0.5,0,none,28,18,Woman,Right,
8,1,19,0.5671071999995547,['n'],1,right,none,-99,-99,0.5,0,none,28,18,Woman,Right,
9,1,19,0.7680571999999302,['c'],1,left,none,-99,-99,0.5,0,none,28,18,Woman,Right,
10,1,19,0.41752269999960845,['c'],0,right,none,-99,-99,0.5,0,none,28,18,Woman,Right,
11,1,19,0.5331090000008771,['c'],1,left,none,-99,-99,0.5,0,none,28,18,Woman,Right,
12,1,19,0.6337318000005325,['c'],0,right,none,-99,-99,0.5,0,none,28,18,Woman,Right,
13,1,19,0.6174036000002161,['c'],1,left,none,-99,-99,0.5,0,none,28,18,Woman,Right,
14,1,19,0.6324873000003208,['c'],1,left,none,-99,-99,0.5,0,none,28,18,Woman,Right,
15,1,19,0.6677246999997806,['n'],1,right,none,-99,-99,0.5,0,none,28,18,Woman,Right,
16,1,19,0.5014711000003444,['c'],1,left,none,-99,-99,0.5,0,none,28,18,Woman,Right,
17,1,19,0.8175233000001754,['c'],1,left,none,-99,-99,0.5,0,none,28,18,Woman,Right,
18,1,19,0.6676511999994545,['c'],1,left,none,-99,-99,0.5,0,none,28,18,Woman,Right,
19,1,19,0.817837800000234,['n'],1,right,none,-99,-99,0.5,0,none,28,18,Woman,Right,
20,1,19,0.7344318999994357,['c'],0,right,none,-99,-99,0.5,0,none,28,18,Woman,Right,
21,1,19,0.6838220999998157,['n'],1,right,none,-99,-99,0.5,0,none,28,18,Woman,Right,
22,1,19,0.6993836000001465,['c'],1,left,none,-99,-99,0.5,0,none,28,18,Woman,Right,
23,1,19,0.7999163000004046,['n'],0,left,none,-99,-99,0.5,0,none,28,18,Woman,Right,
0,1,20,0.6182005999999092,['c'],1,left,none,-99,-99,0.5,0,none,28,18,Woman,Right,
1,1,20,0.5504575000004479,['c'],1,left,none,-99,-99,0.5,0,none,28,18,Woman,Right,
2,1,20,0.4836822999996002,['n'],1,right,none,-99,-99,0.5,0,none,28,18,Woman,Right,
3,1,20,0.6333267999998498,['n'],1,right,none,-99,-99,0.5,0,none,28,18,Woman,Right,
4,1,20,0.6343598000003112,['c'],0,right,none,-99,-99,0.5,0,none,28,18,Woman,Right,
5,1,20,0.5159031000002869,['n'],1,right,none,-99,-99,0.5,0,none,28,18,Woman,Right,
6,1,20,0.6166664000002129,['c'],0,right,none,-99,-99,0.5,0,none,28,18,Woman,Right,
7,1,20,0.4669021999998222,['n'],0,left,none,-99,-99,0.5,0,none,28,18,Woman,Right,
8,1,20,0.7178385999995953,['c'],1,left,none,-99,-99,0.5,0,none,28,18,Woman,Right,
9,1,20,0.7514303999996628,['n'],1,right,none,-99,-99,0.5,0,none,28,18,Woman,Right,
10,1,20,0.6333943999998155,['c'],0,right,none,-99,-99,0.5,0,none,28,18,Woman,Right,
11,1,20,0.534535899999355,['c'],1,left,none,-99,-99,0.5,0,none,28,18,Woman,Right,
12,1,20,0.7006107999995947,['c'],1,left,none,-99,-99,0.5,0,none,28,18,Woman,Right,
13,1,20,0.4172620999997889,['n'],1,right,none,-99,-99,0.5,0,none,28,18,Woman,Right,
14,1,20,0.7673222000003079,['n'],0,left,none,-99,-99,0.5,0,none,28,18,Woman,Right,
15,1,20,0.9330809000002773,['n'],1,right,none,-99,-99,0.5,0,none,28,18,Woman,Right,
16,1,20,0.6671477999998388,['c'],0,right,none,-99,-99,0.5,0,none,28,18,Woman,Right,
17,1,20,0.5674414999994042,['c'],1,left,none,-99,-99,0.5,0,none,28,18,Woman,Right,
18,1,20,0.7674061999996411,['c'],0,right,none,-99,-99,0.5,0,none,28,18,Woman,Right,
19,1,20,0.43466129999978875,['c'],0,right,none,-99,-99,0.5,0,none,28,18,Woman,Right,
20,1,20,0.6514572000005501,['c'],1,left,none,-99,-99,0.5,0,none,28,18,Woman,Right,
21,1,20,0.5172465999994529,['c'],1,left,none,-99,-99,0.5,0,none,28,18,Woman,Right,
22,1,20,0.5672822999995333,['n'],0,left,none,-99,-99,0.5,0,none,28,18,Woman,Right,
23,1,20,0.43288549999942916,['n'],0,left,none,-99,-99,0.5,0,none,28,18,Woman,Right,
0,1,21,0.5510536000001593,['c'],0,right,none,-99,-99,0.5,0,none,28,18,Woman,Right,
1,1,21,0.6997510000001057,['c'],1,left,none,-99,-99,0.5,0,none,28,18,Woman,Right,
2,1,21,0.7172074000000066,['n'],0,left,none,-99,-99,0.5,0,none,28,18,Woman,Right,
3,1,21,0.318103899999187,['n'],1,right,none,-99,-99,0.5,0,none,28,18,Woman,Right,
4,1,21,0.3989647000007608,['c'],0,right,none,-99,-99,0.5,0,none,28,18,Woman,Right,
5,1,21,0.5847986999997374,['c'],1,left,none,-99,-99,0.5,0,none,28,18,Woman,Right,
6,1,21,0.7172416000003068,['n'],1,right,none,-99,-99,0.5,0,none,28,18,Woman,Right,
7,1,21,0.6998859000004813,['c'],0,right,none,-99,-99,0.5,0,none,28,18,Woman,Right,
8,1,21,0.5023509000002377,['c'],1,left,none,-99,-99,0.5,0,none,28,18,Woman,Right,
9,1,21,0.600529500000448,['n'],1,right,none,-99,-99,0.5,0,none,28,18,Woman,Right,
10,1,21,0.5849255000002813,['c'],1,left,none,-99,-99,0.5,0,none,28,18,Woman,Right,
11,1,21,0.6659965999997439,['c'],0,right,none,-99,-99,0.5,0,none,28,18,Woman,Right,
12,1,21,0.5502259000004415,['c'],1,left,none,-99,-99,0.5,0,none,28,18,Woman,Right,
13,1,21,0.6669323000005534,['c'],0,right,none,-99,-99,0.5,0,none,28,18,Woman,Right,
14,1,21,0.46792850000019826,['c'],0,right,none,-99,-99,0.5,0,none,28,18,Woman,Right,
15,1,21,0.6180573000001459,['n'],1,right,none,-99,-99,0.5,0,none,28,18,Woman,Right,
16,1,21,0.599065000000337,['c'],1,left,none,-99,-99,0.5,0,none,28,18,Woman,Right,
17,1,21,0.5180622999996558,['c'],1,left,none,-99,-99,0.5,0,none,28,18,Woman,Right,
18,1,21,0.48277950000010605,['n'],1,right,none,-99,-99,0.5,0,none,28,18,Woman,Right,
19,1,21,0.4686080999999831,['c'],1,left,none,-99,-99,0.5,0,none,28,18,Woman,Right,
20,1,21,0.6999496999997064,['n'],0,left,none,-99,-99,0.5,0,none,28,18,Woman,Right,
21,1,21,0.5511116999996375,['c'],1,left,none,-99,-99,0.5,0,none,28,18,Woman,Right,
22,1,21,0.7172114999993937,['c'],0,right,none,-99,-99,0.5,0,none,28,18,Woman,Right,
23,1,21,0.5338481999997384,['c'],1,left,none,-99,-99,0.5,0,none,28,18,Woman,Right,
0,1,22,0.6350282999992487,['n'],1,right,none,-99,-99,0.5,0,none,28,18,Woman,Right,
1,1,22,0.5833884000003309,['c'],0,right,none,-99,-99,0.5,0,none,28,18,Woman,Right,
2,1,22,0.433822500000133,['c'],0,right,none,-99,-99,0.5,0,none,28,18,Woman,Right,
3,1,22,0.7825571000003038,['c'],1,left,none,-99,-99,0.5,0,none,28,18,Woman,Right,
4,1,22,0.6177379999999175,['c'],1,left,none,-99,-99,0.5,0,none,28,18,Woman,Right,
5,1,22,0.7336442999994688,['n'],0,left,none,-99,-99,0.5,0,none,28,18,Woman,Right,
6,1,22,0.651603399999658,['c'],1,left,none,-99,-99,0.5,0,none,28,18,Woman,Right,
7,1,22,0.5498207000000548,['c'],1,left,none,-99,-99,0.5,0,none,28,18,Woman,Right,
8,1,22,0.6848800000007031,['n'],0,left,none,-99,-99,0.5,0,none,28,18,Woman,Right,
9,1,22,0.44830180000008113,['n'],0,left,none,-99,-99,0.5,0,none,28,18,Woman,Right,
10,1,22,0.5517896000001201,['c'],1,left,none,-99,-99,0.5,0,none,28,18,Woman,Right,
11,1,22,0.6669555999997101,['n'],1,right,none,-99,-99,0.5,0,none,28,18,Woman,Right,
12,1,22,0.7495170000001963,['n'],0,left,none,-99,-99,0.5,0,none,28,18,Woman,Right,
13,1,22,0.6495305999997072,['n'],1,right,none,-99,-99,0.5,0,none,28,18,Woman,Right,
14,1,22,0.7506618999996135,['n'],1,right,none,-99,-99,0.5,0,none,28,18,Woman,Right,
15,1,22,0.7845605000002251,['n'],1,right,none,-99,-99,0.5,0,none,28,18,Woman,Right,
16,1,22,0.46868949999952747,['c'],1,left,none,-99,-99,0.5,0,none,28,18,Woman,Right,
17,1,22,0.5334193999997296,['c'],1,left,none,-99,-99,0.5,0,none,28,18,Woman,Right,
18,1,22,0.5348911000000953,['n'],1,right,none,-99,-99,0.5,0,none,28,18,Woman,Right,
19,1,22,0.5499819000006028,['c'],0,right,none,-99,-99,0.5,0,none,28,18,Woman,Right,
20,1,22,0.433190900000227,['c'],1,left,none,-99,-99,0.5,0,none,28,18,Woman,Right,
21,1,22,0.6015176999999312,['n'],1,right,none,-99,-99,0.5,0,none,28,18,Woman,Right,
22,1,22,0.550381500000185,['n'],1,right,none,-99,-99,0.5,0,none,28,18,Woman,Right,
23,1,22,0.6845464999996693,['n'],1,right,none,-99,-99,0.5,0,none,28,18,Woman,Right,
0,1,23,0.8671382000002268,['n'],0,left,none,-99,-99,0.5,0,none,28,18,Woman,Right,
1,1,23,1.1335882999992464,['n'],1,right,none,-99,-99,0.5,0,none,28,18,Woman,Right,
2,1,23,1.0497428999997283,['n'],1,right,none,-99,-99,0.5,0,none,28,18,Woman,Right,
3,1,23,0.6842043000006015,['c'],0,right,none,-99,-99,0.5,0,none,28,18,Woman,Right,
4,1,23,0.5340454999995927,['c'],0,right,none,-99,-99,0.5,0,none,28,18,Woman,Right,
5,1,23,0.6325394999994387,['n'],1,right,none,-99,-99,0.5,0,none,28,18,Woman,Right,
6,1,23,0.5336841999996977,['c'],1,left,none,-99,-99,0.5,0,none,28,18,Woman,Right,
7,1,23,0.6171100000001388,['n'],1,right,none,-99,-99,0.5,0,none,28,18,Woman,Right,
8,1,23,0.7997926999996707,['c'],1,left,none,-99,-99,0.5,0,none,28,18,Woman,Right,
9,1,23,0.7176221999998234,['n'],0,left,none,-99,-99,0.5,0,none,28,18,Woman,Right,
10,1,23,0.5338897000001452,['c'],0,right,none,-99,-99,0.5,0,none,28,18,Woman,Right,
11,1,23,0.5340864999998303,['c'],1,left,none,-99,-99,0.5,0,none,28,18,Woman,Right,
12,1,23,0.8323264000000563,['n'],1,right,none,-99,-99,0.5,0,none,28,18,Woman,Right,
13,1,23,1.1010434999998324,['c'],1,left,none,-99,-99,0.5,0,none,28,18,Woman,Right,
14,1,23,0.7666714000006323,['c'],1,left,none,-99,-99,0.5,0,none,28,18,Woman,Right,
15,1,23,0.6010145000000193,['n'],0,left,none,-99,-99,0.5,0,none,28,18,Woman,Right,
16,1,23,0.6002302999986568,['c'],1,left,none,-99,-99,0.5,0,none,28,18,Woman,Right,
17,1,23,0.850534900000639,['n'],0,left,none,-99,-99,0.5,0,none,28,18,Woman,Right,
18,1,23,0.5337038999987271,['n'],1,right,none,-99,-99,0.5,0,none,28,18,Woman,Right,
19,1,23,0.798504000000321,['n'],1,right,none,-99,-99,0.5,0,none,28,18,Woman,Right,
20,1,23,0.9175464999989345,['n'],1,right,none,-99,-99,0.5,0,none,28,18,Woman,Right,
21,1,23,0.5839920999987953,['c'],1,left,none,-99,-99,0.5,0,none,28,18,Woman,Right,
22,1,23,0.6672313999988546,['n'],1,right,none,-99,-99,0.5,0,none,28,18,Woman,Right,
23,1,23,0.6346495999987383,['c'],1,left,none,-99,-99,0.5,0,none,28,18,Woman,Right,
0,1,24,0.9679491999995662,['c'],0,right,none,-99,-99,0.5,0,none,28,18,Woman,Right,
1,1,24,0.7663607000013144,['n'],1,right,none,-99,-99,0.5,0,none,28,18,Woman,Right,
2,1,24,0.7516273000001092,['c'],1,left,none,-99,-99,0.5,0,none,28,18,Woman,Right,
3,1,24,0.7674100999993243,['n'],1,right,none,-99,-99,0.5,0,none,28,18,Woman,Right,
4,1,24,0.6336964999991324,['c'],1,left,none,-99,-99,0.5,0,none,28,18,Woman,Right,
5,1,24,0.5512832999993407,['n'],1,right,none,-99,-99,0.5,0,none,28,18,Woman,Right,
6,1,24,0.634300899999289,['n'],1,right,none,-99,-99,0.5,0,none,28,18,Woman,Right,
7,1,24,0.5327132000002166,['c'],0,right,none,-99,-99,0.5,0,none,28,18,Woman,Right,
8,1,24,0.7174833999997645,['c'],0,right,none,-99,-99,0.5,0,none,28,18,Woman,Right,
9,1,24,0.6347471000008227,['n'],0,left,none,-99,-99,0.5,0,none,28,18,Woman,Right,
10,1,24,0.650869999999486,['n'],1,right,none,-99,-99,0.5,0,none,28,18,Woman,Right,
11,1,24,0.6006641000003583,['c'],1,left,none,-99,-99,0.5,0,none,28,18,Woman,Right,
12,1,24,0.5836192999995546,['n'],1,right,none,-99,-99,0.5,0,none,28,18,Woman,Right,
13,1,24,0.6000019999992219,['c'],1,left,none,-99,-99,0.5,0,none,28,18,Woman,Right,
14,1,24,0.7164599999996426,['n'],0,left,none,-99,-99,0.5,0,none,28,18,Woman,Right,
15,1,24,0.4824062999996386,['c'],1,left,none,-99,-99,0.5,0,none,28,18,Woman,Right,
16,1,24,0.7500569999992877,['n'],1,right,none,-99,-99,0.5,0,none,28,18,Woman,Right,
17,1,24,0.5510264999993524,['c'],1,left,none,-99,-99,0.5,0,none,28,18,Woman,Right,
18,1,24,0.6671906999999919,['n'],0,left,none,-99,-99,0.5,0,none,28,18,Woman,Right,
19,1,24,1.0177041999995708,['n'],0,left,none,-99,-99,0.5,0,none,28,18,Woman,Right,
20,1,24,0.6836920000005193,['c'],0,right,none,-99,-99,0.5,0,none,28,18,Woman,Right,
21,1,24,0.6000239000004512,['c'],1,left,none,-99,-99,0.5,0,none,28,18,Woman,Right,
22,1,24,0.6679582000015216,['c'],1,left,none,-99,-99,0.5,0,none,28,18,Woman,Right,
23,1,24,0.5830588999997417,['n'],1,right,none,-99,-99,0.5,0,none,28,18,Woman,Right,
0,1,25,0.6337389000000258,['c'],0,right,none,-99,-99,0.5,0,none,28,18,Woman,Right,
1,1,25,0.5327102999999624,['c'],1,left,none,-99,-99,0.5,0,none,28,18,Woman,Right,
2,1,25,1.117308500000945,['n'],1,right,none,-99,-99,0.5,0,none,28,18,Woman,Right,
3,1,25,0.5844828999997844,['c'],0,right,none,-99,-99,0.5,0,none,28,18,Woman,Right,
4,1,25,0.4997801999998046,['c'],0,right,none,-99,-99,0.5,0,none,28,18,Woman,Right,
5,1,25,0.5175357999996777,['c'],1,left,none,-99,-99,0.5,0,none,28,18,Woman,Right,
6,1,25,0.7189383999993879,['c'],1,left,none,-99,-99,0.5,0,none,28,18,Woman,Right,
7,1,25,0.5344413000002532,['c'],1,left,none,-99,-99,0.5,0,none,28,18,Woman,Right,
8,1,25,0.5500857000006363,['c'],1,left,none,-99,-99,0.5,0,none,28,18,Woman,Right,
9,1,25,0.5334244999994553,['c'],1,left,none,-99,-99,0.5,0,none,28,18,Woman,Right,
10,1,25,0.7495767999989766,['n'],0,left,none,-99,-99,0.5,0,none,28,18,Woman,Right,
11,1,25,0.9339737999998761,['n'],0,left,none,-99,-99,0.5,0,none,28,18,Woman,Right,
12,1,25,0.900159500000882,['n'],1,right,none,-99,-99,0.5,0,none,28,18,Woman,Right,
13,1,25,0.5673370999993494,['c'],1,left,none,-99,-99,0.5,0,none,28,18,Woman,Right,
14,1,25,0.6003125000006548,['c'],0,right,none,-99,-99,0.5,0,none,28,18,Woman,Right,
15,1,25,0.8016249000011157,['c'],0,right,none,-99,-99,0.5,0,none,28,18,Woman,Right,
16,1,25,0.9009958999995433,['c'],1,left,none,-99,-99,0.5,0,none,28,18,Woman,Right,
17,1,25,0.5001199999987875,['c'],1,left,none,-99,-99,0.5,0,none,28,18,Woman,Right,
18,1,25,0.7511845000008179,['n'],1,right,none,-99,-99,0.5,0,none,28,18,Woman,Right,
19,1,25,0.7327100999991671,['n'],1,right,none,-99,-99,0.5,0,none,28,18,Woman,Right,
20,1,25,0.6834523999987141,['n'],1,right,none,-99,-99,0.5,0,none,28,18,Woman,Right,
21,1,25,0.7501312000003963,['c'],1,left,none,-99,-99,0.5,0,none,28,18,Woman,Right,
22,1,25,0.684528699999646,['n'],1,right,none,-99,-99,0.5,0,none,28,18,Woman,Right,
23,1,25,0.5673774999995658,['c'],0,right,none,-99,-99,0.5,0,none,28,18,Woman,Right,
0,1,26,0.7329719000008481,['c'],1,left,none,-99,-99,0.5,0,none,28,18,Woman,Right,
1,1,26,0.5341155999994953,['n'],0,left,none,-99,-99,0.5,0,none,28,18,Woman,Right,
2,1,26,0.6682913999993616,['n'],1,right,none,-99,-99,0.5,0,none,28,18,Woman,Right,
3,1,26,0.4679725999994844,['c'],0,right,none,-99,-99,0.5,0,none,28,18,Woman,Right,
4,1,26,0.4171193000001949,['c'],0,right,none,-99,-99,0.5,0,none,28,18,Woman,Right,
5,1,26,0.5996601000006194,['n'],1,right,none,-99,-99,0.5,0,none,28,18,Woman,Right,
6,1,26,0.4335047999993549,['c'],1,left,none,-99,-99,0.5,0,none,28,18,Woman,Right,
7,1,26,0.7820953999998892,['n'],1,right,none,-99,-99,0.5,0,none,28,18,Woman,Right,
8,1,26,0.3325098999994225,['c'],1,left,none,-99,-99,0.5,0,none,28,18,Woman,Right,
9,1,26,0.40044590000070457,['c'],0,right,none,-99,-99,0.5,0,none,28,18,Woman,Right,
10,1,26,0.7173179000001255,['c'],0,right,none,-99,-99,0.5,0,none,28,18,Woman,Right,
11,1,26,0.749608399999488,['c'],1,left,none,-99,-99,0.5,0,none,28,18,Woman,Right,
12,1,26,0.6982029000009788,['n'],1,right,none,-99,-99,0.5,0,none,28,18,Woman,Right,
13,1,26,0.5675742000003083,['c'],1,left,none,-99,-99,0.5,0,none,28,18,Woman,Right,
14,1,26,0.5003355999997439,['c'],1,left,none,-99,-99,0.5,0,none,28,18,Woman,Right,
15,1,26,0.6014357000003656,['n'],1,right,none,-99,-99,0.5,0,none,28,18,Woman,Right,
16,1,26,0.6829462999994576,['c'],0,right,none,-99,-99,0.5,0,none,28,18,Woman,Right,
17,1,26,0.467081099999632,['c'],1,left,none,-99,-99,0.5,0,none,28,18,Woman,Right,
18,1,26,0.4680095000003348,['c'],1,left,none,-99,-99,0.5,0,none,28,18,Woman,Right,
19,1,26,0.4838165000001027,['n'],1,right,none,-99,-99,0.5,0,none,28,18,Woman,Right,
20,1,26,0.4999334000003728,['c'],1,left,none,-99,-99,0.5,0,none,28,18,Woman,Right,
21,1,26,0.6506929999995918,['c'],1,left,none,-99,-99,0.5,0,none,28,18,Woman,Right,
22,1,26,0.5672138999998424,['n'],1,right,none,-99,-99,0.5,0,none,28,18,Woman,Right,
23,1,26,0.48243100000036065,['c'],1,left,none,-99,-99,0.5,0,none,28,18,Woman,Right,
0,1,27,0.4843040999985533,['c'],1,left,none,-99,-99,0.5,0,none,28,18,Woman,Right,
1,1,27,0.6664627000009204,['n'],1,right,none,-99,-99,0.5,0,none,28,18,Woman,Right,
2,1,27,0.43206260000079055,['c'],1,left,none,-99,-99,0.5,0,none,28,18,Woman,Right,
3,1,27,0.6004675000003772,['n'],1,right,none,-99,-99,0.5,0,none,28,18,Woman,Right,
4,1,27,0.5345070999992458,['n'],1,right,none,-99,-99,0.5,0,none,28,18,Woman,Right,
5,1,27,0.46778230000018084,['c'],0,right,none,-99,-99,0.5,0,none,28,18,Woman,Right,
6,1,27,0.6857472000010603,['c'],0,right,none,-99,-99,0.5,0,none,28,18,Woman,Right,
7,1,27,0.3845557999993616,['c'],1,left,none,-99,-99,0.5,0,none,28,18,Woman,Right,
8,1,27,0.5837700000010955,['c'],0,right,none,-99,-99,0.5,0,none,28,18,Woman,Right,
9,1,27,0.5338781999998901,['c'],1,left,none,-99,-99,0.5,0,none,28,18,Woman,Right,
10,1,27,0.8495237000006455,['n'],1,right,none,-99,-99,0.5,0,none,28,18,Woman,Right,
11,1,27,0.4506106999997428,['c'],1,left,none,-99,-99,0.5,0,none,28,18,Woman,Right,
12,1,27,0.6505734000002121,['n'],1,right,none,-99,-99,0.5,0,none,28,18,Woman,Right,
13,1,27,0.4987537999986671,['c'],1,left,none,-99,-99,0.5,0,none,28,18,Woman,Right,
14,1,27,0.7487860000001092,['n'],0,left,none,-99,-99,0.5,0,none,28,18,Woman,Right,
15,1,27,0.5502517000004445,['c'],1,left,none,-99,-99,0.5,0,none,28,18,Woman,Right,
16,1,27,0.6512916999981826,['n'],1,right,none,-99,-99,0.5,0,none,28,18,Woman,Right,
17,1,27,0.45054139999956533,['c'],1,left,none,-99,-99,0.5,0,none,28,18,Woman,Right,
18,1,27,0.8660147999999026,['n'],1,right,none,-99,-99,0.5,0,none,28,18,Woman,Right,
19,1,27,0.5171155000007275,['c'],1,left,none,-99,-99,0.5,0,none,28,18,Woman,Right,
20,1,27,0.6179258000011032,['n'],1,right,none,-99,-99,0.5,0,none,28,18,Woman,Right,
21,1,27,0.5166906999984349,['c'],1,left,none,-99,-99,0.5,0,none,28,18,Woman,Right,
22,1,27,0.6671310999990965,['n'],1,right,none,-99,-99,0.5,0,none,28,18,Woman,Right,
23,1,27,0.5843005999995512,['c'],1,left,none,-99,-99,0.5,0,none,28,18,Woman,Right,
0,1,28,0.6675155000011728,['n'],1,right,none,-99,-99,0.5,0,none,28,18,Woman,Right,
1,1,28,0.6341770000017277,['n'],1,right,none,-99,-99,0.5,0,none,28,18,Woman,Right,
2,1,28,0.5841017000002466,['c'],0,right,none,-99,-99,0.5,0,none,28,18,Woman,Right,
3,1,28,0.6834177999990061,['n'],1,right,none,-99,-99,0.5,0,none,28,18,Woman,Right,
4,1,28,0.4842436999988422,['c'],1,left,none,-99,-99,0.5,0,none,28,18,Woman,Right,
5,1,28,0.4498784000006708,['c'],1,left,none,-99,-99,0.5,0,none,28,18,Woman,Right,
6,1,28,0.5340148000013869,['n'],0,left,none,-99,-99,0.5,0,none,28,18,Woman,Right,
7,1,28,0.6661880999999994,['n'],0,left,none,-99,-99,0.5,0,none,28,18,Woman,Right,
8,1,28,0.48238060000039695,['c'],1,left,none,-99,-99,0.5,0,none,28,18,Woman,Right,
9,1,28,0.46607810000023164,['n'],1,right,none,-99,-99,0.5,0,none,28,18,Woman,Right,
10,1,28,0.5157916999996814,['c'],1,left,none,-99,-99,0.5,0,none,28,18,Woman,Right,
11,1,28,0.46785479999925883,['n'],1,right,none,-99,-99,0.5,0,none,28,18,Woman,Right,
12,1,28,0.8512312000002566,['n'],0,left,none,-99,-99,0.5,0,none,28,18,Woman,Right,
13,1,28,0.5326396000000386,['n'],1,right,none,-99,-99,0.5,0,none,28,18,Woman,Right,
14,1,28,0.48393550000037067,['c'],0,right,none,-99,-99,0.5,0,none,28,18,Woman,Right,
15,1,28,0.44846809999944526,['c'],0,right,none,-99,-99,0.5,0,none,28,18,Woman,Right,
16,1,28,0.5670791000011377,['c'],1,left,none,-99,-99,0.5,0,none,28,18,Woman,Right,
17,1,28,0.3661635999997088,['c'],1,left,none,-99,-99,0.5,0,none,28,18,Woman,Right,
18,1,28,0.5006314000002021,['n'],1,right,none,-99,-99,0.5,0,none,28,18,Woman,Right,
19,1,28,0.6346914000005199,['c'],1,left,none,-99,-99,0.5,0,none,28,18,Woman,Right,
20,1,28,0.7837404000001698,['n'],0,left,none,-99,-99,0.5,0,none,28,18,Woman,Right,
21,1,28,0.4499848999985261,['c'],1,left,none,-99,-99,0.5,0,none,28,18,Woman,Right,
22,1,28,0.7819947999996657,['n'],1,right,none,-99,-99,0.5,0,none,28,18,Woman,Right,
23,1,28,0.6510006999997131,['c'],0,right,none,-99,-99,0.5,0,none,28,18,Woman,Right,
0,1,29,0.7995289000009507,['n'],1,right,none,-99,-99,0.5,0,none,28,18,Woman,Right,
1,1,29,0.8505842999984452,['c'],0,right,none,-99,-99,0.5,0,none,28,18,Woman,Right,
2,1,29,0.4688622000012401,['c'],0,right,none,-99,-99,0.5,0,none,28,18,Woman,Right,
3,1,29,0.4835385000005772,['c'],1,left,none,-99,-99,0.5,0,none,28,18,Woman,Right,
4,1,29,0.5681869000000006,['c'],1,left,none,-99,-99,0.5,0,none,28,18,Woman,Right,
5,1,29,0.9510866000000533,['c'],0,right,none,-99,-99,0.5,0,none,28,18,Woman,Right,
6,1,29,0.8664301000007981,['c'],0,right,none,-99,-99,0.5,0,none,28,18,Woman,Right,
7,1,29,0.616246499999761,['n'],0,left,none,-99,-99,0.5,0,none,28,18,Woman,Right,
8,1,29,0.5005326999998942,['c'],1,left,none,-99,-99,0.5,0,none,28,18,Woman,Right,
9,1,29,0.5160022000000026,['c'],1,left,none,-99,-99,0.5,0,none,28,18,Woman,Right,
10,1,29,0.5492842000003293,['c'],0,right,none,-99,-99,0.5,0,none,28,18,Woman,Right,
11,1,29,0.6842429999996966,['c'],1,left,none,-99,-99,0.5,0,none,28,18,Woman,Right,
12,1,29,0.7653175000014016,['n'],0,left,none,-99,-99,0.5,0,none,28,18,Woman,Right,
13,1,29,0.582875400001285,['n'],1,right,none,-99,-99,0.5,0,none,28,18,Woman,Right,
14,1,29,0.5833481999998185,['c'],0,right,none,-99,-99,0.5,0,none,28,18,Woman,Right,
15,1,29,0.5677541000004567,['c'],0,right,none,-99,-99,0.5,0,none,28,18,Woman,Right,
16,1,29,0.6176916000003985,['c'],1,left,none,-99,-99,0.5,0,none,28,18,Woman,Right,
17,1,29,0.6352117999995244,['c'],1,left,none,-99,-99,0.5,0,none,28,18,Woman,Right,
18,1,29,0.6345187999995687,['n'],1,right,none,-99,-99,0.5,0,none,28,18,Woman,Right,
19,1,29,0.6846870999997918,['n'],0,left,none,-99,-99,0.5,0,none,28,18,Woman,Right,
20,1,29,0.4652370999992854,['c'],0,right,none,-99,-99,0.5,0,none,28,18,Woman,Right,
21,1,29,1.034337900000537,['n'],1,right,none,-99,-99,0.5,0,none,28,18,Woman,Right,
22,1,29,0.7836746000011772,['n'],0,left,none,-99,-99,0.5,0,none,28,18,Woman,Right,
23,1,29,0.5164252000013221,['c'],1,left,none,-99,-99,0.5,0,none,28,18,Woman,Right,
0,1,30,0.8673420999984955,['c'],0,right,none,-99,-99,0.5,0,none,28,18,Woman,Right,
1,1,30,0.7823041999999987,['c'],1,left,none,-99,-99,0.5,0,none,28,18,Woman,Right,
2,1,30,0.516588700000284,['n'],0,left,none,-99,-99,0.5,0,none,28,18,Woman,Right,
3,1,30,0.5177088000000367,['n'],1,right,none,-99,-99,0.5,0,none,28,18,Woman,Right,
4,1,30,0.7324884999998176,['n'],1,right,none,-99,-99,0.5,0,none,28,18,Woman,Right,
5,1,30,0.59946520000085,['c'],1,left,none,-99,-99,0.5,0,none,28,18,Woman,Right,
6,1,30,0.8171407999998337,['n'],1,right,none,-99,-99,0.5,0,none,28,18,Woman,Right,
7,1,30,1.0335752999999386,['c'],0,right,none,-99,-99,0.5,0,none,28,18,Woman,Right,
8,1,30,0.6664854999999079,['c'],1,left,none,-99,-99,0.5,0,none,28,18,Woman,Right,
9,1,30,0.9002979999986565,['n'],0,left,none,-99,-99,0.5,0,none,28,18,Woman,Right,
10,1,30,0.6011906999992789,['c'],0,right,none,-99,-99,0.5,0,none,28,18,Woman,Right,
11,1,30,0.6503104999992502,['c'],1,left,none,-99,-99,0.5,0,none,28,18,Woman,Right,
12,1,30,0.6681708999985858,['n'],1,right,none,-99,-99,0.5,0,none,28,18,Woman,Right,
13,1,30,0.5501331000014034,['c'],1,left,none,-99,-99,0.5,0,none,28,18,Woman,Right,
14,1,30,0.567842099999325,['n'],1,right,none,-99,-99,0.5,0,none,28,18,Woman,Right,
15,1,30,0.48431709999931627,['c'],1,left,none,-99,-99,0.5,0,none,28,18,Woman,Right,
16,1,30,0.6002475999994203,['n'],1,right,none,-99,-99,0.5,0,none,28,18,Woman,Right,
17,1,30,0.5329966000008426,['c'],0,right,none,-99,-99,0.5,0,none,28,18,Woman,Right,
18,1,30,0.48331279999911203,['c'],0,right,none,-99,-99,0.5,0,none,28,18,Woman,Right,
19,1,30,0.4993003999989014,['c'],0,right,none,-99,-99,0.5,0,none,28,18,Woman,Right,
20,1,30,0.48435690000042086,['c'],1,left,none,-99,-99,0.5,0,none,28,18,Woman,Right,
21,1,30,0.6852214999998978,['c'],1,left,none,-99,-99,0.5,0,none,28,18,Woman,Right,
22,1,30,0.651208499999484,['n'],0,left,none,-99,-99,0.5,0,none,28,18,Woman,Right,
23,1,30,0.550209700000778,['c'],1,left,none,-99,-99,0.5,0,none,28,18,Woman,Right,
0,1,31,0.783176299999468,['n'],1,right,none,-99,-99,0.5,0,none,28,18,Woman,Right,
1,1,31,0.48519730000043637,['c'],1,left,none,-99,-99,0.5,0,none,28,18,Woman,Right,
2,1,31,0.8335088000003452,['n'],1,right,none,-99,-99,0.5,0,none,28,18,Woman,Right,
3,1,31,0.5989986999993562,['c'],0,right,none,-99,-99,0.5,0,none,28,18,Woman,Right,
4,1,31,0.7505978999997751,['c'],1,left,none,-99,-99,0.5,0,none,28,18,Woman,Right,
5,1,31,0.60018029999992,['n'],1,right,none,-99,-99,0.5,0,none,28,18,Woman,Right,
6,1,31,0.9339189000002079,['c'],1,left,none,-99,-99,0.5,0,none,28,18,Woman,Right,
7,1,31,0.6668057999995654,['n'],1,right,none,-99,-99,0.5,0,none,28,18,Woman,Right,
8,1,31,0.6499652000002243,['c'],1,left,none,-99,-99,0.5,0,none,28,18,Woman,Right,
9,1,31,0.633712499999092,['c'],0,right,none,-99,-99,0.5,0,none,28,18,Woman,Right,
10,1,31,0.634516000000076,['c'],0,right,none,-99,-99,0.5,0,none,28,18,Woman,Right,
11,1,31,0.5014983000000939,['c'],0,right,none,-99,-99,0.5,0,none,28,18,Woman,Right,
12,1,31,0.48334869999962393,['c'],1,left,none,-99,-99,0.5,0,none,28,18,Woman,Right,
13,1,31,0.6181513999999879,['n'],1,right,none,-99,-99,0.5,0,none,28,18,Woman,Right,
14,1,31,0.5177733000000444,['c'],1,left,none,-99,-99,0.5,0,none,28,18,Woman,Right,
15,1,31,0.46609429999989516,['n'],1,right,none,-99,-99,0.5,0,none,28,18,Woman,Right,
16,1,31,0.5841115000002901,['n'],1,right,none,-99,-99,0.5,0,none,28,18,Woman,Right,
17,1,31,0.565423699999883,['c'],1,left,none,-99,-99,0.5,0,none,28,18,Woman,Right,
18,1,31,0.4840886000001774,['c'],1,left,none,-99,-99,0.5,0,none,28,18,Woman,Right,
19,1,31,0.5339350000012928,['n'],0,left,none,-99,-99,0.5,0,none,28,18,Woman,Right,
20,1,31,0.49947050000082527,['c'],1,left,none,-99,-99,0.5,0,none,28,18,Woman,Right,
21,1,31,0.5338327999998,['c'],0,right,none,-99,-99,0.5,0,none,28,18,Woman,Right,
22,1,31,0.48385659999985364,['c'],1,left,none,-99,-99,0.5,0,none,28,18,Woman,Right,
23,1,31,0.3012605000003532,['n'],0,left,none,-99,-99,0.5,0,none,28,18,Woman,Right,
0,1,32,0.6165981000012835,['c'],1,left,none,-99,-99,0.5,0,none,28,18,Woman,Right,
1,1,32,0.48304429999916465,['c'],0,right,none,-99,-99,0.5,0,none,28,18,Woman,Right,
2,1,32,0.58328530000108,['c'],0,right,none,-99,-99,0.5,0,none,28,18,Woman,Right,
3,1,32,0.48562109999875247,['c'],1,left,none,-99,-99,0.5,0,none,28,18,Woman,Right,
4,1,32,0.6337093999991339,['n'],0,left,none,-99,-99,0.5,0,none,28,18,Woman,Right,
5,1,32,0.5338781999998901,['c'],1,left,none,-99,-99,0.5,0,none,28,18,Woman,Right,
6,1,32,0.6346964999993361,['n'],1,right,none,-99,-99,0.5,0,none,28,18,Woman,Right,
7,1,32,0.4827780999985407,['c'],0,right,none,-99,-99,0.5,0,none,28,18,Woman,Right,
8,1,32,0.46615010000095936,['c'],1,left,none,-99,-99,0.5,0,none,28,18,Woman,Right,
9,1,32,0.7833235999987664,['n'],0,left,none,-99,-99,0.5,0,none,28,18,Woman,Right,
10,1,32,0.8831384000004618,['n'],0,left,none,-99,-99,0.5,0,none,28,18,Woman,Right,
11,1,32,0.8350145999993401,['n'],1,right,none,-99,-99,0.5,0,none,28,18,Woman,Right,
12,1,32,0.7007039000000077,['c'],0,right,none,-99,-99,0.5,0,none,28,18,Woman,Right,
13,1,32,0.7514335999985633,['c'],1,left,none,-99,-99,0.5,0,none,28,18,Woman,Right,
14,1,32,0.549802899999122,['n'],1,right,none,-99,-99,0.5,0,none,28,18,Woman,Right,
15,1,32,0.6169750000008207,['c'],0,right,none,-99,-99,0.5,0,none,28,18,Woman,Right,
16,1,32,0.4655112000000372,['c'],1,left,none,-99,-99,0.5,0,none,28,18,Woman,Right,
17,1,32,0.850598799999716,['n'],0,left,none,-99,-99,0.5,0,none,28,18,Woman,Right,
18,1,32,0.5681249999997817,['c'],0,right,none,-99,-99,0.5,0,none,28,18,Woman,Right,
19,1,32,0.5160484000007273,['c'],1,left,none,-99,-99,0.5,0,none,28,18,Woman,Right,
20,1,32,0.5684664000000339,['n'],1,right,none,-99,-99,0.5,0,none,28,18,Woman,Right,
21,1,32,0.7171342999990884,['n'],0,left,none,-99,-99,0.5,0,none,28,18,Woman,Right,
22,1,32,1.0655084000009083,['n'],1,right,none,-99,-99,0.5,0,none,28,18,Woman,Right,
23,1,32,0.566342000000077,['c'],0,right,none,-99,-99,0.5,0,none,28,18,Woman,Right,
0,1,33,0.9679856000002474,['n'],1,right,none,-99,-99,0.5,0,none,28,18,Woman,Right,
1,1,33,0.9513784999999189,['c'],0,right,none,-99,-99,0.5,0,none,28,18,Woman,Right,
2,1,33,0.4338222999995196,['c'],1,left,none,-99,-99,0.5,0,none,28,18,Woman,Right,
3,1,33,0.46784289999959583,['c'],1,left,none,-99,-99,0.5,0,none,28,18,Woman,Right,
4,1,33,0.7515292999996745,['n'],0,left,none,-99,-99,0.5,0,none,28,18,Woman,Right,
5,1,33,0.5499964999999065,['n'],0,left,none,-99,-99,0.5,0,none,28,18,Woman,Right,
6,1,33,0.4332475000010163,['n'],1,right,none,-99,-99,0.5,0,none,28,18,Woman,Right,
7,1,33,0.4517647000011493,['c'],1,left,none,-99,-99,0.5,0,none,28,18,Woman,Right,
8,1,33,0.4686753999994835,['c'],0,right,none,-99,-99,0.5,0,none,28,18,Woman,Right,
9,1,33,0.48313339999913296,['c'],1,left,none,-99,-99,0.5,0,none,28,18,Woman,Right,
10,1,33,0.5509590000001481,['c'],1,left,none,-99,-99,0.5,0,none,28,18,Woman,Right,
11,1,33,0.5179907000001549,['n'],1,right,none,-99,-99,0.5,0,none,28,18,Woman,Right,
12,1,33,0.5005150999986654,['c'],0,right,none,-99,-99,0.5,0,none,28,18,Woman,Right,
13,1,33,0.5160730000006879,['c'],1,left,none,-99,-99,0.5,0,none,28,18,Woman,Right,
14,1,33,0.5677575999998226,['c'],1,left,none,-99,-99,0.5,0,none,28,18,Woman,Right,
15,1,33,0.568129899998894,['n'],1,right,none,-99,-99,0.5,0,none,28,18,Woman,Right,
16,1,33,0.8176450999999361,['n'],1,right,none,-99,-99,0.5,0,none,28,18,Woman,Right,
17,1,33,0.5841813000006368,['c'],1,left,none,-99,-99,0.5,0,none,28,18,Woman,Right,
18,1,33,0.6665020000000368,['n'],1,right,none,-99,-99,0.5,0,none,28,18,Woman,Right,
19,1,33,0.7672648999996454,['n'],1,right,none,-99,-99,0.5,0,none,28,18,Woman,Right,
20,1,33,1.0003267000010965,['n'],1,right,none,-99,-99,0.5,0,none,28,18,Woman,Right,
21,1,33,0.5683571000008669,['c'],0,right,none,-99,-99,0.5,0,none,28,18,Woman,Right,
22,1,33,0.4343988000000536,['c'],1,left,none,-99,-99,0.5,0,none,28,18,Woman,Right,
23,1,33,0.466241699999955,['c'],1,left,none,-99,-99,0.5,0,none,28,18,Woman,Right,
0,1,34,0.8847186000002694,['n'],1,right,none,-99,-99,0.5,0,none,28,18,Woman,Right,
1,1,34,0.5674410999999964,['c'],1,left,none,-99,-99,0.5,0,none,28,18,Woman,Right,
2,1,34,0.5331939000006969,['c'],1,left,none,-99,-99,0.5,0,none,28,18,Woman,Right,
3,1,34,0.5344901000007667,['n'],1,right,none,-99,-99,0.5,0,none,28,18,Woman,Right,
4,1,34,0.5166092999988905,['n'],1,right,none,-99,-99,0.5,0,none,28,18,Woman,Right,
5,1,34,0.4999158999999054,['c'],1,left,none,-99,-99,0.5,0,none,28,18,Woman,Right,
6,1,34,0.5171907999992982,['c'],1,left,none,-99,-99,0.5,0,none,28,18,Woman,Right,
7,1,34,0.6004698000015196,['c'],0,right,none,-99,-99,0.5,0,none,28,18,Woman,Right,
8,1,34,0.35116130000096746,['c'],1,left,none,-99,-99,0.5,0,none,28,18,Woman,Right,
9,1,34,0.4850986000001285,['n'],1,right,none,-99,-99,0.5,0,none,28,18,Woman,Right,
10,1,34,0.8826566000007006,['n'],1,right,none,-99,-99,0.5,0,none,28,18,Woman,Right,
11,1,34,0.4015285999994376,['c'],1,left,none,-99,-99,0.5,0,none,28,18,Woman,Right,
12,1,34,0.6846019000004162,['n'],1,right,none,-99,-99,0.5,0,none,28,18,Woman,Right,
13,1,34,0.4668836000000738,['c'],1,left,none,-99,-99,0.5,0,none,28,18,Woman,Right,
14,1,34,0.48260859999936656,['n'],1,right,none,-99,-99,0.5,0,none,28,18,Woman,Right,
15,1,34,0.5344021000000794,['c'],1,left,none,-99,-99,0.5,0,none,28,18,Woman,Right,
16,1,34,0.4492990999988251,['c'],0,right,none,-99,-99,0.5,0,none,28,18,Woman,Right,
17,1,34,0.5180530999987241,['c'],1,left,none,-99,-99,0.5,0,none,28,18,Woman,Right,
18,1,34,0.4174383999998099,['c'],0,right,none,-99,-99,0.5,0,none,28,18,Woman,Right,
19,1,34,0.2660801000001811,['c'],0,right,none,-99,-99,0.5,0,none,28,18,Woman,Right,
20,1,34,0.35103279999930237,['c'],0,right,none,-99,-99,0.5,0,none,28,18,Woman,Right,
21,1,34,0.3177987999988545,['c'],1,left,none,-99,-99,0.5,0,none,28,18,Woman,Right,
22,1,34,0.38268999999854714,['c'],1,left,none,-99,-99,0.5,0,none,28,18,Woman,Right,
23,1,34,0.5514767999993637,['c'],1,left,none,-99,-99,0.5,0,none,28,18,Woman,Right,
0,1,35,0.68376200000057,['n'],1,right,none,-99,-99,0.5,0,none,28,18,Woman,Right,
1,1,35,0.48202069999933883,['c'],1,left,none,-99,-99,0.5,0,none,28,18,Woman,Right,
2,1,35,0.7654920999993919,['n'],0,left,none,-99,-99,0.5,0,none,28,18,Woman,Right,
3,1,35,0.5002213000007032,['n'],1,right,none,-99,-99,0.5,0,none,28,18,Woman,Right,
4,1,35,0.533327699999063,['c'],1,left,none,-99,-99,0.5,0,none,28,18,Woman,Right,
5,1,35,0.6506045999994967,['n'],1,right,none,-99,-99,0.5,0,none,28,18,Woman,Right,
6,1,35,0.6164387999997416,['n'],1,right,none,-99,-99,0.5,0,none,28,18,Woman,Right,
7,1,35,0.3515702999993664,['c'],1,left,none,-99,-99,0.5,0,none,28,18,Woman,Right,
8,1,35,0.482492999999522,['c'],1,left,none,-99,-99,0.5,0,none,28,18,Woman,Right,
9,1,35,0.5991229999999632,['n'],1,right,none,-99,-99,0.5,0,none,28,18,Woman,Right,
10,1,35,0.5004731999997603,['c'],0,right,none,-99,-99,0.5,0,none,28,18,Woman,Right,
11,1,35,0.4180364000003465,['c'],1,left,none,-99,-99,0.5,0,none,28,18,Woman,Right,
12,1,35,0.46823159999985364,['c'],1,left,none,-99,-99,0.5,0,none,28,18,Woman,Right,
13,1,35,0.7175908999997773,['c'],1,left,none,-99,-99,0.5,0,none,28,18,Woman,Right,
14,1,35,0.6495936000010261,['c'],1,left,none,-99,-99,0.5,0,none,28,18,Woman,Right,
15,1,35,0.4169769999989512,['n'],1,right,none,-99,-99,0.5,0,none,28,18,Woman,Right,
16,1,35,0.4348368999999366,['c'],1,left,none,-99,-99,0.5,0,none,28,18,Woman,Right,
17,1,35,0.4827617000009923,['c'],1,left,none,-99,-99,0.5,0,none,28,18,Woman,Right,
18,1,35,0.4001341000002867,['n'],1,right,none,-99,-99,0.5,0,none,28,18,Woman,Right,
19,1,35,0.45011479999993753,['n'],1,right,none,-99,-99,0.5,0,none,28,18,Woman,Right,
20,1,35,0.5004449999996723,['c'],1,left,none,-99,-99,0.5,0,none,28,18,Woman,Right,
21,1,35,0.5338142000000516,['c'],0,right,none,-99,-99,0.5,0,none,28,18,Woman,Right,
22,1,35,0.6016736999990826,['c'],0,right,none,-99,-99,0.5,0,none,28,18,Woman,Right,
23,1,35,0.6010114000000613,['n'],1,right,none,-99,-99,0.5,0,none,28,18,Woman,Right,
0,1,36,0.6177745000004506,['c'],1,left,none,-99,-99,0.5,0,none,28,18,Woman,Right,
1,1,36,0.7009524999994028,['c'],1,left,none,-99,-99,0.5,0,none,28,18,Woman,Right,
2,1,36,0.7160704999987502,['n'],1,right,none,-99,-99,0.5,0,none,28,18,Woman,Right,
3,1,36,0.5829139999987092,['c'],1,left,none,-99,-99,0.5,0,none,28,18,Woman,Right,
4,1,36,0.3491441999995004,['c'],1,left,none,-99,-99,0.5,0,none,28,18,Woman,Right,
5,1,36,0.43514909999976226,['c'],0,right,none,-99,-99,0.5,0,none,28,18,Woman,Right,
6,1,36,0.3327754999991157,['c'],1,left,none,-99,-99,0.5,0,none,28,18,Woman,Right,
7,1,36,0.43544780000047467,['c'],0,right,none,-99,-99,0.5,0,none,28,18,Woman,Right,
8,1,36,0.48263240000051155,['c'],1,left,none,-99,-99,0.5,0,none,28,18,Woman,Right,
9,1,36,0.45257909999963886,['c'],1,left,none,-99,-99,0.5,0,none,28,18,Woman,Right,
10,1,36,0.7006333999997878,['n'],1,right,none,-99,-99,0.5,0,none,28,18,Woman,Right,
11,1,36,0.41803950000030454,['c'],1,left,none,-99,-99,0.5,0,none,28,18,Woman,Right,
12,1,36,0.5830026000003272,['c'],1,left,none,-99,-99,0.5,0,none,28,18,Woman,Right,
13,1,36,0.5350822000000335,['c'],1,left,none,-99,-99,0.5,0,none,28,18,Woman,Right,
14,1,36,0.3336108999992575,['n'],1,right,none,-99,-99,0.5,0,none,28,18,Woman,Right,
15,1,36,0.43311130000074627,['n'],1,right,none,-99,-99,0.5,0,none,28,18,Woman,Right,
16,1,36,0.39928730000065116,['c'],0,right,none,-99,-99,0.5,0,none,28,18,Woman,Right,
17,1,36,0.5327053000000888,['c'],1,left,none,-99,-99,0.5,0,none,28,18,Woman,Right,
18,1,36,0.4661008999992191,['c'],1,left,none,-99,-99,0.5,0,none,28,18,Woman,Right,
19,1,36,0.39958669999941776,['n'],1,right,none,-99,-99,0.5,0,none,28,18,Woman,Right,
20,1,36,0.5835236999992048,['n'],1,right,none,-99,-99,0.5,0,none,28,18,Woman,Right,
21,1,36,0.6512801999997464,['n'],1,right,none,-99,-99,0.5,0,none,28,18,Woman,Right,
22,1,36,0.49992699999893375,['c'],0,right,none,-99,-99,0.5,0,none,28,18,Woman,Right,
23,1,36,0.6327827000004618,['c'],0,right,none,-99,-99,0.5,0,none,28,18,Woman,Right,
0,1,37,0.6849175000006653,['c'],0,right,none,-99,-99,0.5,0,none,28,18,Woman,Right,
1,1,37,0.46722960000079183,['c'],1,left,none,-99,-99,0.5,0,none,28,18,Woman,Right,
2,1,37,1.0687827999990986,['n'],1,right,none,-99,-99,0.5,0,none,28,18,Woman,Right,
3,1,37,0.43435870000030263,['n'],1,right,none,-99,-99,0.5,0,none,28,18,Woman,Right,
4,1,37,0.48440800000025774,['n'],1,right,none,-99,-99,0.5,0,none,28,18,Woman,Right,
5,1,37,0.48314639999989595,['c'],1,left,none,-99,-99,0.5,0,none,28,18,Woman,Right,
6,1,37,0.6673215000009804,['n'],1,right,none,-99,-99,0.5,0,none,28,18,Woman,Right,
7,1,37,0.8672332000005554,['n'],1,right,none,-99,-99,0.5,0,none,28,18,Woman,Right,
8,1,37,0.7674342999998771,['n'],1,right,none,-99,-99,0.5,0,none,28,18,Woman,Right,
9,1,37,0.40159029999995255,['c'],0,right,none,-99,-99,0.5,0,none,28,18,Woman,Right,
10,1,37,0.7001110999990487,['c'],1,left,none,-99,-99,0.5,0,none,28,18,Woman,Right,
11,1,37,0.6176636999989569,['c'],1,left,none,-99,-99,0.5,0,none,28,18,Woman,Right,
12,1,37,0.48325629999999364,['n'],0,left,none,-99,-99,0.5,0,none,28,18,Woman,Right,
13,1,37,0.6013760000005277,['n'],0,left,none,-99,-99,0.5,0,none,28,18,Woman,Right,
14,1,37,0.7833719999998721,['n'],0,left,none,-99,-99,0.5,0,none,28,18,Woman,Right,
15,1,37,0.9832326000014291,['n'],1,right,none,-99,-99,0.5,0,none,28,18,Woman,Right,
16,1,37,0.7002539999994042,['n'],1,right,none,-99,-99,0.5,0,none,28,18,Woman,Right,
17,1,37,0.8833649999996851,['n'],0,left,none,-99,-99,0.5,0,none,28,18,Woman,Right,
18,1,37,0.6991935999994894,['n'],1,right,none,-99,-99,0.5,0,none,28,18,Woman,Right,
19,1,37,0.5187163999999029,['c'],1,left,none,-99,-99,0.5,0,none,28,18,Woman,Right,
20,1,37,0.6503136999999697,['n'],1,right,none,-99,-99,0.5,0,none,28,18,Woman,Right,
21,1,37,0.5348701999992045,['c'],1,left,none,-99,-99,0.5,0,none,28,18,Woman,Right,
22,1,37,0.5991618000007293,['c'],1,left,none,-99,-99,0.5,0,none,28,18,Woman,Right,
23,1,37,0.8348537999991095,['c'],1,left,none,-99,-99,0.5,0,none,28,18,Woman,Right,
0,1,38,0.6661843000001682,['n'],1,right,none,-99,-99,0.5,0,none,28,18,Woman,Right,
1,1,38,1.2334234999998444,['n'],0,left,none,-99,-99,0.5,0,none,28,18,Woman,Right,
2,1,38,0.48250089999964985,['c'],1,left,none,-99,-99,0.5,0,none,28,18,Woman,Right,
3,1,38,0.6339934999996331,['n'],1,right,none,-99,-99,0.5,0,none,28,18,Woman,Right,
4,1,38,0.6004209000002447,['c'],1,left,none,-99,-99,0.5,0,none,28,18,Woman,Right,
5,1,38,0.5324753000004421,['n'],0,left,none,-99,-99,0.5,0,none,28,18,Woman,Right,
6,1,38,0.5842485000011948,['c'],1,left,none,-99,-99,0.5,0,none,28,18,Woman,Right,
7,1,38,1.2516926000007516,['c'],1,left,none,-99,-99,0.5,0,none,28,18,Woman,Right,
8,1,38,0.7839526000007027,['n'],0,left,none,-99,-99,0.5,0,none,28,18,Woman,Right,
9,1,38,0.7324050999995961,['n'],1,right,none,-99,-99,0.5,0,none,28,18,Woman,Right,
10,1,38,0.7654179999990447,['n'],0,left,none,-99,-99,0.5,0,none,28,18,Woman,Right,
11,1,38,0.4840586999998777,['n'],1,right,none,-99,-99,0.5,0,none,28,18,Woman,Right,
12,1,38,0.4339394999988144,['c'],1,left,none,-99,-99,0.5,0,none,28,18,Woman,Right,
13,1,38,0.7178236999989167,['n'],1,right,none,-99,-99,0.5,0,none,28,18,Woman,Right,
14,1,38,0.8001033000000461,['n'],0,left,none,-99,-99,0.5,0,none,28,18,Woman,Right,
15,1,38,0.9494357999992644,['n'],0,left,none,-99,-99,0.5,0,none,28,18,Woman,Right,
16,1,38,0.7495192999995197,['n'],1,right,none,-99,-99,0.5,0,none,28,18,Woman,Right,
17,1,38,0.5024678999998287,['c'],0,right,none,-99,-99,0.5,0,none,28,18,Woman,Right,
18,1,38,0.6997228000000177,['c'],0,right,none,-99,-99,0.5,0,none,28,18,Woman,Right,
19,1,38,0.5004022000011901,['c'],1,left,none,-99,-99,0.5,0,none,28,18,Woman,Right,
20,1,38,0.8503104000010353,['c'],0,right,none,-99,-99,0.5,0,none,28,18,Woman,Right,
21,1,38,0.5334718000012799,['n'],1,right,none,-99,-99,0.5,0,none,28,18,Woman,Right,
22,1,38,0.6661817999993218,['n'],1,right,none,-99,-99,0.5,0,none,28,18,Woman,Right,
23,1,38,0.7320393000009062,['n'],1,right,none,-99,-99,0.5,0,none,28,18,Woman,Right,
0,1,39,0.9005811000006361,['c'],1,left,none,-99,-99,0.5,0,none,28,18,Woman,Right,
1,1,39,0.883513300001141,['c'],1,left,none,-99,-99,0.5,0,none,28,18,Woman,Right,
2,1,39,0.9173261999985698,['c'],1,left,none,-99,-99,0.5,0,none,28,18,Woman,Right,
3,1,39,0.7325989000000845,['c'],0,right,none,-99,-99,0.5,0,none,28,18,Woman,Right,
4,1,39,0.832653699999355,['c'],1,left,none,-99,-99,0.5,0,none,28,18,Woman,Right,
5,1,39,0.8336289999988367,['n'],0,left,none,-99,-99,0.5,0,none,28,18,Woman,Right,
6,1,39,0.5841071000013471,['n'],1,right,none,-99,-99,0.5,0,none,28,18,Woman,Right,
7,1,39,0.9674122000014904,['c'],1,left,none,-99,-99,0.5,0,none,28,18,Woman,Right,
8,1,39,0.6006006999996316,['n'],1,right,none,-99,-99,0.5,0,none,28,18,Woman,Right,
9,1,39,0.8678942000005918,['n'],1,right,none,-99,-99,0.5,0,none,28,18,Woman,Right,
10,1,39,0.43387089999851014,['c'],1,left,none,-99,-99,0.5,0,none,28,18,Woman,Right,
11,1,39,0.5681402999998681,['n'],1,right,none,-99,-99,0.5,0,none,28,18,Woman,Right,
12,1,39,0.5827358000005916,['c'],1,left,none,-99,-99,0.5,0,none,28,18,Woman,Right,
13,1,39,0.6845474999990984,['c'],1,left,none,-99,-99,0.5,0,none,28,18,Woman,Right,
14,1,39,0.46667210000123305,['n'],1,right,none,-99,-99,0.5,0,none,28,18,Woman,Right,
15,1,39,0.7171698000001925,['n'],1,right,none,-99,-99,0.5,0,none,28,18,Woman,Right,
16,1,39,0.5174541999986104,['c'],1,left,none,-99,-99,0.5,0,none,28,18,Woman,Right,
17,1,39,0.6658621999995376,['n'],1,right,none,-99,-99,0.5,0,none,28,18,Woman,Right,
18,1,39,0.5829094000000623,['c'],1,left,none,-99,-99,0.5,0,none,28,18,Woman,Right,
19,1,39,0.6662723000008555,['n'],1,right,none,-99,-99,0.5,0,none,28,18,Woman,Right,
20,1,39,0.7007435999985319,['n'],1,right,none,-99,-99,0.5,0,none,28,18,Woman,Right,
21,1,39,0.6324026999991474,['n'],1,right,none,-99,-99,0.5,0,none,28,18,Woman,Right,
22,1,39,0.466383399998449,['c'],1,left,none,-99,-99,0.5,0,none,28,18,Woman,Right,
23,1,39,0.7167530999995506,['n'],1,right,none,-99,-99,0.5,0,none,28,18,Woman,Right,
0,2,1,3.000434400000813,['c'],1,left,none,-99,-99,0.2,0,none,28,18,Woman,Right,
1,2,1,0.8340097999989666,['n'],1,right,none,-99,-99,0.4,0,none,28,18,Woman,Right,
2,2,1,0.7335137000009126,['n'],1,right,none,-99,-99,0.2,0,none,28,18,Woman,Right,
3,2,1,0.6343777000001865,['n'],1,right,none,-99,-99,0.1,0,none,28,18,Woman,Right,
4,2,1,0.4998539999996865,['c'],1,left,none,-99,-99,0.1,0,none,28,18,Woman,Right,
5,2,1,0.4503336000016134,['n'],1,right,none,-99,-99,0.4,0,none,28,18,Woman,Right,
6,2,1,0.6513224999998783,['n'],0,left,none,-99,-99,0.1,0,none,28,18,Woman,Right,
7,2,1,0.5683138000003964,['n'],1,right,none,-99,-99,0.4,0,none,28,18,Woman,Right,
8,2,1,0.3162126999995962,['c'],0,right,none,-99,-99,0.2,0,none,28,18,Woman,Right,
9,2,1,0.4985055999986798,['n'],0,left,none,-99,-99,0.2,0,none,28,18,Woman,Right,
10,2,1,0.6001443000004656,['n'],0,left,none,-99,-99,0.2,0,none,28,18,Woman,Right,
11,2,1,0.9327823999992688,['n'],1,right,none,-99,-99,0.1,0,none,28,18,Woman,Right,
12,2,1,0.5337479999998322,['n'],1,right,none,-99,-99,0.1,0,none,28,18,Woman,Right,
13,2,1,0.31722720000107074,['c'],0,right,none,-99,-99,0.4,0,none,28,18,Woman,Right,
14,2,1,0.3011573000003409,['c'],1,left,none,-99,-99,0.4,0,none,28,18,Woman,Right,
15,2,1,0.3989088999987871,['c'],0,right,none,-99,-99,0.1,0,none,28,18,Woman,Right,
16,2,1,0.616628400000991,['c'],1,left,none,-99,-99,0.1,0,none,28,18,Woman,Right,
17,2,1,0.4660819000000629,['n'],1,right,none,-99,-99,0.4,0,none,28,18,Woman,Right,
18,2,1,0.5504472000011447,['n'],1,right,none,-99,-99,0.2,0,none,28,18,Woman,Right,
19,2,1,0.367772600000535,['c'],1,left,none,-99,-99,0.1,0,none,28,18,Woman,Right,
20,2,1,0.6008060000003752,['n'],0,left,none,-99,-99,0.2,0,none,28,18,Woman,Right,
21,2,1,0.6162795999989612,['c'],1,left,none,-99,-99,0.4,0,none,28,18,Woman,Right,
22,2,1,0.6180640000002313,['n'],0,left,none,-99,-99,0.2,0,none,28,18,Woman,Right,
23,2,1,0.5186995999993087,['c'],1,left,none,-99,-99,0.4,0,none,28,18,Woman,Right,
0,3,1,0.7172119000006205,['n'],1,right,['8'],3,2.350497700001142,0.1,0,none,28,18,Woman,Right,
1,3,1,1.451158800000485,['n'],0,left,['9'],2,4.067700100000366,0.1,0,none,28,18,Woman,Right,
2,3,1,0.8151734000002762,['c'],1,left,['3'],4,1.9188159000004816,0.2,0,none,28,18,Woman,Right,
3,3,1,0.9660002999989956,['n'],0,left,['0'],1,3.2184819000012794,0.2,0,none,28,18,Woman,Right,
4,3,1,1.2673626000014337,['n'],0,left,['8'],3,1.3176017999994656,0.1,0,none,28,18,Woman,Right,
5,3,1,0.6321029999999155,['c'],1,left,['2'],5,0.9177144999994198,0.4,0,none,28,18,Woman,Right,
6,3,1,2.765649200000553,['n'],1,right,['8'],3,1.2020837999989453,0.1,0,none,28,18,Woman,Right,
7,3,1,1.4663571999990381,['n'],0,left,['9'],2,1.0843330000006972,0.1,0,none,28,18,Woman,Right,
8,3,1,3.3842903999993723,['c'],1,left,['3'],4,3.0344198000002507,0.4,0,none,28,18,Woman,Right,
9,3,1,1.4158788999993703,['n'],1,right,['3'],4,1.2849428999998054,0.1,0,none,28,18,Woman,Right,
10,3,1,1.6816146999990451,['n'],0,left,['3'],4,1.8504377999997814,0.2,0,none,28,18,Woman,Right,
11,3,1,1.5529041999998299,['n'],1,right,['8'],3,2.684496700001546,0.1,0,none,28,18,Woman,Right,
12,3,1,1.301014100001339,['n'],0,left,['8'],3,3.1512736000004224,0.2,0,none,28,18,Woman,Right,
13,3,1,1.4500862000004417,['n'],1,right,['8'],3,1.733836399998836,0.2,0,none,28,18,Woman,Right,
14,3,1,1.2833477000003768,['c'],1,left,['3'],4,0.9515843000008317,0.4,0,none,28,18,Woman,Right,
15,3,1,0.999293700000635,['n'],1,right,['2'],5,1.102267700000084,0.4,0,none,28,18,Woman,Right,
16,3,1,0.8005240999991656,['c'],0,right,['2'],5,1.3165728999993007,0.2,0,none,28,18,Woman,Right,
17,3,1,1.1341513999996096,['n'],0,left,['3'],4,1.168140099998709,0.4,0,none,28,18,Woman,Right,
18,3,1,2.550668300000325,['n'],1,right,['1'],6,0.6191166000007797,0.4,0,none,28,18,Woman,Right,
19,3,1,1.6506398000001354,['c'],0,right,['8'],3,1.6512637000014365,0.4,0,none,28,18,Woman,Right,
20,3,1,1.2172199999986333,['n'],0,left,['3'],4,1.65035540000099,0.2,0,none,28,18,Woman,Right,
21,3,1,0.5837231999994401,['c'],0,right,['2'],5,1.0017856000013126,0.4,0,none,28,18,Woman,Right,
22,3,1,0.9165768999991997,['c'],0,right,['3'],4,1.1005513000000064,0.1,0,none,28,18,Woman,Right,
23,3,1,1.4343088999994507,['n'],1,right,['3'],4,1.217593899998974,0.2,0,none,28,18,Woman,Right,
0,4,1,3.0512054999999236,['n'],1,right,['2'],5,2.699205000000802,0.1,0,AccAcc,28,18,Woman,Right,
1,4,1,1.7019886999987648,['n'],0,left,['3'],4,2.484651799999483,0.2,0,AccAcc,28,18,Woman,Right,
2,4,1,2.1662996000013663,['n'],0,left,['8'],3,2.4168353999993997,0.2,0,AccAcc,28,18,Woman,Right,
3,4,1,2.6176347999989957,['c'],1,left,['3'],4,1.884416400000191,0.4,0,AccAcc,28,18,Woman,Right,
4,4,1,1.3006621999993513,['c'],1,left,['2'],5,2.284659199998714,0.4,0,AccAcc,28,18,Woman,Right,
5,4,1,1.3160939999997936,['n'],0,left,['8'],3,2.917910699999993,0.1,0,AccAcc,28,18,Woman,Right,
6,4,1,0.9673858000005566,['c'],1,left,['2'],5,1.517139199999292,0.4,0,AccAcc,28,18,Woman,Right,
7,4,1,2.3512525000005553,['c'],1,left,['1'],6,1.8683126999985689,0.4,0,AccAcc,28,18,Woman,Right,
8,4,1,1.7659608000012668,['n'],0,left,['3'],4,1.5847371999989264,0.2,0,AccAcc,28,18,Woman,Right,
9,4,1,2.9003776000008656,['c'],1,left,['3'],4,2.1162070000009408,0.4,0,AccAcc,28,18,Woman,Right,
10,4,1,1.9843626000001677,['c'],0,right,['2'],5,1.3013828000002832,0.2,0,AccAcc,28,18,Woman,Right,
11,4,1,2.0340973999991547,['n'],1,right,['3'],4,2.6333721000009973,0.1,0,AccAcc,28,18,Woman,Right,
12,4,1,1.6837613000006968,['c'],0,right,['3'],4,2.3016332000006514,0.2,0,AccAcc,28,18,Woman,Right,
13,4,1,1.5826355999997759,['n'],1,right,['8'],3,3.3179540000000998,0.2,0,AccAcc,28,18,Woman,Right,
14,4,1,3.082200400000147,['n'],1,right,['9'],2,2.1682687000011356,0.1,0,AccAcc,28,18,Woman,Right,
15,4,1,1.417097699999431,['c'],0,right,['3'],4,1.9847282000009727,0.1,0,AccAcc,28,18,Woman,Right,
16,4,1,3.2653739000015776,['c'],1,left,['3'],4,2.2674535999994987,0.1,0,AccAcc,28,18,Woman,Right,
17,4,1,2.250989899999695,['c'],1,left,['9'],2,2.316856399998869,0.1,0,AccAcc,28,18,Woman,Right,
18,4,1,1.900829000000158,['c'],0,right,['3'],4,2.133351299999049,0.1,0,AccAcc,28,18,Woman,Right,
19,4,1,2.6002370000005612,['c'],1,left,['2'],5,1.6846184999994875,0.4,0,AccAcc,28,18,Woman,Right,
20,4,1,3.033015900000464,['c'],1,left,['1'],6,1.7022373999989213,0.4,0,AccAcc,28,18,Woman,Right,
21,4,1,3.8189744999999675,['n'],0,left,['8'],3,1.734721000000718,0.2,0,AccAcc,28,18,Woman,Right,
22,4,1,2.6333954999990965,['n'],1,right,['3'],4,1.2680407000007108,0.1,0,AccAcc,28,18,Woman,Right,
23,4,1,3.401234499999191,['n'],1,right,['2'],5,1.3683068999998795,0.4,0,AccAcc,28,18,Woman,Right,
24,4,1,4.050162999999884,['c'],1,left,['8'],3,2.365725099998599,0.2,0,AccAcc,28,18,Woman,Right,
25,4,1,1.4667193999994197,['n'],1,right,['2'],5,1.0338047000004735,0.4,0,AccAcc,28,18,Woman,Right,
26,4,1,2.8182587000010244,['c'],1,left,['3'],4,1.4515594000004057,0.4,0,AccAcc,28,18,Woman,Right,
27,4,1,2.800199799999973,['c'],0,right,['9'],2,1.9513770999983535,0.1,0,AccAcc,28,18,Woman,Right,
28,4,1,1.4664391000005708,['n'],1,right,['1'],6,2.4345897999992303,0.2,0,AccAcc,28,18,Woman,Right,
29,4,1,1.5335252999993827,['n'],1,right,['3'],4,2.533025099999577,0.1,0,AccAcc,28,18,Woman,Right,
30,4,1,3.5344122999995307,['c'],1,left,['0'],1,1.9179318999995303,0.1,0,AccAcc,28,18,Woman,Right,
31,4,1,2.9996900999994978,['n'],1,right,['8'],3,2.4510994000011124,0.2,0,AccAcc,28,18,Woman,Right,
32,4,1,2.883261400000265,['c'],0,right,['3'],4,1.5709905000003346,0.2,0,AccAcc,28,18,Woman,Right,
33,4,1,3.099031899999318,['c'],1,left,['8'],3,1.71898709999914,0.4,0,AccAcc,28,18,Woman,Right,
34,4,1,2.5168369000002713,['n'],1,right,['9'],2,3.2177437000009377,0.1,0,AccAcc,28,18,Woman,Right,
35,4,1,2.001157599999715,['c'],0,right,['3'],4,1.982675899998867,0.1,0,AccAcc,28,18,Woman,Right,
36,4,1,2.401087300000654,['n'],1,right,['3'],4,1.701407599999584,0.2,0,AccAcc,28,18,Woman,Right,
37,4,1,4.417507099999057,['n'],0,left,['8'],3,1.467495200000485,0.4,0,AccAcc,28,18,Woman,Right,
38,4,1,3.9335413000007975,['c'],1,left,['3'],4,1.3674198999997316,0.2,0,AccAcc,28,18,Woman,Right,
39,4,1,1.4827700999994704,['n'],1,right,['8'],3,1.9846692999999505,0.1,0,AccAcc,28,18,Woman,Right,
40,4,1,2.5157521000000997,['c'],1,left,['3'],4,2.4346007999993162,0.4,0,AccAcc,28,18,Woman,Right,
41,4,1,4.3833640000011656,['n'],1,right,['8'],3,1.352078400001119,0.1,0,AccAcc,28,18,Woman,Right,
42,4,1,2.1006518000012875,['n'],1,right,['2'],5,2.0329096999994363,0.2,0,AccAcc,28,18,Woman,Right,
43,4,1,3.4003136999999697,['c'],1,left,['3'],4,1.9663364999996702,0.4,0,AccAcc,28,18,Woman,Right,
44,4,1,1.9670514999997977,['n'],1,right,['3'],4,1.9011126000004879,0.4,0,AccAcc,28,18,Woman,Right,
45,4,1,3.565443800000139,['c'],1,left,['1'],6,1.717900699999518,0.4,0,AccAcc,28,18,Woman,Right,
46,4,1,3.933548200000587,['n'],1,right,['3'],4,1.3013872000010451,0.2,0,AccAcc,28,18,Woman,Right,
47,4,1,2.2003836999992927,['n'],1,right,['1'],6,2.0011532999997144,0.2,0,AccAcc,28,18,Woman,Right,
48,4,1,1.3000912000006792,['n'],1,right,['2'],5,1.901442099999258,0.1,0,AccAcc,28,18,Woman,Right,
49,4,1,3.2999679000004107,['n'],1,right,['8'],3,3.1499090000015713,0.1,0,AccAcc,28,18,Woman,Right,
50,4,1,1.3513378000006924,['n'],1,right,['2'],5,2.1658346000003803,0.4,0,AccAcc,28,18,Woman,Right,
51,4,1,3.2512022999999317,['c'],0,right,['3'],4,2.0999393000001874,0.4,0,AccAcc,28,18,Woman,Right,
52,4,1,3.599670999999944,['n'],0,left,['8'],3,1.868267100000594,0.2,0,AccAcc,28,18,Woman,Right,
53,4,1,3.31710159999966,['c'],1,left,['3'],4,2.1178097000010894,0.2,0,AccAcc,28,18,Woman,Right,
54,4,1,3.5337684999994963,['c'],1,left,['2'],5,4.867554899999959,0.4,0,AccAcc,28,18,Woman,Right,
55,4,1,2.0663881999989826,['n'],0,left,['8'],3,1.4344479999999749,0.1,0,AccAcc,28,18,Woman,Right,
56,4,1,2.3325313000004826,['c'],1,left,['3'],4,1.883529799999451,0.2,0,AccAcc,28,18,Woman,Right,
57,4,1,2.8165288000000146,['c'],1,left,['1'],6,1.6515918000004604,0.4,0,AccAcc,28,18,Woman,Right,
58,4,1,4.03371849999894,['n'],1,right,['3'],4,1.6328561999998783,0.1,0,AccAcc,28,18,Woman,Right,
59,4,1,4.36850670000058,['c'],1,left,['8'],3,1.8843144000002212,0.2,0,AccAcc,28,18,Woman,Right,
0,5,1,1.0011350999993738,['n'],0,left,['8'],3,2.766670499999236,0.1,0,FastAcc,28,18,Woman,Right,
1,5,1,0.5501614000004338,['c'],1,left,['3'],4,3.3018783000006806,0.4,0,FastAcc,28,18,Woman,Right,
2,5,1,0.933729599999424,['n'],1,right,['9'],2,2.6838405999988026,0.1,0,FastAcc,28,18,Woman,Right,
3,5,1,0.39928730000065116,['c'],1,left,['9'],2,3.3171920999993745,0.1,0,FastAcc,28,18,Woman,Right,
4,5,1,0.6331102000003739,['c'],0,right,['8'],3,2.5351336000003357,0.4,0,FastAcc,28,18,Woman,Right,
5,5,1,0.682664100000693,['c'],1,left,['2'],5,2.951823499999591,0.4,0,FastAcc,28,18,Woman,Right,
6,5,1,0.6504408000000694,['c'],1,left,['3'],4,2.1012382000008074,0.1,0,FastAcc,28,18,Woman,Right,
7,5,1,0.4328763000012259,['n'],0,left,['8'],3,2.685588700000153,0.2,0,FastAcc,28,18,Woman,Right,
8,5,1,1.0169506999991427,['n'],1,right,['3'],4,2.0998735000011948,0.4,0,FastAcc,28,18,Woman,Right,
9,5,1,0.602315300000555,['c'],0,right,['2'],5,2.0179910999995627,0.4,0,FastAcc,28,18,Woman,Right,
10,5,1,0.8672519000010652,['c'],1,left,['1'],6,2.3355161999988923,0.4,0,FastAcc,28,18,Woman,Right,
11,5,1,1.7664839000008214,['c'],1,left,['1'],6,4.115591699999641,0.1,0,FastAcc,28,18,Woman,Right,
12,5,1,0.7167833000003156,['n'],0,left,none,-99,-99,0.4,1,FastAcc,28,18,Woman,Right,
