withinblocktrial,block,block_repetition,rt,resp,cor,cresp,conf_press,cj,rtconf,coherence,slow_trial,manipulation,sub,age,gender,handedness,
0,1,1,3.0172136999999566,['c'],1,left,none,-99,-99,0.5,0,none,29,19,Woman,Right,
1,1,1,0.715968100000282,['n'],1,right,none,-99,-99,0.5,0,none,29,19,Woman,Right,
2,1,1,0.5841309000006731,['c'],0,right,none,-99,-99,0.5,0,none,29,19,Woman,Right,
3,1,1,3.3831381999998484,['n'],0,left,none,-99,-99,0.5,0,none,29,19,Woman,Right,
4,1,1,0.8011329000000842,['c'],1,left,none,-99,-99,0.5,0,none,29,19,Woman,Right,
5,1,1,1.0331559000005655,['n'],1,right,none,-99,-99,0.5,0,none,29,19,Woman,Right,
6,1,1,0.9678406000002724,['n'],1,right,none,-99,-99,0.5,0,none,29,19,Woman,Right,
7,1,1,4.266279100000247,['n'],0,left,none,-99,-99,0.5,0,none,29,19,Woman,Right,
8,1,1,1.2825915000003079,['c'],1,left,none,-99,-99,0.5,0,none,29,19,Woman,Right,
9,1,1,0.3345718000000488,['n'],1,right,none,-99,-99,0.5,0,none,29,19,Woman,Right,
10,1,1,0.7335882000006677,['c'],0,right,none,-99,-99,0.5,0,none,29,19,Woman,Right,
11,1,1,0.5998724000000948,['n'],0,left,none,-99,-99,0.5,0,none,29,19,Woman,Right,
12,1,1,0.43417930000032356,['c'],0,right,none,-99,-99,0.5,0,none,29,19,Woman,Right,
13,1,1,0.44933409999975993,['n'],0,left,none,-99,-99,0.5,0,none,29,19,Woman,Right,
14,1,1,1.666878899999574,['n'],0,left,none,-99,-99,0.5,0,none,29,19,Woman,Right,
15,1,1,0.6171127999996315,['c'],0,right,none,-99,-99,0.5,0,none,29,19,Woman,Right,
16,1,1,0.5676100999999107,['n'],1,right,none,-99,-99,0.5,0,none,29,19,Woman,Right,
17,1,1,0.7500558000001547,['n'],0,left,none,-99,-99,0.5,0,none,29,19,Woman,Right,
18,1,1,0.7491273000005094,['c'],0,right,none,-99,-99,0.5,0,none,29,19,Woman,Right,
19,1,1,3.4007213999993837,['n'],1,right,none,-99,-99,0.5,0,none,29,19,Woman,Right,
20,1,1,1.23325130000012,['n'],0,left,none,-99,-99,0.5,0,none,29,19,Woman,Right,
21,1,1,0.1171635000000606,['c'],1,left,none,-99,-99,0.5,0,none,29,19,Woman,Right,
22,1,1,0.5172320000001491,['c'],0,right,none,-99,-99,0.5,0,none,29,19,Woman,Right,
23,1,1,0.4497715000006792,['n'],0,left,none,-99,-99,0.5,0,none,29,19,Woman,Right,
0,1,2,0.7004184999996141,['n'],0,left,none,-99,-99,0.5,0,none,29,19,Woman,Right,
1,1,2,0.4837787999995271,['c'],0,right,none,-99,-99,0.5,0,none,29,19,Woman,Right,
2,1,2,0.5174060999997891,['n'],1,right,none,-99,-99,0.5,0,none,29,19,Woman,Right,
3,1,2,0.49907900000016525,['n'],1,right,none,-99,-99,0.5,0,none,29,19,Woman,Right,
4,1,2,0.4341380999994726,['n'],1,right,none,-99,-99,0.5,0,none,29,19,Woman,Right,
5,1,2,0.4845980000000054,['n'],0,left,none,-99,-99,0.5,0,none,29,19,Woman,Right,
6,1,2,0.41783229999964533,['c'],1,left,none,-99,-99,0.5,0,none,29,19,Woman,Right,
7,1,2,0.4835137999998551,['c'],1,left,none,-99,-99,0.5,0,none,29,19,Woman,Right,
8,1,2,0.48438850000002276,['c'],1,left,none,-99,-99,0.5,0,none,29,19,Woman,Right,
9,1,2,0.583642200000213,['n'],1,right,none,-99,-99,0.5,0,none,29,19,Woman,Right,
10,1,2,0.4667936000005284,['c'],1,left,none,-99,-99,0.5,0,none,29,19,Woman,Right,
11,1,2,0.5840986000002886,['n'],1,right,none,-99,-99,0.5,0,none,29,19,Woman,Right,
12,1,2,0.43304560000069614,['c'],0,right,none,-99,-99,0.5,0,none,29,19,Woman,Right,
13,1,2,0.4330603999997038,['n'],0,left,none,-99,-99,0.5,0,none,29,19,Woman,Right,
14,1,2,0.4842448000008517,['c'],1,left,none,-99,-99,0.5,0,none,29,19,Woman,Right,
15,1,2,0.6671354000000065,['c'],1,left,none,-99,-99,0.5,0,none,29,19,Woman,Right,
16,1,2,0.799608299999818,['n'],0,left,none,-99,-99,0.5,0,none,29,19,Woman,Right,
17,1,2,0.5508068999997704,['c'],0,right,none,-99,-99,0.5,0,none,29,19,Woman,Right,
18,1,2,0.21739919999981794,['n'],1,right,none,-99,-99,0.5,0,none,29,19,Woman,Right,
19,1,2,0.5666707000000315,['n'],1,right,none,-99,-99,0.5,0,none,29,19,Woman,Right,
20,1,2,0.650206000000253,['n'],0,left,none,-99,-99,0.5,0,none,29,19,Woman,Right,
21,1,2,0.5506646000003457,['c'],1,left,none,-99,-99,0.5,0,none,29,19,Woman,Right,
22,1,2,0.5178310999999667,['c'],0,right,none,-99,-99,0.5,0,none,29,19,Woman,Right,
23,1,2,0.5326657000005071,['n'],1,right,none,-99,-99,0.5,0,none,29,19,Woman,Right,
0,1,3,0.5832092999999077,['n'],0,left,none,-99,-99,0.5,0,none,29,19,Woman,Right,
1,1,3,0.38365650000014284,['c'],1,left,none,-99,-99,0.5,0,none,29,19,Woman,Right,
2,1,3,0.4176904000005379,['c'],1,left,none,-99,-99,0.5,0,none,29,19,Woman,Right,
3,1,3,0.4675545999998576,['c'],0,right,none,-99,-99,0.5,0,none,29,19,Woman,Right,
4,1,3,0.3325654000000213,['n'],1,right,none,-99,-99,0.5,0,none,29,19,Woman,Right,
5,1,3,0.43444150000050286,['n'],1,right,none,-99,-99,0.5,0,none,29,19,Woman,Right,
6,1,3,0.48364959999980783,['n'],0,left,none,-99,-99,0.5,0,none,29,19,Woman,Right,
7,1,3,0.9005750999995144,['n'],1,right,none,-99,-99,0.5,0,none,29,19,Woman,Right,
8,1,3,0.7003245000005336,['c'],0,right,none,-99,-99,0.5,0,none,29,19,Woman,Right,
9,1,3,0.684118799999851,['c'],0,right,none,-99,-99,0.5,0,none,29,19,Woman,Right,
10,1,3,0.46721749999960593,['n'],1,right,none,-99,-99,0.5,0,none,29,19,Woman,Right,
11,1,3,0.400671099999272,['c'],1,left,none,-99,-99,0.5,0,none,29,19,Woman,Right,
12,1,3,0.416994700000032,['n'],1,right,none,-99,-99,0.5,0,none,29,19,Woman,Right,
13,1,3,0.5166686000002301,['c'],1,left,none,-99,-99,0.5,0,none,29,19,Woman,Right,
14,1,3,0.46708119999948394,['n'],0,left,none,-99,-99,0.5,0,none,29,19,Woman,Right,
15,1,3,0.9170578000002934,['n'],0,left,none,-99,-99,0.5,0,none,29,19,Woman,Right,
16,1,3,0.3664781999996194,['c'],0,right,none,-99,-99,0.5,0,none,29,19,Woman,Right,
17,1,3,0.35089460000017425,['n'],1,right,none,-99,-99,0.5,0,none,29,19,Woman,Right,
18,1,3,0.36784570000054373,['c'],1,left,none,-99,-99,0.5,0,none,29,19,Woman,Right,
19,1,3,0.4511603999999352,['c'],1,left,none,-99,-99,0.5,0,none,29,19,Woman,Right,
20,1,3,0.40137249999952473,['n'],1,right,none,-99,-99,0.5,0,none,29,19,Woman,Right,
21,1,3,0.5158062000000427,['c'],0,right,none,-99,-99,0.5,0,none,29,19,Woman,Right,
22,1,3,0.5339844000000085,['c'],1,left,none,-99,-99,0.5,0,none,29,19,Woman,Right,
23,1,3,0.5832245000001421,['n'],0,left,none,-99,-99,0.5,0,none,29,19,Woman,Right,
0,1,4,0.6335390000003827,['c'],1,left,none,-99,-99,0.5,0,none,29,19,Woman,Right,
1,1,4,0.35122120000050927,['n'],0,left,none,-99,-99,0.5,0,none,29,19,Woman,Right,
2,1,4,0.5005622999997286,['c'],0,right,none,-99,-99,0.5,0,none,29,19,Woman,Right,
3,1,4,0.500272600000244,['n'],1,right,none,-99,-99,0.5,0,none,29,19,Woman,Right,
4,1,4,0.5003639999995357,['n'],1,right,none,-99,-99,0.5,0,none,29,19,Woman,Right,
5,1,4,0.6169309000006251,['c'],1,left,none,-99,-99,0.5,0,none,29,19,Woman,Right,
6,1,4,1.2164455000001908,['n'],0,left,none,-99,-99,0.5,0,none,29,19,Woman,Right,
7,1,4,0.5826294000007692,['n'],1,right,none,-99,-99,0.5,0,none,29,19,Woman,Right,
8,1,4,0.43209920000026614,['n'],1,right,none,-99,-99,0.5,0,none,29,19,Woman,Right,
9,1,4,0.5854621000007683,['n'],0,left,none,-99,-99,0.5,0,none,29,19,Woman,Right,
10,1,4,0.7170401000003039,['n'],1,right,none,-99,-99,0.5,0,none,29,19,Woman,Right,
11,1,4,0.8344445000002452,['n'],0,left,none,-99,-99,0.5,0,none,29,19,Woman,Right,
12,1,4,0.5008173999995051,['n'],1,right,none,-99,-99,0.5,0,none,29,19,Woman,Right,
13,1,4,0.501575899999807,['c'],0,right,none,-99,-99,0.5,0,none,29,19,Woman,Right,
14,1,4,2.966937200000757,['n'],0,left,none,-99,-99,0.5,0,none,29,19,Woman,Right,
15,1,4,1.000228299999435,['c'],1,left,none,-99,-99,0.5,0,none,29,19,Woman,Right,
16,1,4,0.5176246999999421,['c'],1,left,none,-99,-99,0.5,0,none,29,19,Woman,Right,
17,1,4,0.7831718000006731,['n'],0,left,none,-99,-99,0.5,0,none,29,19,Woman,Right,
18,1,4,0.4497025999999096,['c'],0,right,none,-99,-99,0.5,0,none,29,19,Woman,Right,
19,1,4,0.5176430000001346,['n'],0,left,none,-99,-99,0.5,0,none,29,19,Woman,Right,
20,1,4,0.4326588999992964,['n'],1,right,none,-99,-99,0.5,0,none,29,19,Woman,Right,
21,1,4,0.8331670999996277,['n'],0,left,none,-99,-99,0.5,0,none,29,19,Woman,Right,
22,1,4,0.38387690000035946,['n'],1,right,none,-99,-99,0.5,0,none,29,19,Woman,Right,
23,1,4,0.40101249999952415,['c'],0,right,none,-99,-99,0.5,0,none,29,19,Woman,Right,
0,1,5,0.6514290000004621,['n'],0,left,none,-99,-99,0.5,0,none,29,19,Woman,Right,
1,1,5,0.33245679999981803,['c'],1,left,none,-99,-99,0.5,0,none,29,19,Woman,Right,
2,1,5,0.5836317000002964,['c'],1,left,none,-99,-99,0.5,0,none,29,19,Woman,Right,
3,1,5,1.482630500000596,['c'],1,left,none,-99,-99,0.5,0,none,29,19,Woman,Right,
4,1,5,0.9166535000003933,['n'],0,left,none,-99,-99,0.5,0,none,29,19,Woman,Right,
5,1,5,0.40004860000044573,['c'],0,right,none,-99,-99,0.5,0,none,29,19,Woman,Right,
6,1,5,0.4175973999999769,['c'],0,right,none,-99,-99,0.5,0,none,29,19,Woman,Right,
7,1,5,0.40101599999979953,['n'],1,right,none,-99,-99,0.5,0,none,29,19,Woman,Right,
8,1,5,0.3670935999998619,['n'],1,right,none,-99,-99,0.5,0,none,29,19,Woman,Right,
9,1,5,0.4161364000001413,['n'],0,left,none,-99,-99,0.5,0,none,29,19,Woman,Right,
10,1,5,0.49976710000009916,['c'],0,right,none,-99,-99,0.5,0,none,29,19,Woman,Right,
11,1,5,0.28440169999976206,['n'],0,left,none,-99,-99,0.5,0,none,29,19,Woman,Right,
12,1,5,0.38473070000054577,['c'],0,right,none,-99,-99,0.5,0,none,29,19,Woman,Right,
13,1,5,0.566614400000617,['n'],0,left,none,-99,-99,0.5,0,none,29,19,Woman,Right,
14,1,5,0.600735099999838,['n'],1,right,none,-99,-99,0.5,0,none,29,19,Woman,Right,
15,1,5,0.8836152000003494,['n'],1,right,none,-99,-99,0.5,0,none,29,19,Woman,Right,
16,1,5,0.41716169999926933,['c'],0,right,none,-99,-99,0.5,0,none,29,19,Woman,Right,
17,1,5,0.44989280000027065,['n'],0,left,none,-99,-99,0.5,0,none,29,19,Woman,Right,
18,1,5,0.6336299000004146,['c'],0,right,none,-99,-99,0.5,0,none,29,19,Woman,Right,
19,1,5,0.4012731000002532,['n'],0,left,none,-99,-99,0.5,0,none,29,19,Woman,Right,
20,1,5,0.016239999999925203,['c'],1,left,none,-99,-99,0.5,0,none,29,19,Woman,Right,
21,1,5,0.3172279999998864,['c'],0,right,none,-99,-99,0.5,0,none,29,19,Woman,Right,
22,1,5,0.08418350000010832,['n'],1,right,none,-99,-99,0.5,0,none,29,19,Woman,Right,
23,1,5,0.20149010000022827,['c'],1,left,none,-99,-99,0.5,0,none,29,19,Woman,Right,
0,1,6,0.9347617000003083,['c'],0,right,none,-99,-99,0.5,0,none,29,19,Woman,Right,
1,1,6,0.3840313000000606,['n'],1,right,none,-99,-99,0.5,0,none,29,19,Woman,Right,
2,1,6,0.3687676999998075,['n'],0,left,none,-99,-99,0.5,0,none,29,19,Woman,Right,
3,1,6,0.550597800000105,['c'],1,left,none,-99,-99,0.5,0,none,29,19,Woman,Right,
4,1,6,0.7999995999998646,['c'],1,left,none,-99,-99,0.5,0,none,29,19,Woman,Right,
5,1,6,0.5000457999994978,['n'],1,right,none,-99,-99,0.5,0,none,29,19,Woman,Right,
6,1,6,0.4517580000001544,['c'],0,right,none,-99,-99,0.5,0,none,29,19,Woman,Right,
7,1,6,0.6846062999993592,['n'],1,right,none,-99,-99,0.5,0,none,29,19,Woman,Right,
8,1,6,0.39905670000007376,['n'],1,right,none,-99,-99,0.5,0,none,29,19,Woman,Right,
9,1,6,0.5503367999999682,['n'],1,right,none,-99,-99,0.5,0,none,29,19,Woman,Right,
10,1,6,0.43306979999942996,['n'],0,left,none,-99,-99,0.5,0,none,29,19,Woman,Right,
11,1,6,0.4996485000001485,['c'],1,left,none,-99,-99,0.5,0,none,29,19,Woman,Right,
12,1,6,0.8010383000000729,['c'],1,left,none,-99,-99,0.5,0,none,29,19,Woman,Right,
13,1,6,0.6668319000000338,['c'],0,right,none,-99,-99,0.5,0,none,29,19,Woman,Right,
14,1,6,0.7007856000000174,['n'],1,right,none,-99,-99,0.5,0,none,29,19,Woman,Right,
15,1,6,0.43346829999973124,['n'],0,left,none,-99,-99,0.5,0,none,29,19,Woman,Right,
16,1,6,0.5326732000003176,['c'],0,right,none,-99,-99,0.5,0,none,29,19,Woman,Right,
17,1,6,0.9177893000005497,['n'],0,left,none,-99,-99,0.5,0,none,29,19,Woman,Right,
18,1,6,0.43307610000010754,['c'],1,left,none,-99,-99,0.5,0,none,29,19,Woman,Right,
19,1,6,0.4502701999999772,['n'],0,left,none,-99,-99,0.5,0,none,29,19,Woman,Right,
20,1,6,0.10042450000037206,['c'],1,left,none,-99,-99,0.5,0,none,29,19,Woman,Right,
21,1,6,0.04963439999937691,['c'],1,left,none,-99,-99,0.5,0,none,29,19,Woman,Right,
22,1,6,0.3672330999997939,['c'],0,right,none,-99,-99,0.5,0,none,29,19,Woman,Right,
23,1,6,0.3169587999991563,['n'],1,right,none,-99,-99,0.5,0,none,29,19,Woman,Right,
0,1,7,0.6337032999999792,['c'],1,left,none,-99,-99,0.5,0,none,29,19,Woman,Right,
1,1,7,0.38379729999996925,['n'],0,left,none,-99,-99,0.5,0,none,29,19,Woman,Right,
2,1,7,0.5841445999994903,['c'],1,left,none,-99,-99,0.5,0,none,29,19,Woman,Right,
3,1,7,0.7499507000002268,['n'],0,left,none,-99,-99,0.5,0,none,29,19,Woman,Right,
4,1,7,0.43379169999934675,['c'],1,left,none,-99,-99,0.5,0,none,29,19,Woman,Right,
5,1,7,0.48451310000018566,['c'],1,left,none,-99,-99,0.5,0,none,29,19,Woman,Right,
6,1,7,0.5833068000001731,['c'],0,right,none,-99,-99,0.5,0,none,29,19,Woman,Right,
7,1,7,0.16728890000013052,['n'],1,right,none,-99,-99,0.5,0,none,29,19,Woman,Right,
8,1,7,0.3001387000003888,['n'],1,right,none,-99,-99,0.5,0,none,29,19,Woman,Right,
9,1,7,0.08375729999988835,['c'],0,right,none,-99,-99,0.5,0,none,29,19,Woman,Right,
10,1,7,0.5345950999999332,['n'],0,left,none,-99,-99,0.5,0,none,29,19,Woman,Right,
11,1,7,0.3841329999995651,['c'],1,left,none,-99,-99,0.5,0,none,29,19,Woman,Right,
12,1,7,0.749203999999736,['n'],0,left,none,-99,-99,0.5,0,none,29,19,Woman,Right,
13,1,7,0.5659216000003653,['c'],0,right,none,-99,-99,0.5,0,none,29,19,Woman,Right,
14,1,7,0.5507211000003736,['n'],0,left,none,-99,-99,0.5,0,none,29,19,Woman,Right,
15,1,7,0.4671492000006765,['c'],0,right,none,-99,-99,0.5,0,none,29,19,Woman,Right,
16,1,7,0.4004186000001937,['n'],1,right,none,-99,-99,0.5,0,none,29,19,Woman,Right,
17,1,7,0.4673725000002378,['n'],0,left,none,-99,-99,0.5,0,none,29,19,Woman,Right,
18,1,7,1.1666431000003286,['c'],0,right,none,-99,-99,0.5,0,none,29,19,Woman,Right,
19,1,7,0.9668680000004315,['c'],0,right,none,-99,-99,0.5,0,none,29,19,Woman,Right,
20,1,7,0.5159137999999075,['n'],1,right,none,-99,-99,0.5,0,none,29,19,Woman,Right,
21,1,7,1.483925200000158,['n'],0,left,none,-99,-99,0.5,0,none,29,19,Woman,Right,
22,1,7,0.36759190000066155,['c'],0,right,none,-99,-99,0.5,0,none,29,19,Woman,Right,
23,1,7,0.36660919999940234,['n'],1,right,none,-99,-99,0.5,0,none,29,19,Woman,Right,
0,1,8,0.5675782999996954,['n'],1,right,none,-99,-99,0.5,0,none,29,19,Woman,Right,
1,1,8,4.466437699999915,['c'],1,left,none,-99,-99,0.5,0,none,29,19,Woman,Right,
2,1,8,2.214955800000098,['n'],0,left,none,-99,-99,0.5,0,none,29,19,Woman,Right,
3,1,8,1.4344096000004356,['c'],0,right,none,-99,-99,0.5,0,none,29,19,Woman,Right,
4,1,8,1.2836566000005405,['n'],0,left,none,-99,-99,0.5,0,none,29,19,Woman,Right,
5,1,8,0.26816520000011224,['c'],1,left,none,-99,-99,0.5,0,none,29,19,Woman,Right,
6,1,8,0.2834469999997964,['n'],1,right,none,-99,-99,0.5,0,none,29,19,Woman,Right,
7,1,8,0.5341883999999482,['c'],1,left,none,-99,-99,0.5,0,none,29,19,Woman,Right,
8,1,8,0.6677023000002009,['n'],0,left,none,-99,-99,0.5,0,none,29,19,Woman,Right,
9,1,8,0.35057310000047437,['c'],1,left,none,-99,-99,0.5,0,none,29,19,Woman,Right,
10,1,8,0.4328800000002957,['n'],1,right,none,-99,-99,0.5,0,none,29,19,Woman,Right,
11,1,8,0.41709179999998014,['c'],1,left,none,-99,-99,0.5,0,none,29,19,Woman,Right,
12,1,8,0.3503117000000202,['n'],0,left,none,-99,-99,0.5,0,none,29,19,Woman,Right,
13,1,8,0.40117039999950066,['c'],0,right,none,-99,-99,0.5,0,none,29,19,Woman,Right,
14,1,8,0.6171116000004986,['n'],1,right,none,-99,-99,0.5,0,none,29,19,Woman,Right,
15,1,8,0.4664028999995935,['c'],0,right,none,-99,-99,0.5,0,none,29,19,Woman,Right,
16,1,8,0.3496941000003062,['n'],1,right,none,-99,-99,0.5,0,none,29,19,Woman,Right,
17,1,8,0.5844572000005428,['n'],1,right,none,-99,-99,0.5,0,none,29,19,Woman,Right,
18,1,8,0.5846576000003552,['n'],0,left,none,-99,-99,0.5,0,none,29,19,Woman,Right,
19,1,8,0.3848119999993287,['c'],0,right,none,-99,-99,0.5,0,none,29,19,Woman,Right,
20,1,8,0.050592300000062096,['n'],0,left,none,-99,-99,0.5,0,none,29,19,Woman,Right,
21,1,8,0.36647459999949206,['c'],0,right,none,-99,-99,0.5,0,none,29,19,Woman,Right,
22,1,8,0.20031270000072254,['n'],1,right,none,-99,-99,0.5,0,none,29,19,Woman,Right,
23,1,8,0.50038080000013,['c'],1,left,none,-99,-99,0.5,0,none,29,19,Woman,Right,
0,1,9,0.3344078999998601,['c'],1,left,none,-99,-99,0.5,0,none,29,19,Woman,Right,
1,1,9,0.6164003000003504,['n'],1,right,none,-99,-99,0.5,0,none,29,19,Woman,Right,
2,1,9,0.45118249999995896,['c'],1,left,none,-99,-99,0.5,0,none,29,19,Woman,Right,
3,1,9,0.43475219999982073,['c'],1,left,none,-99,-99,0.5,0,none,29,19,Woman,Right,
4,1,9,0.3503379000003406,['n'],0,left,none,-99,-99,0.5,0,none,29,19,Woman,Right,
5,1,9,0.46685769999930926,['c'],0,right,none,-99,-99,0.5,0,none,29,19,Woman,Right,
6,1,9,0.6001985000002605,['n'],1,right,none,-99,-99,0.5,0,none,29,19,Woman,Right,
7,1,9,0.6337194999996427,['n'],0,left,none,-99,-99,0.5,0,none,29,19,Woman,Right,
8,1,9,0.20075869999982388,['n'],0,left,none,-99,-99,0.5,0,none,29,19,Woman,Right,
9,1,9,0.6513248000001113,['c'],0,right,none,-99,-99,0.5,0,none,29,19,Woman,Right,
10,1,9,0.5844543000002886,['n'],1,right,none,-99,-99,0.5,0,none,29,19,Woman,Right,
11,1,9,0.5510365000000093,['n'],0,left,none,-99,-99,0.5,0,none,29,19,Woman,Right,
12,1,9,0.3326388000004954,['c'],1,left,none,-99,-99,0.5,0,none,29,19,Woman,Right,
13,1,9,1.200914100000773,['c'],1,left,none,-99,-99,0.5,0,none,29,19,Woman,Right,
14,1,9,0.4340813999997408,['c'],0,right,none,-99,-99,0.5,0,none,29,19,Woman,Right,
15,1,9,0.6168800000004921,['n'],0,left,none,-99,-99,0.5,0,none,29,19,Woman,Right,
16,1,9,0.4010693000000174,['n'],1,right,none,-99,-99,0.5,0,none,29,19,Woman,Right,
17,1,9,0.5177393000003576,['n'],1,right,none,-99,-99,0.5,0,none,29,19,Woman,Right,
18,1,9,0.517112200000156,['n'],1,right,none,-99,-99,0.5,0,none,29,19,Woman,Right,
19,1,9,0.3989179999998669,['n'],0,left,none,-99,-99,0.5,0,none,29,19,Woman,Right,
20,1,9,0.31702320000022155,['c'],1,left,none,-99,-99,0.5,0,none,29,19,Woman,Right,
21,1,9,0.25241379999988567,['c'],0,right,none,-99,-99,0.5,0,none,29,19,Woman,Right,
22,1,9,0.5679529999997612,['c'],0,right,none,-99,-99,0.5,0,none,29,19,Woman,Right,
23,1,9,0.49914930000068125,['n'],1,right,none,-99,-99,0.5,0,none,29,19,Woman,Right,
0,1,10,0.3672980000001189,['c'],1,left,none,-99,-99,0.5,0,none,29,19,Woman,Right,
1,1,10,0.7836640000004991,['n'],1,right,none,-99,-99,0.5,0,none,29,19,Woman,Right,
2,1,10,0.4846317999999883,['c'],0,right,none,-99,-99,0.5,0,none,29,19,Woman,Right,
3,1,10,0.3511736000000383,['n'],1,right,none,-99,-99,0.5,0,none,29,19,Woman,Right,
4,1,10,0.1511860999999044,['c'],1,left,none,-99,-99,0.5,0,none,29,19,Woman,Right,
5,1,10,0.15111390000038227,['c'],1,left,none,-99,-99,0.5,0,none,29,19,Woman,Right,
6,1,10,0.1175548000001072,['c'],1,left,none,-99,-99,0.5,0,none,29,19,Woman,Right,
7,1,10,0.2180690000004688,['n'],1,right,none,-99,-99,0.5,0,none,29,19,Woman,Right,
8,1,10,0.1846224999999322,['n'],0,left,none,-99,-99,0.5,0,none,29,19,Woman,Right,
9,1,10,0.08463279999978113,['n'],1,right,none,-99,-99,0.5,0,none,29,19,Woman,Right,
10,1,10,0.25039600000036444,['c'],1,left,none,-99,-99,0.5,0,none,29,19,Woman,Right,
11,1,10,0.1012496999992436,['n'],1,right,none,-99,-99,0.5,0,none,29,19,Woman,Right,
12,1,10,0.584145200000421,['n'],1,right,none,-99,-99,0.5,0,none,29,19,Woman,Right,
13,1,10,0.03320540000004257,['c'],0,right,none,-99,-99,0.5,0,none,29,19,Woman,Right,
14,1,10,0.2182594000005338,['n'],1,right,none,-99,-99,0.5,0,none,29,19,Woman,Right,
15,1,10,0.2833569999993415,['n'],0,left,none,-99,-99,0.5,0,none,29,19,Woman,Right,
16,1,10,0.41724880000037956,['n'],0,left,none,-99,-99,0.5,0,none,29,19,Woman,Right,
17,1,10,0.16766519999964657,['n'],1,right,none,-99,-99,0.5,0,none,29,19,Woman,Right,
18,1,10,0.28449339999951917,['c'],0,right,none,-99,-99,0.5,0,none,29,19,Woman,Right,
19,1,10,0.3672790000000532,['c'],1,left,none,-99,-99,0.5,0,none,29,19,Woman,Right,
20,1,10,0.018036599999504688,['n'],0,left,none,-99,-99,0.5,0,none,29,19,Woman,Right,
21,1,10,0.18550340000001597,['c'],1,left,none,-99,-99,0.5,0,none,29,19,Woman,Right,
22,1,10,0.16470230000049924,['n'],0,left,none,-99,-99,0.5,0,none,29,19,Woman,Right,
23,1,10,0.016794099999970058,['c'],0,right,none,-99,-99,0.5,0,none,29,19,Woman,Right,
0,1,11,0.15152850000049511,['n'],1,right,none,-99,-99,0.5,0,none,29,19,Woman,Right,
1,1,11,0.1334965000005468,['n'],1,right,none,-99,-99,0.5,0,none,29,19,Woman,Right,
2,1,11,0.049703699999554374,['n'],0,left,none,-99,-99,0.5,0,none,29,19,Woman,Right,
3,1,11,0.45113900000069407,['c'],0,right,none,-99,-99,0.5,0,none,29,19,Woman,Right,
4,1,11,0.11783070000001317,['n'],0,left,none,-99,-99,0.5,0,none,29,19,Woman,Right,
5,1,11,0.10080359999938082,['c'],0,right,none,-99,-99,0.5,0,none,29,19,Woman,Right,
6,1,11,0.201117499999782,['n'],0,left,none,-99,-99,0.5,0,none,29,19,Woman,Right,
7,1,11,0.1844623999995747,['c'],0,right,none,-99,-99,0.5,0,none,29,19,Woman,Right,
8,1,11,0.18448799999987386,['n'],1,right,none,-99,-99,0.5,0,none,29,19,Woman,Right,
9,1,11,0.33467300000029354,['n'],0,left,none,-99,-99,0.5,0,none,29,19,Woman,Right,
10,1,11,0.11714289999963512,['c'],0,right,none,-99,-99,0.5,0,none,29,19,Woman,Right,
11,1,11,0.016827200000079756,['c'],1,left,none,-99,-99,0.5,0,none,29,19,Woman,Right,
12,1,11,0.33434870000019146,['n'],0,left,none,-99,-99,0.5,0,none,29,19,Woman,Right,
13,1,11,0.24994020000031014,['n'],1,right,none,-99,-99,0.5,0,none,29,19,Woman,Right,
14,1,11,0.250978899999609,['n'],1,right,none,-99,-99,0.5,0,none,29,19,Woman,Right,
15,1,11,0.05009489999974903,['c'],1,left,none,-99,-99,0.5,0,none,29,19,Woman,Right,
16,1,11,0.2829828000003545,['c'],0,right,none,-99,-99,0.5,0,none,29,19,Woman,Right,
17,1,11,0.33416289999968285,['n'],0,left,none,-99,-99,0.5,0,none,29,19,Woman,Right,
18,1,11,0.20111890000043786,['n'],0,left,none,-99,-99,0.5,0,none,29,19,Woman,Right,
19,1,11,0.08353889999943931,['c'],1,left,none,-99,-99,0.5,0,none,29,19,Woman,Right,
20,1,11,0.31763320000027306,['c'],0,right,none,-99,-99,0.5,0,none,29,19,Woman,Right,
21,1,11,0.05060300000059215,['c'],0,right,none,-99,-99,0.5,0,none,29,19,Woman,Right,
22,1,11,0.21752250000008644,"['n', 'c']",0,left,none,-99,-99,0.5,0,none,29,19,Woman,Right,
23,1,11,0.31826710000041203,['n'],0,left,none,-99,-99,0.5,0,none,29,19,Woman,Right,
0,1,12,0.01679390000026615,['c'],1,left,none,-99,-99,0.5,0,none,29,19,Woman,Right,
1,1,12,0.284918800000014,['c'],1,left,none,-99,-99,0.5,0,none,29,19,Woman,Right,
2,1,12,0.29889469999943685,['n'],0,left,none,-99,-99,0.5,0,none,29,19,Woman,Right,
3,1,12,0.18393149999974412,['n'],0,left,none,-99,-99,0.5,0,none,29,19,Woman,Right,
4,1,12,0.2511755000004996,['c'],1,left,none,-99,-99,0.5,0,none,29,19,Woman,Right,
5,1,12,0.1673315999996703,['n'],0,left,none,-99,-99,0.5,0,none,29,19,Woman,Right,
6,1,12,0.38462129999970784,['c'],1,left,none,-99,-99,0.5,0,none,29,19,Woman,Right,
7,1,12,0.08434719999968365,['n'],0,left,none,-99,-99,0.5,0,none,29,19,Woman,Right,
8,1,12,0.21851759999935894,['c'],0,right,none,-99,-99,0.5,0,none,29,19,Woman,Right,
9,1,12,0.26832159999958094,['n'],0,left,none,-99,-99,0.5,0,none,29,19,Woman,Right,
10,1,12,0.033297899999524816,['c'],0,right,none,-99,-99,0.5,0,none,29,19,Woman,Right,
11,1,12,0.2182420999997703,['n'],1,right,none,-99,-99,0.5,0,none,29,19,Woman,Right,
12,1,12,0.3679105000001073,['n'],0,left,none,-99,-99,0.5,0,none,29,19,Woman,Right,
13,1,12,0.3680156000000352,['c'],0,right,none,-99,-99,0.5,0,none,29,19,Woman,Right,
14,1,12,0.33468790000006265,['n'],1,right,none,-99,-99,0.5,0,none,29,19,Woman,Right,
15,1,12,0.36792590000004566,['n'],1,right,none,-99,-99,0.5,0,none,29,19,Woman,Right,
16,1,12,0.016794099999970058,['c'],0,right,none,-99,-99,0.5,0,none,29,19,Woman,Right,
17,1,12,0.5338660999996137,['c'],0,right,none,-99,-99,0.5,0,none,29,19,Woman,Right,
18,1,12,0.21693770000001678,['n'],1,right,none,-99,-99,0.5,0,none,29,19,Woman,Right,
19,1,12,0.016536699999960547,['n'],0,left,none,-99,-99,0.5,0,none,29,19,Woman,Right,
20,1,12,0.2848965000002863,['n'],1,right,none,-99,-99,0.5,0,none,29,19,Woman,Right,
21,1,12,0.11631239999951504,['n'],0,left,none,-99,-99,0.5,0,none,29,19,Woman,Right,
22,1,12,0.05100680000032298,['n'],1,right,none,-99,-99,0.5,0,none,29,19,Woman,Right,
23,1,12,0.167619900000318,['c'],0,right,none,-99,-99,0.5,0,none,29,19,Woman,Right,
0,1,13,0.4005242000002909,['c'],0,right,none,-99,-99,0.5,0,none,29,19,Woman,Right,
1,1,13,0.21783349999986967,['n'],1,right,none,-99,-99,0.5,0,none,29,19,Woman,Right,
2,1,13,0.0505062000001999,['c'],0,right,none,-99,-99,0.5,0,none,29,19,Woman,Right,
3,1,13,0.23439569999936793,['n'],0,left,none,-99,-99,0.5,0,none,29,19,Woman,Right,
4,1,13,0.1993705000004411,['c'],0,right,none,-99,-99,0.5,0,none,29,19,Woman,Right,
5,1,13,0.08386549999977433,['n'],0,left,none,-99,-99,0.5,0,none,29,19,Woman,Right,
6,1,13,0.08453190000000177,['c'],1,left,none,-99,-99,0.5,0,none,29,19,Woman,Right,
7,1,13,0.18360459999985324,['n'],1,right,none,-99,-99,0.5,0,none,29,19,Woman,Right,
8,1,13,0.3012968999992154,['c'],0,right,none,-99,-99,0.5,0,none,29,19,Woman,Right,
9,1,13,0.31838520000019344,['n'],1,right,none,-99,-99,0.5,0,none,29,19,Woman,Right,
10,1,13,0.4169065000005503,['n'],0,left,none,-99,-99,0.5,0,none,29,19,Woman,Right,
11,1,13,0.2998138000002655,['c'],0,right,none,-99,-99,0.5,0,none,29,19,Woman,Right,
12,1,13,0.3013747000004514,['c'],0,right,none,-99,-99,0.5,0,none,29,19,Woman,Right,
13,1,13,0.267775299999812,['n'],1,right,none,-99,-99,0.5,0,none,29,19,Woman,Right,
14,1,13,0.3838256999997611,['n'],0,left,none,-99,-99,0.5,0,none,29,19,Woman,Right,
15,1,13,0.33360799999991286,['c'],1,left,none,-99,-99,0.5,0,none,29,19,Woman,Right,
16,1,13,0.31665590000011434,['c'],0,right,none,-99,-99,0.5,0,none,29,19,Woman,Right,
17,1,13,0.3171710999995412,['n'],1,right,none,-99,-99,0.5,0,none,29,19,Woman,Right,
18,1,13,0.2502659000001586,['c'],1,left,none,-99,-99,0.5,0,none,29,19,Woman,Right,
19,1,13,0.28455639999992854,['c'],1,left,none,-99,-99,0.5,0,none,29,19,Woman,Right,
20,1,13,0.11711399999967398,['n'],0,left,none,-99,-99,0.5,0,none,29,19,Woman,Right,
21,1,13,0.2347342999992179,['n'],0,left,none,-99,-99,0.5,0,none,29,19,Woman,Right,
22,1,13,0.1347697999999582,['n'],0,left,none,-99,-99,0.5,0,none,29,19,Woman,Right,
23,1,13,0.11807510000016919,['c'],1,left,none,-99,-99,0.5,0,none,29,19,Woman,Right,
0,1,14,0.38328679999995074,['n'],0,left,none,-99,-99,0.5,0,none,29,19,Woman,Right,
1,1,14,0.34989630000018224,['n'],1,right,none,-99,-99,0.5,0,none,29,19,Woman,Right,
2,1,14,0.2011490999993839,['n'],0,left,none,-99,-99,0.5,0,none,29,19,Woman,Right,
3,1,14,0.26637250000021595,['n'],0,left,none,-99,-99,0.5,0,none,29,19,Woman,Right,
4,1,14,0.199971000000005,['c'],0,right,none,-99,-99,0.5,0,none,29,19,Woman,Right,
5,1,14,0.3669032999996489,['c'],0,right,none,-99,-99,0.5,0,none,29,19,Woman,Right,
6,1,14,0.21784829999978683,['n'],1,right,none,-99,-99,0.5,0,none,29,19,Woman,Right,
7,1,14,0.016467499999635038,['c'],1,left,none,-99,-99,0.5,0,none,29,19,Woman,Right,
8,1,14,0.09991510000054404,['n'],1,right,none,-99,-99,0.5,0,none,29,19,Woman,Right,
9,1,14,0.31717639999988023,['n'],0,left,none,-99,-99,0.5,0,none,29,19,Woman,Right,
10,1,14,0.6179664000001139,['n'],0,left,none,-99,-99,0.5,0,none,29,19,Woman,Right,
11,1,14,0.5836847000000489,['n'],0,left,none,-99,-99,0.5,0,none,29,19,Woman,Right,
12,1,14,0.25041239999973186,['c'],0,right,none,-99,-99,0.5,0,none,29,19,Woman,Right,
13,1,14,0.15126690000033705,['c'],1,left,none,-99,-99,0.5,0,none,29,19,Woman,Right,
14,1,14,0.15134349999971164,['c'],1,left,none,-99,-99,0.5,0,none,29,19,Woman,Right,
15,1,14,0.5668403000008766,['c'],0,right,none,-99,-99,0.5,0,none,29,19,Woman,Right,
16,1,14,0.9003860000002533,['n'],1,right,none,-99,-99,0.5,0,none,29,19,Woman,Right,
17,1,14,0.8664453000001231,['c'],0,right,none,-99,-99,0.5,0,none,29,19,Woman,Right,
18,1,14,0.4839831999997841,['n'],1,right,none,-99,-99,0.5,0,none,29,19,Woman,Right,
19,1,14,0.5509210999998686,['n'],0,left,none,-99,-99,0.5,0,none,29,19,Woman,Right,
20,1,14,0.2823710000002393,['c'],0,right,none,-99,-99,0.5,0,none,29,19,Woman,Right,
21,1,14,0.0998764999994819,['n'],1,right,none,-99,-99,0.5,0,none,29,19,Woman,Right,
22,1,14,0.11766590000024735,['c'],1,left,none,-99,-99,0.5,0,none,29,19,Woman,Right,
23,1,14,0.18484199999966222,['n'],0,left,none,-99,-99,0.5,0,none,29,19,Woman,Right,
0,1,15,0.15056579999964015,['c'],1,left,none,-99,-99,0.5,0,none,29,19,Woman,Right,
1,1,15,0.23319830000036745,['c'],0,right,none,-99,-99,0.5,0,none,29,19,Woman,Right,
2,1,15,0.36731849999978294,['n'],1,right,none,-99,-99,0.5,0,none,29,19,Woman,Right,
3,1,15,0.33331300000008923,['n'],0,left,none,-99,-99,0.5,0,none,29,19,Woman,Right,
4,1,15,0.3347825000000739,['n'],1,right,none,-99,-99,0.5,0,none,29,19,Woman,Right,
5,1,15,0.06646860000000743,['c'],0,right,none,-99,-99,0.5,0,none,29,19,Woman,Right,
6,1,15,0.03341619999991963,['n'],1,right,none,-99,-99,0.5,0,none,29,19,Woman,Right,
7,1,15,0.31801610000002256,['n'],1,right,none,-99,-99,0.5,0,none,29,19,Woman,Right,
8,1,15,0.41697240000030433,['n'],0,left,none,-99,-99,0.5,0,none,29,19,Woman,Right,
9,1,15,0.16783469999973022,['n'],1,right,none,-99,-99,0.5,0,none,29,19,Woman,Right,
10,1,15,0.918257100000119,['n'],0,left,none,-99,-99,0.5,0,none,29,19,Woman,Right,
11,1,15,0.8677404999998544,['c'],1,left,none,-99,-99,0.5,0,none,29,19,Woman,Right,
12,1,15,1.3505838999999469,['n'],0,left,none,-99,-99,0.5,0,none,29,19,Woman,Right,
13,1,15,0.017285500000070897,['c'],1,left,none,-99,-99,0.5,0,none,29,19,Woman,Right,
14,1,15,0.36687549999987823,['n'],1,right,none,-99,-99,0.5,0,none,29,19,Woman,Right,
15,1,15,0.01712370000041119,['n'],0,left,none,-99,-99,0.5,0,none,29,19,Woman,Right,
16,1,15,0.33396689999972295,['c'],0,right,none,-99,-99,0.5,0,none,29,19,Woman,Right,
17,1,15,0.31724989999929676,['n'],0,left,none,-99,-99,0.5,0,none,29,19,Woman,Right,
18,1,15,0.8676421000000119,['n'],0,left,none,-99,-99,0.5,0,none,29,19,Woman,Right,
19,1,15,0.31677359999957844,['c'],0,right,none,-99,-99,0.5,0,none,29,19,Woman,Right,
20,1,15,0.41774290000012115,['c'],1,left,none,-99,-99,0.5,0,none,29,19,Woman,Right,
21,1,15,0.46709069999997155,['n'],1,right,none,-99,-99,0.5,0,none,29,19,Woman,Right,
22,1,15,0.35054029999992053,['c'],1,left,none,-99,-99,0.5,0,none,29,19,Woman,Right,
23,1,15,0.4843001999997796,['n'],1,right,none,-99,-99,0.5,0,none,29,19,Woman,Right,
0,1,16,0.3502230000003692,['c'],1,left,none,-99,-99,0.5,0,none,29,19,Woman,Right,
1,1,16,0.3327713999997286,['n'],1,right,none,-99,-99,0.5,0,none,29,19,Woman,Right,
2,1,16,0.017843599999650905,['n'],1,right,none,-99,-99,0.5,0,none,29,19,Woman,Right,
3,1,16,0.06799260000025242,['c'],1,left,none,-99,-99,0.5,0,none,29,19,Woman,Right,
4,1,16,0.21720519999962562,['n'],1,right,none,-99,-99,0.5,0,none,29,19,Woman,Right,
5,1,16,0.1183645000000979,['c'],1,left,none,-99,-99,0.5,0,none,29,19,Woman,Right,
6,1,16,0.2512753999999404,['n'],1,right,none,-99,-99,0.5,0,none,29,19,Woman,Right,
7,1,16,0.23413299999992887,['n'],1,right,none,-99,-99,0.5,0,none,29,19,Woman,Right,
8,1,16,0.06797900000037771,['n'],1,right,none,-99,-99,0.5,0,none,29,19,Woman,Right,
9,1,16,0.0842715999997381,['n'],1,right,none,-99,-99,0.5,0,none,29,19,Woman,Right,
10,1,16,0.06647890000022016,['c'],1,left,none,-99,-99,0.5,0,none,29,19,Woman,Right,
11,1,16,0.1675124000003052,['c'],1,left,none,-99,-99,0.5,0,none,29,19,Woman,Right,
12,1,16,0.23454149999997753,['n'],1,right,none,-99,-99,0.5,0,none,29,19,Woman,Right,
13,1,16,0.15078379999977187,['n'],1,right,none,-99,-99,0.5,0,none,29,19,Woman,Right,
14,1,16,0.1847502999999051,['c'],1,left,none,-99,-99,0.5,0,none,29,19,Woman,Right,
15,1,16,0.0841682000000219,['n'],1,right,none,-99,-99,0.5,0,none,29,19,Woman,Right,
16,1,16,0.25070289999985107,['n'],0,left,none,-99,-99,0.5,0,none,29,19,Woman,Right,
17,1,16,0.06827440000051865,['c'],1,left,none,-99,-99,0.5,0,none,29,19,Woman,Right,
18,1,16,0.04992599999968661,['c'],0,right,none,-99,-99,0.5,0,none,29,19,Woman,Right,
19,1,16,0.10115500000028987,['n'],1,right,none,-99,-99,0.5,0,none,29,19,Woman,Right,
20,1,16,0.08486879999964003,['n'],0,left,none,-99,-99,0.5,0,none,29,19,Woman,Right,
21,1,16,0.08258539999951608,['c'],1,left,none,-99,-99,0.5,0,none,29,19,Woman,Right,
22,1,16,0.0848361999996996,['c'],1,left,none,-99,-99,0.5,0,none,29,19,Woman,Right,
23,1,16,0.20043379999970057,['c'],1,left,none,-99,-99,0.5,0,none,29,19,Woman,Right,
0,2,1,2.833791900000506,['n'],1,right,none,-99,-99,0.2,0,none,29,19,Woman,Right,
1,2,1,0.3829358000002685,['c'],0,right,none,-99,-99,0.1,0,none,29,19,Woman,Right,
2,2,1,0.4005402000002505,['n'],1,right,none,-99,-99,0.4,0,none,29,19,Woman,Right,
3,2,1,0.6832182999996803,['n'],0,left,none,-99,-99,0.4,0,none,29,19,Woman,Right,
4,2,1,0.31798349999917264,['n'],1,right,none,-99,-99,0.4,0,none,29,19,Woman,Right,
5,2,1,0.3161456999996517,['n'],1,right,none,-99,-99,0.4,0,none,29,19,Woman,Right,
6,2,1,0.2837448999998742,['n'],1,right,none,-99,-99,0.2,0,none,29,19,Woman,Right,
7,2,1,0.15165630000046804,['n'],0,left,none,-99,-99,0.2,0,none,29,19,Woman,Right,
8,2,1,0.08404710000013438,['c'],1,left,none,-99,-99,0.1,0,none,29,19,Woman,Right,
9,2,1,0.1837400999993406,['c'],1,left,none,-99,-99,0.4,0,none,29,19,Woman,Right,
10,2,1,0.05041380000056961,['c'],1,left,none,-99,-99,0.2,0,none,29,19,Woman,Right,
11,2,1,0.1516353999995772,['n'],1,right,none,-99,-99,0.2,0,none,29,19,Woman,Right,
12,2,1,0.13465939999969123,['c'],1,left,none,-99,-99,0.2,0,none,29,19,Woman,Right,
13,2,1,0.03381179999996675,['c'],1,left,none,-99,-99,0.2,0,none,29,19,Woman,Right,
14,2,1,0.18413730000065698,['c'],1,left,none,-99,-99,0.2,0,none,29,19,Woman,Right,
15,2,1,0.049858299999868905,['c'],0,right,none,-99,-99,0.1,0,none,29,19,Woman,Right,
16,2,1,0.18446829999993497,['n'],1,right,none,-99,-99,0.1,0,none,29,19,Woman,Right,
17,2,1,0.31833560000086436,"['n', 'c']",0,left,none,-99,-99,0.4,0,none,29,19,Woman,Right,
18,2,1,0.14933839999957854,['n'],1,right,none,-99,-99,0.1,0,none,29,19,Woman,Right,
19,2,1,0.13539469999977882,['c'],0,right,none,-99,-99,0.1,0,none,29,19,Woman,Right,
20,2,1,0.3850180999997974,['n'],0,left,none,-99,-99,0.1,0,none,29,19,Woman,Right,
21,2,1,0.016358800000489282,['c'],0,right,none,-99,-99,0.4,0,none,29,19,Woman,Right,
22,2,1,0.18454750000000786,['n'],0,left,none,-99,-99,0.4,0,none,29,19,Woman,Right,
23,2,1,0.050396200000250246,['c'],1,left,none,-99,-99,0.1,0,none,29,19,Woman,Right,
0,3,1,0.9008994999994684,['c'],0,right,['3'],3,2.6341003999996246,0.2,0,none,29,19,Woman,Right,
1,3,1,0.4156284999999116,['n'],1,right,['9'],5,0.8682948000005126,0.1,0,none,29,19,Woman,Right,
2,3,1,0.367113899999822,['c'],1,left,['3'],3,0.9338963000000149,0.4,0,none,29,19,Woman,Right,
3,3,1,0.3158935000001293,['n'],0,left,['3'],3,1.4012462000000596,0.4,0,none,29,19,Woman,Right,
4,3,1,0.7503944000000047,['n'],1,right,['2'],2,0.35124030000042694,0.2,0,none,29,19,Woman,Right,
5,3,1,0.334410200000093,['c'],0,right,['2'],2,1.3170773000001645,0.1,0,none,29,19,Woman,Right,
6,3,1,0.4837885999995706,['c'],0,right,['2'],2,0.5513653999996677,0.2,0,none,29,19,Woman,Right,
7,3,1,0.3338190000004033,['n'],0,left,['2'],2,0.3180299000005107,0.1,0,none,29,19,Woman,Right,
8,3,1,0.3001957999995284,['n'],0,left,['2'],2,0.2847349000003305,0.4,0,none,29,19,Woman,Right,
9,3,1,0.3169855000005555,['c'],1,left,['2'],2,0.40136419999998907,0.4,0,none,29,19,Woman,Right,
10,3,1,0.35103780000008555,['n'],1,right,['2'],2,0.28474610000012035,0.2,0,none,29,19,Woman,Right,
11,3,1,0.2669713999994201,['c'],1,left,['3'],3,0.6178477999992538,0.4,0,none,29,19,Woman,Right,
12,3,1,0.33366579999983514,['n'],0,left,['8'],4,0.901412000000164,0.1,0,none,29,19,Woman,Right,
13,3,1,0.3992770999993809,['c'],1,left,['3'],3,0.4353950000004261,0.1,0,none,29,19,Woman,Right,
14,3,1,0.20014459999947576,['n'],1,right,['2'],2,0.45165690000067116,0.1,0,none,29,19,Woman,Right,
15,3,1,0.31738660000064556,['c'],0,right,['3'],3,0.36812470000040776,0.4,0,none,29,19,Woman,Right,
16,3,1,0.21780459999990853,['n'],1,right,['3'],3,0.434183800000028,0.2,0,none,29,19,Woman,Right,
17,3,1,0.3006058999999368,['c'],1,left,['3'],3,0.41784109999935026,0.1,0,none,29,19,Woman,Right,
18,3,1,0.05008700000053068,['n'],1,right,['3'],3,0.38484779999998864,0.1,0,none,29,19,Woman,Right,
19,3,1,0.9838780000000042,['c'],1,left,['3'],3,1.0177046999997401,0.4,0,none,29,19,Woman,Right,
20,3,1,1.4334238000001278,['c'],0,right,['3'],3,0.38342979999924864,0.2,0,none,29,19,Woman,Right,
21,3,1,0.38349749999997584,['n'],1,right,['3'],3,0.3350324000002729,0.4,0,none,29,19,Woman,Right,
22,3,1,0.39968189999945025,['c'],1,left,['3'],3,0.4679617000001599,0.2,0,none,29,19,Woman,Right,
23,3,1,0.4170673999997234,['c'],1,left,['3'],3,0.38421629999993456,0.2,0,none,29,19,Woman,Right,
0,4,1,1.7672671999998784,['c'],1,left,['3'],3,0.8181144999998651,0.2,0,AccAcc,29,19,Woman,Right,
1,4,1,0.4664757999998983,['n'],1,right,['3'],3,0.3998015999995914,0.2,0,AccAcc,29,19,Woman,Right,
2,4,1,0.6833777000001646,['n'],0,left,['8'],4,0.6847319999997126,0.2,0,AccAcc,29,19,Woman,Right,
3,4,1,0.3496627000004082,['c'],0,right,['3'],3,0.5018555999995442,0.2,0,AccAcc,29,19,Woman,Right,
4,4,1,0.31738469999982044,['n'],1,right,['3'],3,0.368706100000054,0.2,0,AccAcc,29,19,Woman,Right,
5,4,1,0.36748530000022583,['n'],1,right,['3'],3,0.3845734000005905,0.4,0,AccAcc,29,19,Woman,Right,
6,4,1,0.33375470000009955,['c'],0,right,['3'],3,0.48490789999959816,0.2,0,AccAcc,29,19,Woman,Right,
7,4,1,0.1837599999998929,['c'],0,right,['3'],3,0.4677209999999832,0.1,0,AccAcc,29,19,Woman,Right,
8,4,1,0.43260430000009364,['n'],0,left,['3'],3,0.40203870000004827,0.2,0,AccAcc,29,19,Woman,Right,
9,4,1,1.9998146999996607,['n'],1,right,['3'],3,0.3014689999999973,0.2,0,AccAcc,29,19,Woman,Right,
10,4,1,0.5171525000005204,['n'],1,right,['2'],2,1.0173629000000801,0.1,0,AccAcc,29,19,Woman,Right,
11,4,1,0.0993389000004754,['c'],0,right,['2'],2,0.6512819999998101,0.4,0,AccAcc,29,19,Woman,Right,
12,4,1,0.46712180000031367,['n'],1,right,['2'],2,0.4011746000005587,0.1,0,AccAcc,29,19,Woman,Right,
13,4,1,0.4676125999994838,['n'],1,right,['2'],2,0.6346321000000898,0.4,0,AccAcc,29,19,Woman,Right,
14,4,1,1.0000440999992861,['n'],0,left,['2'],2,0.43475409999973635,0.2,0,AccAcc,29,19,Woman,Right,
15,4,1,0.30036240000026737,['c'],0,right,['2'],2,0.5861086000004434,0.4,0,AccAcc,29,19,Woman,Right,
16,4,1,0.016744399999879533,['n'],1,right,['2'],2,1.034327399999711,0.1,0,AccAcc,29,19,Woman,Right,
17,4,1,1.2003414999999222,['n'],0,left,['2'],2,0.3178575000001729,0.1,0,AccAcc,29,19,Woman,Right,
18,4,1,0.16712360000019544,['n'],0,left,['8'],4,0.15145920000031765,0.1,0,AccAcc,29,19,Woman,Right,
19,4,1,1.0827050999996573,['n'],0,left,['8'],4,0.3846544999996695,0.1,0,AccAcc,29,19,Woman,Right,
20,4,1,0.41804659999979776,['n'],1,right,['8'],4,0.484682199999952,0.1,0,AccAcc,29,19,Woman,Right,
21,4,1,0.2841318000000683,['c'],1,left,['8'],4,0.3846460000004299,0.1,0,AccAcc,29,19,Woman,Right,
22,4,1,0.43374629999925673,['c'],0,right,['8'],4,0.28470500000003085,0.4,0,AccAcc,29,19,Woman,Right,
23,4,1,1.052071199999773,['n'],1,right,['8'],4,0.40122949999931734,0.1,0,AccAcc,29,19,Woman,Right,
24,4,1,0.2836776000003738,['c'],0,right,['2'],2,0.43396020000000135,0.1,0,AccAcc,29,19,Woman,Right,
25,4,1,0.21781490000012127,['c'],0,right,['8'],4,0.41800850000072387,0.2,0,AccAcc,29,19,Woman,Right,
26,4,1,0.14990359999956127,['n'],0,left,['8'],4,0.45132809999995516,0.2,0,AccAcc,29,19,Woman,Right,
27,4,1,0.04924080000000686,['c'],1,left,['2'],2,0.3509348999996291,0.1,0,AccAcc,29,19,Woman,Right,
28,4,1,0.7503242000002501,['c'],1,left,['2'],2,0.4680804999998145,0.4,0,AccAcc,29,19,Woman,Right,
29,4,1,0.1343379999998433,['c'],1,left,['2'],2,0.5013920999999755,0.1,0,AccAcc,29,19,Woman,Right,
30,4,1,0.16775070000039705,['c'],1,left,['2'],2,0.46796439999980066,0.4,0,AccAcc,29,19,Woman,Right,
31,4,1,0.5501044000002366,['c'],1,left,['2'],2,1.517501799999991,0.2,0,AccAcc,29,19,Woman,Right,
32,4,1,0.6669559000001755,['c'],0,right,['2'],2,3.2507543000001533,0.2,0,AccAcc,29,19,Woman,Right,
33,4,1,0.015891600000031758,['c'],0,right,['2'],2,0.2847822999992786,0.1,0,AccAcc,29,19,Woman,Right,
34,4,1,0.3001772000006895,['c'],0,right,['3'],3,0.31816880000042147,0.4,0,AccAcc,29,19,Woman,Right,
35,4,1,1.251194299999952,['n'],0,left,['3'],3,0.8849720999996862,0.4,0,AccAcc,29,19,Woman,Right,
36,4,1,0.2497862999998688,['n'],0,left,['2'],2,0.3680122999994637,0.4,0,AccAcc,29,19,Woman,Right,
37,4,1,0.03250430000025517,['c'],0,right,['3'],3,0.2526712000008047,0.2,0,AccAcc,29,19,Woman,Right,
38,4,1,0.43286219999936293,['n'],1,right,['2'],2,0.3355306000003111,0.2,0,AccAcc,29,19,Woman,Right,
39,4,1,0.3001451000000088,['c'],1,left,['3'],3,0.3181924999998955,0.4,0,AccAcc,29,19,Woman,Right,
40,4,1,0.5504608999999618,['n'],0,left,['3'],3,0.48463989999982005,0.2,0,AccAcc,29,19,Woman,Right,
41,4,1,0.43282409999937954,['c'],1,left,['3'],3,1.3345192000006136,0.1,0,AccAcc,29,19,Woman,Right,
42,4,1,0.5831743999997343,['c'],0,right,['3'],3,2.7683716999999888,0.4,0,AccAcc,29,19,Woman,Right,
43,4,1,0.9833301999997275,['c'],0,right,['2'],2,0.5160381000005145,0.2,0,AccAcc,29,19,Woman,Right,
44,4,1,0.201473399999486,['c'],1,left,['2'],2,0.45111960000031104,0.1,0,AccAcc,29,19,Woman,Right,
45,4,1,0.8838236999999936,['c'],1,left,['2'],2,3.5504234999998516,0.4,0,AccAcc,29,19,Woman,Right,
46,4,1,1.38361199999963,['n'],1,right,['2'],2,0.6511314999997921,0.4,0,AccAcc,29,19,Woman,Right,
47,4,1,3.8664152000001195,['n'],1,right,['2'],2,0.5174867999994603,0.1,0,AccAcc,29,19,Woman,Right,
48,4,1,0.38420120000046154,['c'],0,right,['2'],2,0.5003011999997398,0.2,0,AccAcc,29,19,Woman,Right,
49,4,1,1.966783399999258,['n'],0,left,['2'],2,0.6013696999998501,0.1,0,AccAcc,29,19,Woman,Right,
50,4,1,0.4838012999998682,['c'],0,right,['2'],2,0.834582300000875,0.4,0,AccAcc,29,19,Woman,Right,
51,4,1,1.0829366999996637,['n'],0,left,['2'],2,0.7347124999996595,0.1,0,AccAcc,29,19,Woman,Right,
52,4,1,0.16720900000018446,['c'],1,left,['2'],2,0.4844649999995454,0.2,0,AccAcc,29,19,Woman,Right,
53,4,1,0.8667163000000073,['c'],1,left,['2'],2,0.5178860999994868,0.4,0,AccAcc,29,19,Woman,Right,
54,4,1,0.04919690000042465,['c'],1,left,['8'],4,2.4347002000004068,0.4,0,AccAcc,29,19,Woman,Right,
55,4,1,0.3335461000006035,['c'],1,left,['2'],2,0.6014895999996952,0.4,0,AccAcc,29,19,Woman,Right,
56,4,1,0.26721139999972365,['n'],0,left,['8'],4,0.700263000000632,0.2,0,AccAcc,29,19,Woman,Right,
57,4,1,0.9174314000001687,['c'],0,right,['2'],2,0.6844613999992362,0.1,0,AccAcc,29,19,Woman,Right,
58,4,1,0.6508243999996921,['n'],0,left,['8'],4,0.23499209999954473,0.4,0,AccAcc,29,19,Woman,Right,
59,4,1,0.1672430999997232,['c'],1,left,['2'],2,0.6680101000001741,0.4,0,AccAcc,29,19,Woman,Right,
0,5,1,0.5999117999999726,['n'],0,left,['8'],4,0.3679130000000441,0.2,0,FastAcc,29,19,Woman,Right,
1,5,1,0.7669121999997515,['c'],1,left,['2'],2,0.3503836999998384,0.4,0,FastAcc,29,19,Woman,Right,
2,5,1,0.7508178999996744,['n'],0,left,['8'],4,0.33557030000065424,0.2,0,FastAcc,29,19,Woman,Right,
3,5,1,0.10092399999939516,['c'],0,right,['2'],2,2.9174972999999227,0.2,0,FastAcc,29,19,Woman,Right,
4,5,1,0.4501802000004318,['n'],0,left,['2'],2,0.4182069999997111,0.4,0,FastAcc,29,19,Woman,Right,
5,5,1,0.3170678999995289,['c'],0,right,['2'],2,0.4350475999999617,0.2,0,FastAcc,29,19,Woman,Right,
6,5,1,0.3175794999997379,['n'],0,left,['2'],2,0.33457559999988007,0.2,0,FastAcc,29,19,Woman,Right,
7,5,1,0.600157400000171,['c'],0,right,['1'],1,0.9002213000003394,0.1,0,FastAcc,29,19,Woman,Right,
8,5,1,0.20005589999982476,['c'],1,left,['1'],1,0.602118399999199,0.1,0,FastAcc,29,19,Woman,Right,
9,5,1,0.40018810000037774,['n'],1,right,['1'],1,0.2844386000006125,0.4,0,FastAcc,29,19,Woman,Right,
10,5,1,0.350925400000051,['c'],1,left,['1'],1,0.43457370000032824,0.1,0,FastAcc,29,19,Woman,Right,
11,5,1,0.31690119999984745,['n'],0,left,['1'],1,0.38491220000014437,0.2,0,FastAcc,29,19,Woman,Right,
12,5,1,0.5004031999997096,['c'],0,right,['1'],1,0.5345344999996087,0.2,0,FastAcc,29,19,Woman,Right,
13,5,1,1.1661448000004384,['c'],0,right,['1'],1,0.5176531999995859,0.4,0,FastAcc,29,19,Woman,Right,
14,5,1,1.3836926000003587,['n'],0,left,['1'],1,0.5179485999997269,0.2,0,FastAcc,29,19,Woman,Right,
15,5,1,0.39905520000047545,['c'],0,right,['1'],1,0.3519452000000456,0.4,0,FastAcc,29,19,Woman,Right,
16,5,1,0.30053549999956886,['n'],1,right,['1'],1,0.26820580000003247,0.4,0,FastAcc,29,19,Woman,Right,
17,5,1,0.20072240000081365,['c'],0,right,['1'],1,0.38485249999939697,0.1,0,FastAcc,29,19,Woman,Right,
18,5,1,0.13339459999951941,['c'],0,right,['1'],1,0.3841441999993549,0.4,0,FastAcc,29,19,Woman,Right,
19,5,1,0.9165210000001025,['c'],0,right,['1'],1,0.43525399999998626,0.4,0,FastAcc,29,19,Woman,Right,
20,5,1,0.23153760000059265,['c'],1,left,['1'],1,0.33562329999949725,0.1,0,FastAcc,29,19,Woman,Right,
21,5,1,0.3169143000004624,['n'],1,right,['1'],1,0.36821409999993193,0.1,0,FastAcc,29,19,Woman,Right,
22,5,1,0.30087170000024344,['n'],1,right,['1'],1,0.5015089999997144,0.4,0,FastAcc,29,19,Woman,Right,
23,5,1,0.25006630000007135,['n'],0,left,['1'],1,0.3686699999998382,0.2,0,FastAcc,29,19,Woman,Right,
24,5,1,0.18382960000053572,['n'],1,right,['1'],1,0.33378280000033556,0.1,0,FastAcc,29,19,Woman,Right,
25,5,1,0.04956229999970674,['c'],0,right,['1'],1,0.7167689000007158,0.2,0,FastAcc,29,19,Woman,Right,
26,5,1,0.30083340000055614,['n'],0,left,['1'],1,0.25157390000003943,0.4,0,FastAcc,29,19,Woman,Right,
27,5,1,0.21776330000011512,['n'],0,left,['1'],1,0.5333036000001812,0.2,0,FastAcc,29,19,Woman,Right,
28,5,1,0.3678491999999096,['c'],0,right,['1'],1,0.2528714999998556,0.4,0,FastAcc,29,19,Woman,Right,
29,5,1,0.26644149999992806,['n'],1,right,['1'],1,0.5186555999998745,0.2,0,FastAcc,29,19,Woman,Right,
30,5,1,0.3011913000000277,['c'],1,left,['1'],1,0.3179049999998824,0.1,0,FastAcc,29,19,Woman,Right,
31,5,1,0.1332868999998027,['n'],1,right,['1'],1,0.3358485999997356,0.4,0,FastAcc,29,19,Woman,Right,
32,5,1,0.38431949999994686,['n'],0,left,['1'],1,0.35137329999997746,0.4,0,FastAcc,29,19,Woman,Right,
33,5,1,1.149500900000021,['n'],1,right,['1'],1,0.4179331000004822,0.4,0,FastAcc,29,19,Woman,Right,
34,5,1,0.23401009999997768,['c'],0,right,['1'],1,0.11789520000002085,0.4,0,FastAcc,29,19,Woman,Right,
35,5,1,0.08397490000061225,['n'],0,left,['1'],1,0.5498866999996608,0.1,0,FastAcc,29,19,Woman,Right,
36,5,1,0.06759260000035283,['c'],1,left,['1'],1,0.31776040000022476,0.1,0,FastAcc,29,19,Woman,Right,
37,5,1,0.33431349999955273,['n'],1,right,['1'],1,1.0178037000005133,0.2,0,FastAcc,29,19,Woman,Right,
38,5,1,0.3005620000003546,['c'],0,right,['1'],1,0.2679711999999199,0.2,0,FastAcc,29,19,Woman,Right,
39,5,1,0.31696050000027753,['c'],0,right,['1'],1,0.15146000000004278,0.1,0,FastAcc,29,19,Woman,Right,
40,5,1,0.2661651999997048,['n'],0,left,['1'],1,0.3169462999994721,0.4,0,FastAcc,29,19,Woman,Right,
41,5,1,0.31790540000019973,['c'],1,left,['1'],1,2.1829909999996744,0.2,0,FastAcc,29,19,Woman,Right,
42,5,1,1.1686813999995138,['c'],1,left,['1'],1,0.45135019999997894,0.4,0,FastAcc,29,19,Woman,Right,
43,5,1,0.3007794000004651,['n'],0,left,['1'],1,0.2682452999997622,0.2,0,FastAcc,29,19,Woman,Right,
44,5,1,1.4165702000000238,['c'],0,right,['1'],1,0.38491440000052535,0.2,0,FastAcc,29,19,Woman,Right,
45,5,1,0.40000230000077863,['n'],1,right,['1'],1,0.3511239999997997,0.2,0,FastAcc,29,19,Woman,Right,
46,5,1,0.3995279999999184,['c'],0,right,['1'],1,0.40162839999993594,0.1,0,FastAcc,29,19,Woman,Right,
47,5,1,0.33377980000022944,['n'],1,right,['1'],1,0.36779440000009345,0.1,0,FastAcc,29,19,Woman,Right,
48,5,1,0.5169292999999016,['c'],1,left,['1'],1,0.41810679999980493,0.1,0,FastAcc,29,19,Woman,Right,
49,5,1,0.21780679999938002,['n'],0,left,['1'],1,0.6180010999996739,0.2,0,FastAcc,29,19,Woman,Right,
50,5,1,0.5995653999998467,['c'],1,left,['1'],1,0.38473489999978483,0.1,0,FastAcc,29,19,Woman,Right,
51,5,1,0.44947489999958634,['n'],0,left,['1'],1,0.4335719999999128,0.4,0,FastAcc,29,19,Woman,Right,
52,5,1,2.2337514000000738,['c'],0,right,['1'],1,0.8346314000000348,0.1,0,FastAcc,29,19,Woman,Right,
53,5,1,0.5833575999995446,['n'],0,left,['1'],1,0.48479930000030436,0.4,0,FastAcc,29,19,Woman,Right,
54,5,1,1.9168681000001015,['c'],1,left,['1'],1,2.784230100000059,0.1,0,FastAcc,29,19,Woman,Right,
55,5,1,0.35098459999971965,['n'],1,right,['1'],1,0.35148169999956735,0.2,0,FastAcc,29,19,Woman,Right,
56,5,1,0.5004754999999932,['n'],0,left,['1'],1,0.8510723999997936,0.1,0,FastAcc,29,19,Woman,Right,
57,5,1,0.9655353999996805,['c'],0,right,['1'],1,0.6519033999993553,0.4,0,FastAcc,29,19,Woman,Right,
58,5,1,0.2003563000007489,['n'],0,left,['1'],1,0.38455639999938285,0.1,0,FastAcc,29,19,Woman,Right,
59,5,1,0.08182820000001811,['n'],0,left,['1'],1,0.45204850000027363,0.1,0,FastAcc,29,19,Woman,Right,
0,6,1,0.38426279999930557,['c'],1,left,['1'],1,0.35131730000011885,0.1,0,FastFast,29,19,Woman,Right,
1,6,1,0.35044120000020484,['n'],1,right,['1'],1,0.23490959999980987,0.1,0,FastFast,29,19,Woman,Right,
2,6,1,0.1830259999996997,['n'],1,right,['1'],1,0.8343862999990961,0.2,0,FastFast,29,19,Woman,Right,
3,6,1,0.06704569999965315,['c'],1,left,['1'],1,0.7011345000000802,0.1,0,FastFast,29,19,Woman,Right,
4,6,1,0.2835870999997496,['n'],0,left,['1'],1,0.18475080000007438,0.4,0,FastFast,29,19,Woman,Right,
5,6,1,0.28344620000007126,['n'],0,left,['1'],1,0.20218759999988833,0.1,0,FastFast,29,19,Woman,Right,
6,6,1,0.4503311999997095,['c'],1,left,['1'],1,0.4843550999994477,0.2,0,FastFast,29,19,Woman,Right,
7,6,1,0.3504358999998658,['n'],1,right,['1'],1,0.20000510000045324,0.1,0,FastFast,29,19,Woman,Right,
8,6,1,0.3843028000001141,['n'],0,left,['1'],1,0.21677589999944757,0.4,0,FastFast,29,19,Woman,Right,
9,6,1,0.6845176999995601,['c'],0,right,['1'],1,0.35133479999967676,0.2,0,FastFast,29,19,Woman,Right,
10,6,1,0.3167330000005677,['n'],1,right,['1'],1,0.23461450000013429,0.2,0,FastFast,29,19,Woman,Right,
11,6,1,1.0486965000000055,['n'],0,left,['1'],1,0.5521324000001187,0.4,0,FastFast,29,19,Woman,Right,
12,6,1,0.2503596999995352,['n'],1,right,['1'],1,0.38313860000016575,0.1,0,FastFast,29,19,Woman,Right,
13,6,1,0.6341310999996495,['n'],0,left,['1'],1,0.8348218000000998,0.1,0,FastFast,29,19,Woman,Right,
14,6,1,0.1509292999999161,['n'],1,right,['1'],1,1.0179768999996668,0.4,0,FastFast,29,19,Woman,Right,
15,6,1,0.46788889999970706,['c'],0,right,['1'],1,0.45064730000012787,0.2,0,FastFast,29,19,Woman,Right,
16,6,1,0.5010352000008425,['n'],1,right,['1'],1,0.8010408000000098,0.2,0,FastFast,29,19,Woman,Right,
17,6,1,1.9000458000000435,['c'],1,left,['1'],1,0.568148199999996,0.4,0,FastFast,29,19,Woman,Right,
18,6,1,0.5500713000001269,['n'],0,left,['1'],1,1.284177699999418,0.1,0,FastFast,29,19,Woman,Right,
19,6,1,0.3995418000004065,['c'],1,left,['1'],1,0.46785859999999957,0.1,0,FastFast,29,19,Woman,Right,
20,6,1,0.5824345999999423,['c'],0,right,['1'],1,4.651204800000414,0.1,0,FastFast,29,19,Woman,Right,
21,6,1,0.4336097000004884,['n'],1,right,['1'],1,0.3349527999998827,0.2,0,FastFast,29,19,Woman,Right,
22,6,1,0.38361649999933434,['c'],1,left,['1'],1,0.46829129999969155,0.4,0,FastFast,29,19,Woman,Right,
23,6,1,0.5001420999997208,['n'],1,right,['1'],1,0.40175710000039544,0.1,0,FastFast,29,19,Woman,Right,
24,6,1,0.5004548999995677,['c'],0,right,['1'],1,0.45142180000038934,0.1,0,FastFast,29,19,Woman,Right,
25,6,1,0.9341795000000275,['c'],1,left,['1'],1,0.4846523000005618,0.2,0,FastFast,29,19,Woman,Right,
26,6,1,0.8831172000000151,['n'],0,left,['1'],1,0.45077740000033373,0.2,0,FastFast,29,19,Woman,Right,
27,6,1,3.6323818999999276,['n'],0,left,['1'],1,0.43461740000020654,0.1,0,FastFast,29,19,Woman,Right,
28,6,1,0.3827457000006689,['c'],1,left,['1'],1,0.5181225000005725,0.4,0,FastFast,29,19,Woman,Right,
29,6,1,0.43328399999973044,['n'],1,right,['1'],1,0.23486360000060813,0.4,0,FastFast,29,19,Woman,Right,
30,6,1,0.3339691999999559,['c'],1,left,['1'],1,0.3348612999998295,0.1,0,FastFast,29,19,Woman,Right,
31,6,1,0.30013959999996587,['n'],1,right,['1'],1,0.26669069999934436,0.2,0,FastFast,29,19,Woman,Right,
32,6,1,0.43501369999921735,['c'],0,right,['1'],1,0.36734900000010384,0.2,0,FastFast,29,19,Woman,Right,
33,6,1,0.3336098999998285,['n'],0,left,['1'],1,0.2515693999994255,0.2,0,FastFast,29,19,Woman,Right,
34,6,1,4.832750200000191,['n'],1,right,['1'],1,0.3683597999997801,0.2,0,FastFast,29,19,Woman,Right,
35,6,1,0.8672858999998425,['n'],0,left,['1'],1,0.5847986999997374,0.2,0,FastFast,29,19,Woman,Right,
36,6,1,0.1344017999999778,['c'],1,left,['1'],1,0.45098700000016834,0.2,0,FastFast,29,19,Woman,Right,
37,6,1,1.184760500000266,['n'],1,right,['1'],1,0.36782810000022437,0.1,0,FastFast,29,19,Woman,Right,
38,6,1,0.7009257999998226,['n'],0,left,['1'],1,0.40131409999958123,0.2,0,FastFast,29,19,Woman,Right,
39,6,1,0.25038989999939076,['c'],1,left,['1'],1,0.3999303999999029,0.4,0,FastFast,29,19,Woman,Right,
40,6,1,0.8343780999994124,['c'],1,left,['1'],1,0.43445879999944736,0.4,0,FastFast,29,19,Woman,Right,
41,6,1,0.916380499999832,['c'],1,left,none,-99,-99,0.1,1,FastFast,29,19,Woman,Right,
42,6,1,0.36727950000022247,['c'],0,right,['1'],1,0.23478119999981573,0.4,0,FastFast,29,19,Woman,Right,
43,6,1,0.26789929999995366,['n'],1,right,['1'],1,0.15143200000056822,0.2,0,FastFast,29,19,Woman,Right,
44,6,1,0.7166189999998096,['c'],0,right,['1'],1,0.2523369000000457,0.2,0,FastFast,29,19,Woman,Right,
45,6,1,0.2833156000006056,['n'],1,right,['1'],1,0.1848493999996208,0.4,0,FastFast,29,19,Woman,Right,
46,6,1,0.2835434000007808,['c'],0,right,['1'],1,0.25179149999985384,0.1,0,FastFast,29,19,Woman,Right,
47,6,1,0.3327826000004279,['c'],1,left,['1'],1,0.21855859999959648,0.4,0,FastFast,29,19,Woman,Right,
48,6,1,0.25119400000039604,['n'],1,right,['1'],1,0.2013411999996606,0.2,0,FastFast,29,19,Woman,Right,
49,6,1,0.28301529999953345,['c'],0,right,['1'],1,0.21787590000167256,0.4,0,FastFast,29,19,Woman,Right,
50,6,1,0.3166289000000688,['n'],0,left,['1'],1,0.25169719999939844,0.1,0,FastFast,29,19,Woman,Right,
51,6,1,0.3167592000008881,['c'],0,right,['1'],1,0.2349209999993036,0.4,0,FastFast,29,19,Woman,Right,
52,6,1,0.3323533000002499,['n'],0,left,['1'],1,0.30084610000085377,0.4,0,FastFast,29,19,Woman,Right,
53,6,1,0.3838264000005438,['c'],0,right,['1'],1,0.21718460000010964,0.4,0,FastFast,29,19,Woman,Right,
54,6,1,0.30057160000069416,['c'],0,right,['1'],1,0.3015248000010615,0.4,0,FastFast,29,19,Woman,Right,
55,6,1,0.24912719999883848,['n'],0,left,['1'],1,0.2681627000001754,0.1,0,FastFast,29,19,Woman,Right,
56,6,1,0.3007452999991074,['c'],1,left,['1'],1,0.30129370000031486,0.2,0,FastFast,29,19,Woman,Right,
57,6,1,0.366996000000654,['c'],0,right,['1'],1,0.2846757000006619,0.1,0,FastFast,29,19,Woman,Right,
58,6,1,0.25189099999988684,['n'],0,left,['1'],1,0.28316369999993185,0.4,0,FastFast,29,19,Woman,Right,
59,6,1,0.3841123999991396,['c'],0,right,['1'],1,0.8838051000002451,0.4,0,FastFast,29,19,Woman,Right,
0,7,1,0.30070139999952517,['n'],0,left,['1'],1,0.23366750000059255,0.1,0,AccFast,29,19,Woman,Right,
1,7,1,0.2337215000006836,['c'],0,right,['1'],1,0.21794719999888912,0.1,0,AccFast,29,19,Woman,Right,
2,7,1,0.24954590000015742,['n'],1,right,['1'],1,0.23336789999848406,0.1,0,AccFast,29,19,Woman,Right,
3,7,1,0.7502755999994406,['c'],0,right,['1'],1,0.2673614000013913,0.1,0,AccFast,29,19,Woman,Right,
4,7,1,0.34970419999990554,['n'],0,left,['1'],1,0.3844784000011714,0.2,0,AccFast,29,19,Woman,Right,
5,7,1,0.2840907000008883,['c'],0,right,['1'],1,0.3177009999999427,0.1,0,AccFast,29,19,Woman,Right,
6,7,1,0.33428709999861894,['n'],0,left,['1'],1,0.2503716999999597,0.1,0,AccFast,29,19,Woman,Right,
7,7,1,0.31643440000152623,['c'],0,right,['1'],1,0.034188700001323014,0.4,0,AccFast,29,19,Woman,Right,
8,7,1,0.683675400001448,['n'],1,right,['1'],1,0.48466999999982363,0.1,0,AccFast,29,19,Woman,Right,
9,7,1,0.4503026000002137,['n'],1,right,['1'],1,0.16831449999881443,0.1,0,AccFast,29,19,Woman,Right,
10,7,1,0.21826709999913874,['n'],1,right,['1'],1,0.1847741000001406,0.4,0,AccFast,29,19,Woman,Right,
11,7,1,0.265813199999684,['n'],0,left,['1'],1,0.21893179999824497,0.4,0,AccFast,29,19,Woman,Right,
12,7,1,0.28140560000065307,['c'],0,right,['1'],1,0.2355067999997118,0.1,0,AccFast,29,19,Woman,Right,
13,7,1,0.05053489999954763,['c'],0,right,['1'],1,0.35140810000120837,0.4,0,AccFast,29,19,Woman,Right,
14,7,1,0.033172400000694324,['n'],1,right,['1'],1,0.28472729999884905,0.2,0,AccFast,29,19,Woman,Right,
15,7,1,0.23356450000028417,['c'],1,left,['1'],1,0.23477859999911743,0.4,0,AccFast,29,19,Woman,Right,
16,7,1,0.08236589999978605,['n'],0,left,['1'],1,0.23551939999924798,0.2,0,AccFast,29,19,Woman,Right,
17,7,1,0.33299090000036813,['c'],0,right,['1'],1,0.251377999999022,0.2,0,AccFast,29,19,Woman,Right,
18,7,1,0.25041069999861065,['n'],0,left,['1'],1,0.25133520000053977,0.1,0,AccFast,29,19,Woman,Right,
19,7,1,0.23321539999960805,['c'],0,right,['1'],1,0.3007355000008829,0.1,0,AccFast,29,19,Woman,Right,
20,7,1,0.9159980999993422,['c'],1,left,['1'],1,0.3681302000004507,0.2,0,AccFast,29,19,Woman,Right,
21,7,1,0.03345190000072762,['n'],1,right,['1'],1,0.31799450000107754,0.1,0,AccFast,29,19,Woman,Right,
22,7,1,0.2842252999998891,['c'],1,left,['1'],1,0.16695179999987886,0.4,0,AccFast,29,19,Woman,Right,
23,7,1,0.31632660000104806,['n'],0,left,['1'],1,0.25187580000056187,0.2,0,AccFast,29,19,Woman,Right,
24,7,1,0.5325938999994833,['n'],1,right,['8'],4,4.81841809999969,0.4,0,AccFast,29,19,Woman,Right,
25,7,1,1.4170603999991727,['n'],0,left,['8'],4,0.21686169999884441,0.4,0,AccFast,29,19,Woman,Right,
26,7,1,0.15145230000052834,['c'],0,right,['8'],4,2.2334678000006534,0.1,0,AccFast,29,19,Woman,Right,
27,7,1,1.3320182000006753,['c'],0,right,['8'],4,0.4176348000000871,0.4,0,AccFast,29,19,Woman,Right,
28,7,1,1.4182079999991402,['n'],0,left,['9'],5,0.9181788999994751,0.4,0,AccFast,29,19,Woman,Right,
29,7,1,0.48385919999964244,['n'],0,left,['9'],5,0.5005404999992606,0.1,0,AccFast,29,19,Woman,Right,
30,7,1,0.6670496999995521,['n'],1,right,['9'],5,0.6346758999989106,0.2,0,AccFast,29,19,Woman,Right,
31,7,1,0.5003710000000865,['n'],0,left,['9'],5,0.4505484000001161,0.2,0,AccFast,29,19,Woman,Right,
32,7,1,0.5822743000007904,['n'],0,left,['9'],5,0.38435589999971853,0.1,0,AccFast,29,19,Woman,Right,
33,7,1,0.4846527999998216,['n'],0,left,['9'],5,0.3181203000003734,0.2,0,AccFast,29,19,Woman,Right,
34,7,1,0.3507164000002376,['n'],0,left,['9'],5,0.23405710000042745,0.1,0,AccFast,29,19,Woman,Right,
35,7,1,0.4175868999991508,['n'],0,left,['0'],6,0.5844981000009284,0.4,0,AccFast,29,19,Woman,Right,
36,7,1,0.9495064000002458,['n'],1,right,['9'],5,0.2674047000000428,0.2,0,AccFast,29,19,Woman,Right,
37,7,1,0.36725660000047355,['n'],0,left,['9'],5,0.26810889999978826,0.4,0,AccFast,29,19,Woman,Right,
38,7,1,0.3497096999999485,['n'],0,left,['9'],5,0.16811799999959476,0.4,0,AccFast,29,19,Woman,Right,
39,7,1,0.48430369999914546,['n'],0,left,['9'],5,0.23497300000053656,0.2,0,AccFast,29,19,Woman,Right,
40,7,1,0.568156799999997,['c'],0,right,['9'],5,0.4169597000000067,0.2,0,AccFast,29,19,Woman,Right,
41,7,1,1.7672925999995641,['n'],0,left,['8'],4,0.8178764000003866,0.2,0,AccFast,29,19,Woman,Right,
42,7,1,0.8159976999995706,['n'],1,right,['8'],4,0.4518601999989187,0.1,0,AccFast,29,19,Woman,Right,
43,7,1,0.10055800000009185,['n'],1,right,['8'],4,0.43467389999932493,0.2,0,AccFast,29,19,Woman,Right,
44,7,1,0.5834919000008085,['n'],1,right,['9'],5,0.36870970000018133,0.2,0,AccFast,29,19,Woman,Right,
45,7,1,0.150425499999983,['n'],1,right,['9'],5,0.3184691999995266,0.2,0,AccFast,29,19,Woman,Right,
46,7,1,0.25173369999902206,['n'],1,right,['8'],4,0.2512105000005249,0.4,0,AccFast,29,19,Woman,Right,
47,7,1,0.2670090000010532,['n'],1,right,['9'],5,0.18455320000066422,0.2,0,AccFast,29,19,Woman,Right,
48,7,1,0.05008569999881729,['n'],0,left,['9'],5,0.3670645999991393,0.4,0,AccFast,29,19,Woman,Right,
49,7,1,2.2842522999999346,['n'],0,left,['8'],4,0.2833289000009245,0.1,0,AccFast,29,19,Woman,Right,
50,7,1,0.4339713000008487,['n'],0,left,['8'],4,0.28490160000001197,0.1,0,AccFast,29,19,Woman,Right,
51,7,1,0.3168303999991622,['n'],0,left,['8'],4,0.2682175999998435,0.4,0,AccFast,29,19,Woman,Right,
52,7,1,0.38238730000011856,['c'],0,right,['8'],4,0.4180973000002268,0.4,0,AccFast,29,19,Woman,Right,
53,7,1,0.2835589999995136,['n'],1,right,['8'],4,0.48394740000003367,0.2,0,AccFast,29,19,Woman,Right,
54,7,1,0.41760729999987234,['n'],0,left,['8'],4,1.6344465000001946,0.4,0,AccFast,29,19,Woman,Right,
55,7,1,0.6320789999990666,['n'],0,left,['8'],4,0.6853333999988536,0.2,0,AccFast,29,19,Woman,Right,
56,7,1,0.9821420000007492,['n'],1,right,['8'],4,0.7672160000001895,0.4,0,AccFast,29,19,Woman,Right,
57,7,1,0.5003141999986838,['n'],1,right,['8'],4,0.8844473999997717,0.4,0,AccFast,29,19,Woman,Right,
58,7,1,0.3009470999986661,['c'],1,left,['8'],4,0.4675407000013365,0.1,0,AccFast,29,19,Woman,Right,
59,7,1,0.23384009999972477,['n'],0,left,['8'],4,0.4179813999999169,0.2,0,AccFast,29,19,Woman,Right,
0,8,1,0.6500293000008242,['n'],1,right,['8'],4,0.31860779999988154,0.2,0,AccAcc,29,19,Woman,Right,
1,8,1,1.0508855000007316,['c'],0,right,['3'],3,1.201267899999948,0.1,0,AccAcc,29,19,Woman,Right,
2,8,1,0.5173353999998653,['n'],0,left,['3'],3,1.117882100001225,0.2,0,AccAcc,29,19,Woman,Right,
3,8,1,0.9324791000017285,['c'],1,left,['3'],3,0.918682000001354,0.2,0,AccAcc,29,19,Woman,Right,
4,8,1,0.9993240000003425,['c'],0,right,['2'],2,0.268127800000002,0.1,0,AccAcc,29,19,Woman,Right,
5,8,1,0.38220060000094236,['c'],1,left,['2'],2,0.28567130000010366,0.4,0,AccAcc,29,19,Woman,Right,
6,8,1,0.2677908000005118,['n'],0,left,['2'],2,0.45146850000128325,0.1,0,AccAcc,29,19,Woman,Right,
7,8,1,0.233647099999871,['c'],1,left,['2'],2,0.6012532000004285,0.4,0,AccAcc,29,19,Woman,Right,
8,8,1,0.01587450000079116,['n'],0,left,['2'],2,0.4191303000006883,0.4,0,AccAcc,29,19,Woman,Right,
9,8,1,0.8180185999990499,['c'],1,left,['2'],2,0.5509393000011187,0.1,0,AccAcc,29,19,Woman,Right,
10,8,1,0.5818729999991774,['c'],0,right,['2'],2,0.30147480000050564,0.1,0,AccAcc,29,19,Woman,Right,
11,8,1,0.3500137999999424,['n'],0,left,['2'],2,0.33465829999840935,0.1,0,AccAcc,29,19,Woman,Right,
12,8,1,0.36534500000016124,['c'],1,left,['2'],2,0.28415529999983846,0.1,0,AccAcc,29,19,Woman,Right,
13,8,1,0.29911819999870204,['n'],1,right,['2'],2,0.5692922999987786,0.1,0,AccAcc,29,19,Woman,Right,
14,8,1,0.24844909999956144,['n'],1,right,['2'],2,0.3343747999988409,0.2,0,AccAcc,29,19,Woman,Right,
15,8,1,0.3016931000001932,['c'],0,right,['2'],2,0.20122410000112723,0.4,0,AccAcc,29,19,Woman,Right,
16,8,1,0.2827705999989121,['c'],0,right,['2'],2,0.25209259999974165,0.4,0,AccAcc,29,19,Woman,Right,
17,8,1,0.3339860000014596,['n'],1,right,['2'],2,0.2678072999988217,0.4,0,AccAcc,29,19,Woman,Right,
18,8,1,0.08445939999910479,['n'],1,right,['2'],2,0.36816280000130064,0.4,0,AccAcc,29,19,Woman,Right,
19,8,1,0.2997118000002956,['n'],1,right,['2'],2,0.3344615000005433,0.1,0,AccAcc,29,19,Woman,Right,
20,8,1,0.5010230000007141,['c'],0,right,['2'],2,0.31692389999989246,0.1,0,AccAcc,29,19,Woman,Right,
21,8,1,0.3006645999994362,['n'],1,right,['2'],2,0.4024191000007704,0.4,0,AccAcc,29,19,Woman,Right,
22,8,1,0.06775759999982256,['c'],0,right,['2'],2,0.634407999999894,0.4,0,AccAcc,29,19,Woman,Right,
23,8,1,2.249176899998929,['c'],1,left,['2'],2,0.551139700000931,0.2,0,AccAcc,29,19,Woman,Right,
24,8,1,0.16801439999835566,['c'],0,right,['2'],2,0.3341011000011349,0.2,0,AccAcc,29,19,Woman,Right,
25,8,1,0.4008737000003748,['c'],1,left,['2'],2,0.33405990000028396,0.1,0,AccAcc,29,19,Woman,Right,
26,8,1,0.43436690000089584,['c'],1,left,['2'],2,0.368172800001048,0.4,0,AccAcc,29,19,Woman,Right,
27,8,1,0.3669878999990033,['c'],0,right,['2'],2,0.36712729999999283,0.2,0,AccAcc,29,19,Woman,Right,
28,8,1,0.3502918000012869,['n'],0,left,['2'],2,0.5500905999997485,0.1,0,AccAcc,29,19,Woman,Right,
29,8,1,0.3840459999992163,['c'],1,left,['2'],2,0.4178561999997328,0.2,0,AccAcc,29,19,Woman,Right,
30,8,1,0.5000792999999248,['n'],1,right,['2'],2,0.834837600001265,0.2,0,AccAcc,29,19,Woman,Right,
31,8,1,0.3989151000005222,['c'],0,right,['2'],2,0.41742789999989327,0.1,0,AccAcc,29,19,Woman,Right,
32,8,1,1.1669806000008975,['c'],1,left,['2'],2,1.433421100000487,0.2,0,AccAcc,29,19,Woman,Right,
33,8,1,0.06714979999924253,['n'],0,left,['2'],2,0.6026115999993635,0.1,0,AccAcc,29,19,Woman,Right,
34,8,1,0.05044910000106029,['c'],1,left,['2'],2,0.6682122999991407,0.1,0,AccAcc,29,19,Woman,Right,
35,8,1,0.36764270000094257,['c'],1,left,['2'],2,0.5679577000009886,0.1,0,AccAcc,29,19,Woman,Right,
36,8,1,0.4507912999997643,['c'],0,right,['2'],2,0.551054400000794,0.1,0,AccAcc,29,19,Woman,Right,
37,8,1,0.2845749000007345,['c'],0,right,['2'],2,0.28284739999980957,0.2,0,AccAcc,29,19,Woman,Right,
38,8,1,0.04967949999991106,['c'],1,left,['2'],2,0.26928529999895545,0.4,0,AccAcc,29,19,Woman,Right,
39,8,1,0.5673989999995683,['c'],1,left,['2'],2,0.33323750000090513,0.2,0,AccAcc,29,19,Woman,Right,
40,8,1,0.44918540000071516,['n'],1,right,['2'],2,0.28438939999978174,0.4,0,AccAcc,29,19,Woman,Right,
41,8,1,0.4006712999998854,['c'],0,right,['2'],2,0.7169727000000421,0.1,0,AccAcc,29,19,Woman,Right,
42,8,1,0.36597729999994044,['c'],1,left,['2'],2,0.5525999999990745,0.4,0,AccAcc,29,19,Woman,Right,
43,8,1,0.04970550000143703,['c'],1,left,['2'],2,0.5012994999997318,0.4,0,AccAcc,29,19,Woman,Right,
44,8,1,0.5835786999996344,['c'],1,left,['2'],2,0.5345983000006527,0.4,0,AccAcc,29,19,Woman,Right,
45,8,1,0.8495645999992121,['n'],0,left,['2'],2,0.4513876999990316,0.4,0,AccAcc,29,19,Woman,Right,
46,8,1,0.5324968000004446,['n'],0,left,['2'],2,0.41762180000114313,0.4,0,AccAcc,29,19,Woman,Right,
47,8,1,0.10039319999850704,['n'],1,right,['2'],2,0.6667945000008331,0.2,0,AccAcc,29,19,Woman,Right,
48,8,1,0.7828718000000663,['n'],0,left,['2'],2,0.38348469999982626,0.2,0,AccAcc,29,19,Woman,Right,
49,8,1,0.6009776000009879,['c'],1,left,['2'],2,0.7180321999985608,0.1,0,AccAcc,29,19,Woman,Right,
50,8,1,0.8996471999998903,['n'],1,right,['2'],2,1.2167915999998513,0.4,0,AccAcc,29,19,Woman,Right,
51,8,1,0.418146699999852,['c'],0,right,['2'],2,0.7843727999988914,0.1,0,AccAcc,29,19,Woman,Right,
52,8,1,0.33461939999870083,['c'],0,right,['2'],2,0.21689299999889045,0.4,0,AccAcc,29,19,Woman,Right,
53,8,1,0.33304169999973965,['c'],0,right,['2'],2,0.21748800000023039,0.2,0,AccAcc,29,19,Woman,Right,
54,8,1,0.3171557000005123,['n'],0,left,['2'],2,0.28469140000015614,0.2,0,AccAcc,29,19,Woman,Right,
55,8,1,0.46538090000103693,['c'],0,right,['2'],2,0.2849139000009018,0.2,0,AccAcc,29,19,Woman,Right,
56,8,1,0.23315369999909308,['n'],1,right,['2'],2,0.5841497000001254,0.2,0,AccAcc,29,19,Woman,Right,
57,8,1,0.9150524999986374,['n'],1,right,['2'],2,1.884278200001063,0.2,0,AccAcc,29,19,Woman,Right,
58,8,1,0.4169988000012381,['n'],0,left,['2'],2,0.45179230000030657,0.2,0,AccAcc,29,19,Woman,Right,
59,8,1,0.40138979999937874,['n'],0,left,['2'],2,0.33358860000043933,0.4,0,AccAcc,29,19,Woman,Right,
0,9,1,0.19942799999989802,['c'],0,right,['2'],2,0.3517076999996789,0.4,0,FastAcc,29,19,Woman,Right,
1,9,1,0.16651350000029197,['c'],1,left,['2'],2,0.21804060000067693,0.2,0,FastAcc,29,19,Woman,Right,
2,9,1,0.5503995999988547,['c'],1,left,['2'],2,0.1669149000008474,0.2,0,FastAcc,29,19,Woman,Right,
3,9,1,1.3170855000007577,['c'],1,left,['2'],2,0.5521492000007129,0.2,0,FastAcc,29,19,Woman,Right,
4,9,1,0.4010335999992094,['n'],1,right,['2'],2,1.3177531000001181,0.4,0,FastAcc,29,19,Woman,Right,
5,9,1,1.69934049999938,['n'],0,left,['2'],2,1.4686462999998184,0.1,0,FastAcc,29,19,Woman,Right,
6,9,1,0.6994667999988451,['n'],1,right,['2'],2,0.7506033999998181,0.1,0,FastAcc,29,19,Woman,Right,
7,9,1,2.4342992000001686,['n'],1,right,['2'],2,4.20064789999924,0.4,0,FastAcc,29,19,Woman,Right,
8,9,1,0.3833716999997705,['n'],1,right,['2'],2,0.28306739999970887,0.4,0,FastAcc,29,19,Woman,Right,
9,9,1,0.10010359999978391,['c'],0,right,['2'],2,0.3029468000004272,0.1,0,FastAcc,29,19,Woman,Right,
10,9,1,0.41593289999946137,"['n', 'c']",1,right,['3'],3,0.5018503999999666,0.4,0,FastAcc,29,19,Woman,Right,
11,9,1,1.3838596000005055,['n'],1,right,['3'],3,0.600219099998867,0.1,0,FastAcc,29,19,Woman,Right,
12,9,1,0.6847992000002705,['c'],1,left,['2'],2,0.5510821999996551,0.2,0,FastAcc,29,19,Woman,Right,
13,9,1,0.5325443000001542,['n'],0,left,['2'],2,0.6360672000009799,0.1,0,FastAcc,29,19,Woman,Right,
14,9,1,0.11716119999982766,['c'],0,right,['2'],2,0.6349000000009255,0.2,0,FastAcc,29,19,Woman,Right,
15,9,1,0.31789819999903557,['n'],1,right,['2'],2,0.5518057999997836,0.4,0,FastAcc,29,19,Woman,Right,
16,9,1,0.06699169999956212,['n'],0,left,['3'],3,1.066643699999986,0.2,0,FastAcc,29,19,Woman,Right,
17,9,1,0.49883539999973436,['n'],0,left,['2'],2,0.5174996000005194,0.4,0,FastAcc,29,19,Woman,Right,
18,9,1,0.11652390000017476,['n'],0,left,['2'],2,0.5183415999999852,0.2,0,FastAcc,29,19,Woman,Right,
19,9,1,0.05003670000041893,['n'],0,left,['2'],2,1.435507800000778,0.1,0,FastAcc,29,19,Woman,Right,
20,9,1,0.7827316000002611,['n'],0,left,['3'],3,0.6004274000006262,0.2,0,FastAcc,29,19,Woman,Right,
21,9,1,0.9345966000000772,['c'],0,right,['2'],2,0.33460890000060317,0.2,0,FastAcc,29,19,Woman,Right,
22,9,1,1.383368299999347,['n'],1,right,['2'],2,0.5008293999999296,0.4,0,FastAcc,29,19,Woman,Right,
23,9,1,0.8007943000011437,['c'],1,left,['2'],2,1.150726100000611,0.1,0,FastAcc,29,19,Woman,Right,
24,9,1,0.06748410000000149,['n'],0,left,"['2', '3']",2,0.6830448000000615,0.1,0,FastAcc,29,19,Woman,Right,
25,9,1,0.16729470000063884,['c'],0,right,['2'],2,0.4693760999998631,0.4,0,FastAcc,29,19,Woman,Right,
26,9,1,0.7513091000000713,['c'],0,right,['2'],2,0.6500525999999809,0.4,0,FastAcc,29,19,Woman,Right,
27,9,1,0.49921460000041407,['n'],0,left,['3'],3,0.3691329000012047,0.2,0,FastAcc,29,19,Woman,Right,
28,9,1,0.3001974999988306,['c'],0,right,['3'],3,0.26709130000017467,0.4,0,FastAcc,29,19,Woman,Right,
29,9,1,0.34993539999959467,['c'],1,left,['2'],2,1.1672158999990643,0.2,0,FastAcc,29,19,Woman,Right,
30,9,1,0.5004668000001402,['c'],0,right,['2'],2,0.4174870999995619,0.1,0,FastAcc,29,19,Woman,Right,
31,9,1,0.8504424999991897,['c'],0,right,['3'],3,2.65141229999972,0.4,0,FastAcc,29,19,Woman,Right,
32,9,1,0.41746560000137833,['n'],1,right,['3'],3,1.1998397000006662,0.4,0,FastAcc,29,19,Woman,Right,
33,9,1,0.21584419999999227,['n'],0,left,['2'],2,0.6832615999992413,0.1,0,FastAcc,29,19,Woman,Right,
34,9,1,0.7167644000001019,['n'],1,right,['3'],3,1.4164737999999488,0.1,0,FastAcc,29,19,Woman,Right,
35,9,1,0.6684346999991249,['c'],1,left,['2'],2,0.5173445000000356,0.2,0,FastAcc,29,19,Woman,Right,
36,9,1,0.3674955000005866,['n'],0,left,['2'],2,0.4181558000000223,0.1,0,FastAcc,29,19,Woman,Right,
37,9,1,1.0497061000005488,['n'],0,left,['3'],3,0.4675497999996878,0.1,0,FastAcc,29,19,Woman,Right,
38,9,1,0.8829938999988372,['c'],1,left,['3'],3,0.5012862999992649,0.1,0,FastAcc,29,19,Woman,Right,
39,9,1,0.16821770000024117,['c'],0,right,['2'],2,0.4004525000000285,0.2,0,FastAcc,29,19,Woman,Right,
40,9,1,0.8342463000008138,['n'],1,right,['2'],2,0.5012115000008635,0.2,0,FastAcc,29,19,Woman,Right,
41,9,1,0.8158301000003121,['c'],1,left,['2'],2,0.48511709999911545,0.1,0,FastAcc,29,19,Woman,Right,
42,9,1,0.565990299999612,['c'],0,right,['2'],2,0.5686869000001025,0.4,0,FastAcc,29,19,Woman,Right,
43,9,1,0.532995800000208,['c'],0,right,['3'],3,0.4018133999998099,0.2,0,FastAcc,29,19,Woman,Right,
44,9,1,0.5996054999995977,['n'],0,left,['2'],2,0.550647600000957,0.1,0,FastAcc,29,19,Woman,Right,
45,9,1,0.11677050000071176,['c'],1,left,['3'],3,0.6011928999996599,0.4,0,FastAcc,29,19,Woman,Right,
46,9,1,0.816772399999536,['c'],0,right,['2'],2,2.6179393000002165,0.2,0,FastAcc,29,19,Woman,Right,
47,9,1,0.46659550000003946,['n'],0,left,['2'],2,0.8354407999995601,0.4,0,FastAcc,29,19,Woman,Right,
48,9,1,0.45048599999972794,['c'],0,right,['3'],3,0.568237899999076,0.1,0,FastAcc,29,19,Woman,Right,
49,9,1,0.9497295999990456,['c'],0,right,['3'],3,0.36882150000019465,0.4,0,FastAcc,29,19,Woman,Right,
50,9,1,0.10130029999891121,['n'],1,right,['2'],2,0.44996510000055423,0.1,0,FastAcc,29,19,Woman,Right,
51,9,1,0.43167259999972885,['c'],1,left,['2'],2,0.5689127999994525,0.1,0,FastAcc,29,19,Woman,Right,
52,9,1,0.2338822000001528,['c'],1,left,['2'],2,0.700919700000668,0.2,0,FastAcc,29,19,Woman,Right,
53,9,1,1.2843743000012182,['n'],0,left,['3'],3,0.5495001999988745,0.4,0,FastAcc,29,19,Woman,Right,
54,9,1,0.4163879999996425,['c'],0,right,['2'],2,0.3171133000014379,0.2,0,FastAcc,29,19,Woman,Right,
55,9,1,0.3489275000010821,['c'],1,left,['2'],2,0.45072760000039125,0.2,0,FastAcc,29,19,Woman,Right,
56,9,1,0.4665550000008807,['c'],0,right,['3'],3,0.7665914999997767,0.4,0,FastAcc,29,19,Woman,Right,
57,9,1,0.1516947000000073,['n'],1,right,['2'],2,0.6180846999995993,0.2,0,FastAcc,29,19,Woman,Right,
58,9,1,0.6319025000011607,['n'],0,left,['2'],2,1.4353433000014775,0.1,0,FastAcc,29,19,Woman,Right,
59,9,1,0.41782450000027893,['c'],1,left,['2'],2,0.518346399998336,0.4,0,FastAcc,29,19,Woman,Right,
0,10,1,0.6015058000011777,['c'],1,left,['3'],3,0.3179901000003156,0.2,0,FastFast,29,19,Woman,Right,
1,10,1,0.5167083000014827,['n'],0,left,['2'],2,0.33468639999955485,0.2,0,FastFast,29,19,Woman,Right,
2,10,1,0.41692999999941094,['c'],0,right,['3'],3,0.6845493000000715,0.4,0,FastFast,29,19,Woman,Right,
3,10,1,0.10062839999955031,['c'],0,right,['3'],3,0.5014854999990348,0.4,0,FastFast,29,19,Woman,Right,
4,10,1,0.2996161999999458,['c'],0,right,['3'],3,0.41750949999914155,0.4,0,FastFast,29,19,Woman,Right,
5,10,1,1.0509613000012905,['c'],1,left,['2'],2,0.500568999999814,0.1,0,FastFast,29,19,Woman,Right,
6,10,1,1.1010040000001027,['c'],1,left,['2'],2,0.8000219000005018,0.4,0,FastFast,29,19,Woman,Right,
7,10,1,0.8683547000000544,['n'],1,right,['2'],2,0.5006600999986404,0.1,0,FastFast,29,19,Woman,Right,
8,10,1,1.3671948000010161,['c'],0,right,['2'],2,3.1008351000000403,0.2,0,FastFast,29,19,Woman,Right,
9,10,1,0.3663811000005808,['n'],1,right,['2'],2,0.16891190000023926,0.4,0,FastFast,29,19,Woman,Right,
10,10,1,0.33329699999922013,['c'],0,right,['2'],2,0.18483549999837123,0.2,0,FastFast,29,19,Woman,Right,
11,10,1,0.2846103000010771,['c'],1,left,['2'],2,0.18503330000021379,0.1,0,FastFast,29,19,Woman,Right,
12,10,1,0.2832695999986754,['c'],0,right,['2'],2,0.20201690000067174,0.1,0,FastFast,29,19,Woman,Right,
13,10,1,0.2676329000005353,['n'],1,right,['2'],2,0.30032890000074985,0.2,0,FastFast,29,19,Woman,Right,
14,10,1,0.2671370999996725,['c'],0,right,['2'],2,0.28361649999897054,0.4,0,FastFast,29,19,Woman,Right,
15,10,1,0.26777860000038345,['c'],1,left,['2'],2,0.28424059999997553,0.1,0,FastFast,29,19,Woman,Right,
16,10,1,0.39899420000074315,['n'],0,left,['2'],2,0.4021156999988307,0.2,0,FastFast,29,19,Woman,Right,
17,10,1,0.3656279999995604,['n'],0,left,['2'],2,0.4521358000001783,0.2,0,FastFast,29,19,Woman,Right,
18,10,1,0.28416139999899315,['n'],0,left,['2'],2,0.3667536000011751,0.1,0,FastFast,29,19,Woman,Right,
19,10,1,0.33396170000014536,['n'],1,right,['2'],2,0.21773920000123326,0.2,0,FastFast,29,19,Woman,Right,
20,10,1,0.38358709999920393,['c'],1,left,['2'],2,0.38467580000178714,0.2,0,FastFast,29,19,Woman,Right,
21,10,1,0.3999651000012818,['c'],0,right,['3'],3,0.41691420000097423,0.2,0,FastFast,29,19,Woman,Right,
22,10,1,0.967308100000082,['c'],1,left,['3'],3,0.33343779999995604,0.4,0,FastFast,29,19,Woman,Right,
23,10,1,0.43434349999915867,['n'],1,right,['2'],2,0.38470109999980195,0.4,0,FastFast,29,19,Woman,Right,
24,10,1,0.45017529999859107,['c'],1,left,['3'],3,0.3847337000006519,0.2,0,FastFast,29,19,Woman,Right,
25,10,1,0.38420880000012403,['n'],0,left,['2'],2,0.367458999999144,0.4,0,FastFast,29,19,Woman,Right,
26,10,1,0.14988170000106038,['c'],0,right,['3'],3,0.3852160000005824,0.4,0,FastFast,29,19,Woman,Right,
27,10,1,0.01741020000008575,['n'],0,left,['2'],2,0.3348535000004631,0.1,0,FastFast,29,19,Woman,Right,
28,10,1,0.49820740000177466,['c'],1,left,['3'],3,0.6019593000000896,0.2,0,FastFast,29,19,Woman,Right,
29,10,1,0.9839841000011802,['n'],1,right,['3'],3,1.0006893000008859,0.2,0,FastFast,29,19,Woman,Right,
30,10,1,0.6003018999999767,['c'],0,right,['3'],3,1.450166700000409,0.1,0,FastFast,29,19,Woman,Right,
31,10,1,1.0493337999996584,['n'],1,right,['2'],2,0.6353601000009803,0.1,0,FastFast,29,19,Woman,Right,
32,10,1,0.38248860000021523,['c'],0,right,['2'],2,0.3346611999986635,0.2,0,FastFast,29,19,Woman,Right,
33,10,1,0.45071660000030533,['n'],1,right,['2'],2,0.2684212000003754,0.1,0,FastFast,29,19,Woman,Right,
34,10,1,0.3164128000007622,['c'],1,left,['2'],2,0.2165593000008812,0.4,0,FastFast,29,19,Woman,Right,
35,10,1,0.2518607999991218,['n'],0,left,['2'],2,0.16843209999933606,0.4,0,FastFast,29,19,Woman,Right,
36,10,1,0.26753869999993185,['c'],0,right,['2'],2,0.1525017999992997,0.2,0,FastFast,29,19,Woman,Right,
37,10,1,0.21783729999879142,['n'],0,left,['2'],2,0.26802070000121603,0.4,0,FastFast,29,19,Woman,Right,
38,10,1,0.36626240000077814,['c'],1,left,['2'],2,0.3344025000005786,0.1,0,FastFast,29,19,Woman,Right,
39,10,1,0.30035230000066804,['n'],0,left,['2'],2,0.3499398000003566,0.2,0,FastFast,29,19,Woman,Right,
40,10,1,0.28238360000068496,['c'],1,left,['2'],2,0.2355535000006057,0.1,0,FastFast,29,19,Woman,Right,
41,10,1,0.30103799999960756,['n'],0,left,['2'],2,0.17994899999939662,0.4,0,FastFast,29,19,Woman,Right,
42,10,1,0.15006809999977122,['c'],1,left,['2'],2,0.13504909999937809,0.1,0,FastFast,29,19,Woman,Right,
43,10,1,0.6503463000008196,['n'],1,right,['2'],2,0.19953960000020743,0.1,0,FastFast,29,19,Woman,Right,
44,10,1,0.46723170000041137,"['n', 'c']",0,left,['2'],2,0.31711600000016915,0.1,0,FastFast,29,19,Woman,Right,
45,10,1,0.13363770000069053,['n'],1,right,['2'],2,0.35069970000040485,0.4,0,FastFast,29,19,Woman,Right,
46,10,1,0.3838433000000805,['c'],1,left,['2'],2,0.3165876000002754,0.1,0,FastFast,29,19,Woman,Right,
47,10,1,0.3507147000000259,['n'],0,left,['2'],2,0.30134609999913664,0.1,0,FastFast,29,19,Woman,Right,
48,10,1,0.38368160000027274,['c'],0,right,['2'],2,0.3004856999996264,0.2,0,FastFast,29,19,Woman,Right,
49,10,1,0.48440089999894553,['n'],1,right,['2'],2,0.3517824999998993,0.4,0,FastFast,29,19,Woman,Right,
50,10,1,0.20062049999978626,['c'],0,right,['2'],2,0.3350348000003578,0.4,0,FastFast,29,19,Woman,Right,
51,10,1,0.2817910000012489,['c'],1,left,['2'],2,0.2341679999990447,0.2,0,FastFast,29,19,Woman,Right,
52,10,1,0.317232100000183,['c'],0,right,['2'],2,0.28510090000054333,0.4,0,FastFast,29,19,Woman,Right,
53,10,1,0.31660809999993944,['c'],0,right,['2'],2,0.31651480000073207,0.1,0,FastFast,29,19,Woman,Right,
54,10,1,0.3166138000015053,['n'],1,right,['2'],2,0.2840353999999934,0.2,0,FastFast,29,19,Woman,Right,
55,10,1,0.49973420000060287,['n'],0,left,['2'],2,0.6499058000008517,0.4,0,FastFast,29,19,Woman,Right,
56,10,1,0.7824994999991759,['c'],0,right,['2'],2,2.6175210000001243,0.1,0,FastFast,29,19,Woman,Right,
57,10,1,0.4666806000004726,['n'],0,left,['2'],2,0.3170590000008815,0.4,0,FastFast,29,19,Woman,Right,
58,10,1,0.3838243999998667,['c'],1,left,['2'],2,0.28461260000040056,0.2,0,FastFast,29,19,Woman,Right,
59,10,1,0.18407200000001467,['n'],1,right,['2'],2,0.4681562000005215,0.1,0,FastFast,29,19,Woman,Right,
0,11,1,0.45136229999843636,['c'],1,left,['2'],2,0.3350417000001471,0.1,0,AccFast,29,19,Woman,Right,
1,11,1,0.29928599999948347,['n'],0,left,['2'],2,0.31773880000037025,0.1,0,AccFast,29,19,Woman,Right,
2,11,1,0.30101639999884355,['c'],1,left,['2'],2,0.3678546000010101,0.4,0,AccFast,29,19,Woman,Right,
3,11,1,0.3180188000005728,['n'],0,left,['2'],2,0.5167555999996694,0.2,0,AccFast,29,19,Woman,Right,
4,11,1,0.748808000000281,['c'],1,left,['2'],2,0.21984469999915746,0.1,0,AccFast,29,19,Woman,Right,
5,11,1,0.616095100000166,['n'],0,left,['2'],2,0.3515394000005472,0.4,0,AccFast,29,19,Woman,Right,
6,11,1,0.06577839999954449,['c'],1,left,['2'],2,0.4520777999987331,0.2,0,AccFast,29,19,Woman,Right,
7,11,1,0.5488363000004028,['n'],1,right,['2'],2,0.3337491999991471,0.2,0,AccFast,29,19,Woman,Right,
8,11,1,0.10011169999961567,['c'],1,left,['2'],2,0.28471259999969334,0.4,0,AccFast,29,19,Woman,Right,
9,11,1,0.4484797000004619,['n'],0,left,['2'],2,0.20221289999972214,0.1,0,AccFast,29,19,Woman,Right,
10,11,1,0.30201990000023216,['c'],0,right,['2'],2,0.18481710000014573,0.1,0,AccFast,29,19,Woman,Right,
11,11,1,0.23492319999968458,['n'],1,right,['2'],2,0.2017414000001736,0.1,0,AccFast,29,19,Woman,Right,
12,11,1,0.4145895000001474,['c'],0,right,['2'],2,0.2509181000004901,0.4,0,AccFast,29,19,Woman,Right,
13,11,1,0.31895780000013474,['n'],1,right,['2'],2,0.23441239999920072,0.1,0,AccFast,29,19,Woman,Right,
14,11,1,0.3505455999984406,['c'],0,right,['2'],2,0.26794779999909224,0.2,0,AccFast,29,19,Woman,Right,
15,11,1,0.33369110000057844,['c'],1,left,['2'],2,0.26802350000070874,0.2,0,AccFast,29,19,Woman,Right,
16,11,1,0.3992633999987447,['n'],1,right,['2'],2,0.21836290000101144,0.4,0,AccFast,29,19,Woman,Right,
17,11,1,0.43507789999966917,['c'],0,right,['2'],2,0.23525030000018887,0.1,0,AccFast,29,19,Woman,Right,
18,11,1,0.3843257000007725,['n'],0,left,['2'],2,0.2845744999995077,0.2,0,AccFast,29,19,Woman,Right,
19,11,1,0.349865399999544,['c'],1,left,['2'],2,0.23472550000042247,0.2,0,AccFast,29,19,Woman,Right,
20,11,1,0.3670058000006975,['n'],0,left,['2'],2,0.30123509999975795,0.1,0,AccFast,29,19,Woman,Right,
21,11,1,0.4165881000008085,['n'],1,right,['2'],2,0.25018249999993714,0.1,0,AccFast,29,19,Woman,Right,
22,11,1,0.33278749999954016,['c'],0,right,['2'],2,0.28348189999996976,0.2,0,AccFast,29,19,Woman,Right,
23,11,1,0.3509222000011505,['n'],0,left,['2'],2,0.3011655000009341,0.1,0,AccFast,29,19,Woman,Right,
24,11,1,0.23407229999975243,['c'],1,left,['2'],2,0.28442639999957464,0.1,0,AccFast,29,19,Woman,Right,
25,11,1,1.334450199999992,['n'],1,right,['2'],2,0.2500905999986571,0.1,0,AccFast,29,19,Woman,Right,
26,11,1,0.3506870000001072,['c'],0,right,['2'],2,0.30146160000003874,0.4,0,AccFast,29,19,Woman,Right,
27,11,1,0.8655295000007754,['n'],0,left,['2'],2,0.21886029999950551,0.4,0,AccFast,29,19,Woman,Right,
28,11,1,0.4676288000009663,['c'],0,right,['2'],2,0.6847230000003037,0.2,0,AccFast,29,19,Woman,Right,
29,11,1,0.3836188999994192,['n'],1,right,['2'],2,0.7340776000000915,0.2,0,AccFast,29,19,Woman,Right,
30,11,1,0.4664805000011256,['c'],1,left,['2'],2,0.4020773000011104,0.4,0,AccFast,29,19,Woman,Right,
31,11,1,0.14934580000044662,['n'],1,right,['2'],2,1.6517088000000513,0.1,0,AccFast,29,19,Woman,Right,
32,11,1,0.599423100000422,['c'],1,left,['2'],2,1.24996850000025,0.2,0,AccFast,29,19,Woman,Right,
33,11,1,0.4352878999998211,['n'],1,right,['2'],2,1.1849435000003723,0.4,0,AccFast,29,19,Woman,Right,
34,11,1,0.08375000000160071,['n'],1,right,['2'],2,4.683328899998742,0.2,0,AccFast,29,19,Woman,Right,
35,11,1,0.3182582999997976,['c'],1,left,['2'],2,0.46756470000036643,0.2,0,AccFast,29,19,Woman,Right,
36,11,1,0.8681347000001551,['c'],0,right,['2'],2,0.5003307000006316,0.4,0,AccFast,29,19,Woman,Right,
37,11,1,0.48373870000068564,['c'],1,left,['2'],2,0.6009381000003486,0.1,0,AccFast,29,19,Woman,Right,
38,11,1,0.23432849999881,['c'],0,right,['2'],2,0.30147069999839005,0.2,0,AccFast,29,19,Woman,Right,
39,11,1,0.13187530000141123,['c'],0,right,['2'],2,0.08603380000022298,0.2,0,AccFast,29,19,Woman,Right,
40,11,1,0.6664858000003733,['n'],1,right,['2'],2,0.967840299999807,0.4,0,AccFast,29,19,Woman,Right,
41,11,1,1.7500634000007267,['n'],1,right,['2'],2,0.43476250000094296,0.4,0,AccFast,29,19,Woman,Right,
42,11,1,1.8002606999998534,['n'],0,left,['2'],2,0.567510000000766,0.1,0,AccFast,29,19,Woman,Right,
43,11,1,1.00027240000054,['c'],0,right,['2'],2,0.7994419000006019,0.2,0,AccFast,29,19,Woman,Right,
44,11,1,3.5331775000013295,['n'],0,left,['2'],2,1.7665682999995624,0.4,0,AccFast,29,19,Woman,Right,
45,11,1,0.1838685999991867,['c'],1,left,['2'],2,0.5832580000005692,0.1,0,AccFast,29,19,Woman,Right,
46,11,1,0.7168772999993962,['n'],0,left,['2'],2,0.5514206999996532,0.4,0,AccFast,29,19,Woman,Right,
47,11,1,0.9842201999999816,['n'],1,right,['2'],2,0.667847199998505,0.1,0,AccFast,29,19,Woman,Right,
48,11,1,0.39905450000151177,['c'],1,left,['2'],2,0.6020112000005611,0.4,0,AccFast,29,19,Woman,Right,
49,11,1,0.9659690000007686,['c'],0,right,['2'],2,0.41744959999959974,0.2,0,AccFast,29,19,Woman,Right,
50,11,1,0.3844353000004048,['c'],1,left,['2'],2,0.33472380000057456,0.4,0,AccFast,29,19,Woman,Right,
51,11,1,0.3822314000008191,['n'],1,right,['2'],2,0.5193875999993907,0.1,0,AccFast,29,19,Woman,Right,
52,11,1,0.4996556000005512,['c'],0,right,['2'],2,0.3680642999988777,0.1,0,AccFast,29,19,Woman,Right,
53,11,1,0.26770589999978256,['n'],0,left,['2'],2,0.4181733000004897,0.4,0,AccFast,29,19,Woman,Right,
54,11,1,0.43457200000011653,['c'],1,left,['2'],2,0.26708570000118925,0.2,0,AccFast,29,19,Woman,Right,
55,11,1,0.5006280000015977,['n'],1,right,['2'],2,1.0831230000003416,0.4,0,AccFast,29,19,Woman,Right,
56,11,1,0.01582349999989674,['c'],1,left,['2'],2,0.4674442000014096,0.2,0,AccFast,29,19,Woman,Right,
57,11,1,0.5337674000002153,['n'],1,right,['2'],2,0.5832395999987057,0.4,0,AccFast,29,19,Woman,Right,
58,11,1,0.41818250000142143,['c'],0,right,['2'],2,0.31653670000014245,0.4,0,AccFast,29,19,Woman,Right,
59,11,1,0.2176790000012261,['n'],0,left,['2'],2,0.43543380000119214,0.2,0,AccFast,29,19,Woman,Right,
0,12,1,0.41758070000105363,['c'],0,right,['2'],2,0.43492130000049656,0.1,0,AccAcc,29,19,Woman,Right,
1,12,1,0.3335365000002639,['n'],1,right,['2'],2,0.4493378000006487,0.2,0,AccAcc,29,19,Woman,Right,
2,12,1,0.6339540000008128,['n'],0,left,['8'],4,0.6001953999984835,0.4,0,AccAcc,29,19,Woman,Right,
3,12,1,1.8495428000005631,['n'],1,right,['2'],2,2.2502944999996544,0.4,0,AccAcc,29,19,Woman,Right,
4,12,1,2.750426900000093,['n'],0,left,['2'],2,0.6014988000006269,0.2,0,AccAcc,29,19,Woman,Right,
5,12,1,0.19928140000047279,['c'],0,right,['3'],3,0.5349778999989212,0.1,0,AccAcc,29,19,Woman,Right,
6,12,1,1.7980883000000176,['n'],0,left,['3'],3,1.1174575999993976,0.2,0,AccAcc,29,19,Woman,Right,
7,12,1,0.649918199998865,['c'],0,right,['3'],3,2.367862900000546,0.2,0,AccAcc,29,19,Woman,Right,
8,12,1,0.09978500000033819,['n'],0,left,['3'],3,1.8344041000000288,0.4,0,AccAcc,29,19,Woman,Right,
9,12,1,0.8842199999999139,['c'],0,right,['3'],3,0.26934780000010505,0.1,0,AccAcc,29,19,Woman,Right,
10,12,1,0.40076109999972687,['n'],1,right,['3'],3,0.3348148000004585,0.2,0,AccAcc,29,19,Woman,Right,
11,12,1,0.34929010000087146,['c'],1,left,['3'],3,0.2833446999993612,0.2,0,AccAcc,29,19,Woman,Right,
12,12,1,0.3839400000015303,['n'],0,left,['3'],3,0.35199269999975513,0.4,0,AccAcc,29,19,Woman,Right,
13,12,1,0.3009541999999783,['c'],1,left,['3'],3,0.3333060999993904,0.2,0,AccAcc,29,19,Woman,Right,
14,12,1,0.41739070000039646,['n'],0,left,['3'],3,0.4169149000008474,0.2,0,AccAcc,29,19,Woman,Right,
15,12,1,0.8172441999995499,['c'],1,left,['3'],3,0.21702170000025944,0.1,0,AccAcc,29,19,Woman,Right,
16,12,1,0.1163868999992701,['n'],1,right,['3'],3,0.8678787000008015,0.1,0,AccAcc,29,19,Woman,Right,
17,12,1,0.36680320000050415,['n'],1,right,['3'],3,0.3181283000012627,0.1,0,AccAcc,29,19,Woman,Right,
18,12,1,0.5001444000008632,['c'],0,right,['3'],3,0.31791940000039176,0.2,0,AccAcc,29,19,Woman,Right,
19,12,1,0.3658145000008517,['n'],0,left,['3'],3,0.30228530000022147,0.4,0,AccAcc,29,19,Woman,Right,
20,12,1,0.3341121000012208,['c'],1,left,['3'],3,0.25240040000062436,0.4,0,AccAcc,29,19,Woman,Right,
21,12,1,0.4344089000005624,['c'],0,right,['3'],3,0.350656099999469,0.1,0,AccAcc,29,19,Woman,Right,
22,12,1,0.4668528999991395,['n'],1,right,['3'],3,0.4346237999998266,0.4,0,AccAcc,29,19,Woman,Right,
23,12,1,0.35003279999909864,['c'],0,right,['8'],4,1.5336743000007118,0.4,0,AccAcc,29,19,Woman,Right,
24,12,1,0.18378630000006524,['n'],0,left,['8'],4,0.5166183000001183,0.2,0,AccAcc,29,19,Woman,Right,
25,12,1,0.03368460000092455,['c'],1,left,['8'],4,0.2995275000012043,0.1,0,AccAcc,29,19,Woman,Right,
26,12,1,0.3517503000002762,['n'],1,right,['8'],4,0.43314400000053865,0.1,0,AccAcc,29,19,Woman,Right,
27,12,1,0.10061810000115656,['n'],0,left,['8'],4,0.8182950000009441,0.1,0,AccAcc,29,19,Woman,Right,
28,12,1,1.1828968999998324,['n'],1,right,['8'],4,0.4511803000004875,0.1,0,AccAcc,29,19,Woman,Right,
29,12,1,0.7669638000006671,['c'],1,left,['3'],3,1.199746000000232,0.4,0,AccAcc,29,19,Woman,Right,
30,12,1,0.3826733999994758,['n'],1,right,['3'],3,0.3354211000005307,0.1,0,AccAcc,29,19,Woman,Right,
31,12,1,0.33213660000001255,['c'],1,left,['3'],3,0.2187209999992774,0.1,0,AccAcc,29,19,Woman,Right,
32,12,1,0.5004308999996283,['n'],1,right,['3'],3,1.0011758000000555,0.1,0,AccAcc,29,19,Woman,Right,
33,12,1,0.34898339999926975,['c'],1,left,['3'],3,0.2687776999991911,0.4,0,AccAcc,29,19,Woman,Right,
34,12,1,0.36626869999963674,['n'],1,right,['3'],3,0.4686388000009174,0.2,0,AccAcc,29,19,Woman,Right,
35,12,1,0.31650880000051984,['c'],0,right,['3'],3,0.4852318000012019,0.4,0,AccAcc,29,19,Woman,Right,
36,12,1,0.46764579999944544,['n'],1,right,['3'],3,0.40010460000121384,0.2,0,AccAcc,29,19,Woman,Right,
37,12,1,1.2335459000005358,['c'],1,left,['3'],3,0.2835630999998102,0.4,0,AccAcc,29,19,Woman,Right,
38,12,1,0.38436360000014247,['n'],1,right,['3'],3,0.368153400000665,0.4,0,AccAcc,29,19,Woman,Right,
39,12,1,0.46696280000105617,['c'],0,right,['3'],3,0.35137769999892043,0.4,0,AccAcc,29,19,Woman,Right,
40,12,1,0.09849160000158008,['c'],0,right,['3'],3,0.8348413999992772,0.1,0,AccAcc,29,19,Woman,Right,
41,12,1,0.533772200000385,['n'],0,left,['3'],3,0.36744829999952344,0.2,0,AccAcc,29,19,Woman,Right,
42,12,1,0.4657004999990022,['c'],1,left,['3'],3,0.3858083000013721,0.4,0,AccAcc,29,19,Woman,Right,
43,12,1,0.531840600000578,['n'],1,right,['3'],3,0.3526867000000493,0.4,0,AccAcc,29,19,Woman,Right,
44,12,1,0.4325441000000865,['c'],0,right,['3'],3,0.8181167999991885,0.1,0,AccAcc,29,19,Woman,Right,
45,12,1,0.8827857999986009,['n'],0,left,['3'],3,0.4518676999996387,0.2,0,AccAcc,29,19,Woman,Right,
46,12,1,1.5647521999999299,['c'],1,left,['3'],3,0.5199790000006033,0.2,0,AccAcc,29,19,Woman,Right,
47,12,1,0.6675517999992735,['n'],0,left,['3'],3,0.5511567000012292,0.2,0,AccAcc,29,19,Woman,Right,
48,12,1,0.15032459999929415,['n'],1,right,['3'],3,1.2509492000008322,0.1,0,AccAcc,29,19,Woman,Right,
49,12,1,1.0670246000008774,['c'],0,right,['3'],3,0.38401539999904344,0.1,0,AccAcc,29,19,Woman,Right,
50,12,1,0.016942700000072364,['n'],0,left,['3'],3,0.5513558000002377,0.4,0,AccAcc,29,19,Woman,Right,
51,12,1,0.5007108000008884,['c'],0,right,['3'],3,0.3506223999993381,0.1,0,AccAcc,29,19,Woman,Right,
52,12,1,0.7659269999985554,['c'],0,right,['3'],3,0.418134800000189,0.4,0,AccAcc,29,19,Woman,Right,
53,12,1,0.2008377999991353,['c'],1,left,['3'],3,0.3491914000005636,0.2,0,AccAcc,29,19,Woman,Right,
54,12,1,0.35141550000116695,['n'],0,left,['3'],3,0.4508330000007845,0.2,0,AccAcc,29,19,Woman,Right,
55,12,1,0.14958649999971385,['c'],1,left,['3'],3,0.33370779999859224,0.4,0,AccAcc,29,19,Woman,Right,
56,12,1,0.9831008999990445,['n'],0,left,['3'],3,0.31700719999935245,0.2,0,AccAcc,29,19,Woman,Right,
57,12,1,0.45066729999962263,['c'],1,left,['3'],3,0.28412890000072366,0.4,0,AccAcc,29,19,Woman,Right,
58,12,1,0.34955059999992955,['n'],1,right,['3'],3,0.333416200001011,0.1,0,AccAcc,29,19,Woman,Right,
59,12,1,0.3675405000012688,['n'],0,left,['3'],3,0.3355808000014804,0.2,0,AccAcc,29,19,Woman,Right,
0,13,1,0.10053940000034345,['c'],1,left,['3'],3,0.35119200000008277,0.2,0,FastAcc,29,19,Woman,Right,
1,13,1,0.3020140000007814,['n'],0,left,['3'],3,0.23431239999990794,0.2,0,FastAcc,29,19,Woman,Right,
2,13,1,0.16776199999912933,['c'],1,left,['3'],3,0.4500210000005609,0.2,0,FastAcc,29,19,Woman,Right,
3,13,1,0.2828582000001916,['n'],0,left,['3'],3,0.25094090000129654,0.1,0,FastAcc,29,19,Woman,Right,
4,13,1,0.4689907999982097,['c'],1,left,['3'],3,0.41803059999983816,0.4,0,FastAcc,29,19,Woman,Right,
5,13,1,0.3679947999989963,['n'],1,right,['3'],3,0.3346251000002667,0.2,0,FastAcc,29,19,Woman,Right,
6,13,1,0.5009046000013768,['c'],1,left,['3'],3,0.3846403999996255,0.2,0,FastAcc,29,19,Woman,Right,
7,13,1,0.5004709000004368,['n'],1,right,['3'],3,0.35121089999847754,0.1,0,FastAcc,29,19,Woman,Right,
8,13,1,0.45050459999947634,['n'],0,left,['3'],3,0.4846591999994416,0.4,0,FastAcc,29,19,Woman,Right,
9,13,1,2.0499467000008735,['n'],0,left,['3'],3,1.3010130999991816,0.4,0,FastAcc,29,19,Woman,Right,
10,13,1,1.1171371000000363,['c'],0,right,['3'],3,0.9011576000011701,0.4,0,FastAcc,29,19,Woman,Right,
11,13,1,0.2496556000005512,['n'],0,left,['3'],3,0.48548680000021704,0.1,0,FastAcc,29,19,Woman,Right,
12,13,1,0.6502716000013606,['c'],0,right,['3'],3,0.4180179000013595,0.4,0,FastAcc,29,19,Woman,Right,
13,13,1,1.1172490999997535,['n'],0,left,['3'],3,0.43455399999947986,0.1,0,FastAcc,29,19,Woman,Right,
14,13,1,0.38309860000117624,['n'],1,right,['3'],3,0.2512085999987903,0.4,0,FastAcc,29,19,Woman,Right,
15,13,1,0.3821600000010221,['c'],1,left,['3'],3,0.38481769999998505,0.2,0,FastAcc,29,19,Woman,Right,
16,13,1,0.36641319999944244,['c'],1,left,['3'],3,0.16830930000105582,0.2,0,FastAcc,29,19,Woman,Right,
17,13,1,0.3316757000011421,['c'],1,left,['3'],3,0.18602439999995113,0.1,0,FastAcc,29,19,Woman,Right,
18,13,1,0.39956789999996545,['n'],0,left,['3'],3,0.26842910000050324,0.4,0,FastAcc,29,19,Woman,Right,
19,13,1,1.8493075999995199,['n'],0,left,['2'],2,0.4021665000000212,0.4,0,FastAcc,29,19,Woman,Right,
20,13,1,0.5170369000006758,['c'],0,right,['2'],2,0.2669213999997737,0.1,0,FastAcc,29,19,Woman,Right,
21,13,1,0.6004978000000847,['n'],0,left,['2'],2,0.3674585999997362,0.1,0,FastAcc,29,19,Woman,Right,
22,13,1,0.43234750000010536,['c'],0,right,['1'],1,0.31909599999926286,0.1,0,FastAcc,29,19,Woman,Right,
23,13,1,0.3013884000010876,['c'],1,left,['1'],1,0.26819849999992584,0.4,0,FastAcc,29,19,Woman,Right,
24,13,1,0.10138889999871026,['n'],1,right,['1'],1,0.3845769999988988,0.2,0,FastAcc,29,19,Woman,Right,
25,13,1,0.35046019999936107,['n'],0,left,['1'],1,0.23473490000105812,0.2,0,FastAcc,29,19,Woman,Right,
26,13,1,0.3680299000006926,['n'],0,left,['1'],1,0.26732710000032966,0.4,0,FastAcc,29,19,Woman,Right,
27,13,1,0.31620250000014494,['c'],0,right,['3'],3,0.23517870000068797,0.1,0,FastAcc,29,19,Woman,Right,
28,13,1,0.482671499999924,['n'],0,left,['3'],3,0.21868320000066888,0.4,0,FastAcc,29,19,Woman,Right,
29,13,1,0.41620830000101705,['n'],0,left,['1'],1,0.1681248000004416,0.1,0,FastAcc,29,19,Woman,Right,
30,13,1,0.3837703999997757,['c'],0,right,['3'],3,0.18481330000031448,0.4,0,FastAcc,29,19,Woman,Right,
31,13,1,0.4006831999995484,['c'],0,right,['1'],1,0.1838395999984641,0.1,0,FastAcc,29,19,Woman,Right,
32,13,1,0.33440709999922547,['c'],0,right,['1'],1,0.18462780000118073,0.2,0,FastAcc,29,19,Woman,Right,
33,13,1,0.3671226000005845,['c'],1,left,['1'],1,0.20119589999922027,0.1,0,FastAcc,29,19,Woman,Right,
34,13,1,0.31699159999880067,['n'],1,right,['1'],1,0.20142719999967085,0.4,0,FastAcc,29,19,Woman,Right,
35,13,1,0.28384729999925185,['c'],1,left,['1'],1,0.18568819999927655,0.4,0,FastAcc,29,19,Woman,Right,
36,13,1,0.24905519999992975,['c'],0,right,['1'],1,0.1693414000001212,0.4,0,FastAcc,29,19,Woman,Right,
37,13,1,0.3175686000013229,['c'],0,right,['1'],1,0.18342159999883734,0.1,0,FastAcc,29,19,Woman,Right,
38,13,1,0.33456500000102096,['n'],1,right,['1'],1,0.18440190000001166,0.1,0,FastAcc,29,19,Woman,Right,
39,13,1,0.25189919999866106,['c'],0,right,['1'],1,0.14968369999951392,0.2,0,FastAcc,29,19,Woman,Right,
40,13,1,0.3180680999994365,['n'],1,right,['1'],1,0.25024150000172085,0.4,0,FastAcc,29,19,Woman,Right,
41,13,1,0.23413160000018252,['n'],1,right,['1'],1,0.28363050000007206,0.1,0,FastAcc,29,19,Woman,Right,
42,13,1,0.38422129999889876,['n'],1,right,['1'],1,0.26610210000035295,0.2,0,FastAcc,29,19,Woman,Right,
43,13,1,0.3178449000006367,['c'],1,left,['1'],1,0.18522699999994074,0.1,0,FastAcc,29,19,Woman,Right,
44,13,1,0.3321125000002212,['n'],1,right,['1'],1,0.1860513000010542,0.2,0,FastAcc,29,19,Woman,Right,
45,13,1,0.2673274999997375,['c'],0,right,['1'],1,0.1844863999995141,0.2,0,FastAcc,29,19,Woman,Right,
46,13,1,0.3321765000000596,['n'],0,left,['1'],1,0.2336964000005537,0.1,0,FastAcc,29,19,Woman,Right,
47,13,1,0.6826624000004813,['c'],1,left,['1'],1,0.23551899999984016,0.2,0,FastAcc,29,19,Woman,Right,
48,13,1,0.3352634999992006,['n'],1,right,['1'],1,0.3511835000008432,0.4,0,FastAcc,29,19,Woman,Right,
49,13,1,0.36603439999998955,['c'],0,right,['1'],1,0.20050199999968754,0.2,0,FastAcc,29,19,Woman,Right,
50,13,1,0.33309079999889946,['n'],1,right,['1'],1,0.33413930000097025,0.1,0,FastAcc,29,19,Woman,Right,
51,13,1,0.3851666999998997,['c'],0,right,['1'],1,0.20200029999978142,0.2,0,FastAcc,29,19,Woman,Right,
52,13,1,0.29855740000130027,['n'],0,left,['1'],1,0.1858092000002216,0.1,0,FastAcc,29,19,Woman,Right,
53,13,1,0.034411300001011114,['c'],0,right,['1'],1,0.3678107999985514,0.2,0,FastAcc,29,19,Woman,Right,
54,13,1,0.46665310000025784,['n'],0,left,['1'],1,0.30160930000056396,0.4,0,FastAcc,29,19,Woman,Right,
55,13,1,0.48259909999978845,['c'],0,right,['1'],1,0.3017050999987987,0.4,0,FastAcc,29,19,Woman,Right,
56,13,1,0.40102549999937764,['n'],0,left,['1'],1,0.28338480000093114,0.2,0,FastAcc,29,19,Woman,Right,
57,13,1,0.31689539999933913,['c'],0,right,['1'],1,0.20139839999865217,0.2,0,FastAcc,29,19,Woman,Right,
58,13,1,0.29997480000020005,['n'],1,right,['1'],1,0.26836350000121456,0.1,0,FastAcc,29,19,Woman,Right,
59,13,1,0.3157965000009426,['c'],1,left,['1'],1,0.21801719999893976,0.4,0,FastAcc,29,19,Woman,Right,
0,14,1,0.33529060000000754,['c'],1,left,['1'],1,0.25175320000016654,0.1,0,FastFast,29,19,Woman,Right,
1,14,1,0.3166915000001609,['n'],0,left,['1'],1,0.23390930000095977,0.1,0,FastFast,29,19,Woman,Right,
2,14,1,0.36705760000040755,['n'],0,left,['1'],1,0.16814829999930225,0.4,0,FastFast,29,19,Woman,Right,
3,14,1,0.2829473000001599,['c'],1,left,['1'],1,0.15119140000024345,0.2,0,FastFast,29,19,Woman,Right,
4,14,1,0.1483866999988095,['n'],1,right,['1'],1,0.36884009999994305,0.1,0,FastFast,29,19,Woman,Right,
5,14,1,0.2989867999986018,['n'],0,left,['1'],1,0.1685295999996015,0.4,0,FastFast,29,19,Woman,Right,
6,14,1,0.2670379999999568,['c'],0,right,['1'],1,0.16790249999939988,0.2,0,FastFast,29,19,Woman,Right,
7,14,1,0.3177976999995735,['n'],0,left,['1'],1,0.23487460000069404,0.4,0,FastFast,29,19,Woman,Right,
8,14,1,0.2838992999986658,['c'],0,right,['1'],1,0.21817120000014256,0.2,0,FastFast,29,19,Woman,Right,
9,14,1,0.30129500000111875,['c'],0,right,['1'],1,0.2017468000012741,0.2,0,FastFast,29,19,Woman,Right,
10,14,1,0.317536000000473,['n'],0,left,['1'],1,0.18407550000119954,0.1,0,FastFast,29,19,Woman,Right,
11,14,1,0.5497202000005927,['c'],1,left,['1'],1,0.7001264000009542,0.2,0,FastFast,29,19,Woman,Right,
12,14,1,0.35019909999937227,['n'],1,right,['1'],1,0.23580990000118618,0.2,0,FastFast,29,19,Woman,Right,
13,14,1,0.4162156000002142,['c'],0,right,['1'],1,0.16824389999965206,0.2,0,FastFast,29,19,Woman,Right,
14,14,1,0.2987618000006478,['n'],1,right,['1'],1,0.16882280000027095,0.2,0,FastFast,29,19,Woman,Right,
15,14,1,0.299488200000269,['c'],0,right,['1'],1,0.18492759999935515,0.1,0,FastFast,29,19,Woman,Right,
16,14,1,0.3503122000001895,['c'],0,right,['1'],1,0.21763409999948635,0.1,0,FastFast,29,19,Woman,Right,
17,14,1,0.3164928999995027,['c'],1,left,['1'],1,0.21879880000051344,0.1,0,FastFast,29,19,Woman,Right,
18,14,1,0.28277479999997013,['c'],0,right,['1'],1,0.6184704000006604,0.2,0,FastFast,29,19,Woman,Right,
19,14,1,0.4151841000002605,['n'],1,right,['1'],1,0.3346947000009095,0.4,0,FastFast,29,19,Woman,Right,
20,14,1,0.3172543000000587,['c'],0,right,['1'],1,0.269646400000056,0.2,0,FastFast,29,19,Woman,Right,
21,14,1,0.8670110000002751,['c'],1,left,['1'],1,0.30045350000000326,0.1,0,FastFast,29,19,Woman,Right,
22,14,1,0.20172439999987546,['c'],0,right,['1'],1,0.5010347000006732,0.2,0,FastFast,29,19,Woman,Right,
23,14,1,0.383306800000355,['n'],0,left,['1'],1,0.2858687000007194,0.2,0,FastFast,29,19,Woman,Right,
24,14,1,0.09941640000033658,['c'],0,right,['1'],1,0.3335356000006868,0.2,0,FastFast,29,19,Woman,Right,
25,14,1,0.2662567000006675,['n'],1,right,['1'],1,0.28388339999946766,0.1,0,FastFast,29,19,Woman,Right,
26,14,1,0.23291380000046047,['c'],1,left,['1'],1,0.15153839999948104,0.4,0,FastFast,29,19,Woman,Right,
27,14,1,0.28406859999995504,['n'],1,right,['1'],1,0.18307980000099633,0.4,0,FastFast,29,19,Woman,Right,
28,14,1,0.4999102000001585,['c'],0,right,['1'],1,0.23432529999990948,0.4,0,FastFast,29,19,Woman,Right,
29,14,1,0.36851059999935387,['c'],1,left,['1'],1,0.1831287999993947,0.4,0,FastFast,29,19,Woman,Right,
30,14,1,0.3829476999999315,['n'],1,right,['1'],1,0.7342975000010483,0.4,0,FastFast,29,19,Woman,Right,
31,14,1,0.3663842999994813,['c'],0,right,['1'],1,0.2859738999995898,0.1,0,FastFast,29,19,Woman,Right,
32,14,1,0.5503074000007473,['n'],1,right,['1'],1,0.333505000000514,0.2,0,FastFast,29,19,Woman,Right,
33,14,1,0.48239319999993313,['c'],1,left,['1'],1,0.3172403000007762,0.4,0,FastFast,29,19,Woman,Right,
