withinblocktrial,block,block_repetition,rt,resp,cor,cresp,conf_press,cj,rtconf,coherence,slow_trial,manipulation,sub,age,gender,handedness,
0,1,1,0.9004805000004126,['n'],1,right,none,-99,-99,0.5,0,none,13,19,Woman,Right,
1,1,1,0.5014193999995769,['n'],1,right,none,-99,-99,0.5,0,none,13,19,Woman,Right,
2,1,1,0.4673029999994469,['c'],1,left,none,-99,-99,0.5,0,none,13,19,Woman,Right,
3,1,1,0.467612200000076,['c'],1,left,none,-99,-99,0.5,0,none,13,19,Woman,Right,
4,1,1,0.5506607999996049,['c'],1,left,none,-99,-99,0.5,0,none,13,19,Woman,Right,
5,1,1,0.5997588000009273,['c'],1,left,none,-99,-99,0.5,0,none,13,19,Woman,Right,
6,1,1,0.400509900000543,['n'],1,right,none,-99,-99,0.5,0,none,13,19,Woman,Right,
7,1,1,0.40111109999998007,['n'],1,right,none,-99,-99,0.5,0,none,13,19,Woman,Right,
8,1,1,0.38414649999867834,['c'],1,left,none,-99,-99,0.5,0,none,13,19,Woman,Right,
9,1,1,0.41787160000058066,['n'],1,right,none,-99,-99,0.5,0,none,13,19,Woman,Right,
10,1,1,0.43346030000066094,['n'],1,right,none,-99,-99,0.5,0,none,13,19,Woman,Right,
11,1,1,0.4004977999993571,['c'],1,left,none,-99,-99,0.5,0,none,13,19,Woman,Right,
12,1,1,0.5345531000002666,"['n', 'c']",0,left,none,-99,-99,0.5,0,none,13,19,Woman,Right,
13,1,1,0.5660514999999577,['n'],0,left,none,-99,-99,0.5,0,none,13,19,Woman,Right,
14,1,1,0.5000028000013117,['n'],1,right,none,-99,-99,0.5,0,none,13,19,Woman,Right,
15,1,1,0.9006002000005537,['c'],1,left,none,-99,-99,0.5,0,none,13,19,Woman,Right,
16,1,1,0.4177848000017548,['n'],1,right,none,-99,-99,0.5,0,none,13,19,Woman,Right,
17,1,1,0.4508857999990141,['n'],1,right,none,-99,-99,0.5,0,none,13,19,Woman,Right,
18,1,1,0.48424470000099973,['c'],1,left,none,-99,-99,0.5,0,none,13,19,Woman,Right,
19,1,1,1.584363799998755,['c'],1,left,none,-99,-99,0.5,0,none,13,19,Woman,Right,
20,1,1,0.4503163000008499,['n'],1,right,none,-99,-99,0.5,0,none,13,19,Woman,Right,
21,1,1,0.4508326000013767,['n'],1,right,none,-99,-99,0.5,0,none,13,19,Woman,Right,
22,1,1,0.4999411999997392,['c'],1,left,none,-99,-99,0.5,0,none,13,19,Woman,Right,
23,1,1,0.584143199999744,['n'],1,right,none,-99,-99,0.5,0,none,13,19,Woman,Right,
0,2,1,0.6339148999995814,['n'],0,left,none,-99,-99,0.4,0,none,13,19,Woman,Right,
1,2,1,1.6167463999991014,['c'],0,right,none,-99,-99,0.1,0,none,13,19,Woman,Right,
2,2,1,0.8681016000009549,['c'],1,left,none,-99,-99,0.1,0,none,13,19,Woman,Right,
3,2,1,0.617175600000337,['n'],1,right,none,-99,-99,0.4,0,none,13,19,Woman,Right,
4,2,1,0.9840457999998762,['c'],1,left,none,-99,-99,0.2,0,none,13,19,Woman,Right,
5,2,1,0.6178679999993619,['n'],1,right,none,-99,-99,0.2,0,none,13,19,Woman,Right,
6,2,1,0.49822499999936554,['c'],1,left,none,-99,-99,0.4,0,none,13,19,Woman,Right,
7,2,1,0.5170261999992363,['n'],1,right,none,-99,-99,0.1,0,none,13,19,Woman,Right,
8,2,1,0.5828256999993755,['c'],0,right,none,-99,-99,0.2,0,none,13,19,Woman,Right,
9,2,1,1.2843862999998237,['n'],1,right,none,-99,-99,0.1,0,none,13,19,Woman,Right,
10,2,1,1.8336160999988351,['n'],1,right,none,-99,-99,0.2,0,none,13,19,Woman,Right,
11,2,1,0.9667726000006951,['c'],1,left,none,-99,-99,0.1,0,none,13,19,Woman,Right,
12,2,1,0.600648600000568,['c'],1,left,none,-99,-99,0.2,0,none,13,19,Woman,Right,
13,2,1,0.8168023000016547,['n'],0,left,none,-99,-99,0.2,0,none,13,19,Woman,Right,
14,2,1,1.5997676999995747,['n'],0,left,none,-99,-99,0.4,0,none,13,19,Woman,Right,
15,2,1,2.00121179999951,['n'],1,right,none,-99,-99,0.4,0,none,13,19,Woman,Right,
16,2,1,3.0668288999986544,['n'],1,right,none,-99,-99,0.2,0,none,13,19,Woman,Right,
17,2,1,0.6339950999990833,['c'],1,left,none,-99,-99,0.4,0,none,13,19,Woman,Right,
18,2,1,1.0507358000013483,['n'],1,right,none,-99,-99,0.4,0,none,13,19,Woman,Right,
19,2,1,3.498841299999185,['c'],1,left,none,-99,-99,0.1,0,none,13,19,Woman,Right,
20,2,1,0.6998479999983829,['n'],1,right,none,-99,-99,0.4,0,none,13,19,Woman,Right,
21,2,1,1.2185286000003543,['c'],0,right,none,-99,-99,0.2,0,none,13,19,Woman,Right,
22,2,1,2.9836231999997835,['n'],0,left,none,-99,-99,0.1,0,none,13,19,Woman,Right,
23,2,1,1.3008723999992071,['c'],1,left,none,-99,-99,0.1,0,none,13,19,Woman,Right,
0,3,1,0.8512484000002587,['n'],1,right,none,-99,-99,0.1,1,none,13,19,Woman,Right,
1,3,1,2.4178319000002375,['n'],0,left,['3'],3,2.0180438999996113,0.4,0,none,13,19,Woman,Right,
2,3,1,1.1005415999989054,['n'],1,right,['0'],6,0.9679864999998244,0.4,0,none,13,19,Woman,Right,
3,3,1,1.700033799999801,['c'],0,right,['9'],5,1.36812849999842,0.1,0,none,13,19,Woman,Right,
4,3,1,3.248723599999721,['n'],0,left,['3'],3,2.0520670999994763,0.1,0,none,13,19,Woman,Right,
5,3,1,1.2659351000002061,['n'],1,right,['9'],5,1.3668724999988626,0.2,0,none,13,19,Woman,Right,
6,3,1,1.0847315000009985,['c'],1,left,['1'],1,0.7846149999986665,0.4,0,none,13,19,Woman,Right,
7,3,1,1.1998188999987178,['n'],1,right,['9'],5,1.0687435999989248,0.2,0,none,13,19,Woman,Right,
8,3,1,1.3838816000006773,['n'],0,left,['8'],4,1.5013005000000703,0.2,0,none,13,19,Woman,Right,
9,3,1,2.00019919999977,['c'],0,right,['3'],3,1.751304200000959,0.2,0,none,13,19,Woman,Right,
10,3,1,0.8670736999993096,['n'],1,right,['0'],6,1.3846580000008544,0.2,0,none,13,19,Woman,Right,
11,3,1,0.699870300000839,['c'],1,left,['0'],6,0.7676305000004504,0.4,0,none,13,19,Woman,Right,
12,3,1,0.717275700000755,['n'],1,right,['0'],6,0.5515071999998327,0.2,0,none,13,19,Woman,Right,
13,3,1,1.8004201999992802,['n'],1,right,['9'],5,1.5347158000004129,0.1,0,none,13,19,Woman,Right,
14,3,1,1.5985006999999314,['c'],1,left,['2'],2,1.8845958999991126,0.1,0,none,13,19,Woman,Right,
15,3,1,1.0993357999996078,['n'],0,left,['2'],2,2.0166590000008,0.1,0,none,13,19,Woman,Right,
16,3,1,0.8856406000013521,['c'],1,left,['0'],6,0.8179979999986244,0.4,0,none,13,19,Woman,Right,
17,3,1,2.24926620000042,['n'],0,left,['9'],5,0.8022110000001703,0.1,0,none,13,19,Woman,Right,
18,3,1,0.7168414999996457,['c'],1,left,['9'],5,2.001240300000063,0.4,0,none,13,19,Woman,Right,
19,3,1,0.8169675000008283,['n'],1,right,['0'],6,2.951115199999549,0.2,0,none,13,19,Woman,Right,
20,3,1,1.5338156999987405,['c'],1,left,['8'],4,1.4015526000002865,0.2,0,none,13,19,Woman,Right,
21,3,1,2.1000347000008333,['n'],1,right,['8'],4,1.501378900000418,0.1,0,none,13,19,Woman,Right,
22,3,1,1.6169492999997601,['c'],1,left,['8'],4,1.0180949999994482,0.4,0,none,13,19,Woman,Right,
23,3,1,0.8500891999992746,['n'],1,right,['9'],5,0.6019840000008116,0.4,0,none,13,19,Woman,Right,
0,4,1,1.2846607999999833,['n'],0,left,['3'],3,1.368140599999606,0.4,0,FastAcc,13,19,Woman,Right,
1,4,1,1.0674094000005425,['n'],1,right,['9'],5,0.801180899999963,0.2,0,FastAcc,13,19,Woman,Right,
2,4,1,0.9838596999998117,['n'],1,right,['0'],6,1.3681394000013825,0.4,0,FastAcc,13,19,Woman,Right,
3,4,1,1.6997267000006104,['n'],1,right,['9'],5,1.3180305999994744,0.2,0,FastAcc,13,19,Woman,Right,
4,4,1,1.8002942000002804,['n'],1,right,['8'],4,1.3851405999994313,0.2,0,FastAcc,13,19,Woman,Right,
5,4,1,1.5335792999994737,['c'],1,left,['8'],4,1.6673098999999638,0.1,0,FastAcc,13,19,Woman,Right,
6,4,1,1.6002740999992966,['c'],1,left,['9'],5,1.4999072999999044,0.2,0,FastAcc,13,19,Woman,Right,
7,4,1,2.5496265000001586,['c'],1,left,['3'],3,0.9670698999998422,0.1,0,FastAcc,13,19,Woman,Right,
8,4,1,0.9173174000006838,['n'],1,right,['8'],4,2.3012638999989576,0.2,0,FastAcc,13,19,Woman,Right,
9,4,1,0.7333739000005153,['c'],0,right,['3'],3,1.4854505000002973,0.1,0,FastAcc,13,19,Woman,Right,
10,4,1,1.4997029000005568,['n'],1,right,['2'],2,0.7339320999999472,0.1,0,FastAcc,13,19,Woman,Right,
11,4,1,0.800589200000104,['n'],1,right,['9'],5,1.2346471000000747,0.1,0,FastAcc,13,19,Woman,Right,
12,4,1,1.8156545999991067,['n'],0,left,['9'],5,1.1688529000002745,0.1,0,FastAcc,13,19,Woman,Right,
13,4,1,2.1325859000007767,['n'],1,right,['8'],4,1.8179779000001872,0.1,0,FastAcc,13,19,Woman,Right,
14,4,1,1.8008265000007668,['n'],1,right,['9'],5,1.001507599999968,0.1,0,FastAcc,13,19,Woman,Right,
15,4,1,0.8004837999997108,['c'],1,left,['1'],1,1.0843620000014198,0.4,0,FastAcc,13,19,Woman,Right,
16,4,1,2.4997174000000086,['n'],0,left,['2'],2,1.5014879000009387,0.2,0,FastAcc,13,19,Woman,Right,
17,4,1,2.383989699999802,['n'],0,left,['8'],4,1.4014588000009098,0.4,0,FastAcc,13,19,Woman,Right,
18,4,1,1.633105800001431,['n'],1,right,['2'],2,2.4515572000000247,0.1,0,FastAcc,13,19,Woman,Right,
19,4,1,0.815611899999567,['n'],1,right,['0'],6,0.7520354000007501,0.4,0,FastAcc,13,19,Woman,Right,
20,4,1,1.9662939999998343,['c'],1,left,['3'],3,1.9512174999999843,0.1,0,FastAcc,13,19,Woman,Right,
21,4,1,0.7841191999996227,['n'],1,right,['0'],6,2.1015219000000798,0.4,0,FastAcc,13,19,Woman,Right,
22,4,1,0.4820044999996753,['c'],1,left,['0'],6,1.2340908000005584,0.4,0,FastAcc,13,19,Woman,Right,
23,4,1,0.5516790000001492,['n'],1,right,['9'],5,0.9013354000016989,0.4,0,FastAcc,13,19,Woman,Right,
24,4,1,0.9504587999999785,['n'],1,right,['9'],5,1.0348926999995456,0.2,0,FastAcc,13,19,Woman,Right,
25,4,1,0.4497847000002366,['n'],1,right,['9'],5,0.7182801000017207,0.2,0,FastAcc,13,19,Woman,Right,
26,4,1,0.7676842000000761,['c'],1,left,['9'],5,1.2845960000013292,0.2,0,FastAcc,13,19,Woman,Right,
27,4,1,0.6005589000014879,['n'],1,right,['0'],6,0.8326206000001548,0.4,0,FastAcc,13,19,Woman,Right,
28,4,1,0.7167934999997669,['n'],1,right,['0'],6,0.5021193000011408,0.4,0,FastAcc,13,19,Woman,Right,
29,4,1,0.38555599999926926,['n'],1,right,['1'],1,1.3846279999997932,0.2,0,FastAcc,13,19,Woman,Right,
30,4,1,1.200672900000427,['c'],1,left,['0'],6,1.3848546000008355,0.2,0,FastAcc,13,19,Woman,Right,
31,4,1,1.5005109999983688,['c'],1,left,['9'],5,1.4181277999996382,0.4,0,FastAcc,13,19,Woman,Right,
32,4,1,1.7487911999996868,['c'],0,right,['2'],2,1.5025575999989087,0.1,0,FastAcc,13,19,Woman,Right,
33,4,1,0.6668671000006725,['c'],1,left,['0'],6,0.8683866000010312,0.4,0,FastAcc,13,19,Woman,Right,
34,4,1,1.0669806999994762,['n'],0,left,['1'],1,1.4016052999995736,0.4,0,FastAcc,13,19,Woman,Right,
35,4,1,1.4664725999991788,['n'],1,right,['8'],4,1.2180767000008927,0.2,0,FastAcc,13,19,Woman,Right,
36,4,1,2.384116500001255,['c'],1,left,['3'],3,1.4011990999988484,0.2,0,FastAcc,13,19,Woman,Right,
37,4,1,0.9337854000004882,['n'],1,right,['9'],5,2.0345864000009897,0.4,0,FastAcc,13,19,Woman,Right,
38,4,1,1.5172353999987536,['n'],1,right,['3'],3,1.1682583000001614,0.1,0,FastAcc,13,19,Woman,Right,
39,4,1,2.567004000000452,['n'],0,left,['2'],2,1.434297100000549,0.1,0,FastAcc,13,19,Woman,Right,
40,4,1,0.8663192000003619,['n'],0,left,['3'],3,2.451097999999547,0.1,0,FastAcc,13,19,Woman,Right,
41,4,1,0.9337258000014117,['c'],1,left,['8'],4,1.784642900000108,0.2,0,FastAcc,13,19,Woman,Right,
42,4,1,0.750197900000785,['c'],1,left,['8'],4,1.8012023999999656,0.4,0,FastAcc,13,19,Woman,Right,
43,4,1,0.6835152000003291,['n'],0,left,['9'],5,0.7190563999993174,0.2,0,FastAcc,13,19,Woman,Right,
44,4,1,1.1006680999998935,['n'],0,left,['2'],2,1.5180842000008852,0.1,0,FastAcc,13,19,Woman,Right,
45,4,1,1.2648739000014757,['n'],0,left,['3'],3,2.169200300000739,0.2,0,FastAcc,13,19,Woman,Right,
46,4,1,0.9171713000014279,['n'],0,left,['2'],2,1.9845072000007349,0.1,0,FastAcc,13,19,Woman,Right,
47,4,1,1.0170088000013493,['n'],0,left,['8'],4,2.217732999999498,0.1,0,FastAcc,13,19,Woman,Right,
48,4,1,0.7835658999993029,['n'],1,right,['9'],5,0.6519039000013436,0.4,0,FastAcc,13,19,Woman,Right,
49,4,1,0.5509984999989683,['n'],1,right,['0'],6,1.118282299999919,0.2,0,FastAcc,13,19,Woman,Right,
50,4,1,0.6495441999995819,['n'],1,right,['0'],6,0.9014375999995536,0.4,0,FastAcc,13,19,Woman,Right,
51,4,1,1.6504230999998981,['n'],1,right,['3'],3,2.3178692999990744,0.1,0,FastAcc,13,19,Woman,Right,
52,4,1,0.48412330000064685,['n'],1,right,['9'],5,0.8684936999998172,0.4,0,FastAcc,13,19,Woman,Right,
53,4,1,3.165546100000938,['c'],1,left,['2'],2,2.33634340000026,0.2,0,FastAcc,13,19,Woman,Right,
54,4,1,0.5991317000007257,['n'],1,right,['2'],2,3.134582300001057,0.2,0,FastAcc,13,19,Woman,Right,
55,4,1,1.1675570999996125,['n'],1,right,['9'],5,1.1182335000012245,0.4,0,FastAcc,13,19,Woman,Right,
56,4,1,4.216477100000702,['n'],0,left,['1'],1,1.6679093999991892,0.1,0,FastAcc,13,19,Woman,Right,
57,4,1,2.133853799999997,['c'],1,left,['2'],2,1.6160008999995625,0.1,0,FastAcc,13,19,Woman,Right,
58,4,1,2.3182689000004757,['n'],0,left,['3'],3,1.934357699999964,0.4,0,FastAcc,13,19,Woman,Right,
59,4,1,3.7331033000009484,['c'],1,left,['3'],3,1.1680353000010655,0.2,0,FastAcc,13,19,Woman,Right,
0,5,1,0.7005688999997801,['n'],1,right,['8'],4,1.734868200001074,0.4,0,FastFast,13,19,Woman,Right,
1,5,1,1.0170542000014393,['c'],1,left,['3'],3,1.1020883999990474,0.1,0,FastFast,13,19,Woman,Right,
2,5,1,1.3991898999993282,['c'],0,right,['2'],2,0.9185802000010881,0.2,0,FastFast,13,19,Woman,Right,
3,5,1,1.166015900000275,['n'],0,left,['2'],2,1.0851638000003732,0.1,0,FastFast,13,19,Woman,Right,
4,5,1,1.1003216999997676,['n'],1,right,['3'],3,0.9012194000006275,0.2,0,FastFast,13,19,Woman,Right,
5,5,1,1.6842421000001195,['c'],1,left,['3'],3,1.2848088999999163,0.2,0,FastFast,13,19,Woman,Right,
6,5,1,1.266953199999989,['n'],0,left,['3'],3,0.4669646999991528,0.4,0,FastFast,13,19,Woman,Right,
7,5,1,0.88259829999879,['n'],1,right,['8'],4,1.1346921000003931,0.4,0,FastFast,13,19,Woman,Right,
8,5,1,1.7160903999993025,['n'],1,right,['9'],5,0.5179100000004837,0.4,0,FastFast,13,19,Woman,Right,
9,5,1,0.9002904999997554,['n'],0,left,['2'],2,1.8509186000010232,0.1,0,FastFast,13,19,Woman,Right,
10,5,1,0.7500603000007686,['n'],1,right,['2'],2,1.0180787999997847,0.2,0,FastFast,13,19,Woman,Right,
11,5,1,2.0998591000006854,['n'],0,left,['2'],2,1.4180336999997962,0.1,0,FastFast,13,19,Woman,Right,
12,5,1,1.35057500000039,['c'],1,left,['3'],3,0.8511775999995734,0.2,0,FastFast,13,19,Woman,Right,
13,5,1,1.1664619999992283,['n'],1,right,['8'],4,1.2012541999993118,0.2,0,FastFast,13,19,Woman,Right,
14,5,1,1.6336035000003903,['c'],1,left,['1'],1,1.2173877000004723,0.2,0,FastFast,13,19,Woman,Right,
15,5,1,1.0006147000003693,['n'],0,left,['8'],4,1.0675406000009389,0.1,0,FastFast,13,19,Woman,Right,
16,5,1,1.0345180000003893,['n'],1,right,['3'],3,2.2497667000006913,0.1,0,FastFast,13,19,Woman,Right,
17,5,1,1.650135500000033,['n'],1,right,['9'],5,0.9681078000012349,0.4,0,FastFast,13,19,Woman,Right,
18,5,1,1.0012805000005756,['c'],1,left,['2'],2,0.6844677999997657,0.4,0,FastFast,13,19,Woman,Right,
19,5,1,1.4496447000001353,['c'],1,left,['3'],3,2.6510278999994625,0.4,0,FastFast,13,19,Woman,Right,
20,5,1,0.9503341999989061,['n'],1,right,['9'],5,0.818094000000201,0.4,0,FastFast,13,19,Woman,Right,
21,5,1,0.9658487999986392,['c'],0,right,['2'],2,1.3834649000000354,0.1,0,FastFast,13,19,Woman,Right,
22,5,1,1.433842200000072,['c'],1,left,['8'],4,1.568310399999973,0.1,0,FastFast,13,19,Woman,Right,
23,5,1,0.7503956999989896,['n'],0,left,['8'],4,1.384522399999696,0.2,0,FastFast,13,19,Woman,Right,
24,5,1,0.8506198999984917,['c'],1,left,['1'],1,1.4345778999995673,0.1,0,FastFast,13,19,Woman,Right,
25,5,1,0.8005292999987432,['n'],1,right,['8'],4,1.4513516000006348,0.1,0,FastFast,13,19,Woman,Right,
26,5,1,0.7508926000009524,['c'],1,left,['9'],5,1.0174046000011003,0.4,0,FastFast,13,19,Woman,Right,
27,5,1,0.8505365000000893,['n'],1,right,['9'],5,1.0014162000006763,0.1,0,FastFast,13,19,Woman,Right,
28,5,1,0.8666831000009552,['c'],0,right,['8'],4,2.001470100000006,0.2,0,FastFast,13,19,Woman,Right,
29,5,1,1.8659941000005347,"['n', 'c']",1,right,['2'],2,1.8513653999998496,0.1,0,FastFast,13,19,Woman,Right,
30,5,1,0.6983084000003146,['c'],0,right,['2'],2,1.2341699999997218,0.1,0,FastFast,13,19,Woman,Right,
31,5,1,0.6519179999995686,['n'],0,left,['3'],3,1.8003859000000375,0.2,0,FastFast,13,19,Woman,Right,
32,5,1,0.8165537000004406,['n'],1,right,['9'],5,0.8850155999989511,0.1,0,FastFast,13,19,Woman,Right,
33,5,1,1.451344799999788,['n'],0,left,['9'],5,1.5163505000000441,0.2,0,FastFast,13,19,Woman,Right,
34,5,1,1.0504652999989048,['n'],0,left,['8'],4,1.5178852000008192,0.4,0,FastFast,13,19,Woman,Right,
35,5,1,1.883344699999725,['n'],0,left,['2'],2,1.6674777000007452,0.2,0,FastFast,13,19,Woman,Right,
36,5,1,1.0336212000001979,['c'],1,left,['1'],1,1.384592899999916,0.2,0,FastFast,13,19,Woman,Right,
37,5,1,0.8002483999989636,['c'],1,left,['1'],1,1.201430999999502,0.4,0,FastFast,13,19,Woman,Right,
38,5,1,0.8338808999997127,['n'],0,left,['8'],4,2.184359199998653,0.4,0,FastFast,13,19,Woman,Right,
39,5,1,0.9841164999998,['n'],0,left,['9'],5,1.0341568999992887,0.4,0,FastFast,13,19,Woman,Right,
40,5,1,1.3503576000002795,['n'],0,left,['9'],5,1.0346718000000692,0.1,0,FastFast,13,19,Woman,Right,
41,5,1,0.6174393000001146,['n'],1,right,['0'],6,0.6344146000010369,0.4,0,FastFast,13,19,Woman,Right,
42,5,1,1.7005193999993935,['n'],1,right,['0'],6,0.3850449999990815,0.2,0,FastFast,13,19,Woman,Right,
43,5,1,0.765924700001051,['n'],1,right,['0'],6,0.3188605999985157,0.4,0,FastFast,13,19,Woman,Right,
44,5,1,1.8169069000014133,['n'],1,right,['9'],5,0.7162440000010974,0.1,0,FastFast,13,19,Woman,Right,
45,5,1,0.6683296000010159,['n'],1,right,['0'],6,0.4015933999999106,0.2,0,FastFast,13,19,Woman,Right,
46,5,1,0.7341397000000143,['n'],0,left,['0'],6,0.5686571000005642,0.4,0,FastFast,13,19,Woman,Right,
47,5,1,1.7338691999993898,['n'],1,right,['0'],6,0.5182447999995929,0.4,0,FastFast,13,19,Woman,Right,
48,5,1,1.5668948000002274,['n'],1,right,['0'],6,0.3658339000012347,0.2,0,FastFast,13,19,Woman,Right,
49,5,1,1.5683877999999822,['n'],1,right,['0'],6,0.3174079000000347,0.4,0,FastFast,13,19,Woman,Right,
50,5,1,1.0671870999995008,['n'],0,left,['0'],6,0.25149620000047435,0.1,0,FastFast,13,19,Woman,Right,
51,5,1,1.7005885999988095,['n'],1,right,['0'],6,0.2667626000002201,0.1,0,FastFast,13,19,Woman,Right,
52,5,1,1.5163223999988986,['n'],1,right,['9'],5,0.9687799999992421,0.4,0,FastFast,13,19,Woman,Right,
53,5,1,1.5840427999992244,['n'],0,left,['9'],5,0.5847099999991769,0.4,0,FastFast,13,19,Woman,Right,
54,5,1,1.2334377999995922,['n'],0,left,['0'],6,0.26597380000021076,0.2,0,FastFast,13,19,Woman,Right,
55,5,1,1.7848012000013114,['n'],1,right,['2'],2,1.5179108000011183,0.2,0,FastFast,13,19,Woman,Right,
56,5,1,1.7163603999997576,['n'],1,right,['9'],5,0.6679597999991529,0.2,0,FastFast,13,19,Woman,Right,
57,5,1,1.5342503000010765,['n'],0,left,['8'],4,1.7512509999996837,0.1,0,FastFast,13,19,Woman,Right,
58,5,1,1.2844367999987298,['n'],0,left,['2'],2,1.0347627999999531,0.2,0,FastFast,13,19,Woman,Right,
59,5,1,1.133762299999944,['n'],1,right,['3'],3,0.5847291999998561,0.1,0,FastFast,13,19,Woman,Right,
0,6,1,2.650974500000302,['n'],1,right,['2'],2,1.5014300999991974,0.1,0,AccFast,13,19,Woman,Right,
1,6,1,1.6171710999988136,['n'],1,right,['9'],5,0.7684735999991972,0.4,0,AccFast,13,19,Woman,Right,
2,6,1,2.9002104999999574,['c'],1,left,['2'],2,0.9346224999990227,0.4,0,AccFast,13,19,Woman,Right,
3,6,1,3.2165397999997367,['n'],0,left,['9'],5,0.4513079000007565,0.4,0,AccFast,13,19,Woman,Right,
4,6,1,2.583809100000508,['c'],1,left,['9'],5,0.9179101000008814,0.4,0,AccFast,13,19,Woman,Right,
5,6,1,3.0834107999999105,['c'],1,left,['3'],3,0.46660070000143605,0.2,0,AccFast,13,19,Woman,Right,
6,6,1,2.8669046000013623,['n'],0,left,['8'],4,0.43489410000074713,0.2,0,AccFast,13,19,Woman,Right,
7,6,1,5.015100200000234,x,-99,right,none,-99,-99,0.1,1,AccFast,13,19,Woman,Right,
8,6,1,1.1172251000007236,['n'],1,right,['0'],6,0.51810309999928,0.4,0,AccFast,13,19,Woman,Right,
9,6,1,1.2168928000010055,['n'],1,right,['0'],6,0.26736820000041917,0.4,0,AccFast,13,19,Woman,Right,
10,6,1,1.9502991999997903,['n'],1,right,['9'],5,0.3348858999997901,0.2,0,AccFast,13,19,Woman,Right,
11,6,1,2.6658423999997467,['n'],1,right,['8'],4,0.3512117999998736,0.4,0,AccFast,13,19,Woman,Right,
12,6,1,2.8005832999988343,['n'],1,right,['2'],2,1.618010799998956,0.2,0,AccFast,13,19,Woman,Right,
13,6,1,3.0322983999994904,['c'],0,right,['2'],2,0.5521590999996988,0.1,0,AccFast,13,19,Woman,Right,
14,6,1,2.217074700000012,['c'],0,right,['1'],1,0.31784609999886015,0.1,0,AccFast,13,19,Woman,Right,
15,6,1,2.2837010999992344,['c'],1,left,['0'],6,0.40112950000002456,0.2,0,AccFast,13,19,Woman,Right,
16,6,1,2.765860800000155,['n'],0,left,['3'],3,1.4506416999993235,0.2,0,AccFast,13,19,Woman,Right,
17,6,1,2.200285900000381,['n'],1,right,['3'],3,0.8515379000000394,0.4,0,AccFast,13,19,Woman,Right,
18,6,1,3.9836906000000454,['c'],1,left,['8'],4,0.3347786000013002,0.1,0,AccFast,13,19,Woman,Right,
19,6,1,1.6659759000012855,['n'],0,left,['3'],3,0.3509178000003885,0.1,0,AccFast,13,19,Woman,Right,
20,6,1,1.6513171999995393,['c'],1,left,['9'],5,0.25130970000100206,0.4,0,AccFast,13,19,Woman,Right,
21,6,1,3.4667217999995046,['c'],0,right,['9'],5,0.6179831999997987,0.1,0,AccFast,13,19,Woman,Right,
22,6,1,1.5661726999987877,['c'],1,left,['9'],5,0.1680383000002621,0.4,0,AccFast,13,19,Woman,Right,
23,6,1,2.533513200000016,['n'],0,left,['8'],4,0.2516814999999042,0.1,0,AccFast,13,19,Woman,Right,
24,6,1,1.2334567999987485,['n'],1,right,['9'],5,0.25177139999868814,0.4,0,AccFast,13,19,Woman,Right,
25,6,1,2.9154178999997384,['c'],1,left,['9'],5,0.6182349000009708,0.1,0,AccFast,13,19,Woman,Right,
26,6,1,2.7506329999996524,['c'],1,left,['8'],4,0.2348774999991292,0.2,0,AccFast,13,19,Woman,Right,
27,6,1,2.466735099998914,['n'],0,left,['8'],4,0.36824040000101377,0.1,0,AccFast,13,19,Woman,Right,
28,6,1,1.6838552999997773,['c'],1,left,['8'],4,0.18456909999986237,0.4,0,AccFast,13,19,Woman,Right,
29,6,1,2.20041990000027,['n'],1,right,['8'],4,0.18475989999933518,0.1,0,AccFast,13,19,Woman,Right,
30,6,1,2.4339794000006805,['c'],1,left,['2'],2,0.8682293000001664,0.2,0,AccFast,13,19,Woman,Right,
31,6,1,2.5165338999995583,['c'],1,left,['9'],5,0.301948899999843,0.4,0,AccFast,13,19,Woman,Right,
32,6,1,1.6005249000008916,['n'],1,right,['0'],6,0.16800709999915853,0.4,0,AccFast,13,19,Woman,Right,
33,6,1,3.2000462999985757,['c'],0,right,['1'],1,0.30172399999901245,0.1,0,AccFast,13,19,Woman,Right,
34,6,1,3.3666599999996834,['n'],1,right,['0'],6,0.20131749999927706,0.1,0,AccFast,13,19,Woman,Right,
35,6,1,2.3003664999996545,['n'],1,right,['3'],3,0.518151600001147,0.2,0,AccFast,13,19,Woman,Right,
36,6,1,3.3339763000003586,['n'],1,right,['8'],4,0.2014020000005985,0.2,0,AccFast,13,19,Woman,Right,
37,6,1,3.1169540000009874,['c'],0,right,['3'],3,0.20182419999946433,0.2,0,AccFast,13,19,Woman,Right,
38,6,1,3.415123999999196,['c'],0,right,['3'],3,0.2509287000011682,0.1,0,AccFast,13,19,Woman,Right,
39,6,1,3.1509677000012744,['n'],1,right,['9'],5,0.26795709999896644,0.1,0,AccFast,13,19,Woman,Right,
40,6,1,2.717461899999762,['c'],1,left,['8'],4,0.16806779999933497,0.2,0,AccFast,13,19,Woman,Right,
41,6,1,3.833519300000262,['c'],1,left,['8'],4,0.30011930000000575,0.2,0,AccFast,13,19,Woman,Right,
42,6,1,2.784003099999609,['n'],1,right,['9'],5,0.3353877999998076,0.1,0,AccFast,13,19,Woman,Right,
43,6,1,3.2824414999995497,['c'],1,left,['3'],3,0.2518824999988283,0.2,0,AccFast,13,19,Woman,Right,
44,6,1,3.0676180999998905,['n'],0,left,['8'],4,0.21819970000069588,0.2,0,AccFast,13,19,Woman,Right,
45,6,1,1.6835221000001184,['n'],1,right,['9'],5,0.16778689999955532,0.2,0,AccFast,13,19,Woman,Right,
46,6,1,1.133886399999028,['c'],1,left,['2'],2,0.151378399999885,0.4,0,AccFast,13,19,Woman,Right,
47,6,1,2.265900899999906,['c'],1,left,['8'],4,0.2349722999988444,0.4,0,AccFast,13,19,Woman,Right,
48,6,1,3.100443699999232,['n'],0,left,['9'],5,0.28452499999912106,0.2,0,AccFast,13,19,Woman,Right,
49,6,1,1.9164295999999013,['c'],1,left,['9'],5,0.15119919999960985,0.4,0,AccFast,13,19,Woman,Right,
50,6,1,3.4335804999991524,['c'],1,left,['8'],4,0.3013176000004023,0.1,0,AccFast,13,19,Woman,Right,
51,6,1,2.699815600000875,['n'],1,right,['8'],4,0.15159599999969942,0.1,0,AccFast,13,19,Woman,Right,
52,6,1,2.5835716999990836,['c'],1,left,['8'],4,0.20153639999989537,0.4,0,AccFast,13,19,Woman,Right,
53,6,1,2.267214800000147,['n'],1,right,['9'],5,0.18527389999871957,0.4,0,AccFast,13,19,Woman,Right,
54,6,1,3.3836866000001464,['n'],1,right,['9'],5,0.21736950000013167,0.4,0,AccFast,13,19,Woman,Right,
55,6,1,2.865503600000011,['n'],1,right,['8'],4,0.1358808000004501,0.2,0,AccFast,13,19,Woman,Right,
56,6,1,2.633698199999344,['n'],1,right,['2'],2,1.2347571000009339,0.2,0,AccFast,13,19,Woman,Right,
57,6,1,4.167702700000518,['c'],0,right,['8'],4,0.1518763999993098,0.1,0,AccFast,13,19,Woman,Right,
58,6,1,1.667031599999973,['c'],1,left,['8'],4,0.46833610000066983,0.1,0,AccFast,13,19,Woman,Right,
59,6,1,3.666040399999474,['n'],0,left,['8'],4,0.13490979999914998,0.2,0,AccFast,13,19,Woman,Right,
0,7,1,3.1495687999995425,['n'],1,right,['8'],4,1.5515917999982776,0.2,0,AccAcc,13,19,Woman,Right,
1,7,1,3.8332714999996824,['n'],1,right,['2'],2,1.051479499999914,0.1,0,AccAcc,13,19,Woman,Right,
2,7,1,0.9503813999999693,['n'],1,right,['9'],5,0.6346463999998377,0.2,0,AccAcc,13,19,Woman,Right,
3,7,1,2.983653499999491,['n'],1,right,['8'],4,0.8846743000012793,0.2,0,AccAcc,13,19,Woman,Right,
4,7,1,2.3002810000016325,['c'],1,left,['9'],5,0.8683282000001782,0.2,0,AccAcc,13,19,Woman,Right,
5,7,1,3.216699399999925,['n'],0,left,['2'],2,2.20052940000096,0.4,0,AccAcc,13,19,Woman,Right,
6,7,1,2.1334998999991512,['n'],0,left,['9'],5,1.3345494000004692,0.1,0,AccAcc,13,19,Woman,Right,
7,7,1,1.0998074999988603,['n'],1,right,['0'],6,0.46798970000054396,0.2,0,AccAcc,13,19,Woman,Right,
8,7,1,1.9497000000010303,['n'],1,right,['0'],6,0.26800809999986086,0.1,0,AccAcc,13,19,Woman,Right,
9,7,1,1.6845313000012538,['n'],1,right,['0'],6,0.517391299999872,0.2,0,AccAcc,13,19,Woman,Right,
10,7,1,2.4834121000003506,['n'],0,left,['0'],6,0.8178688999996666,0.2,0,AccAcc,13,19,Woman,Right,
11,7,1,0.9186260999995284,['n'],1,right,['0'],6,0.7008925000009185,0.2,0,AccAcc,13,19,Woman,Right,
12,7,1,1.5838395000009768,['n'],1,right,['0'],6,0.6012369000000035,0.2,0,AccAcc,13,19,Woman,Right,
13,7,1,1.584654700000101,['n'],1,right,['0'],6,0.6999422000008053,0.1,0,AccAcc,13,19,Woman,Right,
14,7,1,1.334051299998464,['n'],1,right,['0'],6,0.750065000000177,0.1,0,AccAcc,13,19,Woman,Right,
15,7,1,1.5675713000000542,['n'],0,left,['9'],5,0.7012789999989764,0.4,0,AccAcc,13,19,Woman,Right,
16,7,1,1.783894300000611,['n'],0,left,['9'],5,0.6681418999996822,0.4,0,AccAcc,13,19,Woman,Right,
17,7,1,1.4835450999999011,['n'],1,right,['9'],5,0.7014730000009877,0.2,0,AccAcc,13,19,Woman,Right,
18,7,1,3.4168382000007114,['n'],0,left,['8'],4,1.2351063000005524,0.1,0,AccAcc,13,19,Woman,Right,
19,7,1,1.5997329000001628,['n'],1,right,['9'],5,0.5848282999995718,0.1,0,AccAcc,13,19,Woman,Right,
20,7,1,3.5163073999992775,['n'],0,left,['8'],4,1.0346946000008757,0.2,0,AccAcc,13,19,Woman,Right,
21,7,1,1.450208100000964,['n'],1,right,['8'],4,3.1676895000000513,0.1,0,AccAcc,13,19,Woman,Right,
22,7,1,1.7168526000004931,['n'],1,right,['0'],6,0.5849372999982734,0.2,0,AccAcc,13,19,Woman,Right,
23,7,1,1.78298150000046,['n'],1,right,['9'],5,0.6008989000001748,0.2,0,AccAcc,13,19,Woman,Right,
24,7,1,2.349990799999432,['n'],0,left,['9'],5,1.084370200000194,0.1,0,AccAcc,13,19,Woman,Right,
25,7,1,3.2332014000003255,['n'],0,left,['2'],2,1.2673317000007955,0.4,0,AccAcc,13,19,Woman,Right,
26,7,1,3.049049200000809,['n'],0,left,['8'],4,1.4174932000005356,0.4,0,AccAcc,13,19,Woman,Right,
27,7,1,2.3504496999994444,['n'],0,left,['8'],4,1.849192599998787,0.4,0,AccAcc,13,19,Woman,Right,
28,7,1,0.8519751999992877,['n'],1,right,['9'],5,0.9176131000003807,0.4,0,AccAcc,13,19,Woman,Right,
29,7,1,1.2342055999997683,['n'],0,left,['8'],4,0.8521468999988429,0.2,0,AccAcc,13,19,Woman,Right,
30,7,1,0.633554500000173,['n'],1,right,['0'],6,0.4847181000004639,0.4,0,AccAcc,13,19,Woman,Right,
31,7,1,0.6667225000001054,['n'],1,right,['9'],5,0.7515987000006135,0.4,0,AccAcc,13,19,Woman,Right,
32,7,1,1.6667961999992258,['n'],0,left,['0'],6,0.4346246000004612,0.4,0,AccAcc,13,19,Woman,Right,
33,7,1,0.8673249999992549,['n'],0,left,['9'],5,0.4181282999998075,0.1,0,AccAcc,13,19,Woman,Right,
34,7,1,0.9001374999988911,['n'],1,right,['8'],4,0.8183926999990945,0.4,0,AccAcc,13,19,Woman,Right,
35,7,1,3.5667316999988543,['n'],0,left,['8'],4,1.0178490999987844,0.4,0,AccAcc,13,19,Woman,Right,
36,7,1,3.3840401000015845,['n'],0,left,['8'],4,0.5672930000000633,0.1,0,AccAcc,13,19,Woman,Right,
37,7,1,3.2007436999992933,['c'],1,left,['3'],3,1.034603899999638,0.2,0,AccAcc,13,19,Woman,Right,
38,7,1,2.900889599999573,['n'],0,left,['8'],4,0.8514309999991383,0.4,0,AccAcc,13,19,Woman,Right,
39,7,1,3.5665295999988302,['c'],1,left,['9'],5,1.951477700000396,0.2,0,AccAcc,13,19,Woman,Right,
40,7,1,2.250754599999709,['n'],0,left,['9'],5,0.901340500000515,0.2,0,AccAcc,13,19,Woman,Right,
41,7,1,2.8651136999997107,['n'],0,left,['2'],2,0.5507852000009734,0.1,0,AccAcc,13,19,Woman,Right,
42,7,1,1.201344799999788,['n'],1,right,['0'],6,0.3181386999985989,0.4,0,AccAcc,13,19,Woman,Right,
43,7,1,0.817203900000095,['n'],1,right,['0'],6,0.5182143000001815,0.4,0,AccAcc,13,19,Woman,Right,
44,7,1,0.9332897000003868,['n'],0,left,['0'],6,0.41828410000016447,0.2,0,AccAcc,13,19,Woman,Right,
45,7,1,2.2497370000000956,['n'],0,left,['9'],5,0.5515814999998838,0.4,0,AccAcc,13,19,Woman,Right,
46,7,1,5.015456000000995,x,-99,left,none,-99,-99,0.2,1,AccAcc,13,19,Woman,Right,
47,7,1,1.3847181999990426,['c'],1,left,['9'],5,0.8511961999993218,0.1,0,AccAcc,13,19,Woman,Right,
48,7,1,0.7837667999992846,['n'],1,right,['0'],6,0.7177303999997093,0.4,0,AccAcc,13,19,Woman,Right,
49,7,1,0.6835582999992766,['n'],1,right,['0'],6,0.4849803000015527,0.4,0,AccAcc,13,19,Woman,Right,
50,7,1,2.1827534999993077,['n'],1,right,['9'],5,0.48348729999997886,0.1,0,AccAcc,13,19,Woman,Right,
51,7,1,2.7828229000006104,['n'],0,left,['8'],4,0.6345533000003343,0.1,0,AccAcc,13,19,Woman,Right,
52,7,1,1.600138899999365,['c'],1,left,['8'],4,0.9835446000015509,0.4,0,AccAcc,13,19,Woman,Right,
53,7,1,2.433990100000301,['c'],1,left,['9'],5,0.5180246999989322,0.2,0,AccAcc,13,19,Woman,Right,
54,7,1,2.950081199998749,['n'],1,right,['2'],2,0.45116439999947033,0.1,0,AccAcc,13,19,Woman,Right,
55,7,1,3.0334289999991597,['n'],1,right,['3'],3,1.5342129999989993,0.1,0,AccAcc,13,19,Woman,Right,
56,7,1,2.6493069999996806,['n'],1,right,['8'],4,0.9020690999986982,0.1,0,AccAcc,13,19,Woman,Right,
57,7,1,1.5162699000011344,['c'],1,left,['8'],4,0.8008394999997108,0.1,0,AccAcc,13,19,Woman,Right,
58,7,1,3.0001281000004383,['n'],1,right,['1'],1,0.5008495000001858,0.1,0,AccAcc,13,19,Woman,Right,
59,7,1,1.0670509999999922,['n'],1,right,['2'],2,1.4678379999986646,0.4,0,AccAcc,13,19,Woman,Right,
0,8,1,0.8675872000003437,['n'],1,right,['2'],2,0.8181667999997444,0.2,0,FastAcc,13,19,Woman,Right,
1,8,1,1.3341511000016908,['n'],0,left,['2'],2,1.2513407000005827,0.4,0,FastAcc,13,19,Woman,Right,
2,8,1,0.7510283000010531,['c'],1,left,['3'],3,0.851254199998948,0.2,0,FastAcc,13,19,Woman,Right,
3,8,1,0.5669901000001119,['n'],1,right,['8'],4,0.6335994999990362,0.1,0,FastAcc,13,19,Woman,Right,
4,8,1,0.950741200000266,['c'],1,left,['8'],4,0.5000782000006438,0.4,0,FastAcc,13,19,Woman,Right,
5,8,1,0.584276099998533,['n'],0,left,['8'],4,1.017989599999055,0.4,0,FastAcc,13,19,Woman,Right,
6,8,1,1.0170047999999952,['c'],1,left,['2'],2,0.501324900000327,0.1,0,FastAcc,13,19,Woman,Right,
7,8,1,0.5668141000005562,['n'],1,right,['9'],5,0.9338968000010937,0.2,0,FastAcc,13,19,Woman,Right,
8,8,1,0.6010874999992666,['n'],1,right,['3'],3,0.8013924000006227,0.1,0,FastAcc,13,19,Woman,Right,
9,8,1,0.8839794000014081,['c'],0,right,['8'],4,0.7513536999995267,0.1,0,FastAcc,13,19,Woman,Right,
10,8,1,0.6820680000000721,['c'],1,left,['1'],1,1.0688996000008046,0.4,0,FastAcc,13,19,Woman,Right,
11,8,1,0.9995048999990104,['n'],0,left,['8'],4,0.8179650000001857,0.4,0,FastAcc,13,19,Woman,Right,
12,8,1,1.1170600000004924,['n'],0,left,['9'],5,0.6179627000001346,0.2,0,FastAcc,13,19,Woman,Right,
13,8,1,1.3007020000004559,['n'],0,left,['2'],2,1.26813089999996,0.1,0,FastAcc,13,19,Woman,Right,
14,8,1,0.6816985000004934,['n'],1,right,['3'],3,0.8848770999993576,0.2,0,FastAcc,13,19,Woman,Right,
15,8,1,1.2659257000013895,['n'],1,right,['8'],4,0.6355227000003651,0.2,0,FastAcc,13,19,Woman,Right,
16,8,1,1.282505500001207,['n'],1,right,['9'],5,0.4690543000015168,0.2,0,FastAcc,13,19,Woman,Right,
17,8,1,1.2004247000004398,['n'],1,right,['2'],2,0.9510535999997956,0.1,0,FastAcc,13,19,Woman,Right,
18,8,1,1.2501487000008638,['n'],1,right,['3'],3,1.4678808000007848,0.2,0,FastAcc,13,19,Woman,Right,
19,8,1,2.383598799999163,['c'],1,left,['0'],6,0.8497532999990653,0.4,0,FastAcc,13,19,Woman,Right,
20,8,1,1.2004233000006934,['n'],1,right,['2'],2,1.8503805000000284,0.1,0,FastAcc,13,19,Woman,Right,
21,8,1,1.2997692999997525,['n'],0,left,['3'],3,1.0182170000007318,0.2,0,FastAcc,13,19,Woman,Right,
22,8,1,0.7177589000002627,['n'],1,right,['0'],6,0.6679449999992357,0.4,0,FastAcc,13,19,Woman,Right,
23,8,1,1.4504529999994702,['c'],0,right,['1'],1,1.3336784000002808,0.1,0,FastAcc,13,19,Woman,Right,
24,8,1,1.2012458000008337,['c'],1,left,['0'],6,0.5681683999991947,0.2,0,FastAcc,13,19,Woman,Right,
25,8,1,1.101203500000338,['c'],1,left,['9'],5,0.7179422999997769,0.4,0,FastAcc,13,19,Woman,Right,
26,8,1,0.5840065000011236,['n'],1,right,['0'],6,0.6847113000003446,0.4,0,FastAcc,13,19,Woman,Right,
27,8,1,0.7011127999994642,['c'],1,left,['9'],5,0.7679262999990897,0.2,0,FastAcc,13,19,Woman,Right,
28,8,1,0.5837928000000829,['n'],0,left,['9'],5,1.4345907000006264,0.4,0,FastAcc,13,19,Woman,Right,
29,8,1,1.2653308999997535,['n'],0,left,['3'],3,0.9023709999983112,0.4,0,FastAcc,13,19,Woman,Right,
30,8,1,0.5674545000001672,['n'],1,right,['9'],5,0.8013504000009561,0.1,0,FastAcc,13,19,Woman,Right,
31,8,1,0.5833631999994395,['c'],1,left,['2'],2,1.2507463000001735,0.2,0,FastAcc,13,19,Woman,Right,
32,8,1,0.5506413999992219,['n'],1,right,['9'],5,1.1335292000003392,0.2,0,FastAcc,13,19,Woman,Right,
33,8,1,0.9007156999996369,['n'],0,left,['3'],3,1.3177866999994876,0.1,0,FastAcc,13,19,Woman,Right,
34,8,1,0.8853853000000527,['n'],1,right,['9'],5,1.5342569000004005,0.4,0,FastAcc,13,19,Woman,Right,
35,8,1,1.5685985000000073,['n'],1,right,['3'],3,1.250759200000175,0.1,0,FastAcc,13,19,Woman,Right,
36,8,1,0.5011924999998882,['c'],1,left,['8'],4,1.4674147999994602,0.2,0,FastAcc,13,19,Woman,Right,
37,8,1,0.5333201000012195,['n'],1,right,['0'],6,1.0180060000002413,0.4,0,FastAcc,13,19,Woman,Right,
38,8,1,0.6171802000008029,['n'],1,right,['9'],5,1.351184799999828,0.2,0,FastAcc,13,19,Woman,Right,
39,8,1,1.1658796000010625,['c'],0,right,['2'],2,1.5015063000009832,0.2,0,FastAcc,13,19,Woman,Right,
40,8,1,0.8167116999993596,['n'],0,left,['2'],2,1.6505068999995274,0.2,0,FastAcc,13,19,Woman,Right,
41,8,1,1.117193000000043,['n'],0,left,['1'],1,1.3509020000001328,0.4,0,FastAcc,13,19,Woman,Right,
42,8,1,0.9845177000006515,['c'],1,left,['9'],5,1.1510665000005247,0.4,0,FastAcc,13,19,Woman,Right,
43,8,1,0.6175800000000891,['n'],1,right,['0'],6,1.183518499999991,0.1,0,FastAcc,13,19,Woman,Right,
44,8,1,0.86620640000001,['n'],0,left,['3'],3,1.11878280000019,0.1,0,FastAcc,13,19,Woman,Right,
45,8,1,0.6825267000003805,['c'],1,left,['9'],5,1.2519107000007352,0.4,0,FastAcc,13,19,Woman,Right,
46,8,1,0.8336566999987554,['n'],1,right,['9'],5,1.4347682999996323,0.2,0,FastAcc,13,19,Woman,Right,
47,8,1,0.8662213999996311,['n'],1,right,['3'],3,1.0010518999988562,0.1,0,FastAcc,13,19,Woman,Right,
48,8,1,0.5495561000007001,['n'],1,right,['0'],6,1.0853174999992916,0.1,0,FastAcc,13,19,Woman,Right,
49,8,1,0.8005010999986553,['c'],1,left,['9'],5,1.4180994999987888,0.1,0,FastAcc,13,19,Woman,Right,
50,8,1,0.6826756999998906,['n'],1,right,['9'],5,1.084644099999423,0.4,0,FastAcc,13,19,Woman,Right,
51,8,1,0.9324608000006265,['n'],1,right,['8'],4,1.3508848999990732,0.1,0,FastAcc,13,19,Woman,Right,
52,8,1,0.6845157999996445,['n'],1,right,['3'],3,1.6678149999988818,0.1,0,FastAcc,13,19,Woman,Right,
53,8,1,1.117435199999818,['n'],1,right,['2'],2,1.5668865999996342,0.1,0,FastAcc,13,19,Woman,Right,
54,8,1,1.6505689000005077,['n'],0,left,['2'],2,3.017883799999254,0.2,0,FastAcc,13,19,Woman,Right,
55,8,1,0.5506021000001056,['n'],1,right,['9'],5,1.1512499999989814,0.4,0,FastAcc,13,19,Woman,Right,
56,8,1,1.8810596000002988,['n'],0,left,['2'],2,1.918050199999925,0.1,0,FastAcc,13,19,Woman,Right,
57,8,1,0.7336900999998761,['n'],0,left,['3'],3,0.9513265999994474,0.2,0,FastAcc,13,19,Woman,Right,
58,8,1,0.917964899999788,['c'],1,left,['8'],4,1.0347638000002917,0.4,0,FastAcc,13,19,Woman,Right,
59,8,1,0.8669608000000153,['n'],0,left,['3'],3,1.6012654999994993,0.4,0,FastAcc,13,19,Woman,Right,
0,9,1,0.6346603000001778,['n'],0,left,['8'],4,0.6846165999995719,0.2,0,FastFast,13,19,Woman,Right,
1,9,1,0.6346269999994547,['n'],1,right,['9'],5,0.40144839999993565,0.4,0,FastFast,13,19,Woman,Right,
2,9,1,0.7341821000009077,['n'],1,right,['8'],4,0.5846502000003966,0.2,0,FastFast,13,19,Woman,Right,
3,9,1,0.8679138000006787,['c'],1,left,['3'],3,0.5510579000001599,0.1,0,FastFast,13,19,Woman,Right,
4,9,1,0.5840203999996447,['n'],1,right,['9'],5,0.40137940000022354,0.4,0,FastFast,13,19,Woman,Right,
5,9,1,0.9180569000000105,['n'],1,right,['0'],6,0.4681030000010651,0.4,0,FastFast,13,19,Woman,Right,
6,9,1,0.6006330000000162,['c'],1,left,['2'],2,0.5682532000009815,0.2,0,FastFast,13,19,Woman,Right,
7,9,1,0.7501212999995914,['n'],0,left,['9'],5,0.3994096000005811,0.1,0,FastFast,13,19,Woman,Right,
8,9,1,0.6020945000000211,['c'],1,left,['3'],3,0.3847315000002709,0.1,0,FastFast,13,19,Woman,Right,
9,9,1,0.5172676000001957,['n'],1,right,['3'],3,1.3672150999991572,0.1,0,FastFast,13,19,Woman,Right,
10,9,1,0.6673811999989994,['c'],1,left,['9'],5,0.501359500000035,0.2,0,FastFast,13,19,Woman,Right,
11,9,1,0.9000718999996025,['n'],0,left,['9'],5,0.3341318999991927,0.1,0,FastFast,13,19,Woman,Right,
12,9,1,0.7679531999983737,['n'],0,left,['2'],2,0.8344999000000826,0.2,0,FastFast,13,19,Woman,Right,
13,9,1,1.3667285000010452,['c'],0,right,['2'],2,0.40209860000140907,0.2,0,FastFast,13,19,Woman,Right,
14,9,1,0.8177059999998164,['n'],0,left,['3'],3,0.7165353999989748,0.1,0,FastFast,13,19,Woman,Right,
15,9,1,1.1176149000002624,['c'],1,left,['8'],4,0.40139730000009877,0.4,0,FastFast,13,19,Woman,Right,
16,9,1,0.5677739000002475,['n'],1,right,['9'],5,0.4512555999990582,0.4,0,FastFast,13,19,Woman,Right,
17,9,1,0.6671134999996866,['n'],0,left,['3'],3,0.8845972999988589,0.2,0,FastFast,13,19,Woman,Right,
18,9,1,0.5504641999996238,['n'],1,right,['3'],3,0.40020819999881496,0.1,0,FastFast,13,19,Woman,Right,
19,9,1,0.7180761999989045,['c'],1,left,['3'],3,0.5029129999984434,0.2,0,FastFast,13,19,Woman,Right,
20,9,1,0.8002018000006501,['n'],1,right,['9'],5,0.36736629999904835,0.4,0,FastFast,13,19,Woman,Right,
21,9,1,1.2176342000002478,['c'],0,right,['8'],4,0.30154310000034457,0.4,0,FastFast,13,19,Woman,Right,
22,9,1,1.067087999999785,['n'],1,right,['8'],4,0.5187222000004112,0.2,0,FastFast,13,19,Woman,Right,
23,9,1,1.2677065999996557,['c'],1,left,['3'],3,0.5347390999995696,0.1,0,FastFast,13,19,Woman,Right,
24,9,1,0.9496589999998832,['n'],0,left,['3'],3,0.3014687999984744,0.1,0,FastFast,13,19,Woman,Right,
25,9,1,1.3501980000000913,['n'],1,right,['9'],5,0.20034820000000764,0.2,0,FastFast,13,19,Woman,Right,
26,9,1,1.4827249000009033,['n'],1,right,['3'],3,0.1689327999993111,0.2,0,FastFast,13,19,Woman,Right,
27,9,1,1.4991827000012563,['n'],1,right,['8'],4,0.21853180000107386,0.4,0,FastFast,13,19,Woman,Right,
28,9,1,0.8006364999982907,['c'],1,left,['3'],3,0.2512148999994679,0.1,0,FastFast,13,19,Woman,Right,
29,9,1,0.9502236999996967,['n'],0,left,['3'],3,0.40134000000034575,0.4,0,FastFast,13,19,Woman,Right,
30,9,1,0.9167928000006214,['n'],1,right,['2'],2,0.2853184000014153,0.1,0,FastFast,13,19,Woman,Right,
31,9,1,1.016494800000146,['c'],1,left,['8'],4,0.23501969999961148,0.1,0,FastFast,13,19,Woman,Right,
32,9,1,0.7990226000001712,['n'],1,right,['3'],3,0.2680556000013894,0.1,0,FastFast,13,19,Woman,Right,
33,9,1,1.183244999998351,['c'],1,left,['8'],4,0.25134150000121736,0.1,0,FastFast,13,19,Woman,Right,
34,9,1,1.0503164000001561,['c'],0,right,['9'],5,0.20103430000017397,0.4,0,FastFast,13,19,Woman,Right,
35,9,1,1.2502039999999397,['c'],1,left,['2'],2,0.2680651000009675,0.1,0,FastFast,13,19,Woman,Right,
36,9,1,1.0669658000006166,['c'],1,left,['9'],5,0.28345339999941643,0.2,0,FastFast,13,19,Woman,Right,
37,9,1,1.0509108999995078,['n'],1,right,['0'],6,0.26824870000018564,0.1,0,FastFast,13,19,Woman,Right,
38,9,1,1.133855099998982,['n'],0,left,['9'],5,0.25140860000101384,0.2,0,FastFast,13,19,Woman,Right,
39,9,1,1.2507507000009355,['n'],1,right,['8'],4,0.40160409999953117,0.1,0,FastFast,13,19,Woman,Right,
40,9,1,1.03374199999962,['c'],1,left,['9'],5,0.2673424000004161,0.4,0,FastFast,13,19,Woman,Right,
41,9,1,0.7355425999994623,['n'],1,right,['9'],5,0.28506410000045435,0.2,0,FastFast,13,19,Woman,Right,
42,9,1,0.9161222000002454,['c'],1,left,['8'],4,0.2349780999993527,0.1,0,FastFast,13,19,Woman,Right,
43,9,1,0.7014674000001833,['n'],1,right,['9'],5,0.251392099999066,0.4,0,FastFast,13,19,Woman,Right,
44,9,1,0.617531500000041,['n'],1,right,['0'],6,0.23325629999999364,0.4,0,FastFast,13,19,Woman,Right,
45,9,1,0.6508143999999447,['c'],1,left,['0'],6,0.3680839999997261,0.4,0,FastFast,13,19,Woman,Right,
46,9,1,0.6158189999987371,['n'],1,right,['0'],6,0.2355743000007351,0.2,0,FastFast,13,19,Woman,Right,
47,9,1,0.6167715000010503,['n'],1,right,['0'],6,0.2848025000002963,0.4,0,FastFast,13,19,Woman,Right,
48,9,1,1.6337691999997332,['n'],0,left,['0'],6,0.16810550000082003,0.4,0,FastFast,13,19,Woman,Right,
49,9,1,0.533824200001618,['n'],1,right,['0'],6,0.1997724000011658,0.4,0,FastFast,13,19,Woman,Right,
50,9,1,0.5181634000000486,['n'],0,left,['9'],5,0.23458079999909387,0.2,0,FastFast,13,19,Woman,Right,
51,9,1,0.5664355999997497,['n'],1,right,['8'],4,0.4687396000008448,0.2,0,FastFast,13,19,Woman,Right,
52,9,1,0.9510299999983545,['n'],0,left,['9'],5,0.5015801000008651,0.4,0,FastFast,13,19,Woman,Right,
53,9,1,1.4824925000011717,['n'],1,right,['3'],3,0.2348081000000093,0.2,0,FastFast,13,19,Woman,Right,
54,9,1,1.233148600000277,['n'],0,left,['8'],4,0.2503477999998722,0.2,0,FastFast,13,19,Woman,Right,
55,9,1,0.7678611000010278,['n'],1,right,['8'],4,0.40151909999985946,0.1,0,FastFast,13,19,Woman,Right,
56,9,1,0.7013134000007994,['n'],1,right,['3'],3,0.20031550000021525,0.2,0,FastFast,13,19,Woman,Right,
57,9,1,1.8172044000002643,['n'],0,left,['9'],5,0.1847155000014027,0.4,0,FastFast,13,19,Woman,Right,
58,9,1,1.3663230000001931,['n'],1,right,['9'],5,0.1520992000005208,0.1,0,FastFast,13,19,Woman,Right,
59,9,1,1.9171746000010899,['n'],0,left,['2'],2,0.9007059999985358,0.4,0,FastFast,13,19,Woman,Right,
0,10,1,2.61775630000011,['n'],0,left,['3'],3,0.18449660000078438,0.4,0,AccFast,13,19,Woman,Right,
1,10,1,0.9504369999995106,['n'],1,right,['9'],5,0.21820760000082373,0.4,0,AccFast,13,19,Woman,Right,
2,10,1,1.9665196999994805,['n'],1,right,['9'],5,0.18336569999883068,0.4,0,AccFast,13,19,Woman,Right,
3,10,1,1.567418999999063,['n'],1,right,['8'],4,0.21785330000057002,0.2,0,AccFast,13,19,Woman,Right,
4,10,1,1.667250200000126,['n'],0,left,['8'],4,0.2015919000004942,0.1,0,AccFast,13,19,Woman,Right,
5,10,1,2.0339225999996415,['n'],0,left,['8'],4,0.267989399999351,0.1,0,AccFast,13,19,Woman,Right,
6,10,1,2.016184800000701,['n'],1,right,['3'],3,0.16883440000128758,0.1,0,AccFast,13,19,Woman,Right,
7,10,1,2.350085300000501,['c'],1,left,['8'],4,0.21828499999901396,0.1,0,AccFast,13,19,Woman,Right,
8,10,1,3.0830129999994824,['n'],0,left,['8'],4,0.2336144000000786,0.2,0,AccFast,13,19,Woman,Right,
9,10,1,1.4496713999997155,['n'],0,left,['9'],5,0.2518307999998797,0.4,0,AccFast,13,19,Woman,Right,
10,10,1,2.0833886999989772,['n'],0,left,['2'],2,0.3182194000000891,0.4,0,AccFast,13,19,Woman,Right,
11,10,1,2.483771599998363,['n'],0,left,['3'],3,0.16802279999865277,0.2,0,AccFast,13,19,Woman,Right,
12,10,1,1.0005363000000216,['n'],1,right,['9'],5,0.28488930000094115,0.1,0,AccFast,13,19,Woman,Right,
13,10,1,1.6658215999996173,['n'],0,left,['8'],4,0.1521876999995584,0.1,0,AccFast,13,19,Woman,Right,
14,10,1,2.2335360999986733,['n'],1,right,['9'],5,0.21782809999967867,0.2,0,AccFast,13,19,Woman,Right,
15,10,1,0.9844800999999279,['n'],1,right,['9'],5,0.2675732000006974,0.1,0,AccFast,13,19,Woman,Right,
16,10,1,1.4674646999992547,['n'],0,left,['8'],4,0.151424899999256,0.4,0,AccFast,13,19,Woman,Right,
17,10,1,1.7498332999984996,['n'],0,left,['3'],3,0.18566520000058517,0.2,0,AccFast,13,19,Woman,Right,
18,10,1,1.1499568999988696,['n'],0,left,['8'],4,0.3002121999998053,0.2,0,AccFast,13,19,Woman,Right,
19,10,1,2.6679402999998274,['n'],0,left,['2'],2,0.5513659999996889,0.1,0,AccFast,13,19,Woman,Right,
20,10,1,0.9660186000000976,['c'],1,left,['9'],5,0.2681691000016144,0.2,0,AccFast,13,19,Woman,Right,
21,10,1,2.0014226000002964,['c'],1,left,['9'],5,0.13484849999986182,0.4,0,AccFast,13,19,Woman,Right,
22,10,1,2.649797699999908,['c'],0,right,['8'],4,0.35260700000071665,0.1,0,AccFast,13,19,Woman,Right,
23,10,1,1.000218600000153,['n'],1,right,['9'],5,0.20137109999996028,0.2,0,AccFast,13,19,Woman,Right,
24,10,1,2.1672866999997495,['n'],1,right,['2'],2,0.6681405999988783,0.2,0,AccFast,13,19,Woman,Right,
25,10,1,1.3505703000009817,['n'],0,left,['2'],2,0.2506209000002855,0.1,0,AccFast,13,19,Woman,Right,
26,10,1,1.6995511000004626,['c'],1,left,['9'],5,0.21799880000071425,0.4,0,AccFast,13,19,Woman,Right,
27,10,1,1.584467599999698,['n'],0,left,['9'],5,0.16829640000105428,0.4,0,AccFast,13,19,Woman,Right,
28,10,1,1.0017284999994445,['n'],1,right,['0'],6,0.25164829999994254,0.1,0,AccFast,13,19,Woman,Right,
29,10,1,2.0675615000000107,['n'],0,left,['3'],3,0.1679348999987269,0.2,0,AccFast,13,19,Woman,Right,
30,10,1,0.8504124999999476,['n'],1,right,['9'],5,0.18445290000090608,0.4,0,AccFast,13,19,Woman,Right,
31,10,1,0.9008510000003298,['n'],1,right,['0'],6,0.13511130000006233,0.4,0,AccFast,13,19,Woman,Right,
32,10,1,1.8996583999996801,['n'],1,right,['0'],6,0.20167450000008103,0.2,0,AccFast,13,19,Woman,Right,
33,10,1,0.8835300999999163,['n'],1,right,['9'],5,0.28458640000098967,0.2,0,AccFast,13,19,Woman,Right,
34,10,1,2.000037499999962,['n'],0,left,['9'],5,0.2182065999986662,0.1,0,AccFast,13,19,Woman,Right,
35,10,1,2.734206400000403,['n'],0,left,['2'],2,0.18298629999844707,0.1,0,AccFast,13,19,Woman,Right,
36,10,1,1.434721300000092,['n'],1,right,['0'],6,0.2014510999997583,0.4,0,AccFast,13,19,Woman,Right,
37,10,1,1.899914900001022,['n'],1,right,['9'],5,0.28465760000108276,0.2,0,AccFast,13,19,Woman,Right,
38,10,1,2.115756799999872,['c'],1,left,['8'],4,0.1680089000001317,0.2,0,AccFast,13,19,Woman,Right,
39,10,1,1.4677059999994526,['n'],0,left,['8'],4,0.13381900000058522,0.4,0,AccFast,13,19,Woman,Right,
40,10,1,2.2158006000008754,['n'],0,left,['8'],4,0.1854470999987825,0.1,0,AccFast,13,19,Woman,Right,
41,10,1,1.867138999999952,['n'],1,right,['8'],4,0.2348375000001397,0.2,0,AccFast,13,19,Woman,Right,
42,10,1,1.9665433000009216,['n'],0,left,['8'],4,0.15080889999990177,0.1,0,AccFast,13,19,Woman,Right,
43,10,1,1.267295199999353,['n'],1,right,['9'],5,0.20142669999950158,0.4,0,AccFast,13,19,Woman,Right,
44,10,1,2.7832060999990063,['n'],1,right,['2'],2,0.26735200000075565,0.4,0,AccFast,13,19,Woman,Right,
45,10,1,2.4655341999987286,['n'],1,right,['3'],3,0.1689065999999002,0.1,0,AccFast,13,19,Woman,Right,
46,10,1,1.0843777999998565,['c'],1,left,['9'],5,0.21815269999933662,0.4,0,AccFast,13,19,Woman,Right,
47,10,1,2.333830300000045,['n'],1,right,['2'],2,0.18418059999930847,0.1,0,AccFast,13,19,Woman,Right,
48,10,1,2.766626200000246,['n'],1,right,['8'],4,0.2347105000008014,0.4,0,AccFast,13,19,Woman,Right,
49,10,1,2.8332247999987885,['c'],0,right,['8'],4,0.20164399999885063,0.4,0,AccFast,13,19,Woman,Right,
50,10,1,2.80034440000054,['n'],1,right,['8'],4,0.16756920000079845,0.2,0,AccFast,13,19,Woman,Right,
51,10,1,3.0501848999992944,['n'],1,right,['3'],3,0.30155460000059975,0.2,0,AccFast,13,19,Woman,Right,
52,10,1,2.967445199999929,['c'],1,left,['8'],4,0.18492430000151217,0.1,0,AccFast,13,19,Woman,Right,
53,10,1,1.5668303000002197,['c'],1,left,['9'],5,0.1514538999999786,0.4,0,AccFast,13,19,Woman,Right,
54,10,1,3.2831169000000955,['c'],0,right,['2'],2,0.5346537999994325,0.1,0,AccFast,13,19,Woman,Right,
55,10,1,1.8661073000002943,['n'],1,right,['2'],2,0.18500700000004144,0.2,0,AccFast,13,19,Woman,Right,
56,10,1,3.033589700000448,['n'],0,left,['2'],2,0.16788699999960954,0.2,0,AccFast,13,19,Woman,Right,
57,10,1,2.033596100000068,['n'],1,right,['9'],5,0.20147739999993064,0.4,0,AccFast,13,19,Woman,Right,
58,10,1,1.0164416000006895,['c'],1,left,['9'],5,0.3009846999993897,0.2,0,AccFast,13,19,Woman,Right,
59,10,1,2.4842645000007906,['c'],0,right,['2'],2,0.1854031999992003,0.1,0,AccFast,13,19,Woman,Right,
0,11,1,1.8175862999996752,['n'],0,left,['8'],4,1.1339623000003485,0.1,0,AccAcc,13,19,Woman,Right,
1,11,1,3.2826230999999098,['c'],1,left,['3'],3,0.868499599999268,0.2,0,AccAcc,13,19,Woman,Right,
2,11,1,2.516993500001263,['c'],1,left,['9'],5,0.5515154000004259,0.1,0,AccAcc,13,19,Woman,Right,
3,11,1,2.667109600000913,['n'],0,left,['9'],5,1.0013338000007934,0.1,0,AccAcc,13,19,Woman,Right,
4,11,1,1.0504364000007627,['c'],1,left,['2'],2,1.3345214000000851,0.1,0,AccAcc,13,19,Woman,Right,
5,11,1,3.465871200000038,['c'],1,left,['3'],3,1.2662506999986363,0.2,0,AccAcc,13,19,Woman,Right,
6,11,1,1.502113399999871,['n'],1,right,['3'],3,0.8180534000002808,0.2,0,AccAcc,13,19,Woman,Right,
7,11,1,1.1002267000003485,['n'],1,right,['9'],5,0.9512909999994008,0.2,0,AccAcc,13,19,Woman,Right,
8,11,1,2.300623999999516,['n'],0,left,['9'],5,1.2679662999998982,0.4,0,AccAcc,13,19,Woman,Right,
9,11,1,2.2501572000001033,['n'],0,left,['8'],4,1.0833505999999034,0.4,0,AccAcc,13,19,Woman,Right,
10,11,1,1.0004577999989124,['n'],1,right,['9'],5,1.21793770000113,0.4,0,AccAcc,13,19,Woman,Right,
11,11,1,3.034149199998865,['c'],1,left,['8'],4,1.7179381999994803,0.4,0,AccAcc,13,19,Woman,Right,
12,11,1,1.2504186000005575,['n'],1,right,['8'],4,1.1008123999999953,0.4,0,AccAcc,13,19,Woman,Right,
13,11,1,1.1667348999999376,['n'],1,right,['9'],5,1.2179445000001579,0.2,0,AccAcc,13,19,Woman,Right,
14,11,1,0.9834681000011187,['n'],1,right,['0'],6,0.6512794000009308,0.4,0,AccAcc,13,19,Woman,Right,
15,11,1,2.38288459999967,['n'],0,left,['8'],4,1.0847733999999036,0.4,0,AccAcc,13,19,Woman,Right,
16,11,1,2.4675997000013012,['n'],0,left,['2'],2,0.6681030999989162,0.2,0,AccAcc,13,19,Woman,Right,
17,11,1,1.698873100000128,['n'],1,right,['9'],5,0.9670870999998442,0.4,0,AccAcc,13,19,Woman,Right,
18,11,1,1.3002828000007867,['c'],1,left,['8'],4,1.7345280999998067,0.4,0,AccAcc,13,19,Woman,Right,
19,11,1,1.3334213000016462,['n'],0,left,['8'],4,1.367986799999926,0.4,0,AccAcc,13,19,Woman,Right,
20,11,1,2.915954399999464,['n'],1,right,['2'],2,0.867881900001521,0.1,0,AccAcc,13,19,Woman,Right,
21,11,1,1.9658650000001217,['n'],1,right,['2'],2,1.5677364000002854,0.1,0,AccAcc,13,19,Woman,Right,
22,11,1,1.7677189000005455,['n'],1,right,['3'],3,0.9013291999999637,0.4,0,AccAcc,13,19,Woman,Right,
23,11,1,1.4504864999998972,['n'],1,right,['8'],4,3.1677221999998437,0.4,0,AccAcc,13,19,Woman,Right,
24,11,1,2.2000547999996343,['c'],1,left,['3'],3,0.9682300999993458,0.1,0,AccAcc,13,19,Woman,Right,
25,11,1,3.1835141999999905,['n'],1,right,['2'],2,0.7346198999985063,0.2,0,AccAcc,13,19,Woman,Right,
26,11,1,3.933232700001099,['c'],1,left,['8'],4,1.368063699999766,0.4,0,AccAcc,13,19,Woman,Right,
27,11,1,0.8494245000001683,['n'],1,right,['9'],5,0.8844623999993928,0.4,0,AccAcc,13,19,Woman,Right,
28,11,1,1.466893799999525,['n'],1,right,['9'],5,0.9345866999992722,0.2,0,AccAcc,13,19,Woman,Right,
29,11,1,2.500230300000112,['n'],1,right,['2'],2,1.0342435999991721,0.4,0,AccAcc,13,19,Woman,Right,
30,11,1,3.367084800000157,['n'],1,right,['3'],3,1.0180005000001984,0.1,0,AccAcc,13,19,Woman,Right,
31,11,1,2.8151183999998466,['n'],1,right,['2'],2,0.6675386000006256,0.1,0,AccAcc,13,19,Woman,Right,
32,11,1,2.7341489999998885,['n'],1,right,['9'],5,0.8016089999982796,0.2,0,AccAcc,13,19,Woman,Right,
33,11,1,1.600793400000839,['c'],1,left,['8'],4,0.65151589999914,0.4,0,AccAcc,13,19,Woman,Right,
34,11,1,2.76761869999973,['n'],0,left,['2'],2,0.718289200000072,0.2,0,AccAcc,13,19,Woman,Right,
35,11,1,2.6674497999993037,['n'],1,right,['2'],2,1.0012351000004855,0.2,0,AccAcc,13,19,Woman,Right,
36,11,1,1.6831461000001582,['c'],1,left,['8'],4,0.7837748000001739,0.1,0,AccAcc,13,19,Woman,Right,
37,11,1,2.5008214999998017,['c'],1,left,['3'],3,0.918033199999627,0.2,0,AccAcc,13,19,Woman,Right,
38,11,1,3.3000276000002486,['n'],1,right,['2'],2,2.634295600000769,0.1,0,AccAcc,13,19,Woman,Right,
39,11,1,2.3165825000014593,['n'],0,left,['8'],4,0.8846613999994588,0.4,0,AccAcc,13,19,Woman,Right,
40,11,1,3.599029999999402,['c'],1,left,['2'],2,0.502126399998815,0.1,0,AccAcc,13,19,Woman,Right,
41,11,1,2.416833499999484,['c'],1,left,['8'],4,2.0346917000006215,0.1,0,AccAcc,13,19,Woman,Right,
42,11,1,2.481741100000363,['n'],1,right,['8'],4,0.7520186999990983,0.1,0,AccAcc,13,19,Woman,Right,
43,11,1,4.149375200000577,['n'],1,right,['2'],2,0.48360409999986587,0.1,0,AccAcc,13,19,Woman,Right,
44,11,1,3.2008838999990985,['n'],1,right,['3'],3,0.7340808999997535,0.2,0,AccAcc,13,19,Woman,Right,
45,11,1,4.066563800000949,['c'],1,left,['8'],4,0.9685724999999366,0.1,0,AccAcc,13,19,Woman,Right,
46,11,1,3.3004562000005535,['c'],1,left,['8'],4,1.84941980000076,0.1,0,AccAcc,13,19,Woman,Right,
47,11,1,3.5834494000009727,['c'],0,right,['3'],3,0.7188700000006065,0.2,0,AccAcc,13,19,Woman,Right,
48,11,1,2.749902199999269,['n'],1,right,['8'],4,1.951240599999437,0.1,0,AccAcc,13,19,Woman,Right,
49,11,1,2.234009800000422,['n'],1,right,['9'],5,0.4015750999988086,0.4,0,AccAcc,13,19,Woman,Right,
50,11,1,1.233495700000276,['c'],1,left,['8'],4,0.4514378999992914,0.2,0,AccAcc,13,19,Woman,Right,
51,11,1,4.4500511000005645,['n'],0,left,['8'],4,1.2347334999994928,0.4,0,AccAcc,13,19,Woman,Right,
52,11,1,3.7667301000001316,['n'],1,right,['8'],4,0.7833374999991065,0.1,0,AccAcc,13,19,Woman,Right,
53,11,1,2.933573399999659,['n'],1,right,['3'],3,0.967997199999445,0.2,0,AccAcc,13,19,Woman,Right,
54,11,1,3.8333050000001094,['c'],0,right,['2'],2,0.6014721999999892,0.2,0,AccAcc,13,19,Woman,Right,
55,11,1,1.433839799999987,['n'],0,left,['2'],2,0.5511446000000433,0.4,0,AccAcc,13,19,Woman,Right,
56,11,1,1.6151014999995823,['c'],0,right,['2'],2,0.5847501999996894,0.2,0,AccAcc,13,19,Woman,Right,
57,11,1,2.133675299999595,['n'],0,left,['2'],2,0.6682077999994362,0.2,0,AccAcc,13,19,Woman,Right,
58,11,1,3.667006300000139,['n'],0,left,['8'],4,0.9192902000013419,0.1,0,AccAcc,13,19,Woman,Right,
59,11,1,2.933598500001608,['c'],1,left,['2'],2,1.2336552999986452,0.2,0,AccAcc,13,19,Woman,Right,
0,12,1,1.268100699999195,['n'],0,left,['8'],4,1.3012042999998812,0.1,0,FastAcc,13,19,Woman,Right,
1,12,1,0.717015199999878,['n'],1,right,['8'],4,2.033549600000697,0.1,0,FastAcc,13,19,Woman,Right,
2,12,1,0.5835895000000164,['c'],1,left,['2'],2,1.6005453999987367,0.4,0,FastAcc,13,19,Woman,Right,
3,12,1,0.9168953999997029,['n'],0,left,['2'],2,2.117901300000085,0.4,0,FastAcc,13,19,Woman,Right,
4,12,1,0.7485990000004676,['n'],1,right,['3'],3,1.9686636999995244,0.1,0,FastAcc,13,19,Woman,Right,
5,12,1,1.4824064000004,['n'],0,left,['8'],4,0.5517534000009618,0.2,0,FastAcc,13,19,Woman,Right,
6,12,1,0.7669987000008405,['c'],1,left,['9'],5,0.95119429999977,0.4,0,FastAcc,13,19,Woman,Right,
7,12,1,0.9834779000011622,['n'],0,left,['8'],4,1.5680479999991803,0.1,0,FastAcc,13,19,Woman,Right,
8,12,1,1.4165909999992436,['n'],0,left,['9'],5,1.251245100000233,0.4,0,FastAcc,13,19,Woman,Right,
9,12,1,1.0846619000003557,['n'],1,right,['9'],5,1.3512418999998772,0.2,0,FastAcc,13,19,Woman,Right,
10,12,1,1.5004561000005197,['n'],1,right,['0'],6,1.134848300000158,0.4,0,FastAcc,13,19,Woman,Right,
11,12,1,2.333320299998377,['c'],0,right,['9'],5,0.967626100000416,0.2,0,FastAcc,13,19,Woman,Right,
12,12,1,0.5337114000012662,['n'],1,right,['0'],6,0.6171776999999565,0.4,0,FastAcc,13,19,Woman,Right,
13,12,1,1.200464200001079,['c'],0,right,['2'],2,1.0680678999997326,0.1,0,FastAcc,13,19,Woman,Right,
14,12,1,0.6826070000006439,['n'],1,right,['3'],3,1.6016094000005978,0.1,0,FastAcc,13,19,Woman,Right,
15,12,1,0.5175240999997186,['c'],1,left,['9'],5,1.1513964999994641,0.2,0,FastAcc,13,19,Woman,Right,
16,12,1,0.5008627000006527,['n'],0,left,['3'],3,1.9336965999991662,0.2,0,FastAcc,13,19,Woman,Right,
17,12,1,0.5174234999994951,['n'],1,right,['9'],5,1.717694200000551,0.4,0,FastAcc,13,19,Woman,Right,
18,12,1,0.8508452999994915,['n'],1,right,['2'],2,1.6840315999997983,0.2,0,FastAcc,13,19,Woman,Right,
19,12,1,0.7344294000013178,['n'],1,right,['0'],6,1.4673452000006364,0.2,0,FastAcc,13,19,Woman,Right,
20,12,1,1.116372099999353,['n'],1,right,['0'],6,1.7505975000003673,0.2,0,FastAcc,13,19,Woman,Right,
21,12,1,1.0505257000004349,['n'],1,right,['9'],5,1.1178798000000825,0.2,0,FastAcc,13,19,Woman,Right,
22,12,1,0.4505669999998645,['n'],0,left,['2'],2,1.8012507999992522,0.1,0,FastAcc,13,19,Woman,Right,
23,12,1,0.6836143000000448,['c'],1,left,['9'],5,1.3849859999991168,0.4,0,FastAcc,13,19,Woman,Right,
24,12,1,0.8830345999995188,['c'],1,left,['1'],1,1.284618199999386,0.1,0,FastAcc,13,19,Woman,Right,
25,12,1,1.29947650000031,['n'],0,left,['2'],2,1.434616200000164,0.1,0,FastAcc,13,19,Woman,Right,
26,12,1,0.8505937999998423,['n'],0,left,['3'],3,1.2010604999995849,0.4,0,FastAcc,13,19,Woman,Right,
27,12,1,0.7672406999990926,['c'],1,left,['8'],4,1.3846635999998398,0.1,0,FastAcc,13,19,Woman,Right,
28,12,1,0.8829701999984536,['n'],0,left,['8'],4,1.1518424000005325,0.1,0,FastAcc,13,19,Woman,Right,
29,12,1,0.8497117000006256,['c'],0,right,['2'],2,1.184523199999603,0.2,0,FastAcc,13,19,Woman,Right,
30,12,1,0.515989499999705,['n'],1,right,['8'],4,1.0350302000006195,0.2,0,FastAcc,13,19,Woman,Right,
31,12,1,0.5505131999998412,['n'],0,left,['8'],4,1.6181736999988061,0.1,0,FastAcc,13,19,Woman,Right,
32,12,1,0.6510545000001002,['c'],1,left,['2'],2,1.3669040000004316,0.1,0,FastAcc,13,19,Woman,Right,
33,12,1,0.5837313999982143,['n'],1,right,['8'],4,1.2847833999985596,0.2,0,FastAcc,13,19,Woman,Right,
34,12,1,0.6487450000004173,['n'],1,right,['3'],3,2.0506780999985494,0.1,0,FastAcc,13,19,Woman,Right,
35,12,1,0.43465780000042287,['n'],1,right,['9'],5,0.784707900000285,0.4,0,FastAcc,13,19,Woman,Right,
36,12,1,0.7341870000000199,['c'],1,left,['2'],2,1.385304699999324,0.4,0,FastAcc,13,19,Woman,Right,
37,12,1,0.8843207999998413,['n'],1,right,['9'],5,1.134810400000788,0.1,0,FastAcc,13,19,Woman,Right,
38,12,1,0.7176414999994449,['n'],0,left,['3'],3,1.3662617999998474,0.1,0,FastAcc,13,19,Woman,Right,
39,12,1,0.8827662000003329,['n'],0,left,['8'],4,1.0504423000002134,0.2,0,FastAcc,13,19,Woman,Right,
40,12,1,0.5836493000006158,['n'],1,right,['9'],5,2.717858400001205,0.2,0,FastAcc,13,19,Woman,Right,
41,12,1,1.38371140000163,['n'],1,right,['0'],6,1.0845425999996223,0.4,0,FastAcc,13,19,Woman,Right,
42,12,1,1.2499819000004209,['n'],0,left,['9'],5,1.2012510000004113,0.2,0,FastAcc,13,19,Woman,Right,
43,12,1,0.5326660000009724,['n'],0,left,['0'],6,0.8688093000000663,0.1,0,FastAcc,13,19,Woman,Right,
44,12,1,0.6171140000005835,['n'],1,right,['0'],6,2.1512619000004634,0.4,0,FastAcc,13,19,Woman,Right,
45,12,1,0.38409130000036384,['n'],0,left,['2'],2,1.6677902999999787,0.4,0,FastAcc,13,19,Woman,Right,
46,12,1,0.4507931999996799,['n'],1,right,['0'],6,1.5850390000014158,0.4,0,FastAcc,13,19,Woman,Right,
47,12,1,0.76686460000019,['c'],1,left,['3'],3,2.4676495000003342,0.2,0,FastAcc,13,19,Woman,Right,
48,12,1,0.8350234999998065,['c'],1,left,['8'],4,1.418525099999897,0.4,0,FastAcc,13,19,Woman,Right,
49,12,1,0.5333546000001661,['n'],1,right,['8'],4,2.0176981999993586,0.4,0,FastAcc,13,19,Woman,Right,
50,12,1,0.4994652999994287,['n'],0,left,['8'],4,1.1180301000003965,0.1,0,FastAcc,13,19,Woman,Right,
51,12,1,0.46590570000080334,['n'],0,left,['3'],3,1.9009243000000424,0.4,0,FastAcc,13,19,Woman,Right,
52,12,1,0.9830819999988307,['c'],1,left,['3'],3,1.0013400000007096,0.2,0,FastAcc,13,19,Woman,Right,
53,12,1,0.616358900000705,['n'],1,right,['9'],5,1.05154229999971,0.4,0,FastAcc,13,19,Woman,Right,
54,12,1,1.7170922999994218,['n'],0,left,['2'],2,1.101165399999445,0.1,0,FastAcc,13,19,Woman,Right,
55,12,1,0.4670767999996315,['n'],1,right,['9'],5,1.2188189000007696,0.2,0,FastAcc,13,19,Woman,Right,
56,12,1,0.45101470000008703,['n'],1,right,['3'],3,1.666731900000741,0.1,0,FastAcc,13,19,Woman,Right,
57,12,1,0.6504968000008375,['n'],1,right,['0'],6,2.333908700000393,0.2,0,FastAcc,13,19,Woman,Right,
58,12,1,0.48237890000018524,['n'],1,right,['9'],5,0.9512670999993134,0.4,0,FastAcc,13,19,Woman,Right,
59,12,1,0.5672000999984448,['n'],1,right,['3'],3,1.101323599999887,0.2,0,FastAcc,13,19,Woman,Right,
0,13,1,0.8008133000002999,['n'],0,left,['0'],6,0.7848071000007621,0.1,0,FastFast,13,19,Woman,Right,
1,13,1,0.46712850000039907,['n'],1,right,['9'],5,0.468185399999129,0.2,0,FastFast,13,19,Woman,Right,
2,13,1,0.5504731000000902,['n'],1,right,['3'],3,0.6183030000011058,0.2,0,FastFast,13,19,Woman,Right,
3,13,1,0.5344318000006751,['n'],1,right,['8'],4,0.48396669999965525,0.4,0,FastFast,13,19,Woman,Right,
4,13,1,0.43441359999997076,['c'],1,left,['3'],3,0.5516082999984064,0.4,0,FastFast,13,19,Woman,Right,
5,13,1,0.5673334000002797,['n'],1,right,['9'],5,0.4345128000004479,0.2,0,FastFast,13,19,Woman,Right,
6,13,1,0.5845637000002171,['n'],1,right,['9'],5,0.40131639999890467,0.1,0,FastFast,13,19,Woman,Right,
7,13,1,0.9326246000000538,['n'],1,right,['2'],2,0.41882059999988996,0.1,0,FastFast,13,19,Woman,Right,
8,13,1,0.6336427000005642,['c'],1,left,['8'],4,0.4334906999993109,0.2,0,FastFast,13,19,Woman,Right,
9,13,1,0.6341323999986344,['n'],1,right,['8'],4,0.4848727999997209,0.4,0,FastFast,13,19,Woman,Right,
10,13,1,0.7682925000008254,['n'],0,left,['9'],5,0.45148340000014286,0.1,0,FastFast,13,19,Woman,Right,
11,13,1,0.6834627000007458,['n'],0,left,['2'],2,0.38483889999952225,0.1,0,FastFast,13,19,Woman,Right,
12,13,1,0.7011041000005207,['n'],1,right,['8'],4,0.4514694999998028,0.4,0,FastFast,13,19,Woman,Right,
13,13,1,0.6670773999994708,['n'],1,right,['2'],2,0.8855989000003319,0.1,0,FastFast,13,19,Woman,Right,
14,13,1,1.4497510000001057,['n'],1,right,['9'],5,0.41666670000086015,0.4,0,FastFast,13,19,Woman,Right,
15,13,1,1.0156885999986116,['c'],1,left,['1'],1,0.5018669000000955,0.2,0,FastFast,13,19,Woman,Right,
16,13,1,0.6830088000006072,['n'],1,right,['9'],5,0.4679963999988104,0.4,0,FastFast,13,19,Woman,Right,
17,13,1,1.167214500001137,['c'],1,left,['3'],3,0.4179229999990639,0.1,0,FastFast,13,19,Woman,Right,
18,13,1,1.0669808000002377,['c'],1,left,['8'],4,0.40156819999901927,0.4,0,FastFast,13,19,Woman,Right,
19,13,1,0.8501602999986062,['n'],0,left,['9'],5,0.33461910000005446,0.2,0,FastFast,13,19,Woman,Right,
20,13,1,1.2503729999989446,['c'],1,left,['3'],3,0.6178377000014734,0.1,0,FastFast,13,19,Woman,Right,
21,13,1,1.2503763000004255,['n'],0,left,['3'],3,0.3167018999993161,0.2,0,FastFast,13,19,Woman,Right,
22,13,1,1.9182108000004519,['c'],0,right,['9'],5,0.2518753000003926,0.2,0,FastFast,13,19,Woman,Right,
23,13,1,1.3334501000008459,['n'],0,left,['2'],2,0.284228799999255,0.1,0,FastFast,13,19,Woman,Right,
24,13,1,1.5166045000005397,['c'],1,left,['9'],5,0.23459059999913734,0.1,0,FastFast,13,19,Woman,Right,
25,13,1,1.6330964999997377,['n'],1,right,['8'],4,0.3849549999995361,0.2,0,FastFast,13,19,Woman,Right,
26,13,1,1.016881800000192,['c'],1,left,['8'],4,0.2022001999994245,0.4,0,FastFast,13,19,Woman,Right,
27,13,1,2.0827359999984765,['n'],0,left,['8'],4,0.18511709999984305,0.4,0,FastFast,13,19,Woman,Right,
28,13,1,1.5502287999988766,['c'],1,left,['8'],4,0.334679600000527,0.2,0,FastFast,13,19,Woman,Right,
29,13,1,1.84882590000052,['n'],0,left,['9'],5,0.4023899999992864,0.1,0,FastFast,13,19,Woman,Right,
30,13,1,1.583482300000469,['n'],1,right,['8'],4,0.3014130000010482,0.2,0,FastFast,13,19,Woman,Right,
31,13,1,1.2500352999995812,['c'],0,right,['8'],4,0.2012987999987672,0.1,0,FastFast,13,19,Woman,Right,
32,13,1,1.5493812000004255,['n'],1,right,['3'],3,0.26877539999986766,0.1,0,FastFast,13,19,Woman,Right,
33,13,1,1.499566300000879,['n'],1,right,['9'],5,0.40245120000145107,0.4,0,FastFast,13,19,Woman,Right,
34,13,1,1.41663890000018,['n'],1,right,['9'],5,0.3350164000003133,0.4,0,FastFast,13,19,Woman,Right,
35,13,1,0.8818640999998024,['n'],1,right,['8'],4,0.13534600000093633,0.4,0,FastFast,13,19,Woman,Right,
36,13,1,1.200080099999468,['c'],1,left,['8'],4,0.1515466999990167,0.4,0,FastFast,13,19,Woman,Right,
37,13,1,1.0829682999992656,['n'],1,right,['8'],4,0.11805850000018836,0.2,0,FastFast,13,19,Woman,Right,
38,13,1,3.1328238999994937,['c'],0,right,['9'],5,0.23385400000006484,0.1,0,FastFast,13,19,Woman,Right,
39,13,1,1.5171322000005603,['n'],0,left,['9'],5,0.1856807000003755,0.4,0,FastFast,13,19,Woman,Right,
40,13,1,0.8838102999998227,['n'],1,right,['9'],5,0.15140020000035292,0.1,0,FastFast,13,19,Woman,Right,
41,13,1,1.683545800000502,['n'],0,left,['2'],2,0.16830579999987094,0.2,0,FastFast,13,19,Woman,Right,
42,13,1,2.0170983000007254,['c'],1,left,['3'],3,0.16908279999915976,0.1,0,FastFast,13,19,Woman,Right,
43,13,1,1.6670044000002235,['n'],0,left,['2'],2,1.3347426000000269,0.1,0,FastFast,13,19,Woman,Right,
44,13,1,1.199753500000952,['c'],1,left,['9'],5,0.2014201999991201,0.4,0,FastFast,13,19,Woman,Right,
45,13,1,2.1339201999999204,['n'],0,left,['9'],5,0.2013119999992341,0.4,0,FastFast,13,19,Woman,Right,
46,13,1,1.9826149000000441,['n'],1,right,['2'],2,0.284759899999699,0.1,0,FastFast,13,19,Woman,Right,
47,13,1,0.9497047000004386,['n'],1,right,['9'],5,0.16822040000079141,0.2,0,FastFast,13,19,Woman,Right,
48,13,1,1.6167707000004157,['n'],0,left,['8'],4,0.23473880000165082,0.2,0,FastFast,13,19,Woman,Right,
49,13,1,1.250323300000673,['n'],1,right,['8'],4,0.18463380000139296,0.1,0,FastFast,13,19,Woman,Right,
50,13,1,1.1655556999994587,['n'],1,right,['1'],1,1.1684069999992062,0.2,0,FastFast,13,19,Woman,Right,
51,13,1,1.1828803999997035,['n'],1,right,['9'],5,0.5179788000004919,0.2,0,FastFast,13,19,Woman,Right,
52,13,1,0.6003593000004912,['n'],1,right,['0'],6,0.2512015000011161,0.4,0,FastFast,13,19,Woman,Right,
53,13,1,0.5834553999993659,['n'],1,right,['0'],6,0.2175020000013319,0.4,0,FastFast,13,19,Woman,Right,
54,13,1,1.1500181999999768,['n'],0,left,['3'],3,0.7851089000014326,0.2,0,FastFast,13,19,Woman,Right,
55,13,1,1.3007837000004656,['c'],1,left,['9'],5,0.2515138999988267,0.4,0,FastFast,13,19,Woman,Right,
56,13,1,1.700714099999459,['n'],0,left,['9'],5,0.2001873000008345,0.2,0,FastFast,13,19,Woman,Right,
57,13,1,1.8503052999985812,['c'],1,left,['9'],5,0.20109559999946214,0.4,0,FastFast,13,19,Woman,Right,
58,13,1,1.716160400001172,['n'],0,left,['9'],5,0.16821270000036748,0.2,0,FastFast,13,19,Woman,Right,
59,13,1,1.3006778999988455,['n'],1,right,['9'],5,0.15071650000027148,0.1,0,FastFast,13,19,Woman,Right,
0,14,1,2.0679595000001427,['c'],1,left,['9'],5,1.0019731000011234,0.4,0,AccFast,13,19,Woman,Right,
1,14,1,2.1836564999994152,['n'],0,left,['9'],5,0.25076139999873703,0.4,0,AccFast,13,19,Woman,Right,
2,14,1,2.2176226999999926,['n'],1,right,['8'],4,0.18487069999900996,0.1,0,AccFast,13,19,Woman,Right,
3,14,1,0.7504321999986132,['n'],1,right,['0'],6,0.18416400000023714,0.4,0,AccFast,13,19,Woman,Right,
4,14,1,1.750246399999014,['n'],1,right,['9'],5,0.33334540000032575,0.4,0,AccFast,13,19,Woman,Right,
5,14,1,3.266888399999516,['c'],1,left,['2'],2,0.6014226999996026,0.1,0,AccFast,13,19,Woman,Right,
6,14,1,1.6003851999994367,['c'],1,left,['8'],4,0.3836123000000953,0.1,0,AccFast,13,19,Woman,Right,
7,14,1,2.2006734999995388,['n'],1,right,['9'],5,0.25135669999872334,0.1,0,AccFast,13,19,Woman,Right,
8,14,1,2.1671490000007907,['n'],1,right,['9'],5,0.20172910000110278,0.2,0,AccFast,13,19,Woman,Right,
9,14,1,1.5676978999999847,['n'],1,right,['8'],4,0.13345579999986512,0.2,0,AccFast,13,19,Woman,Right,
10,14,1,2.634195099999488,['n'],0,left,['8'],4,0.15142649999870628,0.1,0,AccFast,13,19,Woman,Right,
11,14,1,1.4336874000000535,['c'],1,left,['8'],4,0.20082539999930304,0.2,0,AccFast,13,19,Woman,Right,
12,14,1,2.499284699999407,['c'],1,left,['9'],5,0.20227229999909468,0.4,0,AccFast,13,19,Woman,Right,
13,14,1,2.4000845999999,['n'],1,right,['0'],6,0.16802029999962542,0.1,0,AccFast,13,19,Woman,Right,
14,14,1,1.8997467000008328,['n'],1,right,['0'],6,0.16827530000045954,0.4,0,AccFast,13,19,Woman,Right,
15,14,1,3.3834329999990587,['c'],0,right,['8'],4,0.1674818999999843,0.4,0,AccFast,13,19,Woman,Right,
16,14,1,3.500796199999968,['c'],0,right,['9'],5,0.16800419999890437,0.4,0,AccFast,13,19,Woman,Right,
17,14,1,2.867136999999275,['c'],1,left,['8'],4,0.1674360999986675,0.2,0,AccFast,13,19,Woman,Right,
18,14,1,2.2508775999995123,['c'],1,left,['9'],5,0.18462729999919247,0.2,0,AccFast,13,19,Woman,Right,
19,14,1,2.9668339999989257,['n'],1,right,['9'],5,0.43475580000085756,0.4,0,AccFast,13,19,Woman,Right,
20,14,1,3.200661200000468,['n'],1,right,['2'],2,0.1680448000006436,0.2,0,AccFast,13,19,Woman,Right,
21,14,1,1.4830746000006911,['c'],1,left,['9'],5,0.11826169999949343,0.1,0,AccFast,13,19,Woman,Right,
22,14,1,1.633542399998987,['n'],1,right,['9'],5,0.1168668999998772,0.4,0,AccFast,13,19,Woman,Right,
23,14,1,3.384127900000749,['c'],0,right,['2'],2,0.30156840000017837,0.2,0,AccFast,13,19,Woman,Right,
24,14,1,2.1167753000008815,['c'],0,right,['8'],4,0.15148690000023635,0.1,0,AccFast,13,19,Woman,Right,
25,14,1,3.2835300999995525,['n'],0,left,['8'],4,0.2512358999993012,0.1,0,AccFast,13,19,Woman,Right,
26,14,1,1.8501949999990757,['n'],1,right,['9'],5,0.11821950000012293,0.4,0,AccFast,13,19,Woman,Right,
27,14,1,3.1324062000003323,['c'],0,right,['3'],3,0.30153060000156984,0.1,0,AccFast,13,19,Woman,Right,
28,14,1,3.5499335000004066,['c'],1,left,['8'],4,0.21796229999927164,0.2,0,AccFast,13,19,Woman,Right,
29,14,1,2.3992911000004824,['n'],1,right,['8'],4,0.11823389999881329,0.1,0,AccFast,13,19,Woman,Right,
30,14,1,2.4669658999991952,['n'],1,right,['9'],5,0.11811300000044866,0.2,0,AccFast,13,19,Woman,Right,
31,14,1,3.9149628000013763,['c'],1,left,['3'],3,0.6853119999996125,0.2,0,AccFast,13,19,Woman,Right,
32,14,1,3.316632000000027,['n'],0,left,['8'],4,0.21826599999985774,0.1,0,AccFast,13,19,Woman,Right,
33,14,1,3.966559299999062,['c'],1,left,['3'],3,0.783665300001303,0.4,0,AccFast,13,19,Woman,Right,
34,14,1,3.349385400000756,['c'],1,left,['8'],4,0.6680629000002227,0.2,0,AccFast,13,19,Woman,Right,
35,14,1,4.083291199998712,['c'],0,right,['8'],4,0.18488889999935054,0.1,0,AccFast,13,19,Woman,Right,
36,14,1,2.9830076999987796,['n'],0,left,['2'],2,0.3012291000013647,0.1,0,AccFast,13,19,Woman,Right,
37,14,1,2.3002595999987534,['n'],0,left,['2'],2,0.16835100000025705,0.1,0,AccFast,13,19,Woman,Right,
38,14,1,2.2171878999997716,['c'],1,left,['8'],4,0.4845871999987139,0.2,0,AccFast,13,19,Woman,Right,
39,14,1,4.366148000000976,['n'],0,left,['3'],3,0.16802910000114935,0.2,0,AccFast,13,19,Woman,Right,
40,14,1,3.5491175999995903,['c'],0,right,['8'],4,0.30171880000125384,0.1,0,AccFast,13,19,Woman,Right,
41,14,1,1.73417580000023,['n'],1,right,['8'],4,0.2001527000011265,0.4,0,AccFast,13,19,Woman,Right,
42,14,1,3.150637299999289,['c'],1,left,['8'],4,0.08455619999949704,0.1,0,AccFast,13,19,Woman,Right,
43,14,1,2.7334962000004452,['n'],0,left,['9'],5,0.03496940000150062,0.4,0,AccFast,13,19,Woman,Right,
44,14,1,1.818033399998967,['n'],1,right,['9'],5,0.10166779999963182,0.4,0,AccFast,13,19,Woman,Right,
45,14,1,4.03269420000106,['n'],1,right,['9'],5,0.1348385999990569,0.2,0,AccFast,13,19,Woman,Right,
46,14,1,1.2170925999998872,['n'],1,right,['8'],4,0.20159700000112935,0.2,0,AccFast,13,19,Woman,Right,
47,14,1,2.9502844999988156,['n'],0,left,['9'],5,0.15164700000059383,0.2,0,AccFast,13,19,Woman,Right,
48,14,1,2.5665380000009463,['n'],1,right,['8'],4,0.13527689999864378,0.1,0,AccFast,13,19,Woman,Right,
49,14,1,1.466773699999976,['n'],1,right,['9'],5,0.10139130000061414,0.2,0,AccFast,13,19,Woman,Right,
50,14,1,3.55027230000087,['n'],1,right,['9'],5,0.1994773999995232,0.4,0,AccFast,13,19,Woman,Right,
51,14,1,3.434221700001217,['n'],0,left,['8'],4,0.13522419999935664,0.4,0,AccFast,13,19,Woman,Right,
52,14,1,4.650392400000783,['c'],1,left,['3'],3,0.1513522000004741,0.1,0,AccFast,13,19,Woman,Right,
53,14,1,2.9156227000003128,['n'],0,left,['9'],5,0.1188402000007045,0.1,0,AccFast,13,19,Woman,Right,
54,14,1,2.5659982999986823,['n'],1,right,['9'],5,0.0850600999983726,0.2,0,AccFast,13,19,Woman,Right,
55,14,1,2.5315126000004966,['n'],0,left,['9'],5,0.11760710000089603,0.2,0,AccFast,13,19,Woman,Right,
56,14,1,2.8010883999995713,['n'],0,left,['8'],4,0.06786709999869345,0.4,0,AccFast,13,19,Woman,Right,
57,14,1,1.0999284999998054,['n'],1,right,['9'],5,0.1346603000001778,0.2,0,AccFast,13,19,Woman,Right,
58,14,1,3.5339637999986735,['n'],0,left,['8'],4,0.1181562000001577,0.4,0,AccFast,13,19,Woman,Right,
59,14,1,2.1649916999995185,['n'],0,left,['9'],5,0.13588390000040818,0.4,0,AccFast,13,19,Woman,Right,
0,15,1,1.8513012999992497,['n'],0,left,['9'],5,1.1340486999997665,0.4,0,AccAcc,13,19,Woman,Right,
1,15,1,4.233977500000037,['c'],1,left,['3'],3,1.0342683999988367,0.2,0,AccAcc,13,19,Woman,Right,
2,15,1,1.8340958999997383,['n'],1,right,['8'],4,0.7513171999999031,0.1,0,AccAcc,13,19,Woman,Right,
3,15,1,5.016740899998695,x,-99,right,none,-99,-99,0.1,1,AccAcc,13,19,Woman,Right,
4,15,1,0.8357949000001099,['n'],0,left,['9'],5,1.5513446999993903,0.4,0,AccAcc,13,19,Woman,Right,
5,15,1,0.9504438999992999,['n'],1,right,['0'],6,0.5513365000006161,0.4,0,AccAcc,13,19,Woman,Right,
6,15,1,0.7665188999999373,['n'],1,right,['0'],6,0.6348499000014272,0.4,0,AccAcc,13,19,Woman,Right,
7,15,1,2.4341385000006994,['n'],0,left,['8'],4,0.568101700000625,0.2,0,AccAcc,13,19,Woman,Right,
8,15,1,0.8832695000000967,['n'],1,right,['9'],5,0.45014680000167573,0.4,0,AccAcc,13,19,Woman,Right,
9,15,1,0.7352104999990843,['n'],1,right,['0'],6,0.25130869999884453,0.4,0,AccAcc,13,19,Woman,Right,
10,15,1,2.5003326000005472,['n'],1,right,['3'],3,1.0008082999993348,0.1,0,AccAcc,13,19,Woman,Right,
11,15,1,1.8669379000002664,['n'],0,left,['8'],4,0.3514943000009225,0.1,0,AccAcc,13,19,Woman,Right,
12,15,1,0.8835240000007616,['c'],1,left,['9'],5,0.5838390000008076,0.2,0,AccAcc,13,19,Woman,Right,
13,15,1,0.7344037000002572,['n'],1,right,['0'],6,0.3849397999983921,0.4,0,AccAcc,13,19,Woman,Right,
14,15,1,3.5836420000014186,['n'],0,left,['3'],3,0.784455999999409,0.1,0,AccAcc,13,19,Woman,Right,
15,15,1,0.8001493000010669,['n'],1,right,['9'],5,0.5512226999999257,0.4,0,AccAcc,13,19,Woman,Right,
16,15,1,1.5145540999983496,['n'],1,right,['8'],4,0.8194101999997656,0.1,0,AccAcc,13,19,Woman,Right,
17,15,1,1.8010992999988957,['n'],0,left,['3'],3,1.2015644000002794,0.2,0,AccAcc,13,19,Woman,Right,
18,15,1,3.517676199999187,['n'],1,right,['9'],5,0.7677695000002132,0.2,0,AccAcc,13,19,Woman,Right,
19,15,1,1.0336231000001135,['c'],1,left,['9'],5,0.5847928999992291,0.4,0,AccAcc,13,19,Woman,Right,
20,15,1,1.0667816999994102,['n'],1,right,['9'],5,0.5347714999988966,0.2,0,AccAcc,13,19,Woman,Right,
21,15,1,2.8170303000006243,['c'],0,right,['2'],2,1.251927400000568,0.2,0,AccAcc,13,19,Woman,Right,
22,15,1,2.8173378000010416,['n'],1,right,['8'],4,1.6346409999987372,0.1,0,AccAcc,13,19,Woman,Right,
23,15,1,0.8817445000004227,['n'],1,right,['8'],4,0.7528135000011389,0.1,0,AccAcc,13,19,Woman,Right,
24,15,1,2.667412599999807,['c'],1,left,['9'],5,0.684567700000116,0.2,0,AccAcc,13,19,Woman,Right,
25,15,1,3.6669355999983964,['n'],1,right,['3'],3,0.7182670000001963,0.1,0,AccAcc,13,19,Woman,Right,
26,15,1,2.100201000001107,['n'],0,left,['9'],5,0.6011629999993602,0.1,0,AccAcc,13,19,Woman,Right,
27,15,1,1.9985665000003792,['c'],1,left,['8'],4,0.552202999999281,0.1,0,AccAcc,13,19,Woman,Right,
28,15,1,2.0825934000004054,['c'],1,left,['8'],4,0.5520234999985405,0.2,0,AccAcc,13,19,Woman,Right,
29,15,1,3.1834698999991815,['n'],1,right,['9'],5,0.4682235000000219,0.2,0,AccAcc,13,19,Woman,Right,
30,15,1,3.700314600000638,['n'],1,right,['8'],4,0.6014044000003196,0.1,0,AccAcc,13,19,Woman,Right,
31,15,1,3.183187900000121,['n'],0,left,['2'],2,1.068059600000197,0.1,0,AccAcc,13,19,Woman,Right,
32,15,1,0.9990981000009924,['c'],1,left,['8'],4,0.584512999999788,0.4,0,AccAcc,13,19,Woman,Right,
33,15,1,1.9493583999992552,['n'],1,right,['2'],2,1.0009263000010833,0.1,0,AccAcc,13,19,Woman,Right,
34,15,1,1.716275400000086,['c'],1,left,['9'],5,0.9014836000005744,0.4,0,AccAcc,13,19,Woman,Right,
35,15,1,3.2496322999995755,['n'],1,right,['8'],4,0.8680514999996376,0.2,0,AccAcc,13,19,Woman,Right,
36,15,1,4.1998789999997825,['n'],1,right,['2'],2,0.9846442000016395,0.2,0,AccAcc,13,19,Woman,Right,
37,15,1,1.0836037999997643,['c'],1,left,['9'],5,0.5181023999994068,0.4,0,AccAcc,13,19,Woman,Right,
38,15,1,1.3840987000003224,['n'],1,right,['8'],4,0.9343239999998332,0.2,0,AccAcc,13,19,Woman,Right,
39,15,1,3.0341824000006454,['c'],1,left,['3'],3,1.1680770999992092,0.1,0,AccAcc,13,19,Woman,Right,
40,15,1,1.317483099999663,['c'],1,left,['9'],5,0.4178459999984625,0.4,0,AccAcc,13,19,Woman,Right,
41,15,1,3.098965600000156,['c'],1,left,['3'],3,0.8850093999990349,0.2,0,AccAcc,13,19,Woman,Right,
42,15,1,3.283446699999331,['n'],0,left,['2'],2,0.5684134000002814,0.4,0,AccAcc,13,19,Woman,Right,
43,15,1,1.2328274000010424,['c'],1,left,['9'],5,0.2850428000001557,0.4,0,AccAcc,13,19,Woman,Right,
44,15,1,1.0843112999991718,['n'],1,right,['9'],5,0.4015321999995649,0.2,0,AccAcc,13,19,Woman,Right,
45,15,1,3.015143499998885,['c'],0,right,['9'],5,0.5348002999999153,0.4,0,AccAcc,13,19,Woman,Right,
46,15,1,3.299929200000406,['n'],1,right,['3'],3,0.7019639999998617,0.1,0,AccAcc,13,19,Woman,Right,
47,15,1,2.366766600000119,['c'],1,left,['9'],5,0.6513403000008111,0.2,0,AccAcc,13,19,Woman,Right,
48,15,1,2.1001154000005045,['n'],0,left,['9'],5,0.45158210000045074,0.2,0,AccAcc,13,19,Woman,Right,
49,15,1,1.766977900000711,['n'],0,left,['9'],5,0.48333930000080727,0.1,0,AccAcc,13,19,Woman,Right,
50,15,1,3.067456900000252,['n'],0,left,['3'],3,0.8005900999996811,0.4,0,AccAcc,13,19,Woman,Right,
51,15,1,1.2345126999989589,['n'],0,left,['8'],4,0.5012452999999368,0.1,0,AccAcc,13,19,Woman,Right,
52,15,1,1.2006612999994104,['n'],1,right,['9'],5,0.6999668000007659,0.4,0,AccAcc,13,19,Woman,Right,
53,15,1,0.9341317000016716,['n'],1,right,['0'],6,0.5846658999998908,0.4,0,AccAcc,13,19,Woman,Right,
54,15,1,1.08400679999977,['n'],1,right,['9'],5,0.450853599999391,0.2,0,AccAcc,13,19,Woman,Right,
55,15,1,3.050262800001292,['c'],1,left,['3'],3,1.417228399999658,0.2,0,AccAcc,13,19,Woman,Right,
56,15,1,1.7833401000007143,['n'],0,left,['8'],4,0.6679554999991524,0.2,0,AccAcc,13,19,Woman,Right,
57,15,1,1.749563899998975,['n'],0,left,['8'],4,0.4850986000001285,0.1,0,AccAcc,13,19,Woman,Right,
58,15,1,1.799154100001033,['n'],1,right,['8'],4,0.4687935000001744,0.1,0,AccAcc,13,19,Woman,Right,
59,15,1,0.9845292999998492,['n'],1,right,['8'],4,0.4179951999994955,0.4,0,AccAcc,13,19,Woman,Right,
