withinblocktrial,block,block_repetition,rt,resp,cor,cresp,conf_press,cj,rtconf,coherence,slow_trial,manipulation,sub,age,gender,handedness,
0,1,1,2.599140499999976,['n'],1,right,none,-99,-99,0.5,0,none,35,24,Man,Right,
1,1,1,2.1984707999999955,['n'],1,right,none,-99,-99,0.5,0,none,35,24,Man,Right,
2,1,1,0.851391700000022,['c'],1,left,none,-99,-99,0.5,0,none,35,24,Man,Right,
3,1,1,0.649305199999958,['c'],1,left,none,-99,-99,0.5,0,none,35,24,Man,Right,
4,1,1,0.650748300000032,['n'],1,right,none,-99,-99,0.5,0,none,35,24,Man,Right,
5,1,1,0.5166530000000193,['n'],1,right,none,-99,-99,0.5,0,none,35,24,Man,Right,
6,1,1,0.5679007999999612,['c'],1,left,none,-99,-99,0.5,0,none,35,24,Man,Right,
7,1,1,0.6004310999999234,['c'],1,left,none,-99,-99,0.5,0,none,35,24,Man,Right,
8,1,1,0.7328013999999712,['c'],1,left,none,-99,-99,0.5,0,none,35,24,Man,Right,
9,1,1,0.6501352999999881,['n'],1,right,none,-99,-99,0.5,0,none,35,24,Man,Right,
10,1,1,0.7005378000000064,['c'],1,left,none,-99,-99,0.5,0,none,35,24,Man,Right,
11,1,1,0.7848443999999972,['n'],1,right,none,-99,-99,0.5,0,none,35,24,Man,Right,
12,1,1,1.2171806999999717,['n'],1,right,none,-99,-99,0.5,0,none,35,24,Man,Right,
13,1,1,0.582530800000086,['c'],1,left,none,-99,-99,0.5,0,none,35,24,Man,Right,
14,1,1,0.7323413000000301,['n'],1,right,none,-99,-99,0.5,0,none,35,24,Man,Right,
15,1,1,0.7845359000000371,['c'],1,left,none,-99,-99,0.5,0,none,35,24,Man,Right,
16,1,1,0.6989151999999876,['c'],1,left,none,-99,-99,0.5,0,none,35,24,Man,Right,
17,1,1,0.8170840999999882,['c'],1,left,none,-99,-99,0.5,0,none,35,24,Man,Right,
18,1,1,1.8821328000000221,['n'],0,left,none,-99,-99,0.5,0,none,35,24,Man,Right,
19,1,1,0.7001694000000498,['n'],1,right,none,-99,-99,0.5,0,none,35,24,Man,Right,
20,1,1,0.6647825999999668,['n'],1,right,none,-99,-99,0.5,0,none,35,24,Man,Right,
21,1,1,0.7832171000000017,['n'],1,right,none,-99,-99,0.5,0,none,35,24,Man,Right,
22,1,1,0.7334915000000137,['n'],1,right,none,-99,-99,0.5,0,none,35,24,Man,Right,
23,1,1,0.6342473999999356,['c'],1,left,none,-99,-99,0.5,0,none,35,24,Man,Right,
0,2,1,0.7340987999999697,['n'],1,right,none,-99,-99,0.2,0,none,35,24,Man,Right,
1,2,1,0.5681847000000744,['n'],1,right,none,-99,-99,0.2,0,none,35,24,Man,Right,
2,2,1,0.6007832999999891,['n'],1,right,none,-99,-99,0.2,0,none,35,24,Man,Right,
3,2,1,0.5661481999999296,['n'],1,right,none,-99,-99,0.4,0,none,35,24,Man,Right,
4,2,1,0.582919899999979,['n'],0,left,none,-99,-99,0.1,0,none,35,24,Man,Right,
5,2,1,0.6830187999998998,['n'],1,right,none,-99,-99,0.4,0,none,35,24,Man,Right,
6,2,1,0.749540799999977,['c'],1,left,none,-99,-99,0.1,0,none,35,24,Man,Right,
7,2,1,0.5336574000000383,['n'],1,right,none,-99,-99,0.4,0,none,35,24,Man,Right,
8,2,1,0.6846361000000343,['c'],1,left,none,-99,-99,0.2,0,none,35,24,Man,Right,
9,2,1,0.5011620000000221,['c'],1,left,none,-99,-99,0.4,0,none,35,24,Man,Right,
10,2,1,0.4995377999999846,['n'],1,right,none,-99,-99,0.2,0,none,35,24,Man,Right,
11,2,1,0.618554300000028,['c'],1,left,none,-99,-99,0.1,0,none,35,24,Man,Right,
12,2,1,0.7178880000000163,['n'],0,left,none,-99,-99,0.1,0,none,35,24,Man,Right,
13,2,1,0.7006397999999763,['c'],1,left,none,-99,-99,0.2,0,none,35,24,Man,Right,
14,2,1,0.5172839000000522,['n'],1,right,none,-99,-99,0.4,0,none,35,24,Man,Right,
15,2,1,0.4665615000000116,['n'],1,right,none,-99,-99,0.2,0,none,35,24,Man,Right,
16,2,1,0.5667687000000114,['c'],1,left,none,-99,-99,0.4,0,none,35,24,Man,Right,
17,2,1,0.6499489999999923,['n'],1,right,none,-99,-99,0.1,0,none,35,24,Man,Right,
18,2,1,0.5510561999999481,['c'],1,left,none,-99,-99,0.1,0,none,35,24,Man,Right,
19,2,1,0.4830686999999898,['n'],1,right,none,-99,-99,0.4,0,none,35,24,Man,Right,
20,2,1,0.6848972999999887,['n'],0,left,none,-99,-99,0.1,0,none,35,24,Man,Right,
21,2,1,0.600202700000068,['c'],1,left,none,-99,-99,0.1,0,none,35,24,Man,Right,
22,2,1,0.5828407999999854,['n'],1,right,none,-99,-99,0.2,0,none,35,24,Man,Right,
23,2,1,0.6003021000000217,['c'],1,left,none,-99,-99,0.4,0,none,35,24,Man,Right,
0,3,1,1.6165077999999085,['n'],0,left,['8'],4,3.3673791000001074,0.1,0,none,35,24,Man,Right,
1,3,1,2.2830851000001076,['n'],1,right,['8'],4,1.9351758000000245,0.1,0,none,35,24,Man,Right,
2,3,1,1.168570900000077,['c'],1,left,['9'],5,2.1177238999998735,0.2,0,none,35,24,Man,Right,
3,3,1,1.0655182999998942,['c'],1,left,['0'],6,0.7842301000000589,0.4,0,none,35,24,Man,Right,
4,3,1,1.1836069999999381,['n'],0,left,['9'],5,0.8182577000000038,0.1,0,none,35,24,Man,Right,
5,3,1,4.166153399999985,['n'],1,right,['3'],3,2.2333882999998877,0.2,0,none,35,24,Man,Right,
6,3,1,1.0165038000000095,['n'],1,right,['9'],5,0.7851779000000079,0.2,0,none,35,24,Man,Right,
7,3,1,1.1663826000001336,['c'],1,left,['9'],5,1.1837673999998515,0.2,0,none,35,24,Man,Right,
8,3,1,1.183513800000128,['c'],1,left,['9'],5,1.7831650000000536,0.2,0,none,35,24,Man,Right,
9,3,1,0.8349080000000413,['c'],1,left,['0'],6,0.3509299000002102,0.1,0,none,35,24,Man,Right,
10,3,1,2.6010742999999366,['n'],1,right,['2'],2,0.902287699999988,0.2,0,none,35,24,Man,Right,
11,3,1,0.8497592999999597,['n'],1,right,['0'],6,0.5849209999998948,0.4,0,none,35,24,Man,Right,
12,3,1,2.400410200000124,['c'],0,right,['2'],2,1.1847485999999208,0.1,0,none,35,24,Man,Right,
13,3,1,1.8512072999999418,['n'],1,right,['3'],3,1.1332614999998896,0.2,0,none,35,24,Man,Right,
14,3,1,2.5355490000001737,['n'],0,left,['3'],3,1.3346023999999943,0.4,0,none,35,24,Man,Right,
15,3,1,1.6844860999999582,['c'],1,left,['8'],4,1.3825010999998995,0.1,0,none,35,24,Man,Right,
16,3,1,1.817754799999875,['c'],0,right,['8'],4,1.1846921999999722,0.1,0,none,35,24,Man,Right,
17,3,1,1.1508578000000398,['c'],1,left,['9'],5,0.4512687999999798,0.4,0,none,35,24,Man,Right,
18,3,1,1.1339081999999507,['c'],1,left,['9'],5,0.8172634000000016,0.4,0,none,35,24,Man,Right,
19,3,1,0.950665699999945,['n'],1,right,['0'],6,0.3336523999998917,0.2,0,none,35,24,Man,Right,
20,3,1,1.431968599999891,['n'],1,right,['8'],4,0.7524257999998554,0.1,0,none,35,24,Man,Right,
21,3,1,1.0512237000000368,['n'],1,right,['0'],6,0.8509920999999849,0.4,0,none,35,24,Man,Right,
22,3,1,1.5994530000000395,['n'],1,right,['9'],5,0.4684058999998797,0.4,0,none,35,24,Man,Right,
23,3,1,1.2490430000000288,['c'],1,left,['9'],5,1.1847397999999885,0.4,0,none,35,24,Man,Right,
0,4,1,3.6833070000000134,['n'],1,right,['9'],5,0.8015691999999035,0.1,0,AccFast,35,24,Man,Right,
1,4,1,1.2184729999999035,['c'],1,left,['0'],6,0.5340499000001273,0.4,0,AccFast,35,24,Man,Right,
2,4,1,1.0492501999999604,['n'],1,right,['0'],6,0.48531980000007025,0.4,0,AccFast,35,24,Man,Right,
3,4,1,1.399265099999866,['n'],1,right,['9'],5,0.46749369999997725,0.2,0,AccFast,35,24,Man,Right,
4,4,1,1.0159343000000263,['c'],1,left,['9'],5,0.7346205999999711,0.4,0,AccFast,35,24,Man,Right,
5,4,1,2.051059699999996,['c'],1,left,['8'],4,0.4505821999998716,0.2,0,AccFast,35,24,Man,Right,
6,4,1,1.1004812000001039,['c'],1,left,['9'],5,0.36811020000004646,0.4,0,AccFast,35,24,Man,Right,
7,4,1,2.832069000000047,['c'],1,left,['0'],6,0.484525099999928,0.4,0,AccFast,35,24,Man,Right,
8,4,1,0.8677545999998983,['c'],1,left,['0'],6,0.4010243000000173,0.4,0,AccFast,35,24,Man,Right,
9,4,1,1.685483399999839,['c'],0,right,['8'],4,0.26641079999990325,0.1,0,AccFast,35,24,Man,Right,
10,4,1,1.134378100000049,['c'],1,left,['9'],5,0.26793800000018564,0.1,0,AccFast,35,24,Man,Right,
11,4,1,1.4014042000001155,['n'],1,right,['0'],6,0.2682130999999117,0.2,0,AccFast,35,24,Man,Right,
12,4,1,2.8162161999998716,['n'],0,left,['9'],5,0.40223360000004504,0.1,0,AccFast,35,24,Man,Right,
13,4,1,0.9660544999999274,['n'],0,left,['0'],6,0.3011549999998806,0.1,0,AccFast,35,24,Man,Right,
14,4,1,0.9169081999998525,['n'],1,right,['0'],6,0.3016029000000344,0.4,0,AccFast,35,24,Man,Right,
15,4,1,0.7838134000000991,['c'],1,left,['0'],6,0.3012335000000803,0.2,0,AccFast,35,24,Man,Right,
16,4,1,2.001340999999911,['n'],0,left,['9'],5,0.28502660000003743,0.1,0,AccFast,35,24,Man,Right,
17,4,1,4.1996767999999065,['c'],1,left,['3'],3,0.25239920000012717,0.1,0,AccFast,35,24,Man,Right,
18,4,1,2.250012699999843,['n'],1,right,['8'],4,0.2506738999998106,0.2,0,AccFast,35,24,Man,Right,
19,4,1,2.6654105000000072,['n'],1,right,['8'],4,0.28441829999997026,0.2,0,AccFast,35,24,Man,Right,
20,4,1,1.1189845999999761,['c'],1,left,['9'],5,0.33425260000012713,0.4,0,AccFast,35,24,Man,Right,
21,4,1,0.998632999999927,['c'],1,left,['0'],6,0.30212299999993775,0.4,0,AccFast,35,24,Man,Right,
22,4,1,2.216638100000182,['n'],1,right,['8'],4,0.25009860000000117,0.2,0,AccFast,35,24,Man,Right,
23,4,1,2.3342341000000033,['c'],1,left,['8'],4,0.30143759999987196,0.2,0,AccFast,35,24,Man,Right,
24,4,1,1.4670995999999832,['n'],1,right,['8'],4,0.35095269999987977,0.2,0,AccFast,35,24,Man,Right,
25,4,1,1.0666661000000204,['n'],1,right,['9'],5,0.45200999999997293,0.4,0,AccFast,35,24,Man,Right,
26,4,1,2.2838889000001927,['n'],1,right,['9'],5,0.3180207000000337,0.2,0,AccFast,35,24,Man,Right,
27,4,1,1.6845256999999947,['n'],1,right,['0'],6,0.33380829999987327,0.1,0,AccFast,35,24,Man,Right,
28,4,1,2.6009115000001657,['c'],1,left,['8'],4,0.5333384000000478,0.1,0,AccFast,35,24,Man,Right,
29,4,1,1.1002582000000984,['c'],1,left,['9'],5,0.2503483000000415,0.4,0,AccFast,35,24,Man,Right,
30,4,1,1.8168295000000398,['n'],1,right,['9'],5,0.20202369999992698,0.1,0,AccFast,35,24,Man,Right,
31,4,1,0.9003050000001167,['n'],1,right,['0'],6,0.34927159999983814,0.4,0,AccFast,35,24,Man,Right,
32,4,1,0.8343687999999929,['n'],1,right,['0'],6,0.23417010000002847,0.2,0,AccFast,35,24,Man,Right,
33,4,1,0.8824835999998868,['n'],1,right,['9'],5,0.3507259000000431,0.1,0,AccFast,35,24,Man,Right,
34,4,1,1.0683681999998953,['n'],1,right,['0'],6,0.30130609999991975,0.2,0,AccFast,35,24,Man,Right,
35,4,1,1.8349808999998913,['n'],1,right,['9'],5,0.41821900000013557,0.2,0,AccFast,35,24,Man,Right,
36,4,1,0.9008047999998325,['n'],1,right,['0'],6,0.21808409999994183,0.4,0,AccFast,35,24,Man,Right,
37,4,1,1.0996091999998043,['n'],1,right,['9'],5,0.3180955999998787,0.2,0,AccFast,35,24,Man,Right,
38,4,1,0.9515602999999828,['n'],1,right,['8'],4,0.3327665000001616,0.4,0,AccFast,35,24,Man,Right,
39,4,1,1.515860400000065,['n'],1,right,['8'],4,0.3189512999999806,0.2,0,AccFast,35,24,Man,Right,
40,4,1,1.1315585000002102,['c'],1,left,['8'],4,0.3688835000000381,0.2,0,AccFast,35,24,Man,Right,
41,4,1,1.1506456999998136,['c'],1,left,['9'],5,0.31970109999997476,0.2,0,AccFast,35,24,Man,Right,
42,4,1,0.9342665000001489,['n'],1,right,['0'],6,0.2353098000000955,0.4,0,AccFast,35,24,Man,Right,
43,4,1,1.299937,['c'],1,left,['9'],5,0.3499589000000469,0.1,0,AccFast,35,24,Man,Right,
44,4,1,0.8845813000000362,['c'],1,left,['0'],6,0.3013429999998607,0.4,0,AccFast,35,24,Man,Right,
45,4,1,1.3169075000000703,['n'],1,right,['0'],6,0.2835000999998556,0.1,0,AccFast,35,24,Man,Right,
46,4,1,1.78333090000001,['c'],1,left,['9'],5,0.3516985000001114,0.1,0,AccFast,35,24,Man,Right,
47,4,1,1.2668085000000247,['c'],0,right,['9'],5,0.3179748000000018,0.1,0,AccFast,35,24,Man,Right,
48,4,1,1.1657075999999051,['n'],1,right,['0'],6,0.4522572000000764,0.2,0,AccFast,35,24,Man,Right,
49,4,1,2.0345916999999645,['c'],0,right,['9'],5,0.2996178000000782,0.1,0,AccFast,35,24,Man,Right,
50,4,1,1.2363985000001776,['n'],1,right,['9'],5,0.3173598000000766,0.4,0,AccFast,35,24,Man,Right,
51,4,1,1.6167782999998508,['n'],0,left,['8'],4,0.2683607999999822,0.1,0,AccFast,35,24,Man,Right,
52,4,1,1.6495833999999832,['c'],1,left,['8'],4,0.3187543999999889,0.2,0,AccFast,35,24,Man,Right,
53,4,1,3.866045399999848,['n'],0,left,['8'],4,0.38352499999996326,0.1,0,AccFast,35,24,Man,Right,
54,4,1,5.014501500000051,x,-99,left,none,-99,-99,0.2,1,AccFast,35,24,Man,Right,
55,4,1,1.2999318999998195,['c'],1,left,['8'],4,0.7663311000001158,0.4,0,AccFast,35,24,Man,Right,
56,4,1,1.0512527000000773,['n'],1,right,['8'],4,0.450676200000089,0.1,0,AccFast,35,24,Man,Right,
57,4,1,0.9004268000001048,['c'],1,left,['9'],5,0.33472970000002533,0.4,0,AccFast,35,24,Man,Right,
58,4,1,1.6001427999999578,['c'],1,left,['8'],4,0.6335441999999603,0.4,0,AccFast,35,24,Man,Right,
59,4,1,2.249716000000035,['n'],0,left,['9'],5,0.7008869999999661,0.1,0,AccFast,35,24,Man,Right,
0,5,1,3.28316239999981,['c'],1,left,['8'],4,1.5338308999998844,0.2,0,AccAcc,35,24,Man,Right,
1,5,1,1.8510607000000618,['n'],1,right,['9'],5,0.7685750000000553,0.2,0,AccAcc,35,24,Man,Right,
2,5,1,1.448843899999929,['n'],1,right,['0'],6,1.152523199999905,0.2,0,AccAcc,35,24,Man,Right,
3,5,1,1.2347757000000001,['n'],1,right,['0'],6,0.2851901000001362,0.4,0,AccAcc,35,24,Man,Right,
4,5,1,2.3846187000001464,['n'],1,right,['9'],5,0.851337299999841,0.1,0,AccAcc,35,24,Man,Right,
5,5,1,2.133784099999957,['c'],1,left,['8'],4,0.7668588999999884,0.2,0,AccAcc,35,24,Man,Right,
6,5,1,2.7008855000001404,['c'],1,left,['3'],3,1.5344076999999743,0.2,0,AccAcc,35,24,Man,Right,
7,5,1,1.314393999999993,['c'],1,left,['9'],5,1.0846695999998701,0.4,0,AccAcc,35,24,Man,Right,
8,5,1,1.615808799999968,['c'],1,left,['9'],5,0.7357276000000184,0.4,0,AccAcc,35,24,Man,Right,
9,5,1,1.2170699999999215,['n'],0,left,['0'],6,0.4682224999999107,0.1,0,AccAcc,35,24,Man,Right,
10,5,1,1.1838869000000614,['n'],1,right,['0'],6,0.2670005999998466,0.2,0,AccAcc,35,24,Man,Right,
11,5,1,1.6330333999999311,['n'],1,right,['9'],5,0.36741380000012214,0.4,0,AccAcc,35,24,Man,Right,
12,5,1,1.4157657000000654,['n'],0,left,['9'],5,0.5855678999998872,0.2,0,AccAcc,35,24,Man,Right,
13,5,1,1.0689371999999366,['n'],1,right,['0'],6,0.35131879999994453,0.4,0,AccAcc,35,24,Man,Right,
14,5,1,1.1837229999998726,['n'],1,right,['0'],6,0.33451100000002043,0.1,0,AccAcc,35,24,Man,Right,
15,5,1,2.849079700000175,['n'],0,left,['8'],4,0.7853131000001667,0.2,0,AccAcc,35,24,Man,Right,
16,5,1,1.3649355000000014,['n'],1,right,['9'],5,0.4532521999999517,0.4,0,AccAcc,35,24,Man,Right,
17,5,1,2.4161644000000706,['n'],0,left,['8'],4,0.33440089999999145,0.1,0,AccAcc,35,24,Man,Right,
18,5,1,1.3008769000000484,['c'],1,left,['9'],5,0.5329624999999396,0.4,0,AccAcc,35,24,Man,Right,
19,5,1,1.3993345999999747,['n'],1,right,['9'],5,0.5021303999999418,0.1,0,AccAcc,35,24,Man,Right,
20,5,1,0.9844683999999688,['n'],1,right,['0'],6,0.36769500000013977,0.4,0,AccAcc,35,24,Man,Right,
21,5,1,0.9011540999999852,['n'],1,right,['0'],6,0.3671086000001651,0.4,0,AccAcc,35,24,Man,Right,
22,5,1,1.0500405999998748,['c'],1,left,['0'],6,0.851590299999998,0.2,0,AccAcc,35,24,Man,Right,
23,5,1,2.001097800000025,['n'],1,right,['9'],5,0.6681949999999688,0.2,0,AccAcc,35,24,Man,Right,
24,5,1,1.2656589000000622,['n'],1,right,['0'],6,0.5687122000001636,0.2,0,AccAcc,35,24,Man,Right,
25,5,1,1.481959599999982,['n'],1,right,['0'],6,0.7006719999999405,0.1,0,AccAcc,35,24,Man,Right,
26,5,1,2.0678272000000106,['c'],1,left,['8'],4,0.6351743999998689,0.1,0,AccAcc,35,24,Man,Right,
27,5,1,1.0991398999999547,['c'],1,left,['0'],6,0.33435069999995903,0.4,0,AccAcc,35,24,Man,Right,
28,5,1,1.9340869000000112,['c'],1,left,['9'],5,0.48478660000000673,0.1,0,AccAcc,35,24,Man,Right,
29,5,1,1.3008801000000858,['c'],0,right,['0'],6,0.3506380999999692,0.1,0,AccAcc,35,24,Man,Right,
30,5,1,1.2339231999999356,['n'],1,right,['0'],6,0.46683740000003127,0.4,0,AccAcc,35,24,Man,Right,
31,5,1,1.367978100000073,['n'],1,right,['9'],5,0.4507797000001119,0.1,0,AccAcc,35,24,Man,Right,
32,5,1,2.598820200000091,['c'],1,left,['3'],3,0.9680788999999095,0.1,0,AccAcc,35,24,Man,Right,
33,5,1,3.0170404999998937,['c'],1,left,['3'],3,0.8679735999999139,0.4,0,AccAcc,35,24,Man,Right,
34,5,1,1.2007946999999604,['n'],1,right,['9'],5,0.38322549999998046,0.2,0,AccAcc,35,24,Man,Right,
35,5,1,1.749944400000004,['c'],1,left,['3'],3,1.3000362000000223,0.1,0,AccAcc,35,24,Man,Right,
36,5,1,2.7494595000000572,['c'],1,left,['8'],4,1.2663440000001174,0.4,0,AccAcc,35,24,Man,Right,
37,5,1,1.3854455999999118,['n'],1,right,['8'],4,0.8517692999998872,0.1,0,AccAcc,35,24,Man,Right,
38,5,1,1.0834242999999333,['n'],1,right,['9'],5,0.4862356000001,0.2,0,AccAcc,35,24,Man,Right,
39,5,1,1.2822613000000729,['c'],1,left,['9'],5,0.41879549999998744,0.4,0,AccAcc,35,24,Man,Right,
40,5,1,2.2315911000000597,['c'],1,left,['8'],4,0.7349435999999514,0.2,0,AccAcc,35,24,Man,Right,
41,5,1,1.1836420000001908,['n'],1,right,['9'],5,0.300060399999893,0.1,0,AccAcc,35,24,Man,Right,
42,5,1,2.2344044000001304,['c'],1,left,['3'],3,1.0015756999998757,0.4,0,AccAcc,35,24,Man,Right,
43,5,1,1.7171486999998251,['n'],1,right,['8'],4,0.5682343000000856,0.1,0,AccAcc,35,24,Man,Right,
44,5,1,1.2837640000000192,['n'],1,right,['9'],5,0.5496493999999075,0.1,0,AccAcc,35,24,Man,Right,
45,5,1,1.9505165000000488,['n'],1,right,['9'],5,0.7013871999999992,0.2,0,AccAcc,35,24,Man,Right,
46,5,1,2.5993327999999565,['n'],0,left,['3'],3,0.6173142999998618,0.2,0,AccAcc,35,24,Man,Right,
47,5,1,1.0346327999998266,['n'],1,right,['0'],6,0.3168382000001202,0.4,0,AccAcc,35,24,Man,Right,
48,5,1,2.316345100000035,['c'],1,left,['3'],3,0.7683414000000539,0.2,0,AccAcc,35,24,Man,Right,
49,5,1,1.0831708999999137,['n'],1,right,['0'],6,0.9503465999998753,0.4,0,AccAcc,35,24,Man,Right,
50,5,1,1.683948300000111,['c'],1,left,['8'],4,0.8683129000000918,0.4,0,AccAcc,35,24,Man,Right,
51,5,1,2.3663338000001204,['n'],0,left,['8'],4,1.050761599999987,0.1,0,AccAcc,35,24,Man,Right,
52,5,1,2.1504205999999613,['c'],1,left,['8'],4,1.5846714999997857,0.2,0,AccAcc,35,24,Man,Right,
53,5,1,1.299848799999836,['n'],1,right,['9'],5,0.46889580000015485,0.1,0,AccAcc,35,24,Man,Right,
54,5,1,2.4169690000001083,['n'],0,left,['8'],4,1.234535600000072,0.1,0,AccAcc,35,24,Man,Right,
55,5,1,2.017692699999998,['c'],1,left,['3'],3,0.8333483999999771,0.2,0,AccAcc,35,24,Man,Right,
56,5,1,1.1348993999999948,['c'],1,left,['9'],5,0.40066589999992175,0.4,0,AccAcc,35,24,Man,Right,
57,5,1,2.2836025000001428,['c'],1,left,['8'],4,1.051292999999987,0.2,0,AccAcc,35,24,Man,Right,
58,5,1,1.066927699999951,['n'],1,right,['0'],6,0.5673429999999371,0.4,0,AccAcc,35,24,Man,Right,
59,5,1,1.9504916000000776,['c'],0,right,['8'],4,0.8168817999999192,0.1,0,AccAcc,35,24,Man,Right,
0,6,1,0.5165054999999938,['n'],1,right,['9'],5,0.834626900000103,0.4,0,FastAcc,35,24,Man,Right,
1,6,1,0.6840402000000267,['c'],1,left,['3'],3,1.134792999999945,0.1,0,FastAcc,35,24,Man,Right,
2,6,1,0.6817090999998072,['c'],1,left,['8'],4,1.134622299999819,0.2,0,FastAcc,35,24,Man,Right,
3,6,1,0.7014615000000504,['n'],1,right,['9'],5,0.5506572000001597,0.2,0,FastAcc,35,24,Man,Right,
4,6,1,0.7998325000000932,['c'],0,right,['8'],4,1.00152879999996,0.1,0,FastAcc,35,24,Man,Right,
5,6,1,0.48308369999995193,['c'],1,left,['0'],6,0.4009690000000319,0.4,0,FastAcc,35,24,Man,Right,
6,6,1,0.5515276999999514,['n'],1,right,['0'],6,0.849609300000111,0.4,0,FastAcc,35,24,Man,Right,
7,6,1,0.48369690000004084,['n'],1,right,['9'],5,0.7682674999998653,0.2,0,FastAcc,35,24,Man,Right,
8,6,1,0.7670499000000746,['c'],1,left,['3'],3,1.2013518999999633,0.2,0,FastAcc,35,24,Man,Right,
9,6,1,0.5826485999998567,['n'],1,right,['0'],6,0.40226400000005924,0.4,0,FastAcc,35,24,Man,Right,
10,6,1,0.8836444000000938,['c'],1,left,['8'],4,0.8331931000000168,0.2,0,FastAcc,35,24,Man,Right,
11,6,1,0.651434399999971,['c'],1,left,['9'],5,0.4850980000001073,0.4,0,FastAcc,35,24,Man,Right,
12,6,1,0.7331229000001258,['n'],0,left,['9'],5,0.56804000000011,0.1,0,FastAcc,35,24,Man,Right,
13,6,1,0.6331974000001992,['n'],1,right,['0'],6,0.40020149999986643,0.2,0,FastAcc,35,24,Man,Right,
14,6,1,0.7162766999999803,['n'],1,right,['8'],4,0.6512841999999637,0.1,0,FastAcc,35,24,Man,Right,
15,6,1,0.6501035000001139,['n'],1,right,['9'],5,0.3855505000001358,0.4,0,FastAcc,35,24,Man,Right,
16,6,1,1.0508789000000434,['c'],1,left,['8'],4,0.83462459999987,0.1,0,FastAcc,35,24,Man,Right,
17,6,1,0.9837607000001753,['n'],0,left,['8'],4,0.9012235000000146,0.2,0,FastAcc,35,24,Man,Right,
18,6,1,0.9497886999999992,['c'],1,left,['9'],5,1.0689273999998932,0.2,0,FastAcc,35,24,Man,Right,
19,6,1,1.1490687000000435,['c'],1,left,['8'],4,0.918809900000042,0.4,0,FastAcc,35,24,Man,Right,
20,6,1,0.6841620000000148,['n'],1,right,['8'],4,1.1844818999998097,0.4,0,FastAcc,35,24,Man,Right,
21,6,1,0.7995535000000018,['c'],1,left,['9'],5,1.0688754000000245,0.2,0,FastAcc,35,24,Man,Right,
22,6,1,1.2151479999999992,['c'],1,left,['8'],4,1.4020757999999205,0.4,0,FastAcc,35,24,Man,Right,
23,6,1,1.1507108999999218,['c'],1,left,['8'],4,0.8347011999999268,0.4,0,FastAcc,35,24,Man,Right,
24,6,1,1.9176331000001028,['n'],1,right,['8'],4,0.901373299999932,0.2,0,FastAcc,35,24,Man,Right,
25,6,1,1.1665819999998348,['n'],1,right,['3'],3,1.0845142000000578,0.1,0,FastAcc,35,24,Man,Right,
26,6,1,1.1170199000000594,['c'],1,left,['3'],3,1.000771400000076,0.2,0,FastAcc,35,24,Man,Right,
27,6,1,1.4510811000000103,['n'],1,right,['8'],4,0.867761900000005,0.2,0,FastAcc,35,24,Man,Right,
28,6,1,0.9820210000000316,['c'],1,left,['9'],5,1.3686878999999408,0.4,0,FastAcc,35,24,Man,Right,
29,6,1,0.9670052999999825,['c'],1,left,['8'],4,0.45148149999999987,0.4,0,FastAcc,35,24,Man,Right,
30,6,1,0.9662642000000687,['c'],1,left,['9'],5,0.8011086999999861,0.4,0,FastAcc,35,24,Man,Right,
31,6,1,0.6655566000001727,['n'],1,right,['0'],6,0.5179347999999209,0.4,0,FastAcc,35,24,Man,Right,
32,6,1,1.0172875999999178,['n'],1,right,['9'],5,0.6180712999998832,0.2,0,FastAcc,35,24,Man,Right,
33,6,1,1.083843399999978,['c'],1,left,['3'],3,0.8013339000001451,0.2,0,FastAcc,35,24,Man,Right,
34,6,1,0.6003138999999464,['n'],1,right,['0'],6,0.5513306000000284,0.4,0,FastAcc,35,24,Man,Right,
35,6,1,1.5002365000000282,['c'],1,left,['8'],4,0.7190044999999827,0.1,0,FastAcc,35,24,Man,Right,
36,6,1,0.7009040000000368,['n'],1,right,['9'],5,0.6332614999998896,0.2,0,FastAcc,35,24,Man,Right,
37,6,1,0.8012287999999899,['n'],1,right,['9'],5,0.8500638000000436,0.4,0,FastAcc,35,24,Man,Right,
38,6,1,0.7004838000000291,['n'],1,right,['8'],4,1.1855176999999912,0.1,0,FastAcc,35,24,Man,Right,
39,6,1,0.9177604999999858,['n'],1,right,['3'],3,1.0012954000001173,0.1,0,FastAcc,35,24,Man,Right,
40,6,1,0.6668597000000318,['n'],1,right,['0'],6,0.3850279999999202,0.4,0,FastAcc,35,24,Man,Right,
41,6,1,1.0992209999999432,['n'],0,left,['8'],4,1.1514150999998947,0.1,0,FastAcc,35,24,Man,Right,
42,6,1,0.6845660999999836,['n'],1,right,['9'],5,0.6347205999998096,0.1,0,FastAcc,35,24,Man,Right,
43,6,1,0.9994259999998576,['n'],0,left,['8'],4,1.2181005999998433,0.1,0,FastAcc,35,24,Man,Right,
44,6,1,0.8509235999999873,['n'],0,left,['9'],5,1.0669187000000875,0.2,0,FastAcc,35,24,Man,Right,
45,6,1,0.8819790000000012,['n'],1,right,['0'],6,0.5025507000000289,0.1,0,FastAcc,35,24,Man,Right,
46,6,1,1.5497909000000618,['n'],1,right,['3'],3,0.9021625000000313,0.1,0,FastAcc,35,24,Man,Right,
47,6,1,1.4504706999998689,['n'],1,right,['8'],4,1.351233099999945,0.1,0,FastAcc,35,24,Man,Right,
48,6,1,1.0006151000000045,['n'],1,right,['8'],4,0.7668690000000424,0.1,0,FastAcc,35,24,Man,Right,
49,6,1,1.0509792000000289,['n'],0,left,['8'],4,1.2837776000001213,0.1,0,FastAcc,35,24,Man,Right,
50,6,1,0.7837600000000293,['c'],1,left,['9'],5,0.5682358999999906,0.4,0,FastAcc,35,24,Man,Right,
51,6,1,1.0672038999998676,['n'],1,right,['8'],4,0.5016605000000709,0.1,0,FastAcc,35,24,Man,Right,
52,6,1,0.9491207000000941,['n'],1,right,['9'],5,0.6840157999999974,0.2,0,FastAcc,35,24,Man,Right,
53,6,1,0.8835062000000562,['n'],1,right,['9'],5,0.7687631000001147,0.2,0,FastAcc,35,24,Man,Right,
54,6,1,1.7331454000000122,['n'],0,left,['3'],3,1.2666755999998713,0.2,0,FastAcc,35,24,Man,Right,
55,6,1,0.7676825999999437,['c'],1,left,['9'],5,0.6178910999999516,0.4,0,FastAcc,35,24,Man,Right,
56,6,1,0.8504494000001159,['c'],1,left,['9'],5,0.6848018999999113,0.2,0,FastAcc,35,24,Man,Right,
57,6,1,1.5495103999999174,['n'],1,right,['3'],3,1.185318599999846,0.1,0,FastAcc,35,24,Man,Right,
58,6,1,1.25038040000004,['n'],0,left,['8'],4,0.9681471999999758,0.1,0,FastAcc,35,24,Man,Right,
59,6,1,0.8166534000001775,['c'],1,left,['9'],5,0.46802820000016254,0.4,0,FastAcc,35,24,Man,Right,
0,7,1,0.9348895000000539,['c'],1,left,['9'],5,0.5181483999999728,0.2,0,FastFast,35,24,Man,Right,
1,7,1,0.7180057999999008,['c'],1,left,['9'],5,0.4992778000000726,0.4,0,FastFast,35,24,Man,Right,
2,7,1,1.100199400000065,['n'],0,left,['8'],4,0.5007858999999826,0.2,0,FastFast,35,24,Man,Right,
3,7,1,0.9835335000000214,['c'],1,left,['8'],4,0.40206480000006195,0.2,0,FastFast,35,24,Man,Right,
4,7,1,1.1841229999999996,['c'],1,left,['8'],4,0.4346382999999605,0.1,0,FastFast,35,24,Man,Right,
5,7,1,0.7322497999998632,['n'],1,right,['9'],5,0.4022176999999374,0.1,0,FastFast,35,24,Man,Right,
6,7,1,0.7993150999998306,['n'],1,right,['9'],5,0.502111799999966,0.2,0,FastFast,35,24,Man,Right,
7,7,1,0.7004503999999088,['c'],1,left,['0'],6,0.2847288999998909,0.4,0,FastFast,35,24,Man,Right,
8,7,1,0.6338571999999658,['n'],1,right,['0'],6,0.25020119999999224,0.1,0,FastFast,35,24,Man,Right,
9,7,1,1.1838408000000982,['c'],1,left,['0'],6,0.40182499999991705,0.2,0,FastFast,35,24,Man,Right,
10,7,1,0.5835477999999057,['c'],1,left,['0'],6,0.36817259999997987,0.4,0,FastFast,35,24,Man,Right,
11,7,1,0.7504483999998683,['c'],1,left,['0'],6,0.4012414000001172,0.4,0,FastFast,35,24,Man,Right,
12,7,1,0.783192900000131,['n'],1,right,['0'],6,0.28489479999984724,0.1,0,FastFast,35,24,Man,Right,
13,7,1,1.0833844999999656,['n'],1,right,['8'],4,0.9509116000001541,0.2,0,FastFast,35,24,Man,Right,
14,7,1,0.9838887999999315,['n'],1,right,['9'],5,0.33362579999993613,0.1,0,FastFast,35,24,Man,Right,
15,7,1,1.1999215000000731,['n'],0,left,['9'],5,0.5008453000000372,0.1,0,FastFast,35,24,Man,Right,
16,7,1,0.9160279999998693,['c'],1,left,['0'],6,0.5341215999999349,0.2,0,FastFast,35,24,Man,Right,
17,7,1,0.5680534999999054,['n'],1,right,['0'],6,0.3163926999998239,0.2,0,FastFast,35,24,Man,Right,
18,7,1,0.7355764999999792,['c'],1,left,['8'],4,0.667963299999883,0.4,0,FastFast,35,24,Man,Right,
19,7,1,0.9337637999999515,['n'],1,right,['0'],6,0.3180899000001318,0.1,0,FastFast,35,24,Man,Right,
20,7,1,0.6333609000000706,['n'],1,right,['0'],6,0.33479849999980615,0.2,0,FastFast,35,24,Man,Right,
21,7,1,0.8677251999999953,['c'],1,left,['9'],5,0.5835979999999381,0.1,0,FastFast,35,24,Man,Right,
22,7,1,0.684112500000083,['n'],1,right,['0'],6,0.33434330000000045,0.4,0,FastFast,35,24,Man,Right,
23,7,1,0.8663970000000063,['c'],1,left,['3'],3,0.7680268000001433,0.2,0,FastFast,35,24,Man,Right,
24,7,1,0.9499279000001479,['c'],0,right,['3'],3,0.4013314999999693,0.1,0,FastFast,35,24,Man,Right,
25,7,1,1.016492499999913,['c'],1,left,['9'],5,0.3350012999999308,0.2,0,FastFast,35,24,Man,Right,
26,7,1,1.165310399999953,['c'],1,left,['8'],4,0.43541110000001026,0.2,0,FastFast,35,24,Man,Right,
27,7,1,0.6512030999999752,['c'],0,right,['0'],6,0.35036039999999957,0.1,0,FastFast,35,24,Man,Right,
28,7,1,0.7173594000000776,['c'],1,left,['9'],5,0.4178274999999303,0.2,0,FastFast,35,24,Man,Right,
29,7,1,0.8667817000000468,['c'],1,left,['0'],6,0.41934539999988374,0.1,0,FastFast,35,24,Man,Right,
30,7,1,0.6161381000001711,['n'],1,right,['0'],6,0.3023287999999411,0.4,0,FastFast,35,24,Man,Right,
31,7,1,1.101220499999954,['n'],1,right,['3'],3,0.6180688000001737,0.1,0,FastFast,35,24,Man,Right,
32,7,1,0.7169622999999774,['n'],1,right,['9'],5,0.584973699999864,0.2,0,FastFast,35,24,Man,Right,
33,7,1,0.7165414999999484,['c'],1,left,['9'],5,0.36801200000013523,0.2,0,FastFast,35,24,Man,Right,
34,7,1,0.7338729000000512,['n'],1,right,['0'],6,0.30124660000001313,0.1,0,FastFast,35,24,Man,Right,
35,7,1,1.0321218999999928,['n'],0,left,['8'],4,0.7001631000000543,0.2,0,FastFast,35,24,Man,Right,
36,7,1,1.2011406000001443,['n'],1,right,['8'],4,0.5837582999999995,0.1,0,FastFast,35,24,Man,Right,
37,7,1,0.6840136999999231,['n'],1,right,['0'],6,0.2672589999999673,0.4,0,FastFast,35,24,Man,Right,
38,7,1,1.382084099999929,['c'],1,left,['3'],3,0.7527414000001045,0.1,0,FastFast,35,24,Man,Right,
39,7,1,0.8983958999999686,['c'],1,left,['8'],4,0.5527512000001025,0.4,0,FastFast,35,24,Man,Right,
40,7,1,1.0172852000000603,['c'],1,left,['8'],4,0.6684313000000657,0.1,0,FastFast,35,24,Man,Right,
41,7,1,1.1008817000001727,['c'],1,left,['9'],5,0.5180247000000691,0.2,0,FastFast,35,24,Man,Right,
42,7,1,0.6501565999999457,['n'],1,right,['0'],6,0.23471580000000358,0.2,0,FastFast,35,24,Man,Right,
43,7,1,0.9662983999999142,['n'],1,right,['8'],4,0.30027080000013484,0.1,0,FastFast,35,24,Man,Right,
44,7,1,0.7847279999998591,['n'],1,right,['0'],6,0.28492770000002565,0.1,0,FastFast,35,24,Man,Right,
45,7,1,0.5662259000000631,['n'],1,right,['0'],6,0.26803689999997005,0.4,0,FastFast,35,24,Man,Right,
46,7,1,1.0162394999999833,['c'],1,left,['3'],3,0.767323400000123,0.2,0,FastFast,35,24,Man,Right,
47,7,1,1.1001860999999735,['c'],1,left,['8'],4,0.41796610000005785,0.2,0,FastFast,35,24,Man,Right,
48,7,1,0.6489933000000292,['c'],1,left,['0'],6,0.36820339999985663,0.4,0,FastFast,35,24,Man,Right,
49,7,1,0.917225500000086,['n'],1,right,['8'],4,0.45136249999995925,0.1,0,FastFast,35,24,Man,Right,
50,7,1,0.9851443000000017,['n'],0,left,['3'],3,0.8180669999999282,0.4,0,FastFast,35,24,Man,Right,
51,7,1,0.8338945000000422,['n'],0,left,['8'],4,0.501451999999972,0.1,0,FastFast,35,24,Man,Right,
52,7,1,0.6673029000000952,['n'],1,right,['9'],5,0.40145589999997355,0.4,0,FastFast,35,24,Man,Right,
53,7,1,0.5159693000000516,['n'],1,right,['0'],6,0.2668579999999565,0.4,0,FastFast,35,24,Man,Right,
54,7,1,0.5170731999999134,['n'],1,right,['0'],6,0.28455989999997655,0.4,0,FastFast,35,24,Man,Right,
55,7,1,0.5678193000001102,['n'],1,right,['0'],6,0.30007720000003246,0.4,0,FastFast,35,24,Man,Right,
56,7,1,0.45012259999998605,['c'],1,left,['0'],6,0.318696300000056,0.4,0,FastFast,35,24,Man,Right,
57,7,1,0.5672991000001275,['n'],1,right,['0'],6,0.3017339999998967,0.4,0,FastFast,35,24,Man,Right,
58,7,1,0.6671469999998862,['n'],1,right,['9'],5,0.3845765000000938,0.4,0,FastFast,35,24,Man,Right,
59,7,1,0.5002124999998614,['n'],1,right,['0'],6,0.23568060000002333,0.4,0,FastFast,35,24,Man,Right,
0,8,1,1.168281400000069,['c'],1,left,['0'],6,0.40137209999988954,0.2,0,AccFast,35,24,Man,Right,
1,8,1,1.2993831000001137,['c'],1,left,['9'],5,0.36923289999981534,0.2,0,AccFast,35,24,Man,Right,
2,8,1,0.6161956999999347,['n'],1,right,['0'],6,0.28487479999989773,0.4,0,AccFast,35,24,Man,Right,
3,8,1,1.9326516000000993,['n'],0,left,['9'],5,0.2855529999999362,0.1,0,AccFast,35,24,Man,Right,
4,8,1,1.433034599999928,['n'],0,left,['8'],4,0.26769400000011956,0.1,0,AccFast,35,24,Man,Right,
5,8,1,1.3671701000000667,['c'],1,left,['9'],5,0.4503316000000268,0.4,0,AccFast,35,24,Man,Right,
6,8,1,1.034492900000032,['c'],1,left,['9'],5,0.268115699999953,0.4,0,AccFast,35,24,Man,Right,
7,8,1,1.1156707000000097,['c'],1,left,['8'],4,0.4183061999999609,0.1,0,AccFast,35,24,Man,Right,
8,8,1,0.9999107000001004,['c'],1,left,['9'],5,0.285400399999844,0.4,0,AccFast,35,24,Man,Right,
9,8,1,0.69992400000001,['n'],1,right,['0'],6,0.2677922000000308,0.4,0,AccFast,35,24,Man,Right,
10,8,1,0.7171769999999924,['n'],1,right,['0'],6,0.30143950000001496,0.4,0,AccFast,35,24,Man,Right,
11,8,1,0.8830682999998771,['n'],1,right,['9'],5,0.2841002000000117,0.2,0,AccFast,35,24,Man,Right,
12,8,1,0.7327929999999014,['c'],1,left,['0'],6,0.2359902000000602,0.2,0,AccFast,35,24,Man,Right,
13,8,1,0.5343367000000399,['n'],1,right,['0'],6,0.30212749999986954,0.4,0,AccFast,35,24,Man,Right,
14,8,1,0.7006921999995939,['n'],1,right,['0'],6,0.3012380000000121,0.2,0,AccFast,35,24,Man,Right,
15,8,1,0.5994234999998298,['n'],1,right,['0'],6,0.31892359999983455,0.2,0,AccFast,35,24,Man,Right,
16,8,1,1.0819817000001422,['c'],1,left,['9'],5,0.33472040000015113,0.1,0,AccFast,35,24,Man,Right,
17,8,1,2.233952000000045,['c'],1,left,['8'],4,0.45073469999988447,0.2,0,AccFast,35,24,Man,Right,
18,8,1,0.6850392999999713,['n'],1,right,['9'],5,0.44989799999984825,0.2,0,AccFast,35,24,Man,Right,
19,8,1,0.7832096999995883,['c'],1,left,['0'],6,0.3833505000002333,0.1,0,AccFast,35,24,Man,Right,
20,8,1,1.4997364000000744,['n'],1,right,['8'],4,0.48532239999985904,0.1,0,AccFast,35,24,Man,Right,
21,8,1,1.2011445999996795,['n'],1,right,['8'],4,0.41718989999981204,0.1,0,AccFast,35,24,Man,Right,
22,8,1,0.8333299999999326,['c'],1,left,['9'],5,0.26808660000006057,0.1,0,AccFast,35,24,Man,Right,
23,8,1,0.9829845999997815,['c'],1,left,['8'],4,0.35142210000003615,0.2,0,AccFast,35,24,Man,Right,
24,8,1,0.6997645000001285,['n'],1,right,['0'],6,0.3016755000003286,0.2,0,AccFast,35,24,Man,Right,
25,8,1,0.7170715000002019,['n'],1,right,['0'],6,0.2998942000003808,0.1,0,AccFast,35,24,Man,Right,
26,8,1,0.8498306999999841,['c'],1,left,['9'],5,0.38405950000014855,0.2,0,AccFast,35,24,Man,Right,
27,8,1,0.5837208999996619,['n'],1,right,['0'],6,0.3517516000001706,0.4,0,AccFast,35,24,Man,Right,
28,8,1,0.5995237000001907,['n'],1,right,['0'],6,0.2499724999997852,0.4,0,AccFast,35,24,Man,Right,
29,8,1,0.5840185000001838,['c'],1,left,['0'],6,0.31689549999964584,0.4,0,AccFast,35,24,Man,Right,
30,8,1,0.617360600000211,['c'],1,left,['0'],6,0.33567719999973633,0.4,0,AccFast,35,24,Man,Right,
31,8,1,1.2167486999996981,['c'],1,left,['9'],5,0.5512259000001904,0.2,0,AccFast,35,24,Man,Right,
32,8,1,0.567877700000281,['c'],1,left,['0'],6,0.3346833999999035,0.4,0,AccFast,35,24,Man,Right,
33,8,1,0.6997096999998575,['n'],1,right,['0'],6,0.2682310999998663,0.2,0,AccFast,35,24,Man,Right,
34,8,1,1.7340089999997872,['n'],0,left,['0'],6,0.2681450000000041,0.2,0,AccFast,35,24,Man,Right,
35,8,1,1.2836578999999801,['n'],1,right,['8'],4,0.3506857000002128,0.2,0,AccFast,35,24,Man,Right,
36,8,1,1.0346352000001389,['n'],1,right,['9'],5,0.35129249999999956,0.1,0,AccFast,35,24,Man,Right,
37,8,1,1.2838087000000087,['c'],1,left,['8'],4,0.38468660000035015,0.1,0,AccFast,35,24,Man,Right,
38,8,1,1.2505738999998357,['c'],1,left,['8'],4,0.43453800000042975,0.2,0,AccFast,35,24,Man,Right,
39,8,1,0.9172577999997884,['c'],1,left,['0'],6,0.31808840000030614,0.4,0,AccFast,35,24,Man,Right,
40,8,1,0.6347287000003234,['n'],1,right,['0'],6,0.3515508000000409,0.4,0,AccFast,35,24,Man,Right,
41,8,1,0.9482262999999875,['n'],1,right,['0'],6,0.3179787000003671,0.2,0,AccFast,35,24,Man,Right,
42,8,1,1.1838558999997986,['n'],1,right,['8'],4,0.43507690000024013,0.1,0,AccFast,35,24,Man,Right,
43,8,1,0.9509278999998969,['c'],1,left,['9'],5,0.38489849999996295,0.2,0,AccFast,35,24,Man,Right,
44,8,1,1.365989399999762,['n'],1,right,['3'],3,0.6834892000001673,0.1,0,AccFast,35,24,Man,Right,
45,8,1,1.6176276999999573,['n'],1,right,['3'],3,0.26791869999988194,0.1,0,AccFast,35,24,Man,Right,
46,8,1,1.1826743000001443,['n'],0,left,['9'],5,0.35237210000013874,0.1,0,AccFast,35,24,Man,Right,
47,8,1,1.6337822000000415,['c'],1,left,['8'],4,0.33489630000030957,0.4,0,AccFast,35,24,Man,Right,
48,8,1,1.0833497000003263,['c'],1,left,['9'],5,0.2680856000001768,0.1,0,AccFast,35,24,Man,Right,
49,8,1,0.7666963000001488,['n'],1,right,['0'],6,0.30144709999967745,0.4,0,AccFast,35,24,Man,Right,
50,8,1,1.1999955000001137,['n'],1,right,['9'],5,0.26758709999967323,0.1,0,AccFast,35,24,Man,Right,
51,8,1,0.7345268999997643,['n'],1,right,['0'],6,0.25102030000016384,0.4,0,AccFast,35,24,Man,Right,
52,8,1,2.0329647000003206,['n'],1,right,['8'],4,0.5856300000000374,0.1,0,AccFast,35,24,Man,Right,
53,8,1,0.717185900000004,['n'],1,right,['9'],5,0.35211189999972703,0.4,0,AccFast,35,24,Man,Right,
54,8,1,1.2504393999997774,['n'],1,right,['9'],5,0.31812189999982365,0.2,0,AccFast,35,24,Man,Right,
55,8,1,1.1004167999999481,['c'],1,left,['8'],4,0.41774809999969875,0.4,0,AccFast,35,24,Man,Right,
56,8,1,1.6502285999999913,['c'],1,left,['8'],4,0.400513100000353,0.2,0,AccFast,35,24,Man,Right,
57,8,1,0.9840922999997019,['c'],1,left,['9'],5,0.2512372000001051,0.4,0,AccFast,35,24,Man,Right,
58,8,1,1.183687000000191,['n'],1,right,['9'],5,0.3514228999997613,0.1,0,AccFast,35,24,Man,Right,
59,8,1,2.5500474999998914,['n'],1,right,['8'],4,0.5178728000000774,0.1,0,AccFast,35,24,Man,Right,
0,9,1,1.2177200000000994,['n'],1,right,['9'],5,0.7019838999999592,0.4,0,AccAcc,35,24,Man,Right,
1,9,1,1.9338032000000567,['n'],0,left,['3'],3,0.9681241000002956,0.2,0,AccAcc,35,24,Man,Right,
2,9,1,0.9995728999997482,['n'],1,right,['9'],5,0.501321800000369,0.2,0,AccAcc,35,24,Man,Right,
3,9,1,1.6329611999999543,['n'],1,right,['9'],5,0.43554530000028535,0.1,0,AccAcc,35,24,Man,Right,
4,9,1,1.5507541000001765,['n'],1,right,['0'],6,0.8169416999999157,0.4,0,AccAcc,35,24,Man,Right,
5,9,1,2.4000489000000016,['n'],1,right,['3'],3,0.8346582999997736,0.1,0,AccAcc,35,24,Man,Right,
6,9,1,1.1323751999998422,['c'],1,left,['0'],6,0.43439059999991514,0.2,0,AccAcc,35,24,Man,Right,
7,9,1,1.8840767000001506,['c'],1,left,['8'],4,0.851093000000219,0.2,0,AccAcc,35,24,Man,Right,
8,9,1,0.7840237000000343,['c'],1,left,['0'],6,0.4681688999999096,0.4,0,AccAcc,35,24,Man,Right,
9,9,1,1.6670619999999872,['c'],1,left,['8'],4,1.0836785000001328,0.1,0,AccAcc,35,24,Man,Right,
10,9,1,1.5006342000001496,['n'],1,right,['8'],4,1.0012874000003649,0.1,0,AccAcc,35,24,Man,Right,
11,9,1,0.9658128000000943,['n'],1,right,['0'],6,0.41942820000031134,0.4,0,AccAcc,35,24,Man,Right,
12,9,1,1.6004460999997718,['c'],1,left,['8'],4,0.6333690999999817,0.1,0,AccAcc,35,24,Man,Right,
13,9,1,1.0845332999997481,['c'],1,left,['0'],6,0.4013775000003079,0.4,0,AccAcc,35,24,Man,Right,
14,9,1,1.0839694999999665,['n'],1,right,['0'],6,0.8514138000000457,0.1,0,AccAcc,35,24,Man,Right,
15,9,1,1.1507798000002367,['n'],1,right,['0'],6,0.7348084999998719,0.1,0,AccAcc,35,24,Man,Right,
16,9,1,1.2828670999997485,['c'],1,left,['0'],6,0.7006357000000207,0.4,0,AccAcc,35,24,Man,Right,
17,9,1,2.033637899999576,['c'],1,left,['2'],2,1.1836683000001358,0.1,0,AccAcc,35,24,Man,Right,
18,9,1,1.1329807999995865,['c'],1,left,['9'],5,0.43498120000003837,0.2,0,AccAcc,35,24,Man,Right,
19,9,1,0.9662717000001066,['n'],1,right,['0'],6,0.3833473999998205,0.4,0,AccAcc,35,24,Man,Right,
20,9,1,1.200265599999966,['c'],1,left,['9'],5,0.6848174000001563,0.2,0,AccAcc,35,24,Man,Right,
21,9,1,1.666999399999895,['c'],1,left,['2'],2,1.783642299999883,0.2,0,AccAcc,35,24,Man,Right,
22,9,1,1.5851063000000067,['c'],1,left,['9'],5,0.6333072000002176,0.4,0,AccAcc,35,24,Man,Right,
23,9,1,0.8013630999998895,['n'],1,right,['9'],5,0.534773899999891,0.2,0,AccAcc,35,24,Man,Right,
24,9,1,1.1008601000003182,['c'],1,left,['9'],5,0.6673611000001074,0.4,0,AccAcc,35,24,Man,Right,
25,9,1,0.783752800000002,['n'],1,right,['0'],6,0.5180258999998841,0.4,0,AccAcc,35,24,Man,Right,
26,9,1,0.8349426999998286,['n'],1,right,['0'],6,0.5346061000000191,0.4,0,AccAcc,35,24,Man,Right,
27,9,1,1.0671707999999853,['c'],1,left,['9'],5,0.6500127999997858,0.1,0,AccAcc,35,24,Man,Right,
28,9,1,0.8677207999999155,['n'],1,right,['0'],6,0.5180761000001439,0.1,0,AccAcc,35,24,Man,Right,
29,9,1,1.701121300000068,['n'],1,right,['8'],4,0.9183200999996188,0.2,0,AccAcc,35,24,Man,Right,
30,9,1,1.2340041000002202,['c'],1,left,['8'],4,0.8347604000000501,0.2,0,AccAcc,35,24,Man,Right,
31,9,1,1.56706609999992,['n'],1,right,['3'],3,0.7347510999998121,0.1,0,AccAcc,35,24,Man,Right,
32,9,1,1.4834192999996958,['n'],0,left,['8'],4,1.1514213999998901,0.1,0,AccAcc,35,24,Man,Right,
33,9,1,1.9836424999998599,['n'],0,left,['2'],2,0.7680524000002151,0.1,0,AccAcc,35,24,Man,Right,
34,9,1,1.3171612999999525,['c'],1,left,['9'],5,0.9012737999996716,0.4,0,AccAcc,35,24,Man,Right,
35,9,1,0.9324529000000439,['n'],1,right,['0'],6,0.5187354999998206,0.4,0,AccAcc,35,24,Man,Right,
36,9,1,1.9666696000003867,['n'],0,left,['8'],4,1.3499876000000768,0.1,0,AccAcc,35,24,Man,Right,
37,9,1,1.7859464999996817,['n'],1,right,['3'],3,0.8182162999996763,0.1,0,AccAcc,35,24,Man,Right,
38,9,1,1.2503161999998156,['c'],1,left,['9'],5,0.46719219999977213,0.1,0,AccAcc,35,24,Man,Right,
39,9,1,1.5505683999999746,['c'],1,left,['9'],5,0.7179233000001659,0.2,0,AccAcc,35,24,Man,Right,
40,9,1,1.116180699999859,['n'],1,right,['0'],6,0.3682585999999901,0.2,0,AccAcc,35,24,Man,Right,
41,9,1,1.1178775000003043,['n'],0,left,['0'],6,0.5014744000000064,0.2,0,AccAcc,35,24,Man,Right,
42,9,1,0.7838460000002669,['n'],1,right,['0'],6,0.4678846000001613,0.2,0,AccAcc,35,24,Man,Right,
43,9,1,0.9325275999999576,['c'],1,left,['9'],5,0.5851219000001038,0.2,0,AccAcc,35,24,Man,Right,
44,9,1,0.7844120999998268,['n'],1,right,['0'],6,0.40140829999972993,0.4,0,AccAcc,35,24,Man,Right,
45,9,1,1.5505901000001359,['n'],0,left,['3'],3,0.883350099999916,0.1,0,AccAcc,35,24,Man,Right,
46,9,1,1.8005972999999358,['n'],0,left,['3'],3,0.9169589000002816,0.1,0,AccAcc,35,24,Man,Right,
47,9,1,1.0323282000003928,['n'],1,right,['8'],4,0.5860499999998865,0.2,0,AccAcc,35,24,Man,Right,
48,9,1,2.067210199999863,['n'],0,left,['8'],4,0.6500439999999799,0.2,0,AccAcc,35,24,Man,Right,
49,9,1,0.9326034000000618,['n'],1,right,['9'],5,0.3841729000000669,0.4,0,AccAcc,35,24,Man,Right,
50,9,1,0.8020034999999552,['n'],1,right,['0'],6,0.734198699999979,0.4,0,AccAcc,35,24,Man,Right,
51,9,1,1.4670602000001054,['c'],1,left,['8'],4,1.0681629999999132,0.2,0,AccAcc,35,24,Man,Right,
52,9,1,0.7344136000001527,['n'],1,right,['0'],6,0.48475090000010823,0.2,0,AccAcc,35,24,Man,Right,
53,9,1,1.2155833000001621,['n'],1,right,['9'],5,1.1187070000000858,0.4,0,AccAcc,35,24,Man,Right,
54,9,1,2.0651471999999558,['n'],1,right,['8'],4,0.8171833000001243,0.1,0,AccAcc,35,24,Man,Right,
55,9,1,1.7334583000001658,['c'],1,left,['9'],5,0.6840578999999707,0.4,0,AccAcc,35,24,Man,Right,
56,9,1,1.0342988999996123,['n'],1,right,['0'],6,0.5343939999997929,0.1,0,AccAcc,35,24,Man,Right,
57,9,1,1.4836174000001847,['n'],1,right,['8'],4,0.8851744000003237,0.2,0,AccAcc,35,24,Man,Right,
58,9,1,1.3005026999999245,['c'],1,left,['9'],5,1.5012226999997438,0.4,0,AccAcc,35,24,Man,Right,
59,9,1,0.9503624999997555,['n'],1,right,['9'],5,0.6165528999999879,0.4,0,AccAcc,35,24,Man,Right,
0,10,1,0.751138500000252,['c'],1,left,['3'],3,0.9850445000001855,0.2,0,FastAcc,35,24,Man,Right,
1,10,1,1.0326779000001807,['c'],1,left,['8'],4,0.9016446999999062,0.4,0,FastAcc,35,24,Man,Right,
2,10,1,0.5833316999996896,['n'],1,right,['9'],5,0.7846618000003218,0.2,0,FastAcc,35,24,Man,Right,
3,10,1,0.8170525999998972,['c'],0,right,['3'],3,0.7849391999998261,0.1,0,FastAcc,35,24,Man,Right,
4,10,1,0.8845203000000765,['c'],1,left,['9'],5,0.66803149999987,0.2,0,FastAcc,35,24,Man,Right,
5,10,1,0.9005013000000872,['n'],1,right,['9'],5,1.0500071999999818,0.2,0,FastAcc,35,24,Man,Right,
6,10,1,0.6999289999998837,['n'],1,right,['0'],6,0.36889350000001286,0.2,0,FastAcc,35,24,Man,Right,
7,10,1,1.1326285999998618,['c'],1,left,['3'],3,1.8852848999999878,0.2,0,FastAcc,35,24,Man,Right,
8,10,1,0.5824469999997746,['c'],1,left,['9'],5,0.885286200000337,0.4,0,FastAcc,35,24,Man,Right,
9,10,1,0.5172211999997671,['c'],1,left,['9'],5,0.8515259000000697,0.4,0,FastAcc,35,24,Man,Right,
10,10,1,0.6665826000003108,['n'],1,right,['0'],6,0.5348752999998396,0.4,0,FastAcc,35,24,Man,Right,
11,10,1,0.7663808000002064,['n'],1,right,['0'],6,0.5848676999999043,0.2,0,FastAcc,35,24,Man,Right,
12,10,1,0.6651979000002939,['c'],1,left,['8'],4,1.319075999999768,0.2,0,FastAcc,35,24,Man,Right,
13,10,1,0.8006684000001769,['n'],1,right,['8'],4,0.8341080999998667,0.1,0,FastAcc,35,24,Man,Right,
14,10,1,0.6842709000002287,['n'],1,right,['8'],4,0.8680208999999195,0.4,0,FastAcc,35,24,Man,Right,
15,10,1,0.4842561000000387,['c'],1,left,['0'],6,0.3501307999999881,0.4,0,FastAcc,35,24,Man,Right,
16,10,1,0.7500912000000426,['n'],1,right,['8'],4,1.201835299999857,0.2,0,FastAcc,35,24,Man,Right,
17,10,1,0.8336429000000862,['n'],0,left,['3'],3,0.7337044999999307,0.1,0,FastAcc,35,24,Man,Right,
18,10,1,0.967971199999738,['c'],1,left,['8'],4,0.8013491000001522,0.1,0,FastAcc,35,24,Man,Right,
19,10,1,1.115174499999739,['n'],0,left,['3'],3,1.435237700000016,0.1,0,FastAcc,35,24,Man,Right,
20,10,1,1.2006569000000127,['n'],0,left,['2'],2,0.9329104000003099,0.1,0,FastAcc,35,24,Man,Right,
21,10,1,0.6020693999998912,['n'],1,right,['0'],6,0.7505783000001429,0.1,0,FastAcc,35,24,Man,Right,
22,10,1,0.5995619000000261,['n'],1,right,['0'],6,0.8512803999997232,0.4,0,FastAcc,35,24,Man,Right,
23,10,1,0.7155807000003733,['n'],1,right,['0'],6,1.1679132999997819,0.2,0,FastAcc,35,24,Man,Right,
24,10,1,0.6512637999999242,['c'],1,left,['9'],5,0.8513484000000062,0.4,0,FastAcc,35,24,Man,Right,
25,10,1,0.8672932999998011,['c'],1,left,['8'],4,1.2013465999998516,0.2,0,FastAcc,35,24,Man,Right,
26,10,1,0.5171434999997473,['n'],0,left,['8'],4,1.2000909000003048,0.2,0,FastAcc,35,24,Man,Right,
27,10,1,0.6670384999997623,['c'],1,left,['9'],5,1.516690699999799,0.4,0,FastAcc,35,24,Man,Right,
28,10,1,0.633730800000194,['n'],1,right,['9'],5,0.8018770000003315,0.4,0,FastAcc,35,24,Man,Right,
29,10,1,1.400079199999709,['n'],1,right,['3'],3,1.1847520999999688,0.1,0,FastAcc,35,24,Man,Right,
30,10,1,0.5839394999998149,['n'],0,left,['2'],2,0.9500984999999673,0.1,0,FastAcc,35,24,Man,Right,
31,10,1,0.6348901000001206,['n'],1,right,['0'],6,0.5015324000000874,0.4,0,FastAcc,35,24,Man,Right,
32,10,1,0.5503942999998799,['n'],1,right,['9'],5,0.9353813000002447,0.4,0,FastAcc,35,24,Man,Right,
33,10,1,0.6004849999999351,['n'],1,right,['0'],6,0.850714600000174,0.2,0,FastAcc,35,24,Man,Right,
34,10,1,0.7504992999997739,['c'],1,left,['9'],5,1.0347225000000435,0.4,0,FastAcc,35,24,Man,Right,
35,10,1,0.8150223999996342,['c'],1,left,['8'],4,1.0355054999999993,0.4,0,FastAcc,35,24,Man,Right,
36,10,1,0.7335908999998537,['c'],1,left,['9'],5,0.9002445999999509,0.4,0,FastAcc,35,24,Man,Right,
37,10,1,0.7817781999997351,['c'],0,right,['3'],3,0.8508495000000948,0.1,0,FastAcc,35,24,Man,Right,
38,10,1,0.6831493999998202,['n'],1,right,['0'],6,0.8011277000000518,0.2,0,FastAcc,35,24,Man,Right,
39,10,1,0.8012195999999676,['c'],1,left,['9'],5,0.735172600000169,0.4,0,FastAcc,35,24,Man,Right,
40,10,1,0.9493789999996807,['c'],0,right,['8'],4,1.201180800000202,0.1,0,FastAcc,35,24,Man,Right,
41,10,1,0.534705699999904,['n'],1,right,['0'],6,0.7349521999999524,0.2,0,FastAcc,35,24,Man,Right,
42,10,1,0.6999418999998852,['c'],0,right,['8'],4,0.8680175999998028,0.1,0,FastAcc,35,24,Man,Right,
43,10,1,0.7335315000000264,['c'],1,left,['9'],5,0.968224299999747,0.1,0,FastAcc,35,24,Man,Right,
44,10,1,0.7665239999996629,['c'],1,left,['9'],5,0.8846309999998994,0.4,0,FastAcc,35,24,Man,Right,
45,10,1,0.6999513000000661,['c'],0,right,['8'],4,1.3168406999998297,0.2,0,FastAcc,35,24,Man,Right,
46,10,1,0.6503534000003128,['n'],1,right,['8'],4,1.3355847999996513,0.1,0,FastAcc,35,24,Man,Right,
47,10,1,0.8164867999998933,['n'],0,left,['3'],3,1.1511116000001493,0.2,0,FastAcc,35,24,Man,Right,
48,10,1,0.4656860999998571,['n'],1,right,['0'],6,0.6668419999996331,0.1,0,FastAcc,35,24,Man,Right,
49,10,1,0.6181285999996362,['n'],1,right,['9'],5,1.0502949000001536,0.1,0,FastAcc,35,24,Man,Right,
50,10,1,0.48415099999965605,['c'],1,left,['9'],5,0.7991790999999466,0.4,0,FastAcc,35,24,Man,Right,
51,10,1,0.6005415999998149,['c'],1,left,['0'],6,0.7187615000002552,0.4,0,FastAcc,35,24,Man,Right,
52,10,1,0.7852280000001883,['c'],0,right,['8'],4,1.3680146000001514,0.1,0,FastAcc,35,24,Man,Right,
53,10,1,0.9351157000000967,['c'],0,right,['3'],3,1.4677309999997306,0.2,0,FastAcc,35,24,Man,Right,
54,10,1,0.6672143999999207,['c'],1,left,['9'],5,0.883788099999947,0.1,0,FastAcc,35,24,Man,Right,
55,10,1,0.9837754000000132,['c'],1,left,['9'],5,0.8495640000001004,0.2,0,FastAcc,35,24,Man,Right,
56,10,1,1.034345900000062,['n'],1,right,['8'],4,1.1524850999999217,0.1,0,FastAcc,35,24,Man,Right,
57,10,1,0.5329593999999815,['n'],1,right,['9'],5,0.9012619000000086,0.2,0,FastAcc,35,24,Man,Right,
58,10,1,0.7839225000002443,['c'],1,left,['0'],6,1.1178393000000142,0.4,0,FastAcc,35,24,Man,Right,
59,10,1,1.1497722999997677,['c'],1,left,['3'],3,1.2845913999999539,0.1,0,FastAcc,35,24,Man,Right,
0,11,1,0.5840981999999713,['c'],1,left,['0'],6,0.434693800000332,0.4,0,FastFast,35,24,Man,Right,
1,11,1,0.6506317999997009,['n'],1,right,['0'],6,0.4846863999996458,0.1,0,FastFast,35,24,Man,Right,
2,11,1,0.850380199999563,['n'],1,right,['0'],6,0.3514721000001373,0.4,0,FastFast,35,24,Man,Right,
3,11,1,0.6172008000003188,['c'],1,left,['9'],5,0.7341451000002053,0.4,0,FastFast,35,24,Man,Right,
4,11,1,0.6164705999999569,['n'],1,right,['0'],6,0.3668116999997437,0.2,0,FastFast,35,24,Man,Right,
5,11,1,0.7664700000000266,['n'],1,right,['9'],5,0.5189267000000655,0.1,0,FastFast,35,24,Man,Right,
6,11,1,0.5841388999997434,['n'],0,left,['9'],5,0.5329511999998431,0.1,0,FastFast,35,24,Man,Right,
7,11,1,0.567951400000311,['n'],1,right,['0'],6,0.3495031999996172,0.4,0,FastFast,35,24,Man,Right,
8,11,1,0.8178719000002275,['c'],1,left,['8'],4,0.7844536000002336,0.2,0,FastFast,35,24,Man,Right,
9,11,1,0.8505374999999731,['c'],1,left,['3'],3,0.6495695000003252,0.1,0,FastFast,35,24,Man,Right,
10,11,1,0.5172345999999379,['n'],1,right,['0'],6,0.31879280000021026,0.4,0,FastFast,35,24,Man,Right,
11,11,1,0.6665970999997626,['c'],1,left,['9'],5,0.5520808999999645,0.2,0,FastFast,35,24,Man,Right,
12,11,1,0.9329483000001346,['n'],0,left,['3'],3,0.6009125000000495,0.2,0,FastFast,35,24,Man,Right,
13,11,1,0.5846455000000788,['c'],1,left,['9'],5,0.4679939000002378,0.4,0,FastFast,35,24,Man,Right,
14,11,1,0.48372169999993275,['n'],0,left,['9'],5,0.4684746000002633,0.2,0,FastFast,35,24,Man,Right,
15,11,1,0.9839621999999508,['n'],0,left,['8'],4,0.5667543999998088,0.1,0,FastFast,35,24,Man,Right,
16,11,1,0.6344604999999319,['n'],1,right,['0'],6,0.26821689999997034,0.1,0,FastFast,35,24,Man,Right,
17,11,1,0.7170700000001489,['c'],1,left,['3'],3,0.5513639000000694,0.4,0,FastFast,35,24,Man,Right,
18,11,1,0.666306799999802,['n'],1,right,['0'],6,0.2679961999997431,0.2,0,FastFast,35,24,Man,Right,
19,11,1,0.6339322000003449,['c'],1,left,['0'],6,0.36734999999998763,0.2,0,FastFast,35,24,Man,Right,
20,11,1,0.849681099999998,['n'],1,right,['8'],4,0.5680038999998942,0.1,0,FastFast,35,24,Man,Right,
21,11,1,0.7505658999998559,['c'],1,left,['8'],4,0.7179792000001726,0.1,0,FastFast,35,24,Man,Right,
22,11,1,0.8991722000000664,['n'],1,right,['9'],5,0.5850657999999385,0.1,0,FastFast,35,24,Man,Right,
23,11,1,0.5170180000000073,['n'],1,right,['0'],6,0.3838269000002583,0.4,0,FastFast,35,24,Man,Right,
24,11,1,0.46702659999982643,['n'],1,right,['0'],6,0.3176711000000978,0.4,0,FastFast,35,24,Man,Right,
25,11,1,0.4511419999998907,['n'],1,right,['9'],5,0.35124590000032185,0.2,0,FastFast,35,24,Man,Right,
26,11,1,0.699262500000259,['c'],1,left,['3'],3,0.5186124000001655,0.2,0,FastFast,35,24,Man,Right,
27,11,1,0.6690344999997251,['n'],1,right,['0'],6,0.3847614000001158,0.2,0,FastFast,35,24,Man,Right,
28,11,1,0.7171312000000398,['c'],1,left,['8'],4,0.516550400000142,0.2,0,FastFast,35,24,Man,Right,
29,11,1,0.4850290999997924,['n'],1,right,['0'],6,0.3171879000001354,0.4,0,FastFast,35,24,Man,Right,
30,11,1,0.9497384999999667,['n'],1,right,['3'],3,0.6670727000000625,0.2,0,FastFast,35,24,Man,Right,
31,11,1,0.6016461999997773,['n'],1,right,['0'],6,0.5167025000000649,0.2,0,FastFast,35,24,Man,Right,
32,11,1,0.5006149000000732,['c'],1,left,['9'],5,0.4330595999999787,0.4,0,FastFast,35,24,Man,Right,
33,11,1,0.7835197999997945,['c'],1,left,['3'],3,0.9174597000001086,0.1,0,FastFast,35,24,Man,Right,
34,11,1,0.6836700999997447,['n'],1,right,['0'],6,0.317739900000106,0.1,0,FastFast,35,24,Man,Right,
35,11,1,0.5187462999997479,['n'],1,right,['0'],6,0.33476939999991373,0.4,0,FastFast,35,24,Man,Right,
36,11,1,0.7509577999999237,['c'],1,left,['3'],3,0.4680478000000221,0.1,0,FastFast,35,24,Man,Right,
37,11,1,1.2171069999999418,['n'],1,right,['2'],2,0.5010646000000634,0.1,0,FastFast,35,24,Man,Right,
38,11,1,0.7008869000001141,['n'],1,right,['0'],6,0.36809219999986453,0.1,0,FastFast,35,24,Man,Right,
39,11,1,0.8671638999999232,['c'],1,left,['8'],4,0.66817489999994,0.1,0,FastFast,35,24,Man,Right,
40,11,1,0.6340138000000479,['n'],1,right,['0'],6,0.2670024999997622,0.4,0,FastFast,35,24,Man,Right,
41,11,1,0.5162325999999666,['n'],1,right,['0'],6,0.2683065000001079,0.4,0,FastFast,35,24,Man,Right,
42,11,1,0.7172375999998621,['c'],1,left,['0'],6,0.2680973000001359,0.4,0,FastFast,35,24,Man,Right,
43,11,1,0.6500708999997187,['n'],1,right,['9'],5,0.5018855999996958,0.2,0,FastFast,35,24,Man,Right,
44,11,1,0.699685000000045,['c'],1,left,['9'],5,0.5351845000000139,0.4,0,FastFast,35,24,Man,Right,
45,11,1,0.8348681999996188,['n'],1,right,['9'],5,0.4336546000004091,0.1,0,FastFast,35,24,Man,Right,
46,11,1,0.5674324999999953,['c'],1,left,['8'],4,0.46797449999985474,0.1,0,FastFast,35,24,Man,Right,
47,11,1,0.5342795999999908,['n'],1,right,['0'],6,0.2682926000002226,0.2,0,FastFast,35,24,Man,Right,
48,11,1,0.8166801000002124,['c'],1,left,['8'],4,0.30125619999989794,0.2,0,FastFast,35,24,Man,Right,
49,11,1,0.7669324999997116,['c'],1,left,['9'],5,0.33423949999996694,0.2,0,FastFast,35,24,Man,Right,
50,11,1,0.6338179999997919,['c'],1,left,['0'],6,0.3013590999998996,0.4,0,FastFast,35,24,Man,Right,
51,11,1,0.5673353000001953,['n'],1,right,['9'],5,0.3182537000002412,0.2,0,FastFast,35,24,Man,Right,
52,11,1,0.9007525000001806,['c'],1,left,['8'],4,0.48375309999983074,0.1,0,FastFast,35,24,Man,Right,
53,11,1,0.6173800000001393,['n'],1,right,['0'],6,0.35153950000039913,0.2,0,FastFast,35,24,Man,Right,
54,11,1,0.6001565999999912,['n'],1,right,['0'],6,0.31680740000001606,0.2,0,FastFast,35,24,Man,Right,
55,11,1,0.5511378000001059,['c'],1,left,['9'],5,0.366721299999881,0.4,0,FastFast,35,24,Man,Right,
56,11,1,1.068369199999779,['c'],1,left,['3'],3,0.43488040000011097,0.1,0,FastFast,35,24,Man,Right,
57,11,1,0.6666510000000017,['c'],1,left,['0'],6,0.26606790000005276,0.4,0,FastFast,35,24,Man,Right,
58,11,1,0.6357388000001265,['c'],1,left,['0'],6,0.30071589999988646,0.4,0,FastFast,35,24,Man,Right,
59,11,1,0.7663998999996693,['n'],1,right,['0'],6,0.28392429999985325,0.1,0,FastFast,35,24,Man,Right,
0,12,1,0.801516300000003,['n'],1,right,['0'],6,0.2681596000002173,0.2,0,AccFast,35,24,Man,Right,
1,12,1,0.7663259000000835,['n'],1,right,['0'],6,0.26750099999981103,0.2,0,AccFast,35,24,Man,Right,
2,12,1,0.7000938999999562,['n'],1,right,['0'],6,0.2185908000001291,0.4,0,AccFast,35,24,Man,Right,
3,12,1,0.7671167999997124,['c'],1,left,['0'],6,0.1839774000000034,0.1,0,AccFast,35,24,Man,Right,
4,12,1,0.8337381999999707,['c'],1,left,['9'],5,0.4348947000003136,0.4,0,AccFast,35,24,Man,Right,
5,12,1,0.7847782999997435,['c'],1,left,['0'],6,0.3014241000000766,0.2,0,AccFast,35,24,Man,Right,
6,12,1,0.950388500000372,['n'],1,right,['9'],5,0.2832967999997891,0.1,0,AccFast,35,24,Man,Right,
7,12,1,0.8334580000000642,['c'],1,left,['9'],5,0.2848469999998997,0.2,0,AccFast,35,24,Man,Right,
8,12,1,0.8334429999999884,['c'],1,left,['9'],5,0.25014080000028116,0.2,0,AccFast,35,24,Man,Right,
9,12,1,1.7678157000000283,['c'],0,right,['8'],4,0.45132379999995464,0.1,0,AccFast,35,24,Man,Right,
10,12,1,1.4324201999997968,['c'],0,right,['2'],2,0.6190369999999348,0.1,0,AccFast,35,24,Man,Right,
11,12,1,0.8498098000000027,['c'],1,left,['0'],6,0.21662170000035985,0.4,0,AccFast,35,24,Man,Right,
12,12,1,0.6180570999999873,['c'],1,left,['0'],6,0.21808400000008987,0.4,0,AccFast,35,24,Man,Right,
13,12,1,1.834141400000135,['n'],0,left,['8'],4,0.3685780999999224,0.1,0,AccFast,35,24,Man,Right,
14,12,1,0.8178865999998379,['n'],1,right,['0'],6,0.3170528999999078,0.1,0,AccFast,35,24,Man,Right,
15,12,1,0.6510661000002074,['n'],1,right,['9'],5,0.3188969000002544,0.4,0,AccFast,35,24,Man,Right,
16,12,1,0.6167781000003743,['n'],1,right,['0'],6,0.4001890999998068,0.4,0,AccFast,35,24,Man,Right,
17,12,1,1.6843716999997014,['c'],1,left,['8'],4,0.3015269999996235,0.4,0,AccFast,35,24,Man,Right,
18,12,1,0.931712399999924,['n'],1,right,['9'],5,0.3529499000001124,0.4,0,AccFast,35,24,Man,Right,
19,12,1,1.8011771000001318,['c'],1,left,['3'],3,0.4161114000003181,0.1,0,AccFast,35,24,Man,Right,
20,12,1,0.9183336000000963,['n'],1,right,['9'],5,0.31682120000004943,0.2,0,AccFast,35,24,Man,Right,
21,12,1,0.9515274999998837,['c'],1,left,['0'],6,0.30066000000033455,0.4,0,AccFast,35,24,Man,Right,
22,12,1,1.5491523000000598,['c'],1,left,['2'],2,0.7355591999998978,0.4,0,AccFast,35,24,Man,Right,
23,12,1,1.5004060999999638,['n'],0,left,['2'],2,0.3673229999999421,0.1,0,AccFast,35,24,Man,Right,
24,12,1,0.8314672999999857,['n'],1,right,['0'],6,0.5848095999999714,0.1,0,AccFast,35,24,Man,Right,
25,12,1,1.2333948000000419,['n'],0,left,['3'],3,0.7179325000001882,0.1,0,AccFast,35,24,Man,Right,
26,12,1,1.416975800000273,['c'],1,left,['3'],3,0.5671218000002227,0.2,0,AccFast,35,24,Man,Right,
27,12,1,1.1821948000001612,['n'],1,right,['8'],4,0.5524478000002091,0.2,0,AccFast,35,24,Man,Right,
28,12,1,0.9996930000002067,['n'],1,right,['8'],4,0.38436410000031174,0.1,0,AccFast,35,24,Man,Right,
29,12,1,0.9500410999999076,['n'],1,right,['8'],4,0.7513999999996486,0.1,0,AccFast,35,24,Man,Right,
30,12,1,0.8338425000001735,['n'],1,right,['0'],6,0.20165910000014264,0.2,0,AccFast,35,24,Man,Right,
31,12,1,1.0834463000001051,['c'],1,left,['9'],5,0.2679794000000584,0.1,0,AccFast,35,24,Man,Right,
32,12,1,0.8673327999999856,['c'],1,left,['0'],6,0.1335853999999017,0.1,0,AccFast,35,24,Man,Right,
33,12,1,0.7670603999999912,['n'],1,right,['0'],6,0.18462829999998576,0.4,0,AccFast,35,24,Man,Right,
34,12,1,0.6983992000000399,['n'],1,right,['0'],6,0.20234819999996034,0.4,0,AccFast,35,24,Man,Right,
35,12,1,1.1329852999997456,['c'],1,left,['9'],5,0.2514259000004131,0.2,0,AccFast,35,24,Man,Right,
36,12,1,0.9835838999997577,['c'],1,left,['9'],5,0.16696670000010272,0.2,0,AccFast,35,24,Man,Right,
37,12,1,1.0503553999997166,['c'],1,left,['8'],4,0.1848387999998522,0.1,0,AccFast,35,24,Man,Right,
38,12,1,0.9003293999999187,['c'],1,left,['9'],5,0.2680555000001732,0.1,0,AccFast,35,24,Man,Right,
39,12,1,0.8154958999998598,['c'],0,right,['9'],5,0.2015652999998565,0.1,0,AccFast,35,24,Man,Right,
40,12,1,0.9510555000001659,['c'],1,left,['0'],6,0.3327409999997144,0.2,0,AccFast,35,24,Man,Right,
41,12,1,0.519106599999759,['n'],1,right,['0'],6,0.21816630000012083,0.4,0,AccFast,35,24,Man,Right,
42,12,1,0.6004369000002043,['n'],1,right,['0'],6,0.23398489999999583,0.2,0,AccFast,35,24,Man,Right,
43,12,1,0.6489499000003889,['n'],1,right,['0'],6,0.3190762999997787,0.4,0,AccFast,35,24,Man,Right,
44,12,1,0.5996079999999893,['n'],1,right,['0'],6,0.21820470000011483,0.4,0,AccFast,35,24,Man,Right,
45,12,1,0.8005020999999033,['n'],1,right,['9'],5,0.23484889999963343,0.4,0,AccFast,35,24,Man,Right,
46,12,1,0.7335811999996622,['n'],1,right,['9'],5,0.21821110000018962,0.1,0,AccFast,35,24,Man,Right,
47,12,1,0.633496599999944,['n'],1,right,['0'],6,0.23505999999997584,0.4,0,AccFast,35,24,Man,Right,
48,12,1,0.6342601999999715,['c'],1,left,['9'],5,0.31826890000002095,0.2,0,AccFast,35,24,Man,Right,
49,12,1,0.551236599999811,['n'],1,right,['0'],6,0.2682303999999931,0.4,0,AccFast,35,24,Man,Right,
50,12,1,0.5506196999999702,['c'],1,left,['0'],6,0.21657039999990957,0.4,0,AccFast,35,24,Man,Right,
51,12,1,0.966255700000147,['n'],0,left,['8'],4,0.4683532000003652,0.2,0,AccFast,35,24,Man,Right,
52,12,1,0.6339739000000009,['n'],1,right,['9'],5,0.24908379999988028,0.2,0,AccFast,35,24,Man,Right,
53,12,1,0.5511999000000287,['c'],1,left,['0'],6,0.2354859000001852,0.4,0,AccFast,35,24,Man,Right,
54,12,1,1.0851729000000887,['c'],1,left,['0'],6,0.24954750000006243,0.2,0,AccFast,35,24,Man,Right,
55,12,1,1.3518024999998488,['n'],1,right,['9'],5,0.18308870000009847,0.2,0,AccFast,35,24,Man,Right,
56,12,1,0.7673400999997284,['c'],1,left,['0'],6,0.20217949999960183,0.2,0,AccFast,35,24,Man,Right,
57,12,1,0.8682638999998744,['n'],1,right,['9'],5,0.26846670000031736,0.2,0,AccFast,35,24,Man,Right,
58,12,1,1.0007401999996546,['n'],0,left,['9'],5,0.4181570000000647,0.1,0,AccFast,35,24,Man,Right,
59,12,1,1.166076299999986,['n'],0,left,['9'],5,0.33572330000015427,0.1,0,AccFast,35,24,Man,Right,
0,13,1,1.383730199999718,['c'],1,left,['9'],5,0.6838864999999714,0.1,0,AccAcc,35,24,Man,Right,
1,13,1,0.9338346999998066,['c'],1,left,['0'],6,0.4185779999997976,0.4,0,AccAcc,35,24,Man,Right,
2,13,1,0.866693800000121,['c'],1,left,['0'],6,0.518305699999928,0.4,0,AccAcc,35,24,Man,Right,
3,13,1,1.4681775999997626,['n'],1,right,['9'],5,0.8503002000002198,0.2,0,AccAcc,35,24,Man,Right,
4,13,1,1.300289999999677,['n'],1,right,['0'],6,0.4182706000001417,0.4,0,AccAcc,35,24,Man,Right,
5,13,1,1.79997160000039,['n'],1,right,['8'],4,0.48536820000026637,0.2,0,AccAcc,35,24,Man,Right,
6,13,1,1.082493500000055,['c'],1,left,['9'],5,0.5853376000000026,0.4,0,AccAcc,35,24,Man,Right,
7,13,1,1.7844881000000896,['c'],1,left,['9'],5,0.5498273000002882,0.1,0,AccAcc,35,24,Man,Right,
8,13,1,1.70087680000006,['c'],0,right,['3'],3,0.583818699999938,0.2,0,AccAcc,35,24,Man,Right,
9,13,1,1.0165070000002743,['c'],1,left,['0'],6,0.41859569999996893,0.2,0,AccAcc,35,24,Man,Right,
10,13,1,1.1661982000000535,['c'],1,left,['0'],6,0.6184779999998682,0.2,0,AccAcc,35,24,Man,Right,
11,13,1,1.5843023000002177,['c'],1,left,['8'],4,0.484664900000098,0.1,0,AccAcc,35,24,Man,Right,
12,13,1,1.2824788000002627,['c'],1,left,['9'],5,1.000782199999776,0.1,0,AccAcc,35,24,Man,Right,
13,13,1,1.8171720999998797,['c'],0,right,['8'],4,0.8014964999997574,0.1,0,AccAcc,35,24,Man,Right,
14,13,1,1.8149852999999894,['c'],0,right,['9'],5,1.0840015999997377,0.4,0,AccAcc,35,24,Man,Right,
15,13,1,1.2018639000002622,['c'],1,left,['0'],6,0.9503169999998136,0.4,0,AccAcc,35,24,Man,Right,
16,13,1,1.8178677999999309,['c'],0,right,['3'],3,1.3006486999997833,0.2,0,AccAcc,35,24,Man,Right,
17,13,1,1.3672280000000683,['n'],0,left,['8'],4,0.6516821999998683,0.2,0,AccAcc,35,24,Man,Right,
18,13,1,2.1003491999999824,['n'],0,left,['8'],4,1.3680082999999286,0.4,0,AccAcc,35,24,Man,Right,
19,13,1,2.067171999999573,['c'],1,left,['9'],5,0.7027821000001495,0.1,0,AccAcc,35,24,Man,Right,
20,13,1,1.3010122999999112,['c'],1,left,['9'],5,1.06797669999969,0.4,0,AccAcc,35,24,Man,Right,
21,13,1,2.5841066999996656,['n'],0,left,['3'],3,0.9008543999998437,0.1,0,AccAcc,35,24,Man,Right,
22,13,1,0.9344371000001956,['c'],1,left,['0'],6,0.4345805000002656,0.4,0,AccAcc,35,24,Man,Right,
23,13,1,1.117699999999786,['n'],1,right,['9'],5,0.7501115000000027,0.2,0,AccAcc,35,24,Man,Right,
24,13,1,1.1668218999998317,['c'],1,left,['0'],6,0.43591620000006515,0.4,0,AccAcc,35,24,Man,Right,
25,13,1,1.5165289000001394,['c'],1,left,['9'],5,0.7347031999997853,0.4,0,AccAcc,35,24,Man,Right,
26,13,1,1.849199900000258,['n'],1,right,['9'],5,0.7183296999996855,0.2,0,AccAcc,35,24,Man,Right,
27,13,1,1.0992980999999418,['n'],1,right,['9'],5,0.63557770000034,0.1,0,AccAcc,35,24,Man,Right,
28,13,1,1.1681415000002744,['n'],1,right,['0'],6,0.683907999999974,0.1,0,AccAcc,35,24,Man,Right,
29,13,1,1.3504972999999154,['n'],1,right,['9'],5,0.6665231000001768,0.2,0,AccAcc,35,24,Man,Right,
30,13,1,1.0177483000002212,['n'],1,right,['0'],6,0.651563299999907,0.2,0,AccAcc,35,24,Man,Right,
31,13,1,2.1008460999996714,['n'],1,right,['8'],4,1.118094800000108,0.2,0,AccAcc,35,24,Man,Right,
32,13,1,1.6503954999998314,['n'],1,right,['9'],5,0.6359618999999839,0.1,0,AccAcc,35,24,Man,Right,
33,13,1,0.8002494999996088,['n'],1,right,['0'],6,0.43592960000023595,0.1,0,AccAcc,35,24,Man,Right,
34,13,1,1.7830730000000585,['c'],1,left,['8'],4,0.8190916000003199,0.4,0,AccAcc,35,24,Man,Right,
35,13,1,0.8173529999999118,['n'],1,right,['0'],6,0.36779820000037944,0.4,0,AccAcc,35,24,Man,Right,
36,13,1,1.4177896000001056,['n'],1,right,['9'],5,0.8690221000001657,0.1,0,AccAcc,35,24,Man,Right,
37,13,1,0.7343116000001828,['n'],1,right,['0'],6,0.41804810000030557,0.2,0,AccAcc,35,24,Man,Right,
38,13,1,1.083685399999922,['n'],1,right,['0'],6,0.4000706000001628,0.1,0,AccAcc,35,24,Man,Right,
39,13,1,1.066716499999984,['c'],1,left,['0'],6,0.351567900000191,0.2,0,AccAcc,35,24,Man,Right,
40,13,1,0.8677400000001398,['c'],1,left,['9'],5,0.4682620000003226,0.4,0,AccAcc,35,24,Man,Right,
41,13,1,1.2504902999999103,['c'],1,left,['0'],6,0.4178761000002851,0.4,0,AccAcc,35,24,Man,Right,
42,13,1,1.133803899999748,['n'],0,left,['8'],4,0.5672629000000597,0.1,0,AccAcc,35,24,Man,Right,
43,13,1,1.5345641000003525,['c'],1,left,['3'],3,0.7179763000003732,0.1,0,AccAcc,35,24,Man,Right,
44,13,1,2.066986099999667,['n'],1,right,['2'],2,0.767829399999755,0.1,0,AccAcc,35,24,Man,Right,
45,13,1,1.2176478999999745,['n'],1,right,['9'],5,0.9000307999999677,0.2,0,AccAcc,35,24,Man,Right,
46,13,1,2.0823481000002175,['c'],0,right,['2'],2,1.3166258999999627,0.1,0,AccAcc,35,24,Man,Right,
47,13,1,1.0509842999999819,['n'],1,right,['9'],5,0.6336684000002606,0.2,0,AccAcc,35,24,Man,Right,
48,13,1,1.3343348000003061,['c'],1,left,['8'],4,0.6343617000002268,0.2,0,AccAcc,35,24,Man,Right,
49,13,1,0.834515200000169,['n'],1,right,['0'],6,0.35080569999990985,0.4,0,AccAcc,35,24,Man,Right,
50,13,1,1.1345186999997168,['c'],1,left,['9'],5,0.4523748000001433,0.4,0,AccAcc,35,24,Man,Right,
51,13,1,1.0152458000002298,['c'],1,left,['9'],5,0.535529900000256,0.2,0,AccAcc,35,24,Man,Right,
52,13,1,1.1495955000000322,['n'],1,right,['8'],4,0.4350131999999576,0.1,0,AccAcc,35,24,Man,Right,
53,13,1,1.100470000000314,['n'],1,right,['9'],5,0.5514102000001913,0.1,0,AccAcc,35,24,Man,Right,
54,13,1,1.1499611999997796,['c'],0,right,['8'],4,0.6010142999998607,0.1,0,AccAcc,35,24,Man,Right,
55,13,1,0.9004955999998856,['c'],1,left,['9'],5,0.43467839999993885,0.4,0,AccAcc,35,24,Man,Right,
56,13,1,0.7830163000003267,['c'],1,left,['9'],5,0.7679951000000074,0.4,0,AccAcc,35,24,Man,Right,
57,13,1,1.117251699999997,['n'],1,right,['0'],6,0.5013526999996429,0.4,0,AccAcc,35,24,Man,Right,
58,13,1,1.2838188000000628,['n'],1,right,['0'],6,0.5346652000002905,0.2,0,AccAcc,35,24,Man,Right,
59,13,1,1.5166666000000077,['c'],1,left,['8'],4,0.5170023999999103,0.2,0,AccAcc,35,24,Man,Right,
0,14,1,0.5177729000001818,['n'],1,right,['0'],6,0.8350368999999773,0.4,0,FastAcc,35,24,Man,Right,
1,14,1,0.48394610000013927,['c'],1,left,['0'],6,0.9005681000003278,0.4,0,FastAcc,35,24,Man,Right,
2,14,1,0.4323919000003116,['n'],1,right,['0'],6,0.7852240000001984,0.4,0,FastAcc,35,24,Man,Right,
3,14,1,0.8013933000001998,['n'],0,left,['8'],4,1.116728200000125,0.2,0,FastAcc,35,24,Man,Right,
4,14,1,0.6013838999997461,['n'],1,right,['0'],6,0.48334669999985636,0.4,0,FastAcc,35,24,Man,Right,
5,14,1,0.5661761999999726,['n'],1,right,['0'],6,0.4007555999996839,0.4,0,FastAcc,35,24,Man,Right,
6,14,1,0.6499834000001101,['n'],1,right,['9'],5,0.8685958999999457,0.1,0,FastAcc,35,24,Man,Right,
7,14,1,0.6319277999996302,['c'],1,left,['0'],6,0.6686845000003814,0.4,0,FastAcc,35,24,Man,Right,
8,14,1,0.8171582999998463,['n'],1,right,['0'],6,0.6842719000001125,0.1,0,FastAcc,35,24,Man,Right,
9,14,1,0.8842874000001757,['c'],0,right,['2'],2,1.0343769000000975,0.2,0,FastAcc,35,24,Man,Right,
10,14,1,0.8338051000000632,['c'],1,left,['8'],4,1.034679899999901,0.1,0,FastAcc,35,24,Man,Right,
11,14,1,0.583727700000054,['c'],1,left,['8'],4,1.3666035000001102,0.2,0,FastAcc,35,24,Man,Right,
12,14,1,0.7507144999999582,['c'],1,left,['0'],6,0.7333749999997963,0.4,0,FastAcc,35,24,Man,Right,
13,14,1,1.0337715000000571,['c'],1,left,['0'],6,1.3672977000001083,0.4,0,FastAcc,35,24,Man,Right,
14,14,1,0.5004392999999254,['c'],1,left,['9'],5,0.9837022000001525,0.2,0,FastAcc,35,24,Man,Right,
15,14,1,0.5150289000002886,['n'],1,right,['0'],6,0.5676464000002852,0.1,0,FastAcc,35,24,Man,Right,
16,14,1,0.7512123999999858,['c'],1,left,['9'],5,0.7183882000003905,0.2,0,FastAcc,35,24,Man,Right,
17,14,1,0.9500619999998889,['n'],1,right,['9'],5,0.784671200000048,0.1,0,FastAcc,35,24,Man,Right,
18,14,1,0.9494367000002057,['n'],1,right,['8'],4,0.9847325000000637,0.2,0,FastAcc,35,24,Man,Right,
19,14,1,0.5674681999998938,['n'],1,right,['0'],6,0.5335731999998643,0.4,0,FastAcc,35,24,Man,Right,
20,14,1,0.7664907999997013,['n'],1,right,['8'],4,0.8354262000002564,0.1,0,FastAcc,35,24,Man,Right,
21,14,1,0.750560200000109,['n'],1,right,['8'],4,1.318173300000126,0.1,0,FastAcc,35,24,Man,Right,
22,14,1,0.6334465999998429,['n'],1,right,['0'],6,0.4679599999999482,0.1,0,FastAcc,35,24,Man,Right,
23,14,1,0.6673345999997764,['n'],1,right,['8'],4,1.3333568000002742,0.2,0,FastAcc,35,24,Man,Right,
24,14,1,0.7849491000001763,['c'],1,left,['0'],6,0.5497889000002942,0.2,0,FastAcc,35,24,Man,Right,
25,14,1,0.6668940999998085,['n'],1,right,['9'],5,0.8858476000000337,0.2,0,FastAcc,35,24,Man,Right,
26,14,1,0.8503169000000526,['n'],1,right,['9'],5,1.6512398999998368,0.2,0,FastAcc,35,24,Man,Right,
27,14,1,1.3819170000001577,['n'],0,left,['3'],3,1.1187111999997796,0.4,0,FastAcc,35,24,Man,Right,
28,14,1,0.8835313999998107,['c'],1,left,['8'],4,1.1846467999998822,0.4,0,FastAcc,35,24,Man,Right,
29,14,1,1.3499053000000458,['c'],1,left,['8'],4,1.2850047999995695,0.4,0,FastAcc,35,24,Man,Right,
30,14,1,0.633935300000303,['n'],1,right,['0'],6,0.7181080000000293,0.4,0,FastAcc,35,24,Man,Right,
31,14,1,0.7170227000001432,['c'],1,left,['0'],6,0.6513288999999531,0.4,0,FastAcc,35,24,Man,Right,
32,14,1,0.8664260000000468,['n'],0,left,['3'],3,1.150224099999832,0.1,0,FastAcc,35,24,Man,Right,
33,14,1,0.6176702000002479,['c'],1,left,['9'],5,0.8346998000001804,0.1,0,FastAcc,35,24,Man,Right,
34,14,1,1.13343070000019,['n'],1,right,['8'],4,1.1346198999999615,0.1,0,FastAcc,35,24,Man,Right,
35,14,1,0.6675115999996706,['c'],1,left,['0'],6,0.7176868000001377,0.4,0,FastAcc,35,24,Man,Right,
36,14,1,0.7504698000002463,['c'],1,left,['3'],3,1.067902199999935,0.2,0,FastAcc,35,24,Man,Right,
37,14,1,0.6338445999999749,['c'],1,left,['9'],5,0.9847798999999213,0.2,0,FastAcc,35,24,Man,Right,
38,14,1,0.9161368000000039,['n'],0,left,['2'],2,1.7011429999997745,0.2,0,FastAcc,35,24,Man,Right,
39,14,1,0.7497355999998945,['c'],0,right,['2'],2,1.4841392000002998,0.1,0,FastAcc,35,24,Man,Right,
40,14,1,0.9013811999998325,['n'],0,left,['3'],3,1.3834201999998186,0.1,0,FastAcc,35,24,Man,Right,
41,14,1,0.9661208000002262,['c'],1,left,['9'],5,0.48432210000009945,0.1,0,FastAcc,35,24,Man,Right,
42,14,1,0.5179873000001862,['n'],1,right,['0'],6,0.6181402000001981,0.4,0,FastAcc,35,24,Man,Right,
43,14,1,0.6171398000001318,['n'],1,right,['0'],6,0.41810620000023846,0.4,0,FastAcc,35,24,Man,Right,
44,14,1,0.5339395000000877,['n'],1,right,['0'],6,0.41765510000004724,0.4,0,FastAcc,35,24,Man,Right,
45,14,1,0.783245000000079,['c'],1,left,['8'],4,0.767780700000003,0.1,0,FastAcc,35,24,Man,Right,
46,14,1,0.5172231999999894,['c'],1,left,['9'],5,0.6668671000002178,0.2,0,FastAcc,35,24,Man,Right,
47,14,1,0.7830580999998347,['c'],1,left,['8'],4,0.9173356999999669,0.2,0,FastAcc,35,24,Man,Right,
48,14,1,0.5831328999997822,['n'],1,right,['0'],6,0.43582610000021305,0.4,0,FastAcc,35,24,Man,Right,
49,14,1,0.8174141000004056,['c'],0,right,['8'],4,0.9679949000001216,0.2,0,FastAcc,35,24,Man,Right,
50,14,1,1.0004472999999052,['c'],1,left,['3'],3,1.2168883999997888,0.1,0,FastAcc,35,24,Man,Right,
51,14,1,0.7839515999999094,['n'],1,right,['8'],4,1.0001381999995829,0.1,0,FastAcc,35,24,Man,Right,
52,14,1,0.6990883000003123,['n'],1,right,['8'],4,1.117574500000046,0.2,0,FastAcc,35,24,Man,Right,
53,14,1,1.1495341999998345,['n'],0,left,['3'],3,0.9007667999999285,0.2,0,FastAcc,35,24,Man,Right,
54,14,1,0.8337938999998187,['c'],1,left,['8'],4,1.1004406000001836,0.2,0,FastAcc,35,24,Man,Right,
55,14,1,1.0495371999995768,['c'],1,left,['3'],3,0.7501421000001756,0.1,0,FastAcc,35,24,Man,Right,
56,14,1,1.0000003000000106,['c'],1,left,['9'],5,0.8172095999998419,0.2,0,FastAcc,35,24,Man,Right,
57,14,1,1.034590699999626,['n'],1,right,['8'],4,1.3681222000000162,0.1,0,FastAcc,35,24,Man,Right,
58,14,1,1.1809926999999334,['n'],1,right,['2'],2,1.852573300000131,0.1,0,FastAcc,35,24,Man,Right,
59,14,1,1.051155000000108,['n'],1,right,['0'],6,0.33333119999997507,0.4,0,FastAcc,35,24,Man,Right,
0,15,1,0.7348335000001498,['n'],0,left,['9'],5,0.6524717999996028,0.1,0,FastFast,35,24,Man,Right,
1,15,1,0.6839280999997754,['n'],1,right,['0'],6,0.3341950999997607,0.4,0,FastFast,35,24,Man,Right,
2,15,1,0.7999712999999247,['c'],1,left,['2'],2,0.5180155999996714,0.2,0,FastFast,35,24,Man,Right,
3,15,1,0.7826168999999936,['n'],0,left,['9'],5,0.46766600000000835,0.1,0,FastFast,35,24,Man,Right,
4,15,1,0.4010800000000927,['n'],1,right,['0'],6,0.34967020000021876,0.4,0,FastFast,35,24,Man,Right,
5,15,1,0.5497290000002977,['n'],1,right,['0'],6,0.38555760000008377,0.2,0,FastFast,35,24,Man,Right,
6,15,1,0.5338631999998142,['n'],1,right,['9'],5,0.4668584999999439,0.2,0,FastFast,35,24,Man,Right,
7,15,1,0.8833665000001929,['c'],1,left,['2'],2,0.701863300000241,0.2,0,FastFast,35,24,Man,Right,
8,15,1,0.6155903999997463,['c'],1,left,['2'],2,0.9008194000002732,0.1,0,FastFast,35,24,Man,Right,
9,15,1,0.7838371999996525,['n'],0,left,['8'],4,0.6009587000003194,0.1,0,FastFast,35,24,Man,Right,
10,15,1,0.6498196000002281,['n'],1,right,['8'],4,0.6840982999997323,0.1,0,FastFast,35,24,Man,Right,
11,15,1,0.6504060000002028,['n'],0,left,['8'],4,0.5676406000002316,0.2,0,FastFast,35,24,Man,Right,
12,15,1,0.7496202999996058,['n'],0,left,['8'],4,0.6509568999999829,0.2,0,FastFast,35,24,Man,Right,
13,15,1,1.317217299999811,['n'],0,left,['8'],4,0.767520599999898,0.1,0,FastFast,35,24,Man,Right,
14,15,1,0.5173080999998092,['n'],1,right,['0'],6,0.3183748999999807,0.4,0,FastFast,35,24,Man,Right,
15,15,1,0.5817088000003423,['n'],0,left,['8'],4,0.5676085000000057,0.1,0,FastFast,35,24,Man,Right,
16,15,1,0.5496521999998549,['n'],1,right,['0'],6,0.31759699999975055,0.2,0,FastFast,35,24,Man,Right,
17,15,1,0.5835678000003099,['n'],0,left,['8'],4,0.43442300000015166,0.1,0,FastFast,35,24,Man,Right,
18,15,1,0.5337792999998783,['n'],1,right,['0'],6,0.30092300000023897,0.4,0,FastFast,35,24,Man,Right,
19,15,1,0.7521557999998549,['n'],0,left,['9'],5,0.3508276000002297,0.1,0,FastFast,35,24,Man,Right,
20,15,1,0.5661937999998372,['n'],1,right,['0'],6,0.3012783999997737,0.4,0,FastFast,35,24,Man,Right,
21,15,1,0.5003638000002866,['c'],1,left,['0'],6,0.28459579999980633,0.4,0,FastFast,35,24,Man,Right,
22,15,1,0.7504090000002179,['n'],1,right,['9'],5,0.36775489999990896,0.2,0,FastFast,35,24,Man,Right,
23,15,1,0.651310199999898,['n'],1,right,['9'],5,0.4498662000000877,0.2,0,FastFast,35,24,Man,Right,
24,15,1,1.0665813000000526,['n'],1,right,['3'],3,0.9007540000002336,0.2,0,FastFast,35,24,Man,Right,
25,15,1,0.7677072000001317,['c'],1,left,['0'],6,0.33446660000026895,0.4,0,FastFast,35,24,Man,Right,
26,15,1,0.5160728000000745,['n'],1,right,['0'],6,0.26836709999997765,0.4,0,FastFast,35,24,Man,Right,
27,15,1,0.783539699999892,['n'],0,left,['9'],5,0.3842988000001242,0.1,0,FastFast,35,24,Man,Right,
28,15,1,0.550043100000039,['c'],1,left,['0'],6,0.3345755000000281,0.4,0,FastFast,35,24,Man,Right,
29,15,1,0.43291750000025786,['n'],1,right,['0'],6,0.3673988000000463,0.2,0,FastFast,35,24,Man,Right,
30,15,1,1.1996502000001783,['c'],0,right,['8'],4,0.4005134999997608,0.1,0,FastFast,35,24,Man,Right,
31,15,1,0.8658670999998321,['n'],1,right,['8'],4,0.3345623999998679,0.1,0,FastFast,35,24,Man,Right,
32,15,1,0.5167691999999988,['n'],1,right,['0'],6,0.31751779999967766,0.4,0,FastFast,35,24,Man,Right,
33,15,1,0.46715329999960886,['c'],1,left,['0'],6,0.3189296000000468,0.1,0,FastFast,35,24,Man,Right,
34,15,1,0.8488937000001897,['n'],0,left,['9'],5,0.35070330000007743,0.2,0,FastFast,35,24,Man,Right,
35,15,1,0.6002393999997366,['n'],1,right,['0'],6,0.26745630000004894,0.4,0,FastFast,35,24,Man,Right,
36,15,1,0.4674469000001409,['c'],1,left,['9'],5,0.4674003999998604,0.2,0,FastFast,35,24,Man,Right,
37,15,1,0.6829849999999169,['c'],1,left,['0'],6,0.26815209999995204,0.4,0,FastFast,35,24,Man,Right,
38,15,1,0.7827721000003294,['c'],0,right,['8'],4,0.5838209999997162,0.1,0,FastFast,35,24,Man,Right,
39,15,1,0.666509700000006,['c'],1,left,['0'],6,0.30018269999982294,0.4,0,FastFast,35,24,Man,Right,
40,15,1,0.8163474999996652,['n'],1,right,['9'],5,0.3838618999998289,0.1,0,FastFast,35,24,Man,Right,
41,15,1,0.5994274999998197,['c'],1,left,['9'],5,0.35162899999977526,0.4,0,FastFast,35,24,Man,Right,
42,15,1,0.5663165000000845,['n'],1,right,['0'],6,0.3004731000000902,0.4,0,FastFast,35,24,Man,Right,
43,15,1,0.9826008999998521,['n'],0,left,['2'],2,0.651270199999999,0.2,0,FastFast,35,24,Man,Right,
44,15,1,0.7499861000001147,['n'],1,right,['9'],5,0.500420099999701,0.2,0,FastFast,35,24,Man,Right,
45,15,1,0.5678275000000212,['n'],1,right,['0'],6,0.3834237999999459,0.4,0,FastFast,35,24,Man,Right,
46,15,1,0.6657540000001063,['n'],1,right,['9'],5,0.43564409999999043,0.2,0,FastFast,35,24,Man,Right,
47,15,1,0.8336849000002076,['n'],0,left,['3'],3,1.0831671999999344,0.1,0,FastFast,35,24,Man,Right,
48,15,1,0.851222400000097,['c'],1,left,['9'],5,0.43474679999962973,0.2,0,FastFast,35,24,Man,Right,
49,15,1,0.4654866000000766,['n'],1,right,['0'],6,0.350901100000101,0.4,0,FastFast,35,24,Man,Right,
50,15,1,0.6167589000001499,['c'],1,left,['0'],6,0.3685683000003337,0.4,0,FastFast,35,24,Man,Right,
51,15,1,0.6158709000001181,['n'],1,right,['0'],6,0.23369940000020506,0.4,0,FastFast,35,24,Man,Right,
52,15,1,0.8343830999997408,['n'],1,right,['8'],4,0.7514232999997148,0.1,0,FastFast,35,24,Man,Right,
53,15,1,0.6343744000000697,['c'],1,left,['0'],6,0.35171870000021954,0.2,0,FastFast,35,24,Man,Right,
54,15,1,0.6668330000002243,['n'],1,right,['9'],5,0.41704020000042874,0.1,0,FastFast,35,24,Man,Right,
55,15,1,0.7171524000000318,['c'],1,left,['0'],6,0.25054110000019136,0.2,0,FastFast,35,24,Man,Right,
56,15,1,0.7161682000000837,['n'],1,right,['9'],5,0.25218260000019654,0.1,0,FastFast,35,24,Man,Right,
57,15,1,0.46592499999997017,['c'],1,left,['0'],6,0.268995299999915,0.4,0,FastFast,35,24,Man,Right,
58,15,1,0.5174329999999827,['n'],1,right,['0'],6,0.28474599999981365,0.1,0,FastFast,35,24,Man,Right,
59,15,1,0.7660796999998638,['c'],1,left,['0'],6,0.33561900000040623,0.2,0,FastFast,35,24,Man,Right,
