withinblocktrial,block,block_repetition,rt,resp,cor,cresp,conf_press,cj,rtconf,coherence,slow_trial,manipulation,sub,age,gender,handedness,
0,1,1,1.7000047999999879,['c'],1,left,none,-99,-99,0.5,0,none,36,22,Woman,Right,
1,1,1,2.949637800000005,['c'],1,left,none,-99,-99,0.5,0,none,36,22,Woman,Right,
2,1,1,1.332718899999918,['n'],1,right,none,-99,-99,0.5,0,none,36,22,Woman,Right,
3,1,1,1.1660732999999937,['n'],1,right,none,-99,-99,0.5,0,none,36,22,Woman,Right,
4,1,1,0.8996008999999958,['c'],1,left,none,-99,-99,0.5,0,none,36,22,Woman,Right,
5,1,1,0.6168829999999161,['n'],1,right,none,-99,-99,0.5,0,none,36,22,Woman,Right,
6,1,1,0.6344166999999743,['n'],1,right,none,-99,-99,0.5,0,none,36,22,Woman,Right,
7,1,1,1.500198399999931,['c'],0,right,none,-99,-99,0.5,0,none,36,22,Woman,Right,
8,1,1,0.667621199999985,['c'],1,left,none,-99,-99,0.5,0,none,36,22,Woman,Right,
9,1,1,0.45031189999997423,['n'],1,right,none,-99,-99,0.5,0,none,36,22,Woman,Right,
10,1,1,0.6992596000000049,['c'],1,left,none,-99,-99,0.5,0,none,36,22,Woman,Right,
11,1,1,0.5832149999999956,['c'],1,left,none,-99,-99,0.5,0,none,36,22,Woman,Right,
12,1,1,0.6994188000001031,['c'],1,left,none,-99,-99,0.5,0,none,36,22,Woman,Right,
13,1,1,0.46721819999993386,['n'],1,right,none,-99,-99,0.5,0,none,36,22,Woman,Right,
14,1,1,0.4827950999999757,['c'],1,left,none,-99,-99,0.5,0,none,36,22,Woman,Right,
15,1,1,0.5334359999999378,['c'],1,left,none,-99,-99,0.5,0,none,36,22,Woman,Right,
16,1,1,0.5999977000000172,['c'],1,left,none,-99,-99,0.5,0,none,36,22,Woman,Right,
17,1,1,0.6167847000000393,['n'],1,right,none,-99,-99,0.5,0,none,36,22,Woman,Right,
18,1,1,0.5336421000000655,['c'],1,left,none,-99,-99,0.5,0,none,36,22,Woman,Right,
19,1,1,0.8329064000000699,['n'],1,right,none,-99,-99,0.5,0,none,36,22,Woman,Right,
20,1,1,0.5001284999999598,['n'],1,right,none,-99,-99,0.5,0,none,36,22,Woman,Right,
21,1,1,0.6165068000000247,['n'],1,right,none,-99,-99,0.5,0,none,36,22,Woman,Right,
22,1,1,0.6665244000000712,['c'],1,left,none,-99,-99,0.5,0,none,36,22,Woman,Right,
23,1,1,0.6184987000000319,['n'],1,right,none,-99,-99,0.5,0,none,36,22,Woman,Right,
0,2,1,0.9830340000000888,['n'],1,right,none,-99,-99,0.1,0,none,36,22,Woman,Right,
1,2,1,0.6671577000000752,['c'],0,right,none,-99,-99,0.4,0,none,36,22,Woman,Right,
2,2,1,0.6000655999999935,['n'],1,right,none,-99,-99,0.1,0,none,36,22,Woman,Right,
3,2,1,0.5673937999999907,['c'],1,left,none,-99,-99,0.2,0,none,36,22,Woman,Right,
4,2,1,0.599534100000028,['n'],1,right,none,-99,-99,0.2,0,none,36,22,Woman,Right,
5,2,1,0.5009298000001081,['c'],1,left,none,-99,-99,0.2,0,none,36,22,Woman,Right,
6,2,1,0.5510608999999249,['n'],0,left,none,-99,-99,0.4,0,none,36,22,Woman,Right,
7,2,1,0.8007146999999577,['n'],1,right,none,-99,-99,0.2,0,none,36,22,Woman,Right,
8,2,1,0.9163419000000204,['n'],1,right,none,-99,-99,0.4,0,none,36,22,Woman,Right,
9,2,1,0.6503949000000375,['n'],1,right,none,-99,-99,0.2,0,none,36,22,Woman,Right,
10,2,1,1.4494782000000441,['c'],0,right,none,-99,-99,0.4,0,none,36,22,Woman,Right,
11,2,1,1.0833039000000326,['n'],1,right,none,-99,-99,0.1,0,none,36,22,Woman,Right,
12,2,1,0.9339218000000074,['c'],1,left,none,-99,-99,0.1,0,none,36,22,Woman,Right,
13,2,1,0.6495880999999599,['c'],1,left,none,-99,-99,0.4,0,none,36,22,Woman,Right,
14,2,1,1.1828433000000587,['n'],1,right,none,-99,-99,0.1,0,none,36,22,Woman,Right,
15,2,1,0.6496683999999959,['c'],1,left,none,-99,-99,0.4,0,none,36,22,Woman,Right,
16,2,1,0.6168464999999514,['c'],1,left,none,-99,-99,0.2,0,none,36,22,Woman,Right,
17,2,1,0.717020400000024,['c'],0,right,none,-99,-99,0.4,0,none,36,22,Woman,Right,
18,2,1,1.8829875999999786,['c'],1,left,none,-99,-99,0.2,0,none,36,22,Woman,Right,
19,2,1,1.4671868000000359,['n'],0,left,none,-99,-99,0.1,0,none,36,22,Woman,Right,
20,2,1,0.9166589999999815,['n'],1,right,none,-99,-99,0.1,0,none,36,22,Woman,Right,
21,2,1,0.6170293000000129,['c'],1,left,none,-99,-99,0.4,0,none,36,22,Woman,Right,
22,2,1,0.48355019999996784,['c'],1,left,none,-99,-99,0.2,0,none,36,22,Woman,Right,
23,2,1,0.6337651000000051,['n'],0,left,none,-99,-99,0.1,0,none,36,22,Woman,Right,
0,3,1,2.316154299999994,['n'],1,right,none,-99,-99,0.1,1,none,36,22,Woman,Right,
1,3,1,2.3840096999999787,['n'],1,right,['3'],4,2.100781799999936,0.1,0,none,36,22,Woman,Right,
2,3,1,2.015477400000009,['n'],1,right,['3'],4,1.86730620000003,0.4,0,none,36,22,Woman,Right,
3,3,1,0.8664313000000448,['c'],1,left,['3'],4,1.5507055000000491,0.4,0,none,36,22,Woman,Right,
4,3,1,2.5171015999999327,['n'],0,left,['8'],3,1.334325100000001,0.2,0,none,36,22,Woman,Right,
5,3,1,1.4170408999999609,['c'],0,right,['8'],3,1.5838977999999315,0.1,0,none,36,22,Woman,Right,
6,3,1,1.2331682999999884,['n'],1,right,['3'],4,1.2844572999999855,0.2,0,none,36,22,Woman,Right,
7,3,1,1.4664493999999877,['n'],1,right,['1'],6,1.5177128000000266,0.4,0,none,36,22,Woman,Right,
8,3,1,1.7335607999999638,['c'],1,left,['1'],6,1.6673722000000453,0.4,0,none,36,22,Woman,Right,
9,3,1,1.0326540000000932,['n'],0,left,['1'],6,0.8843181999999388,0.2,0,none,36,22,Woman,Right,
10,3,1,0.8170528000000559,['n'],1,right,['1'],6,0.4842792999999119,0.4,0,none,36,22,Woman,Right,
11,3,1,1.0829028000000562,['n'],0,left,['1'],6,0.7009895999999571,0.1,0,none,36,22,Woman,Right,
12,3,1,1.5167959999999994,['n'],0,left,['3'],4,1.967236699999944,0.1,0,none,36,22,Woman,Right,
13,3,1,1.1503806000000623,['n'],1,right,['3'],4,1.7675684999999248,0.2,0,none,36,22,Woman,Right,
14,3,1,1.0339687000000595,['n'],0,left,['3'],4,0.8674936000001026,0.2,0,none,36,22,Woman,Right,
15,3,1,0.8167197000000215,['n'],0,left,['3'],4,0.8840959000000339,0.4,0,none,36,22,Woman,Right,
16,3,1,0.8172660999999835,['n'],1,right,['8'],3,1.6509187000000338,0.2,0,none,36,22,Woman,Right,
17,3,1,0.8328088000000662,['n'],1,right,['3'],4,1.017624000000069,0.2,0,none,36,22,Woman,Right,
18,3,1,0.6000444000000016,['n'],1,right,['1'],6,0.7508645000000342,0.4,0,none,36,22,Woman,Right,
19,3,1,0.9004112999999734,['n'],0,left,['8'],3,0.9673974999999473,0.1,0,none,36,22,Woman,Right,
20,3,1,0.7832228999999415,['n'],0,left,['1'],6,1.017649899999924,0.1,0,none,36,22,Woman,Right,
21,3,1,0.7997616999999764,['n'],0,left,['1'],6,0.7674987999999985,0.1,0,none,36,22,Woman,Right,
22,3,1,0.6173761000000013,['n'],1,right,['1'],6,0.43441500000005817,0.2,0,none,36,22,Woman,Right,
23,3,1,0.5838947000000871,['n'],0,left,['1'],6,0.6511388000000125,0.4,0,none,36,22,Woman,Right,
0,4,1,1.7835286000000679,['n'],0,left,['3'],4,2.0677339000000075,0.1,0,AccFast,36,22,Woman,Right,
1,4,1,1.1335990000000038,['n'],0,left,['3'],4,2.1511019000000715,0.4,0,AccFast,36,22,Woman,Right,
2,4,1,0.8504272999999785,['n'],0,left,['3'],4,1.701422100000059,0.1,0,AccFast,36,22,Woman,Right,
3,4,1,1.8165708999999879,['n'],1,right,['3'],4,1.9505920999999944,0.2,0,AccFast,36,22,Woman,Right,
4,4,1,0.6826423999999633,['n'],1,right,['3'],4,1.084183600000074,0.2,0,AccFast,36,22,Woman,Right,
5,4,1,1.9664964999999484,['c'],1,left,['8'],3,1.0344725999999582,0.1,0,AccFast,36,22,Woman,Right,
6,4,1,0.9009049000000005,['n'],1,right,['3'],4,0.7344994000000042,0.1,0,AccFast,36,22,Woman,Right,
7,4,1,1.482780899999966,['n'],1,right,['8'],3,1.0686653999999862,0.2,0,AccFast,36,22,Woman,Right,
8,4,1,0.7000476000000617,['n'],1,right,['1'],6,0.9347218999998859,0.1,0,AccFast,36,22,Woman,Right,
9,4,1,0.9511565000000246,['n'],0,left,['1'],6,0.8680911999999807,0.1,0,AccFast,36,22,Woman,Right,
10,4,1,2.4667062999999416,['n'],0,left,['8'],3,1.5177200999999059,0.2,0,AccFast,36,22,Woman,Right,
11,4,1,0.765031800000088,['n'],1,right,['2'],5,0.8672555000000557,0.4,0,AccFast,36,22,Woman,Right,
12,4,1,1.5661392999998043,['n'],0,left,['3'],4,1.267534299999852,0.2,0,AccFast,36,22,Woman,Right,
13,4,1,1.7327503000001343,['c'],1,left,['8'],3,1.4841405999998187,0.1,0,AccFast,36,22,Woman,Right,
14,4,1,0.9830093000000488,['c'],1,left,['3'],4,1.1338559000000714,0.4,0,AccFast,36,22,Woman,Right,
15,4,1,1.0167168000000402,['c'],0,right,['3'],4,0.7342263000000457,0.2,0,AccFast,36,22,Woman,Right,
16,4,1,2.2498693999998522,['n'],0,left,['3'],4,1.134151299999985,0.4,0,AccFast,36,22,Woman,Right,
17,4,1,0.8834893000000648,['n'],1,right,['1'],6,1.6017895999998473,0.4,0,AccFast,36,22,Woman,Right,
18,4,1,1.3336325000000215,['n'],1,right,['2'],5,1.2330971999999747,0.1,0,AccFast,36,22,Woman,Right,
19,4,1,0.6340000000000146,['n'],1,right,['1'],6,0.5844343999999637,0.4,0,AccFast,36,22,Woman,Right,
20,4,1,1.3176546999998209,['c'],1,left,['1'],6,0.8176880000000892,0.4,0,AccFast,36,22,Woman,Right,
21,4,1,1.7339540999998917,['n'],0,left,['3'],4,1.1500284000001102,0.2,0,AccFast,36,22,Woman,Right,
22,4,1,1.1851133000000118,['n'],0,left,['2'],5,1.2677684000000227,0.1,0,AccFast,36,22,Woman,Right,
23,4,1,0.683637299999873,['n'],1,right,['3'],4,1.0844077000001562,0.1,0,AccFast,36,22,Woman,Right,
24,4,1,0.7838936999999078,['c'],1,left,['1'],6,1.7516313000000991,0.1,0,AccFast,36,22,Woman,Right,
25,4,1,1.1839014999998199,['n'],1,right,['3'],4,0.9676575999999386,0.2,0,AccFast,36,22,Woman,Right,
26,4,1,1.1837381000000278,['n'],0,left,['3'],4,0.9336137000000235,0.1,0,AccFast,36,22,Woman,Right,
27,4,1,1.2669080999999096,['c'],1,left,['3'],4,1.1509657000001425,0.4,0,AccFast,36,22,Woman,Right,
28,4,1,1.5501463000000513,['n'],1,right,['8'],3,0.7345428999999513,0.1,0,AccFast,36,22,Woman,Right,
29,4,1,1.5835678999999345,['n'],0,left,['9'],2,1.2010165000001507,0.1,0,AccFast,36,22,Woman,Right,
30,4,1,1.3657137000000148,['c'],1,left,['2'],5,1.0681919999999536,0.4,0,AccFast,36,22,Woman,Right,
31,4,1,0.6497165000000678,['n'],1,right,['1'],6,0.901585999999952,0.4,0,AccFast,36,22,Woman,Right,
32,4,1,1.8666203000000223,['n'],0,left,['2'],5,1.3517412999999578,0.1,0,AccFast,36,22,Woman,Right,
33,4,1,1.06729990000008,['n'],1,right,['2'],5,0.7344246999998632,0.1,0,AccFast,36,22,Woman,Right,
34,4,1,0.9995202000000063,['n'],0,left,['2'],5,0.5512760999999955,0.2,0,AccFast,36,22,Woman,Right,
35,4,1,0.9009699999999157,['c'],1,left,['1'],6,0.9511216999999306,0.2,0,AccFast,36,22,Woman,Right,
36,4,1,0.7171485000001212,['n'],1,right,['1'],6,0.7340263999999479,0.4,0,AccFast,36,22,Woman,Right,
37,4,1,0.9833342000001721,['n'],1,right,['9'],2,1.684449000000086,0.1,0,AccFast,36,22,Woman,Right,
38,4,1,1.4160808000001452,['n'],0,left,['8'],3,1.450411000000031,0.2,0,AccFast,36,22,Woman,Right,
39,4,1,0.9497122999998737,['n'],1,right,['1'],6,0.701367300000129,0.4,0,AccFast,36,22,Woman,Right,
40,4,1,2.3988875000000007,['c'],1,left,['2'],5,0.9520505000000412,0.2,0,AccFast,36,22,Woman,Right,
41,4,1,0.882962599999928,['c'],1,left,['1'],6,0.5840577999999823,0.4,0,AccFast,36,22,Woman,Right,
42,4,1,1.0164052999998603,['n'],0,left,['1'],6,0.6010809999997946,0.1,0,AccFast,36,22,Woman,Right,
43,4,1,0.9169157999999697,['n'],1,right,['1'],6,0.5841063000000304,0.2,0,AccFast,36,22,Woman,Right,
44,4,1,0.9499425000001338,['n'],0,left,['2'],5,0.9179885999999442,0.1,0,AccFast,36,22,Woman,Right,
45,4,1,1.6672244000001228,['c'],0,right,['8'],3,1.1844074000000546,0.1,0,AccFast,36,22,Woman,Right,
46,4,1,1.0503383000000213,['n'],1,right,['1'],6,0.9347090999999637,0.4,0,AccFast,36,22,Woman,Right,
47,4,1,0.9499515999998493,['n'],1,right,['2'],5,0.7677866999999878,0.2,0,AccFast,36,22,Woman,Right,
48,4,1,1.1829823999999007,['n'],1,right,['8'],3,0.7513474000002134,0.2,0,AccFast,36,22,Woman,Right,
49,4,1,1.1003211000002011,['n'],1,right,['8'],3,1.017147100000102,0.4,0,AccFast,36,22,Woman,Right,
50,4,1,1.3338855000001786,['n'],0,left,['9'],2,1.101161300000058,0.2,0,AccFast,36,22,Woman,Right,
51,4,1,1.4167356000000382,['n'],1,right,['8'],3,1.4684638999999606,0.4,0,AccFast,36,22,Woman,Right,
52,4,1,1.4841251000000284,['n'],1,right,['8'],3,1.734547799999973,0.4,0,AccFast,36,22,Woman,Right,
53,4,1,2.4171177999999145,['n'],1,right,['3'],4,1.8177143000000342,0.4,0,AccFast,36,22,Woman,Right,
54,4,1,1.582260500000075,['c'],1,left,['2'],5,1.3020939000000453,0.2,0,AccFast,36,22,Woman,Right,
55,4,1,1.0836396999998215,['c'],1,left,['1'],6,1.2173482000000604,0.2,0,AccFast,36,22,Woman,Right,
56,4,1,1.7169871000000967,['c'],0,right,['1'],6,1.2341075000001638,0.4,0,AccFast,36,22,Woman,Right,
57,4,1,1.0998481000001448,['c'],1,left,['1'],6,1.201100600000018,0.2,0,AccFast,36,22,Woman,Right,
58,4,1,1.0320389999999406,['n'],1,right,['3'],4,1.9180656000000909,0.4,0,AccFast,36,22,Woman,Right,
59,4,1,1.4172240999998849,['c'],0,right,['2'],5,0.9499458000000232,0.2,0,AccFast,36,22,Woman,Right,
0,5,1,3.8338507999999365,['n'],1,right,['3'],4,2.500802100000101,0.2,0,AccAcc,36,22,Woman,Right,
1,5,1,2.1832562999998117,['n'],1,right,['2'],5,1.95112180000001,0.2,0,AccAcc,36,22,Woman,Right,
2,5,1,1.416675800000121,['n'],1,right,['3'],4,1.317858699999988,0.2,0,AccAcc,36,22,Woman,Right,
3,5,1,0.7337502999998833,['n'],1,right,['1'],6,0.6665172000000439,0.4,0,AccAcc,36,22,Woman,Right,
4,5,1,3.90009619999978,['c'],1,left,['3'],4,1.5522708000000875,0.1,0,AccAcc,36,22,Woman,Right,
5,5,1,2.31613799999991,['n'],0,left,['9'],2,1.500887799999873,0.1,0,AccAcc,36,22,Woman,Right,
6,5,1,1.5995473000000402,['n'],1,right,['3'],4,2.550867599999947,0.1,0,AccAcc,36,22,Woman,Right,
7,5,1,3.4664421999998467,['c'],0,right,['3'],4,1.6996590999999626,0.1,0,AccAcc,36,22,Woman,Right,
8,5,1,1.7507195999999112,['n'],0,left,['3'],4,1.934136800000033,0.2,0,AccAcc,36,22,Woman,Right,
9,5,1,2.0675112000001263,['c'],1,left,['2'],5,1.0502309999999397,0.2,0,AccAcc,36,22,Woman,Right,
10,5,1,1.5834945999999945,['c'],0,right,['1'],6,1.350668799999994,0.4,0,AccAcc,36,22,Woman,Right,
11,5,1,1.1997970999998415,['c'],1,left,['1'],6,0.6679897999999866,0.1,0,AccAcc,36,22,Woman,Right,
12,5,1,1.466463400000066,['c'],1,left,['1'],6,0.6836730999998508,0.4,0,AccAcc,36,22,Woman,Right,
13,5,1,0.8663535000000593,['c'],1,left,['1'],6,0.8181220000001304,0.4,0,AccAcc,36,22,Woman,Right,
14,5,1,1.0004586000000018,['c'],1,left,['1'],6,0.9667337000000771,0.2,0,AccAcc,36,22,Woman,Right,
15,5,1,2.7332461000000876,['c'],0,right,['2'],5,1.0012296999998398,0.2,0,AccAcc,36,22,Woman,Right,
16,5,1,5.015545900000006,x,-99,right,none,-99,-99,0.2,1,AccAcc,36,22,Woman,Right,
17,5,1,1.599815099999887,['n'],1,right,['8'],3,1.884565000000066,0.1,0,AccAcc,36,22,Woman,Right,
18,5,1,1.0832805000000008,['c'],1,left,['1'],6,0.950288799999953,0.4,0,AccAcc,36,22,Woman,Right,
19,5,1,1.7995756999998775,['c'],1,left,['2'],5,1.0678256000001056,0.1,0,AccAcc,36,22,Woman,Right,
20,5,1,1.4006183999999848,['c'],1,left,['2'],5,0.8998555999999098,0.2,0,AccAcc,36,22,Woman,Right,
21,5,1,2.2680966999998873,['c'],0,right,['3'],4,1.2667801000000054,0.4,0,AccAcc,36,22,Woman,Right,
22,5,1,2.4504446999999345,['c'],0,right,['3'],4,1.3345630999999685,0.1,0,AccAcc,36,22,Woman,Right,
23,5,1,1.3663763000001836,['c'],1,left,['3'],4,0.8345556000001579,0.2,0,AccAcc,36,22,Woman,Right,
24,5,1,0.9836127999999462,['n'],1,right,['1'],6,1.3012082000000191,0.4,0,AccAcc,36,22,Woman,Right,
25,5,1,2.4656583000000865,['n'],1,right,['9'],2,2.384810199999947,0.1,0,AccAcc,36,22,Woman,Right,
26,5,1,1.4161352000000988,['c'],1,left,['1'],6,2.0007369999998446,0.1,0,AccAcc,36,22,Woman,Right,
27,5,1,1.466539100000091,['c'],1,left,['1'],6,0.5345217000001412,0.4,0,AccAcc,36,22,Woman,Right,
28,5,1,1.4165179000001444,['c'],1,left,['1'],6,0.8510244999999941,0.4,0,AccAcc,36,22,Woman,Right,
29,5,1,0.7169324999999844,['c'],1,left,['1'],6,0.7177322000000004,0.4,0,AccAcc,36,22,Woman,Right,
30,5,1,0.782672600000069,['c'],1,left,['1'],6,0.7185709999998835,0.4,0,AccAcc,36,22,Woman,Right,
31,5,1,0.7999767999999676,['c'],1,left,['1'],6,0.7672802999998112,0.4,0,AccAcc,36,22,Woman,Right,
32,5,1,1.7164646999999604,['c'],0,right,['2'],5,0.849829600000021,0.4,0,AccAcc,36,22,Woman,Right,
33,5,1,1.0518253999998706,['c'],0,right,['2'],5,0.9009677999999894,0.4,0,AccAcc,36,22,Woman,Right,
34,5,1,0.9506569999998646,['c'],1,left,['3'],4,0.867937799999936,0.1,0,AccAcc,36,22,Woman,Right,
35,5,1,1.699632400000155,['c'],0,right,['8'],3,1.367668599999888,0.1,0,AccAcc,36,22,Woman,Right,
36,5,1,1.6669939999999315,['c'],0,right,['8'],3,1.068151299999954,0.2,0,AccAcc,36,22,Woman,Right,
37,5,1,1.6332422000000406,['n'],0,left,['8'],3,0.8846387000000959,0.1,0,AccAcc,36,22,Woman,Right,
38,5,1,1.1334882999999536,['c'],1,left,['1'],6,0.7013429999999516,0.4,0,AccAcc,36,22,Woman,Right,
39,5,1,1.200428699999975,['c'],0,right,['2'],5,1.1508597000001828,0.2,0,AccAcc,36,22,Woman,Right,
40,5,1,0.8668443999999909,['c'],0,right,['2'],5,0.7838818000000174,0.2,0,AccAcc,36,22,Woman,Right,
41,5,1,1.233627899999874,['c'],0,right,['8'],3,1.8343700000000354,0.2,0,AccAcc,36,22,Woman,Right,
42,5,1,1.16607369999997,['c'],0,right,['3'],4,1.101456399999961,0.2,0,AccAcc,36,22,Woman,Right,
43,5,1,0.9494124000000284,['c'],1,left,['2'],5,0.7847820000001775,0.4,0,AccAcc,36,22,Woman,Right,
44,5,1,1.5505337000001873,['c'],0,right,['2'],5,0.9175155000000359,0.1,0,AccAcc,36,22,Woman,Right,
45,5,1,1.7500565999998798,['n'],0,left,['3'],4,1.5841089000000466,0.1,0,AccAcc,36,22,Woman,Right,
46,5,1,0.9010802999998759,['c'],1,left,['1'],6,0.43409350000001723,0.2,0,AccAcc,36,22,Woman,Right,
47,5,1,1.5501314999999067,['c'],0,right,['2'],5,0.8676485000000866,0.2,0,AccAcc,36,22,Woman,Right,
48,5,1,1.4668477000000166,['n'],0,left,['3'],4,1.4677251000000524,0.1,0,AccAcc,36,22,Woman,Right,
49,5,1,1.5999919000000773,['n'],1,right,['3'],4,1.034885099999883,0.2,0,AccAcc,36,22,Woman,Right,
50,5,1,1.432911200000035,['n'],1,right,['3'],4,0.7343903999999384,0.1,0,AccAcc,36,22,Woman,Right,
51,5,1,1.3335076999999274,['n'],0,left,['3'],4,1.00109980000002,0.2,0,AccAcc,36,22,Woman,Right,
52,5,1,1.6003756000000067,['n'],1,right,['8'],3,1.6005087999999432,0.4,0,AccAcc,36,22,Woman,Right,
53,5,1,2.716476600000078,['n'],1,right,['3'],4,1.118206900000132,0.4,0,AccAcc,36,22,Woman,Right,
54,5,1,1.433890200000178,['n'],0,left,['3'],4,1.368042800000012,0.1,0,AccAcc,36,22,Woman,Right,
55,5,1,1.4835797999999158,['n'],1,right,['3'],4,1.1180312000001322,0.1,0,AccAcc,36,22,Woman,Right,
56,5,1,1.565836900000022,['c'],1,left,['3'],4,1.167631399999891,0.2,0,AccAcc,36,22,Woman,Right,
57,5,1,1.1838017999998556,['c'],1,left,['2'],5,1.0178046999999424,0.1,0,AccAcc,36,22,Woman,Right,
58,5,1,0.8336581000000933,['c'],1,left,['1'],6,0.418186999999989,0.4,0,AccAcc,36,22,Woman,Right,
59,5,1,0.648894700000028,['c'],0,right,['1'],6,0.5174976000000697,0.4,0,AccAcc,36,22,Woman,Right,
0,6,1,1.1008549999999104,['n'],1,right,['1'],6,1.200931300000093,0.2,0,FastAcc,36,22,Woman,Right,
1,6,1,0.650456800000029,['n'],1,right,['1'],6,0.6189787000000706,0.4,0,FastAcc,36,22,Woman,Right,
2,6,1,1.1332755999999335,['n'],0,left,['8'],3,1.0004679999999553,0.1,0,FastAcc,36,22,Woman,Right,
3,6,1,1.1169223000001693,['n'],1,right,['8'],3,2.3512207999999646,0.1,0,FastAcc,36,22,Woman,Right,
4,6,1,1.1326263999999355,['n'],1,right,['2'],5,0.9521750999999767,0.4,0,FastAcc,36,22,Woman,Right,
5,6,1,1.1668597999998838,['n'],0,left,['3'],4,1.3180544000001646,0.4,0,FastAcc,36,22,Woman,Right,
6,6,1,1.0178697000001193,['n'],1,right,['3'],4,0.6844885000000431,0.1,0,FastAcc,36,22,Woman,Right,
7,6,1,0.8006228000001556,['n'],1,right,['1'],6,0.6342246000001523,0.2,0,FastAcc,36,22,Woman,Right,
8,6,1,1.8668949999998858,['n'],1,right,['2'],5,1.1340967000001,0.2,0,FastAcc,36,22,Woman,Right,
9,6,1,1.183712499999956,['n'],1,right,['2'],5,1.1667534999999134,0.2,0,FastAcc,36,22,Woman,Right,
10,6,1,1.0163990999999442,['n'],0,left,['3'],4,0.8348547000000508,0.2,0,FastAcc,36,22,Woman,Right,
11,6,1,0.8482068000000709,['n'],0,left,['3'],4,1.1344696000001022,0.1,0,FastAcc,36,22,Woman,Right,
12,6,1,3.0491299000000254,['c'],0,right,['8'],3,1.3010944000000109,0.1,0,FastAcc,36,22,Woman,Right,
13,6,1,1.3829955000001064,['n'],0,left,['8'],3,1.3672843999997895,0.1,0,FastAcc,36,22,Woman,Right,
14,6,1,1.866792999999916,['c'],1,left,['8'],3,1.6012571999999636,0.1,0,FastAcc,36,22,Woman,Right,
15,6,1,1.500717800000075,['n'],0,left,['8'],3,1.03416100000004,0.1,0,FastAcc,36,22,Woman,Right,
16,6,1,1.3336461000001236,['n'],1,right,['1'],6,1.0171656999998504,0.4,0,FastAcc,36,22,Woman,Right,
17,6,1,1.5326573999998345,['n'],1,right,['2'],5,1.4177339000000302,0.2,0,FastAcc,36,22,Woman,Right,
18,6,1,1.2842948999998498,['n'],0,left,['3'],4,1.0837922999999137,0.4,0,FastAcc,36,22,Woman,Right,
19,6,1,1.0335342999999284,['n'],1,right,['3'],4,1.7345377999999982,0.1,0,FastAcc,36,22,Woman,Right,
20,6,1,1.183662400000003,['n'],1,right,['3'],4,1.3177766000001156,0.2,0,FastAcc,36,22,Woman,Right,
21,6,1,0.8340667999998459,['n'],1,right,['1'],6,0.6340757999998914,0.4,0,FastAcc,36,22,Woman,Right,
22,6,1,1.1175932999999532,['n'],1,right,['1'],6,0.817252499999995,0.2,0,FastAcc,36,22,Woman,Right,
23,6,1,1.53361330000007,['n'],0,left,['2'],5,0.9174384999998892,0.2,0,FastAcc,36,22,Woman,Right,
24,6,1,0.6507274999999026,['n'],1,right,['1'],6,0.45066220000012436,0.4,0,FastAcc,36,22,Woman,Right,
25,6,1,1.0339328000000023,['n'],0,left,['1'],6,0.7848793000000569,0.1,0,FastAcc,36,22,Woman,Right,
26,6,1,1.2155092000000423,['n'],1,right,['3'],4,1.102157199999965,0.1,0,FastAcc,36,22,Woman,Right,
27,6,1,1.0493543000000045,['n'],0,left,['2'],5,0.46824260000016693,0.2,0,FastAcc,36,22,Woman,Right,
28,6,1,0.9833962000000156,['n'],1,right,['2'],5,0.6019059000000198,0.4,0,FastAcc,36,22,Woman,Right,
29,6,1,0.8004938000001403,['c'],1,left,['1'],6,0.7350369000000683,0.2,0,FastAcc,36,22,Woman,Right,
30,6,1,1.2166151999999784,['c'],1,left,['2'],5,1.0015741999998227,0.1,0,FastAcc,36,22,Woman,Right,
31,6,1,1.050927700000102,['c'],1,left,['1'],6,0.5005295000000842,0.2,0,FastAcc,36,22,Woman,Right,
32,6,1,0.8497644000001401,['n'],1,right,['1'],6,1.1509143000000677,0.2,0,FastAcc,36,22,Woman,Right,
33,6,1,0.7658748999999716,['c'],1,left,['1'],6,0.6012393999999404,0.4,0,FastAcc,36,22,Woman,Right,
34,6,1,0.9340237999999772,['c'],1,left,['1'],6,0.6851936000000478,0.4,0,FastAcc,36,22,Woman,Right,
35,6,1,0.8676494000001185,['c'],1,left,['1'],6,0.4514345999998568,0.4,0,FastAcc,36,22,Woman,Right,
36,6,1,1.6501697999999578,['n'],0,left,['8'],3,1.0002881000000343,0.2,0,FastAcc,36,22,Woman,Right,
37,6,1,0.8170387000000119,['n'],1,right,['2'],5,0.7344759999998587,0.2,0,FastAcc,36,22,Woman,Right,
38,6,1,1.3501673000000665,['n'],1,right,['3'],4,0.5846374000000196,0.2,0,FastAcc,36,22,Woman,Right,
39,6,1,1.3496577999999317,['c'],0,right,['8'],3,0.8175859000000401,0.1,0,FastAcc,36,22,Woman,Right,
40,6,1,0.7666689000000133,['n'],1,right,['1'],6,0.6012329000000136,0.4,0,FastAcc,36,22,Woman,Right,
41,6,1,0.8659024000000954,['n'],0,left,['1'],6,0.6342724999999518,0.4,0,FastAcc,36,22,Woman,Right,
42,6,1,0.9663411000001361,['n'],1,right,['2'],5,1.1011333999999806,0.2,0,FastAcc,36,22,Woman,Right,
43,6,1,1.0499291000000994,['n'],0,left,['1'],6,1.4006845999999769,0.2,0,FastAcc,36,22,Woman,Right,
44,6,1,1.0654896999999437,['n'],0,left,['1'],6,0.751769700000068,0.1,0,FastAcc,36,22,Woman,Right,
45,6,1,0.9670998999999938,['n'],0,left,['1'],6,0.9177517000000535,0.1,0,FastAcc,36,22,Woman,Right,
46,6,1,1.3841529000001174,['n'],0,left,['2'],5,1.0509895999998662,0.4,0,FastAcc,36,22,Woman,Right,
47,6,1,0.7662210000000869,['n'],0,left,['1'],6,1.1676469999999881,0.4,0,FastAcc,36,22,Woman,Right,
48,6,1,0.816695799999934,['n'],1,right,['1'],6,0.8012052999999923,0.4,0,FastAcc,36,22,Woman,Right,
49,6,1,0.6339978000000883,['n'],0,left,['1'],6,0.7010895000000801,0.4,0,FastAcc,36,22,Woman,Right,
50,6,1,0.7507622000000538,['n'],0,left,['1'],6,0.5670075000000452,0.4,0,FastAcc,36,22,Woman,Right,
51,6,1,0.8671414999998888,['n'],1,right,['1'],6,0.6503849000000628,0.1,0,FastAcc,36,22,Woman,Right,
52,6,1,1.0505824999997913,['n'],0,left,['1'],6,1.384235600000011,0.2,0,FastAcc,36,22,Woman,Right,
53,6,1,1.266412500000115,['n'],1,right,['1'],6,0.9179071000000931,0.4,0,FastAcc,36,22,Woman,Right,
54,6,1,2.1007691999998315,['n'],1,right,['2'],5,1.2177114999999503,0.1,0,FastAcc,36,22,Woman,Right,
55,6,1,1.3513961000001018,['n'],1,right,['2'],5,1.2011861999999383,0.1,0,FastAcc,36,22,Woman,Right,
56,6,1,2.23342300000013,['c'],1,left,['8'],3,1.0845864000000347,0.2,0,FastAcc,36,22,Woman,Right,
57,6,1,1.2834568000000672,['c'],1,left,['3'],4,1.4675010999999358,0.1,0,FastAcc,36,22,Woman,Right,
58,6,1,2.5837397000000237,['n'],1,right,['8'],3,1.0337039000000914,0.1,0,FastAcc,36,22,Woman,Right,
59,6,1,1.0668812999999773,['c'],1,left,['2'],5,0.9011422000000948,0.4,0,FastAcc,36,22,Woman,Right,
0,7,1,1.0505289000000175,['c'],1,left,['1'],6,1.0672692999999072,0.4,0,FastFast,36,22,Woman,Right,
1,7,1,1.1664580999999998,['c'],0,right,['1'],6,1.7844356000000516,0.4,0,FastFast,36,22,Woman,Right,
2,7,1,1.8502860000000965,['n'],1,right,['2'],5,0.5678618000001734,0.2,0,FastFast,36,22,Woman,Right,
3,7,1,1.3002217999999175,['c'],0,right,['3'],4,0.8848437999999987,0.2,0,FastFast,36,22,Woman,Right,
4,7,1,0.9662315999999009,['c'],1,left,['1'],6,0.4012000000000171,0.1,0,FastFast,36,22,Woman,Right,
5,7,1,0.8670016000000942,['c'],1,left,['1'],6,0.35130579999986367,0.2,0,FastFast,36,22,Woman,Right,
6,7,1,1.2157348000000638,['n'],1,right,['1'],6,0.45103979999998955,0.4,0,FastFast,36,22,Woman,Right,
7,7,1,0.9499244999999519,['n'],1,right,['2'],5,0.6012387000000672,0.1,0,FastFast,36,22,Woman,Right,
8,7,1,0.8012038000001667,['c'],1,left,['1'],6,0.35046170000009624,0.1,0,FastFast,36,22,Woman,Right,
9,7,1,0.750708799999984,['c'],1,left,['1'],6,0.33482610000010027,0.4,0,FastFast,36,22,Woman,Right,
10,7,1,0.6999931999998807,['c'],0,right,['2'],5,0.8346440000000257,0.4,0,FastFast,36,22,Woman,Right,
11,7,1,1.0998243999999886,['c'],1,left,['2'],5,0.8347722000000886,0.1,0,FastFast,36,22,Woman,Right,
12,7,1,0.882795299999998,['c'],1,left,['1'],6,0.3841417000001002,0.1,0,FastFast,36,22,Woman,Right,
13,7,1,0.716779600000109,['c'],1,left,['1'],6,0.35114339999995536,0.4,0,FastFast,36,22,Woman,Right,
14,7,1,1.1503354999999829,['c'],0,right,['2'],5,0.616501099999823,0.1,0,FastFast,36,22,Woman,Right,
15,7,1,0.7160934999999427,['c'],1,left,['2'],5,0.35121570000001157,0.1,0,FastFast,36,22,Woman,Right,
16,7,1,0.6989215000000968,['c'],1,left,['2'],5,0.9691940000000159,0.4,0,FastFast,36,22,Woman,Right,
17,7,1,3.6501831999999013,['n'],1,right,['8'],3,0.9844087999999829,0.4,0,FastFast,36,22,Woman,Right,
18,7,1,2.1843589000000065,['n'],1,right,['3'],4,1.1678573000001506,0.1,0,FastFast,36,22,Woman,Right,
19,7,1,1.450816100000111,['c'],1,left,['3'],4,0.8179274000001442,0.1,0,FastFast,36,22,Woman,Right,
20,7,1,1.9002537999999731,['n'],0,left,['3'],4,2.6680703000001813,0.2,0,FastFast,36,22,Woman,Right,
21,7,1,2.4667945000001055,['n'],1,right,['3'],4,0.6844743999999992,0.2,0,FastFast,36,22,Woman,Right,
22,7,1,1.3830365999999685,['c'],1,left,['1'],6,0.7513030000000072,0.4,0,FastFast,36,22,Woman,Right,
23,7,1,1.0335084999999253,['n'],1,right,['3'],4,0.634856099999979,0.2,0,FastFast,36,22,Woman,Right,
24,7,1,0.7824207999999544,['c'],1,left,['1'],6,0.4680647999998655,0.4,0,FastFast,36,22,Woman,Right,
25,7,1,1.232843799999955,['n'],1,right,['2'],5,0.7344041000001198,0.2,0,FastFast,36,22,Woman,Right,
26,7,1,0.8169201000000612,['c'],1,left,['1'],6,0.3177901000001384,0.4,0,FastFast,36,22,Woman,Right,
27,7,1,1.666855700000042,['n'],1,right,['2'],5,0.7511289999999917,0.2,0,FastFast,36,22,Woman,Right,
28,7,1,0.7837153999998918,['c'],1,left,['1'],6,0.333062800000107,0.2,0,FastFast,36,22,Woman,Right,
29,7,1,1.5183165000000827,['n'],1,right,['8'],3,0.751200899999958,0.2,0,FastFast,36,22,Woman,Right,
30,7,1,0.7003646000000572,['c'],0,right,['1'],6,0.3018545999998423,0.1,0,FastFast,36,22,Woman,Right,
31,7,1,0.7335584999998446,['n'],1,right,['1'],6,0.251129199999923,0.4,0,FastFast,36,22,Woman,Right,
32,7,1,0.6827213999999913,['c'],1,left,['1'],6,0.3004889999999705,0.4,0,FastFast,36,22,Woman,Right,
33,7,1,0.6007300000001123,['c'],1,left,['1'],6,0.26791919999982383,0.4,0,FastFast,36,22,Woman,Right,
34,7,1,0.7997817000000396,['c'],0,right,['1'],6,0.30121970000004694,0.2,0,FastFast,36,22,Woman,Right,
35,7,1,1.0659648000000743,['n'],1,right,['2'],5,0.7183430000000044,0.2,0,FastFast,36,22,Woman,Right,
36,7,1,1.2838515000000825,['n'],0,left,['8'],3,0.8007124999999178,0.1,0,FastFast,36,22,Woman,Right,
37,7,1,1.0829539999999724,['n'],0,left,['8'],3,0.5517084999999042,0.1,0,FastFast,36,22,Woman,Right,
38,7,1,1.2002162999999655,['n'],0,left,['3'],4,1.5498137999998107,0.1,0,FastFast,36,22,Woman,Right,
39,7,1,1.1513410999998541,['n'],1,right,['2'],5,0.734741299999996,0.2,0,FastFast,36,22,Woman,Right,
40,7,1,1.1172538999999233,['n'],0,left,['3'],4,0.5677910000001702,0.1,0,FastFast,36,22,Woman,Right,
41,7,1,0.9496117999999569,['n'],1,right,['3'],4,0.43468619999998737,0.2,0,FastFast,36,22,Woman,Right,
42,7,1,0.7507358000000295,['n'],1,right,['3'],4,0.41801460000010593,0.2,0,FastFast,36,22,Woman,Right,
43,7,1,0.8997838999998748,['n'],0,left,['3'],4,0.4679153999998107,0.4,0,FastFast,36,22,Woman,Right,
44,7,1,1.1995598000000882,['n'],0,left,['8'],3,0.7341707000000497,0.1,0,FastFast,36,22,Woman,Right,
45,7,1,2.366877899999963,['n'],1,right,['9'],2,0.9506738000000041,0.4,0,FastFast,36,22,Woman,Right,
46,7,1,1.1496289000001525,['n'],1,right,['8'],3,1.3675289000000248,0.2,0,FastFast,36,22,Woman,Right,
47,7,1,1.166915599999811,['n'],0,left,['3'],4,0.6511735999999928,0.1,0,FastFast,36,22,Woman,Right,
48,7,1,1.0820795000001908,['c'],1,left,['1'],6,0.9345478000000185,0.4,0,FastFast,36,22,Woman,Right,
49,7,1,2.0347114000001056,['n'],1,right,['3'],4,0.9672385000001213,0.1,0,FastFast,36,22,Woman,Right,
50,7,1,1.4512809999998808,['n'],0,left,['3'],4,1.084914800000206,0.4,0,FastFast,36,22,Woman,Right,
51,7,1,1.7169334000000163,['n'],1,right,['3'],4,0.7011635000001206,0.1,0,FastFast,36,22,Woman,Right,
52,7,1,0.6833009000001766,['n'],1,right,['1'],6,0.4674651000000267,0.4,0,FastFast,36,22,Woman,Right,
53,7,1,1.1509587999998985,['n'],0,left,['3'],4,0.7336801999999807,0.1,0,FastFast,36,22,Woman,Right,
54,7,1,1.000186499999927,['n'],1,right,['3'],4,0.5344383000001471,0.1,0,FastFast,36,22,Woman,Right,
55,7,1,0.9330161999998836,['n'],1,right,['8'],3,0.38433710000003884,0.2,0,FastFast,36,22,Woman,Right,
56,7,1,1.03273020000006,['n'],0,left,['3'],4,0.48454900000001544,0.4,0,FastFast,36,22,Woman,Right,
57,7,1,0.7842843000000812,['n'],1,right,['2'],5,0.8341234000001805,0.2,0,FastFast,36,22,Woman,Right,
58,7,1,3.499843499999997,['n'],0,left,['8'],3,1.6508102000000235,0.2,0,FastFast,36,22,Woman,Right,
59,7,1,1.066908999999896,['n'],1,right,['2'],5,1.0343796999998176,0.2,0,FastFast,36,22,Woman,Right,
0,8,1,2.151320299999952,['n'],1,right,['3'],4,1.1679103999999825,0.2,0,AccFast,36,22,Woman,Right,
1,8,1,1.0497883000000456,['n'],1,right,['1'],6,0.6512381999998524,0.4,0,AccFast,36,22,Woman,Right,
2,8,1,0.8164162000000488,['n'],1,right,['1'],6,0.818017399999917,0.1,0,AccFast,36,22,Woman,Right,
3,8,1,0.9835157999998501,['n'],0,left,['2'],5,0.6180223000001206,0.2,0,AccFast,36,22,Woman,Right,
4,8,1,0.6829247999999097,['n'],1,right,['1'],6,0.900083499999937,0.4,0,AccFast,36,22,Woman,Right,
5,8,1,0.9003536999998687,['n'],0,left,['3'],4,0.8836760000001505,0.1,0,AccFast,36,22,Woman,Right,
6,8,1,0.9005830999999489,['n'],1,right,['3'],4,0.6678752999998778,0.2,0,AccFast,36,22,Woman,Right,
7,8,1,1.0495522999999594,['n'],0,left,['1'],6,0.951698899999883,0.4,0,AccFast,36,22,Woman,Right,
8,8,1,0.8326418999999987,['n'],1,right,['1'],6,0.6007240000001275,0.2,0,AccFast,36,22,Woman,Right,
9,8,1,0.9826012000000901,['n'],1,right,['1'],6,0.6188101000000188,0.4,0,AccFast,36,22,Woman,Right,
10,8,1,1.2999079999999594,['n'],0,left,['1'],6,0.7180932000001121,0.4,0,AccFast,36,22,Woman,Right,
11,8,1,0.6675110000001041,['n'],0,left,['1'],6,0.41803669999990234,0.2,0,AccFast,36,22,Woman,Right,
12,8,1,0.883643199999824,['n'],0,left,['1'],6,0.56722660000014,0.2,0,AccFast,36,22,Woman,Right,
13,8,1,1.4665048000001661,['n'],0,left,['3'],4,1.5349342999998044,0.4,0,AccFast,36,22,Woman,Right,
14,8,1,0.9336742000000413,['n'],0,left,['3'],4,0.38453720000006797,0.2,0,AccFast,36,22,Woman,Right,
15,8,1,2.166729800000212,['c'],1,left,['8'],3,1.784243300000071,0.1,0,AccFast,36,22,Woman,Right,
16,8,1,0.950583700000152,['c'],1,left,['2'],5,0.9344412000000375,0.1,0,AccFast,36,22,Woman,Right,
17,8,1,1.0992091999996774,['c'],1,left,['2'],5,0.5679158000002644,0.2,0,AccFast,36,22,Woman,Right,
18,8,1,1.8500763000001825,['n'],0,left,['2'],5,2.084467599999698,0.2,0,AccFast,36,22,Woman,Right,
19,8,1,1.0332256000001507,['n'],1,right,['3'],4,0.8015333000003011,0.4,0,AccFast,36,22,Woman,Right,
20,8,1,0.9170939000000544,['c'],1,left,['1'],6,0.3846086999997169,0.4,0,AccFast,36,22,Woman,Right,
21,8,1,1.8662867000002734,['n'],1,right,['3'],4,1.0004235999999764,0.4,0,AccFast,36,22,Woman,Right,
22,8,1,1.300498499999776,['n'],1,right,['3'],4,0.6510757000000922,0.2,0,AccFast,36,22,Woman,Right,
23,8,1,0.7674698999999237,['c'],1,left,['1'],6,0.45113290000017514,0.4,0,AccFast,36,22,Woman,Right,
24,8,1,0.850177999999687,['c'],1,left,['1'],6,0.3669323999997687,0.2,0,AccFast,36,22,Woman,Right,
25,8,1,0.6502317999998013,['c'],1,left,['1'],6,0.3010626999998749,0.2,0,AccFast,36,22,Woman,Right,
26,8,1,0.7666976999998951,['c'],1,left,['1'],6,0.23418930000025284,0.4,0,AccFast,36,22,Woman,Right,
27,8,1,0.6324952999998459,['c'],1,left,['1'],6,0.2678108999998585,0.4,0,AccFast,36,22,Woman,Right,
28,8,1,0.9338253000000805,['c'],1,left,['2'],5,0.5179810999998153,0.1,0,AccFast,36,22,Woman,Right,
29,8,1,2.0990483999999014,['n'],1,right,['8'],3,0.6511304000000564,0.1,0,AccFast,36,22,Woman,Right,
30,8,1,1.083474600000045,['n'],0,left,['2'],5,1.1677580999999009,0.1,0,AccFast,36,22,Woman,Right,
31,8,1,1.1165722999999161,['n'],0,left,['2'],5,0.6516185000000405,0.1,0,AccFast,36,22,Woman,Right,
32,8,1,2.0325676000002204,['c'],1,left,['3'],4,0.8330965000000106,0.1,0,AccFast,36,22,Woman,Right,
33,8,1,1.733021000000008,['n'],1,right,['3'],4,1.0508502000002409,0.1,0,AccFast,36,22,Woman,Right,
34,8,1,1.4681902000002083,['n'],0,left,['3'],4,0.4344170999997914,0.2,0,AccFast,36,22,Woman,Right,
35,8,1,1.3662193999998635,['n'],1,right,['3'],4,0.4846898999999212,0.2,0,AccFast,36,22,Woman,Right,
36,8,1,0.9002153999999791,['c'],1,left,['1'],6,0.7011471000000711,0.2,0,AccFast,36,22,Woman,Right,
37,8,1,2.1488933999999063,['c'],0,right,['2'],5,0.7341820000001462,0.1,0,AccFast,36,22,Woman,Right,
38,8,1,1.201839199999995,['c'],0,right,['3'],4,0.5510395000001154,0.1,0,AccFast,36,22,Woman,Right,
39,8,1,1.6664335999998912,['n'],1,right,['8'],3,1.5006724999998369,0.2,0,AccFast,36,22,Woman,Right,
40,8,1,1.4165554000001066,['n'],1,right,['3'],4,1.0510541999997258,0.1,0,AccFast,36,22,Woman,Right,
41,8,1,0.8004121999997551,['n'],1,right,['3'],4,0.4512755999999172,0.1,0,AccFast,36,22,Woman,Right,
42,8,1,1.2835391000003256,['n'],1,right,['3'],4,0.9509539000000586,0.1,0,AccFast,36,22,Woman,Right,
43,8,1,1.1503257999997913,['n'],1,right,['3'],4,0.6678082999997059,0.2,0,AccFast,36,22,Woman,Right,
44,8,1,0.8335535999999593,['n'],1,right,['1'],6,0.4844140000000152,0.4,0,AccFast,36,22,Woman,Right,
45,8,1,0.9158079999997426,['n'],1,right,['1'],6,0.5847828000000845,0.1,0,AccFast,36,22,Woman,Right,
46,8,1,1.499119100000371,['n'],1,right,['2'],5,1.0180693000002066,0.2,0,AccFast,36,22,Woman,Right,
47,8,1,1.0988916999999674,['n'],1,right,['3'],4,0.5522832999999991,0.2,0,AccFast,36,22,Woman,Right,
48,8,1,1.7000113999997666,['n'],0,left,['8'],3,1.1008829000002152,0.1,0,AccFast,36,22,Woman,Right,
49,8,1,1.1673393999999462,['n'],1,right,['3'],4,0.7172325999999885,0.4,0,AccFast,36,22,Woman,Right,
50,8,1,1.1168955999996797,['n'],1,right,['3'],4,0.634437700000035,0.1,0,AccFast,36,22,Woman,Right,
51,8,1,0.9005770999997367,['c'],1,left,['1'],6,0.6512840999998843,0.4,0,AccFast,36,22,Woman,Right,
52,8,1,0.8173638999996911,['c'],1,left,['1'],6,0.8343072999996366,0.4,0,AccFast,36,22,Woman,Right,
53,8,1,0.7662885999998252,['n'],1,right,['1'],6,0.4836301000000276,0.4,0,AccFast,36,22,Woman,Right,
54,8,1,1.0170309000000088,['n'],1,right,['2'],5,0.6175481000000218,0.4,0,AccFast,36,22,Woman,Right,
55,8,1,1.2167665000001762,['n'],0,left,['3'],4,0.650544600000103,0.1,0,AccFast,36,22,Woman,Right,
56,8,1,1.116762799999833,['n'],1,right,['3'],4,0.6846937999998772,0.1,0,AccFast,36,22,Woman,Right,
57,8,1,1.334196300000258,['n'],0,left,['8'],3,0.6011949000003369,0.4,0,AccFast,36,22,Woman,Right,
58,8,1,0.9836860999998862,['n'],1,right,['3'],4,0.5841785000002346,0.2,0,AccFast,36,22,Woman,Right,
59,8,1,1.0010642000002008,['n'],0,left,['3'],4,0.634494999999788,0.4,0,AccFast,36,22,Woman,Right,
0,9,1,0.9837516000002324,['n'],1,right,['2'],5,1.2348259999998845,0.2,0,AccAcc,36,22,Woman,Right,
1,9,1,0.8171935999998823,['n'],1,right,['2'],5,0.5345613999998022,0.2,0,AccAcc,36,22,Woman,Right,
2,9,1,1.2839880999999878,['c'],1,left,['3'],4,0.934370299999955,0.1,0,AccAcc,36,22,Woman,Right,
3,9,1,0.7999985000001288,['n'],1,right,['3'],4,0.8670694999996158,0.4,0,AccAcc,36,22,Woman,Right,
4,9,1,1.1170905999997558,['n'],1,right,['3'],4,1.1017139999999017,0.1,0,AccAcc,36,22,Woman,Right,
5,9,1,1.7173751999998785,['n'],0,left,['3'],4,1.1510746000003564,0.1,0,AccAcc,36,22,Woman,Right,
6,9,1,1.3835297999999057,['c'],1,left,['2'],5,0.817841000000044,0.4,0,AccAcc,36,22,Woman,Right,
7,9,1,0.800238199999967,['c'],1,left,['1'],6,0.38494900000023335,0.4,0,AccAcc,36,22,Woman,Right,
8,9,1,2.4171605000001364,['n'],1,right,['2'],5,1.3511233000003813,0.2,0,AccAcc,36,22,Woman,Right,
9,9,1,0.8333731999996417,['n'],1,right,['1'],6,1.1678547999999864,0.4,0,AccAcc,36,22,Woman,Right,
10,9,1,0.6831524999997782,['n'],1,right,['1'],6,0.534458000000086,0.4,0,AccAcc,36,22,Woman,Right,
11,9,1,2.8495544000002155,['c'],0,right,['3'],4,1.6006729999999152,0.4,0,AccAcc,36,22,Woman,Right,
12,9,1,1.4839796000001115,['n'],1,right,['3'],4,0.867815999999948,0.1,0,AccAcc,36,22,Woman,Right,
13,9,1,1.133372999999665,['n'],1,right,['3'],4,0.5344572999997581,0.4,0,AccAcc,36,22,Woman,Right,
14,9,1,1.1833853000002819,['n'],1,right,['3'],4,0.6678148000000874,0.1,0,AccAcc,36,22,Woman,Right,
15,9,1,1.2006881000002068,['n'],0,left,['3'],4,0.5354487999998128,0.1,0,AccAcc,36,22,Woman,Right,
16,9,1,0.9337335000000166,['n'],0,left,['3'],4,0.33454100000017206,0.2,0,AccAcc,36,22,Woman,Right,
17,9,1,1.915458199999648,['c'],1,left,['2'],5,0.918163000000277,0.2,0,AccAcc,36,22,Woman,Right,
18,9,1,1.9837141999996675,['n'],1,right,['3'],4,1.4344756999998935,0.1,0,AccAcc,36,22,Woman,Right,
19,9,1,0.9499688000000788,['n'],1,right,['1'],6,0.5678272999998626,0.4,0,AccAcc,36,22,Woman,Right,
20,9,1,1.816839600000094,['n'],1,right,['3'],4,1.3673860999997487,0.2,0,AccAcc,36,22,Woman,Right,
21,9,1,0.9337762999998631,['c'],1,left,['1'],6,0.4011998000000858,0.4,0,AccAcc,36,22,Woman,Right,
22,9,1,0.9665877000002183,['c'],0,right,['2'],5,0.7340446999996857,0.1,0,AccAcc,36,22,Woman,Right,
23,9,1,2.216746999999941,['c'],0,right,['2'],5,0.7509807999999794,0.2,0,AccAcc,36,22,Woman,Right,
24,9,1,0.8335916999999426,['c'],1,left,['1'],6,0.7010062999997899,0.4,0,AccAcc,36,22,Woman,Right,
25,9,1,0.9161248000000342,['c'],1,left,['1'],6,0.4513195999998061,0.1,0,AccAcc,36,22,Woman,Right,
26,9,1,0.8008082999999715,['c'],0,right,['1'],6,0.40115289999994275,0.2,0,AccAcc,36,22,Woman,Right,
27,9,1,0.6330402999997204,['c'],1,left,['1'],6,0.36773779999975886,0.1,0,AccAcc,36,22,Woman,Right,
28,9,1,0.9663636999998744,['c'],1,left,['1'],6,0.9182785000002696,0.2,0,AccAcc,36,22,Woman,Right,
29,9,1,1.0178633000000445,['c'],0,right,['2'],5,0.6180991999999605,0.2,0,AccAcc,36,22,Woman,Right,
30,9,1,1.000260100000105,['c'],1,left,['3'],4,0.7678471999997782,0.1,0,AccAcc,36,22,Woman,Right,
31,9,1,1.850555500000155,['n'],1,right,['3'],4,1.1337036999998418,0.4,0,AccAcc,36,22,Woman,Right,
32,9,1,1.217481399999997,['c'],1,left,['3'],4,0.7510873999999603,0.1,0,AccAcc,36,22,Woman,Right,
33,9,1,1.0003548999998202,['c'],0,right,['3'],4,0.5680167999998957,0.2,0,AccAcc,36,22,Woman,Right,
34,9,1,1.7168322000002263,['n'],0,left,['3'],4,1.3344842999999855,0.4,0,AccAcc,36,22,Woman,Right,
35,9,1,1.1999707999998463,['n'],0,left,['3'],4,0.7182852999999341,0.2,0,AccAcc,36,22,Woman,Right,
36,9,1,1.016843599999902,['n'],1,right,['3'],4,0.46818990000019767,0.2,0,AccAcc,36,22,Woman,Right,
37,9,1,1.6816562999997586,['c'],1,left,['2'],5,0.9022683999996843,0.4,0,AccAcc,36,22,Woman,Right,
38,9,1,1.067192900000009,['c'],1,left,['1'],6,0.7840275999997175,0.4,0,AccAcc,36,22,Woman,Right,
39,9,1,3.1326396999997996,['n'],1,right,['8'],3,1.584615599999779,0.1,0,AccAcc,36,22,Woman,Right,
40,9,1,1.4010057999998935,['n'],0,left,['3'],4,1.1843851999997241,0.2,0,AccAcc,36,22,Woman,Right,
41,9,1,0.8333318999998482,['n'],0,left,['3'],4,0.46832460000041465,0.4,0,AccAcc,36,22,Woman,Right,
42,9,1,1.0831506999998055,['n'],1,right,['2'],5,1.069174700000076,0.4,0,AccAcc,36,22,Woman,Right,
43,9,1,1.349406700000145,['n'],0,left,['1'],6,0.6013926000000538,0.2,0,AccAcc,36,22,Woman,Right,
44,9,1,0.7167216000002554,['n'],1,right,['1'],6,0.3180430000002161,0.4,0,AccAcc,36,22,Woman,Right,
45,9,1,1.3166621000000305,['n'],1,right,['1'],6,0.63397840000016,0.2,0,AccAcc,36,22,Woman,Right,
46,9,1,0.882754599999771,['n'],1,right,['1'],6,0.28556860000026063,0.2,0,AccAcc,36,22,Woman,Right,
47,9,1,1.0343299999999545,['n'],0,left,['2'],5,0.5843038999996679,0.1,0,AccAcc,36,22,Woman,Right,
48,9,1,1.9828216000000793,['c'],1,left,['2'],5,1.034328899999764,0.4,0,AccAcc,36,22,Woman,Right,
49,9,1,2.11689350000006,['n'],0,left,['2'],5,0.7673147000000426,0.2,0,AccAcc,36,22,Woman,Right,
50,9,1,1.0842762999996012,['c'],1,left,['1'],6,0.6177196000003278,0.4,0,AccAcc,36,22,Woman,Right,
51,9,1,2.3657690000000002,['c'],1,left,['2'],5,1.5186442000003808,0.1,0,AccAcc,36,22,Woman,Right,
52,9,1,0.8996231999999509,['n'],1,right,['2'],5,0.5012894999999844,0.1,0,AccAcc,36,22,Woman,Right,
53,9,1,1.6816358999999466,['n'],1,right,['8'],3,0.7849256999998033,0.1,0,AccAcc,36,22,Woman,Right,
54,9,1,1.1167310000000725,['n'],1,right,['3'],4,0.5843301999998403,0.1,0,AccAcc,36,22,Woman,Right,
55,9,1,1.5671243000001596,['n'],0,left,['2'],5,0.6679751000001488,0.2,0,AccAcc,36,22,Woman,Right,
56,9,1,1.199629300000197,['c'],1,left,['1'],6,0.3180216999999175,0.4,0,AccAcc,36,22,Woman,Right,
57,9,1,0.8837672999998176,['c'],1,left,['1'],6,0.2837261999998191,0.2,0,AccAcc,36,22,Woman,Right,
58,9,1,1.650177900000017,['c'],0,right,['2'],5,0.5511618000000453,0.1,0,AccAcc,36,22,Woman,Right,
59,9,1,1.0338202000002639,['c'],1,left,['2'],5,0.5341774999997142,0.1,0,AccAcc,36,22,Woman,Right,
0,10,1,4.917292599999655,['n'],0,left,['3'],4,1.3844113000000107,0.2,0,FastAcc,36,22,Woman,Right,
1,10,1,1.2492938999998842,['n'],1,right,['3'],4,0.885376400000041,0.1,0,FastAcc,36,22,Woman,Right,
2,10,1,1.999746199999663,['n'],0,left,['3'],4,0.9842978000001494,0.1,0,FastAcc,36,22,Woman,Right,
3,10,1,0.8168374000001677,['n'],0,left,['3'],4,0.7846287000002121,0.4,0,FastAcc,36,22,Woman,Right,
4,10,1,1.3322863000003053,['n'],0,left,['3'],4,0.7511475999999675,0.2,0,FastAcc,36,22,Woman,Right,
5,10,1,1.6671288000002278,['n'],1,right,['3'],4,0.4511956999999711,0.2,0,FastAcc,36,22,Woman,Right,
6,10,1,0.950615199999902,['n'],1,right,['1'],6,0.48465740000028745,0.4,0,FastAcc,36,22,Woman,Right,
7,10,1,2.31646899999987,['n'],0,left,['2'],5,0.46678109999993467,0.4,0,FastAcc,36,22,Woman,Right,
8,10,1,0.9009393000001182,['n'],0,left,['1'],6,0.5844194000001153,0.4,0,FastAcc,36,22,Woman,Right,
9,10,1,1.6661588000001757,['c'],0,right,['3'],4,1.3681046000001515,0.1,0,FastAcc,36,22,Woman,Right,
10,10,1,0.9006805999997596,['c'],1,left,['1'],6,0.3177114000000074,0.2,0,FastAcc,36,22,Woman,Right,
11,10,1,1.5834145999997418,['c'],0,right,['2'],5,0.7174153999999362,0.2,0,FastAcc,36,22,Woman,Right,
12,10,1,1.283576599999833,['n'],0,left,['3'],4,1.017915500000072,0.2,0,FastAcc,36,22,Woman,Right,
13,10,1,0.9169993000000431,['c'],1,left,['1'],6,0.3847131000002264,0.2,0,FastAcc,36,22,Woman,Right,
14,10,1,0.8503584000000046,['c'],1,left,['1'],6,0.2514659000003121,0.2,0,FastAcc,36,22,Woman,Right,
15,10,1,2.0158744000000297,['n'],1,right,['1'],6,1.5855368000002272,0.4,0,FastAcc,36,22,Woman,Right,
16,10,1,1.0002982999999404,['c'],1,left,['1'],6,0.2844199999999546,0.4,0,FastAcc,36,22,Woman,Right,
17,10,1,1.2165373000002546,['n'],0,left,['3'],4,0.9180145000000266,0.1,0,FastAcc,36,22,Woman,Right,
18,10,1,1.1509946999999556,['c'],0,right,['8'],3,1.184276299999965,0.1,0,FastAcc,36,22,Woman,Right,
19,10,1,1.1840495999999803,['n'],1,right,['3'],4,0.8348174000002473,0.1,0,FastAcc,36,22,Woman,Right,
20,10,1,1.1506312999999864,['n'],0,left,['3'],4,0.8006928999998308,0.2,0,FastAcc,36,22,Woman,Right,
21,10,1,1.0339521000000786,['n'],0,left,['3'],4,0.583572500000173,0.1,0,FastAcc,36,22,Woman,Right,
22,10,1,1.1667807999997422,['n'],1,right,['3'],4,0.6011750000002394,0.2,0,FastAcc,36,22,Woman,Right,
23,10,1,0.7677027999998245,['n'],0,left,['1'],6,0.5833259999999427,0.1,0,FastAcc,36,22,Woman,Right,
24,10,1,1.0835736999997607,['n'],1,right,['1'],6,0.3013055000001259,0.4,0,FastAcc,36,22,Woman,Right,
25,10,1,0.750445099999979,['n'],1,right,['1'],6,0.18424270000014076,0.2,0,FastAcc,36,22,Woman,Right,
26,10,1,1.2652798999997685,['n'],1,right,['2'],5,0.3340853999998217,0.2,0,FastAcc,36,22,Woman,Right,
27,10,1,0.8011145999998917,['n'],1,right,['1'],6,0.20059170000013182,0.4,0,FastAcc,36,22,Woman,Right,
28,10,1,1.083441799999946,['c'],1,left,['1'],6,0.1510017999999036,0.4,0,FastAcc,36,22,Woman,Right,
29,10,1,1.2153263999998671,['n'],0,left,['1'],6,0.8182309999997415,0.4,0,FastAcc,36,22,Woman,Right,
30,10,1,1.4501468000003115,['n'],0,left,['2'],5,0.16751530000010462,0.4,0,FastAcc,36,22,Woman,Right,
31,10,1,0.917405200000303,['n'],0,left,['1'],6,0.11789679999992586,0.2,0,FastAcc,36,22,Woman,Right,
32,10,1,0.849857400000019,['n'],0,left,['1'],6,0.10077259999980015,0.2,0,FastAcc,36,22,Woman,Right,
33,10,1,0.7336606999997457,['n'],1,right,['1'],6,0.10124020000012024,0.2,0,FastAcc,36,22,Woman,Right,
34,10,1,0.7666395999999622,['n'],1,right,['1'],6,0.13403299999981755,0.1,0,FastAcc,36,22,Woman,Right,
35,10,1,0.8503725000000486,['n'],0,left,['1'],6,0.15117099999997663,0.1,0,FastAcc,36,22,Woman,Right,
36,10,1,1.0834313999998813,['n'],1,right,['1'],6,0.13397019999956683,0.1,0,FastAcc,36,22,Woman,Right,
37,10,1,0.8664923999999701,['n'],1,right,['1'],6,0.18477109999957975,0.2,0,FastAcc,36,22,Woman,Right,
38,10,1,0.8665930000001936,['n'],1,right,['1'],6,0.1348259000001235,0.4,0,FastAcc,36,22,Woman,Right,
39,10,1,3.6660440000000563,['n'],0,left,['2'],5,0.7839199000000008,0.2,0,FastAcc,36,22,Woman,Right,
40,10,1,1.4000750000000153,['c'],0,right,['3'],4,1.3177746999999727,0.2,0,FastAcc,36,22,Woman,Right,
41,10,1,0.8670308999999179,['c'],1,left,['1'],6,0.3837250999999924,0.4,0,FastAcc,36,22,Woman,Right,
42,10,1,0.8674800999997387,['n'],1,right,['1'],6,0.30095110000002023,0.4,0,FastAcc,36,22,Woman,Right,
43,10,1,1.2659638000000086,['c'],1,left,['3'],4,0.9506326000000627,0.1,0,FastAcc,36,22,Woman,Right,
44,10,1,1.1672753000002558,['n'],1,right,['3'],4,0.5003151000000798,0.1,0,FastAcc,36,22,Woman,Right,
45,10,1,1.233831800000189,['n'],1,right,['3'],4,0.633405699999912,0.1,0,FastAcc,36,22,Woman,Right,
46,10,1,1.1848895999996785,['c'],1,left,['1'],6,0.4514862999999423,0.4,0,FastAcc,36,22,Woman,Right,
47,10,1,1.1670638999999028,['n'],1,right,['2'],5,0.63396449999982,0.1,0,FastAcc,36,22,Woman,Right,
48,10,1,0.8338988000000427,['n'],1,right,['2'],5,0.3006327999996756,0.4,0,FastAcc,36,22,Woman,Right,
49,10,1,1.1676298000002134,['n'],0,left,['3'],4,0.23468099999990955,0.2,0,FastAcc,36,22,Woman,Right,
50,10,1,1.2841658000002099,['n'],1,right,['1'],6,0.6509022000000186,0.4,0,FastAcc,36,22,Woman,Right,
51,10,1,1.166492500000004,['n'],0,left,['0'],1,1.2343431999997847,0.1,0,FastAcc,36,22,Woman,Right,
52,10,1,1.817519899999752,['n'],0,left,['3'],4,0.5004635000000235,0.1,0,FastAcc,36,22,Woman,Right,
53,10,1,0.9006752000000233,['n'],1,right,['2'],5,0.9840475000000879,0.1,0,FastAcc,36,22,Woman,Right,
54,10,1,1.2666713000003256,['n'],0,left,['3'],4,1.849641999999676,0.1,0,FastAcc,36,22,Woman,Right,
55,10,1,0.7009017999998832,['n'],1,right,['2'],5,0.6342660000000251,0.4,0,FastAcc,36,22,Woman,Right,
56,10,1,1.0334748999998737,['n'],1,right,['2'],5,0.5669659000000138,0.2,0,FastAcc,36,22,Woman,Right,
57,10,1,1.084421100000327,['c'],1,left,['1'],6,0.31783720000021276,0.1,0,FastAcc,36,22,Woman,Right,
58,10,1,1.1666605999998865,['c'],0,right,['1'],6,0.33447079999996276,0.4,0,FastAcc,36,22,Woman,Right,
59,10,1,2.266133799999807,['c'],0,right,['3'],4,1.234609300000102,0.4,0,FastAcc,36,22,Woman,Right,
0,11,1,1.1332213000000593,['n'],0,left,['3'],4,1.267723500000102,0.1,0,FastFast,36,22,Woman,Right,
1,11,1,1.0333253000003424,['n'],0,left,['3'],4,0.46812759999966147,0.2,0,FastFast,36,22,Woman,Right,
2,11,1,0.8000895999998647,['n'],0,left,['1'],6,0.3845392999996875,0.1,0,FastFast,36,22,Woman,Right,
3,11,1,0.6505419999998594,['n'],0,left,['1'],6,0.2851479000000836,0.1,0,FastFast,36,22,Woman,Right,
4,11,1,0.6169784999997319,['n'],1,right,['1'],6,0.16744779999999082,0.2,0,FastFast,36,22,Woman,Right,
5,11,1,0.6504246999998031,['n'],1,right,['1'],6,0.11798110000017914,0.2,0,FastFast,36,22,Woman,Right,
6,11,1,0.8337091999997028,['n'],1,right,['1'],6,0.1347606999997879,0.1,0,FastFast,36,22,Woman,Right,
7,11,1,0.6835213999997904,['n'],0,left,['1'],6,0.1344186000001173,0.1,0,FastFast,36,22,Woman,Right,
8,11,1,2.3838785000002645,['n'],0,left,['8'],3,0.9507087000001775,0.4,0,FastFast,36,22,Woman,Right,
9,11,1,0.7174153000000842,['n'],1,right,['1'],6,0.3511897999997018,0.4,0,FastFast,36,22,Woman,Right,
10,11,1,0.7484051000001273,['n'],1,right,['1'],6,0.1342276000000311,0.4,0,FastFast,36,22,Woman,Right,
11,11,1,0.9672108999998272,['n'],0,left,['3'],4,0.8187511000000995,0.1,0,FastFast,36,22,Woman,Right,
12,11,1,0.983900100000028,['n'],1,right,['3'],4,1.5346037999997861,0.1,0,FastFast,36,22,Woman,Right,
13,11,1,1.516412599999967,['c'],1,left,['3'],4,1.001123600000028,0.2,0,FastFast,36,22,Woman,Right,
14,11,1,0.8497701000001143,['c'],1,left,['3'],4,0.6341134999997848,0.1,0,FastFast,36,22,Woman,Right,
15,11,1,1.2993320999999014,['c'],0,right,['3'],4,0.40130580000004556,0.4,0,FastFast,36,22,Woman,Right,
16,11,1,0.9328878999999688,['c'],1,left,['1'],6,0.35123380000004545,0.4,0,FastFast,36,22,Woman,Right,
17,11,1,0.6336781999998493,['c'],1,left,['1'],6,0.15100639999991472,0.2,0,FastFast,36,22,Woman,Right,
18,11,1,0.7170068999998875,['c'],1,left,['1'],6,0.1183576000003086,0.4,0,FastFast,36,22,Woman,Right,
19,11,1,1.4666536999998243,['c'],0,right,['2'],5,0.30083280000008017,0.2,0,FastFast,36,22,Woman,Right,
20,11,1,0.8673300000000381,['c'],0,right,['2'],5,0.5181650999998055,0.1,0,FastFast,36,22,Woman,Right,
21,11,1,0.8334841000000779,['c'],0,right,['3'],4,0.35074489999988145,0.2,0,FastFast,36,22,Woman,Right,
22,11,1,0.8674614999999903,['c'],1,left,['1'],6,0.16750610000008237,0.1,0,FastFast,36,22,Woman,Right,
23,11,1,0.6174711000003299,['c'],1,left,['1'],6,0.15120369999976901,0.1,0,FastFast,36,22,Woman,Right,
24,11,1,0.5334483999999975,['c'],0,right,['1'],6,0.13501099999984945,0.2,0,FastFast,36,22,Woman,Right,
25,11,1,0.6494713000001866,['c'],0,right,['1'],6,0.13456269999960568,0.4,0,FastFast,36,22,Woman,Right,
26,11,1,0.6668839999997545,['c'],1,left,['3'],4,0.6681217999998807,0.2,0,FastFast,36,22,Woman,Right,
27,11,1,0.749532100000124,['c'],0,right,['1'],6,0.0678330000000642,0.1,0,FastFast,36,22,Woman,Right,
28,11,1,1.0841944999997395,['c'],0,right,['2'],5,0.10133390000009967,0.4,0,FastFast,36,22,Woman,Right,
29,11,1,0.765982900000381,['c'],1,left,['1'],6,0.11776569999983622,0.4,0,FastFast,36,22,Woman,Right,
30,11,1,1.0496838000003663,['c'],0,right,['2'],5,0.7010577000000922,0.2,0,FastFast,36,22,Woman,Right,
31,11,1,0.716927499999656,['c'],1,left,['1'],6,0.1341536999998425,0.4,0,FastFast,36,22,Woman,Right,
32,11,1,0.8841627000001608,['c'],0,right,['1'],6,0.13473579999981666,0.2,0,FastFast,36,22,Woman,Right,
33,11,1,3.0324283999998443,['n'],1,right,['3'],4,1.2352654000001166,0.1,0,FastFast,36,22,Woman,Right,
34,11,1,1.1851223999997273,['n'],0,left,['3'],4,1.0346786999998585,0.2,0,FastFast,36,22,Woman,Right,
35,11,1,1.0503251000000091,['n'],1,right,['1'],6,0.6179953000000751,0.4,0,FastFast,36,22,Woman,Right,
36,11,1,0.9999502000000575,['c'],1,left,['1'],6,0.4846957999998267,0.2,0,FastFast,36,22,Woman,Right,
37,11,1,1.3171676000001753,['c'],1,left,['2'],5,0.7670616000000336,0.1,0,FastFast,36,22,Woman,Right,
38,11,1,0.6171065999997154,['c'],1,left,['1'],6,0.351553800000147,0.4,0,FastFast,36,22,Woman,Right,
39,11,1,0.8509428000002117,['c'],0,right,['2'],5,0.8512602000000697,0.4,0,FastFast,36,22,Woman,Right,
40,11,1,0.5996325000000979,['c'],1,left,['1'],6,0.21814139999969484,0.4,0,FastFast,36,22,Woman,Right,
41,11,1,1.0337061000000176,['c'],0,right,['2'],5,0.6511716999998498,0.4,0,FastFast,36,22,Woman,Right,
42,11,1,0.9840526000002683,['c'],0,right,['3'],4,0.38451050000003306,0.1,0,FastFast,36,22,Woman,Right,
43,11,1,0.8336692999996558,['c'],1,left,['3'],4,0.3175496999997449,0.1,0,FastFast,36,22,Woman,Right,
44,11,1,1.1338527000002614,['c'],0,right,['3'],4,0.20123469999998633,0.4,0,FastFast,36,22,Woman,Right,
45,11,1,0.7338669000000664,['c'],1,left,['1'],6,0.16815360000009605,0.4,0,FastFast,36,22,Woman,Right,
46,11,1,0.6673295000000508,['c'],1,left,['1'],6,0.1341219999999339,0.2,0,FastFast,36,22,Woman,Right,
47,11,1,1.2169779999999264,['c'],1,left,['1'],6,0.13461529999995037,0.2,0,FastFast,36,22,Woman,Right,
48,11,1,0.9502319999996871,['c'],1,left,['2'],5,0.3511757999999645,0.2,0,FastFast,36,22,Woman,Right,
49,11,1,1.2840691000001243,['c'],0,right,['3'],4,1.2013106999997945,0.1,0,FastFast,36,22,Woman,Right,
50,11,1,2.7498639999998886,['n'],1,right,['3'],4,0.984353800000008,0.4,0,FastFast,36,22,Woman,Right,
51,11,1,1.1672239999998055,['n'],1,right,['3'],4,0.41640519999964454,0.2,0,FastFast,36,22,Woman,Right,
52,11,1,1.2332617000001846,['n'],0,left,['3'],4,0.21793710000019928,0.1,0,FastFast,36,22,Woman,Right,
53,11,1,1.2667688000001363,['n'],1,right,['3'],4,0.25078419999999824,0.2,0,FastFast,36,22,Woman,Right,
54,11,1,0.9664311999999882,['n'],1,right,['3'],4,0.35164149999991423,0.4,0,FastFast,36,22,Woman,Right,
55,11,1,1.0336812000000464,['n'],0,left,['3'],4,0.0677851999998893,0.2,0,FastFast,36,22,Woman,Right,
56,11,1,0.8996778000000631,['n'],1,right,['3'],4,0.35082509999983813,0.4,0,FastFast,36,22,Woman,Right,
57,11,1,0.9337583999999879,['n'],1,right,['3'],4,0.3174712999998519,0.1,0,FastFast,36,22,Woman,Right,
58,11,1,1.6838976999997612,['c'],1,left,['3'],4,0.6512268000001313,0.2,0,FastFast,36,22,Woman,Right,
59,11,1,1.1503466000003755,['c'],0,right,['3'],4,0.20139329999983602,0.1,0,FastFast,36,22,Woman,Right,
0,12,1,1.150540500000261,['n'],1,right,['3'],4,0.6341955000002599,0.1,0,AccFast,36,22,Woman,Right,
1,12,1,1.499967100000049,['n'],1,right,['3'],4,1.9004421999998158,0.1,0,AccFast,36,22,Woman,Right,
2,12,1,1.0002145999997083,['n'],0,left,['3'],4,0.3009503000002951,0.1,0,AccFast,36,22,Woman,Right,
3,12,1,0.9492823000000499,['n'],1,right,['2'],5,0.41819310000028054,0.2,0,AccFast,36,22,Woman,Right,
4,12,1,2.383633700000246,['c'],1,left,['2'],5,0.8509522000003926,0.2,0,AccFast,36,22,Woman,Right,
5,12,1,0.716493200000059,['c'],1,left,['2'],5,0.26710489999959464,0.1,0,AccFast,36,22,Woman,Right,
6,12,1,1.4001876000002085,['n'],0,left,['3'],4,0.5510660999998436,0.1,0,AccFast,36,22,Woman,Right,
7,12,1,1.7346350999996503,['n'],1,right,['3'],4,0.6013996000001498,0.1,0,AccFast,36,22,Woman,Right,
8,12,1,0.7331927999998697,['n'],1,right,['3'],4,0.5847254999998768,0.4,0,AccFast,36,22,Woman,Right,
9,12,1,1.5501500999998825,['n'],1,right,['3'],4,0.46770580000020345,0.1,0,AccFast,36,22,Woman,Right,
10,12,1,1.1322954000002028,['n'],1,right,['2'],5,0.5179268000001684,0.1,0,AccFast,36,22,Woman,Right,
11,12,1,1.0330587999997078,['c'],1,left,['3'],4,0.6683262000001378,0.1,0,AccFast,36,22,Woman,Right,
12,12,1,0.700140200000078,['c'],1,left,['1'],6,0.5510056000002805,0.4,0,AccFast,36,22,Woman,Right,
13,12,1,1.2501529000001028,['c'],0,right,['2'],5,0.6677448999998887,0.2,0,AccFast,36,22,Woman,Right,
14,12,1,0.6503920999998627,['c'],1,left,['1'],6,0.5845410000001721,0.1,0,AccFast,36,22,Woman,Right,
15,12,1,1.133421300000009,['n'],1,right,['3'],4,0.5010096000000885,0.4,0,AccFast,36,22,Woman,Right,
16,12,1,0.7836780000002364,['n'],1,right,['3'],4,0.4512131000001318,0.4,0,AccFast,36,22,Woman,Right,
17,12,1,0.8495758000003661,['n'],1,right,['1'],6,0.28503550000004907,0.2,0,AccFast,36,22,Woman,Right,
18,12,1,1.0825383000001239,['n'],0,left,['2'],5,0.46816519999993034,0.1,0,AccFast,36,22,Woman,Right,
19,12,1,0.7995968000000175,['n'],1,right,['3'],4,0.334684400000242,0.2,0,AccFast,36,22,Woman,Right,
20,12,1,3.1500513999999384,['c'],1,left,['1'],6,0.5844606000000567,0.4,0,AccFast,36,22,Woman,Right,
21,12,1,1.6335477000002356,['n'],0,left,['3'],4,0.3511321000000862,0.2,0,AccFast,36,22,Woman,Right,
22,12,1,0.9661025000000336,['c'],1,left,['1'],6,0.3847925000000032,0.4,0,AccFast,36,22,Woman,Right,
23,12,1,1.0003375000001142,['c'],1,left,['1'],6,0.35071179999977176,0.4,0,AccFast,36,22,Woman,Right,
24,12,1,1.0335046000000148,['n'],1,right,['2'],5,0.6842978999998195,0.4,0,AccFast,36,22,Woman,Right,
25,12,1,1.1498987999998462,['n'],0,left,['2'],5,0.2511616000001595,0.2,0,AccFast,36,22,Woman,Right,
26,12,1,1.133730900000046,['n'],1,right,['2'],5,0.23402600000008533,0.2,0,AccFast,36,22,Woman,Right,
27,12,1,0.7823748999999225,['n'],1,right,['3'],4,0.11840350000011313,0.1,0,AccFast,36,22,Woman,Right,
28,12,1,0.7494424999999865,['n'],0,left,['3'],4,0.1507421000001159,0.2,0,AccFast,36,22,Woman,Right,
29,12,1,0.6667363999999907,['n'],1,right,['3'],4,0.083476299999802,0.4,0,AccFast,36,22,Woman,Right,
30,12,1,1.0178647000002456,['n'],1,right,['3'],4,0.167469600000004,0.2,0,AccFast,36,22,Woman,Right,
31,12,1,1.8006181999999171,['n'],0,left,['3'],4,0.351199099999576,0.2,0,AccFast,36,22,Woman,Right,
32,12,1,1.6666581999998016,['n'],0,left,['3'],4,0.10111520000009477,0.1,0,AccFast,36,22,Woman,Right,
33,12,1,1.1835688999999547,['n'],1,right,['3'],4,0.1344733000000815,0.2,0,AccFast,36,22,Woman,Right,
34,12,1,1.4000351999998202,['n'],0,left,['3'],4,1.367511100000229,0.2,0,AccFast,36,22,Woman,Right,
35,12,1,1.0994056999998065,['n'],1,right,['3'],4,0.1673940999999104,0.2,0,AccFast,36,22,Woman,Right,
36,12,1,1.400684199999887,['n'],1,right,['2'],5,0.36789989999988393,0.4,0,AccFast,36,22,Woman,Right,
37,12,1,1.033584300000257,['n'],0,left,['1'],6,0.5344961000000694,0.2,0,AccFast,36,22,Woman,Right,
38,12,1,1.0995272000000114,['n'],0,left,['2'],5,0.11773570000013933,0.2,0,AccFast,36,22,Woman,Right,
39,12,1,1.9501531999999315,['c'],1,left,['8'],3,0.8677778000001126,0.4,0,AccFast,36,22,Woman,Right,
40,12,1,0.816947600000276,['c'],0,right,['3'],4,0.5012993000000279,0.1,0,AccFast,36,22,Woman,Right,
41,12,1,0.7008521000002474,['c'],1,left,['3'],4,0.38415600000007544,0.2,0,AccFast,36,22,Woman,Right,
42,12,1,0.6491622999997162,['c'],1,left,['2'],5,0.4173569999998108,0.1,0,AccFast,36,22,Woman,Right,
43,12,1,1.0182596999998168,['n'],1,right,['3'],4,0.8170663999999306,0.4,0,AccFast,36,22,Woman,Right,
44,12,1,1.333322799999678,['n'],1,right,['3'],4,0.43474509999987276,0.1,0,AccFast,36,22,Woman,Right,
45,12,1,0.8339485000001332,['n'],1,right,['2'],5,0.7507832000001144,0.4,0,AccFast,36,22,Woman,Right,
46,12,1,1.7168925999999374,['c'],1,left,['1'],6,0.48455490000014834,0.4,0,AccFast,36,22,Woman,Right,
47,12,1,1.0007270000000972,['c'],1,left,['1'],6,0.31777009999996153,0.1,0,AccFast,36,22,Woman,Right,
48,12,1,0.7503311999998914,['c'],1,left,['1'],6,0.1673686999997699,0.1,0,AccFast,36,22,Woman,Right,
49,12,1,0.6340308000003461,['c'],1,left,['1'],6,0.15086420000034195,0.2,0,AccFast,36,22,Woman,Right,
50,12,1,0.616682899999887,['c'],1,left,['1'],6,0.15166409999983443,0.4,0,AccFast,36,22,Woman,Right,
51,12,1,0.5668831000002683,['c'],0,right,['1'],6,0.18450950000033117,0.4,0,AccFast,36,22,Woman,Right,
52,12,1,1.9825819000002411,['n'],1,right,['3'],4,0.46930799999972805,0.4,0,AccFast,36,22,Woman,Right,
53,12,1,0.900148100000024,['n'],1,right,['2'],5,0.8349678999998105,0.2,0,AccFast,36,22,Woman,Right,
54,12,1,1.6327036000002408,['n'],1,right,['3'],4,0.8673751000001175,0.4,0,AccFast,36,22,Woman,Right,
55,12,1,1.2173032999999123,['n'],1,right,['3'],4,0.1665829999997186,0.4,0,AccFast,36,22,Woman,Right,
56,12,1,1.5337011999999959,['n'],0,left,['8'],3,0.7513198000001466,0.1,0,AccFast,36,22,Woman,Right,
57,12,1,1.9830565000002025,['n'],1,right,['8'],3,0.6673970000001646,0.4,0,AccFast,36,22,Woman,Right,
58,12,1,0.7506860999997116,['c'],1,left,['1'],6,0.23407989999986967,0.2,0,AccFast,36,22,Woman,Right,
59,12,1,0.7171030999998038,['c'],1,left,['1'],6,0.20150180000018736,0.1,0,AccFast,36,22,Woman,Right,
0,13,1,1.4663479999999254,['n'],1,right,['3'],4,1.7007769000001645,0.1,0,AccAcc,36,22,Woman,Right,
1,13,1,1.618596400000115,['n'],0,left,['3'],4,0.8337599999999838,0.2,0,AccAcc,36,22,Woman,Right,
2,13,1,1.5495104999999967,['n'],0,left,['3'],4,0.6671596000001045,0.2,0,AccAcc,36,22,Woman,Right,
3,13,1,1.0005654999999933,['n'],0,left,['3'],4,0.5674085000000559,0.4,0,AccAcc,36,22,Woman,Right,
4,13,1,1.34934579999981,['n'],1,right,['3'],4,0.517840200000137,0.2,0,AccAcc,36,22,Woman,Right,
5,13,1,2.4154685999997128,['c'],1,left,['2'],5,0.6840726999998878,0.4,0,AccAcc,36,22,Woman,Right,
6,13,1,3.249651399999948,['n'],1,right,['3'],4,1.3673211000000265,0.1,0,AccAcc,36,22,Woman,Right,
7,13,1,1.7511325000000397,['n'],1,right,['2'],5,1.0837712000002284,0.1,0,AccAcc,36,22,Woman,Right,
8,13,1,2.7677091000000473,['n'],1,right,['2'],5,0.8508738999998968,0.1,0,AccAcc,36,22,Woman,Right,
9,13,1,0.8339128000002347,['c'],1,left,['1'],6,0.40103580000004513,0.2,0,AccAcc,36,22,Woman,Right,
10,13,1,1.5831607000000076,['c'],0,right,['2'],5,0.4508720999997422,0.1,0,AccAcc,36,22,Woman,Right,
11,13,1,0.9161005000000841,['n'],1,right,['1'],6,0.20125839999991513,0.2,0,AccAcc,36,22,Woman,Right,
12,13,1,1.101648700000169,['c'],1,left,['1'],6,0.16824110000015935,0.2,0,AccAcc,36,22,Woman,Right,
13,13,1,0.7497118000001137,['n'],1,right,['1'],6,0.26852069999995365,0.4,0,AccAcc,36,22,Woman,Right,
14,13,1,1.7665105999999469,['c'],0,right,['3'],4,0.6844386000002487,0.2,0,AccAcc,36,22,Woman,Right,
15,13,1,1.3002409999999145,['n'],1,right,['1'],6,0.2013582999998107,0.2,0,AccAcc,36,22,Woman,Right,
16,13,1,0.7168622999997751,['n'],1,right,['1'],6,0.21658260000003793,0.4,0,AccAcc,36,22,Woman,Right,
17,13,1,1.2518003000000135,['n'],1,right,['2'],5,0.6339732999999796,0.1,0,AccAcc,36,22,Woman,Right,
18,13,1,1.1002893999998378,['n'],0,left,['2'],5,0.38440859999991517,0.1,0,AccAcc,36,22,Woman,Right,
19,13,1,2.3666385999999875,['n'],1,right,['3'],4,0.601306100000329,0.4,0,AccAcc,36,22,Woman,Right,
20,13,1,1.6162386999999399,['c'],1,left,['3'],4,0.5181157000001804,0.2,0,AccAcc,36,22,Woman,Right,
21,13,1,0.7169561000000613,['n'],1,right,['1'],6,0.31787690000010116,0.4,0,AccAcc,36,22,Woman,Right,
22,13,1,1.43303509999987,['c'],0,right,['2'],5,0.568022700000256,0.1,0,AccAcc,36,22,Woman,Right,
23,13,1,1.4334241999999904,['c'],1,left,['1'],6,0.15061729999979434,0.2,0,AccAcc,36,22,Woman,Right,
24,13,1,1.2341661999998905,['c'],1,left,['3'],4,0.0680635000003349,0.1,0,AccAcc,36,22,Woman,Right,
25,13,1,0.6507618000000548,['c'],1,left,['1'],6,0.16789709999966362,0.4,0,AccAcc,36,22,Woman,Right,
26,13,1,0.9996659000003092,['c'],0,right,['1'],6,0.13477649999958885,0.2,0,AccAcc,36,22,Woman,Right,
27,13,1,0.7004578999999467,['c'],1,left,['1'],6,0.15073380000012548,0.4,0,AccAcc,36,22,Woman,Right,
28,13,1,3.016492499999913,['c'],0,right,['3'],4,0.7509107000000768,0.1,0,AccAcc,36,22,Woman,Right,
29,13,1,0.6669610999997531,['c'],1,left,['1'],6,0.15137079999976777,0.4,0,AccAcc,36,22,Woman,Right,
30,13,1,0.6831705000004149,['c'],0,right,['1'],6,0.15092790000016976,0.1,0,AccAcc,36,22,Woman,Right,
31,13,1,1.8827403000000231,['n'],1,right,['8'],3,0.06742579999990994,0.4,0,AccAcc,36,22,Woman,Right,
32,13,1,1.716817500000161,['c'],1,left,['3'],4,0.6845783000003394,0.1,0,AccAcc,36,22,Woman,Right,
33,13,1,1.1495446999997512,['c'],1,left,['2'],5,0.550667599999997,0.1,0,AccAcc,36,22,Woman,Right,
34,13,1,0.7666506000000481,['c'],1,left,['1'],6,0.20126410000011674,0.4,0,AccAcc,36,22,Woman,Right,
35,13,1,0.9998000000000502,['c'],1,left,['1'],6,0.23441800000000512,0.1,0,AccAcc,36,22,Woman,Right,
36,13,1,0.7503458000001046,['c'],1,left,['1'],6,0.11817999999993845,0.4,0,AccAcc,36,22,Woman,Right,
37,13,1,1.8833507999997892,['n'],1,right,['3'],4,0.2508629999997538,0.4,0,AccAcc,36,22,Woman,Right,
38,13,1,3.0326637000002847,['c'],1,left,['3'],4,0.9018066000003273,0.2,0,AccAcc,36,22,Woman,Right,
39,13,1,1.1667781000001014,['c'],1,left,['3'],4,0.26792969999996785,0.1,0,AccAcc,36,22,Woman,Right,
40,13,1,0.8835680000001958,['c'],1,left,['2'],5,0.45112369999969815,0.1,0,AccAcc,36,22,Woman,Right,
41,13,1,1.1503551000000698,['c'],0,right,['2'],5,0.08482839999987846,0.2,0,AccAcc,36,22,Woman,Right,
42,13,1,0.8327559999997902,['c'],1,left,['1'],6,0.1183525000001282,0.4,0,AccAcc,36,22,Woman,Right,
43,13,1,2.0002645999998094,['c'],0,right,['3'],4,0.5669575000001714,0.1,0,AccAcc,36,22,Woman,Right,
44,13,1,0.9493476000002374,['c'],1,left,['1'],6,0.10130379999964134,0.4,0,AccAcc,36,22,Woman,Right,
45,13,1,1.5661318000002211,['n'],1,right,['3'],4,0.6677303000001302,0.2,0,AccAcc,36,22,Woman,Right,
46,13,1,1.082616600000165,['c'],1,left,['3'],4,0.7516062999998212,0.4,0,AccAcc,36,22,Woman,Right,
47,13,1,1.5993855000001531,['n'],0,left,['3'],4,0.8511095000003479,0.2,0,AccAcc,36,22,Woman,Right,
48,13,1,1.0660996999999952,['c'],1,left,['2'],5,0.6505321999998159,0.4,0,AccAcc,36,22,Woman,Right,
49,13,1,1.0510526000002756,['n'],1,right,['2'],5,0.5846418000000995,0.2,0,AccAcc,36,22,Woman,Right,
50,13,1,0.7838358000003609,['n'],1,right,['2'],5,0.2846708000001854,0.1,0,AccAcc,36,22,Woman,Right,
51,13,1,1.1507455000000846,['n'],1,right,['3'],4,0.33449860000018816,0.1,0,AccAcc,36,22,Woman,Right,
52,13,1,0.7673641000001226,['n'],1,right,['3'],4,0.2173225999999886,0.1,0,AccAcc,36,22,Woman,Right,
53,13,1,1.80000949999976,['n'],1,right,['3'],4,1.4342685000001438,0.2,0,AccAcc,36,22,Woman,Right,
54,13,1,1.2830947000002197,['c'],1,left,['1'],6,0.5343702000000121,0.4,0,AccAcc,36,22,Woman,Right,
55,13,1,1.366338000000269,['n'],1,right,['3'],4,0.5680185000001075,0.2,0,AccAcc,36,22,Woman,Right,
56,13,1,1.966388100000131,['c'],1,left,['3'],4,0.5346121999996285,0.2,0,AccAcc,36,22,Woman,Right,
57,13,1,2.267554700000346,['n'],0,left,['3'],4,0.5509787999999389,0.4,0,AccAcc,36,22,Woman,Right,
58,13,1,0.9997081999999864,['n'],1,right,['3'],4,0.3680695999996715,0.4,0,AccAcc,36,22,Woman,Right,
59,13,1,1.466792699999587,['n'],0,left,['3'],4,0.16794720000007146,0.2,0,AccAcc,36,22,Woman,Right,
0,14,1,1.3328852999998162,['n'],1,right,['3'],4,1.4679971999998997,0.4,0,FastAcc,36,22,Woman,Right,
1,14,1,0.882283599999937,['n'],0,left,['3'],4,0.3008239999999205,0.1,0,FastAcc,36,22,Woman,Right,
2,14,1,0.7846288000000641,['n'],0,left,['3'],4,0.5010956000000988,0.1,0,FastAcc,36,22,Woman,Right,
3,14,1,0.9003115999998954,['n'],1,right,['2'],5,0.4669088999999076,0.1,0,FastAcc,36,22,Woman,Right,
4,14,1,1.1336992999999893,['c'],1,left,['2'],5,0.5346331000000646,0.2,0,FastAcc,36,22,Woman,Right,
5,14,1,0.7498187999999573,['c'],1,left,['1'],6,0.10202740000022459,0.1,0,FastAcc,36,22,Woman,Right,
6,14,1,0.9168945999999778,['c'],0,right,['1'],6,0.11738900000000285,0.1,0,FastAcc,36,22,Woman,Right,
7,14,1,0.7171347999997124,['c'],1,left,['1'],6,0.1670896000000539,0.4,0,FastAcc,36,22,Woman,Right,
8,14,1,0.6835006999999678,['c'],1,left,['1'],6,0.1681447000000844,0.1,0,FastAcc,36,22,Woman,Right,
9,14,1,1.0002356999998483,['c'],0,right,['2'],5,0.16820180000013352,0.1,0,FastAcc,36,22,Woman,Right,
10,14,1,0.5333847000001697,['c'],1,left,['3'],4,0.15068310000015117,0.2,0,FastAcc,36,22,Woman,Right,
11,14,1,1.5337319999998726,['n'],1,right,['3'],4,0.7517631999999139,0.2,0,FastAcc,36,22,Woman,Right,
12,14,1,1.133785099999841,['n'],1,right,['3'],4,0.3010733999999502,0.1,0,FastAcc,36,22,Woman,Right,
13,14,1,1.2662439000000631,['c'],1,left,['3'],4,0.08458019999989119,0.2,0,FastAcc,36,22,Woman,Right,
14,14,1,0.66712409999991,['c'],1,left,['1'],6,0.15134709999983897,0.4,0,FastAcc,36,22,Woman,Right,
15,14,1,1.684129899999789,['n'],1,right,['3'],4,0.484436100000039,0.4,0,FastAcc,36,22,Woman,Right,
16,14,1,1.100876199999675,['n'],1,right,['2'],5,0.18388969999978144,0.2,0,FastAcc,36,22,Woman,Right,
17,14,1,0.9491578000001937,['n'],1,right,['1'],6,0.1674588999999287,0.1,0,FastAcc,36,22,Woman,Right,
18,14,1,1.5668229000002611,['n'],0,left,['1'],6,0.2515244999999595,0.2,0,FastAcc,36,22,Woman,Right,
19,14,1,0.9507177000000411,['c'],1,left,['1'],6,0.1339882000002035,0.4,0,FastAcc,36,22,Woman,Right,
20,14,1,1.116225199999917,['c'],0,right,['1'],6,0.10131410000030883,0.4,0,FastAcc,36,22,Woman,Right,
21,14,1,0.6987268000002587,['c'],1,left,['1'],6,0.11737119999997958,0.4,0,FastAcc,36,22,Woman,Right,
22,14,1,1.9165437999999995,['n'],1,right,['3'],4,0.48458209999989776,0.2,0,FastAcc,36,22,Woman,Right,
23,14,1,0.8491472999999132,['n'],1,right,['3'],4,0.15159749999975247,0.2,0,FastAcc,36,22,Woman,Right,
24,14,1,1.0004785000000993,['c'],1,left,['1'],6,0.10087560000010853,0.4,0,FastAcc,36,22,Woman,Right,
25,14,1,0.5837523000000147,['c'],1,left,['1'],6,0.1346318999999312,0.2,0,FastAcc,36,22,Woman,Right,
26,14,1,1.400233300000309,['n'],1,right,['1'],6,1.1333896000001005,0.4,0,FastAcc,36,22,Woman,Right,
27,14,1,0.9334684999998899,['c'],1,left,['1'],6,0.11836489999996047,0.2,0,FastAcc,36,22,Woman,Right,
28,14,1,0.7344228000001749,['n'],1,right,['1'],6,0.15076809999982288,0.4,0,FastAcc,36,22,Woman,Right,
29,14,1,0.7670032000000901,['c'],1,left,"['3', '1']",4,0.10155400000030568,0.1,0,FastAcc,36,22,Woman,Right,
30,14,1,0.6504146000002038,['c'],1,left,['1'],6,0.11778860000003988,0.2,0,FastAcc,36,22,Woman,Right,
31,14,1,0.6837568000000829,['c'],0,right,['1'],6,0.10132759999987684,0.2,0,FastAcc,36,22,Woman,Right,
32,14,1,0.8672019000000546,['n'],1,right,['1'],6,0.2013612999999168,0.4,0,FastAcc,36,22,Woman,Right,
33,14,1,3.566527699999824,['c'],0,right,['3'],4,0.7844672999999602,0.1,0,FastAcc,36,22,Woman,Right,
34,14,1,1.1169310999998743,['n'],1,right,['2'],5,0.26743690000012066,0.1,0,FastAcc,36,22,Woman,Right,
35,14,1,1.1337789999997767,['n'],1,right,['2'],5,0.10214610000002722,0.1,0,FastAcc,36,22,Woman,Right,
36,14,1,1.3001924999998664,['c'],1,left,['2'],5,0.3504377999997814,0.2,0,FastAcc,36,22,Woman,Right,
37,14,1,0.7833857999999054,['c'],1,left,['2'],5,0.4185508000000482,0.2,0,FastAcc,36,22,Woman,Right,
38,14,1,1.3662829999998394,['n'],1,right,['2'],5,0.6016970999999103,0.2,0,FastAcc,36,22,Woman,Right,
39,14,1,0.9001392000000124,['c'],0,right,['2'],5,0.368062000000009,0.1,0,FastAcc,36,22,Woman,Right,
40,14,1,2.067023699999936,['c'],1,left,['1'],6,0.6846114999998463,0.4,0,FastAcc,36,22,Woman,Right,
41,14,1,1.3167958000003637,['c'],1,left,['1'],6,0.10110060000033627,0.2,0,FastAcc,36,22,Woman,Right,
42,14,1,0.9665735000003224,['c'],1,left,['1'],6,0.13402180000002772,0.2,0,FastAcc,36,22,Woman,Right,
43,14,1,0.6664719999998852,['c'],1,left,['1'],6,0.10142580000001544,0.4,0,FastAcc,36,22,Woman,Right,
44,14,1,1.533158000000185,['n'],1,right,['2'],5,0.25093080000033297,0.1,0,FastAcc,36,22,Woman,Right,
45,14,1,0.9327484000000368,['n'],1,right,['1'],6,0.13428580000027068,0.2,0,FastAcc,36,22,Woman,Right,
46,14,1,1.8166080999999394,['c'],1,left,['2'],5,0.8344129000001885,0.2,0,FastAcc,36,22,Woman,Right,
47,14,1,1.0833676000002015,['n'],1,right,['1'],6,0.48437950000015917,0.1,0,FastAcc,36,22,Woman,Right,
48,14,1,0.8664303000000473,['n'],0,left,['2'],5,0.3016658000001371,0.1,0,FastAcc,36,22,Woman,Right,
49,14,1,0.7843394000001354,['n'],0,left,['1'],6,0.11786100000017541,0.1,0,FastAcc,36,22,Woman,Right,
50,14,1,1.3337318000003506,['n'],0,left,['3'],4,0.401193400000011,0.2,0,FastAcc,36,22,Woman,Right,
51,14,1,1.5167833000000428,['c'],1,left,['1'],6,0.1670137999999497,0.4,0,FastAcc,36,22,Woman,Right,
52,14,1,0.8156948000000739,['n'],1,right,['1'],6,0.11812759999975242,0.4,0,FastAcc,36,22,Woman,Right,
53,14,1,0.7162176000001637,['n'],1,right,['1'],6,0.10173810000014782,0.4,0,FastAcc,36,22,Woman,Right,
54,14,1,0.666338099999848,['n'],1,right,['1'],6,0.11776049999980387,0.4,0,FastAcc,36,22,Woman,Right,
55,14,1,0.8495193999997355,['n'],1,right,['1'],6,0.16836319999993066,0.1,0,FastAcc,36,22,Woman,Right,
56,14,1,1.6172004000000015,['c'],1,left,['3'],4,0.8006254000001718,0.4,0,FastAcc,36,22,Woman,Right,
57,14,1,0.8175903000001199,['n'],1,right,['1'],6,0.11721970000007786,0.4,0,FastAcc,36,22,Woman,Right,
58,14,1,2.000495999999657,['c'],1,left,['3'],4,0.8178533000000243,0.1,0,FastAcc,36,22,Woman,Right,
59,14,1,1.4174250000000939,['n'],1,right,['1'],6,0.15059680000013032,0.4,0,FastAcc,36,22,Woman,Right,
0,15,1,1.4512199000000692,['n'],1,right,['3'],4,0.517885600000227,0.2,0,FastFast,36,22,Woman,Right,
1,15,1,1.982948800000031,['n'],0,left,['3'],4,0.5683383999999023,0.1,0,FastFast,36,22,Woman,Right,
2,15,1,0.9331206000001657,['c'],1,left,['1'],6,0.2840875000001688,0.4,0,FastFast,36,22,Woman,Right,
3,15,1,0.6832196999998814,['c'],0,right,['1'],6,0.13493379999999888,0.4,0,FastFast,36,22,Woman,Right,
4,15,1,0.7504538999996839,['c'],0,right,['1'],6,0.11794479999980467,0.2,0,FastFast,36,22,Woman,Right,
5,15,1,0.6655065999998442,['c'],0,right,['1'],6,0.11787199999980658,0.1,0,FastFast,36,22,Woman,Right,
6,15,1,2.3162908999997853,['n'],0,left,['3'],4,0.15133900000000722,0.4,0,FastFast,36,22,Woman,Right,
7,15,1,0.8172641000001022,['c'],1,left,['1'],6,0.1342224999998507,0.2,0,FastFast,36,22,Woman,Right,
8,15,1,0.9503689000002851,['n'],1,right,['1'],6,0.11797159999969153,0.4,0,FastFast,36,22,Woman,Right,
9,15,1,1.8830015999997158,['c'],1,left,['2'],5,0.2838144999996075,0.1,0,FastFast,36,22,Woman,Right,
10,15,1,0.7179709000001822,['c'],1,left,['1'],6,0.1166960000000472,0.1,0,FastFast,36,22,Woman,Right,
11,15,1,1.9670826999999917,['n'],0,left,['3'],4,0.6512369000001854,0.2,0,FastFast,36,22,Woman,Right,
12,15,1,1.1663744000002225,['n'],0,left,['1'],6,0.13496100000020306,0.1,0,FastFast,36,22,Woman,Right,
13,15,1,0.9331474000000526,['c'],1,left,['1'],6,0.10094819999994797,0.4,0,FastFast,36,22,Woman,Right,
14,15,1,1.81655980000005,['c'],1,left,['1'],6,0.08488989999978003,0.2,0,FastFast,36,22,Woman,Right,
15,15,1,1.3504973999997674,['c'],1,left,['1'],6,0.10060619999967457,0.1,0,FastFast,36,22,Woman,Right,
16,15,1,0.7498418000000129,['c'],1,left,['1'],6,0.0845048000001043,0.4,0,FastFast,36,22,Woman,Right,
17,15,1,2.466159399999924,['c'],1,left,['1'],6,0.10114539999995031,0.2,0,FastFast,36,22,Woman,Right,
18,15,1,2.6164810000000216,['c'],0,right,['3'],4,0.6511860000000524,0.1,0,FastFast,36,22,Woman,Right,
19,15,1,1.1172880999997687,['c'],0,right,['3'],4,0.38451619999977993,0.2,0,FastFast,36,22,Woman,Right,
20,15,1,1.0835531000002447,['c'],1,left,['3'],4,0.1336743000001661,0.1,0,FastFast,36,22,Woman,Right,
21,15,1,1.0338345000000118,['c'],1,left,['1'],6,0.26793399999996836,0.4,0,FastFast,36,22,Woman,Right,
22,15,1,1.1171540999998797,['c'],1,left,['3'],4,0.14981170000010025,0.2,0,FastFast,36,22,Woman,Right,
23,15,1,0.6839233000000604,['c'],0,right,['1'],6,0.1339325999997527,0.1,0,FastFast,36,22,Woman,Right,
24,15,1,3.7342509000000064,['n'],1,right,['3'],4,0.5001486999999543,0.2,0,FastFast,36,22,Woman,Right,
25,15,1,1.0489753999995628,['n'],1,right,['3'],4,0.08482790000016394,0.4,0,FastFast,36,22,Woman,Right,
26,15,1,0.7837460000000647,['n'],1,right,['1'],6,0.13456120000000737,0.4,0,FastFast,36,22,Woman,Right,
27,15,1,1.549037799999951,['n'],0,left,['3'],4,0.451262499999757,0.2,0,FastFast,36,22,Woman,Right,
28,15,1,1.4673901999999543,['c'],1,left,['1'],6,0.05121550000012576,0.1,0,FastFast,36,22,Woman,Right,
29,15,1,0.9169040000001587,['c'],0,right,['1'],6,0.11735499999986132,0.1,0,FastFast,36,22,Woman,Right,
30,15,1,1.050193500000205,['c'],0,right,['1'],6,0.1345989000001282,0.2,0,FastFast,36,22,Woman,Right,
31,15,1,1.5666934000000765,['n'],1,right,['1'],6,0.15111500000011802,0.4,0,FastFast,36,22,Woman,Right,
32,15,1,2.116730500000358,['c'],1,left,['1'],6,0.06789799999978641,0.1,0,FastFast,36,22,Woman,Right,
33,15,1,0.6833437000000231,['c'],1,left,['1'],6,0.08379509999986112,0.2,0,FastFast,36,22,Woman,Right,
34,15,1,1.5833153999997194,['n'],1,right,['3'],4,0.4832789000001867,0.1,0,FastFast,36,22,Woman,Right,
35,15,1,2.551406599999609,['c'],0,right,['3'],4,0.4345772000001489,0.4,0,FastFast,36,22,Woman,Right,
36,15,1,0.7666762999997445,['c'],1,left,['1'],6,0.068565700000363,0.4,0,FastFast,36,22,Woman,Right,
37,15,1,0.6661662999999862,['c'],1,left,['1'],6,0.06793960000004517,0.4,0,FastFast,36,22,Woman,Right,
38,15,1,1.682698199999777,['n'],1,right,['3'],4,0.33422079999991183,0.1,0,FastFast,36,22,Woman,Right,
39,15,1,0.9501023000002533,['n'],1,right,['1'],6,0.1507670999999391,0.4,0,FastFast,36,22,Woman,Right,
40,15,1,0.7672058000002835,['n'],1,right,['1'],6,0.15064329999995607,0.1,0,FastFast,36,22,Woman,Right,
41,15,1,0.7335580000003574,['c'],1,left,['1'],6,0.10122019999971599,0.4,0,FastFast,36,22,Woman,Right,
42,15,1,0.6504734999998618,['c'],0,right,['1'],6,0.10123279999970691,0.2,0,FastFast,36,22,Woman,Right,
43,15,1,0.5487573000000339,['c'],0,right,['1'],6,0.13543339999978343,0.1,0,FastFast,36,22,Woman,Right,
44,15,1,1.4335651000001235,['c'],0,right,['3'],4,0.03418779999992694,0.1,0,FastFast,36,22,Woman,Right,
45,15,1,2.0011625000001914,['n'],0,left,['3'],4,0.06829270000025645,0.2,0,FastFast,36,22,Woman,Right,
46,15,1,1.2996808999996574,['n'],1,right,['3'],4,0.5337429000001066,0.1,0,FastFast,36,22,Woman,Right,
47,15,1,3.3161754999996447,['n'],1,right,['3'],4,0.15104010000004564,0.2,0,FastFast,36,22,Woman,Right,
48,15,1,0.9336450999999215,['n'],1,right,['3'],4,0.13490090000004784,0.2,0,FastFast,36,22,Woman,Right,
49,15,1,1.0003736999997273,['n'],1,right,['3'],4,0.08368909999990137,0.1,0,FastFast,36,22,Woman,Right,
50,15,1,1.6151239999999234,['n'],1,right,['3'],4,0.11768469999969966,0.4,0,FastFast,36,22,Woman,Right,
51,15,1,1.4671675999998115,['c'],1,left,['1'],6,0.11822410000013406,0.4,0,FastFast,36,22,Woman,Right,
52,15,1,1.315882800000054,['n'],0,left,['3'],4,0.051222600000073726,0.4,0,FastFast,36,22,Woman,Right,
53,15,1,1.6663603000001785,['n'],1,right,['3'],4,0.16838330000018686,0.2,0,FastFast,36,22,Woman,Right,
54,15,1,0.9168781000003037,['n'],1,right,['3'],4,0.13400270000011005,0.2,0,FastFast,36,22,Woman,Right,
55,15,1,1.0489278000000013,['c'],0,right,['1'],6,0.08472830000027898,0.1,0,FastFast,36,22,Woman,Right,
56,15,1,0.6163387999999941,['n'],0,left,['0'],1,1.8503860999999233,0.4,0,FastFast,36,22,Woman,Right,
57,15,1,0.7325900000000729,['c'],1,left,['1'],6,0.08487530000002153,0.4,0,FastFast,36,22,Woman,Right,
58,15,1,1.5664966000003915,['c'],1,left,['1'],6,0.13430270000026212,0.2,0,FastFast,36,22,Woman,Right,
59,15,1,0.8002349000003051,['c'],1,left,['2'],5,0.43467499999997017,0.2,0,FastFast,36,22,Woman,Right,
