withinblocktrial,block,block_repetition,rt,resp,cor,cresp,conf_press,cj,rtconf,coherence,metacognition,slow_trial,manipulation,sub,age,gender,handedness,
0,1,1,1.4672706000000062,['c'],1,left,none,-99,-99,0.5,-99,0,none,4,18,Man,Right,
1,1,1,1.7666605000000573,['n'],0,left,none,-99,-99,0.5,-99,0,none,4,18,Man,Right,
2,1,1,1.966592799999944,['c'],1,left,none,-99,-99,0.5,-99,0,none,4,18,Man,Right,
3,1,1,3.9329232000000047,['n'],1,right,none,-99,-99,0.5,-99,0,none,4,18,Man,Right,
4,1,1,1.0001837999999452,['c'],0,right,none,-99,-99,0.5,-99,0,none,4,18,Man,Right,
5,1,1,2.582231399999955,['c'],0,right,none,-99,-99,0.5,-99,0,none,4,18,Man,Right,
6,1,1,2.1493087999999716,['n'],0,left,none,-99,-99,0.5,-99,0,none,4,18,Man,Right,
7,1,1,4.299072899999942,['c'],1,left,none,-99,-99,0.5,-99,0,none,4,18,Man,Right,
8,1,1,2.916611399999965,['c'],0,right,none,-99,-99,0.5,-99,0,none,4,18,Man,Right,
9,1,1,2.950512300000014,['c'],1,left,none,-99,-99,0.5,-99,0,none,4,18,Man,Right,
10,1,1,2.4499219000000494,['n'],0,left,none,-99,-99,0.5,-99,0,none,4,18,Man,Right,
11,1,1,5.0151343,x,-99,left,none,-99,-99,0.5,-99,1,none,4,18,Man,Right,
12,1,1,1.5160078999999769,['n'],1,right,none,-99,-99,0.5,-99,0,none,4,18,Man,Right,
13,1,1,1.8500661000000491,['n'],1,right,none,-99,-99,0.5,-99,0,none,4,18,Man,Right,
14,1,1,1.7505978000000368,['n'],1,right,none,-99,-99,0.5,-99,0,none,4,18,Man,Right,
15,1,1,1.5834326000000374,['n'],0,left,none,-99,-99,0.5,-99,0,none,4,18,Man,Right,
16,1,1,3.2658645000000206,['n'],0,left,none,-99,-99,0.5,-99,0,none,4,18,Man,Right,
17,1,1,2.6670583999999735,['c'],0,right,none,-99,-99,0.5,-99,0,none,4,18,Man,Right,
18,1,1,2.8834059000000707,['n'],0,left,none,-99,-99,0.5,-99,0,none,4,18,Man,Right,
19,1,1,4.116365599999995,['n'],0,left,none,-99,-99,0.5,-99,0,none,4,18,Man,Right,
20,1,1,5.000215599999933,x,-99,right,none,-99,-99,0.5,-99,1,none,4,18,Man,Right,
21,1,1,1.100424500000031,['c'],0,right,none,-99,-99,0.5,-99,0,none,4,18,Man,Right,
22,1,1,3.684287799999993,['n'],1,right,none,-99,-99,0.5,-99,0,none,4,18,Man,Right,
23,1,1,1.3168783999999505,['c'],0,right,none,-99,-99,0.5,-99,0,none,4,18,Man,Right,
0,1,2,1.9182928000000175,['n'],1,right,none,-99,-99,0.5,-99,0,none,4,18,Man,Right,
1,1,2,0.7501978999999892,['c'],1,left,none,-99,-99,0.5,-99,0,none,4,18,Man,Right,
2,1,2,0.6004633999999669,['n'],1,right,none,-99,-99,0.5,-99,0,none,4,18,Man,Right,
3,1,2,0.5169984999999997,['c'],0,right,none,-99,-99,0.5,-99,0,none,4,18,Man,Right,
4,1,2,0.6170481000000336,['c'],1,left,none,-99,-99,0.5,-99,0,none,4,18,Man,Right,
5,1,2,0.7497589000000744,['c'],1,left,none,-99,-99,0.5,-99,0,none,4,18,Man,Right,
6,1,2,0.534960999999953,['c'],1,left,none,-99,-99,0.5,-99,0,none,4,18,Man,Right,
7,1,2,0.46747879999998077,['n'],1,right,none,-99,-99,0.5,-99,0,none,4,18,Man,Right,
8,1,2,0.38449019999995926,['c'],1,left,none,-99,-99,0.5,-99,0,none,4,18,Man,Right,
9,1,2,0.450475400000073,['c'],1,left,none,-99,-99,0.5,-99,0,none,4,18,Man,Right,
10,1,2,0.38435900000001766,['n'],1,right,none,-99,-99,0.5,-99,0,none,4,18,Man,Right,
11,1,2,0.29936559999998735,['c'],0,right,none,-99,-99,0.5,-99,0,none,4,18,Man,Right,
12,1,2,0.4334704000000329,['c'],1,left,none,-99,-99,0.5,-99,0,none,4,18,Man,Right,
13,1,2,0.3000140999999985,['n'],0,left,none,-99,-99,0.5,-99,0,none,4,18,Man,Right,
14,1,2,0.46729179999999815,['n'],1,right,none,-99,-99,0.5,-99,0,none,4,18,Man,Right,
15,1,2,0.4163136999999324,['c'],1,left,none,-99,-99,0.5,-99,0,none,4,18,Man,Right,
16,1,2,0.5495935000000145,['c'],1,left,none,-99,-99,0.5,-99,0,none,4,18,Man,Right,
17,1,2,0.3004131000000143,['n'],0,left,none,-99,-99,0.5,-99,0,none,4,18,Man,Right,
18,1,2,0.334139700000037,['n'],1,right,none,-99,-99,0.5,-99,0,none,4,18,Man,Right,
19,1,2,0.31724929999995766,['c'],0,right,none,-99,-99,0.5,-99,0,none,4,18,Man,Right,
20,1,2,0.48426340000003165,['n'],1,right,none,-99,-99,0.5,-99,0,none,4,18,Man,Right,
21,1,2,0.45017440000003717,['n'],1,right,none,-99,-99,0.5,-99,0,none,4,18,Man,Right,
22,1,2,0.38490589999992153,['c'],1,left,none,-99,-99,0.5,-99,0,none,4,18,Man,Right,
23,1,2,0.3991823999999724,['n'],1,right,none,-99,-99,0.5,-99,0,none,4,18,Man,Right,
0,1,3,0.41753959999994095,['c'],1,left,none,-99,-99,0.5,-99,0,none,4,18,Man,Right,
1,1,3,0.4665489000000207,['n'],1,right,none,-99,-99,0.5,-99,0,none,4,18,Man,Right,
2,1,3,0.3657468000000108,['c'],1,left,none,-99,-99,0.5,-99,0,none,4,18,Man,Right,
3,1,3,0.2838242000000264,['n'],0,left,none,-99,-99,0.5,-99,0,none,4,18,Man,Right,
4,1,3,0.38471609999999146,['n'],1,right,none,-99,-99,0.5,-99,0,none,4,18,Man,Right,
5,1,3,0.5336689000000661,['n'],1,right,none,-99,-99,0.5,-99,0,none,4,18,Man,Right,
6,1,3,0.3664023000000043,['c'],1,left,none,-99,-99,0.5,-99,0,none,4,18,Man,Right,
7,1,3,0.3675266999999849,['n'],1,right,none,-99,-99,0.5,-99,0,none,4,18,Man,Right,
8,1,3,0.35051770000006854,['c'],1,left,none,-99,-99,0.5,-99,0,none,4,18,Man,Right,
9,1,3,0.4013989000000038,['n'],1,right,none,-99,-99,0.5,-99,0,none,4,18,Man,Right,
10,1,3,0.26723470000001726,['c'],0,right,none,-99,-99,0.5,-99,0,none,4,18,Man,Right,
11,1,3,0.4003777000000355,['c'],1,left,none,-99,-99,0.5,-99,0,none,4,18,Man,Right,
12,1,3,0.4484387999999626,['n'],1,right,none,-99,-99,0.5,-99,0,none,4,18,Man,Right,
13,1,3,0.3342503999999735,['c'],1,left,none,-99,-99,0.5,-99,0,none,4,18,Man,Right,
14,1,3,0.4007735000000139,['c'],1,left,none,-99,-99,0.5,-99,0,none,4,18,Man,Right,
15,1,3,0.38262239999994563,['n'],1,right,none,-99,-99,0.5,-99,0,none,4,18,Man,Right,
16,1,3,0.31817819999992025,['c'],1,left,none,-99,-99,0.5,-99,0,none,4,18,Man,Right,
17,1,3,0.5675613999999314,['c'],1,left,none,-99,-99,0.5,-99,0,none,4,18,Man,Right,
18,1,3,0.3851988999999776,['n'],1,right,none,-99,-99,0.5,-99,0,none,4,18,Man,Right,
19,1,3,0.5503490999999485,['n'],1,right,none,-99,-99,0.5,-99,0,none,4,18,Man,Right,
20,1,3,0.3152434999999514,['c'],1,left,none,-99,-99,0.5,-99,0,none,4,18,Man,Right,
21,1,3,0.4999087999999574,['n'],1,right,none,-99,-99,0.5,-99,0,none,4,18,Man,Right,
22,1,3,0.38401550000003226,['c'],1,left,none,-99,-99,0.5,-99,0,none,4,18,Man,Right,
23,1,3,0.33410030000004554,['n'],1,right,none,-99,-99,0.5,-99,0,none,4,18,Man,Right,
0,2,1,1.1664218000000801,['n'],0,left,none,-99,-99,0.1,-99,0,none,4,18,Man,Right,
1,2,1,0.6505082999999559,['c'],1,left,none,-99,-99,0.4,-99,0,none,4,18,Man,Right,
2,2,1,0.60132509999994,['c'],1,left,none,-99,-99,0.4,-99,0,none,4,18,Man,Right,
3,2,1,1.0504694999999629,['c'],1,left,none,-99,-99,0.1,-99,0,none,4,18,Man,Right,
4,2,1,0.46782200000006924,['c'],0,right,none,-99,-99,0.2,-99,0,none,4,18,Man,Right,
5,2,1,0.38477160000002186,['n'],0,left,none,-99,-99,0.1,-99,0,none,4,18,Man,Right,
6,2,1,1.6327974999999242,['c'],0,right,none,-99,-99,0.2,-99,0,none,4,18,Man,Right,
7,2,1,0.7661272000000281,['n'],0,left,none,-99,-99,0.2,-99,0,none,4,18,Man,Right,
8,2,1,0.7838045000000875,['c'],1,left,none,-99,-99,0.1,-99,0,none,4,18,Man,Right,
9,2,1,3.133080399999926,['n'],1,right,none,-99,-99,0.2,-99,0,none,4,18,Man,Right,
10,2,1,1.9672886000000744,['n'],1,right,none,-99,-99,0.2,-99,0,none,4,18,Man,Right,
11,2,1,0.84993929999996,['c'],1,left,none,-99,-99,0.4,-99,0,none,4,18,Man,Right,
12,2,1,1.0009764000001269,['n'],0,left,none,-99,-99,0.2,-99,0,none,4,18,Man,Right,
13,2,1,2.1502110999999786,['n'],1,right,none,-99,-99,0.4,-99,0,none,4,18,Man,Right,
14,2,1,2.5840837000000647,['c'],1,left,none,-99,-99,0.1,-99,0,none,4,18,Man,Right,
15,2,1,4.067246000000068,['n'],1,right,none,-99,-99,0.2,-99,0,none,4,18,Man,Right,
16,2,1,2.4990505000000667,['n'],1,right,none,-99,-99,0.4,-99,0,none,4,18,Man,Right,
17,2,1,0.8519799000000603,['n'],1,right,none,-99,-99,0.4,-99,0,none,4,18,Man,Right,
18,2,1,0.6005996999999752,['n'],1,right,none,-99,-99,0.2,-99,0,none,4,18,Man,Right,
19,2,1,0.6177170999999362,['n'],1,right,none,-99,-99,0.1,-99,0,none,4,18,Man,Right,
20,2,1,0.5503218999999717,['n'],1,right,none,-99,-99,0.1,-99,0,none,4,18,Man,Right,
21,2,1,0.5343232000000171,['c'],0,right,none,-99,-99,0.4,-99,0,none,4,18,Man,Right,
22,2,1,2.732404699999961,['c'],1,left,none,-99,-99,0.1,-99,0,none,4,18,Man,Right,
23,2,1,0.600157500000023,['c'],1,left,none,-99,-99,0.4,-99,0,none,4,18,Man,Right,
0,3,1,0.9008745999999519,['c'],1,left,['e'],1,0.3185685000000831,0.2,1,0,none,4,18,Man,Right,
1,3,1,3.7009762000000137,['n'],1,right,['u'],0,0.7565462000000025,0.2,0,0,none,4,18,Man,Right,
2,3,1,1.3677516999998716,['n'],1,right,['e'],1,0.2781618999999864,0.4,1,0,none,4,18,Man,Right,
3,3,1,2.0504214000000047,['c'],0,right,['e'],1,0.3359127000001081,0.1,0,0,none,4,18,Man,Right,
4,3,1,1.9662301000000753,['c'],1,left,['e'],1,0.28244359999985136,0.2,1,0,none,4,18,Man,Right,
5,3,1,1.0001916000001074,['c'],1,left,['e'],1,0.28518339999982345,0.2,1,0,none,4,18,Man,Right,
6,3,1,1.151053900000079,['c'],0,right,['e'],1,0.23558709999997518,0.1,0,0,none,4,18,Man,Right,
7,3,1,0.7329214999999749,['n'],1,right,['e'],1,0.6345770000000357,0.4,1,0,none,4,18,Man,Right,
8,3,1,5.0164371999999275,x,-99,right,none,-99,-99,0.2,-99,1,none,4,18,Man,Right,
9,3,1,0.6506861000000299,['n'],1,right,['u'],0,0.3309171000000788,0.1,0,0,none,4,18,Man,Right,
10,3,1,1.3173311999998987,['c'],1,left,['e'],1,0.22316719999980705,0.1,1,0,none,4,18,Man,Right,
11,3,1,1.3326584000001276,['n'],1,right,['e'],1,0.18445459999998093,0.4,1,0,none,4,18,Man,Right,
12,3,1,1.2338314000000992,['c'],0,right,['e'],1,0.19761719999996785,0.1,0,0,none,4,18,Man,Right,
13,3,1,2.9506447999999637,['n'],0,left,['u'],0,0.9900013000001309,0.4,1,0,none,4,18,Man,Right,
14,3,1,3.0835128999999597,['n'],0,left,['e'],1,0.3217879000001176,0.1,0,0,none,4,18,Man,Right,
15,3,1,1.2845009000000118,['c'],1,left,['e'],1,0.16826379999997698,0.4,1,0,none,4,18,Man,Right,
16,3,1,1.6845118999999613,['n'],1,right,['e'],1,0.18028050000020812,0.4,1,0,none,4,18,Man,Right,
17,3,1,2.867660800000067,['n'],1,right,['u'],0,0.4167352000001756,0.2,0,0,none,4,18,Man,Right,
18,3,1,2.2011741999999686,['n'],1,right,['u'],0,0.7185796999999639,0.2,0,0,none,4,18,Man,Right,
19,3,1,2.8837756000000354,['c'],1,left,['e'],1,1.1096975000000384,0.1,1,0,none,4,18,Man,Right,
20,3,1,0.7841835000001538,['c'],1,left,['e'],1,0.0802824000002147,0.4,1,0,none,4,18,Man,Right,
21,3,1,2.733466500000077,['c'],1,left,['u'],0,0.6299235999999837,0.2,0,0,none,4,18,Man,Right,
22,3,1,1.5013083000001188,['c'],1,left,['e'],1,0.08707909999998265,0.4,1,0,none,4,18,Man,Right,
23,3,1,1.801491599999963,['n'],0,left,['e'],1,0.25827589999994416,0.1,0,0,none,4,18,Man,Right,
0,4,1,1.3007179999999607,['n'],1,right,['e'],1,0.3131972000001042,0.4,1,0,FastFast,4,18,Man,Right,
1,4,1,0.9844629000001532,['c'],1,left,['e'],1,0.10347070000011627,0.2,1,0,FastFast,4,18,Man,Right,
2,4,1,0.7675976999998966,['n'],1,right,['e'],1,0.11932430000001659,0.4,1,0,FastFast,4,18,Man,Right,
3,4,1,0.6845347999999376,['c'],0,right,['e'],1,0.05751179999992928,0.2,0,0,FastFast,4,18,Man,Right,
4,4,1,0.7181929999999284,['c'],1,left,['e'],1,0.029551200000014433,0.1,1,0,FastFast,4,18,Man,Right,
5,4,1,0.6987146999999823,['n'],0,left,['e'],1,0.0672200999999859,0.1,0,0,FastFast,4,18,Man,Right,
6,4,1,0.6173253999997996,['c'],0,right,['e'],1,0.010187500000029104,0.2,0,0,FastFast,4,18,Man,Right,
7,4,1,2.71583540000006,['n'],0,left,['u'],0,0.4793794000001981,0.1,1,0,FastFast,4,18,Man,Right,
8,4,1,0.5349979000000076,['c'],0,right,['u'],0,1.816475900000114,0.2,1,0,FastFast,4,18,Man,Right,
9,4,1,2.5013232999999673,['c'],1,left,['u'],0,1.6625051000000894,0.2,0,0,FastFast,4,18,Man,Right,
10,4,1,1.2008974999998827,['n'],1,right,['e'],1,0.334253199999921,0.2,1,0,FastFast,4,18,Man,Right,
11,4,1,1.1847000999998727,['c'],1,left,['e'],1,0.2599545999999009,0.4,1,0,FastFast,4,18,Man,Right,
12,4,1,1.7008809999999812,['n'],0,left,['e'],1,0.18431220000002213,0.1,0,0,FastFast,4,18,Man,Right,
13,4,1,1.0845123999999942,['c'],0,right,['e'],1,0.392220400000042,0.1,0,0,FastFast,4,18,Man,Right,
14,4,1,1.5171732000001157,['c'],1,left,['e'],1,0.11134499999980108,0.1,1,0,FastFast,4,18,Man,Right,
15,4,1,2.7678427999999258,['c'],1,left,['u'],0,0.7981610000001638,0.2,0,0,FastFast,4,18,Man,Right,
16,4,1,1.201373999999987,['n'],0,left,['e'],1,0.7526481999998396,0.2,0,0,FastFast,4,18,Man,Right,
17,4,1,0.6512705999998616,['n'],1,right,['e'],1,0.0432788000000528,0.4,1,0,FastFast,4,18,Man,Right,
18,4,1,1.0669157999998333,['c'],1,left,['e'],1,0.5939880999999332,0.2,1,0,FastFast,4,18,Man,Right,
19,4,1,0.7005596999999852,['n'],1,right,['e'],1,0.03250069999990046,0.4,1,0,FastFast,4,18,Man,Right,
20,4,1,0.3517258000001675,['c'],0,right,['u'],0,0.7551728999999341,0.2,1,0,FastFast,4,18,Man,Right,
21,4,1,1.1845366000000013,['n'],1,right,['e'],1,0.05634820000000218,0.2,1,0,FastFast,4,18,Man,Right,
22,4,1,0.6000126999999793,['n'],0,left,['e'],1,0.0015642000000752887,0.1,0,0,FastFast,4,18,Man,Right,
23,4,1,1.0840685999999096,['c'],1,left,['e'],1,0.008271500000091692,0.4,1,0,FastFast,4,18,Man,Right,
24,4,1,0.7829701000000568,['n'],1,right,['e'],1,0.04207819999987805,0.1,1,0,FastFast,4,18,Man,Right,
25,4,1,1.0999239999998736,['c'],0,right,['e'],1,0.01547130000017205,0.4,0,0,FastFast,4,18,Man,Right,
26,4,1,1.8841933000001063,['n'],0,left,['u'],0,0.45313850000002276,0.4,1,0,FastFast,4,18,Man,Right,
27,4,1,1.4187099000000671,['n'],1,right,['e'],1,0.0776484000000437,0.2,1,0,FastFast,4,18,Man,Right,
28,4,1,0.5847120999999333,['n'],1,right,['e'],1,0.0531793000000107,0.2,1,0,FastFast,4,18,Man,Right,
29,4,1,0.41724010000007183,['n'],0,left,['e'],1,0.036750099999835584,0.4,0,0,FastFast,4,18,Man,Right,
30,4,1,2.883381499999814,['c'],1,left,['u'],0,0.3227610999999797,0.2,0,0,FastFast,4,18,Man,Right,
31,4,1,1.2177770000000692,['n'],0,left,['e'],1,0.5036340999999993,0.1,0,0,FastFast,4,18,Man,Right,
32,4,1,0.6009415999999419,['n'],1,right,['e'],1,0.03061440000010407,0.4,1,0,FastFast,4,18,Man,Right,
33,4,1,0.8164127000000008,['c'],1,left,['u'],0,0.04692690000001676,0.4,0,0,FastFast,4,18,Man,Right,
34,4,1,1.2842986000000565,['n'],1,right,['e'],1,0.07564249999995809,0.4,1,0,FastFast,4,18,Man,Right,
35,4,1,1.3669991000001573,['n'],0,left,['e'],1,0.27666980000003605,0.2,0,0,FastFast,4,18,Man,Right,
36,4,1,2.4674549999999726,['n'],1,right,['u'],0,0.44152150000013535,0.1,0,0,FastFast,4,18,Man,Right,
37,4,1,2.3178533999998763,['n'],0,left,['u'],0,0.41404690000013034,0.2,1,0,FastFast,4,18,Man,Right,
38,4,1,2.38294790000009,['n'],1,right,['e'],1,0.16057769999997618,0.4,1,0,FastFast,4,18,Man,Right,
39,4,1,3.567636099999845,['n'],0,left,['u'],0,0.5912328000001708,0.1,1,0,FastFast,4,18,Man,Right,
40,4,1,2.6503211000001556,['c'],1,left,['e'],1,0.9117910999998458,0.1,1,0,FastFast,4,18,Man,Right,
41,4,1,0.732814400000052,['c'],1,left,['e'],1,0.016716800000040166,0.4,1,0,FastFast,4,18,Man,Right,
42,4,1,2.534055800000033,['n'],0,left,['u'],0,0.2213818000000174,0.1,1,0,FastFast,4,18,Man,Right,
43,4,1,1.8019378999999844,['c'],1,left,['u'],0,0.6225464999999986,0.2,0,0,FastFast,4,18,Man,Right,
44,4,1,3.78394430000003,['n'],1,right,['u'],0,0.28914579999991474,0.1,0,0,FastFast,4,18,Man,Right,
45,4,1,3.4848531999998613,['n'],0,left,['u'],0,0.733120000000099,0.1,1,0,FastFast,4,18,Man,Right,
46,4,1,1.5842979999999898,['n'],1,right,['e'],1,0.29086050000000796,0.4,1,0,FastFast,4,18,Man,Right,
47,4,1,4.751326299999846,['n'],1,right,['u'],0,0.47618629999988116,0.1,0,0,FastFast,4,18,Man,Right,
48,4,1,2.2002015999999003,['c'],0,right,['u'],0,0.16418279999993501,0.1,1,0,FastFast,4,18,Man,Right,
49,4,1,5.000059200000123,x,-99,right,none,-99,-99,0.1,-99,1,FastFast,4,18,Man,Right,
50,4,1,0.6513320999999905,['n'],0,left,['u'],0,0.12863599999991493,0.2,1,0,FastFast,4,18,Man,Right,
51,4,1,1.5830716999998913,['c'],1,left,['e'],1,0.06305300000008174,0.2,1,0,FastFast,4,18,Man,Right,
52,4,1,1.41735790000007,['n'],1,right,['e'],1,0.038129499999968175,0.4,1,0,FastFast,4,18,Man,Right,
53,4,1,2.6341509999999744,['n'],1,right,['u'],0,0.6853415000000496,0.1,0,0,FastFast,4,18,Man,Right,
54,4,1,1.783075300000064,['c'],1,left,['e'],1,0.06171549999999115,0.2,1,0,FastFast,4,18,Man,Right,
55,4,1,3.316156299999875,['n'],1,right,['e'],1,1.2090913999998065,0.1,1,0,FastFast,4,18,Man,Right,
56,4,1,0.9340012000000115,['c'],1,left,['e'],1,1.0302051999999549,0.4,1,0,FastFast,4,18,Man,Right,
57,4,1,0.8333390999998755,['n'],1,right,['e'],1,0.2704608999999891,0.4,1,0,FastFast,4,18,Man,Right,
58,4,1,1.1844301999999516,['n'],1,right,['e'],1,0.23082270000008975,0.4,1,0,FastFast,4,18,Man,Right,
59,4,1,3.0841518000001997,['n'],1,right,['e'],1,0.3401472000000467,0.4,1,0,FastFast,4,18,Man,Right,
0,5,1,0.8178018000000975,['n'],1,right,['u'],0,1.1711166000000048,0.2,0,0,AccFast,4,18,Man,Right,
1,5,1,1.7500970999999481,['c'],0,right,['e'],1,0.16147079999996095,0.1,0,0,AccFast,4,18,Man,Right,
2,5,1,2.201016299999992,['c'],1,left,['e'],1,0.4213873999999578,0.1,1,0,AccFast,4,18,Man,Right,
3,5,1,1.9674671999998736,['n'],1,right,['e'],1,0.7285444000001462,0.2,1,0,AccFast,4,18,Man,Right,
4,5,1,0.9677584000000934,['c'],1,left,['e'],1,0.4709659999998621,0.2,1,0,AccFast,4,18,Man,Right,
5,5,1,1.400476499999968,['n'],0,left,['e'],1,0.3506448000000546,0.1,0,0,AccFast,4,18,Man,Right,
6,5,1,0.7345420999999988,['c'],1,left,['e'],1,0.19748860000004242,0.2,1,0,AccFast,4,18,Man,Right,
7,5,1,0.7180577999999969,['n'],0,left,['e'],1,0.17910039999992478,0.1,0,0,AccFast,4,18,Man,Right,
8,5,1,0.5679761999999755,['c'],0,right,['e'],1,0.19938660000002528,0.2,0,0,AccFast,4,18,Man,Right,
9,5,1,1.8834997999999814,['c'],0,right,['u'],0,2.086564400000043,0.2,1,0,AccFast,4,18,Man,Right,
10,5,1,1.5669189000000188,['n'],1,right,['e'],1,0.37542260000009264,0.2,1,0,AccFast,4,18,Man,Right,
11,5,1,3.2849643000001834,['n'],1,right,['e'],1,0.8078479000000698,0.4,1,0,AccFast,4,18,Man,Right,
12,5,1,1.5009319999999207,['c'],1,left,['e'],1,0.47817010000017035,0.2,1,0,AccFast,4,18,Man,Right,
13,5,1,0.9682482999999138,['n'],1,right,['e'],1,0.6793551999999181,0.4,1,0,AccFast,4,18,Man,Right,
14,5,1,1.617926099999977,['c'],0,right,['e'],1,0.4136670000000322,0.4,0,0,AccFast,4,18,Man,Right,
15,5,1,1.134139500000174,['n'],0,left,['e'],1,0.24193960000002335,0.1,0,0,AccFast,4,18,Man,Right,
16,5,1,2.633678400000008,['c'],1,left,['e'],1,0.25789430000008906,0.1,1,0,AccFast,4,18,Man,Right,
17,5,1,1.6672622999999476,['c'],0,right,['u'],0,0.3756650999998783,0.1,1,0,AccFast,4,18,Man,Right,
18,5,1,3.7678748000000724,['c'],1,left,['e'],1,0.8050673000000188,0.4,1,0,AccFast,4,18,Man,Right,
19,5,1,2.267486100000042,['n'],1,right,['u'],0,0.4610015000000658,0.1,0,0,AccFast,4,18,Man,Right,
20,5,1,3.25113209999995,['c'],0,right,['u'],0,1.243408699999918,0.1,1,0,AccFast,4,18,Man,Right,
21,5,1,0.7018247000000883,['n'],1,right,['e'],1,0.336745700000165,0.4,1,0,AccFast,4,18,Man,Right,
22,5,1,4.183445899999924,['c'],1,left,['u'],0,0.7187861999998404,0.2,0,0,AccFast,4,18,Man,Right,
23,5,1,2.417615699999942,['n'],1,right,['e'],1,0.7559111999999004,0.2,1,0,AccFast,4,18,Man,Right,
24,5,1,0.8856740000001082,['c'],1,left,['e'],1,0.2929489000000558,0.2,1,0,AccFast,4,18,Man,Right,
25,5,1,3.2012598000001162,['c'],1,left,['e'],1,0.49230360000001383,0.4,1,0,AccFast,4,18,Man,Right,
26,5,1,2.150991900000008,['n'],0,left,['u'],0,0.19727430000011736,0.1,1,0,AccFast,4,18,Man,Right,
27,5,1,4.467588599999999,['c'],0,right,['u'],0,1.405410399999937,0.1,1,0,AccFast,4,18,Man,Right,
28,5,1,2.3843532999999297,['c'],1,left,['e'],1,0.3768522000000303,0.1,1,0,AccFast,4,18,Man,Right,
29,5,1,5.015766400000075,x,-99,right,none,-99,-99,0.2,-99,1,AccFast,4,18,Man,Right,
30,5,1,2.034006900000122,['c'],1,left,['e'],1,0.5497103000000152,0.4,1,0,AccFast,4,18,Man,Right,
31,5,1,0.6511136999999962,['n'],1,right,['e'],1,0.9359246999999868,0.4,1,0,AccFast,4,18,Man,Right,
32,5,1,1.3999189999999544,['c'],1,left,['e'],1,0.3816147000000001,0.1,1,0,AccFast,4,18,Man,Right,
33,5,1,0.7343685999999252,['c'],1,left,['e'],1,0.1146628999999848,0.4,1,0,AccFast,4,18,Man,Right,
34,5,1,0.9013849000000391,['n'],1,right,['u'],0,0.5890345000000252,0.1,0,0,AccFast,4,18,Man,Right,
35,5,1,0.817734499999915,['c'],1,left,['e'],1,0.08726530000012644,0.1,1,0,AccFast,4,18,Man,Right,
36,5,1,0.7332937000001039,['n'],1,right,['u'],0,0.009014199999910488,0.4,0,0,AccFast,4,18,Man,Right,
37,5,1,0.4990983000000142,['c'],1,left,['e'],1,0.007295499999827371,0.4,1,0,AccFast,4,18,Man,Right,
38,5,1,0.9009662999999364,['c'],1,left,['e'],1,0.005349399999886373,0.2,1,0,AccFast,4,18,Man,Right,
39,5,1,0.668190099999947,['c'],1,left,['e'],1,0.013225800000100207,0.4,1,0,AccFast,4,18,Man,Right,
40,5,1,0.8351187000000664,['n'],1,right,['u'],0,0.028911800000059884,0.2,0,0,AccFast,4,18,Man,Right,
41,5,1,0.40096870000002127,['c'],1,left,['e'],1,0.04557100000010905,0.4,1,0,AccFast,4,18,Man,Right,
42,5,1,0.5344916999999896,['n'],1,right,['u'],0,0.040410800000017844,0.2,0,0,AccFast,4,18,Man,Right,
43,5,1,4.317618799999991,['c'],0,right,['u'],0,0.5892034999999396,0.1,1,0,AccFast,4,18,Man,Right,
44,5,1,1.633122700000058,['c'],1,left,['e'],1,0.08831899999995585,0.4,1,0,AccFast,4,18,Man,Right,
45,5,1,0.9177545000000009,['c'],1,left,['e'],1,0.03352649999987989,0.2,1,0,AccFast,4,18,Man,Right,
46,5,1,0.4670264999999745,['n'],1,right,['u'],0,0.01601740000000973,0.1,0,0,AccFast,4,18,Man,Right,
47,5,1,2.166680999999926,['n'],1,right,['u'],0,0.186702299999979,0.1,0,0,AccFast,4,18,Man,Right,
48,5,1,2.966733500000146,['n'],1,right,['e'],1,0.36715110000000095,0.2,1,0,AccFast,4,18,Man,Right,
49,5,1,1.4500165000001743,['n'],1,right,['e'],1,0.264940900000056,0.4,1,0,AccFast,4,18,Man,Right,
50,5,1,1.3015512000001763,['c'],1,left,['e'],1,0.09245530000021063,0.1,1,0,AccFast,4,18,Man,Right,
51,5,1,3.14986829999998,['n'],0,left,['u'],0,0.6538899999998193,0.1,1,0,AccFast,4,18,Man,Right,
52,5,1,1.168201100000033,['n'],1,right,['e'],1,0.07154600000012579,0.4,1,0,AccFast,4,18,Man,Right,
53,5,1,1.8689434000000347,['c'],0,right,['u'],0,0.22069069999997737,0.2,1,0,AccFast,4,18,Man,Right,
54,5,1,1.4676981000000069,['c'],1,left,['e'],1,0.6996604000000843,0.4,1,0,AccFast,4,18,Man,Right,
55,5,1,4.565744799999948,['n'],0,left,['e'],1,2.012120300000106,0.4,0,0,AccFast,4,18,Man,Right,
56,5,1,4.468219999999974,['n'],0,left,['u'],0,0.6514721999999438,0.2,1,0,AccFast,4,18,Man,Right,
57,5,1,0.850881599999866,['n'],1,right,['e'],1,0.11390879999999015,0.4,1,0,AccFast,4,18,Man,Right,
58,5,1,1.501399400000082,['c'],1,left,['e'],1,0.46757430000002387,0.2,1,0,AccFast,4,18,Man,Right,
59,5,1,0.6843615000000227,['n'],1,right,['e'],1,0.08804170000007616,0.4,1,0,AccFast,4,18,Man,Right,
0,6,1,2.0508356999998796,['n'],0,left,['u'],0,1.529294899999968,0.1,1,0,AccAcc,4,18,Man,Right,
1,6,1,1.8174486000000343,['n'],1,right,['e'],1,0.4533577999998215,0.2,1,0,AccAcc,4,18,Man,Right,
2,6,1,0.9842779000000519,['c'],1,left,['e'],1,0.49429110000005494,0.4,1,0,AccAcc,4,18,Man,Right,
3,6,1,0.80177249999997,['n'],0,left,['e'],1,1.6936335999998846,0.1,0,0,AccAcc,4,18,Man,Right,
4,6,1,1.1172231999998985,['n'],0,left,['e'],1,0.4638310000000274,0.4,0,0,AccAcc,4,18,Man,Right,
5,6,1,0.7513627999999244,['c'],1,left,['e'],1,0.3695620000000872,0.4,1,0,AccAcc,4,18,Man,Right,
6,6,1,0.851239699999951,['c'],1,left,['e'],1,0.4191483000001881,0.4,1,0,AccAcc,4,18,Man,Right,
7,6,1,0.5827829999998357,['c'],1,left,['e'],1,0.28669540000009874,0.4,1,0,AccAcc,4,18,Man,Right,
8,6,1,0.7012546000000839,['n'],0,left,['e'],1,0.31235780000019986,0.1,0,0,AccAcc,4,18,Man,Right,
9,6,1,0.6842348000000129,['c'],1,left,['e'],1,0.29068050000000767,0.1,1,0,AccAcc,4,18,Man,Right,
10,6,1,0.5510669000000235,['n'],0,left,['e'],1,0.27578349999998863,0.4,0,0,AccAcc,4,18,Man,Right,
11,6,1,0.6347698000001856,['n'],1,right,['e'],1,0.21005710000008548,0.1,1,0,AccAcc,4,18,Man,Right,
12,6,1,0.5839777999999569,['c'],1,left,['e'],1,0.22880469999995512,0.1,1,0,AccAcc,4,18,Man,Right,
13,6,1,0.767520900000136,['n'],0,left,['e'],1,0.22391379999999117,0.2,0,0,AccAcc,4,18,Man,Right,
14,6,1,0.5495599000000766,['c'],1,left,['e'],1,0.2761970999999903,0.1,1,0,AccAcc,4,18,Man,Right,
15,6,1,0.5833728000000065,['n'],1,right,['e'],1,0.3717950000000201,0.1,1,0,AccAcc,4,18,Man,Right,
16,6,1,1.1842739999999594,['c'],0,right,['e'],1,0.35963749999996253,0.1,0,0,AccAcc,4,18,Man,Right,
17,6,1,1.3010216000000128,['n'],1,right,['e'],1,1.4157419999999092,0.1,1,0,AccAcc,4,18,Man,Right,
18,6,1,1.2505923999999595,['n'],0,left,['e'],1,0.23967700000002878,0.2,0,0,AccAcc,4,18,Man,Right,
19,6,1,0.6845376999999644,['n'],0,left,['e'],1,0.25332590000016353,0.1,0,0,AccAcc,4,18,Man,Right,
20,6,1,2.9502164999998968,['c'],1,left,['u'],0,1.2317533000000367,0.4,0,0,AccAcc,4,18,Man,Right,
21,6,1,1.001084500000161,['n'],1,right,['e'],1,0.2496102999998584,0.4,1,0,AccAcc,4,18,Man,Right,
22,6,1,1.08429359999991,['c'],0,right,['e'],1,0.2780267000000549,0.2,0,0,AccAcc,4,18,Man,Right,
23,6,1,0.8847562000000835,['n'],1,right,['e'],1,1.0024375000000418,0.4,1,0,AccAcc,4,18,Man,Right,
24,6,1,0.6179043000001911,['c'],1,left,['e'],1,0.2999464999998054,0.1,1,0,AccAcc,4,18,Man,Right,
25,6,1,0.7001106000000163,['n'],1,right,['e'],1,0.21416640000006737,0.4,1,0,AccAcc,4,18,Man,Right,
26,6,1,4.067358000000013,['n'],1,right,['u'],0,0.685594300000048,0.2,0,0,AccAcc,4,18,Man,Right,
27,6,1,1.0342995999999403,['c'],0,right,['e'],1,1.2754399000000376,0.1,0,0,AccAcc,4,18,Man,Right,
28,6,1,0.551484500000015,['n'],1,right,['e'],1,0.2931828000000678,0.4,1,0,AccAcc,4,18,Man,Right,
29,6,1,0.8341927999999825,['n'],1,right,['e'],1,0.6826656000000639,0.2,1,0,AccAcc,4,18,Man,Right,
30,6,1,0.8843209999999999,['c'],1,left,['e'],1,0.702599699999837,0.2,1,0,AccAcc,4,18,Man,Right,
31,6,1,3.1166129000000637,['n'],0,left,['u'],0,0.7771330999999009,0.1,1,0,AccAcc,4,18,Man,Right,
32,6,1,1.0179212000000462,['n'],1,right,['e'],1,0.7395229999999628,0.2,1,0,AccAcc,4,18,Man,Right,
33,6,1,0.716643299999987,['c'],1,left,['e'],1,0.379953500000056,0.1,1,0,AccAcc,4,18,Man,Right,
34,6,1,0.8836743000001661,['c'],1,left,['e'],1,0.25165530000003855,0.4,1,0,AccAcc,4,18,Man,Right,
35,6,1,0.683920500000113,['c'],1,left,['e'],1,0.1859150000000227,0.2,1,0,AccAcc,4,18,Man,Right,
36,6,1,0.7849171999998816,['n'],1,right,['e'],1,0.1963780000000952,0.1,1,0,AccAcc,4,18,Man,Right,
37,6,1,0.8338893999998618,['n'],1,right,['e'],1,0.9730164000000059,0.2,1,0,AccAcc,4,18,Man,Right,
38,6,1,0.6846488999999565,['n'],1,right,['e'],1,0.23753919999990103,0.4,1,0,AccAcc,4,18,Man,Right,
39,6,1,0.699470200000178,['c'],1,left,['e'],1,0.7631347999999889,0.2,1,0,AccAcc,4,18,Man,Right,
40,6,1,0.8507041000000299,['n'],1,right,['e'],1,0.39619500000003427,0.2,1,0,AccAcc,4,18,Man,Right,
41,6,1,0.9840093000000252,['c'],0,right,['u'],0,1.0317331000001104,0.1,1,0,AccAcc,4,18,Man,Right,
42,6,1,3.8339967000001707,['n'],1,right,['u'],0,0.3271906999998464,0.1,0,0,AccAcc,4,18,Man,Right,
43,6,1,0.9338041000000885,['n'],1,right,['e'],1,0.6639771999998629,0.2,1,0,AccAcc,4,18,Man,Right,
44,6,1,0.8005961999999727,['c'],1,left,['u'],0,0.20723960000009356,0.4,0,0,AccAcc,4,18,Man,Right,
45,6,1,1.0674042000000554,['n'],1,right,['e'],1,0.3990141000001586,0.2,1,0,AccAcc,4,18,Man,Right,
46,6,1,2.567439800000102,['n'],1,right,['u'],0,0.6990335999998933,0.4,0,0,AccAcc,4,18,Man,Right,
47,6,1,1.8843484000001354,['c'],0,right,['u'],0,1.462092599999778,0.4,1,0,AccAcc,4,18,Man,Right,
48,6,1,2.1175667999998495,['n'],1,right,['e'],1,0.1855342000001201,0.2,1,0,AccAcc,4,18,Man,Right,
49,6,1,0.7834519999998975,['c'],0,right,['e'],1,0.38967780000007224,0.4,0,0,AccAcc,4,18,Man,Right,
50,6,1,1.1178079000001162,['n'],0,left,['e'],1,0.37950849999992897,0.4,0,0,AccAcc,4,18,Man,Right,
51,6,1,1.0998549000000821,['c'],1,left,['e'],1,0.33844859999999244,0.1,1,0,AccAcc,4,18,Man,Right,
52,6,1,2.001365999999962,['n'],0,left,['u'],0,0.487364899999875,0.2,1,0,AccAcc,4,18,Man,Right,
53,6,1,1.1326749999998356,['c'],0,right,['u'],0,0.23454220000007808,0.2,1,0,AccAcc,4,18,Man,Right,
54,6,1,1.067628300000024,['n'],1,right,['e'],1,0.5035507999998572,0.4,1,0,AccAcc,4,18,Man,Right,
55,6,1,0.7843043000000307,['c'],1,left,['e'],1,0.26242309999997815,0.2,1,0,AccAcc,4,18,Man,Right,
56,6,1,0.6332376999998814,['n'],1,right,['e'],1,0.08609619999992901,0.4,1,0,AccAcc,4,18,Man,Right,
57,6,1,0.7325475000000097,['c'],1,left,['e'],1,0.5358104000001731,0.1,1,0,AccAcc,4,18,Man,Right,
58,6,1,0.6339176999999836,['c'],1,left,['e'],1,0.17007459999990715,0.2,1,0,AccAcc,4,18,Man,Right,
59,6,1,0.6012807999998131,['n'],1,right,['e'],1,0.09376539999993838,0.2,1,0,AccAcc,4,18,Man,Right,
0,7,1,1.8844767000000502,['c'],1,left,['u'],0,1.7786935999999969,0.4,0,0,FastAcc,4,18,Man,Right,
1,7,1,0.7008941999999934,['c'],1,left,['e'],1,0.28978159999996933,0.4,1,0,FastAcc,4,18,Man,Right,
2,7,1,0.6679693999999472,['n'],1,right,['e'],1,0.046501700000135315,0.2,1,0,FastAcc,4,18,Man,Right,
3,7,1,1.1496669999999085,['n'],1,right,['e'],1,0.20848210000008294,0.4,1,0,FastAcc,4,18,Man,Right,
4,7,1,0.8344893000000866,['c'],1,left,['u'],0,0.15349749999995765,0.4,0,0,FastAcc,4,18,Man,Right,
5,7,1,0.7178587999999309,['n'],1,right,['e'],1,0.07293089999984659,0.2,1,0,FastAcc,4,18,Man,Right,
6,7,1,0.5666039999998702,['c'],1,left,['u'],0,0.11439710000013292,0.1,0,0,FastAcc,4,18,Man,Right,
7,7,1,0.6682416000003286,['c'],1,left,['e'],1,0.05275419999998121,0.2,1,0,FastAcc,4,18,Man,Right,
8,7,1,0.6329374000001735,['n'],1,right,['e'],1,0.06138959999998406,0.1,1,0,FastAcc,4,18,Man,Right,
9,7,1,0.6346298999997089,['c'],0,right,['e'],1,0.05090719999998328,0.1,0,0,FastAcc,4,18,Man,Right,
10,7,1,0.7676219999998466,['n'],1,right,['e'],1,0.03631619999987379,0.1,1,0,FastAcc,4,18,Man,Right,
11,7,1,1.6342435999999907,['n'],1,right,['e'],1,0.10010670000019672,0.4,1,0,FastAcc,4,18,Man,Right,
12,7,1,0.5015329000002566,['c'],1,left,['e'],1,0.17436600000019098,0.2,1,0,FastAcc,4,18,Man,Right,
13,7,1,1.3006046000000424,['c'],1,left,['u'],0,0.3259491999997408,0.2,0,0,FastAcc,4,18,Man,Right,
14,7,1,0.6182601999998951,['n'],1,right,['e'],1,0.050845700000081706,0.1,1,0,FastAcc,4,18,Man,Right,
15,7,1,0.5336017999998148,['c'],1,left,['e'],1,0.20609960000001593,0.4,1,0,FastAcc,4,18,Man,Right,
16,7,1,0.3346471000004385,['n'],1,right,['e'],1,0.04312270000036733,0.4,1,0,FastAcc,4,18,Man,Right,
17,7,1,0.6678618000000824,['c'],1,left,['e'],1,0.22500189999982467,0.1,1,0,FastAcc,4,18,Man,Right,
18,7,1,0.4522234999999455,['n'],0,left,['e'],1,0.04074530000025334,0.2,0,0,FastAcc,4,18,Man,Right,
19,7,1,0.3008261999998467,['c'],1,left,['e'],1,1.5815209000002142,0.1,1,0,FastAcc,4,18,Man,Right,
20,7,1,0.4334929999999986,['n'],1,right,['e'],1,0.01578460000018822,0.4,1,0,FastAcc,4,18,Man,Right,
21,7,1,0.3342981000000691,['c'],1,left,['e'],1,0.035753599999679864,0.2,1,0,FastAcc,4,18,Man,Right,
22,7,1,0.31672819999994317,['n'],1,right,['e'],1,0.055733499999860214,0.2,1,0,FastAcc,4,18,Man,Right,
23,7,1,0.2850266999998894,['c'],0,right,['e'],1,0.013351699999930133,0.2,0,0,FastAcc,4,18,Man,Right,
24,7,1,0.2841902999998638,['n'],1,right,['e'],1,0.01926789999970424,0.1,1,0,FastAcc,4,18,Man,Right,
25,7,1,0.8506506000003355,['n'],1,right,['e'],1,0.03512970000019777,0.1,1,0,FastAcc,4,18,Man,Right,
26,7,1,0.401268600000094,['c'],1,left,['e'],1,0.06735729999991236,0.4,1,0,FastAcc,4,18,Man,Right,
27,7,1,0.36735429999998814,['n'],1,right,['e'],1,0.05279339999970034,0.1,1,0,FastAcc,4,18,Man,Right,
28,7,1,0.4174940999996579,['c'],0,right,['u'],0,1.6039762999998857,0.1,1,0,FastAcc,4,18,Man,Right,
29,7,1,0.46768969999993715,['n'],0,left,['e'],1,0.020087100000182545,0.2,0,0,FastAcc,4,18,Man,Right,
30,7,1,0.5676836000002368,['c'],0,right,['e'],1,0.0629650999999285,0.4,0,0,FastAcc,4,18,Man,Right,
31,7,1,0.683542799999941,['n'],1,right,['e'],1,0.03557460000001811,0.4,1,0,FastAcc,4,18,Man,Right,
32,7,1,0.4512767999999596,['n'],1,right,['e'],1,0.05045810000001438,0.2,1,0,FastAcc,4,18,Man,Right,
33,7,1,0.4824699000000692,['n'],0,left,['e'],1,0.04750719999992725,0.2,0,0,FastAcc,4,18,Man,Right,
34,7,1,0.43290639999986524,['c'],1,left,['u'],0,1.9654921999999715,0.1,0,0,FastAcc,4,18,Man,Right,
35,7,1,0.4847079000001031,['n'],1,right,['e'],1,0.046874900000148045,0.4,1,0,FastAcc,4,18,Man,Right,
36,7,1,1.384138499999608,['c'],1,left,['u'],0,1.079059199999847,0.4,0,0,FastAcc,4,18,Man,Right,
37,7,1,0.38445069999988846,['n'],0,left,['e'],1,0.04712580000023081,0.2,0,0,FastAcc,4,18,Man,Right,
38,7,1,0.4681169000000409,['n'],0,left,['e'],1,0.028685099999620434,0.2,0,0,FastAcc,4,18,Man,Right,
39,7,1,0.5508103000001938,['n'],1,right,['e'],1,0.023923199999899225,0.4,1,0,FastAcc,4,18,Man,Right,
40,7,1,0.3843426999997064,['n'],1,right,['e'],1,0.0429735000002438,0.4,1,0,FastAcc,4,18,Man,Right,
41,7,1,0.36816510000016933,['n'],0,left,['e'],1,0.04463929999974425,0.2,0,0,FastAcc,4,18,Man,Right,
42,7,1,0.5179550999996536,['n'],1,right,['e'],1,0.024843400000008842,0.4,1,0,FastAcc,4,18,Man,Right,
43,7,1,0.5000331999999617,['n'],0,left,['e'],1,0.07085170000027574,0.4,0,0,FastAcc,4,18,Man,Right,
44,7,1,0.667691200000263,['n'],1,right,['e'],1,0.059294600000157516,0.2,1,0,FastAcc,4,18,Man,Right,
45,7,1,1.1003191999998307,['n'],0,left,['e'],1,0.23939179999979388,0.2,0,0,FastAcc,4,18,Man,Right,
46,7,1,2.5508350999998584,['n'],0,left,['e'],1,0.09853370000018913,0.1,0,0,FastAcc,4,18,Man,Right,
47,7,1,1.700529700000061,['n'],0,left,['u'],0,0.6369368000000577,0.1,1,0,FastAcc,4,18,Man,Right,
48,7,1,4.251074699999663,['n'],1,right,['u'],0,0.7964884999996684,0.2,0,0,FastAcc,4,18,Man,Right,
49,7,1,5.016642600000068,x,-99,left,none,-99,-99,0.1,-99,1,FastAcc,4,18,Man,Right,
50,7,1,1.117969699999776,['c'],0,right,['u'],0,0.3809636999999384,0.1,1,0,FastAcc,4,18,Man,Right,
51,7,1,1.7839404999999715,['n'],1,right,['u'],0,0.504303699999582,0.2,0,0,FastAcc,4,18,Man,Right,
52,7,1,1.0003136999998787,['n'],0,left,['u'],0,0.41471950000004654,0.4,1,0,FastAcc,4,18,Man,Right,
53,7,1,0.767768100000012,['n'],1,right,['u'],0,0.28963119999980336,0.4,0,0,FastAcc,4,18,Man,Right,
54,7,1,3.8006381000000147,['c'],0,right,['u'],0,0.8810526000002028,0.1,1,0,FastAcc,4,18,Man,Right,
55,7,1,1.9171541000000616,['c'],1,left,['u'],0,0.5315097999996397,0.1,0,0,FastAcc,4,18,Man,Right,
56,7,1,1.4345656000000417,['c'],1,left,['u'],0,0.2472952000002806,0.2,0,0,FastAcc,4,18,Man,Right,
57,7,1,2.450029299999642,['c'],1,left,['u'],0,0.3978116000002956,0.1,0,0,FastAcc,4,18,Man,Right,
58,7,1,3.4331506000003174,['c'],1,left,['e'],1,0.7117651999997179,0.1,1,0,FastAcc,4,18,Man,Right,
59,7,1,1.3013191000000006,['n'],1,right,['e'],1,0.08937040000000707,0.4,1,0,FastAcc,4,18,Man,Right,
0,8,1,0.7665899999997237,['n'],1,right,['u'],0,0.3491871999999603,0.1,0,0,FastFast,4,18,Man,Right,
1,8,1,0.5177551000001586,['n'],1,right,['e'],1,0.07619230000000243,0.1,1,0,FastFast,4,18,Man,Right,
2,8,1,1.8174489000002723,['n'],0,left,['e'],1,0.1312975999999253,0.1,0,0,FastFast,4,18,Man,Right,
3,8,1,0.9015090999996573,['c'],1,left,['e'],1,0.060275799999999435,0.4,1,0,FastFast,4,18,Man,Right,
4,8,1,0.43445680000013454,['n'],1,right,['e'],1,0.027262600000085513,0.4,1,0,FastFast,4,18,Man,Right,
5,8,1,0.3164142000000538,['c'],0,right,['u'],0,1.0394947999998294,0.1,1,0,FastFast,4,18,Man,Right,
6,8,1,0.7008762999998908,['c'],1,left,['u'],0,1.084658700000091,0.1,0,0,FastFast,4,18,Man,Right,
7,8,1,0.5519823999998152,['n'],1,right,['e'],1,0.04587730000002921,0.1,1,0,FastFast,4,18,Man,Right,
8,8,1,1.4678618000002643,['n'],1,right,['e'],1,0.035504800000126124,0.2,1,0,FastFast,4,18,Man,Right,
9,8,1,1.0012313000001996,['n'],1,right,['u'],0,0.07619369999974879,0.1,0,0,FastFast,4,18,Man,Right,
10,8,1,1.4510698000003686,['c'],0,right,['e'],1,0.8817890000000261,0.1,0,0,FastFast,4,18,Man,Right,
11,8,1,0.85066900000038,['c'],1,left,['e'],1,0.06290209999997387,0.4,1,0,FastFast,4,18,Man,Right,
12,8,1,1.4824710999996569,['c'],0,right,['u'],0,0.5005137999996805,0.2,1,0,FastFast,4,18,Man,Right,
13,8,1,0.5011748000001717,['c'],1,left,['e'],1,0.029563099999904807,0.2,1,0,FastFast,4,18,Man,Right,
14,8,1,0.4173779000002469,['n'],1,right,['u'],0,0.014149799999813695,0.4,0,0,FastFast,4,18,Man,Right,
15,8,1,0.5174989000001915,['c'],1,left,['e'],1,0.011472600000161037,0.2,1,0,FastFast,4,18,Man,Right,
16,8,1,0.5680013999999574,['n'],1,right,['u'],0,0.0377198999999564,0.1,0,0,FastFast,4,18,Man,Right,
17,8,1,0.3344296000000213,['c'],1,left,['e'],1,0.02537849999998798,0.2,1,0,FastFast,4,18,Man,Right,
18,8,1,0.301145699999779,['n'],1,right,['u'],0,0.06291379999993296,0.2,0,0,FastFast,4,18,Man,Right,
19,8,1,0.45138360000009925,['c'],1,left,['e'],1,0.028276499999719817,0.4,1,0,FastFast,4,18,Man,Right,
20,8,1,0.3013003999999455,['n'],0,left,['u'],0,0.04914070000040738,0.2,1,0,FastFast,4,18,Man,Right,
21,8,1,1.7171081000001323,['c'],0,right,['u'],0,0.06110480000006646,0.2,1,0,FastFast,4,18,Man,Right,
22,8,1,0.3832545999998729,['c'],1,left,['e'],1,0.06222620000016832,0.2,1,0,FastFast,4,18,Man,Right,
23,8,1,0.7680245000001378,['n'],1,right,['e'],1,0.031076499999926455,0.2,1,0,FastFast,4,18,Man,Right,
24,8,1,0.5176636000001054,['c'],1,left,['e'],1,0.07496739999987767,0.4,1,0,FastFast,4,18,Man,Right,
25,8,1,0.43485340000006545,['n'],1,right,['e'],1,0.04220159999977113,0.1,1,0,FastFast,4,18,Man,Right,
26,8,1,1.716853600000377,['n'],1,right,['u'],0,0.2456971000001431,0.2,0,0,FastFast,4,18,Man,Right,
27,8,1,1.0842250000000604,['n'],1,right,['u'],0,0.05099419999987731,0.2,0,0,FastFast,4,18,Man,Right,
28,8,1,0.6001086999999643,['c'],1,left,['e'],1,0.09096620000036637,0.4,1,0,FastFast,4,18,Man,Right,
29,8,1,0.9846031000001858,['n'],0,left,['u'],0,0.08289439999998649,0.1,1,0,FastFast,4,18,Man,Right,
30,8,1,0.5170892000001004,['n'],1,right,['e'],1,0.5088627000000088,0.4,1,0,FastFast,4,18,Man,Right,
31,8,1,0.5007952000000842,['n'],0,left,['u'],0,1.271127499999693,0.4,1,0,FastFast,4,18,Man,Right,
32,8,1,0.6353742999999668,['c'],1,left,['e'],1,0.07751370000005409,0.1,1,0,FastFast,4,18,Man,Right,
33,8,1,0.5519807000000583,['n'],1,right,['e'],1,0.03937949999999546,0.2,1,0,FastFast,4,18,Man,Right,
34,8,1,0.6336354999998548,['n'],1,right,['e'],1,0.046887400000287016,0.4,1,0,FastFast,4,18,Man,Right,
35,8,1,0.46548580000035145,['n'],1,right,['e'],1,0.04588449999982913,0.4,1,0,FastFast,4,18,Man,Right,
36,8,1,1.068793000000369,['n'],1,right,['e'],1,0.05061950000026627,0.1,1,0,FastFast,4,18,Man,Right,
37,8,1,0.5679685000000063,['n'],1,right,['e'],1,0.06023319999985688,0.4,1,0,FastFast,4,18,Man,Right,
38,8,1,0.6837755999999899,['c'],1,left,['e'],1,0.01751190000004499,0.4,1,0,FastFast,4,18,Man,Right,
39,8,1,0.516552000000047,['c'],0,right,['e'],1,0.09427690000029543,0.2,0,0,FastFast,4,18,Man,Right,
40,8,1,1.166902399999799,['c'],0,right,['e'],1,0.047838100000262784,0.2,0,0,FastFast,4,18,Man,Right,
41,8,1,0.8008053000003201,['c'],0,right,['u'],0,2.272145100000216,0.2,1,0,FastFast,4,18,Man,Right,
42,8,1,0.6676225999999588,['c'],1,left,['e'],1,0.05998589999990145,0.1,1,0,FastFast,4,18,Man,Right,
43,8,1,0.6183196000001772,['c'],1,left,['e'],1,0.0676327000001038,0.4,1,0,FastFast,4,18,Man,Right,
44,8,1,0.5492558999999346,['c'],1,left,['e'],1,0.013975000000300497,0.4,1,0,FastFast,4,18,Man,Right,
45,8,1,0.38353790000019217,['c'],1,left,['e'],1,1.3913700999996763,0.4,1,0,FastFast,4,18,Man,Right,
46,8,1,2.00021629999992,['c'],1,left,['u'],0,0.20322919999989608,0.1,0,0,FastFast,4,18,Man,Right,
47,8,1,1.818119900000056,['n'],1,right,['u'],0,0.20463370000015857,0.2,0,0,FastFast,4,18,Man,Right,
48,8,1,1.4329210000000785,['c'],0,right,['e'],1,0.28607489999967584,0.1,0,0,FastFast,4,18,Man,Right,
49,8,1,0.6502061999999569,['c'],1,left,['e'],1,0.026572000000214757,0.1,1,0,FastFast,4,18,Man,Right,
50,8,1,0.5177616999999373,['c'],1,left,['e'],1,0.007971399999860296,0.4,1,0,FastFast,4,18,Man,Right,
51,8,1,0.48393540000006396,['c'],1,left,['e'],1,0.03897129999995741,0.4,1,0,FastFast,4,18,Man,Right,
52,8,1,0.516859199999999,['n'],1,right,['u'],0,0.01834720000033485,0.4,0,0,FastFast,4,18,Man,Right,
53,8,1,1.5341730000000098,['c'],1,left,['e'],1,0.1981937000000471,0.1,1,0,FastFast,4,18,Man,Right,
54,8,1,0.9996596000000864,['c'],1,left,['e'],1,0.02568009999959031,0.1,1,0,FastFast,4,18,Man,Right,
55,8,1,1.3504146999998738,['c'],1,left,['e'],1,0.05347119999987626,0.2,1,0,FastFast,4,18,Man,Right,
56,8,1,0.4675425999998879,['c'],0,right,['e'],1,0.04990300000008574,0.1,0,0,FastFast,4,18,Man,Right,
57,8,1,0.5001702999998088,['c'],1,left,['e'],1,0.031261199999789824,0.2,1,0,FastFast,4,18,Man,Right,
58,8,1,0.3173864999998841,['c'],1,left,['e'],1,0.0033931000002667133,0.4,1,0,FastFast,4,18,Man,Right,
59,8,1,0.25032780000037747,['c'],1,left,['e'],1,0.07553349999989223,0.2,1,0,FastFast,4,18,Man,Right,
0,9,1,1.3159719000000223,['c'],1,left,['e'],1,2.3301290000003974,0.2,1,0,AccFast,4,18,Man,Right,
1,9,1,0.5688155000002553,['n'],1,right,['e'],1,0.536185899999964,0.4,1,0,AccFast,4,18,Man,Right,
2,9,1,1.5332072000001062,['n'],1,right,['u'],0,0.5998662000001787,0.1,0,0,AccFast,4,18,Man,Right,
3,9,1,0.5018279000000803,['c'],1,left,['e'],1,0.605348199999753,0.4,1,0,AccFast,4,18,Man,Right,
4,9,1,0.5995542000000569,['n'],1,right,['e'],1,0.0176857999999811,0.1,1,0,AccFast,4,18,Man,Right,
5,9,1,0.8336460000000443,['n'],1,right,['e'],1,0.3047958000001927,0.2,1,0,AccFast,4,18,Man,Right,
6,9,1,0.7330915000002278,['c'],1,left,['e'],1,0.361877800000002,0.4,1,0,AccFast,4,18,Man,Right,
7,9,1,0.5673893000002863,['n'],1,right,['e'],1,0.0552136999999675,0.2,1,0,AccFast,4,18,Man,Right,
8,9,1,0.7162180000000262,['n'],1,right,['e'],1,0.09099500000002081,0.1,1,0,AccFast,4,18,Man,Right,
9,9,1,0.649690499999906,['n'],1,right,['e'],1,0.19185520000019096,0.4,1,0,AccFast,4,18,Man,Right,
10,9,1,0.4007600999998431,['n'],1,right,['e'],1,0.05827540000018416,0.2,1,0,AccFast,4,18,Man,Right,
11,9,1,0.38440759999957663,['c'],1,left,['e'],1,0.07542999999986932,0.2,1,0,AccFast,4,18,Man,Right,
12,9,1,0.33438589999968826,['n'],0,left,['e'],1,0.06121869999969931,0.4,0,0,AccFast,4,18,Man,Right,
13,9,1,1.000211500000205,['n'],1,right,['e'],1,0.006787700000131736,0.4,1,0,AccFast,4,18,Man,Right,
14,9,1,0.8021373999999923,['n'],1,right,['e'],1,0.04001600000037797,0.1,1,0,AccFast,4,18,Man,Right,
15,9,1,0.4158388000000741,['n'],1,right,['e'],1,0.008696599999893806,0.2,1,0,AccFast,4,18,Man,Right,
16,9,1,0.4326723000003767,['n'],0,left,['e'],1,0.02557600000000093,0.1,0,0,AccFast,4,18,Man,Right,
17,9,1,0.48411029999988386,['n'],0,left,['e'],1,0.023372500000277796,0.2,0,0,AccFast,4,18,Man,Right,
18,9,1,0.4503668000002108,['n'],0,left,['e'],1,0.03882369999973889,0.2,0,0,AccFast,4,18,Man,Right,
19,9,1,0.4506753000000572,['n'],1,right,['e'],1,0.05435369999986506,0.1,1,0,AccFast,4,18,Man,Right,
20,9,1,2.301269400000365,['n'],1,right,['e'],1,0.2503177999997206,0.1,1,0,AccFast,4,18,Man,Right,
21,9,1,0.5169316999999864,['n'],0,left,['e'],1,0.07832820000021457,0.4,0,0,AccFast,4,18,Man,Right,
22,9,1,3.3841975000000275,['c'],1,left,['e'],1,0.8227130999998735,0.4,1,0,AccFast,4,18,Man,Right,
23,9,1,0.9178231000000778,['n'],1,right,['e'],1,0.19530329999997775,0.2,1,0,AccFast,4,18,Man,Right,
24,9,1,0.9513520999998946,['n'],1,right,['e'],1,0.023848899999848072,0.4,1,0,AccFast,4,18,Man,Right,
25,9,1,3.665506600000299,['n'],0,left,['u'],0,1.1284593000000314,0.1,1,0,AccFast,4,18,Man,Right,
26,9,1,1.5002847999999176,['c'],1,left,['u'],0,0.9137225999998009,0.1,0,0,AccFast,4,18,Man,Right,
27,9,1,3.9168831000001774,['c'],1,left,['u'],0,0.7869210999997449,0.2,0,0,AccFast,4,18,Man,Right,
28,9,1,1.7660891000000447,['n'],0,left,['e'],1,0.2880653000001985,0.2,0,0,AccFast,4,18,Man,Right,
29,9,1,2.0002407000001767,['n'],1,right,['e'],1,0.31079470000031506,0.2,1,0,AccFast,4,18,Man,Right,
30,9,1,1.0680891000001793,['c'],1,left,['e'],1,1.0575219000002107,0.4,1,0,AccFast,4,18,Man,Right,
31,9,1,2.3345155000001796,['c'],0,right,['u'],0,0.7014601999999286,0.1,1,0,AccFast,4,18,Man,Right,
32,9,1,2.5170609000001605,['c'],1,left,['u'],0,0.3024098999999296,0.1,0,0,AccFast,4,18,Man,Right,
33,9,1,0.9017729000001964,['c'],1,left,['e'],1,0.20896640000000843,0.4,1,0,AccFast,4,18,Man,Right,
34,9,1,0.8495981999999458,['c'],1,left,['e'],1,0.29873140000017884,0.1,1,0,AccFast,4,18,Man,Right,
35,9,1,0.9850603999998384,['c'],0,right,['u'],0,0.80838760000006,0.2,1,0,AccFast,4,18,Man,Right,
36,9,1,3.1681448999997883,['n'],0,left,['u'],0,0.620480999999927,0.1,1,0,AccFast,4,18,Man,Right,
37,9,1,0.9173031000000265,['c'],1,left,['e'],1,0.43457260000013775,0.2,1,0,AccFast,4,18,Man,Right,
38,9,1,1.0514149000000543,['c'],1,left,['e'],1,0.2813327999997455,0.2,1,0,AccFast,4,18,Man,Right,
39,9,1,0.7178556999997454,['n'],1,right,['e'],1,0.25877810000019963,0.2,1,0,AccFast,4,18,Man,Right,
40,9,1,0.4505224999998063,['c'],1,left,['e'],1,0.0731857000000673,0.4,1,0,AccFast,4,18,Man,Right,
41,9,1,0.8843410999998014,['n'],0,left,['e'],1,0.006469399999787129,0.1,0,0,AccFast,4,18,Man,Right,
42,9,1,0.7163738999997804,['n'],0,left,['e'],1,0.0434995999999046,0.2,0,0,AccFast,4,18,Man,Right,
43,9,1,0.617974299999787,['n'],1,right,['e'],1,0.019855200000165496,0.4,1,0,AccFast,4,18,Man,Right,
44,9,1,0.4509447000000364,['c'],1,left,['e'],1,0.0033512999998492887,0.4,1,0,AccFast,4,18,Man,Right,
45,9,1,0.5168590999996923,['n'],1,right,['e'],1,0.0646575999999186,0.4,1,0,AccFast,4,18,Man,Right,
46,9,1,0.38363840000010896,['c'],1,left,['e'],1,0.001213000000007014,0.4,1,0,AccFast,4,18,Man,Right,
47,9,1,0.9660981999995784,['n'],1,right,['e'],1,0.9405507999999827,0.1,1,0,AccFast,4,18,Man,Right,
48,9,1,0.5002730000001065,['n'],1,right,['e'],1,0.037645599999905244,0.1,1,0,AccFast,4,18,Man,Right,
49,9,1,0.4336930999998003,['n'],1,right,['e'],1,0.005303600000388542,0.2,1,0,AccFast,4,18,Man,Right,
50,9,1,0.5506914999996297,['c'],1,left,['e'],1,0.03333100000008926,0.4,1,0,AccFast,4,18,Man,Right,
51,9,1,0.43344349999961196,['n'],1,right,['e'],1,0.04925980000007257,0.1,1,0,AccFast,4,18,Man,Right,
52,9,1,0.4849405999998453,['n'],1,right,['e'],1,0.04578559999981735,0.4,1,0,AccFast,4,18,Man,Right,
53,9,1,0.5498475999997936,['n'],1,right,['e'],1,0.05660459999990053,0.2,1,0,AccFast,4,18,Man,Right,
54,9,1,0.43286269999998694,['n'],0,left,['e'],1,0.02353820000007545,0.1,0,0,AccFast,4,18,Man,Right,
55,9,1,1.0839516000000913,['c'],1,left,['e'],1,0.5408032000000276,0.4,1,0,AccFast,4,18,Man,Right,
56,9,1,0.4842975000001388,['n'],1,right,['e'],1,0.0072078999996847415,0.4,1,0,AccFast,4,18,Man,Right,
57,9,1,0.8503169999999045,['c'],1,left,['e'],1,0.022874700000102166,0.1,1,0,AccFast,4,18,Man,Right,
58,9,1,1.3678061999999045,['n'],1,right,['u'],0,0.5138233000002401,0.1,0,0,AccFast,4,18,Man,Right,
59,9,1,4.033540699999776,['c'],0,right,['u'],0,0.23993119999977353,0.2,1,0,AccFast,4,18,Man,Right,
0,10,1,0.9015177999999651,['n'],0,left,['e'],1,0.9984963000001699,0.4,0,0,AccAcc,4,18,Man,Right,
1,10,1,1.1515776000001097,['n'],0,left,['e'],1,0.2902902999999242,0.1,0,0,AccAcc,4,18,Man,Right,
2,10,1,0.9166829000000689,['c'],1,left,['u'],0,0.5178927999995722,0.2,0,0,AccAcc,4,18,Man,Right,
3,10,1,0.7164287000000513,['n'],1,right,['e'],1,0.30953580000004877,0.2,1,0,AccAcc,4,18,Man,Right,
4,10,1,0.700481100000161,['c'],1,left,['e'],1,0.32120979999990595,0.2,1,0,AccAcc,4,18,Man,Right,
5,10,1,0.585234500000297,['n'],0,left,['e'],1,0.23808520000011413,0.1,0,0,AccAcc,4,18,Man,Right,
6,10,1,0.5168298999997205,['n'],0,left,['e'],1,0.1624603999998726,0.2,0,0,AccAcc,4,18,Man,Right,
7,10,1,0.501117400000112,['n'],0,left,['e'],1,0.12197210000022096,0.2,0,0,AccAcc,4,18,Man,Right,
8,10,1,0.48344300000007934,['c'],0,right,['e'],1,0.11666299999978946,0.1,0,0,AccAcc,4,18,Man,Right,
9,10,1,0.38459659999989526,['n'],1,right,['e'],1,0.09858919999987847,0.4,1,0,AccAcc,4,18,Man,Right,
10,10,1,0.401490400000057,['c'],1,left,['e'],1,0.12876719999985653,0.2,1,0,AccAcc,4,18,Man,Right,
11,10,1,0.3339277000000038,['n'],1,right,['e'],1,0.08182899999974325,0.1,1,0,AccAcc,4,18,Man,Right,
12,10,1,0.43426339999996344,['n'],1,right,['e'],1,0.1264765000000807,0.1,1,0,AccAcc,4,18,Man,Right,
13,10,1,0.4342868999997336,['n'],0,left,['e'],1,0.13820429999987027,0.4,0,0,AccAcc,4,18,Man,Right,
14,10,1,0.5007934999998724,['n'],0,left,['e'],1,0.09911839999995209,0.1,0,0,AccAcc,4,18,Man,Right,
15,10,1,0.8852339000000029,['n'],0,left,['e'],1,0.6379494000002524,0.2,0,0,AccAcc,4,18,Man,Right,
16,10,1,0.8844217999999273,['c'],1,left,['e'],1,0.37190400000008594,0.4,1,0,AccAcc,4,18,Man,Right,
17,10,1,0.7000659999998788,['n'],1,right,['e'],1,0.34735109999974156,0.4,1,0,AccAcc,4,18,Man,Right,
18,10,1,0.7665594000000056,['n'],1,right,['e'],1,0.33823519999987184,0.1,1,0,AccAcc,4,18,Man,Right,
19,10,1,0.7177956999998969,['c'],1,left,['e'],1,0.32944129999987126,0.4,1,0,AccAcc,4,18,Man,Right,
20,10,1,0.7335138999997071,['n'],1,right,['e'],1,0.28896020000001954,0.2,1,0,AccAcc,4,18,Man,Right,
21,10,1,1.633563000000322,['c'],0,right,['u'],0,0.9348574999999073,0.1,1,0,AccAcc,4,18,Man,Right,
22,10,1,1.5011004000002686,['c'],0,right,['u'],0,0.34382129999994504,0.2,1,0,AccAcc,4,18,Man,Right,
23,10,1,1.8342399000002843,['n'],1,right,['u'],0,0.4676484999999957,0.1,0,0,AccAcc,4,18,Man,Right,
24,10,1,0.6510794999999234,['c'],1,left,['e'],1,0.37738069999977597,0.4,1,0,AccAcc,4,18,Man,Right,
25,10,1,0.7669741999998223,['n'],1,right,['e'],1,0.622491699999955,0.4,1,0,AccAcc,4,18,Man,Right,
26,10,1,1.4336539999999331,['c'],1,left,['u'],0,0.5427804000000833,0.1,0,0,AccAcc,4,18,Man,Right,
27,10,1,0.8500199999998586,['n'],1,right,['e'],1,0.5858862000000045,0.1,1,0,AccAcc,4,18,Man,Right,
28,10,1,1.4992213999998967,['n'],1,right,['u'],0,0.5381020999998327,0.2,0,0,AccAcc,4,18,Man,Right,
29,10,1,0.6996122999998988,['c'],1,left,['e'],1,0.29903150000018286,0.2,1,0,AccAcc,4,18,Man,Right,
30,10,1,1.1160420999999587,['c'],1,left,['e'],1,0.19607029999997394,0.2,1,0,AccAcc,4,18,Man,Right,
31,10,1,0.884144600000127,['n'],1,right,['e'],1,0.41046259999984613,0.2,1,0,AccAcc,4,18,Man,Right,
32,10,1,1.5998723000002428,['c'],1,left,['e'],1,0.30151079999996,0.1,1,0,AccAcc,4,18,Man,Right,
33,10,1,0.768160899999657,['n'],1,right,['e'],1,0.2292978000000403,0.4,1,0,AccAcc,4,18,Man,Right,
34,10,1,1.3666626999997789,['c'],0,right,['u'],0,0.19943800000010015,0.2,1,0,AccAcc,4,18,Man,Right,
35,10,1,0.7843851999996332,['c'],1,left,['e'],1,0.2099134000000049,0.1,1,0,AccAcc,4,18,Man,Right,
36,10,1,0.9342117000001053,['n'],0,left,['e'],1,0.35908459999973275,0.1,0,0,AccAcc,4,18,Man,Right,
37,10,1,0.7188305999998192,['c'],1,left,['e'],1,0.27048070000000735,0.4,1,0,AccAcc,4,18,Man,Right,
38,10,1,0.5996783000000505,['n'],1,right,['e'],1,0.19063219999998182,0.4,1,0,AccAcc,4,18,Man,Right,
39,10,1,0.5000631000002613,['c'],1,left,['e'],1,0.2297126000003118,0.4,1,0,AccAcc,4,18,Man,Right,
40,10,1,0.4345376999999644,['n'],1,right,['e'],1,0.20586269999967044,0.4,1,0,AccAcc,4,18,Man,Right,
41,10,1,0.4847420000000966,['c'],1,left,['e'],1,0.180057399999896,0.4,1,0,AccAcc,4,18,Man,Right,
42,10,1,0.41733830000021044,['n'],1,right,['e'],1,0.14180179999993925,0.4,1,0,AccAcc,4,18,Man,Right,
43,10,1,0.48454439999977694,['n'],1,right,['e'],1,0.07165359999999055,0.4,1,0,AccAcc,4,18,Man,Right,
44,10,1,0.3671980999997686,['c'],1,left,['e'],1,0.10422969999990528,0.4,1,0,AccAcc,4,18,Man,Right,
45,10,1,0.3670052000002215,['n'],1,right,['e'],1,0.10408250000000407,0.4,1,0,AccAcc,4,18,Man,Right,
46,10,1,0.43486550000034185,['c'],1,left,['e'],1,0.08487250000007407,0.2,1,0,AccAcc,4,18,Man,Right,
47,10,1,0.43307180000010703,['n'],1,right,['e'],1,0.034692599999743834,0.4,1,0,AccAcc,4,18,Man,Right,
48,10,1,1.2984925000000658,['c'],0,right,['u'],0,0.46471050000036485,0.1,1,0,AccAcc,4,18,Man,Right,
49,10,1,0.5842343999997865,['c'],1,left,['e'],1,0.05570129999978235,0.4,1,0,AccAcc,4,18,Man,Right,
50,10,1,1.0504608000001099,['c'],1,left,['e'],1,0.9266457000003356,0.2,1,0,AccAcc,4,18,Man,Right,
51,10,1,0.8508249999999862,['n'],0,left,['u'],0,0.4098668000001453,0.1,1,0,AccAcc,4,18,Man,Right,
52,10,1,2.3348430000000917,['n'],1,right,['u'],0,0.36713749999989886,0.1,0,0,AccAcc,4,18,Man,Right,
53,10,1,0.7840288000002147,['n'],1,right,['e'],1,0.3233817000000272,0.1,1,0,AccAcc,4,18,Man,Right,
54,10,1,0.7517038999999386,['c'],1,left,['e'],1,0.44415780000008453,0.2,1,0,AccAcc,4,18,Man,Right,
55,10,1,0.7005371999998715,['n'],1,right,['e'],1,0.3998788999997487,0.2,1,0,AccAcc,4,18,Man,Right,
56,10,1,0.9175195999996504,['c'],0,right,['e'],1,0.4774358999998185,0.2,0,0,AccAcc,4,18,Man,Right,
57,10,1,1.400882299999921,['n'],1,right,['u'],0,0.5652782000001935,0.1,0,0,AccAcc,4,18,Man,Right,
58,10,1,0.8844765000003463,['n'],1,right,['e'],1,0.33371249999981956,0.1,1,0,AccAcc,4,18,Man,Right,
59,10,1,0.8495571999997082,['c'],1,left,['e'],1,0.5126992999998947,0.2,1,0,AccAcc,4,18,Man,Right,
0,11,1,0.8010254000000714,['n'],1,right,['e'],1,0.7164344000002529,0.4,1,0,FastAcc,4,18,Man,Right,
1,11,1,1.0006970000004003,['n'],0,left,['e'],1,0.0589775000003101,0.1,0,0,FastAcc,4,18,Man,Right,
2,11,1,0.6670661000002838,['c'],1,left,['e'],1,0.4635670000002392,0.2,1,0,FastAcc,4,18,Man,Right,
3,11,1,0.39989809999997306,['n'],1,right,['e'],1,1.9197537000000011,0.2,1,0,FastAcc,4,18,Man,Right,
4,11,1,0.5007802999998603,['c'],1,left,['e'],1,0.7379915000001347,0.2,1,0,FastAcc,4,18,Man,Right,
5,11,1,0.3175034999999298,['n'],0,left,['e'],1,0.02572119999967981,0.1,0,0,FastAcc,4,18,Man,Right,
6,11,1,0.5509956999999304,['n'],1,right,['e'],1,0.05279789999985951,0.4,1,0,FastAcc,4,18,Man,Right,
7,11,1,0.6000395999999455,['n'],1,right,['e'],1,0.04604060000019672,0.1,1,0,FastAcc,4,18,Man,Right,
8,11,1,2.750033699999676,['n'],1,right,['u'],0,1.07167359999994,0.1,0,0,FastAcc,4,18,Man,Right,
9,11,1,0.6845880000000761,['c'],0,right,['u'],0,1.3567941999999675,0.2,1,0,FastAcc,4,18,Man,Right,
10,11,1,0.5846029999997882,['n'],1,right,['e'],1,0.01826679999976477,0.1,1,0,FastAcc,4,18,Man,Right,
11,11,1,1.0175845999997364,['n'],1,right,['e'],1,0.04246899999998277,0.2,1,0,FastAcc,4,18,Man,Right,
12,11,1,0.4845559000000321,['n'],1,right,['e'],1,0.04012640000019019,0.4,1,0,FastAcc,4,18,Man,Right,
13,11,1,0.8837456999999631,['c'],1,left,['e'],1,0.02154549999977462,0.4,1,0,FastAcc,4,18,Man,Right,
14,11,1,0.8346846999997979,['n'],0,left,['e'],1,0.02193710000028659,0.1,0,0,FastAcc,4,18,Man,Right,
15,11,1,0.6183449999998629,['n'],1,right,['e'],1,0.030920800000330928,0.1,1,0,FastAcc,4,18,Man,Right,
16,11,1,0.5003244000004088,['n'],0,left,['e'],1,0.7316827999998168,0.1,0,0,FastAcc,4,18,Man,Right,
17,11,1,0.9322319000002608,['c'],1,left,['u'],0,2.955898299999717,0.4,0,0,FastAcc,4,18,Man,Right,
18,11,1,0.8501919000000271,['c'],1,left,['u'],0,3.0627564999999777,0.4,0,0,FastAcc,4,18,Man,Right,
19,11,1,0.7849264999999832,['n'],1,right,['e'],1,0.06289339999966614,0.1,1,0,FastAcc,4,18,Man,Right,
20,11,1,0.6178907000003164,['n'],0,left,['e'],1,0.7094495999999708,0.1,0,0,FastAcc,4,18,Man,Right,
21,11,1,0.5844802000001437,['n'],0,left,['e'],1,0.35639579999997295,0.2,0,0,FastAcc,4,18,Man,Right,
22,11,1,1.0176338000001124,['c'],1,left,['e'],1,0.3361987000002955,0.2,1,0,FastAcc,4,18,Man,Right,
23,11,1,2.434217400000307,['c'],1,left,['u'],0,0.5651147999997193,0.1,0,0,FastAcc,4,18,Man,Right,
24,11,1,0.8342738000001191,['c'],1,left,['e'],1,0.3183478000000832,0.4,1,0,FastAcc,4,18,Man,Right,
25,11,1,0.4991901000003054,['n'],1,right,['e'],1,0.06516749999991589,0.2,1,0,FastAcc,4,18,Man,Right,
26,11,1,0.6838485999996919,['n'],1,right,['e'],1,0.11740650000001551,0.4,1,0,FastAcc,4,18,Man,Right,
27,11,1,0.4338085000003957,['n'],0,left,['e'],1,0.032406299999820476,0.1,0,0,FastAcc,4,18,Man,Right,
28,11,1,1.117237599999953,['c'],1,left,['u'],0,0.5492081999996117,0.2,0,0,FastAcc,4,18,Man,Right,
29,11,1,1.1674201000000721,['c'],1,left,['e'],1,0.4671667000002344,0.4,1,0,FastAcc,4,18,Man,Right,
30,11,1,2.2171604000000116,['c'],0,right,['u'],0,0.6656803999999283,0.1,1,0,FastAcc,4,18,Man,Right,
31,11,1,1.3839066999998977,['c'],1,left,['u'],0,0.905982799999947,0.1,0,0,FastAcc,4,18,Man,Right,
32,11,1,0.7172472000002017,['n'],1,right,['e'],1,0.07600550000006479,0.2,1,0,FastAcc,4,18,Man,Right,
33,11,1,0.5837145999998938,['n'],1,right,['e'],1,0.03666919999977836,0.4,1,0,FastAcc,4,18,Man,Right,
34,11,1,0.5012074999999641,['n'],1,right,['e'],1,0.04989179999984117,0.4,1,0,FastAcc,4,18,Man,Right,
35,11,1,0.5666169999999511,['c'],1,left,['e'],1,0.027200399999856018,0.4,1,0,FastAcc,4,18,Man,Right,
36,11,1,1.0177653999999166,['c'],1,left,['e'],1,0.01969150000013542,0.4,1,0,FastAcc,4,18,Man,Right,
37,11,1,0.45079909999958545,['n'],1,right,['e'],1,0.05137299999978495,0.2,1,0,FastAcc,4,18,Man,Right,
38,11,1,0.7178524999999354,['c'],1,left,['e'],1,0.08753269999988333,0.4,1,0,FastAcc,4,18,Man,Right,
39,11,1,0.45039200000019264,['n'],1,right,['e'],1,0.05169399999977031,0.2,1,0,FastAcc,4,18,Man,Right,
40,11,1,2.933302399999775,['n'],0,left,['u'],0,0.4147751000000426,0.1,1,0,FastAcc,4,18,Man,Right,
41,11,1,0.6659759999997732,['n'],0,left,['u'],0,0.2951719000002413,0.2,1,0,FastAcc,4,18,Man,Right,
42,11,1,0.785584999999628,['n'],1,right,['e'],1,0.12653000000000247,0.4,1,0,FastAcc,4,18,Man,Right,
43,11,1,0.517860599999949,['n'],1,right,['e'],1,0.006931299999905605,0.4,1,0,FastAcc,4,18,Man,Right,
44,11,1,0.4340802000001531,['n'],1,right,['e'],1,0.02347970000027999,0.4,1,0,FastAcc,4,18,Man,Right,
45,11,1,0.3998747999999068,['n'],1,right,['e'],1,0.05761500000016895,0.2,1,0,FastAcc,4,18,Man,Right,
46,11,1,0.5680536999998367,['n'],1,right,['e'],1,0.05067840000037904,0.1,1,0,FastAcc,4,18,Man,Right,
47,11,1,0.5673790999999255,['n'],1,right,['u'],0,0.7966133999998419,0.1,0,0,FastAcc,4,18,Man,Right,
48,11,1,3.6320929999997134,['n'],1,right,['u'],0,0.84678329999997,0.2,0,0,FastAcc,4,18,Man,Right,
49,11,1,1.0344523999997364,['c'],1,left,['u'],0,0.29239700000016455,0.1,0,0,FastAcc,4,18,Man,Right,
50,11,1,0.9828792000002977,['n'],0,left,['e'],1,0.1174193000001651,0.2,0,0,FastAcc,4,18,Man,Right,
51,11,1,0.6174667999998746,['c'],1,left,['e'],1,0.5064228999999614,0.4,1,0,FastAcc,4,18,Man,Right,
52,11,1,0.6519055999997363,['n'],1,right,['e'],1,0.0932740999996895,0.1,1,0,FastAcc,4,18,Man,Right,
53,11,1,1.4673863999996684,['c'],0,right,['u'],0,0.4497174999996787,0.1,1,0,FastAcc,4,18,Man,Right,
54,11,1,0.5678175000002739,['n'],1,right,['e'],1,0.07538329999988491,0.2,1,0,FastAcc,4,18,Man,Right,
55,11,1,0.9177699000001667,['c'],1,left,['e'],1,0.47148189999961687,0.2,1,0,FastAcc,4,18,Man,Right,
56,11,1,0.8511757000001126,['c'],1,left,['e'],1,0.05242760000010094,0.4,1,0,FastAcc,4,18,Man,Right,
57,11,1,0.41636689999995724,['n'],1,right,['e'],1,0.06851120000010269,0.4,1,0,FastAcc,4,18,Man,Right,
58,11,1,0.4833699999999226,['c'],1,left,['e'],1,0.5758332999998856,0.2,1,0,FastAcc,4,18,Man,Right,
59,11,1,1.0665930999998636,['c'],1,left,['u'],0,0.5775514000001749,0.2,0,0,FastAcc,4,18,Man,Right,
0,12,1,0.3669227000000319,['n'],1,right,['e'],1,0.02779549999968367,0.4,1,0,FastFast,4,18,Man,Right,
1,12,1,0.768130100000235,['c'],0,right,['e'],1,0.31774989999985337,0.4,0,0,FastFast,4,18,Man,Right,
2,12,1,0.70049280000012,['n'],1,right,['e'],1,0.0077289000000746455,0.4,1,0,FastFast,4,18,Man,Right,
3,12,1,0.5500072999998338,['c'],1,left,['e'],1,0.019201000000066415,0.2,1,0,FastFast,4,18,Man,Right,
4,12,1,0.4845191000003979,['n'],0,left,['u'],0,0.944840799999838,0.2,1,0,FastFast,4,18,Man,Right,
5,12,1,0.4844481000000087,['n'],1,right,['e'],1,0.011042800000268471,0.1,1,0,FastFast,4,18,Man,Right,
6,12,1,0.5835193999996591,['c'],0,right,['e'],1,0.0213355999999294,0.1,0,0,FastFast,4,18,Man,Right,
7,12,1,1.0005408000001808,['c'],1,left,['e'],1,0.01560879999988174,0.4,1,0,FastFast,4,18,Man,Right,
8,12,1,0.4491809999999532,['n'],1,right,['u'],0,0.03137530000003608,0.4,0,0,FastFast,4,18,Man,Right,
9,12,1,1.250605700000051,['n'],1,right,['u'],0,0.39694120000012845,0.1,0,0,FastFast,4,18,Man,Right,
10,12,1,0.6844821999998203,['c'],1,left,['e'],1,0.02027010000028895,0.2,1,0,FastFast,4,18,Man,Right,
11,12,1,0.5998438999999962,['n'],1,right,['e'],1,0.0304721000002246,0.4,1,0,FastFast,4,18,Man,Right,
12,12,1,0.4176534999996875,['c'],0,right,['e'],1,0.014540499999839085,0.1,0,0,FastFast,4,18,Man,Right,
13,12,1,0.6509593999999197,['c'],1,left,['e'],1,0.021563400000104593,0.4,1,0,FastFast,4,18,Man,Right,
14,12,1,0.6675283999998101,['n'],1,right,['u'],0,0.013046200000189856,0.2,0,0,FastFast,4,18,Man,Right,
15,12,1,1.0344031999998151,['c'],0,right,['u'],0,0.7886421000002883,0.2,1,0,FastFast,4,18,Man,Right,
16,12,1,0.5837659000003441,['n'],1,right,['e'],1,0.017071199999918463,0.2,1,0,FastFast,4,18,Man,Right,
17,12,1,0.4848188000000846,['c'],1,left,['e'],1,0.014796800000112853,0.2,1,0,FastFast,4,18,Man,Right,
18,12,1,0.6502621999998155,['n'],1,right,['e'],1,0.0066596000001482025,0.1,1,0,FastFast,4,18,Man,Right,
19,12,1,0.666388999999981,['c'],1,left,['e'],1,0.5582862999999634,0.1,1,0,FastFast,4,18,Man,Right,
20,12,1,0.9182498000000123,['n'],1,right,['e'],1,0.022923699999864766,0.2,1,0,FastFast,4,18,Man,Right,
21,12,1,0.6690767000000051,['c'],1,left,['e'],1,0.04434309999987818,0.2,1,0,FastFast,4,18,Man,Right,
22,12,1,1.6843627000002925,['c'],0,right,['u'],0,0.3460203999998157,0.1,1,0,FastFast,4,18,Man,Right,
23,12,1,0.5671743000002607,['n'],1,right,['e'],1,0.024061800000254152,0.2,1,0,FastFast,4,18,Man,Right,
24,12,1,0.5007878999999775,['c'],1,left,['e'],1,0.037577800000235584,0.4,1,0,FastFast,4,18,Man,Right,
25,12,1,1.3175715000002128,['c'],1,left,['u'],0,0.5455560000000332,0.4,0,0,FastFast,4,18,Man,Right,
26,12,1,0.6675715999999738,['c'],1,left,['e'],1,0.0038817999998173036,0.4,1,0,FastFast,4,18,Man,Right,
27,12,1,1.0168026000001191,['c'],1,left,['e'],1,0.013543300000037561,0.2,1,0,FastFast,4,18,Man,Right,
28,12,1,0.43274650000012116,['n'],0,left,['e'],1,0.5418362000000343,0.1,0,0,FastFast,4,18,Man,Right,
29,12,1,0.999727399999756,['n'],1,right,['e'],1,0.01944290000028559,0.1,1,0,FastFast,4,18,Man,Right,
30,12,1,0.4000676000000567,['c'],1,left,['e'],1,0.004600599999776023,0.4,1,0,FastFast,4,18,Man,Right,
31,12,1,0.5190172000002349,['c'],1,left,['e'],1,0.002295900000262918,0.2,1,0,FastFast,4,18,Man,Right,
32,12,1,0.36750320000010106,['c'],1,left,['e'],1,0.45299470000009023,0.1,1,0,FastFast,4,18,Man,Right,
33,12,1,0.41797459999997955,['c'],0,right,['e'],1,0.02062290000003486,0.2,0,0,FastFast,4,18,Man,Right,
34,12,1,0.23432610000008935,['n'],0,left,['e'],1,0.0456742999999733,0.4,0,0,FastFast,4,18,Man,Right,
35,12,1,0.8509062000002814,['c'],1,left,['e'],1,0.011517100000219216,0.1,1,0,FastFast,4,18,Man,Right,
36,12,1,0.7667550999999548,['n'],1,right,['e'],1,0.016123300000344898,0.4,1,0,FastFast,4,18,Man,Right,
37,12,1,0.4169769999998607,['c'],1,left,['e'],1,0.015498199999910867,0.4,1,0,FastFast,4,18,Man,Right,
38,12,1,0.9836873000003834,['n'],0,left,['u'],0,0.5381978999998864,0.4,1,0,FastFast,4,18,Man,Right,
39,12,1,1.018008000000009,['n'],1,right,['u'],0,0.7026170999997703,0.1,0,0,FastFast,4,18,Man,Right,
40,12,1,0.9676841999998942,['n'],0,left,['u'],0,0.3987861000000521,0.1,1,0,FastFast,4,18,Man,Right,
41,12,1,0.45017979999965974,['c'],1,left,['e'],1,0.014534899999944173,0.2,1,0,FastFast,4,18,Man,Right,
42,12,1,0.4674979000001258,['c'],1,left,['e'],1,0.01359279999996943,0.2,1,0,FastFast,4,18,Man,Right,
43,12,1,0.3326124999998683,['c'],0,right,['e'],1,0.04985399999986839,0.1,0,0,FastFast,4,18,Man,Right,
44,12,1,0.4671865999998772,['c'],0,right,['e'],1,0.41567140000006475,0.4,0,0,FastFast,4,18,Man,Right,
45,12,1,0.7502653999999893,['n'],1,right,['e'],1,0.03496029999996608,0.1,1,0,FastFast,4,18,Man,Right,
46,12,1,0.6834841999998389,['n'],1,right,['e'],1,0.04065499999978783,0.1,1,0,FastFast,4,18,Man,Right,
47,12,1,0.40101959999992687,['c'],1,left,['e'],1,0.02496289999999135,0.1,1,0,FastFast,4,18,Man,Right,
48,12,1,0.3826179000002412,['n'],1,right,['e'],1,0.06080199999996694,0.1,1,0,FastFast,4,18,Man,Right,
49,12,1,0.45158249999985856,['n'],0,left,['u'],0,0.745657200000096,0.4,1,0,FastFast,4,18,Man,Right,
50,12,1,0.5009178000000247,['n'],0,left,['u'],0,0.7138826000000336,0.4,1,0,FastFast,4,18,Man,Right,
51,12,1,0.8679355999997824,['c'],1,left,['e'],1,0.06101859999989756,0.4,1,0,FastFast,4,18,Man,Right,
52,12,1,0.46708540000008725,['c'],1,left,['e'],1,0.011184099999809405,0.4,1,0,FastFast,4,18,Man,Right,
53,12,1,0.784307699999772,['c'],1,left,['e'],1,0.09402110000019093,0.2,1,0,FastFast,4,18,Man,Right,
54,12,1,0.4166581000004044,['n'],1,right,['e'],1,0.027683599999818398,0.1,1,0,FastFast,4,18,Man,Right,
55,12,1,0.5844799000001331,['n'],1,right,['e'],1,0.021443099999942206,0.2,1,0,FastFast,4,18,Man,Right,
56,12,1,0.8169864000001326,['n'],1,right,['e'],1,0.5021628999998029,0.2,1,0,FastFast,4,18,Man,Right,
57,12,1,0.417870899999798,['n'],1,right,['e'],1,0.004557199999908335,0.2,1,0,FastFast,4,18,Man,Right,
58,12,1,0.5172995000002629,['n'],1,right,['e'],1,0.017543199999636272,0.1,1,0,FastFast,4,18,Man,Right,
59,12,1,0.28301749999991443,['n'],0,left,['e'],1,0.024931099999776052,0.2,0,0,FastFast,4,18,Man,Right,
0,13,1,0.6521833999995579,['n'],1,right,['e'],1,0.8710125000002336,0.1,1,0,AccFast,4,18,Man,Right,
1,13,1,0.7677047000001949,['c'],0,right,['u'],0,0.8244296000002578,0.1,1,0,AccFast,4,18,Man,Right,
2,13,1,0.6167820000000575,['n'],1,right,['e'],1,0.04952769999999873,0.1,1,0,AccFast,4,18,Man,Right,
3,13,1,0.6001903000001221,['c'],1,left,['e'],1,0.025497399999949266,0.4,1,0,AccFast,4,18,Man,Right,
4,13,1,0.683676000000105,['c'],1,left,['e'],1,0.03198550000024625,0.4,1,0,AccFast,4,18,Man,Right,
5,13,1,0.734219899999971,['n'],0,left,['e'],1,0.27517330000000584,0.2,0,0,AccFast,4,18,Man,Right,
6,13,1,0.4842562000003454,['c'],1,left,['e'],1,0.03954279999970822,0.1,1,0,AccFast,4,18,Man,Right,
7,13,1,0.5347525000001951,['c'],1,left,['e'],1,0.019210599999951228,0.2,1,0,AccFast,4,18,Man,Right,
8,13,1,0.5007193999999799,['n'],1,right,['e'],1,0.048813500000051135,0.4,1,0,AccFast,4,18,Man,Right,
9,13,1,0.46684959999993225,['c'],1,left,['e'],1,0.030784700000367593,0.2,1,0,AccFast,4,18,Man,Right,
10,13,1,0.4169080000001486,['n'],1,right,['e'],1,0.030999600000086502,0.2,1,0,AccFast,4,18,Man,Right,
11,13,1,0.601119099999778,['c'],1,left,['e'],1,0.055528599999888684,0.1,1,0,AccFast,4,18,Man,Right,
12,13,1,0.6344822999999451,['n'],0,left,['e'],1,3.7102765999998155,0.2,0,0,AccFast,4,18,Man,Right,
13,13,1,0.5685649000001831,['n'],1,right,['e'],1,0.038885599999957776,0.4,1,0,AccFast,4,18,Man,Right,
14,13,1,0.9826720999999452,['n'],0,left,['e'],1,0.04829119999976683,0.1,0,0,AccFast,4,18,Man,Right,
15,13,1,0.4512315000001763,['n'],1,right,['e'],1,0.046160299999883136,0.1,1,0,AccFast,4,18,Man,Right,
16,13,1,0.41769769999973505,['n'],0,left,['e'],1,0.04612670000005892,0.2,0,0,AccFast,4,18,Man,Right,
17,13,1,0.25135550000004514,['n'],0,left,['e'],1,0.020132900000135123,0.4,0,0,AccFast,4,18,Man,Right,
18,13,1,0.4504345000000285,['n'],1,right,['e'],1,0.004250200000115001,0.4,1,0,AccFast,4,18,Man,Right,
19,13,1,0.4486406999999417,['n'],1,right,['e'],1,0.02117969999972047,0.4,1,0,AccFast,4,18,Man,Right,
20,13,1,0.38441439999996874,['n'],1,right,['e'],1,0.022869899999932386,0.2,1,0,AccFast,4,18,Man,Right,
21,13,1,0.48324259999981223,['n'],0,left,['e'],1,0.6129802000000382,0.1,0,0,AccFast,4,18,Man,Right,
22,13,1,0.9507364000000962,['n'],0,left,['e'],1,0.36032840000007127,0.2,0,0,AccFast,4,18,Man,Right,
23,13,1,1.7508005999998204,['n'],1,right,['e'],1,0.7425319999997555,0.4,1,0,AccFast,4,18,Man,Right,
24,13,1,1.250702999999703,['c'],1,left,['e'],1,0.025694400000247697,0.4,1,0,AccFast,4,18,Man,Right,
25,13,1,4.716167399999904,['n'],0,left,['u'],0,0.8147702000001118,0.1,1,0,AccFast,4,18,Man,Right,
26,13,1,0.7501959999999599,['n'],1,right,['e'],1,0.018885599999975966,0.1,1,0,AccFast,4,18,Man,Right,
27,13,1,0.5508899999999812,['n'],0,left,['e'],1,0.0150220000000445,0.4,0,0,AccFast,4,18,Man,Right,
28,13,1,2.433703300000161,['n'],1,right,['u'],0,0.7360079000000042,0.4,0,0,AccFast,4,18,Man,Right,
29,13,1,3.5346544999997604,['c'],0,right,['u'],0,0.9347511999999369,0.1,1,0,AccFast,4,18,Man,Right,
30,13,1,0.40103099999987535,['n'],0,left,['e'],1,0.4676449000003231,0.1,0,0,AccFast,4,18,Man,Right,
31,13,1,0.7009874999998829,['n'],1,right,['e'],1,0.023305799999889132,0.2,1,0,AccFast,4,18,Man,Right,
32,13,1,0.4349715000003016,['n'],0,left,['e'],1,0.023749700000280427,0.4,0,0,AccFast,4,18,Man,Right,
33,13,1,5.016247600000042,x,-99,left,none,-99,-99,0.1,-99,1,AccFast,4,18,Man,Right,
34,13,1,0.5837852999998177,['n'],1,right,['u'],0,0.6042712999997093,0.1,0,0,AccFast,4,18,Man,Right,
35,13,1,3.3508992000001854,['n'],0,left,['e'],1,0.4328409999998257,0.1,0,0,AccFast,4,18,Man,Right,
36,13,1,0.8672246000000996,['c'],0,right,['u'],0,0.5275207999998202,0.2,1,0,AccFast,4,18,Man,Right,
37,13,1,0.7832229000000552,['n'],0,left,['u'],0,0.3183371999998599,0.2,1,0,AccFast,4,18,Man,Right,
38,13,1,0.9678094000000783,['n'],0,left,['u'],0,0.17250940000030823,0.2,1,0,AccFast,4,18,Man,Right,
39,13,1,2.383260099999916,['n'],1,right,['u'],0,1.0015220000000227,0.2,0,0,AccFast,4,18,Man,Right,
40,13,1,2.9329287999998996,['n'],1,right,['u'],0,0.5104897999999594,0.4,0,0,AccFast,4,18,Man,Right,
41,13,1,0.8848246999996263,['c'],0,right,['u'],0,0.24932370000033188,0.2,1,0,AccFast,4,18,Man,Right,
42,13,1,1.7842289000000164,['c'],0,right,['e'],1,0.7145643000003474,0.2,0,0,AccFast,4,18,Man,Right,
43,13,1,0.7010583000001134,['c'],0,right,['e'],1,0.004828099999940605,0.1,0,0,AccFast,4,18,Man,Right,
44,13,1,0.6491906000001109,['c'],0,right,['e'],1,0.5092773000001216,0.4,0,0,AccFast,4,18,Man,Right,
45,13,1,0.4178547999999864,['c'],1,left,['e'],1,0.058057600000211096,0.2,1,0,AccFast,4,18,Man,Right,
46,13,1,0.2333000999997239,['c'],1,left,['e'],1,0.03383609999991677,0.4,1,0,AccFast,4,18,Man,Right,
47,13,1,0.18323169999985112,['c'],0,right,['u'],0,1.4183502000000772,0.4,1,0,AccFast,4,18,Man,Right,
48,13,1,0.45115919999989273,['c'],1,left,['e'],1,0.6423792999999023,0.2,1,0,AccFast,4,18,Man,Right,
49,13,1,0.4674347999998645,['n'],1,right,['u'],0,0.05690050000021074,0.4,0,0,AccFast,4,18,Man,Right,
50,13,1,0.34939189999977316,['c'],1,left,['e'],1,0.0433391000001393,0.2,1,0,AccFast,4,18,Man,Right,
51,13,1,0.5507145999999921,['n'],0,left,['e'],1,0.06994639999993524,0.1,0,0,AccFast,4,18,Man,Right,
52,13,1,0.7336606999997457,['c'],0,right,['u'],0,1.3039586999998392,0.4,1,0,AccFast,4,18,Man,Right,
53,13,1,0.6849615000000995,['c'],1,left,['e'],1,0.04310560000021724,0.4,1,0,AccFast,4,18,Man,Right,
54,13,1,0.6830835000000661,['n'],0,left,['e'],1,0.28964659999974174,0.1,0,0,AccFast,4,18,Man,Right,
55,13,1,0.43430990000024394,['n'],1,right,['e'],1,0.07178559999965728,0.2,1,0,AccFast,4,18,Man,Right,
56,13,1,0.48465230000010706,['c'],0,right,['e'],1,0.050199099999645114,0.1,0,0,AccFast,4,18,Man,Right,
57,13,1,0.4503357999997206,['n'],1,right,['e'],1,0.06508630000007543,0.1,1,0,AccFast,4,18,Man,Right,
58,13,1,0.6844716000000517,['n'],1,right,['e'],1,0.3896215000004304,0.4,1,0,AccFast,4,18,Man,Right,
59,13,1,0.5513475999996444,['c'],1,left,['e'],1,0.03379350000022896,0.2,1,0,AccFast,4,18,Man,Right,
0,14,1,2.9013433000000077,['n'],1,right,['e'],1,1.2983288999998877,0.2,1,0,AccAcc,4,18,Man,Right,
1,14,1,3.5176000000001295,['c'],0,right,['u'],0,0.8208421999997881,0.1,1,0,AccAcc,4,18,Man,Right,
2,14,1,0.6344920999999886,['n'],1,right,['e'],1,0.4768533999999818,0.2,1,0,AccAcc,4,18,Man,Right,
3,14,1,0.583822400000372,['n'],1,right,['e'],1,0.38920520000010583,0.4,1,0,AccAcc,4,18,Man,Right,
4,14,1,0.5994083000000501,['c'],1,left,['e'],1,0.2726630000001933,0.4,1,0,AccAcc,4,18,Man,Right,
5,14,1,0.6339582999999038,['n'],1,right,['e'],1,0.35023169999976744,0.2,1,0,AccAcc,4,18,Man,Right,
6,14,1,1.7330822000003536,['c'],0,right,['u'],0,0.381409099999928,0.1,1,0,AccAcc,4,18,Man,Right,
7,14,1,0.717508899999757,['c'],1,left,['e'],1,0.4358028000001468,0.4,1,0,AccAcc,4,18,Man,Right,
8,14,1,0.5335920000002261,['n'],1,right,['e'],1,0.3358177000000069,0.1,1,0,AccAcc,4,18,Man,Right,
9,14,1,0.5666673000000628,['c'],0,right,['u'],0,0.3503570999996555,0.1,1,0,AccAcc,4,18,Man,Right,
10,14,1,0.6004700999997112,['c'],1,left,['e'],1,0.9554330999999365,0.1,1,0,AccAcc,4,18,Man,Right,
11,14,1,0.45165240000005724,['n'],1,right,['e'],1,0.4042294999999285,0.4,1,0,AccAcc,4,18,Man,Right,
12,14,1,0.43432020000000193,['c'],1,left,['e'],1,0.32563870000012685,0.1,1,0,AccAcc,4,18,Man,Right,
13,14,1,0.4846759999995811,['n'],0,left,['e'],1,0.3275812000001679,0.1,0,0,AccAcc,4,18,Man,Right,
14,14,1,0.4503156000000672,['c'],0,right,['u'],0,0.9391606000003776,0.1,1,0,AccAcc,4,18,Man,Right,
15,14,1,0.7011093000000983,['n'],1,right,['e'],1,0.7166810999997324,0.2,1,0,AccAcc,4,18,Man,Right,
16,14,1,0.5661782000001949,['c'],1,left,['e'],1,0.2992359999998371,0.4,1,0,AccAcc,4,18,Man,Right,
17,14,1,0.6334007999998903,['c'],1,left,['e'],1,0.31206509999992704,0.4,1,0,AccAcc,4,18,Man,Right,
18,14,1,0.5671620999996776,['n'],1,right,['e'],1,0.2790703000000576,0.2,1,0,AccAcc,4,18,Man,Right,
19,14,1,0.48472399999991467,['c'],1,left,['e'],1,0.2672437999999602,0.4,1,0,AccAcc,4,18,Man,Right,
20,14,1,0.4177393999998458,['n'],0,left,['e'],1,0.28978120000010676,0.1,0,0,AccAcc,4,18,Man,Right,
21,14,1,0.41827729999977237,['c'],1,left,['e'],1,0.27986650000002555,0.1,1,0,AccAcc,4,18,Man,Right,
22,14,1,0.8184505999997782,['n'],0,left,['u'],0,0.7340342000002238,0.2,1,0,AccAcc,4,18,Man,Right,
23,14,1,0.5342762000000221,['n'],1,right,['e'],1,0.0777327000000696,0.2,1,0,AccAcc,4,18,Man,Right,
24,14,1,0.4678473000003578,['c'],1,left,['e'],1,0.28266949999988356,0.4,1,0,AccAcc,4,18,Man,Right,
25,14,1,0.6499868000000788,['n'],1,right,['u'],0,0.5202524000001176,0.1,0,0,AccAcc,4,18,Man,Right,
26,14,1,0.6672002000000248,['n'],1,right,['e'],1,0.2998141999996733,0.2,1,0,AccAcc,4,18,Man,Right,
27,14,1,0.5676920999999311,['c'],1,left,['e'],1,0.266247999999905,0.4,1,0,AccAcc,4,18,Man,Right,
28,14,1,0.4676904999996623,['n'],1,right,['e'],1,0.3193642000001091,0.2,1,0,AccAcc,4,18,Man,Right,
29,14,1,0.584447000000182,['c'],1,left,['e'],1,0.33344290000013643,0.4,1,0,AccAcc,4,18,Man,Right,
30,14,1,0.9012264000002688,['n'],0,left,['u'],0,0.5744199000000663,0.1,1,0,AccAcc,4,18,Man,Right,
31,14,1,0.5153211999995619,['c'],1,left,['e'],1,0.29422399999975823,0.2,1,0,AccAcc,4,18,Man,Right,
32,14,1,0.5509394000000611,['c'],1,left,['u'],0,0.4551467000001139,0.1,0,0,AccAcc,4,18,Man,Right,
33,14,1,0.4346777999999176,['n'],1,right,['u'],0,0.40529620000006616,0.2,0,0,AccAcc,4,18,Man,Right,
34,14,1,0.550720100000035,['c'],1,left,['u'],0,0.49823309999965204,0.1,0,0,AccAcc,4,18,Man,Right,
35,14,1,0.46709499999997206,['n'],1,right,['e'],1,0.5893208000002232,0.4,1,0,AccAcc,4,18,Man,Right,
36,14,1,0.51674230000026,['n'],1,right,['e'],1,0.2919598000003134,0.2,1,0,AccAcc,4,18,Man,Right,
37,14,1,0.96598479999966,['c'],0,right,['u'],0,0.40476870000020426,0.4,1,0,AccAcc,4,18,Man,Right,
38,14,1,0.5333381999998892,['c'],1,left,['e'],1,0.20969499999955588,0.4,1,0,AccAcc,4,18,Man,Right,
39,14,1,0.4511768000002121,['n'],1,right,['e'],1,0.16916279999986727,0.4,1,0,AccAcc,4,18,Man,Right,
40,14,1,0.4176830000001246,['c'],1,left,['e'],1,0.22821780000003855,0.1,1,0,AccAcc,4,18,Man,Right,
41,14,1,0.33341639999980544,['n'],0,left,['u'],0,0.6404891000001953,0.4,1,0,AccAcc,4,18,Man,Right,
42,14,1,0.6011188999996193,['c'],1,left,['e'],1,0.09813870000016323,0.4,1,0,AccAcc,4,18,Man,Right,
43,14,1,3.2672998000002735,['c'],1,left,['u'],0,0.6376617999999326,0.2,0,0,AccAcc,4,18,Man,Right,
44,14,1,0.43376800000032745,['n'],1,right,['e'],1,0.08581950000007055,0.2,1,0,AccAcc,4,18,Man,Right,
45,14,1,0.38426939999999377,['c'],0,right,['e'],1,0.1012362999999823,0.1,0,0,AccAcc,4,18,Man,Right,
46,14,1,0.7511704999997164,['c'],1,left,['e'],1,0.3569329000001744,0.2,1,0,AccAcc,4,18,Man,Right,
47,14,1,0.5510404000001472,['c'],1,left,['e'],1,0.13099609999972017,0.4,1,0,AccAcc,4,18,Man,Right,
48,14,1,0.8848518999998305,['n'],1,right,['u'],0,0.33265799999981027,0.1,0,0,AccAcc,4,18,Man,Right,
49,14,1,1.1511543999999958,['c'],1,left,['e'],1,0.8197392000001855,0.2,1,0,AccAcc,4,18,Man,Right,
50,14,1,0.5854177999999592,['n'],1,right,['e'],1,0.2860536999996839,0.4,1,0,AccAcc,4,18,Man,Right,
51,14,1,0.46827519999988,['c'],1,left,['e'],1,0.21054580000009082,0.2,1,0,AccAcc,4,18,Man,Right,
52,14,1,0.3677551000000676,['n'],1,right,['e'],1,0.09385629999997036,0.2,1,0,AccAcc,4,18,Man,Right,
53,14,1,0.36679210000011153,['c'],1,left,['e'],1,0.3510317000000214,0.1,1,0,AccAcc,4,18,Man,Right,
54,14,1,0.4001557000001412,['n'],1,right,['e'],1,0.08282490000010512,0.4,1,0,AccAcc,4,18,Man,Right,
55,14,1,0.4002832999999555,['c'],1,left,['e'],1,0.049285300000065035,0.4,1,0,AccAcc,4,18,Man,Right,
56,14,1,0.6000616999999693,['n'],0,left,['e'],1,0.10604100000000471,0.1,0,0,AccAcc,4,18,Man,Right,
57,14,1,0.4179447000001346,['c'],0,right,['e'],1,0.02322360000016488,0.1,0,0,AccAcc,4,18,Man,Right,
58,14,1,1.016722800000025,['n'],1,right,['e'],1,0.704693799999859,0.2,1,0,AccAcc,4,18,Man,Right,
59,14,1,1.0678364999998848,['c'],0,right,['e'],1,0.23587029999998776,0.2,0,0,AccAcc,4,18,Man,Right,
0,15,1,1.1346601000000192,['c'],1,left,['e'],1,1.1809501000002456,0.4,1,0,FastAcc,4,18,Man,Right,
1,15,1,0.5178030000001854,['n'],1,right,['e'],1,0.07503759999963222,0.4,1,0,FastAcc,4,18,Man,Right,
2,15,1,0.9350087000002532,['c'],1,left,['e'],1,0.16597159999992073,0.1,1,0,FastAcc,4,18,Man,Right,
3,15,1,0.4674116999999569,['n'],1,right,['e'],1,0.015122400000109337,0.1,1,0,FastAcc,4,18,Man,Right,
4,15,1,0.7011499000000185,['n'],1,right,['e'],1,0.051789300000109506,0.2,1,0,FastAcc,4,18,Man,Right,
5,15,1,0.4841661999998905,['n'],1,right,['e'],1,0.04911539999966408,0.2,1,0,FastAcc,4,18,Man,Right,
6,15,1,0.48384249999980966,['c'],1,left,['e'],1,0.04638999999997395,0.4,1,0,FastAcc,4,18,Man,Right,
7,15,1,0.3998999999998887,['n'],1,right,['e'],1,0.06195079999997688,0.2,1,0,FastAcc,4,18,Man,Right,
8,15,1,0.484416699999656,['n'],1,right,['e'],1,0.058740599999964616,0.4,1,0,FastAcc,4,18,Man,Right,
9,15,1,0.6511276000001089,['c'],1,left,['e'],1,0.016894200000024284,0.1,1,0,FastAcc,4,18,Man,Right,
10,15,1,0.517750800000158,['n'],1,right,['e'],1,0.07779959999970743,0.1,1,0,FastAcc,4,18,Man,Right,
11,15,1,1.649324500000148,['n'],0,left,['u'],0,0.379743999999846,0.1,1,0,FastAcc,4,18,Man,Right,
12,15,1,0.48262290000002395,['n'],1,right,['e'],1,0.05980020000015429,0.2,1,0,FastAcc,4,18,Man,Right,
13,15,1,1.5324603999997635,['n'],1,right,['u'],0,0.17436059999999998,0.4,0,0,FastAcc,4,18,Man,Right,
14,15,1,0.43335300000035204,['n'],0,left,['u'],0,0.040378299999701994,0.2,1,0,FastAcc,4,18,Man,Right,
15,15,1,3.4837431999999353,['c'],1,left,['u'],0,0.3979819999999563,0.2,0,0,FastAcc,4,18,Man,Right,
16,15,1,0.5013340999998945,['n'],0,left,['e'],1,0.04441419999966456,0.1,0,0,FastAcc,4,18,Man,Right,
17,15,1,1.6660752999996475,['c'],1,left,['e'],1,0.011719999999968422,0.1,1,0,FastAcc,4,18,Man,Right,
18,15,1,2.401313200000004,['c'],0,right,['e'],1,0.5891123999999763,0.1,0,0,FastAcc,4,18,Man,Right,
19,15,1,0.984776800000418,['c'],1,left,['e'],1,0.0014354999998431595,0.4,1,0,FastAcc,4,18,Man,Right,
20,15,1,0.5337248000000727,['c'],1,left,['e'],1,0.4934143000000404,0.2,1,0,FastAcc,4,18,Man,Right,
21,15,1,0.517052700000022,['n'],1,right,['e'],1,0.009448400000110269,0.4,1,0,FastAcc,4,18,Man,Right,
22,15,1,0.35237659999984317,['c'],0,right,['e'],1,0.07629120000001421,0.1,0,0,FastAcc,4,18,Man,Right,
23,15,1,0.7677613000000747,['n'],1,right,['e'],1,0.029887000000144326,0.2,1,0,FastAcc,4,18,Man,Right,
24,15,1,0.41744410000001153,['c'],1,left,['e'],1,0.01387590000013006,0.4,1,0,FastAcc,4,18,Man,Right,
25,15,1,2.716215099999772,['c'],1,left,['u'],0,0.2112182999999277,0.1,0,0,FastAcc,4,18,Man,Right,
26,15,1,1.334778599999936,['n'],0,left,['u'],0,9.463671900000008,0.1,1,0,FastAcc,4,18,Man,Right,
27,15,1,0.8178520999999819,['c'],1,left,['e'],1,0.01608329999999114,0.4,1,0,FastAcc,4,18,Man,Right,
28,15,1,0.8502273999997669,['c'],1,left,['e'],1,0.07946919999994861,0.2,1,0,FastAcc,4,18,Man,Right,
29,15,1,0.5835764999997082,['c'],1,left,['e'],1,1.3349441999998817,0.2,1,0,FastAcc,4,18,Man,Right,
30,15,1,1.2009686000001238,['c'],1,left,['e'],1,0.05223999999998341,0.1,1,0,FastAcc,4,18,Man,Right,
31,15,1,0.5845777999998063,['n'],1,right,['u'],0,0.07720550000021831,0.2,0,0,FastAcc,4,18,Man,Right,
32,15,1,0.7337541000001693,['c'],1,left,['e'],1,0.1756771000000299,0.2,1,0,FastAcc,4,18,Man,Right,
33,15,1,1.0675906999999825,['c'],1,left,['e'],1,0.03232239999988451,0.2,1,0,FastAcc,4,18,Man,Right,
34,15,1,0.5676558999998633,['c'],1,left,['e'],1,0.011272700000063196,0.4,1,0,FastAcc,4,18,Man,Right,
35,15,1,0.5512626999998247,['n'],1,right,['e'],1,0.03880170000002181,0.4,1,0,FastAcc,4,18,Man,Right,
36,15,1,0.5512667000002693,['c'],1,left,['e'],1,0.0660000999996555,0.4,1,0,FastAcc,4,18,Man,Right,
37,15,1,0.36859099999992395,['n'],1,right,['e'],1,0.06680050000022675,0.2,1,0,FastAcc,4,18,Man,Right,
38,15,1,2.6169207999996615,['c'],0,right,['u'],0,0.29798140000002604,0.1,1,0,FastAcc,4,18,Man,Right,
39,15,1,0.5839934999999059,['n'],1,right,['e'],1,0.0569166000000223,0.4,1,0,FastAcc,4,18,Man,Right,
40,15,1,0.7337265999999545,['c'],0,right,['e'],1,0.027752099999815982,0.1,0,0,FastAcc,4,18,Man,Right,
41,15,1,0.6013247999999294,['c'],0,right,['e'],1,0.052599100000406906,0.1,0,0,FastAcc,4,18,Man,Right,
42,15,1,0.7177019000000655,['c'],1,left,['e'],1,0.0401784000000589,0.1,1,0,FastAcc,4,18,Man,Right,
43,15,1,0.5004833000002691,['n'],1,right,['e'],1,0.0695357999998123,0.4,1,0,FastAcc,4,18,Man,Right,
44,15,1,0.4340753000001314,['c'],1,left,['e'],1,0.03551939999988463,0.1,1,0,FastAcc,4,18,Man,Right,
45,15,1,0.4011238000002777,['n'],1,right,['e'],1,0.03624470000022484,0.4,1,0,FastAcc,4,18,Man,Right,
46,15,1,0.3837703999997757,['c'],0,right,['u'],0,0.6940472000001137,0.2,1,0,FastAcc,4,18,Man,Right,
47,15,1,0.5351857999999083,['n'],1,right,['e'],1,0.05561439999974027,0.4,1,0,FastAcc,4,18,Man,Right,
48,15,1,0.566677300000265,['c'],1,left,['e'],1,0.03372080000008282,0.2,1,0,FastAcc,4,18,Man,Right,
49,15,1,0.566399100000126,['n'],1,right,['u'],0,0.04486410000026808,0.2,0,0,FastAcc,4,18,Man,Right,
50,15,1,0.3838018999999804,['c'],0,right,['e'],1,0.04490030000033585,0.2,0,0,FastAcc,4,18,Man,Right,
51,15,1,0.6342279000000417,['c'],1,left,['e'],1,0.05245920000015758,0.1,1,0,FastAcc,4,18,Man,Right,
52,15,1,0.6183911000002809,['c'],1,left,['e'],1,0.22006759999976566,0.4,1,0,FastAcc,4,18,Man,Right,
53,15,1,0.7011256000000685,['n'],1,right,['e'],1,7.913758199999847,0.4,1,0,FastAcc,4,18,Man,Right,
54,15,1,0.5677154999998493,['n'],1,right,['e'],1,0.041663599999992584,0.4,1,0,FastAcc,4,18,Man,Right,
55,15,1,0.517652999999882,['c'],1,left,['e'],1,0.03774780000003375,0.4,1,0,FastAcc,4,18,Man,Right,
56,15,1,0.3682130999995934,['n'],0,left,['u'],0,0.05597520000037548,0.1,1,0,FastAcc,4,18,Man,Right,
57,15,1,1.4495335000001432,['n'],0,left,['u'],0,0.015056600000207254,0.2,1,0,FastAcc,4,18,Man,Right,
58,15,1,0.5836685999997826,['n'],1,right,['u'],0,0.05735900000036054,0.2,0,0,FastAcc,4,18,Man,Right,
59,15,1,1.0828206999999566,['n'],1,right,['e'],1,0.974178700000266,0.1,1,0,FastAcc,4,18,Man,Right,
