withinblocktrial,block,block_repetition,rt,resp,cor,cresp,conf_press,cj,rtconf,coherence,metacognition,slow_trial,manipulation,sub,age,gender,handedness,
0,1,1,1.5169312000000446,['n'],1,right,none,-99,-99,0.5,-99,0,none,3,18,Man,Right,
1,1,1,0.783128300000044,['n'],1,right,none,-99,-99,0.5,-99,0,none,3,18,Man,Right,
2,1,1,1.066849300000058,['c'],0,right,none,-99,-99,0.5,-99,0,none,3,18,Man,Right,
3,1,1,1.2332725999999639,['c'],0,right,none,-99,-99,0.5,-99,0,none,3,18,Man,Right,
4,1,1,1.265142800000035,['n'],0,left,none,-99,-99,0.5,-99,0,none,3,18,Man,Right,
5,1,1,0.7513619000000062,['n'],1,right,none,-99,-99,0.5,-99,0,none,3,18,Man,Right,
6,1,1,1.89948609999999,['c'],1,left,none,-99,-99,0.5,-99,0,none,3,18,Man,Right,
7,1,1,1.1998392000000422,['n'],0,left,none,-99,-99,0.5,-99,0,none,3,18,Man,Right,
8,1,1,1.766981200000032,['c'],1,left,none,-99,-99,0.5,-99,0,none,3,18,Man,Right,
9,1,1,1.9838225999999395,['c'],1,left,none,-99,-99,0.5,-99,0,none,3,18,Man,Right,
10,1,1,0.8668135000000348,['n'],1,right,none,-99,-99,0.5,-99,0,none,3,18,Man,Right,
11,1,1,1.0514173000000255,['n'],1,right,none,-99,-99,0.5,-99,0,none,3,18,Man,Right,
12,1,1,1.2502009999999473,['c'],0,right,none,-99,-99,0.5,-99,0,none,3,18,Man,Right,
13,1,1,0.651109799999972,['c'],1,left,none,-99,-99,0.5,-99,0,none,3,18,Man,Right,
14,1,1,0.6658198000000084,['c'],1,left,none,-99,-99,0.5,-99,0,none,3,18,Man,Right,
15,1,1,0.5003025000000889,['n'],1,right,none,-99,-99,0.5,-99,0,none,3,18,Man,Right,
16,1,1,0.7344309999999723,['c'],0,right,none,-99,-99,0.5,-99,0,none,3,18,Man,Right,
17,1,1,0.5003351000000293,['c'],1,left,none,-99,-99,0.5,-99,0,none,3,18,Man,Right,
18,1,1,0.5000051000000667,['c'],1,left,none,-99,-99,0.5,-99,0,none,3,18,Man,Right,
19,1,1,0.5165252000000464,['c'],1,left,none,-99,-99,0.5,-99,0,none,3,18,Man,Right,
20,1,1,0.5511526999999887,['c'],1,left,none,-99,-99,0.5,-99,0,none,3,18,Man,Right,
21,1,1,0.5322743000000401,['c'],1,left,none,-99,-99,0.5,-99,0,none,3,18,Man,Right,
22,1,1,0.5496831000000384,['c'],0,right,none,-99,-99,0.5,-99,0,none,3,18,Man,Right,
23,1,1,0.5161354000000529,['n'],1,right,none,-99,-99,0.5,-99,0,none,3,18,Man,Right,
0,1,2,1.117934900000023,['n'],1,right,none,-99,-99,0.5,-99,0,none,3,18,Man,Right,
1,1,2,0.6004903000000468,['n'],1,right,none,-99,-99,0.5,-99,0,none,3,18,Man,Right,
2,1,2,0.5335701000000199,['c'],1,left,none,-99,-99,0.5,-99,0,none,3,18,Man,Right,
3,1,2,0.7671160999999529,['n'],0,left,none,-99,-99,0.5,-99,0,none,3,18,Man,Right,
4,1,2,0.433052699999962,['n'],1,right,none,-99,-99,0.5,-99,0,none,3,18,Man,Right,
5,1,2,0.48337900000001355,['c'],1,left,none,-99,-99,0.5,-99,0,none,3,18,Man,Right,
6,1,2,0.5338932999999315,['c'],1,left,none,-99,-99,0.5,-99,0,none,3,18,Man,Right,
7,1,2,0.3505742999999484,['n'],1,right,none,-99,-99,0.5,-99,0,none,3,18,Man,Right,
8,1,2,0.5004400999999916,['n'],1,right,none,-99,-99,0.5,-99,0,none,3,18,Man,Right,
9,1,2,0.4339531000000534,['c'],1,left,none,-99,-99,0.5,-99,0,none,3,18,Man,Right,
10,1,2,0.5152987000000167,['n'],1,right,none,-99,-99,0.5,-99,0,none,3,18,Man,Right,
11,1,2,0.45044319999999516,['n'],1,right,none,-99,-99,0.5,-99,0,none,3,18,Man,Right,
12,1,2,0.3829928000000109,['c'],1,left,none,-99,-99,0.5,-99,0,none,3,18,Man,Right,
13,1,2,0.24975339999991775,['n'],0,left,none,-99,-99,0.5,-99,0,none,3,18,Man,Right,
14,1,2,0.4510949000000437,['c'],1,left,none,-99,-99,0.5,-99,0,none,3,18,Man,Right,
15,1,2,0.5833977999999433,['c'],1,left,none,-99,-99,0.5,-99,0,none,3,18,Man,Right,
16,1,2,0.28364399999998113,['n'],0,left,none,-99,-99,0.5,-99,0,none,3,18,Man,Right,
17,1,2,0.5167721999999912,['n'],1,right,none,-99,-99,0.5,-99,0,none,3,18,Man,Right,
18,1,2,0.4832324999999855,['c'],1,left,none,-99,-99,0.5,-99,0,none,3,18,Man,Right,
19,1,2,0.43567140000004656,['n'],1,right,none,-99,-99,0.5,-99,0,none,3,18,Man,Right,
20,1,2,0.39988960000005136,['n'],1,right,none,-99,-99,0.5,-99,0,none,3,18,Man,Right,
21,1,2,0.44907530000000406,['n'],0,left,none,-99,-99,0.5,-99,0,none,3,18,Man,Right,
22,1,2,0.49985659999993004,['n'],1,right,none,-99,-99,0.5,-99,0,none,3,18,Man,Right,
23,1,2,1.4345048000000133,['c'],0,right,none,-99,-99,0.5,-99,0,none,3,18,Man,Right,
0,1,3,0.9510702000000038,['c'],1,left,none,-99,-99,0.5,-99,0,none,3,18,Man,Right,
1,1,3,0.8167703999999958,['n'],0,left,none,-99,-99,0.5,-99,0,none,3,18,Man,Right,
2,1,3,0.5009602000000086,['c'],0,right,none,-99,-99,0.5,-99,0,none,3,18,Man,Right,
3,1,3,0.6170520000000579,['c'],1,left,none,-99,-99,0.5,-99,0,none,3,18,Man,Right,
4,1,3,0.5351435000000038,['n'],1,right,none,-99,-99,0.5,-99,0,none,3,18,Man,Right,
5,1,3,0.9657406999999694,['c'],0,right,none,-99,-99,0.5,-99,0,none,3,18,Man,Right,
6,1,3,0.8003529000000071,['c'],1,left,none,-99,-99,0.5,-99,0,none,3,18,Man,Right,
7,1,3,0.9336953000000676,['n'],1,right,none,-99,-99,0.5,-99,0,none,3,18,Man,Right,
8,1,3,0.8350331000000324,['c'],1,left,none,-99,-99,0.5,-99,0,none,3,18,Man,Right,
9,1,3,0.7330444000000398,['c'],1,left,none,-99,-99,0.5,-99,0,none,3,18,Man,Right,
10,1,3,0.668195800000035,['n'],1,right,none,-99,-99,0.5,-99,0,none,3,18,Man,Right,
11,1,3,0.7338223000000426,['c'],1,left,none,-99,-99,0.5,-99,0,none,3,18,Man,Right,
12,1,3,0.7321848999999929,['n'],1,right,none,-99,-99,0.5,-99,0,none,3,18,Man,Right,
13,1,3,0.6505087000000458,['n'],1,right,none,-99,-99,0.5,-99,0,none,3,18,Man,Right,
14,1,3,0.4501847000001362,['n'],1,right,none,-99,-99,0.5,-99,0,none,3,18,Man,Right,
15,1,3,0.6337409999998727,['c'],1,left,none,-99,-99,0.5,-99,0,none,3,18,Man,Right,
16,1,3,0.5010353000000123,['n'],1,right,none,-99,-99,0.5,-99,0,none,3,18,Man,Right,
17,1,3,0.5664948999999524,['n'],0,left,none,-99,-99,0.5,-99,0,none,3,18,Man,Right,
18,1,3,0.4165677000000869,['c'],1,left,none,-99,-99,0.5,-99,0,none,3,18,Man,Right,
19,1,3,0.616251899999952,['n'],1,right,none,-99,-99,0.5,-99,0,none,3,18,Man,Right,
20,1,3,0.5333949999999277,['n'],1,right,none,-99,-99,0.5,-99,0,none,3,18,Man,Right,
21,1,3,0.6494007999999667,['n'],1,right,none,-99,-99,0.5,-99,0,none,3,18,Man,Right,
22,1,3,0.5331115000001319,['c'],1,left,none,-99,-99,0.5,-99,0,none,3,18,Man,Right,
23,1,3,0.5677548999999544,['c'],1,left,none,-99,-99,0.5,-99,0,none,3,18,Man,Right,
0,1,4,0.7515210999999908,['c'],1,left,none,-99,-99,0.5,-99,0,none,3,18,Man,Right,
1,1,4,0.43438140000012027,['c'],1,left,none,-99,-99,0.5,-99,0,none,3,18,Man,Right,
2,1,4,0.48351739999998244,['c'],1,left,none,-99,-99,0.5,-99,0,none,3,18,Man,Right,
3,1,4,0.3833792000000358,['n'],1,right,none,-99,-99,0.5,-99,0,none,3,18,Man,Right,
4,1,4,0.41551619999995637,['n'],1,right,none,-99,-99,0.5,-99,0,none,3,18,Man,Right,
5,1,4,0.3672727999999097,['c'],1,left,none,-99,-99,0.5,-99,0,none,3,18,Man,Right,
6,1,4,0.2842689999999948,['n'],0,left,none,-99,-99,0.5,-99,0,none,3,18,Man,Right,
7,1,4,0.4503102000001036,['n'],1,right,none,-99,-99,0.5,-99,0,none,3,18,Man,Right,
8,1,4,0.3648052999999436,['n'],1,right,none,-99,-99,0.5,-99,0,none,3,18,Man,Right,
9,1,4,0.6681923999999526,['c'],1,left,none,-99,-99,0.5,-99,0,none,3,18,Man,Right,
10,1,4,0.5184409000000869,['c'],1,left,none,-99,-99,0.5,-99,0,none,3,18,Man,Right,
11,1,4,0.383310100000017,['n'],1,right,none,-99,-99,0.5,-99,0,none,3,18,Man,Right,
12,1,4,0.4162015000001702,['c'],1,left,none,-99,-99,0.5,-99,0,none,3,18,Man,Right,
13,1,4,0.3836719999999332,['n'],1,right,none,-99,-99,0.5,-99,0,none,3,18,Man,Right,
14,1,4,0.3008197999999993,['c'],0,right,none,-99,-99,0.5,-99,0,none,3,18,Man,Right,
15,1,4,0.5836663000000044,['n'],1,right,none,-99,-99,0.5,-99,0,none,3,18,Man,Right,
16,1,4,0.3992176000001564,['c'],1,left,none,-99,-99,0.5,-99,0,none,3,18,Man,Right,
17,1,4,0.4170635000000402,['c'],1,left,none,-99,-99,0.5,-99,0,none,3,18,Man,Right,
18,1,4,0.40041420000011385,['n'],1,right,none,-99,-99,0.5,-99,0,none,3,18,Man,Right,
19,1,4,0.43535449999990306,['c'],1,left,none,-99,-99,0.5,-99,0,none,3,18,Man,Right,
20,1,4,0.3669347000000016,['n'],1,right,none,-99,-99,0.5,-99,0,none,3,18,Man,Right,
21,1,4,0.467062100000021,['n'],1,right,none,-99,-99,0.5,-99,0,none,3,18,Man,Right,
22,1,4,0.39988949999997203,['c'],1,left,none,-99,-99,0.5,-99,0,none,3,18,Man,Right,
23,1,4,0.41707210000004125,['n'],1,right,none,-99,-99,0.5,-99,0,none,3,18,Man,Right,
0,2,1,0.5671464000001833,['c'],1,left,none,-99,-99,0.4,-99,0,none,3,18,Man,Right,
1,2,1,0.5502082000000428,['c'],1,left,none,-99,-99,0.4,-99,0,none,3,18,Man,Right,
2,2,1,0.6169977000001836,['n'],1,right,none,-99,-99,0.2,-99,0,none,3,18,Man,Right,
3,2,1,0.5160640999999941,['c'],0,right,none,-99,-99,0.2,-99,0,none,3,18,Man,Right,
4,2,1,0.8670190000000275,['n'],1,right,none,-99,-99,0.1,-99,0,none,3,18,Man,Right,
5,2,1,0.600904299999911,['c'],1,left,none,-99,-99,0.1,-99,0,none,3,18,Man,Right,
6,2,1,0.6677409999999782,['c'],0,right,none,-99,-99,0.2,-99,0,none,3,18,Man,Right,
7,2,1,0.5336399000000256,['n'],1,right,none,-99,-99,0.4,-99,0,none,3,18,Man,Right,
8,2,1,0.45124889999988227,['c'],1,left,none,-99,-99,0.4,-99,0,none,3,18,Man,Right,
9,2,1,0.4997074000000339,['c'],1,left,none,-99,-99,0.4,-99,0,none,3,18,Man,Right,
10,2,1,0.7346989000000121,['c'],1,left,none,-99,-99,0.4,-99,0,none,3,18,Man,Right,
11,2,1,0.45086270000001605,['n'],0,left,none,-99,-99,0.2,-99,0,none,3,18,Man,Right,
12,2,1,0.5838057000000845,['c'],0,right,none,-99,-99,0.1,-99,0,none,3,18,Man,Right,
13,2,1,0.4997031000000334,['c'],1,left,none,-99,-99,0.2,-99,0,none,3,18,Man,Right,
14,2,1,0.6519921999999951,['n'],1,right,none,-99,-99,0.2,-99,0,none,3,18,Man,Right,
15,2,1,0.9664674999999079,['n'],1,right,none,-99,-99,0.1,-99,0,none,3,18,Man,Right,
16,2,1,0.3839033000001564,['n'],0,left,none,-99,-99,0.1,-99,0,none,3,18,Man,Right,
17,2,1,0.600164199999881,['n'],0,left,none,-99,-99,0.1,-99,0,none,3,18,Man,Right,
18,2,1,0.666725900000074,['c'],0,right,none,-99,-99,0.2,-99,0,none,3,18,Man,Right,
19,2,1,0.7502171000000999,['c'],1,left,none,-99,-99,0.4,-99,0,none,3,18,Man,Right,
20,2,1,0.7490546999999879,['n'],1,right,none,-99,-99,0.1,-99,0,none,3,18,Man,Right,
21,2,1,0.466512400000056,['n'],1,right,none,-99,-99,0.2,-99,0,none,3,18,Man,Right,
22,2,1,0.4665769000000637,['c'],1,left,none,-99,-99,0.1,-99,0,none,3,18,Man,Right,
23,2,1,0.5502868999999464,['n'],1,right,none,-99,-99,0.4,-99,0,none,3,18,Man,Right,
0,3,1,0.750472899999977,['n'],1,right,['u'],1,3.335288300000002,0.4,1,0,none,3,18,Man,Right,
1,3,1,1.1506663000000117,['c'],0,right,['e'],0,0.39479949999986275,0.2,1,0,none,3,18,Man,Right,
2,3,1,0.8670144000000164,['n'],1,right,['u'],1,0.27080670000009377,0.2,1,0,none,3,18,Man,Right,
3,3,1,1.066296100000045,['n'],1,right,['u'],1,0.08073620000004667,0.2,1,0,none,3,18,Man,Right,
4,3,1,1.517239600000039,['c'],0,right,['e'],0,0.19855299999994713,0.1,1,0,none,3,18,Man,Right,
5,3,1,0.8678271999999652,['n'],1,right,['u'],1,0.14535490000002937,0.4,1,0,none,3,18,Man,Right,
6,3,1,1.1168167999999241,['c'],0,right,['e'],0,0.19761160000007294,0.2,1,0,none,3,18,Man,Right,
7,3,1,0.7005759000001035,['n'],0,left,['u'],1,0.16787950000002638,0.2,0,0,none,3,18,Man,Right,
8,3,1,2.067273799999839,['n'],0,left,['e'],0,0.14989669999999933,0.4,1,0,none,3,18,Man,Right,
9,3,1,0.9991999999999734,['n'],1,right,['e'],0,0.17366310000011254,0.1,0,0,none,3,18,Man,Right,
10,3,1,2.11793160000002,['c'],0,right,['e'],0,0.13606240000012804,0.1,1,0,none,3,18,Man,Right,
11,3,1,2.051232999999911,['c'],1,left,['u'],1,0.2633140000000367,0.4,1,0,none,3,18,Man,Right,
12,3,1,1.8176270999999815,['c'],1,left,['e'],0,0.42637009999998554,0.2,0,0,none,3,18,Man,Right,
13,3,1,0.6348901999999725,['n'],0,left,['u'],1,0.6466508000000886,0.2,0,0,none,3,18,Man,Right,
14,3,1,0.6831813999999667,['n'],1,right,['u'],1,0.16808480000008785,0.1,1,0,none,3,18,Man,Right,
15,3,1,0.7667195999999876,['c'],1,left,['e'],0,0.16874649999999747,0.4,0,0,none,3,18,Man,Right,
16,3,1,0.6005369999998038,['n'],0,left,['u'],1,0.22404899999992267,0.1,0,0,none,3,18,Man,Right,
17,3,1,1.482612300000028,['c'],1,left,['u'],1,0.11515379999991637,0.1,1,0,none,3,18,Man,Right,
18,3,1,0.9007338999999774,['n'],0,left,['u'],1,0.16061600000011822,0.4,0,0,none,3,18,Man,Right,
19,3,1,0.584703399999853,['n'],1,right,['u'],1,0.16845790000002125,0.4,1,0,none,3,18,Man,Right,
20,3,1,0.8173612999999023,['c'],1,left,['u'],1,0.18353529999990315,0.1,1,0,none,3,18,Man,Right,
21,3,1,0.916776599999821,['c'],1,left,['e'],0,0.2898947999999564,0.2,0,0,none,3,18,Man,Right,
22,3,1,0.5679577000000791,['n'],1,right,['u'],1,0.37441629999989345,0.4,1,0,none,3,18,Man,Right,
23,3,1,0.5340817999999672,['c'],1,left,['u'],1,0.3600691999999981,0.1,1,0,none,3,18,Man,Right,
0,4,1,1.9669756000000689,['c'],1,left,['u'],1,0.07866080000007969,0.1,1,0,FastFast,3,18,Man,Right,
1,4,1,0.8511653000000479,['n'],1,right,['u'],1,0.203512499999988,0.4,1,0,FastFast,3,18,Man,Right,
2,4,1,0.584639100000004,['c'],1,left,['u'],1,0.2070694999999887,0.4,1,0,FastFast,3,18,Man,Right,
3,4,1,0.8495655000001534,['n'],0,left,['e'],0,0.3110573999999815,0.1,1,0,FastFast,3,18,Man,Right,
4,4,1,1.5000741000001199,['n'],0,left,['u'],1,0.5130721000000449,0.4,0,0,FastFast,3,18,Man,Right,
5,4,1,0.7835948000001736,['n'],1,right,['u'],1,0.16000159999998687,0.2,1,0,FastFast,3,18,Man,Right,
6,4,1,0.9836422000000766,['n'],1,right,['u'],1,0.21252000000004045,0.4,1,0,FastFast,3,18,Man,Right,
7,4,1,0.9339786999998978,['c'],1,left,['e'],0,0.2807503000001361,0.1,0,0,FastFast,3,18,Man,Right,
8,4,1,0.8997537000000193,['n'],1,right,['e'],0,0.10823040000013862,0.1,0,0,FastFast,3,18,Man,Right,
9,4,1,0.7008158000001004,['n'],1,right,['u'],1,0.17377079999982925,0.2,1,0,FastFast,3,18,Man,Right,
10,4,1,0.6838550999998461,['n'],1,right,['u'],1,0.12756680000006781,0.2,1,0,FastFast,3,18,Man,Right,
11,4,1,0.8844452000000729,['c'],1,left,['u'],1,0.1205422999998973,0.1,1,0,FastFast,3,18,Man,Right,
12,4,1,0.8843128000000888,['n'],0,left,['e'],0,0.1792233999999553,0.2,1,0,FastFast,3,18,Man,Right,
13,4,1,0.9490938000001279,['c'],0,right,['e'],0,0.3449410999999145,0.1,1,0,FastFast,3,18,Man,Right,
14,4,1,1.2163938000001053,['n'],0,left,['e'],0,0.2203910000000633,0.2,1,0,FastFast,3,18,Man,Right,
15,4,1,1.0173353000000134,['n'],0,left,['e'],0,0.156887099999949,0.1,1,0,FastFast,3,18,Man,Right,
16,4,1,1.0681558999999652,['c'],1,left,['u'],1,0.19051950000016404,0.4,1,0,FastFast,3,18,Man,Right,
17,4,1,0.733315199999879,['c'],1,left,['u'],1,0.028553999999985535,0.4,1,0,FastFast,3,18,Man,Right,
18,4,1,1.3671417000000474,['n'],1,right,['e'],0,0.07159189999993032,0.4,0,0,FastFast,3,18,Man,Right,
19,4,1,0.9827692999999726,['n'],1,right,['u'],1,0.17589079999993373,0.4,1,0,FastFast,3,18,Man,Right,
20,4,1,0.6511275000000296,['c'],0,right,['u'],1,0.1449795000000904,0.2,0,0,FastFast,3,18,Man,Right,
21,4,1,0.9684154999999919,['c'],1,left,['u'],1,0.08798979999983203,0.2,1,0,FastFast,3,18,Man,Right,
22,4,1,1.015534099999968,['n'],1,right,['e'],0,0.09407839999994394,0.1,0,0,FastFast,3,18,Man,Right,
23,4,1,0.5344723999999133,['c'],1,left,['u'],1,0.168275900000026,0.4,1,0,FastFast,3,18,Man,Right,
24,4,1,0.5824685000000045,['n'],1,right,['u'],1,0.13992460000008577,0.4,1,0,FastFast,3,18,Man,Right,
25,4,1,0.5505886999999348,['c'],1,left,['u'],1,0.09940339999980097,0.4,1,0,FastFast,3,18,Man,Right,
26,4,1,0.7833497999999963,['n'],1,right,['u'],1,0.11340130000007775,0.1,1,0,FastFast,3,18,Man,Right,
27,4,1,0.46679040000003624,['c'],1,left,['u'],1,0.09242450000010649,0.4,1,0,FastFast,3,18,Man,Right,
28,4,1,1.0002385000000231,['c'],1,left,['u'],1,0.13130729999988944,0.2,1,0,FastFast,3,18,Man,Right,
29,4,1,0.7338663000000452,['n'],1,right,['u'],1,0.11473380000006728,0.2,1,0,FastFast,3,18,Man,Right,
30,4,1,0.9348187999999027,['c'],0,right,['e'],0,0.155017799999996,0.2,1,0,FastFast,3,18,Man,Right,
31,4,1,0.8499770000000808,['n'],0,left,['u'],1,0.14950069999986226,0.2,0,0,FastFast,3,18,Man,Right,
32,4,1,1.0344578000001547,['c'],0,right,['e'],0,0.15269590000002609,0.2,1,0,FastFast,3,18,Man,Right,
33,4,1,1.034312,['n'],0,left,['e'],0,0.1869778000000224,0.1,1,0,FastFast,3,18,Man,Right,
34,4,1,0.717478999999912,['n'],1,right,['u'],1,0.12150219999989531,0.2,1,0,FastFast,3,18,Man,Right,
35,4,1,0.6335220000000845,['c'],0,right,['u'],1,0.029654799999889292,0.2,0,0,FastFast,3,18,Man,Right,
36,4,1,0.6510289000000284,['n'],1,right,['e'],0,0.10042060000000674,0.1,0,0,FastFast,3,18,Man,Right,
37,4,1,1.201259700000037,['n'],1,right,['u'],1,0.08311969999999747,0.4,1,0,FastFast,3,18,Man,Right,
38,4,1,1.7513652000000093,['c'],1,left,['e'],0,0.14023150000002715,0.1,0,0,FastFast,3,18,Man,Right,
39,4,1,0.7157931000001554,['n'],0,left,['e'],0,0.1088072000000011,0.2,1,0,FastFast,3,18,Man,Right,
40,4,1,0.7508333000000675,['n'],1,right,['u'],1,0.10838659999990341,0.1,1,0,FastFast,3,18,Man,Right,
41,4,1,0.9671574000001328,['n'],0,left,['e'],0,0.03577150000000984,0.2,1,0,FastFast,3,18,Man,Right,
42,4,1,1.0999170999998569,['n'],1,right,['u'],1,0.1222055000000637,0.2,1,0,FastFast,3,18,Man,Right,
43,4,1,1.3330474999997932,['c'],0,right,['e'],0,0.11408449999998993,0.1,1,0,FastFast,3,18,Man,Right,
44,4,1,0.9330623999999261,['n'],0,left,['e'],0,0.04265129999998862,0.1,1,0,FastFast,3,18,Man,Right,
45,4,1,1.1011826999999812,['c'],1,left,['u'],1,0.20657510000000912,0.1,1,0,FastFast,3,18,Man,Right,
46,4,1,1.1177675999999792,['c'],1,left,['u'],1,0.06002340000009099,0.1,1,0,FastFast,3,18,Man,Right,
47,4,1,0.7008677999999691,['n'],1,right,['u'],1,0.1127212999999756,0.4,1,0,FastFast,3,18,Man,Right,
48,4,1,0.5328458999999839,['n'],0,left,['u'],1,0.10566930000004504,0.2,0,0,FastFast,3,18,Man,Right,
49,4,1,1.0678029000000606,['c'],1,left,['u'],1,0.22027630000002318,0.4,1,0,FastFast,3,18,Man,Right,
50,4,1,2.40170060000014,['c'],1,left,['e'],0,0.07000399999992624,0.4,0,0,FastFast,3,18,Man,Right,
51,4,1,0.8166968999998971,['n'],1,right,['u'],1,0.08524209999995946,0.2,1,0,FastFast,3,18,Man,Right,
52,4,1,0.7346615999999813,['n'],1,right,['u'],1,0.03844759999992675,0.2,1,0,FastFast,3,18,Man,Right,
53,4,1,0.8004453000000922,['c'],1,left,['u'],1,0.055465299999923445,0.1,1,0,FastFast,3,18,Man,Right,
54,4,1,0.7846352999999908,['c'],1,left,['u'],1,0.02431580000006761,0.4,1,0,FastFast,3,18,Man,Right,
55,4,1,1.3843203999999787,['c'],0,right,['u'],1,0.01897889999986546,0.1,0,0,FastFast,3,18,Man,Right,
56,4,1,0.5166859000000841,['n'],1,right,['u'],1,0.06350780000002487,0.4,1,0,FastFast,3,18,Man,Right,
57,4,1,0.6008628000001863,['n'],0,left,['u'],1,0.05509519999986878,0.1,0,0,FastFast,3,18,Man,Right,
58,4,1,1.017148799999859,['c'],0,right,['u'],1,0.04679040000019086,0.4,0,0,FastFast,3,18,Man,Right,
59,4,1,1.2997503999999935,['c'],0,right,['e'],0,0.15584530000000996,0.4,1,0,FastFast,3,18,Man,Right,
0,5,1,5.016110000000026,x,-99,left,none,-99,-99,0.1,-99,1,AccFast,3,18,Man,Right,
1,5,1,2.2507106999998996,['n'],1,right,['e'],0,0.8514130000000932,0.1,0,0,AccFast,3,18,Man,Right,
2,5,1,3.1661165000000437,['c'],1,left,['e'],0,1.350157900000113,0.2,0,0,AccFast,3,18,Man,Right,
3,5,1,1.9166490000000067,['n'],0,left,['e'],0,1.8299134000001231,0.1,1,0,AccFast,3,18,Man,Right,
4,5,1,1.5340679999999338,['n'],1,right,['u'],1,0.6253431999998611,0.4,1,0,AccFast,3,18,Man,Right,
5,5,1,3.182714699999906,['n'],0,left,['e'],0,1.564020699999901,0.4,1,0,AccFast,3,18,Man,Right,
6,5,1,2.5664428000000044,['n'],0,left,['u'],1,1.769150300000092,0.4,0,0,AccFast,3,18,Man,Right,
7,5,1,1.567783499999905,['n'],1,right,['u'],1,1.6381702000001042,0.2,1,0,AccFast,3,18,Man,Right,
8,5,1,1.2013443999999254,['c'],1,left,['u'],1,2.1511083999998846,0.4,1,0,AccFast,3,18,Man,Right,
9,5,1,0.7510397000000921,['n'],1,right,['u'],1,1.925692700000127,0.4,1,0,AccFast,3,18,Man,Right,
10,5,1,3.3005198000000746,['c'],0,right,['u'],1,0.1359159000001,0.4,0,0,AccFast,3,18,Man,Right,
11,5,1,0.650762499999928,['c'],1,left,['u'],1,0.12276469999983419,0.2,1,0,AccFast,3,18,Man,Right,
12,5,1,0.834120299999995,['c'],0,right,['u'],1,0.05521980000003168,0.2,0,0,AccFast,3,18,Man,Right,
13,5,1,0.7168669000000136,['n'],0,left,['u'],1,0.026823800000101983,0.2,0,0,AccFast,3,18,Man,Right,
14,5,1,0.466985300000033,['c'],0,right,['u'],1,0.025608799999872645,0.2,0,0,AccFast,3,18,Man,Right,
15,5,1,1.0014280999998846,['c'],0,right,['e'],0,0.05096800000001167,0.2,1,0,AccFast,3,18,Man,Right,
16,5,1,0.48308320000001004,['n'],1,right,['e'],0,0.09725249999996777,0.1,0,0,AccFast,3,18,Man,Right,
17,5,1,0.767180099999905,['n'],1,right,['u'],1,0.047815700000001016,0.2,1,0,AccFast,3,18,Man,Right,
18,5,1,1.4677639000001363,['c'],0,right,['u'],1,0.005610100000012608,0.4,0,0,AccFast,3,18,Man,Right,
19,5,1,0.9159766000000218,['c'],1,left,['e'],0,0.03602259999979651,0.1,0,0,AccFast,3,18,Man,Right,
20,5,1,2.484479199999896,['c'],0,right,['e'],0,0.6883612000001449,0.1,1,0,AccFast,3,18,Man,Right,
21,5,1,1.5174745000001622,['c'],1,left,['u'],1,0.13984610000011344,0.4,1,0,AccFast,3,18,Man,Right,
22,5,1,3.1677675999999337,['c'],0,right,['e'],0,0.825641399999995,0.1,1,0,AccFast,3,18,Man,Right,
23,5,1,2.449451700000054,['n'],0,left,['e'],0,0.37737010000000737,0.1,1,0,AccFast,3,18,Man,Right,
24,5,1,1.0674165000000357,['c'],1,left,['u'],1,0.5781890000000658,0.2,1,0,AccFast,3,18,Man,Right,
25,5,1,1.2674976000000697,['c'],1,left,['u'],1,0.07525610000016059,0.4,1,0,AccFast,3,18,Man,Right,
26,5,1,1.7674804999999196,['c'],1,left,['u'],1,0.11633659999984047,0.4,1,0,AccFast,3,18,Man,Right,
27,5,1,2.4839554000000135,['n'],0,left,['e'],0,0.07874259999994138,0.1,1,0,AccFast,3,18,Man,Right,
28,5,1,1.9181998999999905,['c'],1,left,['u'],1,0.3212172000000919,0.4,1,0,AccFast,3,18,Man,Right,
29,5,1,2.166710700000067,['c'],0,right,['u'],1,0.04830049999986841,0.2,0,0,AccFast,3,18,Man,Right,
30,5,1,1.766672700000072,['n'],1,right,['e'],0,0.7782867999999326,0.4,0,0,AccFast,3,18,Man,Right,
31,5,1,1.950842099999818,['c'],1,left,['u'],1,0.33577020000006996,0.4,1,0,AccFast,3,18,Man,Right,
32,5,1,2.0676994000000377,['n'],0,left,['e'],0,0.19400289999998677,0.2,1,0,AccFast,3,18,Man,Right,
33,5,1,2.5830171000000064,['c'],1,left,['e'],0,0.05506500000001324,0.4,0,0,AccFast,3,18,Man,Right,
34,5,1,1.8003889000001436,['n'],0,left,['e'],0,0.12725369999998293,0.1,1,0,AccFast,3,18,Man,Right,
35,5,1,2.033500199999935,['n'],1,right,['e'],0,0.05896320000010746,0.1,0,0,AccFast,3,18,Man,Right,
36,5,1,1.7843144000000848,['n'],1,right,['e'],0,0.03559589999986201,0.4,0,0,AccFast,3,18,Man,Right,
37,5,1,2.0341465999999855,['c'],0,right,['e'],0,0.03539630000000216,0.1,1,0,AccFast,3,18,Man,Right,
38,5,1,2.801172700000052,['c'],1,left,['e'],0,0.0365438000001177,0.1,0,0,AccFast,3,18,Man,Right,
39,5,1,2.0331286000000546,['c'],1,left,['e'],0,0.02097649999996065,0.1,0,0,AccFast,3,18,Man,Right,
40,5,1,1.6503695000001244,['n'],1,right,['e'],0,0.05198249999989457,0.1,0,0,AccFast,3,18,Man,Right,
41,5,1,1.9500557000001209,['n'],1,right,['u'],1,0.0704000000000633,0.4,1,0,AccFast,3,18,Man,Right,
42,5,1,3.099932200000012,['c'],1,left,['e'],0,0.027039800000011383,0.1,0,0,AccFast,3,18,Man,Right,
43,5,1,2.667103300000008,['c'],1,left,['e'],0,0.01820980000002237,0.2,0,0,AccFast,3,18,Man,Right,
44,5,1,1.0007484999998724,['n'],1,right,['e'],0,0.011652899999944566,0.4,0,0,AccFast,3,18,Man,Right,
45,5,1,2.9337891000000127,['n'],0,left,['e'],0,0.0720189000001028,0.2,1,0,AccFast,3,18,Man,Right,
46,5,1,2.567326699999967,['n'],0,left,['e'],0,0.06458900000006906,0.1,1,0,AccFast,3,18,Man,Right,
47,5,1,3.484335000000101,['c'],1,left,['e'],0,0.03711869999983719,0.1,0,0,AccFast,3,18,Man,Right,
48,5,1,2.367417999999816,['n'],1,right,['u'],1,0.18355389999987892,0.2,1,0,AccFast,3,18,Man,Right,
49,5,1,0.9668758000000253,['n'],1,right,['u'],1,0.05976239999995414,0.4,1,0,AccFast,3,18,Man,Right,
50,5,1,2.4177492999999686,['n'],1,right,['u'],1,0.12353839999991578,0.2,1,0,AccFast,3,18,Man,Right,
51,5,1,2.800470599999926,['n'],1,right,['e'],0,0.025416100000029473,0.2,0,0,AccFast,3,18,Man,Right,
52,5,1,1.5678570000000036,['n'],1,right,['e'],0,1.1164204000001519,0.2,0,0,AccFast,3,18,Man,Right,
53,5,1,1.517804900000101,['c'],1,left,['e'],0,0.053996399999959976,0.2,0,0,AccFast,3,18,Man,Right,
54,5,1,0.6675119999999879,['n'],1,right,['e'],0,0.043015999999852284,0.4,0,0,AccFast,3,18,Man,Right,
55,5,1,1.3675494999999955,['n'],0,left,['e'],0,0.8694940999998835,0.2,1,0,AccFast,3,18,Man,Right,
56,5,1,2.4003680000000713,['n'],1,right,['e'],0,0.037327600000025996,0.1,0,0,AccFast,3,18,Man,Right,
57,5,1,2.100657799999908,['c'],0,right,['e'],0,0.08215530000006765,0.1,1,0,AccFast,3,18,Man,Right,
58,5,1,1.8835727000000588,['n'],1,right,['e'],0,0.006412899999986621,0.4,0,0,AccFast,3,18,Man,Right,
59,5,1,3.050613999999996,['n'],0,left,['e'],0,0.062540300000137,0.2,1,0,AccFast,3,18,Man,Right,
0,6,1,2.2663486000001285,['n'],1,right,['u'],1,1.5837887000000137,0.2,1,0,AccAcc,3,18,Man,Right,
1,6,1,3.317228699999987,['n'],1,right,['u'],1,1.3101412999999411,0.4,1,0,AccAcc,3,18,Man,Right,
2,6,1,2.999413800000184,['n'],1,right,['e'],0,1.6539712999999665,0.2,0,0,AccAcc,3,18,Man,Right,
3,6,1,1.0344033999999738,['c'],1,left,['u'],1,0.9878613999999288,0.4,1,0,AccAcc,3,18,Man,Right,
4,6,1,2.033883199999991,['n'],1,right,['u'],1,1.557715299999927,0.4,1,0,AccAcc,3,18,Man,Right,
5,6,1,1.3836792000001878,['c'],1,left,['u'],1,1.7307631000001038,0.2,1,0,AccAcc,3,18,Man,Right,
6,6,1,1.0345022999999856,['n'],1,right,['e'],0,1.990521899999976,0.2,0,0,AccAcc,3,18,Man,Right,
7,6,1,2.784166599999935,['n'],0,left,['e'],0,1.4665711000000101,0.2,1,0,AccAcc,3,18,Man,Right,
8,6,1,2.550749800000176,['n'],1,right,['e'],0,1.4849898999998459,0.2,0,0,AccAcc,3,18,Man,Right,
9,6,1,2.367574199999808,['n'],0,left,['e'],0,1.717068799999879,0.2,1,0,AccAcc,3,18,Man,Right,
10,6,1,4.517158999999992,['c'],1,left,['e'],0,1.5665228000000297,0.4,0,0,AccAcc,3,18,Man,Right,
11,6,1,1.3012664999998833,['c'],1,left,['u'],1,1.3424519000000146,0.4,1,0,AccAcc,3,18,Man,Right,
12,6,1,3.1003089999999247,['n'],0,left,['e'],0,1.4715410999999676,0.4,1,0,AccAcc,3,18,Man,Right,
13,6,1,2.2668879999998808,['n'],1,right,['u'],1,1.8372962999999345,0.1,1,0,AccAcc,3,18,Man,Right,
14,6,1,1.9002252000000226,['n'],1,right,['u'],1,1.6902709000000868,0.2,1,0,AccAcc,3,18,Man,Right,
15,6,1,0.8000646000000415,['n'],1,right,['u'],1,3.066164600000093,0.4,1,0,AccAcc,3,18,Man,Right,
16,6,1,0.8835291000000325,['n'],0,left,['u'],1,2.382237499999974,0.1,0,0,AccAcc,3,18,Man,Right,
17,6,1,0.7832902000000104,['n'],1,right,['u'],1,2.850648199999796,0.4,1,0,AccAcc,3,18,Man,Right,
18,6,1,2.8668705000000045,['n'],0,left,['u'],1,1.135788600000069,0.2,0,0,AccAcc,3,18,Man,Right,
19,6,1,3.9008481999999276,['n'],1,right,['e'],0,1.9292268000001513,0.1,0,0,AccAcc,3,18,Man,Right,
20,6,1,3.29978600000004,['c'],1,left,['e'],0,2.37900720000016,0.1,0,0,AccAcc,3,18,Man,Right,
21,6,1,3.9170100999999704,['c'],1,left,['e'],0,3.7615897000000587,0.4,0,0,AccAcc,3,18,Man,Right,
22,6,1,4.183173899999929,['c'],1,left,['e'],0,1.9439694000000145,0.2,0,0,AccAcc,3,18,Man,Right,
23,6,1,2.7328914000001987,['n'],1,right,['e'],0,1.631050899999991,0.1,0,0,AccAcc,3,18,Man,Right,
24,6,1,2.917970700000069,['n'],0,left,['e'],0,2.0759279999999762,0.1,1,0,AccAcc,3,18,Man,Right,
25,6,1,4.466726599999902,['n'],1,right,['e'],0,0.2979927999999745,0.1,0,0,AccAcc,3,18,Man,Right,
26,6,1,3.5840911999998752,['n'],1,right,['e'],0,1.7123525000001791,0.1,0,0,AccAcc,3,18,Man,Right,
27,6,1,2.900722999999971,['n'],0,left,['e'],0,2.2345405000000937,0.4,1,0,AccAcc,3,18,Man,Right,
28,6,1,2.4003960000000006,['n'],1,right,['u'],1,1.8761698999999226,0.2,1,0,AccAcc,3,18,Man,Right,
29,6,1,1.150936399999864,['n'],1,right,['u'],1,2.125667700000122,0.2,1,0,AccAcc,3,18,Man,Right,
30,6,1,3.834385300000122,['n'],0,left,['e'],0,1.8433828000001995,0.1,1,0,AccAcc,3,18,Man,Right,
31,6,1,3.0006025000000136,['c'],1,left,['u'],1,1.7797863999999208,0.4,1,0,AccAcc,3,18,Man,Right,
32,6,1,4.6996560000000045,['c'],1,left,['e'],0,2.547583399999894,0.1,0,0,AccAcc,3,18,Man,Right,
33,6,1,2.783225200000061,['c'],1,left,['e'],0,2.5287746999999854,0.2,0,0,AccAcc,3,18,Man,Right,
34,6,1,2.900471800000105,['c'],1,left,['e'],0,2.3304483999997956,0.4,0,0,AccAcc,3,18,Man,Right,
35,6,1,3.3176968000000215,['n'],0,left,['e'],0,2.362769500000013,0.4,1,0,AccAcc,3,18,Man,Right,
36,6,1,4.767495100000133,['n'],1,right,['e'],0,3.0725407999998424,0.2,0,0,AccAcc,3,18,Man,Right,
37,6,1,3.267498800000112,['n'],0,left,['e'],0,1.6219716999999036,0.4,1,0,AccAcc,3,18,Man,Right,
38,6,1,2.6348210999999537,['n'],0,left,['e'],0,2.1106320999999753,0.1,1,0,AccAcc,3,18,Man,Right,
39,6,1,3.4178359,['n'],1,right,['e'],0,1.9246868000000177,0.2,0,0,AccAcc,3,18,Man,Right,
40,6,1,3.651311600000099,['c'],1,left,['e'],0,2.1846660999999585,0.1,0,0,AccAcc,3,18,Man,Right,
41,6,1,3.717061300000296,['n'],1,right,['e'],0,2.815520000000106,0.1,0,0,AccAcc,3,18,Man,Right,
42,6,1,3.8174355000001015,['n'],1,right,['e'],0,2.1212282999999843,0.1,0,0,AccAcc,3,18,Man,Right,
43,6,1,2.4345572000001994,['n'],0,left,['e'],0,1.813798699999552,0.2,1,0,AccAcc,3,18,Man,Right,
44,6,1,3.6163855999998304,['c'],0,right,['e'],0,1.4717138000000887,0.1,1,0,AccAcc,3,18,Man,Right,
45,6,1,1.4345754000000852,['n'],1,right,['e'],0,0.8455775000002177,0.1,0,0,AccAcc,3,18,Man,Right,
46,6,1,0.7668518000000404,['n'],1,right,['u'],1,1.1674308999999994,0.4,1,0,AccAcc,3,18,Man,Right,
47,6,1,1.2334985000002234,['c'],1,left,['e'],0,1.698284799999783,0.1,0,0,AccAcc,3,18,Man,Right,
48,6,1,1.333197900000414,['n'],1,right,['u'],1,1.3708956999998918,0.4,1,0,AccAcc,3,18,Man,Right,
49,6,1,4.334168600000339,['n'],0,left,['u'],1,1.7215535000000273,0.4,0,0,AccAcc,3,18,Man,Right,
50,6,1,5.016464599999836,x,-99,left,none,-99,-99,0.4,-99,1,AccAcc,3,18,Man,Right,
51,6,1,1.3341330000002927,['n'],1,right,['u'],1,1.4202679999998509,0.4,1,0,AccAcc,3,18,Man,Right,
52,6,1,1.3837587000002713,['c'],0,right,['e'],0,1.6629382999999507,0.2,1,0,AccAcc,3,18,Man,Right,
53,6,1,1.7010337000001527,['n'],1,right,['e'],0,0.2186876000000666,0.1,0,0,AccAcc,3,18,Man,Right,
54,6,1,2.6345602999999755,['n'],0,left,['e'],0,0.011731799999779469,0.2,1,0,AccAcc,3,18,Man,Right,
55,6,1,3.1162485999998353,['n'],0,left,['e'],0,1.5848266000002695,0.2,1,0,AccAcc,3,18,Man,Right,
56,6,1,1.1339484999998604,['n'],1,right,['u'],1,1.7991464000001542,0.4,1,0,AccAcc,3,18,Man,Right,
57,6,1,2.9177151000003505,['n'],1,right,['e'],0,2.23645949999991,0.2,0,0,AccAcc,3,18,Man,Right,
58,6,1,2.1992096999997557,['c'],1,left,['e'],0,1.7428154999997787,0.1,0,0,AccAcc,3,18,Man,Right,
59,6,1,1.3667844999999943,['n'],1,right,['e'],0,1.6848411000000851,0.1,0,0,AccAcc,3,18,Man,Right,
0,7,1,0.550912100000005,['n'],1,right,['e'],0,1.514315500000066,0.4,0,0,FastAcc,3,18,Man,Right,
1,7,1,0.6847870000001421,['c'],1,left,['e'],0,1.3803978000000825,0.2,0,0,FastAcc,3,18,Man,Right,
2,7,1,0.45018400000026304,['n'],1,right,['e'],0,0.9588269000000764,0.2,0,0,FastAcc,3,18,Man,Right,
3,7,1,1.2495300000000498,['n'],0,left,['e'],0,1.1929230999999163,0.1,1,0,FastAcc,3,18,Man,Right,
4,7,1,0.6497513999997864,['n'],0,left,['e'],0,1.5381815999999162,0.2,1,0,FastAcc,3,18,Man,Right,
5,7,1,0.6515545000002021,['n'],0,left,['e'],0,1.4521819999999934,0.1,1,0,FastAcc,3,18,Man,Right,
6,7,1,0.7342178000003514,['n'],0,left,['e'],0,1.495193499999914,0.1,1,0,FastAcc,3,18,Man,Right,
7,7,1,0.5505026999999245,['c'],1,left,['e'],0,1.5756734000001416,0.4,0,0,FastAcc,3,18,Man,Right,
8,7,1,0.7173490000000129,['c'],1,left,['u'],1,1.2468958000004022,0.4,1,0,FastAcc,3,18,Man,Right,
9,7,1,0.6665668000000551,['c'],1,left,['u'],1,1.1407036999999036,0.4,1,0,FastAcc,3,18,Man,Right,
10,7,1,0.7507676999998694,['c'],1,left,['u'],1,1.7874572999999145,0.2,1,0,FastAcc,3,18,Man,Right,
11,7,1,0.6843441000000894,['n'],1,right,['e'],0,1.5791312999999718,0.1,0,0,FastAcc,3,18,Man,Right,
12,7,1,0.5842020999998567,['c'],1,left,['e'],0,1.431525800000145,0.2,0,0,FastAcc,3,18,Man,Right,
13,7,1,0.5850639000000228,['c'],1,left,['e'],0,1.6245103000001109,0.4,0,0,FastAcc,3,18,Man,Right,
14,7,1,0.9511745999998311,['n'],0,left,['e'],0,1.284433600000284,0.2,1,0,FastAcc,3,18,Man,Right,
15,7,1,0.3342747000001509,['n'],1,right,['e'],0,1.5900348999998641,0.4,0,0,FastAcc,3,18,Man,Right,
16,7,1,0.2831511999997929,['n'],1,right,['e'],0,1.6307276000002275,0.2,0,0,FastAcc,3,18,Man,Right,
17,7,1,0.46600390000003244,['c'],1,left,['u'],1,1.2770737000000736,0.1,1,0,FastAcc,3,18,Man,Right,
18,7,1,0.5326502999996592,['c'],0,right,['e'],0,1.2393098999996255,0.2,1,0,FastAcc,3,18,Man,Right,
19,7,1,0.6166671000000861,['n'],1,right,['e'],0,1.4066783999996915,0.2,0,0,FastAcc,3,18,Man,Right,
20,7,1,0.5175878999998531,['n'],1,right,['u'],1,1.6209100000000944,0.4,1,0,FastAcc,3,18,Man,Right,
21,7,1,0.43452320000005784,['n'],1,right,['e'],0,1.4929944000000432,0.4,0,0,FastAcc,3,18,Man,Right,
22,7,1,0.5670514999997067,['n'],0,left,['e'],0,1.1254245000000083,0.1,1,0,FastAcc,3,18,Man,Right,
23,7,1,0.635414800000035,['c'],1,left,['u'],1,1.2175751000004311,0.4,1,0,FastAcc,3,18,Man,Right,
24,7,1,0.5343949999996767,['n'],1,right,['e'],0,0.7340696000001117,0.1,0,0,FastAcc,3,18,Man,Right,
25,7,1,0.517327000000023,['n'],1,right,['e'],0,0.9904402000001937,0.1,0,0,FastAcc,3,18,Man,Right,
26,7,1,1.7513358999999582,['c'],1,left,['u'],1,0.05151320000004489,0.1,1,0,FastAcc,3,18,Man,Right,
27,7,1,0.9341930999999022,['c'],1,left,['u'],1,0.22218759999987014,0.4,1,0,FastAcc,3,18,Man,Right,
28,7,1,0.8498098999998547,['n'],0,left,['e'],0,0.918544799999836,0.1,1,0,FastAcc,3,18,Man,Right,
29,7,1,0.6501801999997951,['n'],0,left,['e'],0,1.721616499999982,0.1,1,0,FastAcc,3,18,Man,Right,
30,7,1,0.8672673999999461,['n'],1,right,['e'],0,3.3969802999999956,0.2,0,0,FastAcc,3,18,Man,Right,
31,7,1,0.6172793000000638,['n'],1,right,['e'],0,1.7987973999997848,0.1,0,0,FastAcc,3,18,Man,Right,
32,7,1,1.5347183000003497,['n'],0,left,['e'],0,3.2037414999999783,0.4,1,0,FastAcc,3,18,Man,Right,
33,7,1,0.4996088000002601,['n'],1,right,['e'],0,0.4194870000001174,0.2,0,0,FastAcc,3,18,Man,Right,
34,7,1,0.5669487999998637,['n'],0,left,['e'],0,2.366378600000189,0.2,1,0,FastAcc,3,18,Man,Right,
35,7,1,0.6180442999998377,['n'],1,right,['u'],1,1.7689626999999746,0.1,1,0,FastAcc,3,18,Man,Right,
36,7,1,0.7679943999996794,['n'],0,left,['u'],1,1.5894477000001643,0.4,0,0,FastAcc,3,18,Man,Right,
37,7,1,0.5840568999997231,['n'],1,right,['u'],1,1.537828300000001,0.4,1,0,FastAcc,3,18,Man,Right,
38,7,1,0.7007369000002655,['n'],1,right,['u'],1,1.4823409000000538,0.1,1,0,FastAcc,3,18,Man,Right,
39,7,1,0.8841671000000133,['n'],0,left,['u'],1,1.6141820000002554,0.4,0,0,FastAcc,3,18,Man,Right,
40,7,1,1.1505870000000868,['c'],0,right,['e'],0,1.5385188000000198,0.1,1,0,FastAcc,3,18,Man,Right,
41,7,1,0.6501511000001301,['n'],1,right,['e'],0,0.15727889999971012,0.1,0,0,FastAcc,3,18,Man,Right,
42,7,1,1.4679965999998785,['n'],0,left,['e'],0,1.6305959000001167,0.4,1,0,FastAcc,3,18,Man,Right,
43,7,1,0.9173466000002009,['n'],0,left,['e'],0,1.8031905000002553,0.2,1,0,FastAcc,3,18,Man,Right,
44,7,1,0.7334868000002643,['n'],1,right,['e'],0,1.4328316999999515,0.1,0,0,FastAcc,3,18,Man,Right,
45,7,1,2.4678320000002714,['n'],0,left,['e'],0,1.3748073000001568,0.1,1,0,FastAcc,3,18,Man,Right,
46,7,1,0.7517423999997845,['n'],1,right,['u'],1,1.404382500000338,0.4,1,0,FastAcc,3,18,Man,Right,
47,7,1,1.7009143999998741,['c'],0,right,['e'],0,1.7948159000002306,0.2,1,0,FastAcc,3,18,Man,Right,
48,7,1,0.7170572999998512,['n'],1,right,['e'],0,1.617002500000126,0.2,0,0,FastAcc,3,18,Man,Right,
49,7,1,0.9346627999998418,['n'],1,right,['u'],1,1.32521080000015,0.2,1,0,FastAcc,3,18,Man,Right,
50,7,1,0.33406349999995655,['n'],0,left,['e'],0,1.2306793000002472,0.2,1,0,FastAcc,3,18,Man,Right,
51,7,1,0.5675211000002491,['c'],1,left,['e'],0,1.9759752999998454,0.1,0,0,FastAcc,3,18,Man,Right,
52,7,1,0.5331632000002173,['n'],1,right,['e'],0,0.47080619999997,0.1,0,0,FastAcc,3,18,Man,Right,
53,7,1,0.6001843000003646,['n'],1,right,['u'],1,0.7819700999998531,0.4,1,0,FastAcc,3,18,Man,Right,
54,7,1,0.8505245000001196,['n'],1,right,['u'],1,0.6550812999998925,0.4,1,0,FastAcc,3,18,Man,Right,
55,7,1,1.0171476999998958,['c'],0,right,['e'],0,1.7431492999999136,0.2,1,0,FastAcc,3,18,Man,Right,
56,7,1,0.7845075000000179,['n'],1,right,['u'],1,0.89250310000034,0.4,1,0,FastAcc,3,18,Man,Right,
57,7,1,0.5675103000003219,['n'],1,right,['e'],0,0.8527742000001126,0.2,0,0,FastAcc,3,18,Man,Right,
58,7,1,0.6015198999998574,['n'],0,left,['e'],0,0.7490399000002981,0.2,1,0,FastAcc,3,18,Man,Right,
59,7,1,0.5510632999998961,['n'],0,left,['e'],0,0.8756329000002552,0.4,1,0,FastAcc,3,18,Man,Right,
0,8,1,0.7504291999998713,['c'],1,left,['u'],1,0.03190580000000409,0.4,1,0,FastFast,3,18,Man,Right,
1,8,1,0.5509378000001561,['c'],0,right,['u'],1,0.058442399999876216,0.1,0,0,FastFast,3,18,Man,Right,
2,8,1,0.701024000000416,['c'],1,left,['u'],1,0.09521519999998418,0.4,1,0,FastFast,3,18,Man,Right,
3,8,1,0.701246699999956,['n'],1,right,['u'],1,0.1294514999999592,0.4,1,0,FastFast,3,18,Man,Right,
4,8,1,0.8011882999999216,['c'],1,left,['u'],1,0.1426102999998875,0.1,1,0,FastFast,3,18,Man,Right,
5,8,1,0.7173517999999603,['n'],0,left,['e'],0,0.09457449999990786,0.1,1,0,FastFast,3,18,Man,Right,
6,8,1,0.6006545000000187,['c'],1,left,['e'],0,0.13388510000004317,0.1,0,0,FastFast,3,18,Man,Right,
7,8,1,0.48374769999963974,['c'],1,left,['u'],1,0.2393168000003243,0.1,1,0,FastFast,3,18,Man,Right,
8,8,1,0.6346591999999873,['c'],1,left,['e'],0,0.575519500000155,0.1,0,0,FastFast,3,18,Man,Right,
9,8,1,0.5349309999996876,['c'],1,left,['e'],0,0.08603719999973691,0.1,0,0,FastFast,3,18,Man,Right,
10,8,1,0.6342216000002736,['c'],1,left,['e'],0,0.1706597000002148,0.1,0,0,FastFast,3,18,Man,Right,
11,8,1,0.5674956000002567,['n'],1,right,['e'],0,0.0476091999998971,0.1,0,0,FastFast,3,18,Man,Right,
12,8,1,0.8846576000000823,['n'],1,right,['e'],0,0.0605241000002934,0.4,0,0,FastFast,3,18,Man,Right,
13,8,1,0.48441079999975045,['c'],1,left,['u'],1,0.0895767000001797,0.4,1,0,FastFast,3,18,Man,Right,
14,8,1,0.5834821000003103,['c'],1,left,['u'],1,0.43318219999991925,0.2,1,0,FastFast,3,18,Man,Right,
15,8,1,0.5003320000000713,['c'],1,left,['u'],1,0.06197699999984252,0.2,1,0,FastFast,3,18,Man,Right,
16,8,1,0.4166259000003265,['n'],0,left,['e'],0,0.22117230000003474,0.1,1,0,FastFast,3,18,Man,Right,
17,8,1,0.6001319000001786,['n'],1,right,['e'],0,0.04661089999990509,0.2,0,0,FastFast,3,18,Man,Right,
18,8,1,0.5347971000001053,['c'],1,left,['u'],1,0.07405180000023392,0.4,1,0,FastFast,3,18,Man,Right,
19,8,1,0.9506900999999743,['n'],1,right,['e'],0,0.0989491000000271,0.1,0,0,FastFast,3,18,Man,Right,
20,8,1,0.7844026000002486,['n'],1,right,['e'],0,0.1617909999999938,0.1,0,0,FastFast,3,18,Man,Right,
21,8,1,0.7167681000000812,['n'],1,right,['u'],1,0.0977007000001322,0.4,1,0,FastFast,3,18,Man,Right,
22,8,1,0.7839875999998185,['c'],1,left,['u'],1,0.016802300000108517,0.1,1,0,FastFast,3,18,Man,Right,
23,8,1,0.6334769000000051,['n'],1,right,['e'],0,0.041626199999882374,0.4,0,0,FastFast,3,18,Man,Right,
24,8,1,0.9350684000000911,['n'],1,right,['e'],0,0.3403718999998091,0.2,0,0,FastFast,3,18,Man,Right,
25,8,1,0.5843418999997994,['c'],1,left,['e'],0,0.08167069999990417,0.2,0,0,FastFast,3,18,Man,Right,
26,8,1,0.7496059999998579,['n'],1,right,['e'],0,0.05112340000005133,0.2,0,0,FastFast,3,18,Man,Right,
27,8,1,0.6338969999997062,['n'],1,right,['e'],0,0.05770459999985178,0.4,0,0,FastFast,3,18,Man,Right,
28,8,1,0.7510873999999603,['n'],0,left,['u'],1,0.15576199999986784,0.4,0,0,FastFast,3,18,Man,Right,
29,8,1,0.6509987999997975,['n'],1,right,['e'],0,0.17466960000001563,0.2,0,0,FastFast,3,18,Man,Right,
30,8,1,0.7011189999998351,['n'],0,left,['e'],0,0.09352489999992031,0.2,1,0,FastFast,3,18,Man,Right,
31,8,1,0.7834246000002167,['n'],1,right,['u'],1,0.0456253000002107,0.2,1,0,FastFast,3,18,Man,Right,
32,8,1,0.6520329999998467,['n'],1,right,['e'],0,0.0836949999998069,0.4,0,0,FastFast,3,18,Man,Right,
33,8,1,0.5844009000002188,['n'],1,right,['e'],0,0.10823389999995925,0.2,0,0,FastFast,3,18,Man,Right,
34,8,1,0.6842825999997331,['c'],1,left,['e'],0,0.1579781999998886,0.1,0,0,FastFast,3,18,Man,Right,
35,8,1,0.8673642999997355,['n'],1,right,['e'],0,0.05594729999984338,0.4,0,0,FastFast,3,18,Man,Right,
36,8,1,0.6340377999999873,['n'],1,right,['u'],1,0.11081500000000233,0.4,1,0,FastFast,3,18,Man,Right,
37,8,1,0.5177548999999999,['n'],1,right,['e'],0,0.18405870000015057,0.1,0,0,FastFast,3,18,Man,Right,
38,8,1,1.3851838999999018,['c'],1,left,['e'],0,0.09223539999993591,0.1,0,0,FastFast,3,18,Man,Right,
39,8,1,0.6669327999998131,['n'],0,left,['e'],0,0.047935700000380166,0.2,1,0,FastFast,3,18,Man,Right,
40,8,1,0.6169767999999749,['n'],1,right,['u'],1,0.039553999999952794,0.4,1,0,FastFast,3,18,Man,Right,
41,8,1,0.7340078000001995,['n'],1,right,['e'],0,0.044262800000069547,0.2,0,0,FastFast,3,18,Man,Right,
42,8,1,0.5840671000000839,['c'],1,left,['u'],1,0.21264860000019326,0.2,1,0,FastFast,3,18,Man,Right,
43,8,1,0.4491187999997237,['n'],1,right,['u'],1,0.23695299999963026,0.1,1,0,FastFast,3,18,Man,Right,
44,8,1,0.6520147999999608,['c'],1,left,['e'],0,0.12332500000002256,0.2,0,0,FastFast,3,18,Man,Right,
45,8,1,0.7176671000001988,['n'],0,left,['e'],0,0.12486179999996239,0.2,1,0,FastFast,3,18,Man,Right,
46,8,1,0.8175744000000122,['c'],0,right,['u'],1,0.041153899999699206,0.2,0,0,FastFast,3,18,Man,Right,
47,8,1,0.8678537999999207,['n'],0,left,['e'],0,0.08728220000011788,0.1,1,0,FastFast,3,18,Man,Right,
48,8,1,0.500851799999964,['c'],1,left,['u'],1,0.09852810000029422,0.4,1,0,FastFast,3,18,Man,Right,
49,8,1,0.5512950000002093,['n'],0,left,['u'],1,0.07449009999982081,0.2,0,0,FastFast,3,18,Man,Right,
50,8,1,0.6833677999998145,['c'],0,right,['e'],0,0.0465886999995746,0.2,1,0,FastFast,3,18,Man,Right,
51,8,1,0.6508175999997547,['n'],1,right,['u'],1,0.05273080000006303,0.4,1,0,FastFast,3,18,Man,Right,
52,8,1,0.9177833000003375,['c'],1,left,['e'],0,0.06449159999965559,0.1,0,0,FastFast,3,18,Man,Right,
53,8,1,0.684439999999995,['n'],0,left,['e'],0,0.03733509999983653,0.2,1,0,FastFast,3,18,Man,Right,
54,8,1,0.9498265000001993,['n'],0,left,['e'],0,0.0648630000000594,0.1,1,0,FastFast,3,18,Man,Right,
55,8,1,0.5840385000001334,['n'],1,right,['u'],1,0.21588070000007065,0.4,1,0,FastFast,3,18,Man,Right,
56,8,1,0.48376939999980095,['n'],1,right,['u'],1,0.6382014000000709,0.4,1,0,FastFast,3,18,Man,Right,
57,8,1,0.8009880999998131,['n'],1,right,['e'],0,0.08824790000016947,0.2,0,0,FastFast,3,18,Man,Right,
58,8,1,0.48418660000015734,['n'],1,right,['u'],1,0.03492779999987761,0.4,1,0,FastFast,3,18,Man,Right,
59,8,1,0.3843632999996771,['n'],1,right,['u'],1,0.4841691000001447,0.4,1,0,FastFast,3,18,Man,Right,
0,9,1,1.5011423999999352,['n'],0,left,['u'],1,1.2103297000003295,0.4,0,0,AccFast,3,18,Man,Right,
1,9,1,1.7680255999998735,['n'],1,right,['e'],0,0.10163009999996575,0.1,0,0,AccFast,3,18,Man,Right,
2,9,1,1.1682636000000457,['n'],0,left,['u'],1,0.1008323000000928,0.2,0,0,AccFast,3,18,Man,Right,
3,9,1,0.7177394999998796,['n'],1,right,['u'],1,0.11831609999990178,0.2,1,0,AccFast,3,18,Man,Right,
4,9,1,0.9509738000001562,['n'],1,right,['u'],1,0.06238890000031461,0.4,1,0,AccFast,3,18,Man,Right,
5,9,1,1.001122099999975,['n'],0,left,['e'],0,0.053467600000203674,0.2,1,0,AccFast,3,18,Man,Right,
6,9,1,0.6677475999999842,['n'],0,left,['e'],0,0.12349859999994806,0.1,1,0,AccFast,3,18,Man,Right,
7,9,1,0.7676785000003292,['c'],1,left,['u'],1,0.026308900000003632,0.4,1,0,AccFast,3,18,Man,Right,
8,9,1,0.750881500000105,['n'],1,right,['e'],0,0.046283300000141026,0.1,0,0,AccFast,3,18,Man,Right,
9,9,1,1.2676636000001054,['c'],1,left,['e'],0,0.011610300000029383,0.1,0,0,AccFast,3,18,Man,Right,
10,9,1,0.7829698000000462,['n'],0,left,['e'],0,0.045928600000024744,0.2,1,0,AccFast,3,18,Man,Right,
11,9,1,0.7999883000002228,['c'],1,left,['u'],1,0.029862500000035652,0.4,1,0,AccFast,3,18,Man,Right,
12,9,1,0.7333603000001858,['n'],0,left,['e'],0,0.04938250000031985,0.1,1,0,AccFast,3,18,Man,Right,
13,9,1,0.8505432000001747,['n'],0,left,['e'],0,0.01598199999989447,0.2,1,0,AccFast,3,18,Man,Right,
14,9,1,0.7341286000000764,['n'],1,right,['u'],1,0.05245229999991352,0.4,1,0,AccFast,3,18,Man,Right,
15,9,1,0.5678824999999961,['n'],1,right,['u'],1,0.04578189999983806,0.4,1,0,AccFast,3,18,Man,Right,
16,9,1,1.7505347000001166,['c'],0,right,['e'],0,0.07277160000012373,0.1,1,0,AccFast,3,18,Man,Right,
17,9,1,2.7505443000000014,['n'],1,right,['u'],1,0.010226200000033714,0.4,1,0,AccFast,3,18,Man,Right,
18,9,1,2.3661102999999457,['n'],1,right,['u'],1,0.6705400000000736,0.2,1,0,AccFast,3,18,Man,Right,
19,9,1,1.9008714999999938,['c'],1,left,['e'],0,0.24918239999988145,0.1,0,0,AccFast,3,18,Man,Right,
20,9,1,2.150926000000254,['n'],0,left,['e'],0,0.0761544000001777,0.1,1,0,AccFast,3,18,Man,Right,
21,9,1,2.2331130000002304,['c'],0,right,['e'],0,0.018505999999888445,0.1,1,0,AccFast,3,18,Man,Right,
22,9,1,1.9505434000002424,['n'],1,right,['e'],0,0.0540539999997236,0.1,0,0,AccFast,3,18,Man,Right,
23,9,1,0.8338051999999152,['n'],1,right,['u'],1,0.005166299999928015,0.4,1,0,AccFast,3,18,Man,Right,
24,9,1,1.7834797999998955,['c'],0,right,['e'],0,0.287734300000011,0.4,1,0,AccFast,3,18,Man,Right,
25,9,1,2.2840627000000495,['n'],1,right,['e'],0,0.07565789999989647,0.2,0,0,AccFast,3,18,Man,Right,
26,9,1,2.1839435000001686,['n'],1,right,['e'],0,0.06780760000037844,0.2,0,0,AccFast,3,18,Man,Right,
27,9,1,0.933184799999708,['c'],1,left,['u'],1,0.04625080000005255,0.2,1,0,AccFast,3,18,Man,Right,
28,9,1,1.0339969000001474,['n'],1,right,['u'],1,1.0769452999998066,0.2,1,0,AccFast,3,18,Man,Right,
29,9,1,1.333598300000176,['c'],0,right,['e'],0,0.31153200000017023,0.1,1,0,AccFast,3,18,Man,Right,
30,9,1,1.217825300000186,['n'],1,right,['e'],0,0.22175909999987198,0.1,0,0,AccFast,3,18,Man,Right,
31,9,1,3.1340049000000363,['n'],0,left,['e'],0,0.02586909999990894,0.1,1,0,AccFast,3,18,Man,Right,
32,9,1,1.6673510000000533,['c'],0,right,['e'],0,0.47254130000010264,0.2,1,0,AccFast,3,18,Man,Right,
33,9,1,3.0169121000003543,['n'],0,left,['e'],0,0.01599179999993794,0.1,1,0,AccFast,3,18,Man,Right,
34,9,1,1.8006927999999789,['n'],0,left,['e'],0,0.042172800000116695,0.1,1,0,AccFast,3,18,Man,Right,
35,9,1,1.3007959000001392,['n'],0,left,['e'],0,0.022594999999910215,0.1,1,0,AccFast,3,18,Man,Right,
36,9,1,1.8503740999999536,['n'],1,right,['e'],0,0.04617099999995844,0.1,0,0,AccFast,3,18,Man,Right,
37,9,1,0.8338740999997754,['n'],1,right,['e'],0,0.013416899999810994,0.2,0,0,AccFast,3,18,Man,Right,
38,9,1,1.433860199999799,['n'],0,left,['e'],0,0.02148219999980938,0.2,1,0,AccFast,3,18,Man,Right,
39,9,1,1.817085600000155,['c'],1,left,['u'],1,0.36677629999985584,0.4,1,0,AccFast,3,18,Man,Right,
40,9,1,3.0178031999998893,['c'],1,left,['u'],1,0.025859200000013516,0.4,1,0,AccFast,3,18,Man,Right,
41,9,1,2.150927600000159,['n'],0,left,['u'],1,0.06958839999970223,0.2,0,0,AccFast,3,18,Man,Right,
42,9,1,1.800433299999895,['c'],1,left,['u'],1,0.02949499999976979,0.4,1,0,AccFast,3,18,Man,Right,
43,9,1,2.6339176999999836,['n'],0,left,['e'],0,0.11664060000020982,0.2,1,0,AccFast,3,18,Man,Right,
44,9,1,1.5503393000003598,['n'],1,right,['u'],1,0.0846784000000298,0.2,1,0,AccFast,3,18,Man,Right,
45,9,1,1.6333181999998487,['c'],1,left,['u'],1,0.018569700000170997,0.4,1,0,AccFast,3,18,Man,Right,
46,9,1,2.1167076000001543,['c'],0,right,['u'],1,0.4633136000002196,0.1,0,0,AccFast,3,18,Man,Right,
47,9,1,2.8345634000002065,['n'],0,left,['e'],0,0.045759000000089145,0.2,1,0,AccFast,3,18,Man,Right,
48,9,1,2.084191400000236,['c'],0,right,['e'],0,0.058822500000133005,0.2,1,0,AccFast,3,18,Man,Right,
49,9,1,1.3161733000001732,['c'],1,left,['e'],0,0.07104840000010881,0.4,0,0,AccFast,3,18,Man,Right,
50,9,1,2.7167214000000968,['n'],1,right,['e'],0,0.026111500000297383,0.4,0,0,AccFast,3,18,Man,Right,
51,9,1,0.9174471999999696,['c'],1,left,['u'],1,0.039360799999940355,0.4,1,0,AccFast,3,18,Man,Right,
52,9,1,2.0017124999999396,['n'],0,left,['e'],0,0.023928000000069005,0.1,1,0,AccFast,3,18,Man,Right,
53,9,1,2.9175829999999223,['n'],1,right,['u'],1,0.021023799999966286,0.4,1,0,AccFast,3,18,Man,Right,
54,9,1,0.8009933999996974,['c'],1,left,['u'],1,0.006894600000123319,0.4,1,0,AccFast,3,18,Man,Right,
55,9,1,1.083933700000216,['n'],1,right,['u'],1,0.0613349999998718,0.4,1,0,AccFast,3,18,Man,Right,
56,9,1,2.2833661999998185,['n'],0,left,['u'],1,0.4667398999999932,0.1,0,0,AccFast,3,18,Man,Right,
57,9,1,1.5342925999998442,['c'],0,right,['u'],1,0.3567369000002145,0.2,0,0,AccFast,3,18,Man,Right,
58,9,1,2.0849145000001954,['n'],1,right,['u'],1,0.2940160000002834,0.2,1,0,AccFast,3,18,Man,Right,
59,9,1,2.2342438999999104,['n'],1,right,['u'],1,0.003860100000110833,0.4,1,0,AccFast,3,18,Man,Right,
0,10,1,1.2512186000003567,['c'],0,right,['u'],1,2.7382926999998745,0.1,0,0,AccAcc,3,18,Man,Right,
1,10,1,2.217421100000138,['n'],0,left,['e'],0,1.1825247000001582,0.4,1,0,AccAcc,3,18,Man,Right,
2,10,1,2.400554999999713,['n'],0,left,['e'],0,1.6018235999999888,0.1,1,0,AccAcc,3,18,Man,Right,
3,10,1,1.8331889000000956,['n'],1,right,['e'],0,2.2838348000000224,0.2,0,0,AccAcc,3,18,Man,Right,
4,10,1,2.483495700000276,['c'],0,right,['e'],0,1.935273099999904,0.1,1,0,AccAcc,3,18,Man,Right,
5,10,1,2.1002432000000226,['n'],1,right,['e'],0,1.7763262000003124,0.2,0,0,AccAcc,3,18,Man,Right,
6,10,1,1.4178345999998783,['n'],1,right,['e'],0,1.7316745000002811,0.2,0,0,AccAcc,3,18,Man,Right,
7,10,1,1.5008402000003116,['n'],0,left,['e'],0,1.7650892999999996,0.1,1,0,AccAcc,3,18,Man,Right,
8,10,1,1.5847417000004498,['n'],1,right,['e'],0,2.0171801999999843,0.1,0,0,AccAcc,3,18,Man,Right,
9,10,1,0.8008746999998948,['n'],1,right,['e'],0,2.1951389999999265,0.4,0,0,AccAcc,3,18,Man,Right,
10,10,1,2.3508593999999903,['n'],1,right,['e'],0,0.9436783999999534,0.1,0,0,AccAcc,3,18,Man,Right,
11,10,1,1.6843721999998706,['c'],1,left,['e'],0,0.7454882000001817,0.2,0,0,AccAcc,3,18,Man,Right,
12,10,1,1.3345291000000543,['c'],1,left,['e'],0,1.336334000000079,0.4,0,0,AccAcc,3,18,Man,Right,
13,10,1,2.667459400000098,['n'],1,right,['e'],0,1.6433325999996669,0.2,0,0,AccAcc,3,18,Man,Right,
14,10,1,0.6352503000002798,['c'],1,left,['u'],1,1.4750147999998262,0.4,1,0,AccAcc,3,18,Man,Right,
15,10,1,0.8509705999999824,['c'],1,left,['e'],0,1.57650220000005,0.4,0,0,AccAcc,3,18,Man,Right,
16,10,1,1.3841884999997092,['n'],0,left,['e'],0,1.349078400000053,0.1,1,0,AccAcc,3,18,Man,Right,
17,10,1,0.5008506999997735,['c'],1,left,['u'],1,1.389416600000004,0.4,1,0,AccAcc,3,18,Man,Right,
18,10,1,1.2674604999997428,['c'],0,right,['u'],1,1.141908500000227,0.1,0,0,AccAcc,3,18,Man,Right,
19,10,1,0.767478299999766,['c'],1,left,['e'],0,1.2281142000001637,0.1,0,0,AccAcc,3,18,Man,Right,
20,10,1,0.9183122999997977,['c'],1,left,['e'],0,1.465889099999913,0.2,0,0,AccAcc,3,18,Man,Right,
21,10,1,4.116581400000086,['c'],0,right,['e'],0,0.8767775000001166,0.1,1,0,AccAcc,3,18,Man,Right,
22,10,1,0.884070900000097,['n'],1,right,['e'],0,1.6570470000001478,0.2,0,0,AccAcc,3,18,Man,Right,
23,10,1,0.9175528999999187,['n'],0,left,['e'],0,1.3328771999999844,0.1,1,0,AccAcc,3,18,Man,Right,
24,10,1,1.0175946999997905,['n'],0,left,['e'],0,1.577299900000071,0.2,1,0,AccAcc,3,18,Man,Right,
25,10,1,0.6846872999999505,['n'],1,right,['u'],1,1.2017135000000962,0.4,1,0,AccAcc,3,18,Man,Right,
26,10,1,0.516914799999995,['c'],1,left,['u'],1,0.6714148000000932,0.4,1,0,AccAcc,3,18,Man,Right,
27,10,1,1.3672392000003128,['n'],1,right,['e'],0,1.392428099999961,0.1,0,0,AccAcc,3,18,Man,Right,
28,10,1,1.349941399999807,['n'],0,left,['u'],1,1.4135573000003205,0.4,0,0,AccAcc,3,18,Man,Right,
29,10,1,0.8335658000000876,['n'],1,right,['e'],0,1.4226478999999017,0.2,0,0,AccAcc,3,18,Man,Right,
30,10,1,0.8844459000001734,['n'],1,right,['u'],1,1.3807827999999063,0.4,1,0,AccAcc,3,18,Man,Right,
31,10,1,0.7834804000003714,['n'],1,right,['e'],0,1.520162700000128,0.2,0,0,AccAcc,3,18,Man,Right,
32,10,1,1.584342000000106,['n'],0,left,['e'],0,1.6548074000002089,0.1,1,0,AccAcc,3,18,Man,Right,
33,10,1,0.8330326000000241,['n'],0,left,['e'],0,1.685623299999861,0.2,1,0,AccAcc,3,18,Man,Right,
34,10,1,1.300987300000088,['n'],1,right,['e'],0,1.5688630999998168,0.2,0,0,AccAcc,3,18,Man,Right,
35,10,1,1.2510167999998885,['c'],1,left,['e'],0,1.5235404000000017,0.1,0,0,AccAcc,3,18,Man,Right,
36,10,1,1.8005482000003212,['n'],1,right,['e'],0,1.0404948000000331,0.2,0,0,AccAcc,3,18,Man,Right,
37,10,1,1.8003837999999632,['n'],1,right,['e'],0,1.7144336000001204,0.4,0,0,AccAcc,3,18,Man,Right,
38,10,1,1.58355709999978,['n'],1,right,['e'],0,1.4402743000000555,0.4,0,0,AccAcc,3,18,Man,Right,
39,10,1,1.1004658000001655,['n'],0,left,['e'],0,1.4692843999996512,0.1,1,0,AccAcc,3,18,Man,Right,
40,10,1,0.7165518000001612,['n'],1,right,['u'],1,0.696389900000213,0.2,1,0,AccAcc,3,18,Man,Right,
41,10,1,0.9832923000003575,['n'],0,left,['e'],0,0.42365239999980986,0.4,1,0,AccAcc,3,18,Man,Right,
42,10,1,0.6011816000000181,['n'],1,right,['u'],1,0.6249001000001044,0.4,1,0,AccAcc,3,18,Man,Right,
43,10,1,2.217597100000148,['n'],1,right,['e'],0,1.8580181000002085,0.2,0,0,AccAcc,3,18,Man,Right,
44,10,1,1.983858600000076,['c'],1,left,['e'],0,1.8831105999997817,0.4,0,0,AccAcc,3,18,Man,Right,
45,10,1,2.0176862999996956,['n'],1,right,['u'],1,1.6017360000000735,0.4,1,0,AccAcc,3,18,Man,Right,
46,10,1,1.9513111000001118,['n'],0,left,['e'],0,1.830285399999866,0.1,1,0,AccAcc,3,18,Man,Right,
47,10,1,2.084174399999938,['n'],0,left,['e'],0,1.9483107999999447,0.2,1,0,AccAcc,3,18,Man,Right,
48,10,1,2.817335700000058,['n'],1,right,['e'],0,1.9685480999996798,0.1,0,0,AccAcc,3,18,Man,Right,
49,10,1,3.2009930999997778,['n'],1,right,['e'],0,2.6765080999998645,0.1,0,0,AccAcc,3,18,Man,Right,
50,10,1,4.350865800000065,['n'],0,left,['e'],0,1.2465800999998464,0.4,1,0,AccAcc,3,18,Man,Right,
51,10,1,3.084105500000078,['n'],0,left,['e'],0,1.5401567999997496,0.2,1,0,AccAcc,3,18,Man,Right,
52,10,1,0.5834988000001431,['n'],1,right,['u'],1,0.8980218000001514,0.4,1,0,AccAcc,3,18,Man,Right,
53,10,1,0.93322390000003,['n'],1,right,['u'],1,0.6832288999999037,0.4,1,0,AccAcc,3,18,Man,Right,
54,10,1,0.8011771000001318,['c'],1,left,['e'],0,0.8815283999997519,0.2,0,0,AccAcc,3,18,Man,Right,
55,10,1,1.2998778999999558,['n'],1,right,['e'],0,1.8207498000001578,0.1,0,0,AccAcc,3,18,Man,Right,
56,10,1,0.9840076999998928,['n'],0,left,['e'],0,1.3432714999999007,0.4,1,0,AccAcc,3,18,Man,Right,
57,10,1,3.1009267999997974,['n'],0,left,['e'],0,0.8170439000000442,0.2,1,0,AccAcc,3,18,Man,Right,
58,10,1,3.117424000000028,['n'],0,left,['e'],0,1.013673800000106,0.2,1,0,AccAcc,3,18,Man,Right,
59,10,1,1.9009148999998615,['c'],1,left,['e'],0,0.35538180000003194,0.1,0,0,AccAcc,3,18,Man,Right,
0,11,1,0.5169450000003053,['n'],1,right,['u'],1,1.2254197000002023,0.2,1,0,FastAcc,3,18,Man,Right,
1,11,1,0.7175422999998773,['n'],1,right,['u'],1,1.7583000999998148,0.2,1,0,FastAcc,3,18,Man,Right,
2,11,1,0.6669858999998723,['c'],1,left,['e'],0,1.6160471999996844,0.1,0,0,FastAcc,3,18,Man,Right,
3,11,1,0.3842010999997001,['n'],0,left,['e'],0,1.0908226999999897,0.4,1,0,FastAcc,3,18,Man,Right,
4,11,1,1.184299199999714,['n'],1,right,['e'],0,1.6106716999997843,0.1,0,0,FastAcc,3,18,Man,Right,
5,11,1,1.1166925000002266,['n'],0,left,['e'],0,1.2323473999999806,0.1,1,0,FastAcc,3,18,Man,Right,
6,11,1,0.9508688000000802,['n'],0,left,['e'],0,1.7720828000001347,0.1,1,0,FastAcc,3,18,Man,Right,
7,11,1,0.6173787999996421,['c'],1,left,['u'],1,1.3582640000004176,0.2,1,0,FastAcc,3,18,Man,Right,
8,11,1,0.8013538999998673,['n'],1,right,['u'],1,0.5071805000002314,0.4,1,0,FastAcc,3,18,Man,Right,
9,11,1,0.8004273999999896,['n'],1,right,['u'],1,1.33719740000015,0.4,1,0,FastAcc,3,18,Man,Right,
10,11,1,0.6009971000003134,['c'],1,left,['e'],0,0.39784030000009807,0.2,0,0,FastAcc,3,18,Man,Right,
11,11,1,0.7500288000001092,['n'],0,left,['u'],1,2.0826975999998467,0.4,0,0,FastAcc,3,18,Man,Right,
12,11,1,0.6342555999999604,['n'],1,right,['u'],1,2.488068999999996,0.4,1,0,FastAcc,3,18,Man,Right,
13,11,1,0.7182326000001922,['c'],1,left,['e'],0,1.5144493000002512,0.4,0,0,FastAcc,3,18,Man,Right,
14,11,1,0.7006913000000168,['n'],0,left,['e'],0,1.3961956000002829,0.2,1,0,FastAcc,3,18,Man,Right,
15,11,1,0.6342235999995864,['n'],1,right,['e'],0,0.26107920000004015,0.1,0,0,FastAcc,3,18,Man,Right,
16,11,1,0.667771399999765,['n'],1,right,['e'],0,0.6906392999999298,0.1,0,0,FastAcc,3,18,Man,Right,
17,11,1,0.5675845000000663,['n'],0,left,['e'],0,1.4269218999997975,0.1,1,0,FastAcc,3,18,Man,Right,
18,11,1,0.7337128999997731,['n'],1,right,['e'],0,1.4552656999999272,0.2,0,0,FastAcc,3,18,Man,Right,
19,11,1,1.0337337999999363,['n'],1,right,['u'],1,1.4545388000001367,0.2,1,0,FastAcc,3,18,Man,Right,
20,11,1,1.4174603999999817,['n'],1,right,['e'],0,1.518227300000035,0.1,0,0,FastAcc,3,18,Man,Right,
21,11,1,0.7842469000001984,['c'],1,left,['e'],0,1.348812799999905,0.1,0,0,FastAcc,3,18,Man,Right,
22,11,1,0.5340633999999227,['n'],0,left,['e'],0,0.33178289999978006,0.2,1,0,FastAcc,3,18,Man,Right,
23,11,1,0.5345046999996157,['n'],1,right,['u'],1,0.22003529999983584,0.4,1,0,FastAcc,3,18,Man,Right,
24,11,1,0.7841116999998121,['c'],1,left,['u'],1,3.9096392999999807,0.4,1,0,FastAcc,3,18,Man,Right,
25,11,1,0.8006264000000556,['n'],0,left,['e'],0,1.2284546999999293,0.1,1,0,FastAcc,3,18,Man,Right,
26,11,1,1.1347085000002153,['c'],1,left,['e'],0,0.24071090000006734,0.2,0,0,FastAcc,3,18,Man,Right,
27,11,1,0.6344778000002407,['n'],1,right,['u'],1,3.3121928999999,0.4,1,0,FastAcc,3,18,Man,Right,
28,11,1,0.8498341999998047,['c'],1,left,['e'],0,0.39673949999996694,0.2,0,0,FastAcc,3,18,Man,Right,
29,11,1,0.5675966999997399,['n'],1,right,['u'],1,2.7117646000001514,0.4,1,0,FastAcc,3,18,Man,Right,
30,11,1,0.5842751999998654,['n'],1,right,['u'],1,1.2704811000003247,0.4,1,0,FastAcc,3,18,Man,Right,
31,11,1,0.7339438999997583,['c'],1,left,['e'],0,1.1128340000000208,0.1,0,0,FastAcc,3,18,Man,Right,
32,11,1,0.817521499999657,['n'],0,left,['e'],0,1.198333900000307,0.1,1,0,FastAcc,3,18,Man,Right,
33,11,1,0.5339369000002989,['n'],0,left,['e'],0,0.29876100000001315,0.1,1,0,FastAcc,3,18,Man,Right,
34,11,1,0.5330144999998083,['c'],1,left,['u'],1,1.596498899999915,0.2,1,0,FastAcc,3,18,Man,Right,
35,11,1,0.6846903999999085,['n'],1,right,['e'],0,1.2187730999999076,0.2,0,0,FastAcc,3,18,Man,Right,
36,11,1,0.8508295000001453,['n'],0,left,['e'],0,1.730589499999951,0.4,1,0,FastAcc,3,18,Man,Right,
37,11,1,1.5668561000002228,['c'],1,left,['e'],0,1.2972783999998683,0.2,0,0,FastAcc,3,18,Man,Right,
38,11,1,0.7512381999999889,['n'],1,right,['u'],1,1.2332964000001994,0.4,1,0,FastAcc,3,18,Man,Right,
39,11,1,0.7678894999999102,['c'],0,right,['e'],0,1.076913400000194,0.1,1,0,FastAcc,3,18,Man,Right,
40,11,1,0.9668756999999459,['n'],0,left,['e'],0,1.605835500000012,0.4,1,0,FastAcc,3,18,Man,Right,
41,11,1,0.9677099999998973,['n'],1,right,['e'],0,1.8405648000002657,0.2,0,0,FastAcc,3,18,Man,Right,
42,11,1,0.7336236000001009,['c'],1,left,['u'],1,0.3969587000001411,0.4,1,0,FastAcc,3,18,Man,Right,
43,11,1,0.883694099999957,['n'],1,right,['e'],0,1.6593296999999438,0.1,0,0,FastAcc,3,18,Man,Right,
44,11,1,0.8343322999999145,['c'],1,left,['e'],0,1.6748367000000144,0.4,0,0,FastAcc,3,18,Man,Right,
45,11,1,0.5495284000003267,['n'],1,right,['u'],1,1.188720199999807,0.4,1,0,FastAcc,3,18,Man,Right,
46,11,1,1.0679431000003206,['n'],1,right,['e'],0,1.116654799999651,0.4,0,0,FastAcc,3,18,Man,Right,
47,11,1,0.6008724999996957,['c'],0,right,['e'],0,1.59461519999968,0.2,1,0,FastAcc,3,18,Man,Right,
48,11,1,0.6505174000003535,['n'],1,right,['u'],1,1.0594891000000644,0.4,1,0,FastAcc,3,18,Man,Right,
49,11,1,0.6996883000001617,['c'],1,left,['u'],1,1.6002223999998932,0.2,1,0,FastAcc,3,18,Man,Right,
50,11,1,0.6000408999998399,['n'],1,right,['e'],0,1.6262488000002122,0.1,0,0,FastAcc,3,18,Man,Right,
51,11,1,0.7170897000000878,['n'],1,right,['e'],0,1.775134099999832,0.2,0,0,FastAcc,3,18,Man,Right,
52,11,1,0.7007241000001159,['n'],0,left,['e'],0,1.934969700000238,0.1,1,0,FastAcc,3,18,Man,Right,
53,11,1,0.5345019999999749,['n'],1,right,['e'],0,1.5827037999997629,0.1,0,0,FastAcc,3,18,Man,Right,
54,11,1,0.5843454999999267,['c'],1,left,['e'],0,2.1863400000002002,0.1,0,0,FastAcc,3,18,Man,Right,
55,11,1,2.1340823000000455,['c'],1,left,['u'],1,1.6168539000000237,0.2,1,0,FastAcc,3,18,Man,Right,
56,11,1,0.5345574999996643,['n'],1,right,['u'],1,1.4217395999999098,0.2,1,0,FastAcc,3,18,Man,Right,
57,11,1,0.6671400000000176,['n'],1,right,['e'],0,1.5960147999999208,0.1,0,0,FastAcc,3,18,Man,Right,
58,11,1,1.8177488999999696,['c'],1,left,['e'],0,0.11760790000016641,0.2,0,0,FastAcc,3,18,Man,Right,
59,11,1,0.6509742000002916,['n'],1,right,['u'],1,1.3211731000001237,0.4,1,0,FastAcc,3,18,Man,Right,
0,12,1,0.6007478999999876,['c'],1,left,['u'],1,0.03451580000000831,0.4,1,0,FastFast,3,18,Man,Right,
1,12,1,0.7846740999998474,['n'],0,left,['e'],0,0.004269399999884627,0.2,1,0,FastFast,3,18,Man,Right,
2,12,1,0.4663571999999476,['n'],1,right,['e'],0,0.08344190000025264,0.4,0,0,FastFast,3,18,Man,Right,
3,12,1,0.6008231000000706,['c'],1,left,['u'],1,0.0909124999998312,0.4,1,0,FastFast,3,18,Man,Right,
4,12,1,2.617851299999984,['c'],0,right,['u'],1,1.0889178000002175,0.1,0,0,FastFast,3,18,Man,Right,
5,12,1,0.6341097999998055,['c'],1,left,['u'],1,0.07895049999979165,0.4,1,0,FastFast,3,18,Man,Right,
6,12,1,0.5340178000001288,['c'],1,left,['u'],1,0.07210979999990741,0.4,1,0,FastFast,3,18,Man,Right,
7,12,1,0.6656690999998318,['n'],0,left,['e'],0,0.06138299999975061,0.1,1,0,FastFast,3,18,Man,Right,
8,12,1,0.7175469999997404,['n'],1,right,['u'],1,0.08082339999964461,0.2,1,0,FastFast,3,18,Man,Right,
9,12,1,0.8338491999998041,['c'],1,left,['u'],1,0.014579600000161008,0.2,1,0,FastFast,3,18,Man,Right,
10,12,1,0.7662424000000101,['n'],1,right,['u'],1,0.0015156999997998355,0.4,1,0,FastFast,3,18,Man,Right,
11,12,1,0.6829612999999881,['c'],0,right,['e'],0,0.040486300000338815,0.1,1,0,FastFast,3,18,Man,Right,
12,12,1,0.7343873999998323,['n'],0,left,['e'],0,0.1394452999998066,0.2,1,0,FastFast,3,18,Man,Right,
13,12,1,0.6503620000003139,['n'],0,left,['e'],0,0.030653799999981857,0.2,1,0,FastFast,3,18,Man,Right,
14,12,1,0.8330392000002576,['n'],1,right,['e'],0,0.0465900999997757,0.4,0,0,FastFast,3,18,Man,Right,
15,12,1,1.9164584000000104,['c'],1,left,['u'],1,0.06621339999992415,0.1,1,0,FastFast,3,18,Man,Right,
16,12,1,0.5674020000001292,['n'],1,right,['e'],0,0.20259829999986323,0.2,0,0,FastFast,3,18,Man,Right,
17,12,1,0.7343952999999601,['c'],1,left,['e'],0,0.16790130000026693,0.2,0,0,FastFast,3,18,Man,Right,
18,12,1,0.5843181000000186,['n'],1,right,['e'],0,0.0917964000000211,0.1,0,0,FastFast,3,18,Man,Right,
19,12,1,0.7167441999999937,['n'],1,right,['u'],1,0.07822810000016034,0.4,1,0,FastFast,3,18,Man,Right,
20,12,1,0.5338034000001244,['n'],1,right,['u'],1,0.12040040000010777,0.4,1,0,FastFast,3,18,Man,Right,
21,12,1,0.2834514000001036,['n'],1,right,['e'],0,2.47476400000005,0.1,0,0,FastFast,3,18,Man,Right,
22,12,1,0.5508638999999675,['n'],1,right,['e'],0,0.05270380000001751,0.2,0,0,FastFast,3,18,Man,Right,
23,12,1,0.6681263000000399,['c'],0,right,['e'],0,0.10590440000032686,0.1,1,0,FastFast,3,18,Man,Right,
24,12,1,0.43435500000032334,['n'],1,right,['e'],0,0.0710985000000619,0.4,0,0,FastFast,3,18,Man,Right,
25,12,1,0.5342790000004243,['n'],1,right,['u'],1,0.08120419999977457,0.1,1,0,FastFast,3,18,Man,Right,
26,12,1,0.5676517000001695,['n'],1,right,['e'],0,0.009765299999799026,0.4,0,0,FastFast,3,18,Man,Right,
27,12,1,0.7003494000000501,['c'],1,left,['e'],0,3.0875483999998323,0.1,0,0,FastFast,3,18,Man,Right,
28,12,1,0.651066400000218,['n'],1,right,['e'],0,0.0930091000000175,0.1,0,0,FastFast,3,18,Man,Right,
29,12,1,0.5341986000003089,['c'],1,left,['e'],0,0.03857669999979407,0.1,0,0,FastFast,3,18,Man,Right,
30,12,1,0.4507181999997556,['n'],1,right,['e'],0,0.021321700000044075,0.2,0,0,FastFast,3,18,Man,Right,
31,12,1,0.9512416000002304,['c'],0,right,['u'],1,0.03288060000022597,0.2,0,0,FastFast,3,18,Man,Right,
32,12,1,0.4994151000000784,['n'],1,right,['e'],0,0.0621566999998322,0.1,0,0,FastFast,3,18,Man,Right,
33,12,1,0.7178834000001189,['n'],1,right,['e'],0,0.08077749999984007,0.4,0,0,FastFast,3,18,Man,Right,
34,12,1,0.7669627999998738,['c'],1,left,['e'],0,0.0328362999998717,0.2,0,0,FastFast,3,18,Man,Right,
35,12,1,0.5006561000000147,['n'],1,right,['e'],0,0.11000220000005356,0.1,0,0,FastFast,3,18,Man,Right,
36,12,1,0.6674946000002819,['c'],1,left,['e'],0,0.06580630000007659,0.1,0,0,FastFast,3,18,Man,Right,
37,12,1,0.6670940000003611,['n'],1,right,['e'],0,0.05427529999997205,0.2,0,0,FastFast,3,18,Man,Right,
38,12,1,0.8841981000000487,['c'],1,left,['e'],0,0.035118400000101246,0.1,0,0,FastFast,3,18,Man,Right,
39,12,1,0.8842960000001767,['c'],1,left,['u'],1,0.08103879999998753,0.4,1,0,FastFast,3,18,Man,Right,
40,12,1,0.7176125999999385,['c'],1,left,['u'],1,0.0674498000003041,0.4,1,0,FastFast,3,18,Man,Right,
41,12,1,0.8010917999999947,['n'],0,left,['e'],0,0.05062640000005558,0.1,1,0,FastFast,3,18,Man,Right,
42,12,1,0.6347234999998363,['n'],1,right,['u'],1,0.00994540000010602,0.4,1,0,FastFast,3,18,Man,Right,
43,12,1,0.6999132000000827,['c'],1,left,['u'],1,0.047079200000098353,0.2,1,0,FastFast,3,18,Man,Right,
44,12,1,0.8169689999999719,['n'],0,left,['e'],0,0.09464829999978974,0.2,1,0,FastFast,3,18,Man,Right,
45,12,1,0.6659338999997999,['n'],1,right,['u'],1,0.08407720000013796,0.4,1,0,FastFast,3,18,Man,Right,
46,12,1,0.6671541000000616,['c'],1,left,['e'],0,0.05518849999998565,0.2,0,0,FastFast,3,18,Man,Right,
47,12,1,0.46722749999980806,['n'],1,right,['e'],0,0.08472260000007736,0.2,0,0,FastFast,3,18,Man,Right,
48,12,1,0.717229899999893,['c'],1,left,['u'],1,0.00759299999981522,0.4,1,0,FastFast,3,18,Man,Right,
49,12,1,0.6674610999998549,['n'],1,right,['u'],1,0.0467398000000685,0.4,1,0,FastFast,3,18,Man,Right,
50,12,1,0.5663684000001012,['c'],1,left,['u'],1,0.0726846000002297,0.2,1,0,FastFast,3,18,Man,Right,
51,12,1,0.7341513000001214,['c'],1,left,['e'],0,0.10627840000006472,0.2,0,0,FastFast,3,18,Man,Right,
52,12,1,0.4677262000000155,['n'],1,right,['u'],1,0.10195190000013099,0.1,1,0,FastFast,3,18,Man,Right,
53,12,1,0.7174654999998893,['c'],0,right,['e'],0,0.08749589999979435,0.1,1,0,FastFast,3,18,Man,Right,
54,12,1,0.617287000000033,"['n', 'c']",0,left,['e'],0,0.4458300000001145,0.4,1,0,FastFast,3,18,Man,Right,
55,12,1,0.8178775999999743,['c'],1,left,['e'],0,0.06134229999997842,0.1,0,0,FastFast,3,18,Man,Right,
56,12,1,0.7670721999998023,['c'],1,left,['e'],0,0.04696700000022247,0.1,0,0,FastFast,3,18,Man,Right,
57,12,1,0.7010197999998127,['c'],1,left,['e'],0,0.06728870000006282,0.2,0,0,FastFast,3,18,Man,Right,
58,12,1,0.46642579999979716,['n'],1,right,['u'],1,1.1211421999996674,0.4,1,0,FastFast,3,18,Man,Right,
59,12,1,0.7833572999998069,['c'],1,left,['e'],0,0.054667500000050495,0.2,0,0,FastFast,3,18,Man,Right,
0,13,1,4.800924000000123,['c'],0,right,['e'],0,0.9367882999999892,0.2,1,0,AccFast,3,18,Man,Right,
1,13,1,1.4834672000001774,['c'],1,left,['u'],1,0.4590475999998489,0.4,1,0,AccFast,3,18,Man,Right,
2,13,1,2.500917600000321,['c'],1,left,['u'],1,0.02312260000007882,0.2,1,0,AccFast,3,18,Man,Right,
3,13,1,2.0840895000001183,['n'],1,right,['u'],1,0.037539899999956106,0.2,1,0,AccFast,3,18,Man,Right,
4,13,1,2.7166863000002195,['c'],1,left,['e'],0,0.05766100000028018,0.1,0,0,AccFast,3,18,Man,Right,
5,13,1,2.1675756999998157,['c'],0,right,['e'],0,0.035707499999716674,0.1,1,0,AccFast,3,18,Man,Right,
6,13,1,2.5502313000001777,['n'],0,left,['e'],0,0.030848500000047352,0.2,1,0,AccFast,3,18,Man,Right,
7,13,1,2.2337226999998165,['c'],1,left,['e'],0,0.07085670000014943,0.1,0,0,AccFast,3,18,Man,Right,
8,13,1,4.183316999999988,['n'],1,right,['e'],0,0.12704969999958848,0.4,0,0,AccFast,3,18,Man,Right,
9,13,1,0.8008365000000595,['c'],0,right,['e'],0,0.061226499999975204,0.2,1,0,AccFast,3,18,Man,Right,
10,13,1,2.3668634999999085,['c'],1,left,['u'],1,0.030970399999660003,0.4,1,0,AccFast,3,18,Man,Right,
11,13,1,1.4331511999998838,['n'],0,left,['e'],0,0.05408140000008643,0.1,1,0,AccFast,3,18,Man,Right,
12,13,1,0.751116699999784,['n'],1,right,['e'],0,0.39246129999992263,0.1,0,0,AccFast,3,18,Man,Right,
13,13,1,1.1512369000001854,['n'],1,right,['e'],0,0.39723400000002584,0.1,0,0,AccFast,3,18,Man,Right,
14,13,1,0.9842255000003206,['n'],1,right,['e'],0,0.16832239999985177,0.1,0,0,AccFast,3,18,Man,Right,
15,13,1,0.516422700000021,['c'],1,left,['u'],1,0.17531060000010257,0.1,1,0,AccFast,3,18,Man,Right,
16,13,1,0.6666285000001153,['c'],1,left,['e'],0,0.1921239999996942,0.2,0,0,AccFast,3,18,Man,Right,
17,13,1,1.4836239999999634,['c'],0,right,['e'],0,0.04814940000005663,0.2,1,0,AccFast,3,18,Man,Right,
18,13,1,1.7509901000003083,['n'],1,right,['e'],0,0.0581571000002441,0.4,0,0,AccFast,3,18,Man,Right,
19,13,1,1.8175210999997944,['c'],1,left,['e'],0,0.0026793000001816836,0.1,0,0,AccFast,3,18,Man,Right,
20,13,1,1.9340148999999656,['c'],1,left,['e'],0,0.023320699999658245,0.1,0,0,AccFast,3,18,Man,Right,
21,13,1,2.134183099999973,['c'],1,left,['e'],0,0.035485399999743095,0.4,0,0,AccFast,3,18,Man,Right,
22,13,1,1.651244499999848,['n'],1,right,['e'],0,0.03428710000025603,0.2,0,0,AccFast,3,18,Man,Right,
23,13,1,1.9180345000004309,['n'],1,right,['e'],0,0.007292100000086066,0.2,0,0,AccFast,3,18,Man,Right,
24,13,1,1.5508042999999816,['n'],1,right,['e'],0,0.028219099999660102,0.2,0,0,AccFast,3,18,Man,Right,
25,13,1,1.7998357000001306,['n'],1,right,['e'],0,0.005309399999987363,0.1,0,0,AccFast,3,18,Man,Right,
26,13,1,1.2172411999999895,['c'],1,left,['e'],0,0.022931200000130048,0.4,0,0,AccFast,3,18,Man,Right,
27,13,1,0.8007677000000513,['n'],1,right,['e'],0,0.024468899999646965,0.4,0,0,AccFast,3,18,Man,Right,
28,13,1,1.4497142999998687,['c'],1,left,['e'],0,0.015757600000142702,0.1,0,0,AccFast,3,18,Man,Right,
29,13,1,2.0834359999998924,['n'],0,left,['e'],0,0.09422059999997145,0.2,1,0,AccFast,3,18,Man,Right,
30,13,1,1.8513333000000785,['n'],1,right,['u'],1,0.003727700000126788,0.4,1,0,AccFast,3,18,Man,Right,
31,13,1,1.5492676999997457,['c'],1,left,['e'],0,0.023605099999713275,0.2,0,0,AccFast,3,18,Man,Right,
32,13,1,1.234164100000271,['n'],1,right,['u'],1,0.02378499999986161,0.4,1,0,AccFast,3,18,Man,Right,
33,13,1,3.567192700000305,['c'],0,right,['e'],0,0.027103100000203995,0.1,1,0,AccFast,3,18,Man,Right,
34,13,1,1.684368600000198,['n'],0,left,['e'],0,0.025544999999965512,0.1,1,0,AccFast,3,18,Man,Right,
35,13,1,1.6338863000000856,['n'],1,right,['u'],1,0.6656551999999465,0.4,1,0,AccFast,3,18,Man,Right,
36,13,1,2.384103700000196,['n'],1,right,['e'],0,0.01780430000007982,0.2,0,0,AccFast,3,18,Man,Right,
37,13,1,1.4506019999998898,['n'],1,right,['e'],0,0.041752099999939674,0.2,0,0,AccFast,3,18,Man,Right,
38,13,1,1.1004722000002403,['n'],0,left,['e'],0,0.47876399999995556,0.1,1,0,AccFast,3,18,Man,Right,
39,13,1,1.6674892999999429,['n'],0,left,['e'],0,0.7152022000000215,0.2,1,0,AccFast,3,18,Man,Right,
40,13,1,1.1170468999998775,['c'],1,left,['e'],0,0.05237399999987247,0.4,0,0,AccFast,3,18,Man,Right,
41,13,1,1.9500905999998395,['n'],0,left,['e'],0,0.022654400000192254,0.4,1,0,AccFast,3,18,Man,Right,
42,13,1,1.1833865999997215,['n'],0,left,['e'],0,0.009485399999903166,0.1,1,0,AccFast,3,18,Man,Right,
43,13,1,0.8513760999999249,['n'],1,right,['e'],0,0.20108699999991586,0.4,0,0,AccFast,3,18,Man,Right,
44,13,1,1.6833363999999165,['n'],1,right,['e'],0,0.06499299999995856,0.2,0,0,AccFast,3,18,Man,Right,
45,13,1,1.2509359999999106,['n'],0,left,['u'],1,0.02987489999986792,0.1,0,0,AccFast,3,18,Man,Right,
46,13,1,0.7002802000001793,['c'],1,left,['u'],1,0.0033270999997512263,0.4,1,0,AccFast,3,18,Man,Right,
47,13,1,2.5331762999999228,['n'],1,right,['u'],1,0.39975189999995564,0.2,1,0,AccFast,3,18,Man,Right,
48,13,1,0.9505877000001419,['c'],0,right,['e'],0,0.25230539999984103,0.1,1,0,AccFast,3,18,Man,Right,
49,13,1,0.7175828000004003,['c'],1,left,['u'],1,0.08772060000001147,0.4,1,0,AccFast,3,18,Man,Right,
50,13,1,1.7669591000003493,['c'],1,left,['e'],0,0.6719544000002315,0.1,0,0,AccFast,3,18,Man,Right,
51,13,1,0.6509689000004073,['n'],1,right,['u'],1,0.0778944000003321,0.4,1,0,AccFast,3,18,Man,Right,
52,13,1,0.7343901999997797,['c'],1,left,['u'],1,0.032087699999920005,0.4,1,0,AccFast,3,18,Man,Right,
53,13,1,0.8515512999997554,['n'],1,right,['e'],0,0.04750500000000102,0.2,0,0,AccFast,3,18,Man,Right,
54,13,1,3.2003489999997328,['n'],1,right,['u'],1,0.031709699999737495,0.4,1,0,AccFast,3,18,Man,Right,
55,13,1,1.6673049000000901,['c'],1,left,['u'],1,0.014058899999781715,0.2,1,0,AccFast,3,18,Man,Right,
56,13,1,1.266291899999942,['c'],1,left,['e'],0,0.029558199999883072,0.4,0,0,AccFast,3,18,Man,Right,
57,13,1,2.267692899999929,['n'],1,right,['e'],0,0.06768790000023728,0.2,0,0,AccFast,3,18,Man,Right,
58,13,1,1.7173224000002847,['n'],1,right,['e'],0,0.030706699999882403,0.1,0,0,AccFast,3,18,Man,Right,
59,13,1,1.400029800000084,['c'],1,left,['e'],0,0.00799589999996897,0.4,0,0,AccFast,3,18,Man,Right,
0,14,1,2.6675835999999435,['c'],1,left,['e'],0,1.8358501000002434,0.2,0,0,AccAcc,3,18,Man,Right,
1,14,1,0.7331980000003568,['n'],1,right,['e'],0,1.192392099999779,0.2,0,0,AccAcc,3,18,Man,Right,
2,14,1,1.6503907000001163,['n'],1,right,['e'],0,1.8326630999999907,0.2,0,0,AccAcc,3,18,Man,Right,
3,14,1,2.3834091999997327,['c'],1,left,['e'],0,1.5870107000000644,0.4,0,0,AccAcc,3,18,Man,Right,
4,14,1,1.0843087999996897,['c'],1,left,['e'],0,1.9143852999995943,0.2,0,0,AccAcc,3,18,Man,Right,
5,14,1,0.9991783000000396,['n'],1,right,['e'],0,2.9532208999999057,0.1,0,0,AccAcc,3,18,Man,Right,
6,14,1,2.8343995999998697,['n'],1,right,['e'],0,0.1478911999997763,0.1,0,0,AccAcc,3,18,Man,Right,
7,14,1,1.5671339000000444,['c'],1,left,['u'],1,1.4894828999999845,0.2,1,0,AccAcc,3,18,Man,Right,
8,14,1,0.5845712000000276,['c'],1,left,['u'],1,1.6812871000001905,0.4,1,0,AccAcc,3,18,Man,Right,
9,14,1,1.8678165000001172,['n'],1,right,['u'],1,1.7015720999997939,0.4,1,0,AccAcc,3,18,Man,Right,
10,14,1,0.5662386000003607,['c'],1,left,['u'],1,1.2779118999997081,0.4,1,0,AccAcc,3,18,Man,Right,
11,14,1,0.900465599999734,['c'],1,left,['u'],1,1.0331477999998242,0.4,1,0,AccAcc,3,18,Man,Right,
12,14,1,0.8503164999997352,['n'],0,left,['e'],0,1.6640292000001864,0.1,1,0,AccAcc,3,18,Man,Right,
13,14,1,2.284057699999721,['n'],0,left,['e'],0,1.956977399999687,0.1,1,0,AccAcc,3,18,Man,Right,
14,14,1,0.8001761999998962,['n'],1,right,['e'],0,2.617362999999841,0.4,0,0,AccAcc,3,18,Man,Right,
15,14,1,0.9675182999999379,['n'],0,left,['e'],0,1.9804422000001978,0.1,1,0,AccAcc,3,18,Man,Right,
16,14,1,0.6342743000000155,['n'],1,right,['e'],0,2.5186463000000003,0.1,0,0,AccAcc,3,18,Man,Right,
17,14,1,0.7509776000001693,['c'],1,left,['e'],0,1.6859669999998914,0.4,0,0,AccAcc,3,18,Man,Right,
18,14,1,0.6177818999999545,['n'],1,right,['e'],0,1.2285366999999496,0.2,0,0,AccAcc,3,18,Man,Right,
19,14,1,2.0011665999995785,['n'],1,right,['e'],0,0.1736041999997724,0.1,0,0,AccAcc,3,18,Man,Right,
20,14,1,2.066278499999953,['c'],1,left,['e'],0,1.5436931999997796,0.2,0,0,AccAcc,3,18,Man,Right,
21,14,1,4.349789200000032,['n'],1,right,['e'],0,1.8700237999996716,0.2,0,0,AccAcc,3,18,Man,Right,
22,14,1,1.9004863000000114,['c'],0,right,['e'],0,2.298486299999695,0.2,1,0,AccAcc,3,18,Man,Right,
23,14,1,2.149577600000157,['n'],0,left,['e'],0,2.4278478000001087,0.1,1,0,AccAcc,3,18,Man,Right,
24,14,1,1.2659307999997509,['c'],1,left,['e'],0,1.402413300000262,0.1,0,0,AccAcc,3,18,Man,Right,
25,14,1,2.5489348000000973,['n'],0,left,['e'],0,0.015672499999709544,0.1,1,0,AccAcc,3,18,Man,Right,
26,14,1,2.6514756999999918,['c'],1,left,['e'],0,1.0463612999997167,0.1,0,0,AccAcc,3,18,Man,Right,
27,14,1,3.9819376999998894,['c'],0,right,['e'],0,3.936463999999887,0.2,1,0,AccAcc,3,18,Man,Right,
28,14,1,4.017996099999891,['n'],1,right,['e'],0,1.8606215999998312,0.4,0,0,AccAcc,3,18,Man,Right,
29,14,1,2.900943200000256,['c'],1,left,['e'],0,1.6573045999998612,0.4,0,0,AccAcc,3,18,Man,Right,
30,14,1,2.90047659999982,['n'],1,right,['e'],0,0.6784702999998444,0.4,0,0,AccAcc,3,18,Man,Right,
31,14,1,2.2346121000000494,['n'],1,right,['e'],0,0.4364034000000174,0.2,0,0,AccAcc,3,18,Man,Right,
32,14,1,2.183798999999908,['n'],1,right,['e'],0,0.7981099000003269,0.2,0,0,AccAcc,3,18,Man,Right,
33,14,1,1.7179144000001543,['n'],0,left,['e'],0,0.33248349999985294,0.1,1,0,AccAcc,3,18,Man,Right,
34,14,1,2.1339545999999245,['n'],1,right,['e'],0,0.37971710000010717,0.4,0,0,AccAcc,3,18,Man,Right,
35,14,1,2.3665571000001364,['n'],1,right,['e'],0,0.3685673999998471,0.2,0,0,AccAcc,3,18,Man,Right,
36,14,1,1.9668550999999752,['c'],0,right,['e'],0,1.36561649999976,0.4,1,0,AccAcc,3,18,Man,Right,
37,14,1,4.866907500000252,['n'],0,left,['e'],0,1.374723300000369,0.4,1,0,AccAcc,3,18,Man,Right,
38,14,1,3.2666611999998167,['n'],0,left,['e'],0,0.7287296999998034,0.4,1,0,AccAcc,3,18,Man,Right,
39,14,1,1.6669778999998925,['n'],1,right,['u'],1,1.4518349999998463,0.4,1,0,AccAcc,3,18,Man,Right,
40,14,1,3.1504311000003327,['n'],1,right,['e'],0,0.19832590000032724,0.1,0,0,AccAcc,3,18,Man,Right,
41,14,1,3.684075600000142,['n'],0,left,['u'],1,1.933008499999687,0.4,0,0,AccAcc,3,18,Man,Right,
42,14,1,1.5168933999998444,['c'],1,left,['e'],0,1.4937385999996877,0.1,0,0,AccAcc,3,18,Man,Right,
43,14,1,1.9013844999999492,['n'],0,left,['e'],0,1.5053248999997777,0.2,1,0,AccAcc,3,18,Man,Right,
44,14,1,2.0501798000000235,['n'],1,right,['u'],1,0.9175175999998828,0.4,1,0,AccAcc,3,18,Man,Right,
45,14,1,4.217517600000065,['c'],1,left,['e'],0,2.6987740999998096,0.1,0,0,AccAcc,3,18,Man,Right,
46,14,1,2.516095299999961,['n'],0,left,['e'],0,2.3656003000000965,0.1,1,0,AccAcc,3,18,Man,Right,
47,14,1,3.384259899999961,['c'],1,left,['e'],0,1.5456789999998364,0.4,0,0,AccAcc,3,18,Man,Right,
48,14,1,2.2343382000003658,['n'],1,right,['e'],0,1.7648386000000755,0.1,0,0,AccAcc,3,18,Man,Right,
49,14,1,2.3328175000001465,['c'],0,right,['e'],0,3.108518499999718,0.1,1,0,AccAcc,3,18,Man,Right,
50,14,1,1.6343996000000516,['n'],1,right,['e'],0,0.8727222000002257,0.2,0,0,AccAcc,3,18,Man,Right,
51,14,1,0.9014879000001201,['n'],1,right,['e'],0,1.0443554999997104,0.2,0,0,AccAcc,3,18,Man,Right,
52,14,1,1.284069300000283,['n'],0,left,['e'],0,1.4501766000003045,0.2,1,0,AccAcc,3,18,Man,Right,
53,14,1,0.7337562999996408,['c'],1,left,['e'],0,1.2220529999999599,0.2,0,0,AccAcc,3,18,Man,Right,
54,14,1,0.550906599999962,['n'],1,right,['e'],0,1.0249891000003117,0.1,0,0,AccAcc,3,18,Man,Right,
55,14,1,0.968934999999874,['n'],1,right,['u'],1,0.7560215000003154,0.4,1,0,AccAcc,3,18,Man,Right,
56,14,1,0.8173119999996743,['c'],0,right,['e'],0,1.447534800000085,0.1,1,0,AccAcc,3,18,Man,Right,
57,14,1,0.6676087999999254,['c'],1,left,['u'],1,0.8694256999997378,0.4,1,0,AccAcc,3,18,Man,Right,
58,14,1,0.8004870000004303,['n'],1,right,['u'],1,1.0451462999999421,0.2,1,0,AccAcc,3,18,Man,Right,
59,14,1,0.9845730999995794,['c'],1,left,['e'],0,0.9507369999996627,0.2,0,0,AccAcc,3,18,Man,Right,
0,15,1,1.13353189999998,['c'],1,left,['e'],0,1.4573132999998961,0.2,0,0,FastAcc,3,18,Man,Right,
1,15,1,0.5347358000003624,['n'],1,right,['u'],1,0.803707999999915,0.4,1,0,FastAcc,3,18,Man,Right,
2,15,1,0.48451989999966827,['c'],1,left,['u'],1,3.634429800000362,0.2,1,0,FastAcc,3,18,Man,Right,
3,15,1,1.2169374999998581,['c'],1,left,['e'],0,0.051328600000033475,0.1,0,0,FastAcc,3,18,Man,Right,
4,15,1,0.6500443999998424,['n'],0,left,['e'],0,1.5934604999997646,0.2,1,0,FastAcc,3,18,Man,Right,
5,15,1,0.7166223999997783,['c'],1,left,['u'],1,1.167872299999999,0.2,1,0,FastAcc,3,18,Man,Right,
6,15,1,0.5171863000000485,['n'],0,left,['e'],0,1.5348779999999351,0.1,1,0,FastAcc,3,18,Man,Right,
7,15,1,0.7008762000000388,['n'],1,right,['e'],0,1.5118999999999687,0.1,0,0,FastAcc,3,18,Man,Right,
8,15,1,0.3831629999999677,['n'],1,right,['e'],0,0.11054960000001302,0.4,0,0,FastAcc,3,18,Man,Right,
9,15,1,0.8176773999998659,['n'],1,right,['e'],0,0.9078191999997216,0.4,0,0,FastAcc,3,18,Man,Right,
10,15,1,0.7509684000001471,['n'],1,right,['e'],0,1.308095300000332,0.4,0,0,FastAcc,3,18,Man,Right,
11,15,1,1.083399499999814,['n'],0,left,['e'],0,0.06360300000005736,0.1,1,0,FastAcc,3,18,Man,Right,
12,15,1,1.267265999999836,['c'],1,left,['u'],1,2.2846316999998635,0.4,1,0,FastAcc,3,18,Man,Right,
13,15,1,0.4836065999998027,['n'],1,right,['e'],0,1.1365274999998292,0.2,0,0,FastAcc,3,18,Man,Right,
14,15,1,0.41772160000027725,['n'],0,left,['e'],0,1.1404479000002539,0.4,1,0,FastAcc,3,18,Man,Right,
15,15,1,0.6834831000001031,['n'],1,right,['e'],0,1.2301907000000938,0.2,0,0,FastAcc,3,18,Man,Right,
16,15,1,0.6672819000000345,['c'],0,right,['e'],0,1.8604832000000897,0.4,1,0,FastAcc,3,18,Man,Right,
17,15,1,1.1005664999997862,['c'],1,left,['e'],0,1.8569572999999764,0.1,0,0,FastAcc,3,18,Man,Right,
18,15,1,0.4840226999999686,['c'],1,left,['e'],0,1.942570600000181,0.4,0,0,FastAcc,3,18,Man,Right,
19,15,1,0.5842633000002024,['n'],1,right,['u'],1,1.1079211999999643,0.4,1,0,FastAcc,3,18,Man,Right,
20,15,1,0.6508873999996467,['c'],1,left,['e'],0,1.4242135999998027,0.1,0,0,FastAcc,3,18,Man,Right,
21,15,1,0.700206700000308,['c'],1,left,['u'],1,1.9819720000000416,0.2,1,0,FastAcc,3,18,Man,Right,
22,15,1,0.5342319000001226,['n'],1,right,['u'],1,1.7557450999997855,0.4,1,0,FastAcc,3,18,Man,Right,
23,15,1,0.6342432000001281,['c'],1,left,['e'],0,1.47066679999989,0.2,0,0,FastAcc,3,18,Man,Right,
24,15,1,0.534371000000192,['n'],0,left,['e'],0,1.5211670999997295,0.1,1,0,FastAcc,3,18,Man,Right,
25,15,1,0.45001060000004145,['n'],1,right,['e'],0,1.8293668000001162,0.2,0,0,FastAcc,3,18,Man,Right,
26,15,1,0.5004040000003442,['n'],1,right,['e'],0,1.3861285999996653,0.1,0,0,FastAcc,3,18,Man,Right,
27,15,1,0.6496667000001253,['n'],0,left,['e'],0,1.2434554999999818,0.2,1,0,FastAcc,3,18,Man,Right,
28,15,1,0.5676257999998597,['n'],0,left,['e'],0,1.5253569999999854,0.1,1,0,FastAcc,3,18,Man,Right,
29,15,1,0.5331162999996195,['n'],1,right,['u'],1,0.9502109999998538,0.4,1,0,FastAcc,3,18,Man,Right,
30,15,1,0.5677254000001994,['n'],1,right,['e'],0,2.87544650000018,0.4,0,0,FastAcc,3,18,Man,Right,
31,15,1,0.8174752000004446,['c'],0,right,['e'],0,1.578622500000165,0.1,1,0,FastAcc,3,18,Man,Right,
32,15,1,0.5008954999993875,['n'],1,right,['u'],1,1.5617641999997431,0.4,1,0,FastAcc,3,18,Man,Right,
33,15,1,0.5009454000000915,['n'],1,right,['e'],0,1.1299360000002707,0.2,0,0,FastAcc,3,18,Man,Right,
34,15,1,0.4516325999993569,['c'],1,left,['e'],0,1.4852646999997887,0.1,0,0,FastAcc,3,18,Man,Right,
35,15,1,0.46741689999998925,['n'],0,left,['e'],0,1.457416000000194,0.2,1,0,FastAcc,3,18,Man,Right,
36,15,1,0.6504912999998851,['n'],0,left,['e'],0,1.3758172999996532,0.1,1,0,FastAcc,3,18,Man,Right,
37,15,1,0.4170547000003353,['n'],0,left,['e'],0,1.4987671999997474,0.2,1,0,FastAcc,3,18,Man,Right,
38,15,1,0.6325296000004528,['c'],0,right,['e'],0,1.7363132000000405,0.1,1,0,FastAcc,3,18,Man,Right,
39,15,1,0.7674503000007462,['n'],1,right,['e'],0,1.9102385000005597,0.1,0,0,FastAcc,3,18,Man,Right,
40,15,1,0.8672066999997696,['n'],1,right,['e'],0,1.7224076000002242,0.1,0,0,FastAcc,3,18,Man,Right,
41,15,1,0.751343299999462,['c'],1,left,['e'],0,1.5779186999998274,0.4,0,0,FastAcc,3,18,Man,Right,
42,15,1,0.6168136999995113,['n'],1,right,['e'],0,1.5731044000003749,0.1,0,0,FastAcc,3,18,Man,Right,
43,15,1,1.701045200000408,['n'],0,left,['e'],0,1.5085792999998375,0.2,1,0,FastAcc,3,18,Man,Right,
44,15,1,0.5512041000001773,['n'],1,right,['e'],0,0.3251155000007202,0.1,0,0,FastAcc,3,18,Man,Right,
45,15,1,0.6667531000002782,['n'],1,right,['u'],1,1.6321438000004491,0.4,1,0,FastAcc,3,18,Man,Right,
46,15,1,2.0329130000000077,['n'],1,right,['e'],0,1.120418100000279,0.2,0,0,FastAcc,3,18,Man,Right,
47,15,1,0.7009499000005235,['n'],1,right,['e'],0,1.8336785999999847,0.4,0,0,FastAcc,3,18,Man,Right,
48,15,1,0.5176526999994167,['n'],1,right,['e'],0,1.5502705999997488,0.4,0,0,FastAcc,3,18,Man,Right,
49,15,1,0.5510914000005869,['c'],1,left,['u'],1,1.1483733000004577,0.4,1,0,FastAcc,3,18,Man,Right,
50,15,1,0.5509869999996226,['n'],0,left,['e'],0,3.803486100000555,0.2,1,0,FastAcc,3,18,Man,Right,
51,15,1,1.1843863000003694,['n'],1,right,['e'],0,2.5982255999997506,0.1,0,0,FastAcc,3,18,Man,Right,
52,15,1,0.8004774999999427,['n'],0,left,['e'],0,2.0497236999999586,0.2,1,0,FastAcc,3,18,Man,Right,
53,15,1,0.732487599999331,['n'],0,left,['e'],0,2.1960754000001543,0.1,1,0,FastAcc,3,18,Man,Right,
54,15,1,0.6010090999998283,['c'],1,left,['u'],1,1.5903816000000006,0.4,1,0,FastAcc,3,18,Man,Right,
55,15,1,0.7343861999997898,['n'],1,right,['e'],0,2.252530300000217,0.2,0,0,FastAcc,3,18,Man,Right,
56,15,1,0.7508010000001377,['n'],0,left,['e'],0,2.0706355000002077,0.1,1,0,FastAcc,3,18,Man,Right,
57,15,1,0.5669551999999385,['n'],1,right,['e'],0,1.968371599999955,0.4,0,0,FastAcc,3,18,Man,Right,
58,15,1,0.5503593000003093,['c'],1,left,['e'],0,1.7578254999998535,0.2,0,0,FastAcc,3,18,Man,Right,
59,15,1,0.5680123000001913,['n'],1,right,['e'],0,1.5874588000006042,0.2,0,0,FastAcc,3,18,Man,Right,
