withinblocktrial,block,block_repetition,rt,resp,cor,cresp,conf_press,cj,rtconf,coherence,slow_trial,manipulation,sub,age,gender,handedness,
0,1,1,1.1173162000000048,['c'],1,left,none,-99,-99,0.5,0,none,25,19,Man,Right,
1,1,1,0.8674884000001839,['n'],1,right,none,-99,-99,0.5,0,none,25,19,Man,Right,
2,1,1,1.4832186999997248,['c'],0,right,none,-99,-99,0.5,0,none,25,19,Man,Right,
3,1,1,1.2333380999998553,['c'],1,left,none,-99,-99,0.5,0,none,25,19,Man,Right,
4,1,1,1.2667010000000118,['c'],1,left,none,-99,-99,0.5,0,none,25,19,Man,Right,
5,1,1,0.7494999000000462,['n'],1,right,none,-99,-99,0.5,0,none,25,19,Man,Right,
6,1,1,0.8847020999996857,['n'],1,right,none,-99,-99,0.5,0,none,25,19,Man,Right,
7,1,1,0.5507093999999597,['c'],1,left,none,-99,-99,0.5,0,none,25,19,Man,Right,
8,1,1,0.5835490999998001,['c'],1,left,none,-99,-99,0.5,0,none,25,19,Man,Right,
9,1,1,0.6005037999998422,['n'],1,right,none,-99,-99,0.5,0,none,25,19,Man,Right,
10,1,1,0.6505047000000559,['c'],1,left,none,-99,-99,0.5,0,none,25,19,Man,Right,
11,1,1,0.6156049999999595,['c'],1,left,none,-99,-99,0.5,0,none,25,19,Man,Right,
12,1,1,0.7507333999997172,['c'],1,left,none,-99,-99,0.5,0,none,25,19,Man,Right,
13,1,1,0.6669789999996283,['c'],1,left,none,-99,-99,0.5,0,none,25,19,Man,Right,
14,1,1,0.5340460000002167,['n'],1,right,none,-99,-99,0.5,0,none,25,19,Man,Right,
15,1,1,0.4662999000001946,['c'],0,right,none,-99,-99,0.5,0,none,25,19,Man,Right,
16,1,1,0.6179756999999881,['c'],1,left,none,-99,-99,0.5,0,none,25,19,Man,Right,
17,1,1,0.5675583000002007,['n'],1,right,none,-99,-99,0.5,0,none,25,19,Man,Right,
18,1,1,0.8496094000001904,['n'],1,right,none,-99,-99,0.5,0,none,25,19,Man,Right,
19,1,1,1.51683950000006,['c'],0,right,none,-99,-99,0.5,0,none,25,19,Man,Right,
20,1,1,0.8660479999998643,['c'],1,left,none,-99,-99,0.5,0,none,25,19,Man,Right,
21,1,1,0.7179829000001519,['n'],1,right,none,-99,-99,0.5,0,none,25,19,Man,Right,
22,1,1,0.6504457999999431,['c'],1,left,none,-99,-99,0.5,0,none,25,19,Man,Right,
23,1,1,0.6336487000003217,['n'],1,right,none,-99,-99,0.5,0,none,25,19,Man,Right,
0,2,1,0.8012536999999611,['c'],1,left,none,-99,-99,0.1,0,none,25,19,Man,Right,
1,2,1,0.5669063999998798,['c'],1,left,none,-99,-99,0.4,0,none,25,19,Man,Right,
2,2,1,0.5668327999997018,['n'],1,right,none,-99,-99,0.2,0,none,25,19,Man,Right,
3,2,1,0.5000543999999536,['c'],1,left,none,-99,-99,0.4,0,none,25,19,Man,Right,
4,2,1,0.9002934999998615,['n'],1,right,none,-99,-99,0.1,0,none,25,19,Man,Right,
5,2,1,0.799057200000334,['n'],1,right,none,-99,-99,0.4,0,none,25,19,Man,Right,
6,2,1,0.5159185000002253,['c'],1,left,none,-99,-99,0.2,0,none,25,19,Man,Right,
7,2,1,0.5498999999999796,['n'],1,right,none,-99,-99,0.4,0,none,25,19,Man,Right,
8,2,1,0.5336655999999493,['n'],1,right,none,-99,-99,0.4,0,none,25,19,Man,Right,
9,2,1,0.6170385999998871,['c'],0,right,none,-99,-99,0.1,0,none,25,19,Man,Right,
10,2,1,0.5323822999998811,['n'],1,right,none,-99,-99,0.4,0,none,25,19,Man,Right,
11,2,1,0.4341890999999123,['c'],1,left,none,-99,-99,0.4,0,none,25,19,Man,Right,
12,2,1,0.5340291000002253,['n'],1,right,none,-99,-99,0.1,0,none,25,19,Man,Right,
13,2,1,0.5847595999998703,['c'],1,left,none,-99,-99,0.1,0,none,25,19,Man,Right,
14,2,1,1.6831261999996059,['c'],0,right,none,-99,-99,0.1,0,none,25,19,Man,Right,
15,2,1,0.7995127000003777,['n'],1,right,none,-99,-99,0.1,0,none,25,19,Man,Right,
16,2,1,0.6018285999998625,['n'],1,right,none,-99,-99,0.4,0,none,25,19,Man,Right,
17,2,1,2.1496627000001354,['n'],0,left,none,-99,-99,0.2,0,none,25,19,Man,Right,
18,2,1,0.8519208000002436,['c'],1,left,none,-99,-99,0.1,0,none,25,19,Man,Right,
19,2,1,1.3522647999998298,['n'],1,right,none,-99,-99,0.2,0,none,25,19,Man,Right,
20,2,1,0.7005856000000676,['c'],1,left,none,-99,-99,0.2,0,none,25,19,Man,Right,
21,2,1,0.6154599000001326,['c'],1,left,none,-99,-99,0.2,0,none,25,19,Man,Right,
22,2,1,1.867015199999969,['c'],1,left,none,-99,-99,0.2,0,none,25,19,Man,Right,
23,2,1,0.6669781000000512,['c'],1,left,none,-99,-99,0.2,0,none,25,19,Man,Right,
0,3,1,1.801067100000182,['c'],1,left,['8'],4,4.434275399999933,0.4,0,none,25,19,Man,Right,
1,3,1,1.517608999999993,['n'],1,right,['8'],4,1.566798800000015,0.2,0,none,25,19,Man,Right,
2,3,1,1.9175789000000805,['c'],0,right,['3'],3,1.4178247999998348,0.4,0,none,25,19,Man,Right,
3,3,1,1.9170093000002453,['c'],0,right,['3'],3,0.6677920999995877,0.2,0,none,25,19,Man,Right,
4,3,1,1.149965500000235,['c'],0,right,['9'],5,1.102270999999746,0.1,0,none,25,19,Man,Right,
5,3,1,2.367384099999981,['c'],1,left,['2'],2,0.8513993000001392,0.1,0,none,25,19,Man,Right,
6,3,1,3.183389900000293,['n'],1,right,['2'],2,1.0669288999997661,0.2,0,none,25,19,Man,Right,
7,3,1,3.3012368999998216,['c'],0,right,['2'],2,0.5350609000001896,0.1,0,none,25,19,Man,Right,
8,3,1,2.4661981999997806,['n'],1,right,['8'],4,1.95109390000016,0.4,0,none,25,19,Man,Right,
9,3,1,1.1172279000002163,['n'],1,right,['8'],4,0.4356244999999035,0.4,0,none,25,19,Man,Right,
10,3,1,2.4674353000000337,['n'],1,right,['3'],3,1.6844537000001765,0.1,0,none,25,19,Man,Right,
11,3,1,2.7846487000001616,['n'],0,left,['2'],2,1.4338626000003387,0.2,0,none,25,19,Man,Right,
12,3,1,2.6323872000002666,['c'],0,right,['2'],2,0.9683780999998817,0.2,0,none,25,19,Man,Right,
13,3,1,2.1481031000002986,['c'],1,left,['2'],2,0.46767210000007253,0.2,0,none,25,19,Man,Right,
14,3,1,4.051902999999584,['c'],0,right,['3'],3,1.551273200000196,0.1,0,none,25,19,Man,Right,
15,3,1,0.9004157999997915,['c'],1,left,['0'],6,1.2180577999997695,0.4,0,none,25,19,Man,Right,
16,3,1,1.4337064000001192,['c'],1,left,['0'],6,1.152376699999877,0.2,0,none,25,19,Man,Right,
17,3,1,2.0837148999999044,['c'],1,left,['3'],3,3.701044400000228,0.4,0,none,25,19,Man,Right,
18,3,1,1.0341029000001072,['c'],1,left,['3'],3,0.5681103000001713,0.1,0,none,25,19,Man,Right,
19,3,1,0.8331881999997677,['n'],1,right,['0'],6,0.7517729000001054,0.4,0,none,25,19,Man,Right,
20,3,1,1.032576600000084,['c'],1,left,['0'],6,0.5520949000001565,0.4,0,none,25,19,Man,Right,
21,3,1,1.8673205000000053,['c'],1,left,['9'],5,1.3827040999999554,0.2,0,none,25,19,Man,Right,
22,3,1,1.6357511000001068,['c'],1,left,['9'],5,1.1182772000001933,0.1,0,none,25,19,Man,Right,
23,3,1,3.7338926000002175,['n'],0,left,none,-99,-99,0.1,1,none,25,19,Man,Right,
0,4,1,5.01595240000006,x,-99,left,none,-99,-99,0.1,1,AccAcc,25,19,Man,Right,
1,4,1,1.017600599999696,['c'],1,left,['8'],4,3.0683475000000726,0.4,0,AccAcc,25,19,Man,Right,
2,4,1,1.4010776999998598,['n'],0,left,['9'],5,1.1512953999999809,0.4,0,AccAcc,25,19,Man,Right,
3,4,1,1.7668982000000142,['n'],1,right,['0'],6,1.2511656000001494,0.4,0,AccAcc,25,19,Man,Right,
4,4,1,1.0166487999999845,['c'],1,left,['9'],5,2.366564599999947,0.4,0,AccAcc,25,19,Man,Right,
5,4,1,0.8175670999999056,['n'],1,right,['9'],5,1.3678996999997253,0.2,0,AccAcc,25,19,Man,Right,
6,4,1,1.2676541999999245,['c'],1,left,['2'],2,1.6667672999997194,0.2,0,AccAcc,25,19,Man,Right,
7,4,1,1.350564000000304,['n'],1,right,['2'],2,1.2179196000001866,0.2,0,AccAcc,25,19,Man,Right,
8,4,1,1.3007085000003826,['n'],1,right,['2'],2,0.8841539999998531,0.1,0,AccAcc,25,19,Man,Right,
9,4,1,1.1172857999999906,['c'],1,left,['9'],5,1.5834313999998813,0.4,0,AccAcc,25,19,Man,Right,
10,4,1,1.5009971999998015,['n'],1,right,['8'],4,2.75173390000009,0.2,0,AccAcc,25,19,Man,Right,
11,4,1,1.1829195999998774,['n'],1,right,['0'],6,0.5850258000000395,0.4,0,AccAcc,25,19,Man,Right,
12,4,1,2.150745999999799,['c'],0,right,['2'],2,1.8842694999998457,0.2,0,AccAcc,25,19,Man,Right,
13,4,1,1.9481223999996473,['c'],1,left,['8'],4,1.9024100999999973,0.2,0,AccAcc,25,19,Man,Right,
14,4,1,1.299218699999983,['n'],1,right,['8'],4,2.000785199999882,0.1,0,AccAcc,25,19,Man,Right,
15,4,1,3.150024200000189,['c'],0,right,['3'],3,1.6005439999998998,0.1,0,AccAcc,25,19,Man,Right,
16,4,1,0.9003668999998808,['n'],1,right,['8'],4,1.3845172999999704,0.1,0,AccAcc,25,19,Man,Right,
17,4,1,2.0494407000001047,['n'],1,right,['8'],4,2.3678233000000546,0.2,0,AccAcc,25,19,Man,Right,
18,4,1,2.9174344000002748,['n'],1,right,['2'],2,1.6504382000002806,0.2,0,AccAcc,25,19,Man,Right,
19,4,1,0.8175005000002784,['n'],1,right,['0'],6,1.184340699999666,0.4,0,AccAcc,25,19,Man,Right,
20,4,1,0.9009978999997657,['c'],1,left,['9'],5,1.9011987999997473,0.2,0,AccAcc,25,19,Man,Right,
21,4,1,0.8672510999999758,['c'],1,left,['9'],5,1.6010725999999522,0.1,0,AccAcc,25,19,Man,Right,
22,4,1,2.783646200000021,['n'],0,left,['3'],3,2.716627100000096,0.1,0,AccAcc,25,19,Man,Right,
23,4,1,0.867062100000112,['n'],1,right,['0'],6,1.1013869999997041,0.4,0,AccAcc,25,19,Man,Right,
24,4,1,0.9166470000000118,['c'],1,left,['0'],6,0.8511944000001677,0.4,0,AccAcc,25,19,Man,Right,
25,4,1,3.516346800000065,['n'],1,right,['2'],2,2.9509870000001683,0.1,0,AccAcc,25,19,Man,Right,
26,4,1,0.866945200000373,['n'],1,right,['0'],6,0.5841110000001208,0.4,0,AccAcc,25,19,Man,Right,
27,4,1,0.7009876000001896,['c'],1,left,['0'],6,0.46616039999980785,0.4,0,AccAcc,25,19,Man,Right,
28,4,1,4.018122499999663,['c'],1,left,['1'],1,1.567346599999837,0.1,0,AccAcc,25,19,Man,Right,
29,4,1,0.7343240000000151,['c'],1,left,['0'],6,0.7180539000000863,0.4,0,AccAcc,25,19,Man,Right,
30,4,1,2.43447389999983,['c'],1,left,['2'],2,1.8512375000000247,0.1,0,AccAcc,25,19,Man,Right,
31,4,1,0.8663610999997218,['c'],1,left,['0'],6,0.834644400000343,0.4,0,AccAcc,25,19,Man,Right,
32,4,1,2.1498367999997754,['c'],1,left,['3'],3,1.1683149999998932,0.1,0,AccAcc,25,19,Man,Right,
33,4,1,1.6510309999998753,['n'],1,right,['8'],4,1.1181448999996064,0.1,0,AccAcc,25,19,Man,Right,
34,4,1,2.7840210999997907,['c'],1,left,['2'],2,0.7846678000000793,0.1,0,AccAcc,25,19,Man,Right,
35,4,1,2.5660391999999774,['c'],1,left,['1'],1,1.3179377999999815,0.2,0,AccAcc,25,19,Man,Right,
36,4,1,0.8337854999999763,['n'],1,right,['0'],6,0.36807349999980943,0.4,0,AccAcc,25,19,Man,Right,
37,4,1,0.6504571000000396,['c'],1,left,['0'],6,0.4513680000000022,0.4,0,AccAcc,25,19,Man,Right,
38,4,1,0.7669051000002582,['n'],1,right,['0'],6,0.3682917000000998,0.4,0,AccAcc,25,19,Man,Right,
39,4,1,3.1170390000002044,['n'],1,right,['8'],4,1.1179489000001013,0.1,0,AccAcc,25,19,Man,Right,
40,4,1,3.067527700000028,['n'],1,right,['8'],4,2.0678706999997303,0.2,0,AccAcc,25,19,Man,Right,
41,4,1,0.9504558000003271,['c'],1,left,['8'],4,0.917419300000347,0.2,0,AccAcc,25,19,Man,Right,
42,4,1,0.7685114999999314,['n'],1,right,['0'],6,0.38471670000035374,0.4,0,AccAcc,25,19,Man,Right,
43,4,1,1.2683455000001231,['c'],1,left,['8'],4,1.3348703999999998,0.1,0,AccAcc,25,19,Man,Right,
44,4,1,0.8839815000001181,['n'],1,right,['9'],5,0.9514884999998685,0.2,0,AccAcc,25,19,Man,Right,
45,4,1,2.533485699999801,['n'],1,right,['3'],3,1.3834756999999627,0.1,0,AccAcc,25,19,Man,Right,
46,4,1,1.149926300000061,['c'],1,left,['2'],2,0.8681321000003663,0.1,0,AccAcc,25,19,Man,Right,
47,4,1,1.1841185999996924,['n'],1,right,['8'],4,1.2010245999999825,0.2,0,AccAcc,25,19,Man,Right,
48,4,1,1.3164120999999795,['c'],1,left,['9'],5,1.2836649999999281,0.2,0,AccAcc,25,19,Man,Right,
49,4,1,4.050636699999814,['c'],0,right,['2'],2,1.3008116999999402,0.2,0,AccAcc,25,19,Man,Right,
50,4,1,0.8843511000000035,['c'],1,left,['9'],5,1.1520324999996774,0.4,0,AccAcc,25,19,Man,Right,
51,4,1,4.033234300000004,['n'],1,right,['2'],2,2.601409899999908,0.1,0,AccAcc,25,19,Man,Right,
52,4,1,2.817396599999938,['c'],1,left,['2'],2,1.734581000000162,0.2,0,AccAcc,25,19,Man,Right,
53,4,1,0.7173895000000812,['c'],1,left,['0'],6,0.8166271000000052,0.4,0,AccAcc,25,19,Man,Right,
54,4,1,1.1342263999999886,['c'],1,left,['0'],6,0.8514909999998963,0.4,0,AccAcc,25,19,Man,Right,
55,4,1,1.2827483999999458,['c'],1,left,['8'],4,1.8022626000001765,0.2,0,AccAcc,25,19,Man,Right,
56,4,1,1.3655099000002338,['c'],1,left,['8'],4,0.7852966000000379,0.2,0,AccAcc,25,19,Man,Right,
57,4,1,1.2161481999996795,['n'],1,right,['3'],3,0.9516333999999915,0.2,0,AccAcc,25,19,Man,Right,
58,4,1,3.800932200000261,['n'],1,right,['2'],2,1.484038700000383,0.1,0,AccAcc,25,19,Man,Right,
59,4,1,2.5665656000001036,['n'],1,right,['2'],2,0.6506110999998782,0.1,0,AccAcc,25,19,Man,Right,
0,5,1,1.0338415999999597,['c'],1,left,['8'],4,3.9998633999998674,0.1,0,FastAcc,25,19,Man,Right,
1,5,1,0.8177270999999564,['c'],1,left,['3'],3,1.6678840999998101,0.2,0,FastAcc,25,19,Man,Right,
2,5,1,0.7512471999998525,['n'],1,right,['8'],4,3.051021799999944,0.1,0,FastAcc,25,19,Man,Right,
3,5,1,0.7831777999999758,['c'],1,left,['2'],2,1.6013217999998233,0.1,0,FastAcc,25,19,Man,Right,
4,5,1,0.584415700000136,['c'],1,left,['2'],2,1.7849973000002137,0.2,0,FastAcc,25,19,Man,Right,
5,5,1,0.6837915000000976,['c'],1,left,['9'],5,0.8348781999998209,0.4,0,FastAcc,25,19,Man,Right,
6,5,1,0.8503492999998343,['n'],1,right,['0'],6,0.25167999999985113,0.4,0,FastAcc,25,19,Man,Right,
7,5,1,1.0839022000000114,['c'],1,left,['9'],5,0.8679667999999765,0.2,0,FastAcc,25,19,Man,Right,
8,5,1,0.5334293000000798,['n'],1,right,['0'],6,0.7682561000001442,0.4,0,FastAcc,25,19,Man,Right,
9,5,1,1.0666117999999187,['c'],0,right,['1'],1,1.384802800000216,0.1,0,FastAcc,25,19,Man,Right,
10,5,1,1.9337100000002465,['c'],1,left,['2'],2,1.3002172000001337,0.1,0,FastAcc,25,19,Man,Right,
11,5,1,0.5833863000002566,['c'],1,left,['0'],6,0.6518781999998282,0.4,0,FastAcc,25,19,Man,Right,
12,5,1,1.3510399000001598,['c'],0,right,['2'],2,2.5176747000000432,0.1,0,FastAcc,25,19,Man,Right,
13,5,1,0.5992772999998124,['c'],1,left,['2'],2,1.5516723999999158,0.2,0,FastAcc,25,19,Man,Right,
14,5,1,0.5682049000001825,['n'],1,right,['9'],5,0.9183043000002726,0.2,0,FastAcc,25,19,Man,Right,
15,5,1,0.5343637999999373,['c'],1,left,['2'],2,2.434371800000008,0.1,0,FastAcc,25,19,Man,Right,
16,5,1,0.48364249999985987,['n'],1,right,['8'],4,2.8011664999999084,0.1,0,FastAcc,25,19,Man,Right,
17,5,1,0.5336175000002186,['n'],1,right,['8'],4,3.2844685000000027,0.1,0,FastAcc,25,19,Man,Right,
18,5,1,2.03432470000007,['n'],1,right,['2'],2,2.351826600000095,0.2,0,FastAcc,25,19,Man,Right,
19,5,1,0.5004503000000113,['c'],1,left,['0'],6,0.9672322000001259,0.2,0,FastAcc,25,19,Man,Right,
20,5,1,0.6004134999998314,['c'],1,left,['9'],5,2.8166409000000385,0.2,0,FastAcc,25,19,Man,Right,
21,5,1,1.4169701000000714,['n'],1,right,['2'],2,1.5003208000002815,0.1,0,FastAcc,25,19,Man,Right,
22,5,1,0.58251700000028,['n'],1,right,['0'],6,0.9520106999998461,0.4,0,FastAcc,25,19,Man,Right,
23,5,1,0.6326531000004252,['c'],1,left,['8'],4,1.7685417000002417,0.1,0,FastAcc,25,19,Man,Right,
24,5,1,0.5175510999997641,['n'],1,right,['8'],4,1.7347348999996939,0.2,0,FastAcc,25,19,Man,Right,
25,5,1,2.0338455000000977,['c'],1,left,['2'],2,2.268173999999817,0.2,0,FastAcc,25,19,Man,Right,
26,5,1,1.1840366000001268,['n'],1,right,['1'],1,1.6511804000001575,0.1,0,FastAcc,25,19,Man,Right,
27,5,1,0.6004530000000159,['c'],1,left,['0'],6,0.8512187999999696,0.2,0,FastAcc,25,19,Man,Right,
28,5,1,0.5342854000000443,['n'],1,right,['0'],6,0.4351658000000498,0.2,0,FastAcc,25,19,Man,Right,
29,5,1,0.5008385000000999,['n'],1,right,['0'],6,0.284658699999909,0.4,0,FastAcc,25,19,Man,Right,
30,5,1,1.2669109000003118,['n'],1,right,['1'],1,1.1337547000002814,0.2,0,FastAcc,25,19,Man,Right,
31,5,1,0.452182399999856,['c'],0,right,['8'],4,1.2173714999998992,0.1,0,FastAcc,25,19,Man,Right,
32,5,1,1.2504857999997512,['n'],1,right,['2'],2,1.3844457000000148,0.1,0,FastAcc,25,19,Man,Right,
33,5,1,0.8673854999997275,['c'],1,left,['2'],2,1.351248399999804,0.1,0,FastAcc,25,19,Man,Right,
34,5,1,0.48463379999975587,['n'],1,right,['0'],6,0.3179595999999947,0.4,0,FastAcc,25,19,Man,Right,
35,5,1,1.167803499999991,['n'],1,right,['8'],4,2.568023699999685,0.2,0,FastAcc,25,19,Man,Right,
36,5,1,0.5668051999996351,['c'],1,left,['9'],5,1.2179690000002665,0.1,0,FastAcc,25,19,Man,Right,
37,5,1,0.5498126999996202,['c'],1,left,['0'],6,0.8514446999997745,0.4,0,FastAcc,25,19,Man,Right,
38,5,1,0.8164120000001276,['c'],1,left,['3'],3,1.8336601999999402,0.1,0,FastAcc,25,19,Man,Right,
39,5,1,0.4674875999999131,['n'],1,right,['0'],6,0.35150389999989784,0.4,0,FastAcc,25,19,Man,Right,
40,5,1,0.5835298000001785,['c'],0,right,['3'],3,1.7846894000003886,0.2,0,FastAcc,25,19,Man,Right,
41,5,1,0.783602399999836,['n'],1,right,['0'],6,1.0676097999999001,0.2,0,FastAcc,25,19,Man,Right,
42,5,1,0.5339272000001074,['c'],1,left,['0'],6,1.0175161000001935,0.4,0,FastAcc,25,19,Man,Right,
43,5,1,0.700454400000126,['c'],1,left,['0'],6,1.0175045999999384,0.4,0,FastAcc,25,19,Man,Right,
44,5,1,0.45056220000014946,['n'],1,right,['0'],6,0.8179128000001583,0.4,0,FastAcc,25,19,Man,Right,
45,5,1,0.6338104999999814,['n'],1,right,['0'],6,0.7510216999999102,0.4,0,FastAcc,25,19,Man,Right,
46,5,1,0.3996707000001152,['c'],1,left,['0'],6,0.4845795999999609,0.2,0,FastAcc,25,19,Man,Right,
47,5,1,1.800198900000396,['n'],0,left,['8'],4,1.468185700000049,0.2,0,FastAcc,25,19,Man,Right,
48,5,1,0.515925800000332,['n'],1,right,['0'],6,0.6511185999997906,0.4,0,FastAcc,25,19,Man,Right,
49,5,1,0.5023012999999992,['c'],1,left,['0'],6,0.6849621999999727,0.2,0,FastAcc,25,19,Man,Right,
50,5,1,0.5344513999998526,['c'],1,left,['9'],5,1.1014979999999923,0.2,0,FastAcc,25,19,Man,Right,
51,5,1,0.9834495000000061,['n'],1,right,['2'],2,1.251460500000121,0.1,0,FastAcc,25,19,Man,Right,
52,5,1,0.41695290000006935,['n'],1,right,['0'],6,1.151304699999855,0.4,0,FastAcc,25,19,Man,Right,
53,5,1,0.40065950000007433,['c'],1,left,['0'],6,1.3176218000003246,0.4,0,FastAcc,25,19,Man,Right,
54,5,1,0.4172742999999173,['n'],1,right,['8'],4,1.5013389999999163,0.4,0,FastAcc,25,19,Man,Right,
55,5,1,0.6827086000002964,['n'],1,right,['3'],3,1.3855561000000307,0.1,0,FastAcc,25,19,Man,Right,
56,5,1,0.43302799999992203,['c'],1,left,['0'],6,0.768119299999853,0.4,0,FastAcc,25,19,Man,Right,
57,5,1,0.5009036999999807,['c'],1,left,['0'],6,1.0999674999998206,0.4,0,FastAcc,25,19,Man,Right,
58,5,1,1.1337602999997216,['n'],0,left,['2'],2,1.451347700000042,0.1,0,FastAcc,25,19,Man,Right,
59,5,1,0.45051569999986896,['c'],1,left,['8'],4,1.9846097999998165,0.4,0,FastAcc,25,19,Man,Right,
0,6,1,0.6010326000000532,['n'],1,right,['0'],6,0.36808579999978974,0.4,0,FastFast,25,19,Man,Right,
1,6,1,0.8838690000002316,['c'],1,left,['3'],3,0.7182213999999476,0.1,0,FastFast,25,19,Man,Right,
2,6,1,0.5339522000003853,['c'],1,left,['0'],6,0.41794290000007095,0.2,0,FastFast,25,19,Man,Right,
3,6,1,0.48382509999964896,['n'],1,right,['0'],6,0.3003073999998378,0.4,0,FastFast,25,19,Man,Right,
4,6,1,0.651605500000187,['n'],1,right,['0'],6,0.3181371000000581,0.1,0,FastFast,25,19,Man,Right,
5,6,1,0.46707029999970473,['n'],1,right,['0'],6,0.35146609999992506,0.2,0,FastFast,25,19,Man,Right,
6,6,1,0.4844474999999875,['n'],1,right,['0'],6,0.31806520000009186,0.4,0,FastFast,25,19,Man,Right,
7,6,1,0.6675568999999086,['n'],0,left,['3'],3,1.13371670000015,0.1,0,FastFast,25,19,Man,Right,
8,6,1,0.43455020000010336,['c'],1,left,['0'],6,0.41812949999984994,0.4,0,FastFast,25,19,Man,Right,
9,6,1,0.3836599000001115,['n'],1,right,['0'],6,0.30121520000011515,0.4,0,FastFast,25,19,Man,Right,
10,6,1,0.4828572000001259,['n'],1,right,['0'],6,0.3338020000001052,0.4,0,FastFast,25,19,Man,Right,
11,6,1,0.7503129000001536,['c'],1,left,['9'],5,1.100740599999881,0.2,0,FastFast,25,19,Man,Right,
12,6,1,0.5664523999998892,['n'],1,right,['0'],6,0.20136950000005527,0.4,0,FastFast,25,19,Man,Right,
13,6,1,0.5499572999997326,['c'],1,left,['0'],6,0.33455869999988863,0.4,0,FastFast,25,19,Man,Right,
14,6,1,0.4840700999998262,['n'],1,right,['0'],6,0.23394740000003367,0.4,0,FastFast,25,19,Man,Right,
15,6,1,0.4835074999996323,['n'],1,right,['0'],6,0.23463549999996758,0.4,0,FastFast,25,19,Man,Right,
16,6,1,0.9834359000001314,['c'],1,left,['2'],2,0.8684225000001788,0.1,0,FastFast,25,19,Man,Right,
17,6,1,0.5832321000002594,['n'],1,right,['9'],5,0.7835414999999557,0.2,0,FastFast,25,19,Man,Right,
18,6,1,0.6163802000000942,['c'],1,left,['0'],6,0.31808630000023186,0.4,0,FastFast,25,19,Man,Right,
19,6,1,0.8995521000001645,['c'],1,left,['1'],1,0.7354291999999987,0.1,0,FastFast,25,19,Man,Right,
20,6,1,0.748931900000116,['c'],1,left,['9'],5,0.7174125999999887,0.1,0,FastFast,25,19,Man,Right,
21,6,1,1.0513104999999996,['c'],1,left,['1'],1,0.5180890999999974,0.2,0,FastFast,25,19,Man,Right,
22,6,1,0.8492627999999058,['c'],1,left,['2'],2,0.6683524000000034,0.1,0,FastFast,25,19,Man,Right,
23,6,1,0.8992830000001959,['c'],0,right,['2'],2,0.4529505999998946,0.2,0,FastFast,25,19,Man,Right,
24,6,1,0.6508296000001792,['n'],1,right,['9'],5,0.8681153000002269,0.4,0,FastFast,25,19,Man,Right,
25,6,1,0.8336499999995794,['c'],1,left,['2'],2,0.5177945000000364,0.1,0,FastFast,25,19,Man,Right,
26,6,1,0.8666235999999117,['c'],0,right,['1'],1,0.8351175000002513,0.1,0,FastFast,25,19,Man,Right,
27,6,1,0.8004465999997592,['c'],1,left,['2'],2,0.36817540000038207,0.1,0,FastFast,25,19,Man,Right,
28,6,1,1.0004060999999638,['c'],0,right,['2'],2,0.7850279999997838,0.1,0,FastFast,25,19,Man,Right,
29,6,1,1.2004016999999294,['c'],0,right,['2'],2,0.4688587999999072,0.1,0,FastFast,25,19,Man,Right,
30,6,1,1.1338273000001209,['c'],1,left,['1'],1,0.2351778000002014,0.1,0,FastFast,25,19,Man,Right,
31,6,1,0.7173964999997224,['c'],0,right,['1'],1,0.3012229999999363,0.2,0,FastFast,25,19,Man,Right,
32,6,1,0.8660488999998961,['c'],1,left,['8'],4,1.468608199999835,0.2,0,FastFast,25,19,Man,Right,
33,6,1,1.1341191999999864,['c'],0,right,['1'],1,0.4344061000001602,0.1,0,FastFast,25,19,Man,Right,
34,6,1,1.6496907000000647,['c'],0,right,['2'],2,1.0013592999998764,0.1,0,FastFast,25,19,Man,Right,
35,6,1,1.6168416999998954,['c'],1,left,['0'],6,0.8515886000000137,0.2,0,FastFast,25,19,Man,Right,
36,6,1,1.0823645000000397,['c'],1,left,['3'],3,1.483579700000064,0.1,0,FastFast,25,19,Man,Right,
37,6,1,0.9012834999998631,['c'],1,left,['9'],5,0.7181424000000334,0.2,0,FastFast,25,19,Man,Right,
38,6,1,0.9673683999999412,['c'],1,left,['3'],3,1.4011580000001231,0.2,0,FastFast,25,19,Man,Right,
39,6,1,0.701182300000255,['n'],1,right,['9'],5,0.6168179999999666,0.1,0,FastFast,25,19,Man,Right,
40,6,1,1.0159710000002633,['c'],0,right,['3'],3,0.9355161000003136,0.4,0,FastFast,25,19,Man,Right,
41,6,1,0.6171395000001212,['c'],1,left,['8'],4,1.0677722000000358,0.2,0,FastFast,25,19,Man,Right,
42,6,1,0.6003700999999637,['n'],1,right,['9'],5,0.5182313000000249,0.4,0,FastFast,25,19,Man,Right,
43,6,1,0.6508288999998513,['n'],1,right,['0'],6,0.3682163999997101,0.4,0,FastFast,25,19,Man,Right,
44,6,1,0.9178333999998358,['c'],1,left,['0'],6,0.8340582999999242,0.4,0,FastFast,25,19,Man,Right,
45,6,1,0.6002578999996331,['c'],1,left,['0'],6,0.485637300000235,0.2,0,FastFast,25,19,Man,Right,
46,6,1,0.5992590000000746,['n'],1,right,['0'],6,0.2677607000000535,0.1,0,FastFast,25,19,Man,Right,
47,6,1,0.48351619999994,['c'],1,left,['0'],6,0.3675065000002178,0.2,0,FastFast,25,19,Man,Right,
48,6,1,1.1333378000003904,['c'],1,left,['8'],4,1.1019188000000213,0.1,0,FastFast,25,19,Man,Right,
49,6,1,0.6173553000003267,['n'],1,right,['0'],6,0.24991730000010648,0.2,0,FastFast,25,19,Man,Right,
50,6,1,0.6664336999997431,['n'],1,right,['0'],6,0.21871860000010201,0.4,0,FastFast,25,19,Man,Right,
51,6,1,1.0503449000002547,['n'],1,right,['9'],5,0.8177562000000762,0.2,0,FastFast,25,19,Man,Right,
52,6,1,0.7992847999998958,['n'],1,right,['9'],5,0.4682086000002528,0.2,0,FastFast,25,19,Man,Right,
53,6,1,0.5003906000001734,['c'],1,left,['0'],6,0.4011225999997805,0.4,0,FastFast,25,19,Man,Right,
54,6,1,0.5834516999998414,['n'],1,right,['0'],6,0.2357548999998471,0.4,0,FastFast,25,19,Man,Right,
55,6,1,0.8003711999999723,['n'],1,right,['8'],4,0.701296100000036,0.4,0,FastFast,25,19,Man,Right,
56,6,1,0.6001521000002867,['c'],1,left,['9'],5,0.6668323000003511,0.1,0,FastFast,25,19,Man,Right,
57,6,1,0.6505334999997103,['c'],1,left,['9'],5,0.4842979000000014,0.2,0,FastFast,25,19,Man,Right,
58,6,1,0.5172336999999061,['c'],1,left,['9'],5,0.41700159999982134,0.2,0,FastFast,25,19,Man,Right,
59,6,1,0.6844891000000644,['c'],1,left,['9'],5,0.334717400000045,0.2,0,FastFast,25,19,Man,Right,
0,7,1,4.548977299999933,['n'],1,right,['3'],3,0.4356356000002961,0.1,0,AccFast,25,19,Man,Right,
1,7,1,1.3504002999998193,['c'],1,left,['9'],5,0.15159310000035475,0.2,0,AccFast,25,19,Man,Right,
2,7,1,0.7344806999999491,['n'],1,right,['0'],6,0.11817130000008547,0.4,0,AccFast,25,19,Man,Right,
3,7,1,1.8504073999997672,['n'],1,right,['9'],5,0.1689504000000852,0.2,0,AccFast,25,19,Man,Right,
4,7,1,1.3826356999998097,['n'],1,right,['8'],4,0.15197360000001936,0.1,0,AccFast,25,19,Man,Right,
5,7,1,0.9175000999998701,['c'],1,left,['8'],4,0.11781350000001112,0.1,0,AccFast,25,19,Man,Right,
6,7,1,1.5499133000002985,['c'],1,left,['8'],4,0.18452369999977236,0.2,0,AccFast,25,19,Man,Right,
7,7,1,0.7672832000002927,['n'],0,left,['9'],5,0.25136539999994056,0.1,0,AccFast,25,19,Man,Right,
8,7,1,0.8833599999998114,['n'],1,right,['8'],4,0.11812479999980496,0.1,0,AccFast,25,19,Man,Right,
9,7,1,1.3327684000000772,['n'],0,left,['3'],3,0.15118329999995694,0.1,0,AccFast,25,19,Man,Right,
10,7,1,0.6508764999998675,['n'],1,right,['0'],6,0.584801299999981,0.4,0,AccFast,25,19,Man,Right,
11,7,1,0.8504258000002665,['n'],0,left,['0'],6,0.15003490000026432,0.2,0,AccFast,25,19,Man,Right,
12,7,1,1.9163233999997829,['n'],0,left,['3'],3,0.1517186999999467,0.1,0,AccFast,25,19,Man,Right,
13,7,1,1.8821305000001303,['c'],1,left,['3'],3,0.38614979999965726,0.4,0,AccFast,25,19,Man,Right,
14,7,1,1.0173306000001503,['n'],1,right,['9'],5,0.23347560000001977,0.2,0,AccFast,25,19,Man,Right,
15,7,1,0.616532499999721,['c'],1,left,['9'],5,0.5843881000000692,0.4,0,AccFast,25,19,Man,Right,
16,7,1,1.0508420999999544,['n'],1,right,['0'],6,0.13491560000011305,0.4,0,AccFast,25,19,Man,Right,
17,7,1,2.43219339999996,['c'],1,left,['9'],5,0.11877380000032645,0.2,0,AccFast,25,19,Man,Right,
18,7,1,0.7000001000001248,['n'],1,right,['0'],6,0.10202410000010786,0.4,0,AccFast,25,19,Man,Right,
19,7,1,0.7313720999995894,['c'],1,left,['0'],6,0.1343633999999838,0.4,0,AccFast,25,19,Man,Right,
20,7,1,2.633990199999971,['c'],0,right,['2'],2,0.1696012000002156,0.1,0,AccFast,25,19,Man,Right,
21,7,1,0.5831888000002436,['n'],1,right,['0'],6,0.1513116999999511,0.4,0,AccFast,25,19,Man,Right,
22,7,1,1.9665769999996883,['c'],1,left,['9'],5,0.05132999999977983,0.1,0,AccFast,25,19,Man,Right,
23,7,1,2.765945300000112,['c'],1,left,['2'],2,0.2504329999997026,0.2,0,AccFast,25,19,Man,Right,
24,7,1,1.567308900000171,['n'],1,right,['0'],6,0.13483809999979712,0.2,0,AccFast,25,19,Man,Right,
25,7,1,3.0669833000001745,['c'],0,right,['3'],3,0.2185223000001315,0.1,0,AccFast,25,19,Man,Right,
26,7,1,1.1160798000000796,['n'],1,right,['0'],6,0.10144990000026155,0.4,0,AccFast,25,19,Man,Right,
27,7,1,3.4666041000000405,['c'],0,right,['2'],2,0.8012962999996489,0.1,0,AccFast,25,19,Man,Right,
28,7,1,0.6325968999999532,['c'],1,left,['0'],6,0.35237099999994825,0.4,0,AccFast,25,19,Man,Right,
29,7,1,3.700295100000403,['c'],1,left,['1'],1,0.13459750000038184,0.1,0,AccFast,25,19,Man,Right,
30,7,1,1.6664114000000154,['n'],1,right,['9'],5,0.08576009999978851,0.4,0,AccFast,25,19,Man,Right,
31,7,1,2.0006180000000313,['c'],0,right,['8'],4,0.10143419999985781,0.2,0,AccFast,25,19,Man,Right,
32,7,1,2.949785199999951,['c'],0,right,['8'],4,0.13374100000010003,0.2,0,AccFast,25,19,Man,Right,
33,7,1,1.8503310000000965,['c'],0,right,['2'],2,0.2511343000001034,0.2,0,AccFast,25,19,Man,Right,
34,7,1,0.6671609999998509,['c'],1,left,['9'],5,0.2009938000001057,0.2,0,AccFast,25,19,Man,Right,
35,7,1,1.367505600000186,['c'],1,left,['3'],3,0.3171929000000091,0.2,0,AccFast,25,19,Man,Right,
36,7,1,1.1337585000001127,['n'],1,right,['9'],5,0.10066510000024209,0.2,0,AccFast,25,19,Man,Right,
37,7,1,1.9169113999996625,['c'],0,right,['3'],3,0.13492839999980788,0.1,0,AccFast,25,19,Man,Right,
38,7,1,1.0991813999999067,['c'],1,left,['9'],5,0.10153459999992265,0.4,0,AccFast,25,19,Man,Right,
39,7,1,0.8006390999998985,['n'],1,right,['9'],5,0.11803569999983665,0.2,0,AccFast,25,19,Man,Right,
40,7,1,1.4169392999997399,['c'],1,left,['8'],4,0.08362769999985176,0.2,0,AccFast,25,19,Man,Right,
41,7,1,1.3341655999997784,['c'],1,left,['9'],5,0.08495570000013686,0.4,0,AccFast,25,19,Man,Right,
42,7,1,2.5670623999999407,['c'],1,left,['8'],4,0.10019250000004831,0.2,0,AccFast,25,19,Man,Right,
43,7,1,1.533028800000011,['c'],1,left,['8'],4,0.11870689999977913,0.2,0,AccFast,25,19,Man,Right,
44,7,1,2.8341569999997773,['c'],1,left,['3'],3,0.15234230000032767,0.1,0,AccFast,25,19,Man,Right,
45,7,1,1.750572899999952,['c'],0,right,['8'],4,0.10147189999997863,0.1,0,AccFast,25,19,Man,Right,
46,7,1,1.099667700000282,['c'],1,left,['9'],5,0.13521730000002208,0.4,0,AccFast,25,19,Man,Right,
47,7,1,2.032795199999782,['c'],1,left,['8'],4,0.10167039999987537,0.4,0,AccFast,25,19,Man,Right,
48,7,1,2.6833930999996483,['c'],1,left,['8'],4,0.05079679999971631,0.1,0,AccFast,25,19,Man,Right,
49,7,1,1.8002903000001425,['c'],0,right,['8'],4,0.15150859999994282,0.1,0,AccFast,25,19,Man,Right,
50,7,1,1.3840602000000217,['n'],1,right,['9'],5,0.05167710000023362,0.4,0,AccFast,25,19,Man,Right,
51,7,1,0.7831335000000763,['c'],1,left,['8'],4,0.2515771999997014,0.4,0,AccFast,25,19,Man,Right,
52,7,1,1.4505199999998695,['n'],1,right,['9'],5,0.23434210000004896,0.4,0,AccFast,25,19,Man,Right,
53,7,1,2.948641299999963,['c'],1,left,['8'],4,0.13428019999992102,0.1,0,AccFast,25,19,Man,Right,
54,7,1,1.1173785000000862,['n'],1,right,['8'],4,0.20150219999959518,0.1,0,AccFast,25,19,Man,Right,
55,7,1,1.8506477999999333,['n'],1,right,['9'],5,0.1182450000001154,0.2,0,AccFast,25,19,Man,Right,
56,7,1,1.117395100000067,['c'],1,left,['9'],5,0.1018909999997959,0.4,0,AccFast,25,19,Man,Right,
57,7,1,1.8828145000002223,['n'],1,right,['8'],4,0.2335029000000759,0.1,0,AccFast,25,19,Man,Right,
58,7,1,1.367747700000109,['c'],1,left,['9'],5,0.11883480000005875,0.2,0,AccFast,25,19,Man,Right,
59,7,1,0.900365899999997,['n'],1,right,['0'],6,0.085431299999982,0.4,0,AccFast,25,19,Man,Right,
0,8,1,1.3659458999995877,['n'],1,right,['0'],6,0.5000336999996762,0.4,0,AccAcc,25,19,Man,Right,
1,8,1,0.9004476000000068,['c'],1,left,['9'],5,0.4513644000003296,0.2,0,AccAcc,25,19,Man,Right,
2,8,1,1.9168480999996973,['c'],1,left,['8'],4,0.4348674000002575,0.1,0,AccAcc,25,19,Man,Right,
3,8,1,0.9175551999996969,['c'],1,left,['9'],5,0.43501770000011675,0.2,0,AccAcc,25,19,Man,Right,
4,8,1,0.7496618000000126,['n'],1,right,['0'],6,0.46788770000011937,0.4,0,AccAcc,25,19,Man,Right,
5,8,1,1.5669192000000294,['n'],1,right,['9'],5,0.4178207999998449,0.2,0,AccAcc,25,19,Man,Right,
6,8,1,0.9675663999996686,['n'],1,right,['0'],6,0.2180148000002191,0.4,0,AccAcc,25,19,Man,Right,
7,8,1,1.8837625000001026,['n'],1,right,['8'],4,0.36808609999980035,0.1,0,AccAcc,25,19,Man,Right,
8,8,1,1.150055799999791,['c'],1,left,['8'],4,0.567432800000006,0.1,0,AccAcc,25,19,Man,Right,
9,8,1,0.95101700000032,['c'],1,left,['8'],4,0.4681537000001299,0.1,0,AccAcc,25,19,Man,Right,
10,8,1,3.249623000000156,['n'],0,left,['3'],3,0.26832680000006803,0.1,0,AccAcc,25,19,Man,Right,
11,8,1,1.1496138000002247,['n'],1,right,['8'],4,0.8519669000002068,0.4,0,AccAcc,25,19,Man,Right,
12,8,1,2.8997291999999106,['n'],1,right,['2'],2,0.6015383000003567,0.1,0,AccAcc,25,19,Man,Right,
13,8,1,2.8164606000000276,['n'],1,right,['2'],2,0.40153600000030565,0.1,0,AccAcc,25,19,Man,Right,
14,8,1,2.4836270999999215,['n'],0,left,['3'],3,1.1346945999998752,0.2,0,AccAcc,25,19,Man,Right,
15,8,1,0.832097800000156,['n'],1,right,['0'],6,0.21909140000025218,0.4,0,AccAcc,25,19,Man,Right,
16,8,1,1.8827464999999393,['n'],1,right,['8'],4,0.11815589999969234,0.4,0,AccAcc,25,19,Man,Right,
17,8,1,1.3011624999999185,['c'],1,left,['9'],5,0.15228509999997186,0.4,0,AccAcc,25,19,Man,Right,
18,8,1,3.2504837999999836,['c'],1,left,['8'],4,0.2007631000001311,0.2,0,AccAcc,25,19,Man,Right,
19,8,1,1.299865999999838,['n'],1,right,['8'],4,0.6167786000000888,0.2,0,AccAcc,25,19,Man,Right,
20,8,1,1.317464199999904,['c'],1,left,['9'],5,0.5006539999999404,0.4,0,AccAcc,25,19,Man,Right,
21,8,1,0.8498520000002827,['c'],1,left,['9'],5,0.41798100000005434,0.4,0,AccAcc,25,19,Man,Right,
22,8,1,1.2173170999999456,['n'],1,right,['8'],4,0.9848220000003494,0.2,0,AccAcc,25,19,Man,Right,
23,8,1,2.6830548000002636,['n'],1,right,['3'],3,0.7014314999996714,0.1,0,AccAcc,25,19,Man,Right,
24,8,1,2.5663887000000614,['n'],1,right,['2'],2,0.4847930000000815,0.1,0,AccAcc,25,19,Man,Right,
25,8,1,1.3669538999997712,['n'],1,right,['8'],4,1.633992600000056,0.2,0,AccAcc,25,19,Man,Right,
26,8,1,1.8159129000000576,['n'],1,right,['2'],2,0.5525690999998005,0.1,0,AccAcc,25,19,Man,Right,
27,8,1,0.9984106000001702,['n'],1,right,['0'],6,0.28497550000020055,0.4,0,AccAcc,25,19,Man,Right,
28,8,1,2.5654529000003095,['n'],1,right,['8'],4,1.5681897999998,0.2,0,AccAcc,25,19,Man,Right,
29,8,1,1.0846950999998626,['c'],1,left,['0'],6,1.5847923000001174,0.4,0,AccAcc,25,19,Man,Right,
30,8,1,0.8834280000000945,['n'],1,right,['0'],6,2.801125499999671,0.4,0,AccAcc,25,19,Man,Right,
31,8,1,0.9493734000002405,['c'],1,left,['8'],4,1.1505466999997225,0.1,0,AccAcc,25,19,Man,Right,
32,8,1,1.1176981999997224,['n'],1,right,['8'],4,1.81811689999995,0.1,0,AccAcc,25,19,Man,Right,
33,8,1,1.3664174999998977,['c'],0,right,['8'],4,1.184987099999944,0.1,0,AccAcc,25,19,Man,Right,
34,8,1,0.8152012999998988,['c'],1,left,['0'],6,0.5524985000001834,0.4,0,AccAcc,25,19,Man,Right,
35,8,1,0.9506012000001647,['c'],1,left,['8'],4,1.5335958999999093,0.2,0,AccAcc,25,19,Man,Right,
36,8,1,1.1509784999998374,['c'],1,left,['3'],3,2.484320000000025,0.1,0,AccAcc,25,19,Man,Right,
37,8,1,1.1003295000000435,['c'],1,left,['3'],3,1.285358499999802,0.2,0,AccAcc,25,19,Man,Right,
38,8,1,1.0157674000001862,['c'],0,right,['3'],3,0.767470300000241,0.2,0,AccAcc,25,19,Man,Right,
39,8,1,1.867559799999981,['c'],1,left,['8'],4,1.9678802000003088,0.1,0,AccAcc,25,19,Man,Right,
40,8,1,0.8175629000002118,['n'],1,right,['0'],6,0.5177837000001091,0.4,0,AccAcc,25,19,Man,Right,
41,8,1,1.8170405999999275,['n'],1,right,['8'],4,1.3687440999997307,0.2,0,AccAcc,25,19,Man,Right,
42,8,1,0.8654154999999264,['c'],1,left,['0'],6,0.5519798999998784,0.4,0,AccAcc,25,19,Man,Right,
43,8,1,0.8830533999998806,['c'],1,left,['8'],4,1.09951030000002,0.2,0,AccAcc,25,19,Man,Right,
44,8,1,1.301137700000254,['n'],1,right,['8'],4,1.2347849000002498,0.1,0,AccAcc,25,19,Man,Right,
45,8,1,0.5330733999999211,['c'],1,left,['9'],5,1.1690233999997872,0.2,0,AccAcc,25,19,Man,Right,
46,8,1,2.3665639999999257,['c'],1,left,['2'],2,0.7013351000000512,0.1,0,AccAcc,25,19,Man,Right,
47,8,1,1.0335949000000255,['c'],0,right,['3'],3,1.18456070000002,0.1,0,AccAcc,25,19,Man,Right,
48,8,1,2.5338079000002836,['c'],0,right,['3'],3,1.884343500000341,0.2,0,AccAcc,25,19,Man,Right,
49,8,1,1.8665845000000445,['c'],1,left,['3'],3,0.5671576999998251,0.4,0,AccAcc,25,19,Man,Right,
50,8,1,1.815904799999771,['c'],1,left,['3'],3,1.0854687000000922,0.4,0,AccAcc,25,19,Man,Right,
51,8,1,1.8004595000002155,['c'],1,left,['2'],2,0.4005431000000499,0.2,0,AccAcc,25,19,Man,Right,
52,8,1,4.383671999999933,['c'],0,right,['1'],1,0.28400009999995746,0.1,0,AccAcc,25,19,Man,Right,
53,8,1,2.7334602000000814,['c'],1,left,['2'],2,0.23477679999996326,0.2,0,AccAcc,25,19,Man,Right,
54,8,1,1.4826192999998966,['c'],1,left,['3'],3,0.933745700000145,0.4,0,AccAcc,25,19,Man,Right,
55,8,1,0.8676067999999759,['c'],1,left,['0'],6,0.7681846999998925,0.4,0,AccAcc,25,19,Man,Right,
56,8,1,2.4002583999999842,['c'],1,left,['2'],2,0.6680068999999094,0.1,0,AccAcc,25,19,Man,Right,
57,8,1,0.8015336999997089,['n'],1,right,['0'],6,0.46779570000035164,0.4,0,AccAcc,25,19,Man,Right,
58,8,1,0.9829955999998674,['c'],1,left,['8'],4,0.8853308000002471,0.2,0,AccAcc,25,19,Man,Right,
59,8,1,0.9008150999998179,['n'],1,right,['8'],4,0.584623400000055,0.2,0,AccAcc,25,19,Man,Right,
0,9,1,1.5342498999998497,['c'],1,left,['2'],2,3.4511852000000545,0.1,0,FastAcc,25,19,Man,Right,
1,9,1,0.5339257999999063,['n'],1,right,['9'],5,0.8846967000004042,0.2,0,FastAcc,25,19,Man,Right,
2,9,1,0.51729400000022,['c'],1,left,['8'],4,1.0500725000001694,0.4,0,FastAcc,25,19,Man,Right,
3,9,1,0.5838660999997956,['n'],1,right,['0'],6,0.5013165000000299,0.4,0,FastAcc,25,19,Man,Right,
4,9,1,0.3825879000000896,['c'],1,left,['9'],5,0.9509681999998065,0.4,0,FastAcc,25,19,Man,Right,
5,9,1,0.5165175000001909,['n'],1,right,['3'],3,1.7514258000001064,0.2,0,FastAcc,25,19,Man,Right,
6,9,1,0.5513536000003114,['c'],1,left,['8'],4,0.8177687999996124,0.4,0,FastAcc,25,19,Man,Right,
7,9,1,0.43376760000001013,['n'],1,right,['8'],4,0.967683500000021,0.2,0,FastAcc,25,19,Man,Right,
8,9,1,0.5505490999998983,['c'],1,left,['8'],4,0.818017300000065,0.4,0,FastAcc,25,19,Man,Right,
9,9,1,0.583989599999768,['c'],1,left,['2'],2,1.1179864000000634,0.2,0,FastAcc,25,19,Man,Right,
10,9,1,0.6666513999998642,['c'],1,left,['2'],2,1.0515967000001183,0.2,0,FastAcc,25,19,Man,Right,
11,9,1,0.4841718000002402,['n'],1,right,['9'],5,0.9353482999999869,0.2,0,FastAcc,25,19,Man,Right,
12,9,1,0.4338493999998718,['c'],1,left,['8'],4,0.8676685000000361,0.2,0,FastAcc,25,19,Man,Right,
13,9,1,0.7171348000001672,['c'],0,right,['2'],2,0.9848288000002867,0.2,0,FastAcc,25,19,Man,Right,
14,9,1,0.5992034999999305,['c'],1,left,['2'],2,1.0348684000000503,0.1,0,FastAcc,25,19,Man,Right,
15,9,1,0.550151299999925,['c'],1,left,['8'],4,0.5341781000001902,0.4,0,FastAcc,25,19,Man,Right,
16,9,1,0.6170384000001832,['n'],1,right,['2'],2,1.3177675000001727,0.2,0,FastAcc,25,19,Man,Right,
17,9,1,0.550039199999901,['n'],1,right,['9'],5,0.9515936999996484,0.4,0,FastAcc,25,19,Man,Right,
18,9,1,0.684431399999994,['n'],1,right,['8'],4,1.2183603999997104,0.4,0,FastAcc,25,19,Man,Right,
19,9,1,0.6672855000001618,['c'],0,right,['3'],3,1.0172209000002113,0.1,0,FastAcc,25,19,Man,Right,
20,9,1,0.8504226000000017,['n'],1,right,['8'],4,1.0512962000002517,0.2,0,FastAcc,25,19,Man,Right,
21,9,1,0.7502761999999166,['c'],1,left,['8'],4,0.7512676999999712,0.2,0,FastAcc,25,19,Man,Right,
22,9,1,0.7162710000002335,['c'],0,right,['2'],2,0.6499472999998943,0.1,0,FastAcc,25,19,Man,Right,
23,9,1,0.7001107000000957,['n'],1,right,['8'],4,1.0185093999998571,0.4,0,FastAcc,25,19,Man,Right,
24,9,1,0.5672504000003755,['c'],1,left,['8'],4,1.0847711999999774,0.1,0,FastAcc,25,19,Man,Right,
25,9,1,0.4671281999999337,['n'],1,right,['0'],6,1.1846012000000883,0.4,0,FastAcc,25,19,Man,Right,
26,9,1,0.6335479999997915,['c'],1,left,['3'],3,1.134766099999979,0.1,0,FastAcc,25,19,Man,Right,
27,9,1,0.5677893000001859,['c'],1,left,['0'],6,0.8838823000000957,0.4,0,FastAcc,25,19,Man,Right,
28,9,1,0.7328885000001719,['c'],1,left,['2'],2,1.0339754999999968,0.1,0,FastAcc,25,19,Man,Right,
29,9,1,0.7666771999997763,['c'],0,right,['1'],1,1.2855397000002995,0.1,0,FastAcc,25,19,Man,Right,
30,9,1,0.9502800999998726,['n'],1,right,['3'],3,1.7837006999998266,0.2,0,FastAcc,25,19,Man,Right,
31,9,1,0.4499448999999913,['c'],1,left,['8'],4,3.233752700000423,0.1,0,FastAcc,25,19,Man,Right,
32,9,1,0.5330441000000974,['n'],1,right,['3'],3,2.034004599999662,0.4,0,FastAcc,25,19,Man,Right,
33,9,1,0.6835095000001274,['n'],1,right,['9'],5,0.8836959999998726,0.4,0,FastAcc,25,19,Man,Right,
34,9,1,0.6675329999998212,['c'],0,right,['8'],4,1.3514789000000746,0.2,0,FastAcc,25,19,Man,Right,
35,9,1,0.5332973999998103,['n'],1,right,['2'],2,1.1184729999999945,0.2,0,FastAcc,25,19,Man,Right,
36,9,1,0.6343548999998347,['c'],1,left,['9'],5,1.351295499999651,0.2,0,FastAcc,25,19,Man,Right,
37,9,1,0.667464099999961,['c'],1,left,['1'],1,2.033345400000144,0.1,0,FastAcc,25,19,Man,Right,
38,9,1,1.0162650000002031,['c'],0,right,['1'],1,0.9688135999999758,0.2,0,FastAcc,25,19,Man,Right,
39,9,1,0.5846234999999069,['c'],1,left,['9'],5,1.4023953000000802,0.4,0,FastAcc,25,19,Man,Right,
40,9,1,0.8331169999996746,['c'],1,left,['2'],2,1.0674841000000015,0.1,0,FastAcc,25,19,Man,Right,
41,9,1,0.6164085999998861,['c'],1,left,['3'],3,3.1353331000000253,0.1,0,FastAcc,25,19,Man,Right,
42,9,1,0.8331705999999031,['c'],0,right,['1'],1,0.7186767999996846,0.1,0,FastAcc,25,19,Man,Right,
43,9,1,0.76693430000023,['c'],1,left,['1'],1,1.868276799999876,0.1,0,FastAcc,25,19,Man,Right,
44,9,1,1.1005285999999614,['n'],1,right,['3'],3,1.3347622000001138,0.2,0,FastAcc,25,19,Man,Right,
45,9,1,0.5661510999998427,['c'],1,left,['0'],6,0.8343604000001505,0.4,0,FastAcc,25,19,Man,Right,
46,9,1,0.8333921000003102,['c'],1,left,['2'],2,2.234611500000028,0.1,0,FastAcc,25,19,Man,Right,
47,9,1,0.9678519999997661,['c'],0,right,['1'],1,0.450173299999733,0.2,0,FastAcc,25,19,Man,Right,
48,9,1,0.6172490000003563,['c'],1,left,['3'],3,1.9016986999999972,0.1,0,FastAcc,25,19,Man,Right,
49,9,1,0.5669881999997415,['n'],1,right,['0'],6,1.002403399999821,0.4,0,FastAcc,25,19,Man,Right,
50,9,1,0.5176930000002358,['c'],1,left,['8'],4,1.4363054000000375,0.1,0,FastAcc,25,19,Man,Right,
51,9,1,0.48360669999965467,['c'],1,left,['9'],5,0.9181008999998994,0.4,0,FastAcc,25,19,Man,Right,
52,9,1,0.5672762999997758,['n'],1,right,['8'],4,1.4179926000001615,0.2,0,FastAcc,25,19,Man,Right,
53,9,1,0.4176775999999336,['c'],1,left,['9'],5,0.9178943000001709,0.4,0,FastAcc,25,19,Man,Right,
54,9,1,1.3004384000000755,['n'],1,right,['3'],3,1.0344739000001937,0.1,0,FastAcc,25,19,Man,Right,
55,9,1,1.2010083999998642,['c'],0,right,['1'],1,0.6176650999996127,0.1,0,FastAcc,25,19,Man,Right,
56,9,1,0.7668154999996659,['n'],1,right,['9'],5,0.81758949999994,0.4,0,FastAcc,25,19,Man,Right,
57,9,1,0.48352980000026946,['c'],1,left,['0'],6,0.7850516999997126,0.2,0,FastAcc,25,19,Man,Right,
58,9,1,0.4832078999997975,['n'],1,right,['0'],6,1.0161015000003317,0.4,0,FastAcc,25,19,Man,Right,
59,9,1,0.5001513000001978,['c'],1,left,['8'],4,0.8690099999998893,0.1,0,FastAcc,25,19,Man,Right,
0,10,1,0.8505055999999058,['c'],1,left,['0'],6,1.4844968000002154,0.4,0,FastFast,25,19,Man,Right,
1,10,1,0.6673789000001307,['n'],1,right,['0'],6,0.25026809999963007,0.4,0,FastFast,25,19,Man,Right,
2,10,1,0.46758909999971365,['c'],1,left,['0'],6,0.4002910000003794,0.1,0,FastFast,25,19,Man,Right,
3,10,1,0.4511794000000009,['n'],1,right,['9'],5,0.3178091999998287,0.2,0,FastFast,25,19,Man,Right,
4,10,1,0.4496893000000455,['c'],1,left,['8'],4,0.7169080999997277,0.4,0,FastFast,25,19,Man,Right,
5,10,1,0.43341300000020055,['n'],1,right,['0'],6,0.3026762999998027,0.4,0,FastFast,25,19,Man,Right,
6,10,1,0.5670248000001266,['n'],1,right,['9'],5,0.4180129000001216,0.2,0,FastFast,25,19,Man,Right,
7,10,1,0.8823840999998538,['c'],0,right,['1'],1,0.20238319999998566,0.1,0,FastFast,25,19,Man,Right,
8,10,1,0.6335768999997526,['c'],0,right,['2'],2,0.6678372000001218,0.1,0,FastFast,25,19,Man,Right,
9,10,1,0.5503871999999319,['n'],1,right,['9'],5,0.38586149999991903,0.2,0,FastFast,25,19,Man,Right,
10,10,1,0.48340120000011666,['c'],1,left,['3'],3,0.5674085999999079,0.2,0,FastFast,25,19,Man,Right,
11,10,1,0.5003565999995772,['c'],1,left,['0'],6,0.4846335000002,0.4,0,FastFast,25,19,Man,Right,
12,10,1,0.5674444000001131,['c'],1,left,['9'],5,0.5833316999996896,0.2,0,FastFast,25,19,Man,Right,
13,10,1,0.50107509999998,['c'],1,left,['9'],5,0.4513441999997667,0.4,0,FastFast,25,19,Man,Right,
14,10,1,0.8169083000002502,['n'],1,right,['1'],1,0.3850155000000086,0.1,0,FastFast,25,19,Man,Right,
15,10,1,0.6000869999998031,['c'],1,left,['8'],4,0.7996721999998044,0.1,0,FastFast,25,19,Man,Right,
16,10,1,0.7017828999996709,['c'],1,left,['8'],4,0.3512971000000107,0.4,0,FastFast,25,19,Man,Right,
17,10,1,0.8004657999999836,['c'],1,left,['3'],3,0.48468929999989996,0.2,0,FastFast,25,19,Man,Right,
18,10,1,0.5670215000000098,['n'],1,right,['0'],6,0.41799489999993966,0.4,0,FastFast,25,19,Man,Right,
19,10,1,0.6171018000000004,['c'],1,left,['8'],4,0.4346571999999469,0.2,0,FastFast,25,19,Man,Right,
20,10,1,0.6003018000001248,['c'],0,right,['3'],3,0.9175178000000415,0.1,0,FastFast,25,19,Man,Right,
21,10,1,0.8670458000001418,['c'],0,right,['2'],2,0.5346383999999489,0.1,0,FastFast,25,19,Man,Right,
22,10,1,0.81711150000001,['c'],1,left,['8'],4,1.2678338000000622,0.1,0,FastFast,25,19,Man,Right,
23,10,1,0.933093000000099,['n'],1,right,['0'],6,0.3855444999999236,0.4,0,FastFast,25,19,Man,Right,
24,10,1,1.0001806000000215,['c'],0,right,['2'],2,0.40137689999983195,0.2,0,FastFast,25,19,Man,Right,
25,10,1,0.9166214000001673,['n'],1,right,['8'],4,0.9347830000001522,0.4,0,FastFast,25,19,Man,Right,
26,10,1,1.0999220999997306,['c'],1,left,['8'],4,0.7513016000002608,0.2,0,FastFast,25,19,Man,Right,
27,10,1,0.6658021000002918,['c'],1,left,['3'],3,0.9517611000001125,0.2,0,FastFast,25,19,Man,Right,
28,10,1,0.7339393000002019,['n'],1,right,['9'],5,0.4679979000002277,0.4,0,FastFast,25,19,Man,Right,
29,10,1,0.550409099999797,['c'],1,left,['0'],6,1.067427200000111,0.2,0,FastFast,25,19,Man,Right,
30,10,1,0.5510020000001532,['c'],1,left,['0'],6,0.46817719999990004,0.1,0,FastFast,25,19,Man,Right,
31,10,1,1.415766099999928,['c'],1,left,['8'],4,0.9686923999997816,0.1,0,FastFast,25,19,Man,Right,
32,10,1,0.8834726999998566,['c'],1,left,['3'],3,0.7003334000000905,0.1,0,FastFast,25,19,Man,Right,
33,10,1,0.651012400000127,['n'],1,right,['3'],3,1.0011121000002277,0.2,0,FastFast,25,19,Man,Right,
34,10,1,0.5157553999997617,['c'],1,left,['9'],5,0.6011967999997978,0.4,0,FastFast,25,19,Man,Right,
35,10,1,1.1676634000000377,['c'],1,left,['2'],2,1.001375100000132,0.1,0,FastFast,25,19,Man,Right,
36,10,1,0.5163849000000482,['n'],1,right,['0'],6,0.40135709999958635,0.4,0,FastFast,25,19,Man,Right,
37,10,1,1.3992797999999311,['c'],1,left,['3'],3,1.251796000000013,0.1,0,FastFast,25,19,Man,Right,
38,10,1,0.7836449000001267,['c'],0,right,['3'],3,0.7347788000001856,0.1,0,FastFast,25,19,Man,Right,
39,10,1,0.7179056999998465,['n'],1,right,['9'],5,0.5681805999997778,0.1,0,FastFast,25,19,Man,Right,
40,10,1,0.5827530000001389,['n'],1,right,['0'],6,0.3355616999997437,0.4,0,FastFast,25,19,Man,Right,
41,10,1,1.167308999999932,['n'],1,right,['9'],5,0.46803060000002006,0.2,0,FastFast,25,19,Man,Right,
42,10,1,0.5177388000001883,['c'],1,left,['9'],5,0.4681178999999247,0.1,0,FastFast,25,19,Man,Right,
43,10,1,0.8340624000002208,['c'],0,right,['3'],3,0.5840327999999317,0.1,0,FastFast,25,19,Man,Right,
44,10,1,0.5179281999999148,['c'],1,left,['9'],5,0.4361204000001635,0.4,0,FastFast,25,19,Man,Right,
45,10,1,0.8341699999996308,['c'],0,right,['9'],5,0.5348976000000221,0.1,0,FastFast,25,19,Man,Right,
46,10,1,0.6163782999997238,['c'],0,right,['0'],6,0.2184029999998529,0.4,0,FastFast,25,19,Man,Right,
47,10,1,0.7831015000001571,['c'],1,left,['0'],6,0.2501219999994646,0.4,0,FastFast,25,19,Man,Right,
48,10,1,0.8174293000001853,['n'],1,right,['0'],6,0.2180513000002975,0.4,0,FastFast,25,19,Man,Right,
49,10,1,0.8843966999993427,['c'],0,right,['0'],6,0.30175430000053893,0.2,0,FastFast,25,19,Man,Right,
50,10,1,0.7021700999994209,['c'],1,left,['9'],5,0.4182193999995434,0.2,0,FastFast,25,19,Man,Right,
51,10,1,0.5498797000000195,['n'],1,right,['0'],6,0.2682217000001401,0.4,0,FastFast,25,19,Man,Right,
52,10,1,0.5499864000003072,['c'],1,left,['8'],4,0.617360500000359,0.2,0,FastFast,25,19,Man,Right,
53,10,1,0.6502904999997554,['c'],0,right,['3'],3,0.6177837000004729,0.2,0,FastFast,25,19,Man,Right,
54,10,1,0.7010505999996894,['n'],1,right,['0'],6,0.28494559999944613,0.4,0,FastFast,25,19,Man,Right,
55,10,1,0.5178679999999076,['c'],1,left,['8'],4,0.3848715000003722,0.1,0,FastFast,25,19,Man,Right,
56,10,1,0.6166997000000265,['c'],1,left,['8'],4,0.31910530000004655,0.2,0,FastFast,25,19,Man,Right,
57,10,1,0.5829032999999981,['c'],0,right,['8'],4,0.33647669999936625,0.2,0,FastFast,25,19,Man,Right,
58,10,1,0.5497135999994498,['c'],1,left,['3'],3,0.35129740000047605,0.1,0,FastFast,25,19,Man,Right,
59,10,1,0.5341941000006045,['c'],1,left,['3'],3,0.36814630000026227,0.2,0,FastFast,25,19,Man,Right,
0,11,1,2.700280600000042,['c'],1,left,['3'],3,0.18451639999966574,0.2,0,AccFast,25,19,Man,Right,
1,11,1,1.4335455000000366,['c'],1,left,['2'],2,0.06803769999987708,0.1,0,AccFast,25,19,Man,Right,
2,11,1,2.483926399999291,['c'],1,left,['3'],3,0.1004241999999067,0.1,0,AccFast,25,19,Man,Right,
3,11,1,1.1325501000001168,['c'],0,right,['3'],3,0.10222499999963475,0.1,0,AccFast,25,19,Man,Right,
4,11,1,1.4496436000008543,['c'],0,right,['2'],2,0.11904020000019955,0.1,0,AccFast,25,19,Man,Right,
5,11,1,1.0833935000000565,['c'],1,left,['2'],2,0.11766100000022561,0.2,0,AccFast,25,19,Man,Right,
6,11,1,3.0335550999998304,['n'],1,right,['8'],4,0.08473299999968731,0.4,0,AccFast,25,19,Man,Right,
7,11,1,2.417116700000406,['n'],1,right,['8'],4,0.1017083000006096,0.2,0,AccFast,25,19,Man,Right,
8,11,1,1.8168735999997807,['c'],1,left,['8'],4,0.08475220000036643,0.4,0,AccFast,25,19,Man,Right,
9,11,1,0.735040300000037,['n'],1,right,['8'],4,0.20146629999999277,0.2,0,AccFast,25,19,Man,Right,
10,11,1,0.6996306000000914,['c'],1,left,['8'],4,0.3175473000001148,0.1,0,AccFast,25,19,Man,Right,
11,11,1,1.3002175999999963,['n'],1,right,['9'],5,0.10123680000015156,0.4,0,AccFast,25,19,Man,Right,
12,11,1,1.0501106000001528,['c'],1,left,['9'],5,0.10033260000000155,0.4,0,AccFast,25,19,Man,Right,
13,11,1,1.3010580000000118,['c'],1,left,['8'],4,0.06803169999966485,0.2,0,AccFast,25,19,Man,Right,
14,11,1,1.1655376999997316,['n'],1,right,['8'],4,0.08514800000011746,0.1,0,AccFast,25,19,Man,Right,
15,11,1,2.0660798999997496,['c'],0,right,['2'],2,0.03569340000012744,0.1,0,AccFast,25,19,Man,Right,
16,11,1,1.6827231000006577,['c'],1,left,['8'],4,0.03469730000051641,0.4,0,AccFast,25,19,Man,Right,
17,11,1,1.1008552000002965,['n'],1,right,['9'],5,0.11712509999961185,0.4,0,AccFast,25,19,Man,Right,
18,11,1,1.6827667999996265,['c'],0,right,['2'],2,0.034499500000492844,0.2,0,AccFast,25,19,Man,Right,
19,11,1,1.2672138999996605,['c'],1,left,['8'],4,0.10149700000056328,0.4,0,AccFast,25,19,Man,Right,
20,11,1,1.0004000999997515,['c'],1,left,['8'],4,0.11825979999957781,0.4,0,AccFast,25,19,Man,Right,
21,11,1,1.0486480999998093,['n'],1,right,['9'],5,0.11908280000079685,0.4,0,AccFast,25,19,Man,Right,
22,11,1,2.433289600000535,['c'],1,left,['2'],2,0.21870159999980388,0.1,0,AccFast,25,19,Man,Right,
23,11,1,0.9504901999998765,['n'],1,right,['9'],5,0.1164069999995263,0.1,0,AccFast,25,19,Man,Right,
24,11,1,0.8180724000003465,['c'],1,left,['9'],5,0.15147739999974874,0.1,0,AccFast,25,19,Man,Right,
25,11,1,1.3833345000002737,['c'],1,left,['2'],2,0.06821709999985615,0.2,0,AccFast,25,19,Man,Right,
26,11,1,1.416204000000107,['c'],1,left,['3'],3,0.15141219999986788,0.1,0,AccFast,25,19,Man,Right,
27,11,1,1.1163047000000006,['c'],1,left,['9'],5,0.16830950000075973,0.2,0,AccFast,25,19,Man,Right,
28,11,1,0.6011096000001999,['n'],1,right,['9'],5,0.21789309999985562,0.4,0,AccFast,25,19,Man,Right,
29,11,1,0.8001039000000674,['n'],1,right,['0'],6,0.13500050000038755,0.2,0,AccFast,25,19,Man,Right,
30,11,1,1.6833943999999974,['c'],0,right,['2'],2,0.21814249999988533,0.4,0,AccFast,25,19,Man,Right,
31,11,1,1.1000445999998192,['c'],1,left,['8'],4,0.10030180000012479,0.4,0,AccFast,25,19,Man,Right,
32,11,1,2.482651999999689,['c'],1,left,['3'],3,0.36674930000026507,0.2,0,AccFast,25,19,Man,Right,
33,11,1,1.569050099999913,['n'],1,right,['0'],6,0.11800479999965319,0.4,0,AccFast,25,19,Man,Right,
34,11,1,2.9338502000000517,['c'],1,left,['3'],3,0.8681087000004482,0.1,0,AccFast,25,19,Man,Right,
35,11,1,1.4668745999997554,['c'],1,left,['8'],4,0.08336950000011711,0.2,0,AccFast,25,19,Man,Right,
36,11,1,1.3011115999997855,['c'],0,right,['9'],5,0.10155940000004193,0.2,0,AccFast,25,19,Man,Right,
37,11,1,1.366312599999219,['c'],1,left,['9'],5,0.10158709999996063,0.4,0,AccFast,25,19,Man,Right,
38,11,1,2.3668290999994497,['c'],1,left,['2'],2,0.18498559999989084,0.1,0,AccFast,25,19,Man,Right,
39,11,1,1.5828383000007307,['c'],1,left,['8'],4,0.03467879999971046,0.4,0,AccFast,25,19,Man,Right,
40,11,1,2.417138900000282,['n'],1,right,['3'],3,0.13443180000012944,0.1,0,AccFast,25,19,Man,Right,
41,11,1,1.2178557999995974,['n'],1,right,['3'],3,0.13478850000046805,0.2,0,AccFast,25,19,Man,Right,
42,11,1,1.367409399999815,['c'],1,left,['8'],4,0.13522110000030807,0.2,0,AccFast,25,19,Man,Right,
43,11,1,2.0165502999998353,['c'],0,right,['2'],2,0.18501830000059272,0.1,0,AccFast,25,19,Man,Right,
44,11,1,1.1502989000000525,['n'],1,right,['9'],5,0.13444220000019413,0.4,0,AccFast,25,19,Man,Right,
45,11,1,1.1326182000002518,['c'],1,left,['9'],5,0.13540680000005523,0.4,0,AccFast,25,19,Man,Right,
46,11,1,3.183757499999956,['c'],1,left,['2'],2,0.4681548999997176,0.1,0,AccFast,25,19,Man,Right,
47,11,1,1.9670007999993686,['c'],0,right,['8'],4,0.0512682999997196,0.4,0,AccFast,25,19,Man,Right,
48,11,1,1.083640099999684,['c'],1,left,['8'],4,0.06838359999983368,0.2,0,AccFast,25,19,Man,Right,
49,11,1,1.8502975999999762,['n'],1,right,['9'],5,0.13448990000051708,0.4,0,AccFast,25,19,Man,Right,
50,11,1,2.4172060000000783,['c'],0,right,['3'],3,0.15175339999950666,0.2,0,AccFast,25,19,Man,Right,
51,11,1,1.516031699999985,['c'],1,left,['8'],4,0.13648709999961284,0.1,0,AccFast,25,19,Man,Right,
52,11,1,1.2838964000002306,['c'],1,left,['8'],4,0.13480320000053325,0.1,0,AccFast,25,19,Man,Right,
53,11,1,1.5496407999999064,['c'],1,left,['8'],4,0.13464179999937187,0.2,0,AccFast,25,19,Man,Right,
54,11,1,1.1671218000001318,['n'],1,right,['8'],4,0.11796910000066418,0.4,0,AccFast,25,19,Man,Right,
55,11,1,1.1999132999999347,['c'],0,right,['2'],2,0.11836229999971692,0.2,0,AccFast,25,19,Man,Right,
56,11,1,1.6838669999997364,['n'],1,right,['8'],4,0.101639299999988,0.2,0,AccFast,25,19,Man,Right,
57,11,1,1.6669380000003002,['c'],0,right,['2'],2,0.0683046000003742,0.1,0,AccFast,25,19,Man,Right,
58,11,1,1.4679022999998779,['n'],1,right,['8'],4,0.1353768000008131,0.2,0,AccFast,25,19,Man,Right,
59,11,1,2.2340770000000703,['c'],0,right,['3'],3,0.13385920000018814,0.1,0,AccFast,25,19,Man,Right,
0,12,1,2.0675946999999724,['c'],1,left,['8'],4,1.8344913000000815,0.2,0,AccAcc,25,19,Man,Right,
1,12,1,1.5990094999997382,['n'],1,right,['8'],4,1.2018960000004881,0.2,0,AccAcc,25,19,Man,Right,
2,12,1,1.000839199999973,['c'],1,left,['9'],5,1.2016100000000733,0.4,0,AccAcc,25,19,Man,Right,
3,12,1,0.8505707000003895,['n'],1,right,['0'],6,0.617960800000219,0.4,0,AccAcc,25,19,Man,Right,
4,12,1,0.9505122999999003,['c'],1,left,['8'],4,0.6684488999999303,0.4,0,AccAcc,25,19,Man,Right,
5,12,1,1.8995500000000902,['c'],1,left,['8'],4,1.4179100999999719,0.2,0,AccAcc,25,19,Man,Right,
6,12,1,1.217128600000251,['n'],1,right,['3'],3,1.7506268999995882,0.2,0,AccAcc,25,19,Man,Right,
7,12,1,2.750090100000307,['n'],1,right,['2'],2,0.7511864000007336,0.1,0,AccAcc,25,19,Man,Right,
8,12,1,1.6669357999999193,['c'],1,left,['3'],3,0.6015588000000207,0.1,0,AccAcc,25,19,Man,Right,
9,12,1,1.4838002999995297,['n'],1,right,['8'],4,1.1011185999996087,0.1,0,AccAcc,25,19,Man,Right,
10,12,1,3.4999219000001176,['n'],1,right,['3'],3,1.500985500000752,0.2,0,AccAcc,25,19,Man,Right,
11,12,1,0.8834909999995944,['n'],1,right,['9'],5,0.934678100000383,0.4,0,AccAcc,25,19,Man,Right,
12,12,1,3.3673539999999775,['c'],0,right,['3'],3,1.3841424000002007,0.1,0,AccAcc,25,19,Man,Right,
13,12,1,3.433596800000487,['n'],1,right,['3'],3,0.9676180000005843,0.1,0,AccAcc,25,19,Man,Right,
14,12,1,0.9336791999994603,['c'],1,left,['9'],5,0.6673427000005177,0.4,0,AccAcc,25,19,Man,Right,
15,12,1,1.7835804999995162,['c'],1,left,['2'],2,0.7679580000003625,0.1,0,AccAcc,25,19,Man,Right,
16,12,1,1.3839022000001933,['c'],1,left,['3'],3,1.582982500000071,0.1,0,AccAcc,25,19,Man,Right,
17,12,1,0.85092639999948,['n'],1,right,['8'],4,0.6346536000000924,0.2,0,AccAcc,25,19,Man,Right,
18,12,1,0.6673380000001998,['c'],1,left,['8'],4,0.950679399999899,0.4,0,AccAcc,25,19,Man,Right,
19,12,1,0.7837874000006195,['n'],1,right,['0'],6,0.9682489999995596,0.4,0,AccAcc,25,19,Man,Right,
20,12,1,2.3167852999995375,['n'],1,right,['3'],3,0.8168293999997331,0.1,0,AccAcc,25,19,Man,Right,
21,12,1,1.4174876999995831,['c'],0,right,['3'],3,2.43464750000021,0.2,0,AccAcc,25,19,Man,Right,
22,12,1,1.6174081999997725,['c'],0,right,['3'],3,1.0179241000005277,0.2,0,AccAcc,25,19,Man,Right,
23,12,1,1.050657300000239,['c'],1,left,['0'],6,1.0676173000001654,0.4,0,AccAcc,25,19,Man,Right,
24,12,1,1.7663513999996212,['c'],0,right,['8'],4,1.0182770999999775,0.1,0,AccAcc,25,19,Man,Right,
25,12,1,4.38398320000033,['c'],0,right,['2'],2,1.5846022999994602,0.1,0,AccAcc,25,19,Man,Right,
26,12,1,1.6340596000000005,['c'],1,left,['3'],3,0.8348359999999957,0.1,0,AccAcc,25,19,Man,Right,
27,12,1,0.7336273999999321,['c'],1,left,['9'],5,0.9506664999998975,0.4,0,AccAcc,25,19,Man,Right,
28,12,1,0.9341254999999364,['c'],1,left,['8'],4,0.7510488000007172,0.2,0,AccAcc,25,19,Man,Right,
29,12,1,4.683201099999678,['n'],1,right,['3'],3,0.9679649999998219,0.2,0,AccAcc,25,19,Man,Right,
30,12,1,1.6170627000001332,['c'],1,left,['3'],3,0.5177788999999393,0.1,0,AccAcc,25,19,Man,Right,
31,12,1,0.7502889999996114,['c'],1,left,['9'],5,0.8174448999998276,0.4,0,AccAcc,25,19,Man,Right,
32,12,1,1.517388100000062,['c'],1,left,['3'],3,0.5833951999993587,0.2,0,AccAcc,25,19,Man,Right,
33,12,1,1.6335604999994757,['n'],1,right,['8'],4,1.1513464999998178,0.2,0,AccAcc,25,19,Man,Right,
34,12,1,0.7326118000000861,['n'],1,right,['0'],6,0.6684063000002425,0.4,0,AccAcc,25,19,Man,Right,
35,12,1,1.2834627000002001,['c'],0,right,['3'],3,0.7011173000000781,0.2,0,AccAcc,25,19,Man,Right,
36,12,1,0.8335642000001826,['c'],0,right,['3'],3,2.851289299999735,0.2,0,AccAcc,25,19,Man,Right,
37,12,1,1.0505561999998463,['c'],0,right,['3'],3,1.1012471000003643,0.1,0,AccAcc,25,19,Man,Right,
38,12,1,1.4844109999994544,['c'],1,left,['3'],3,0.7834628000000521,0.1,0,AccAcc,25,19,Man,Right,
39,12,1,0.8492138000001432,['c'],1,left,['9'],5,0.9175721000001431,0.4,0,AccAcc,25,19,Man,Right,
40,12,1,2.733908899999733,['c'],1,left,['2'],2,0.3513319000003321,0.1,0,AccAcc,25,19,Man,Right,
41,12,1,0.9159340000005614,['n'],1,right,['8'],4,0.8519357000004675,0.1,0,AccAcc,25,19,Man,Right,
42,12,1,0.7168639999999868,['n'],1,right,['9'],5,0.5846592000007149,0.4,0,AccAcc,25,19,Man,Right,
43,12,1,0.7167705000001661,['n'],1,right,['9'],5,0.7173144999997021,0.4,0,AccAcc,25,19,Man,Right,
44,12,1,0.6346671999999671,['c'],1,left,['8'],4,0.7849342999998044,0.2,0,AccAcc,25,19,Man,Right,
45,12,1,0.6840397000005396,['c'],1,left,['3'],3,0.8179348000003301,0.4,0,AccAcc,25,19,Man,Right,
46,12,1,0.6828438000002279,['c'],1,left,['9'],5,0.4494096999997055,0.4,0,AccAcc,25,19,Man,Right,
47,12,1,0.6524484000001394,['c'],1,left,['9'],5,0.8014335999996547,0.4,0,AccAcc,25,19,Man,Right,
48,12,1,0.6818473000002996,['c'],1,left,['9'],5,0.9675080999995771,0.4,0,AccAcc,25,19,Man,Right,
49,12,1,1.2343967999995584,['c'],0,right,['2'],2,0.9342385999998442,0.2,0,AccAcc,25,19,Man,Right,
50,12,1,0.9002704999993512,['c'],1,left,['8'],4,0.6846508999997241,0.4,0,AccAcc,25,19,Man,Right,
51,12,1,0.8337355000003299,['n'],1,right,['9'],5,0.8509530999999697,0.2,0,AccAcc,25,19,Man,Right,
52,12,1,1.3177051000002393,['c'],0,right,['3'],3,0.6848559000000023,0.1,0,AccAcc,25,19,Man,Right,
53,12,1,1.518084799999997,['n'],1,right,['3'],3,1.434729900000093,0.2,0,AccAcc,25,19,Man,Right,
54,12,1,0.6506713999997373,['c'],1,left,['9'],5,0.7847828999992998,0.2,0,AccAcc,25,19,Man,Right,
55,12,1,2.0668922000004386,['c'],1,left,['2'],2,2.3014529000001858,0.2,0,AccAcc,25,19,Man,Right,
56,12,1,0.967933300000368,['n'],1,right,['3'],3,0.9178271999999197,0.1,0,AccAcc,25,19,Man,Right,
57,12,1,0.6664829000001191,['c'],1,left,['9'],5,0.9346712999995361,0.4,0,AccAcc,25,19,Man,Right,
58,12,1,1.400115000000369,['c'],1,left,['3'],3,1.0680854000002,0.1,0,AccAcc,25,19,Man,Right,
59,12,1,0.6664264999999432,['c'],1,left,['8'],4,1.1014242999999624,0.1,0,AccAcc,25,19,Man,Right,
0,13,1,0.5184962000002997,['c'],1,left,['8'],4,1.6834804000000076,0.1,0,FastAcc,25,19,Man,Right,
1,13,1,0.783508399999846,['n'],0,left,['3'],3,1.6339591000005385,0.1,0,FastAcc,25,19,Man,Right,
2,13,1,0.5007150999999794,['n'],1,right,['0'],6,1.0520034999999552,0.4,0,FastAcc,25,19,Man,Right,
3,13,1,0.5006775000001653,['c'],1,left,['9'],5,1.0181022999995548,0.2,0,FastAcc,25,19,Man,Right,
4,13,1,0.8174668000001475,['c'],1,left,['8'],4,1.16779409999981,0.1,0,FastAcc,25,19,Man,Right,
5,13,1,0.6835772000003999,['c'],1,left,['3'],3,1.4514212999993106,0.2,0,FastAcc,25,19,Man,Right,
6,13,1,0.566316899999947,['n'],1,right,['8'],4,1.1856022000001758,0.1,0,FastAcc,25,19,Man,Right,
7,13,1,0.40112429999953747,['c'],1,left,['3'],3,1.933424500000001,0.1,0,FastAcc,25,19,Man,Right,
8,13,1,0.5176529000000301,['n'],1,right,['9'],5,0.7671900000004825,0.2,0,FastAcc,25,19,Man,Right,
9,13,1,0.45033949999924516,['c'],1,left,['8'],4,1.0179987000001347,0.2,0,FastAcc,25,19,Man,Right,
10,13,1,0.5001227000002473,['n'],1,right,['8'],4,1.2678107000001546,0.1,0,FastAcc,25,19,Man,Right,
11,13,1,0.36738750000040454,['c'],1,left,['9'],5,0.9668300999992425,0.4,0,FastAcc,25,19,Man,Right,
12,13,1,0.7174903000004633,['c'],0,right,['8'],4,2.668037400000685,0.1,0,FastAcc,25,19,Man,Right,
13,13,1,0.5667462000001251,['n'],1,right,['9'],5,0.8186048999996274,0.2,0,FastAcc,25,19,Man,Right,
14,13,1,0.5166701999996803,['c'],1,left,['8'],4,0.9345751999999266,0.1,0,FastAcc,25,19,Man,Right,
15,13,1,0.567134700000679,['n'],0,left,['2'],2,0.933441799999855,0.1,0,FastAcc,25,19,Man,Right,
16,13,1,0.4009699999996883,['c'],0,right,['1'],1,1.2683903000006467,0.2,0,FastAcc,25,19,Man,Right,
17,13,1,0.699597900000299,['c'],1,left,['8'],4,1.1674245999993218,0.1,0,FastAcc,25,19,Man,Right,
18,13,1,0.48443330000009155,['c'],1,left,['9'],5,0.7671982000001663,0.4,0,FastAcc,25,19,Man,Right,
19,13,1,0.5174046000001908,['c'],1,left,['8'],4,1.7179317999998602,0.2,0,FastAcc,25,19,Man,Right,
20,13,1,0.8341829000000871,['n'],1,right,['3'],3,1.2854495999999926,0.1,0,FastAcc,25,19,Man,Right,
21,13,1,0.5005145999994056,['c'],1,left,['9'],5,0.7840353000001414,0.4,0,FastAcc,25,19,Man,Right,
22,13,1,0.7005131000005349,['n'],1,right,['1'],1,1.1846652000003814,0.1,0,FastAcc,25,19,Man,Right,
23,13,1,1.350828300000103,['n'],1,right,['8'],4,1.5679528000000573,0.1,0,FastAcc,25,19,Man,Right,
24,13,1,0.5342589000001681,['c'],1,left,['9'],5,0.8834648000001835,0.4,0,FastAcc,25,19,Man,Right,
25,13,1,1.2008702000002813,['n'],1,right,['3'],3,1.8514244000007238,0.1,0,FastAcc,25,19,Man,Right,
26,13,1,0.5503731999997399,['n'],1,right,['9'],5,0.7344763999999486,0.4,0,FastAcc,25,19,Man,Right,
27,13,1,0.6004454000003534,['c'],1,left,['0'],6,0.6347396000001027,0.4,0,FastAcc,25,19,Man,Right,
28,13,1,0.5171207000003051,['c'],1,left,['8'],4,1.0011875000000146,0.4,0,FastAcc,25,19,Man,Right,
29,13,1,0.5004257000000507,['c'],1,left,['3'],3,1.4513290999993842,0.2,0,FastAcc,25,19,Man,Right,
30,13,1,0.5670978999996805,['c'],1,left,['3'],3,1.6182730999998967,0.2,0,FastAcc,25,19,Man,Right,
31,13,1,0.7168174999997063,['n'],1,right,['2'],2,1.6326947999996264,0.2,0,FastAcc,25,19,Man,Right,
32,13,1,0.46820280000065395,['c'],1,left,['9'],5,2.7676623000006657,0.4,0,FastAcc,25,19,Man,Right,
33,13,1,0.5505377999998018,['n'],1,right,['0'],6,1.0844522999996116,0.4,0,FastAcc,25,19,Man,Right,
34,13,1,0.49984799999947427,['c'],1,left,['9'],5,1.101530900000398,0.2,0,FastAcc,25,19,Man,Right,
35,13,1,0.41644579999956477,['n'],1,right,['0'],6,0.5667755000004036,0.4,0,FastAcc,25,19,Man,Right,
36,13,1,0.6177515999997922,['c'],0,right,['8'],4,1.9332476999998107,0.1,0,FastAcc,25,19,Man,Right,
37,13,1,0.5336941999994451,['n'],1,right,['3'],3,1.0023661999994147,0.2,0,FastAcc,25,19,Man,Right,
38,13,1,0.48468419999971957,['c'],1,left,['8'],4,0.8511780999997427,0.2,0,FastAcc,25,19,Man,Right,
39,13,1,0.46716470000046684,['n'],1,right,['9'],5,0.8668761999997514,0.4,0,FastAcc,25,19,Man,Right,
40,13,1,0.4997700999992958,['c'],1,left,['8'],4,1.3536215999993146,0.1,0,FastAcc,25,19,Man,Right,
41,13,1,0.6165952999999718,['c'],1,left,['3'],3,3.1684144000000742,0.1,0,FastAcc,25,19,Man,Right,
42,13,1,0.48411880000003293,['c'],1,left,['3'],3,1.5011749000004784,0.2,0,FastAcc,25,19,Man,Right,
43,13,1,0.4840571999993699,['c'],1,left,['8'],4,1.4335666999995738,0.1,0,FastAcc,25,19,Man,Right,
44,13,1,0.651267000000189,['n'],1,right,['9'],5,1.6344438999994964,0.4,0,FastAcc,25,19,Man,Right,
45,13,1,0.7170672000002014,['c'],0,right,['2'],2,1.5340558999996574,0.4,0,FastAcc,25,19,Man,Right,
46,13,1,0.8999668999995265,['c'],0,right,['2'],2,1.3511873000006744,0.1,0,FastAcc,25,19,Man,Right,
47,13,1,0.6175554999999804,['c'],0,right,['8'],4,2.1849670000001424,0.2,0,FastAcc,25,19,Man,Right,
48,13,1,0.4821454000002632,['c'],1,left,['9'],5,1.0360431000008248,0.2,0,FastAcc,25,19,Man,Right,
49,13,1,0.6509992000001148,['c'],0,right,['8'],4,2.984969699999965,0.1,0,FastAcc,25,19,Man,Right,
50,13,1,0.7677823999993052,['c'],0,right,['3'],3,1.217997099999593,0.2,0,FastAcc,25,19,Man,Right,
51,13,1,0.5168805999992401,['c'],1,left,['8'],4,1.0843943999998373,0.2,0,FastAcc,25,19,Man,Right,
52,13,1,0.4831683000002158,['c'],1,left,['8'],4,2.384447899999941,0.4,0,FastAcc,25,19,Man,Right,
53,13,1,0.6006907000000865,['n'],1,right,['9'],5,1.2185644000001048,0.4,0,FastAcc,25,19,Man,Right,
54,13,1,0.9013489999997546,['n'],1,right,['3'],3,1.1498374000002514,0.2,0,FastAcc,25,19,Man,Right,
55,13,1,0.85091360000024,['c'],0,right,['2'],2,1.034555199999886,0.4,0,FastAcc,25,19,Man,Right,
56,13,1,1.18319209999936,['c'],0,right,['3'],3,1.9180519999999888,0.2,0,FastAcc,25,19,Man,Right,
57,13,1,0.46731610000006185,['c'],1,left,['9'],5,1.6505481000003783,0.4,0,FastAcc,25,19,Man,Right,
58,13,1,0.583659500000067,['n'],1,right,['9'],5,1.1519435000000158,0.4,0,FastAcc,25,19,Man,Right,
59,13,1,0.5336382999994385,['n'],1,right,['9'],5,1.1341014999998151,0.4,0,FastAcc,25,19,Man,Right,
0,14,1,1.7178083999997398,['c'],1,left,['3'],3,0.8176804000004267,0.1,0,FastFast,25,19,Man,Right,
1,14,1,0.6841100999999981,['c'],1,left,['8'],4,0.71754620000047,0.2,0,FastFast,25,19,Man,Right,
2,14,1,0.8676065999998173,['n'],1,right,['3'],3,0.8511739000005036,0.1,0,FastFast,25,19,Man,Right,
3,14,1,0.4840291000000434,['c'],1,left,['9'],5,0.5181044999999358,0.4,0,FastFast,25,19,Man,Right,
4,14,1,0.783936700000595,['c'],0,right,['3'],3,0.6341358000008768,0.1,0,FastFast,25,19,Man,Right,
5,14,1,0.617686099999446,['c'],1,left,['8'],4,0.5847383000000264,0.1,0,FastFast,25,19,Man,Right,
6,14,1,0.4674257000006037,['c'],1,left,['8'],4,0.5513097000002745,0.2,0,FastFast,25,19,Man,Right,
7,14,1,0.4676601999999548,['n'],1,right,['9'],5,0.6348250999999436,0.4,0,FastFast,25,19,Man,Right,
8,14,1,0.4664676000002146,['c'],1,left,['0'],6,0.46790669999973034,0.2,0,FastFast,25,19,Man,Right,
9,14,1,0.46771179999996093,['n'],1,right,['9'],5,0.5507504999995945,0.2,0,FastFast,25,19,Man,Right,
10,14,1,0.7005953999996564,['c'],0,right,['2'],2,1.0179152000000613,0.2,0,FastFast,25,19,Man,Right,
11,14,1,0.5179618000001938,['c'],1,left,['9'],5,0.7013575000000856,0.2,0,FastFast,25,19,Man,Right,
12,14,1,0.4669720000001689,['c'],1,left,['9'],5,0.5013891999997213,0.4,0,FastFast,25,19,Man,Right,
13,14,1,0.5333337000001848,['c'],1,left,['9'],5,0.3012936000004629,0.4,0,FastFast,25,19,Man,Right,
14,14,1,0.9497736000002988,['n'],1,right,['3'],3,0.6513670000003913,0.2,0,FastFast,25,19,Man,Right,
15,14,1,0.532740399999966,['n'],1,right,['9'],5,0.3846209000003,0.4,0,FastFast,25,19,Man,Right,
16,14,1,0.6671672000002218,['n'],1,right,['8'],4,0.7507950999997774,0.4,0,FastFast,25,19,Man,Right,
17,14,1,0.4999917999994068,['c'],1,left,['9'],5,0.35106610000002547,0.4,0,FastFast,25,19,Man,Right,
18,14,1,0.4831319999993866,['n'],1,right,['0'],6,0.38490209999963554,0.4,0,FastFast,25,19,Man,Right,
19,14,1,0.5679989000000205,['c'],1,left,['3'],3,0.734070000000429,0.1,0,FastFast,25,19,Man,Right,
20,14,1,0.5672294999994847,['c'],1,left,['9'],5,0.3681047000000035,0.4,0,FastFast,25,19,Man,Right,
21,14,1,0.683223299999554,['c'],1,left,['0'],6,0.20213069999954314,0.2,0,FastFast,25,19,Man,Right,
22,14,1,0.5002563000007285,['n'],1,right,['9'],5,0.43516689999978553,0.2,0,FastFast,25,19,Man,Right,
23,14,1,0.5833046999996441,['n'],1,right,['9'],5,0.30134519999955955,0.4,0,FastFast,25,19,Man,Right,
24,14,1,0.5003256999998484,['c'],1,left,['9'],5,0.30176510000001144,0.4,0,FastFast,25,19,Man,Right,
25,14,1,0.8512300000002142,['c'],1,left,['3'],3,0.6836891000002652,0.1,0,FastFast,25,19,Man,Right,
26,14,1,0.6838266000004296,['c'],0,right,['3'],3,0.25140509999982896,0.1,0,FastFast,25,19,Man,Right,
27,14,1,0.9326852999993207,['c'],0,right,['2'],2,0.15202050000061718,0.2,0,FastFast,25,19,Man,Right,
28,14,1,0.9176817999996274,['c'],0,right,['2'],2,0.23484910000024684,0.1,0,FastFast,25,19,Man,Right,
29,14,1,0.9837824999995064,['c'],1,left,['8'],4,0.20133609999993496,0.1,0,FastFast,25,19,Man,Right,
30,14,1,1.1173703000004025,['c'],0,right,['2'],2,0.20171120000031806,0.1,0,FastFast,25,19,Man,Right,
31,14,1,0.7169868000000861,['n'],1,right,['8'],4,0.48360890000003565,0.4,0,FastFast,25,19,Man,Right,
32,14,1,1.066990899999837,['c'],1,left,['8'],4,0.18469920000006823,0.2,0,FastFast,25,19,Man,Right,
33,14,1,1.2840020000003278,['c'],1,left,['8'],4,0.9844934999991892,0.1,0,FastFast,25,19,Man,Right,
34,14,1,0.8661205999997037,['c'],1,left,['8'],4,0.25204329999996844,0.2,0,FastFast,25,19,Man,Right,
35,14,1,0.716859299999669,['c'],1,left,['8'],4,0.23483159999977943,0.1,0,FastFast,25,19,Man,Right,
36,14,1,0.8836583000002065,['c'],1,left,['3'],3,0.4510759999993752,0.1,0,FastFast,25,19,Man,Right,
37,14,1,0.8501127999998062,['n'],1,right,['8'],4,0.7177423000002818,0.1,0,FastFast,25,19,Man,Right,
38,14,1,0.6826494000006278,['c'],1,left,['8'],4,0.5172464000006585,0.2,0,FastFast,25,19,Man,Right,
39,14,1,0.6832273999998506,['n'],1,right,['9'],5,0.3524912000002587,0.2,0,FastFast,25,19,Man,Right,
40,14,1,0.8840857000004689,['c'],0,right,['2'],2,1.0845058000004428,0.1,0,FastFast,25,19,Man,Right,
41,14,1,0.7348461999999927,['n'],1,right,['9'],5,0.36792179999974906,0.4,0,FastFast,25,19,Man,Right,
42,14,1,0.9004812999992282,['c'],0,right,['2'],2,0.9344506999996156,0.2,0,FastFast,25,19,Man,Right,
43,14,1,0.6490702999999485,['n'],1,right,['0'],6,0.7184041000000434,0.4,0,FastFast,25,19,Man,Right,
44,14,1,0.9011178000000655,['c'],1,left,['8'],4,0.7016510000003109,0.1,0,FastFast,25,19,Man,Right,
45,14,1,0.6338165000006484,['n'],1,right,['8'],4,0.9180139000000054,0.1,0,FastFast,25,19,Man,Right,
46,14,1,0.6994098000004669,['n'],1,right,['8'],4,0.3687977999998111,0.2,0,FastFast,25,19,Man,Right,
47,14,1,0.6506533000001582,['c'],0,right,['3'],3,0.2686111000002711,0.1,0,FastFast,25,19,Man,Right,
48,14,1,0.6003105999998297,['n'],1,right,['9'],5,0.31809590000011667,0.4,0,FastFast,25,19,Man,Right,
49,14,1,0.5170534999997471,['c'],0,right,['8'],4,0.5847189000005528,0.1,0,FastFast,25,19,Man,Right,
50,14,1,0.4834225000004153,['n'],1,right,['9'],5,0.3184623000006468,0.4,0,FastFast,25,19,Man,Right,
51,14,1,0.4843530999996801,['c'],1,left,['0'],6,0.26699790000020585,0.4,0,FastFast,25,19,Man,Right,
52,14,1,0.551010000000133,['c'],1,left,['0'],6,0.2345724999995582,0.2,0,FastFast,25,19,Man,Right,
53,14,1,0.5337328999994497,['c'],1,left,['0'],6,0.2172059000004083,0.4,0,FastFast,25,19,Man,Right,
54,14,1,1.2330452000005607,['n'],1,right,['8'],4,0.8015237999998135,0.2,0,FastFast,25,19,Man,Right,
55,14,1,0.6345801999996183,['c'],1,left,['0'],6,0.28456240000014077,0.2,0,FastFast,25,19,Man,Right,
56,14,1,0.5335807000001296,['c'],1,left,['0'],6,0.2350720000004003,0.4,0,FastFast,25,19,Man,Right,
57,14,1,1.0166336000002048,['n'],1,right,['8'],4,0.3512983999999051,0.1,0,FastFast,25,19,Man,Right,
58,14,1,0.6006606000000829,['c'],1,left,['9'],5,0.3348508999997648,0.4,0,FastFast,25,19,Man,Right,
59,14,1,0.5497722999998587,['c'],1,left,['9'],5,0.35170860000016546,0.2,0,FastFast,25,19,Man,Right,
0,15,1,2.0340297000002465,['n'],1,right,['8'],4,0.0846903999999995,0.4,0,AccFast,25,19,Man,Right,
1,15,1,1.1178940999998304,['c'],1,left,['9'],5,0.1008719999999812,0.4,0,AccFast,25,19,Man,Right,
2,15,1,0.6661862000000838,['n'],1,right,['0'],6,0.1353371999994124,0.2,0,AccFast,25,19,Man,Right,
3,15,1,1.8162696999997934,['c'],0,right,['8'],4,0.08556350000071689,0.1,0,AccFast,25,19,Man,Right,
4,15,1,1.4840571000004275,['n'],1,right,['9'],5,0.08501819999946747,0.2,0,AccFast,25,19,Man,Right,
5,15,1,1.2661492000006547,['c'],1,left,['8'],4,0.13490550000005896,0.1,0,AccFast,25,19,Man,Right,
6,15,1,1.4164844999995694,['c'],1,left,['3'],3,0.0513784000004307,0.1,0,AccFast,25,19,Man,Right,
7,15,1,1.1004233000003296,['n'],0,left,['3'],3,0.15127920000031736,0.1,0,AccFast,25,19,Man,Right,
8,15,1,1.0833364000000074,['c'],0,right,['8'],4,0.10180859999945824,0.1,0,AccFast,25,19,Man,Right,
9,15,1,1.133434400000624,['n'],1,right,['9'],5,0.15140599999995175,0.4,0,AccFast,25,19,Man,Right,
10,15,1,1.1171383999999307,['c'],1,left,['0'],6,0.13523259999965376,0.4,0,AccFast,25,19,Man,Right,
11,15,1,0.9162900000001173,['c'],1,left,['0'],6,0.13560340000003634,0.4,0,AccFast,25,19,Man,Right,
12,15,1,0.666743800000404,['n'],1,right,['0'],6,0.13509789999989152,0.4,0,AccFast,25,19,Man,Right,
13,15,1,1.4512297000001126,['c'],1,left,['3'],3,0.1006056999995053,0.1,0,AccFast,25,19,Man,Right,
14,15,1,1.0671924999996918,['c'],1,left,['9'],5,0.11905649999971502,0.4,0,AccFast,25,19,Man,Right,
15,15,1,2.300088599999981,['n'],1,right,['3'],3,0.20154210000055173,0.1,0,AccFast,25,19,Man,Right,
16,15,1,1.5838536000001113,['c'],0,right,['2'],2,0.1514948000003642,0.2,0,AccFast,25,19,Man,Right,
17,15,1,2.383687999999893,['c'],1,left,['8'],4,0.1665130000001227,0.2,0,AccFast,25,19,Man,Right,
18,15,1,1.784145399999943,['c'],1,left,['8'],4,0.15049719999933586,0.2,0,AccFast,25,19,Man,Right,
19,15,1,1.500057100000049,['n'],0,left,['8'],4,0.13588590000017575,0.1,0,AccFast,25,19,Man,Right,
20,15,1,0.7836348999999245,['c'],1,left,['9'],5,0.11853330000030837,0.4,0,AccFast,25,19,Man,Right,
21,15,1,1.0826832000002469,['n'],1,right,['0'],6,0.13499709999996412,0.2,0,AccFast,25,19,Man,Right,
22,15,1,1.4334392999999181,['c'],1,left,['8'],4,0.05164549999972223,0.1,0,AccFast,25,19,Man,Right,
23,15,1,1.6507430000001477,['c'],1,left,['8'],4,0.08467660000042088,0.2,0,AccFast,25,19,Man,Right,
24,15,1,1.0994224000005488,['c'],0,right,['0'],6,0.11918379999951867,0.4,0,AccFast,25,19,Man,Right,
25,15,1,0.8002754999997705,['c'],1,left,['0'],6,0.11821109999982582,0.4,0,AccFast,25,19,Man,Right,
26,15,1,1.284048000000439,['n'],1,right,['9'],5,0.1348281999999017,0.1,0,AccFast,25,19,Man,Right,
27,15,1,0.9672348000003694,['c'],1,left,['0'],6,0.11790130000008503,0.2,0,AccFast,25,19,Man,Right,
28,15,1,1.2335324999994555,['n'],1,right,['0'],6,0.13424699999995937,0.2,0,AccFast,25,19,Man,Right,
29,15,1,1.6838189999998576,['n'],1,right,['9'],5,0.16694920000009006,0.1,0,AccFast,25,19,Man,Right,
30,15,1,2.300386300000355,['c'],1,left,['8'],4,0.11798720000024332,0.2,0,AccFast,25,19,Man,Right,
31,15,1,1.0498317999999927,['c'],1,left,['9'],5,0.06833559999995487,0.4,0,AccFast,25,19,Man,Right,
32,15,1,1.0827949000004082,['c'],1,left,['9'],5,0.11879039999985253,0.4,0,AccFast,25,19,Man,Right,
33,15,1,0.8839295999996466,['c'],1,left,['8'],4,0.0680502000004708,0.4,0,AccFast,25,19,Man,Right,
34,15,1,0.9160556000006181,['c'],1,left,['0'],6,0.16882900000018708,0.4,0,AccFast,25,19,Man,Right,
35,15,1,1.715163400000165,['c'],1,left,['8'],4,0.10101290000056906,0.2,0,AccFast,25,19,Man,Right,
36,15,1,0.9842566000006627,['n'],1,right,['9'],5,0.11907700000028854,0.4,0,AccFast,25,19,Man,Right,
37,15,1,1.6496432000003551,['n'],1,right,['8'],4,0.13527669999984937,0.1,0,AccFast,25,19,Man,Right,
38,15,1,2.667058199999701,['n'],1,right,['3'],3,0.11822209999991173,0.2,0,AccFast,25,19,Man,Right,
39,15,1,3.2831671000003553,['n'],1,right,['8'],4,0.11831510000047274,0.1,0,AccFast,25,19,Man,Right,
40,15,1,0.9672020999996676,['n'],1,right,['9'],5,0.08480390000022453,0.4,0,AccFast,25,19,Man,Right,
41,15,1,2.53367629999957,['c'],1,left,['9'],5,0.13497430000006716,0.2,0,AccFast,25,19,Man,Right,
42,15,1,1.3009111999999732,['n'],1,right,['8'],4,0.15151820000028238,0.2,0,AccFast,25,19,Man,Right,
43,15,1,1.4497316999995746,['c'],0,right,['2'],2,0.16750450000017736,0.2,0,AccFast,25,19,Man,Right,
44,15,1,1.9336301000003004,['n'],1,right,['2'],2,0.21707340000011754,0.2,0,AccFast,25,19,Man,Right,
45,15,1,1.4168116999999256,['c'],1,left,['8'],4,0.08357809999961319,0.2,0,AccFast,25,19,Man,Right,
46,15,1,1.3176095999997415,['n'],1,right,['9'],5,0.0685910000001968,0.4,0,AccFast,25,19,Man,Right,
47,15,1,1.2677936999998565,['c'],1,left,['8'],4,0.11814890000005107,0.1,0,AccFast,25,19,Man,Right,
48,15,1,1.8335550000001604,['c'],1,left,['9'],5,0.11860330000035901,0.1,0,AccFast,25,19,Man,Right,
49,15,1,0.9170616999999766,['n'],1,right,['9'],5,0.08404090000021824,0.4,0,AccFast,25,19,Man,Right,
50,15,1,1.9840961999998399,['c'],0,right,['2'],2,0.16837180000038643,0.1,0,AccFast,25,19,Man,Right,
51,15,1,1.483551900000748,['c'],0,right,['2'],2,0.1525476000006165,0.1,0,AccFast,25,19,Man,Right,
52,15,1,1.183945599999788,['c'],0,right,['3'],3,0.13525709999976243,0.1,0,AccFast,25,19,Man,Right,
53,15,1,1.3842622999991363,['c'],1,left,['3'],3,0.08406680000007327,0.1,0,AccFast,25,19,Man,Right,
54,15,1,2.017137300000286,['n'],1,right,['8'],4,0.1515282999998817,0.2,0,AccFast,25,19,Man,Right,
55,15,1,1.2496599999994942,['c'],1,left,['8'],4,0.13403900000048452,0.1,0,AccFast,25,19,Man,Right,
56,15,1,0.799795300000369,['n'],1,right,['3'],3,0.1681916999996247,0.4,0,AccFast,25,19,Man,Right,
57,15,1,1.7829304000006232,['c'],1,left,['3'],3,0.13485770000079356,0.2,0,AccFast,25,19,Man,Right,
58,15,1,1.2004688999995778,['n'],1,right,['9'],5,0.15167769999970915,0.4,0,AccFast,25,19,Man,Right,
59,15,1,1.333719199999905,['c'],1,left,['9'],5,0.1017069999998057,0.2,0,AccFast,25,19,Man,Right,
