withinblocktrial,block,block_repetition,rt,resp,cor,cresp,conf_press,cj,rtconf,coherence,slow_trial,manipulation,sub,age,gender,handedness,
0,1,1,4.433846399999311,['c'],1,left,none,-99,-99,0.5,0,none,19,19,Woman,Right,
1,1,1,1.39976039999965,['n'],1,right,none,-99,-99,0.5,0,none,19,19,Woman,Right,
2,1,1,0.4994654999991326,['c'],1,left,none,-99,-99,0.5,0,none,19,19,Woman,Right,
3,1,1,1.2672772999994777,['c'],1,left,none,-99,-99,0.5,0,none,19,19,Woman,Right,
4,1,1,0.4833244999990711,['n'],1,right,none,-99,-99,0.5,0,none,19,19,Woman,Right,
5,1,1,0.4508022999998502,['n'],1,right,none,-99,-99,0.5,0,none,19,19,Woman,Right,
6,1,1,0.5177548999999999,['n'],1,right,none,-99,-99,0.5,0,none,19,19,Woman,Right,
7,1,1,0.35268189999987953,['c'],0,right,none,-99,-99,0.5,0,none,19,19,Woman,Right,
8,1,1,0.5334842000011122,['c'],1,left,none,-99,-99,0.5,0,none,19,19,Woman,Right,
9,1,1,0.49986019999960263,['c'],1,left,none,-99,-99,0.5,0,none,19,19,Woman,Right,
10,1,1,0.567990200001077,['n'],1,right,none,-99,-99,0.5,0,none,19,19,Woman,Right,
11,1,1,0.4854286999998294,['n'],1,right,none,-99,-99,0.5,0,none,19,19,Woman,Right,
12,1,1,0.38314809999974386,['n'],1,right,none,-99,-99,0.5,0,none,19,19,Woman,Right,
13,1,1,0.43376250000073924,['n'],1,right,none,-99,-99,0.5,0,none,19,19,Woman,Right,
14,1,1,0.5332675999998173,['c'],1,left,none,-99,-99,0.5,0,none,19,19,Woman,Right,
15,1,1,0.4156112000000576,['c'],1,left,none,-99,-99,0.5,0,none,19,19,Woman,Right,
16,1,1,0.5345329000010679,['n'],1,right,none,-99,-99,0.5,0,none,19,19,Woman,Right,
17,1,1,0.40089570000054664,['c'],1,left,none,-99,-99,0.5,0,none,19,19,Woman,Right,
18,1,1,1.2828343000001041,['n'],1,right,none,-99,-99,0.5,0,none,19,19,Woman,Right,
19,1,1,0.4835370000000694,['c'],1,left,none,-99,-99,0.5,0,none,19,19,Woman,Right,
20,1,1,0.41705759999967995,['c'],1,left,none,-99,-99,0.5,0,none,19,19,Woman,Right,
21,1,1,0.6497435000001133,['c'],1,left,none,-99,-99,0.5,0,none,19,19,Woman,Right,
22,1,1,0.46543969999947876,['n'],1,right,none,-99,-99,0.5,0,none,19,19,Woman,Right,
23,1,1,0.41675320000103966,['c'],1,left,none,-99,-99,0.5,0,none,19,19,Woman,Right,
0,2,1,0.6676370999994106,['n'],1,right,none,-99,-99,0.4,0,none,19,19,Woman,Right,
1,2,1,0.4178523000009591,['c'],1,left,none,-99,-99,0.4,0,none,19,19,Woman,Right,
2,2,1,0.48425010000028124,['c'],1,left,none,-99,-99,0.4,0,none,19,19,Woman,Right,
3,2,1,1.017917999999554,['n'],1,right,none,-99,-99,0.2,0,none,19,19,Woman,Right,
4,2,1,0.5342925999993895,['c'],1,left,none,-99,-99,0.1,0,none,19,19,Woman,Right,
5,2,1,0.40028089999941585,['c'],1,left,none,-99,-99,0.2,0,none,19,19,Woman,Right,
6,2,1,1.166751300001124,['n'],1,right,none,-99,-99,0.2,0,none,19,19,Woman,Right,
7,2,1,0.5177304999997432,['c'],1,left,none,-99,-99,0.4,0,none,19,19,Woman,Right,
8,2,1,1.750500699999975,['c'],1,left,none,-99,-99,0.1,0,none,19,19,Woman,Right,
9,2,1,0.8827359999995679,['n'],1,right,none,-99,-99,0.4,0,none,19,19,Woman,Right,
10,2,1,0.5155574000000342,['c'],1,left,none,-99,-99,0.4,0,none,19,19,Woman,Right,
11,2,1,0.9169155999989016,['n'],1,right,none,-99,-99,0.2,0,none,19,19,Woman,Right,
12,2,1,0.6009178000003885,['n'],1,right,none,-99,-99,0.1,0,none,19,19,Woman,Right,
13,2,1,0.4178241000008711,['c'],1,left,none,-99,-99,0.2,0,none,19,19,Woman,Right,
14,2,1,0.6820203000006586,['c'],1,left,none,-99,-99,0.1,0,none,19,19,Woman,Right,
15,2,1,0.5333031999998639,['c'],0,right,none,-99,-99,0.1,0,none,19,19,Woman,Right,
16,2,1,0.5334709999988263,['n'],1,right,none,-99,-99,0.4,0,none,19,19,Woman,Right,
17,2,1,0.5343265999999858,['n'],1,right,none,-99,-99,0.2,0,none,19,19,Woman,Right,
18,2,1,0.5165446999999403,['c'],0,right,none,-99,-99,0.2,0,none,19,19,Woman,Right,
19,2,1,1.1669910000000527,['n'],1,right,none,-99,-99,0.1,0,none,19,19,Woman,Right,
20,2,1,2.4671612000001915,['n'],0,left,none,-99,-99,0.1,0,none,19,19,Woman,Right,
21,2,1,0.6507368999991741,['c'],1,left,none,-99,-99,0.2,0,none,19,19,Woman,Right,
22,2,1,0.4677422000004299,['c'],1,left,none,-99,-99,0.4,0,none,19,19,Woman,Right,
23,2,1,1.0666930000006687,['n'],1,right,none,-99,-99,0.1,0,none,19,19,Woman,Right,
0,3,1,0.7340865999995003,['c'],1,left,['0'],6,1.2844954000011057,0.4,0,none,19,19,Woman,Right,
1,3,1,2.8665008999996644,['c'],1,left,['1'],1,0.33594259999881615,0.2,0,none,19,19,Woman,Right,
2,3,1,2.200354000000516,['n'],0,left,['8'],4,0.28480259999923874,0.2,0,none,19,19,Woman,Right,
3,3,1,1.7670637999999599,['c'],1,left,['8'],4,1.1006142000005639,0.1,0,none,19,19,Woman,Right,
4,3,1,0.900213499999154,['n'],0,left,['9'],5,0.4333802999990439,0.4,0,none,19,19,Woman,Right,
5,3,1,0.7490023999998812,['n'],1,right,['0'],6,0.35150769999927434,0.4,0,none,19,19,Woman,Right,
6,3,1,3.2174634000002698,['c'],0,right,['3'],3,0.7355668000000151,0.2,0,none,19,19,Woman,Right,
7,3,1,1.0338377000007313,['n'],1,right,['8'],4,0.4000262000008661,0.2,0,none,19,19,Woman,Right,
8,3,1,0.9009201000008034,['c'],1,left,['2'],2,0.41798840000046766,0.2,0,none,19,19,Woman,Right,
9,3,1,1.0003421000001254,['n'],1,right,['0'],6,0.35170670000115933,0.4,0,none,19,19,Woman,Right,
10,3,1,0.6502579000007245,['c'],0,right,['1'],1,0.351750699999684,0.1,0,none,19,19,Woman,Right,
11,3,1,1.53385039999921,['n'],1,right,['0'],6,0.7514392000011867,0.4,0,none,19,19,Woman,Right,
12,3,1,5.015061699999933,x,-99,right,none,-99,-99,0.2,1,none,19,19,Woman,Right,
13,3,1,1.2348749999982829,['c'],1,left,['0'],6,0.6665823999992426,0.4,0,none,19,19,Woman,Right,
14,3,1,1.0674907000011444,['n'],1,right,['0'],6,0.2679604000004474,0.1,0,none,19,19,Woman,Right,
15,3,1,1.5152820000002976,['n'],1,right,['3'],3,0.3197366000003967,0.1,0,none,19,19,Woman,Right,
16,3,1,1.3162822000012966,['n'],1,right,['9'],5,0.48440819999996165,0.2,0,none,19,19,Woman,Right,
17,3,1,0.6003461999989668,['c'],1,left,['0'],6,0.48499980000087817,0.4,0,none,19,19,Woman,Right,
18,3,1,0.7332560000013473,['n'],0,left,['1'],1,1.2680884999990667,0.1,0,none,19,19,Woman,Right,
19,3,1,0.9339505999996618,['c'],1,left,['0'],6,0.3177806000003329,0.2,0,none,19,19,Woman,Right,
20,3,1,0.6339828000000125,['c'],0,right,['0'],6,0.3515249000010954,0.1,0,none,19,19,Woman,Right,
21,3,1,0.7665626000016346,['n'],1,right,['0'],6,0.33471470000040426,0.4,0,none,19,19,Woman,Right,
22,3,1,0.5339019000002736,['c'],1,left,['0'],6,0.30148519999966084,0.1,0,none,19,19,Woman,Right,
23,3,1,0.5344267999989825,['c'],1,left,['0'],6,0.3345958999998402,0.1,0,none,19,19,Woman,Right,
0,4,1,1.565878999999768,['n'],1,right,['2'],2,1.8859018999992259,0.1,0,FastAcc,19,19,Woman,Right,
1,4,1,1.251307900000029,['n'],1,right,['0'],6,0.3512780999990355,0.4,0,FastAcc,19,19,Woman,Right,
2,4,1,1.384046799999851,['n'],1,right,['3'],3,0.6519097999989754,0.4,0,FastAcc,19,19,Woman,Right,
3,4,1,1.2835505999992165,['n'],1,right,['2'],2,0.9165474999990693,0.2,0,FastAcc,19,19,Woman,Right,
4,4,1,1.5663261999998213,['c'],0,right,['8'],4,1.5007315999991988,0.2,0,FastAcc,19,19,Woman,Right,
5,4,1,1.067163800000344,['c'],1,left,['0'],6,0.567962200000693,0.4,0,FastAcc,19,19,Woman,Right,
6,4,1,0.8342609999999695,['n'],1,right,['0'],6,0.4515269999992597,0.2,0,FastAcc,19,19,Woman,Right,
7,4,1,1.517105900000388,['n'],1,right,['3'],3,0.8185475999998744,0.1,0,FastAcc,19,19,Woman,Right,
8,4,1,1.6663841999998112,['c'],0,right,['9'],5,1.051081300000078,0.2,0,FastAcc,19,19,Woman,Right,
9,4,1,0.9338470999991841,['c'],1,left,['9'],5,1.0349454999995942,0.1,0,FastAcc,19,19,Woman,Right,
10,4,1,1.1997596999990492,['c'],1,left,['0'],6,0.48459639999964566,0.2,0,FastAcc,19,19,Woman,Right,
11,4,1,1.3018713999990723,['c'],1,left,['8'],4,1.2178665999999794,0.1,0,FastAcc,19,19,Woman,Right,
12,4,1,0.6997825999987981,['c'],1,left,['0'],6,0.550128400000176,0.2,0,FastAcc,19,19,Woman,Right,
13,4,1,0.5335749999994732,['c'],1,left,['0'],6,0.8681624000000738,0.4,0,FastAcc,19,19,Woman,Right,
14,4,1,0.5836230999993859,['c'],1,left,['0'],6,0.33470149999993737,0.1,0,FastAcc,19,19,Woman,Right,
15,4,1,0.6669748000003892,['n'],1,right,['0'],6,0.452081299999918,0.2,0,FastAcc,19,19,Woman,Right,
16,4,1,0.5668875999999727,['n'],1,right,['0'],6,0.4014244999998482,0.2,0,FastAcc,19,19,Woman,Right,
17,4,1,1.017076399999496,['n'],1,right,['0'],6,0.45140249999894877,0.4,0,FastAcc,19,19,Woman,Right,
18,4,1,0.5837788000008004,['n'],1,right,['0'],6,0.3506761999997252,0.4,0,FastAcc,19,19,Woman,Right,
19,4,1,1.065397700000176,['n'],1,right,['8'],4,2.1005697999989934,0.2,0,FastAcc,19,19,Woman,Right,
20,4,1,0.8179607000001852,['c'],1,left,['0'],6,0.38515170000027865,0.2,0,FastAcc,19,19,Woman,Right,
21,4,1,0.7169911000000866,['n'],1,right,['0'],6,0.41687699999965844,0.4,0,FastAcc,19,19,Woman,Right,
22,4,1,0.9009497000006377,['c'],1,left,['0'],6,0.501103200000216,0.4,0,FastAcc,19,19,Woman,Right,
23,4,1,0.6838163000011264,['n'],1,right,['0'],6,0.35126260000106413,0.2,0,FastAcc,19,19,Woman,Right,
24,4,1,1.0826871000008396,['n'],0,left,['8'],4,1.0522267000014836,0.1,0,FastAcc,19,19,Woman,Right,
25,4,1,0.9492511999997078,['c'],1,left,['0'],6,0.38480340000023716,0.4,0,FastAcc,19,19,Woman,Right,
26,4,1,0.5504705000003014,['n'],1,right,['0'],6,0.43417869999939285,0.4,0,FastAcc,19,19,Woman,Right,
27,4,1,0.5508537000005163,['c'],1,left,['0'],6,0.46800980000080017,0.4,0,FastAcc,19,19,Woman,Right,
28,4,1,1.4502635000008013,['n'],0,left,['3'],3,0.8848980000002484,0.1,0,FastAcc,19,19,Woman,Right,
29,4,1,0.9837731999996322,['c'],1,left,['0'],6,0.3846811000003072,0.4,0,FastAcc,19,19,Woman,Right,
30,4,1,1.2336672000001272,['n'],1,right,['9'],5,0.46776820000013686,0.2,0,FastAcc,19,19,Woman,Right,
31,4,1,0.7500314999997499,['c'],1,left,['0'],6,0.33477379999931145,0.1,0,FastAcc,19,19,Woman,Right,
32,4,1,1.1506368999998813,['n'],1,right,['9'],5,0.3997591999996075,0.1,0,FastAcc,19,19,Woman,Right,
33,4,1,0.8173162999992201,['c'],1,left,['9'],5,0.4682732000001124,0.2,0,FastAcc,19,19,Woman,Right,
34,4,1,1.6335687999999209,['c'],1,left,['8'],4,1.2518046000004688,0.1,0,FastAcc,19,19,Woman,Right,
35,4,1,0.6506022000012308,['c'],1,left,['0'],6,0.33400369999981194,0.4,0,FastAcc,19,19,Woman,Right,
36,4,1,0.6503103000013652,['c'],1,left,['8'],4,2.0677339999983815,0.4,0,FastAcc,19,19,Woman,Right,
37,4,1,0.7842180999996344,['n'],1,right,['0'],6,0.4348393999989639,0.4,0,FastAcc,19,19,Woman,Right,
38,4,1,0.6171953000011854,['c'],1,left,['0'],6,0.4013468000011926,0.1,0,FastAcc,19,19,Woman,Right,
39,4,1,0.5169507000009617,['c'],1,left,['0'],6,0.41803580000123475,0.1,0,FastAcc,19,19,Woman,Right,
40,4,1,0.6839302999997017,['n'],1,right,['0'],6,0.3347135999993043,0.2,0,FastAcc,19,19,Woman,Right,
41,4,1,1.2653963000011572,['n'],1,right,['8'],4,0.9692310999998881,0.1,0,FastAcc,19,19,Woman,Right,
42,4,1,1.6001773000007233,['n'],1,right,['3'],3,1.1349110000010114,0.2,0,FastAcc,19,19,Woman,Right,
43,4,1,1.233814600000187,['n'],0,left,['8'],4,0.3853034999992815,0.1,0,FastAcc,19,19,Woman,Right,
44,4,1,0.8003828999990219,['n'],0,left,['8'],4,0.3836340999987442,0.2,0,FastAcc,19,19,Woman,Right,
45,4,1,0.933446000000913,['n'],1,right,['3'],3,0.7337354000010237,0.2,0,FastAcc,19,19,Woman,Right,
46,4,1,2.66739570000027,['c'],0,right,['3'],3,0.6001539999997476,0.1,0,FastAcc,19,19,Woman,Right,
47,4,1,2.1004814999996597,['n'],0,left,['8'],4,0.9348034000013286,0.1,0,FastAcc,19,19,Woman,Right,
48,4,1,0.7672834000004514,['n'],1,right,['0'],6,0.30147240000042075,0.4,0,FastAcc,19,19,Woman,Right,
49,4,1,1.5341879000006884,['n'],1,right,['9'],5,0.48483630000009725,0.4,0,FastAcc,19,19,Woman,Right,
50,4,1,0.7998756000015419,['n'],1,right,['0'],6,0.46669810000094003,0.2,0,FastAcc,19,19,Woman,Right,
51,4,1,0.7341590999985783,['n'],1,right,['0'],6,0.5345787000005657,0.4,0,FastAcc,19,19,Woman,Right,
52,4,1,0.6837036999986594,['c'],1,left,['0'],6,0.36833219999971334,0.1,0,FastAcc,19,19,Woman,Right,
53,4,1,1.5830652999993617,['c'],1,left,['9'],5,0.6333754999996017,0.1,0,FastAcc,19,19,Woman,Right,
54,4,1,2.0672597999982827,['c'],1,left,['0'],6,0.5001921999992192,0.1,0,FastAcc,19,19,Woman,Right,
55,4,1,0.667313900001318,['c'],1,left,['0'],6,0.38467730000047595,0.4,0,FastAcc,19,19,Woman,Right,
56,4,1,0.6667405999996845,['n'],1,right,['0'],6,0.568194699999367,0.1,0,FastAcc,19,19,Woman,Right,
57,4,1,1.1346515999994153,['n'],1,right,['3'],3,0.6846861999983958,0.2,0,FastAcc,19,19,Woman,Right,
58,4,1,0.6671361999997316,['c'],1,left,['0'],6,0.417850300000282,0.4,0,FastAcc,19,19,Woman,Right,
59,4,1,1.1836198000000877,['c'],1,left,['0'],6,0.3843971000005695,0.2,0,FastAcc,19,19,Woman,Right,
0,5,1,0.7178042000014102,['c'],1,left,['0'],6,0.25141030000122555,0.4,0,FastFast,19,19,Woman,Right,
1,5,1,0.5341234999996232,['n'],1,right,['0'],6,0.30052819999946223,0.1,0,FastFast,19,19,Woman,Right,
2,5,1,0.4512544000008347,['c'],1,left,['0'],6,0.2682928999984142,0.4,0,FastFast,19,19,Woman,Right,
3,5,1,1.3664692000002105,['n'],1,right,['9'],5,0.3349746000003506,0.1,0,FastFast,19,19,Woman,Right,
4,5,1,0.6014913000017259,['c'],1,left,['0'],6,0.3015083999998751,0.1,0,FastFast,19,19,Woman,Right,
5,5,1,0.7160621999992145,['n'],1,right,['9'],5,0.45224059999964084,0.2,0,FastFast,19,19,Woman,Right,
6,5,1,0.7327707999993436,['n'],1,right,['0'],6,0.3343038000002707,0.2,0,FastFast,19,19,Woman,Right,
7,5,1,0.5672326999992947,['c'],1,left,['0'],6,0.25114030000077037,0.1,0,FastFast,19,19,Woman,Right,
8,5,1,0.7000077000011515,['c'],1,left,['0'],6,0.2845486999995046,0.1,0,FastFast,19,19,Woman,Right,
9,5,1,0.6324786999994103,['c'],0,right,['0'],6,0.28537750000032247,0.1,0,FastFast,19,19,Woman,Right,
10,5,1,0.7507501000000047,['c'],1,left,['0'],6,0.3342523999999685,0.1,0,FastFast,19,19,Woman,Right,
11,5,1,0.5506753999998182,['n'],1,right,['0'],6,0.28450680000059947,0.2,0,FastFast,19,19,Woman,Right,
12,5,1,0.533161299999847,['c'],1,left,['0'],6,0.5014770999987377,0.2,0,FastFast,19,19,Woman,Right,
13,5,1,0.6336493999988306,['n'],1,right,['0'],6,0.26811320000160777,0.2,0,FastFast,19,19,Woman,Right,
14,5,1,0.4498265000001993,['c'],1,left,['0'],6,0.31896020000021963,0.2,0,FastFast,19,19,Woman,Right,
15,5,1,0.5496781000001647,['n'],1,right,['0'],6,0.23409280000123545,0.4,0,FastFast,19,19,Woman,Right,
16,5,1,0.43378479999955744,['c'],1,left,['0'],6,0.20183480000014242,0.1,0,FastFast,19,19,Woman,Right,
17,5,1,0.5337971999997535,['n'],1,right,['0'],6,0.2335239999993064,0.2,0,FastFast,19,19,Woman,Right,
18,5,1,0.4996744000000035,['c'],1,left,['0'],6,0.20207969999864872,0.1,0,FastFast,19,19,Woman,Right,
19,5,1,0.5827853999999206,['c'],1,left,['0'],6,0.3859154999991006,0.4,0,FastFast,19,19,Woman,Right,
20,5,1,1.7163074999989476,['c'],1,left,['9'],5,0.267411799999536,0.2,0,FastFast,19,19,Woman,Right,
21,5,1,0.45032349999928556,['c'],1,left,['0'],6,0.30141680000087945,0.2,0,FastFast,19,19,Woman,Right,
22,5,1,1.2324800999995205,['n'],1,right,['0'],6,0.3351715000007971,0.1,0,FastFast,19,19,Woman,Right,
23,5,1,0.46626049999940733,['c'],1,left,['0'],6,0.2846004000002722,0.2,0,FastFast,19,19,Woman,Right,
24,5,1,0.6173160999987886,['n'],1,right,['8'],4,0.7680213000003278,0.2,0,FastFast,19,19,Woman,Right,
25,5,1,0.5838115000005928,['n'],1,right,['9'],5,0.26735240000016347,0.4,0,FastFast,19,19,Woman,Right,
26,5,1,0.46640110000043933,['c'],1,left,['0'],6,0.25011909999921045,0.2,0,FastFast,19,19,Woman,Right,
27,5,1,0.616343900001084,['c'],1,left,['0'],6,0.5162788999987242,0.1,0,FastFast,19,19,Woman,Right,
28,5,1,0.48408740000013495,['n'],1,right,['0'],6,0.2678780000005645,0.4,0,FastFast,19,19,Woman,Right,
29,5,1,0.4680224999992788,['c'],1,left,['0'],6,0.30155650000051537,0.2,0,FastFast,19,19,Woman,Right,
30,5,1,1.2329804999990301,['n'],1,right,['9'],5,0.6193972999990365,0.1,0,FastFast,19,19,Woman,Right,
31,5,1,0.8003441000000748,['n'],1,right,['0'],6,0.3013522000001103,0.4,0,FastFast,19,19,Woman,Right,
32,5,1,0.617282700000942,['c'],0,right,['1'],1,1.3010264999993524,0.4,0,FastFast,19,19,Woman,Right,
33,5,1,1.1178326999997807,['c'],0,right,['2'],2,0.4513310999991518,0.1,0,FastFast,19,19,Woman,Right,
34,5,1,1.216971600000761,['c'],1,left,['0'],6,0.28421179999895685,0.4,0,FastFast,19,19,Woman,Right,
35,5,1,2.31655580000006,['n'],0,left,['9'],5,0.3022547999989911,0.2,0,FastFast,19,19,Woman,Right,
36,5,1,0.8499219000004814,['n'],1,right,['0'],6,0.6513536000002205,0.4,0,FastFast,19,19,Woman,Right,
37,5,1,0.6327038999988872,['c'],0,right,['0'],6,0.38538429999971413,0.1,0,FastFast,19,19,Woman,Right,
38,5,1,0.6504451999990124,['n'],1,right,['0'],6,0.3667093999993085,0.4,0,FastFast,19,19,Woman,Right,
39,5,1,0.8510889999997744,['c'],0,right,['9'],5,0.6844141999990825,0.1,0,FastFast,19,19,Woman,Right,
40,5,1,0.7670324999999139,['n'],1,right,['9'],5,0.25133739999910176,0.1,0,FastFast,19,19,Woman,Right,
41,5,1,0.6338140000007115,['c'],1,left,['9'],5,0.33474519999981567,0.4,0,FastFast,19,19,Woman,Right,
42,5,1,0.6014934000013454,['n'],1,right,['9'],5,0.2848770999989938,0.1,0,FastFast,19,19,Woman,Right,
43,5,1,0.5681842000012693,['c'],1,left,['9'],5,0.28482159999839496,0.2,0,FastFast,19,19,Woman,Right,
44,5,1,0.7664602000004379,['n'],1,right,['0'],6,0.5016888999998628,0.4,0,FastFast,19,19,Woman,Right,
45,5,1,0.7338390000004438,['n'],0,left,['0'],6,0.35118660000080126,0.1,0,FastFast,19,19,Woman,Right,
46,5,1,0.8835603999996238,['n'],0,left,['0'],6,0.35023439999895345,0.4,0,FastFast,19,19,Woman,Right,
47,5,1,0.6996753000003082,['n'],1,right,['0'],6,0.26860599999963597,0.2,0,FastFast,19,19,Woman,Right,
48,5,1,0.7168483999994351,['n'],1,right,['0'],6,0.26660350000020117,0.1,0,FastFast,19,19,Woman,Right,
49,5,1,0.6175565000012284,['c'],1,left,['0'],6,0.3334696999991138,0.4,0,FastFast,19,19,Woman,Right,
50,5,1,0.7508917000013753,['n'],1,right,['0'],6,0.23441429999911634,0.4,0,FastFast,19,19,Woman,Right,
51,5,1,1.366977499999848,['c'],0,right,['0'],6,0.25152820000039355,0.2,0,FastFast,19,19,Woman,Right,
52,5,1,0.5997446000001219,['c'],1,left,['0'],6,0.40018310000050406,0.4,0,FastFast,19,19,Woman,Right,
53,5,1,1.13355650000085,['c'],1,left,['9'],5,0.30173979999926814,0.2,0,FastFast,19,19,Woman,Right,
54,5,1,1.1843678999994154,['c'],1,left,['9'],5,0.18445490000158316,0.1,0,FastFast,19,19,Woman,Right,
55,5,1,0.46693690000029164,['c'],1,left,['0'],6,0.5011786999984906,0.4,0,FastFast,19,19,Woman,Right,
56,5,1,0.9006512999985716,['n'],1,right,['0'],6,0.18482529999891995,0.4,0,FastFast,19,19,Woman,Right,
57,5,1,0.6171481000001222,['c'],1,left,['0'],6,0.21776600000157487,0.2,0,FastFast,19,19,Woman,Right,
58,5,1,0.5159672000008868,['c'],1,left,['0'],6,0.26891190000060305,0.4,0,FastFast,19,19,Woman,Right,
59,5,1,0.683428800000911,['n'],1,right,['9'],5,0.28480020000097284,0.2,0,FastFast,19,19,Woman,Right,
0,6,1,1.9177566000016668,['n'],1,right,['0'],6,0.3515951999997924,0.1,0,AccFast,19,19,Woman,Right,
1,6,1,0.9838037000008626,['n'],1,right,['0'],6,0.2175227999996423,0.1,0,AccFast,19,19,Woman,Right,
2,6,1,0.8661564000012731,['n'],1,right,['0'],6,0.13462120000076538,0.4,0,AccFast,19,19,Woman,Right,
3,6,1,0.6992078000002948,['c'],1,left,['0'],6,0.20033539999894856,0.2,0,AccFast,19,19,Woman,Right,
4,6,1,0.5841306000002078,['c'],1,left,['0'],6,0.16811369999959425,0.4,0,AccFast,19,19,Woman,Right,
5,6,1,0.5489771000011388,['n'],1,right,['0'],6,0.185982499999227,0.4,0,AccFast,19,19,Woman,Right,
6,6,1,0.4823434999998426,['c'],0,right,['0'],6,0.2010573999996268,0.1,0,AccFast,19,19,Woman,Right,
7,6,1,0.6338723999997455,['n'],1,right,['0'],6,0.20003920000090147,0.4,0,AccFast,19,19,Woman,Right,
8,6,1,2.6168545999989874,['n'],1,right,['0'],6,0.1681282999998075,0.1,0,AccFast,19,19,Woman,Right,
9,6,1,1.016448299998956,['c'],1,left,['0'],6,0.48491549999926065,0.2,0,AccFast,19,19,Woman,Right,
10,6,1,1.2501907000005303,['n'],0,left,['0'],6,0.2350256999998237,0.1,0,AccFast,19,19,Woman,Right,
11,6,1,0.749603100000968,['n'],0,left,['9'],5,0.21820480000133102,0.2,0,AccFast,19,19,Woman,Right,
12,6,1,0.6337862999989738,['n'],1,right,['0'],6,0.20136379999894416,0.2,0,AccFast,19,19,Woman,Right,
13,6,1,0.5818440000002738,['n'],1,right,['0'],6,0.1685845000010886,0.1,0,AccFast,19,19,Woman,Right,
14,6,1,0.5826108999990538,['n'],1,right,['0'],6,0.2188123000014457,0.4,0,AccFast,19,19,Woman,Right,
15,6,1,0.5986110000012559,['c'],1,left,['0'],6,0.7188731000005646,0.4,0,AccFast,19,19,Woman,Right,
16,6,1,1.132874000000811,['c'],1,left,['0'],6,0.31803109999964363,0.1,0,AccFast,19,19,Woman,Right,
17,6,1,2.0494627000007313,['n'],0,left,['0'],6,0.31697869999879913,0.1,0,AccFast,19,19,Woman,Right,
18,6,1,0.46710239999993064,['n'],1,right,['0'],6,0.18556980000175827,0.4,0,AccFast,19,19,Woman,Right,
19,6,1,0.6171456000010949,['n'],0,left,['0'],6,0.21803100000033737,0.1,0,AccFast,19,19,Woman,Right,
20,6,1,0.9004725999984657,['n'],0,left,['0'],6,0.20132360000025074,0.2,0,AccFast,19,19,Woman,Right,
21,6,1,0.6170757999989291,['n'],0,left,['0'],6,0.28548200000113866,0.2,0,AccFast,19,19,Woman,Right,
22,6,1,0.5999023999993369,['n'],1,right,['0'],6,0.21817409999857773,0.2,0,AccFast,19,19,Woman,Right,
23,6,1,0.7014860999988741,['n'],1,right,['0'],6,0.25154509999993024,0.1,0,AccFast,19,19,Woman,Right,
24,6,1,0.6335791000001336,['n'],0,left,['0'],6,0.31772540000019944,0.2,0,AccFast,19,19,Woman,Right,
25,6,1,0.7001258000000234,['n'],0,left,['0'],6,0.23402209999949264,0.4,0,AccFast,19,19,Woman,Right,
26,6,1,0.6675645999985136,['n'],1,right,['0'],6,0.18482200000107696,0.1,0,AccFast,19,19,Woman,Right,
27,6,1,0.5005213000004005,['n'],1,right,['0'],6,0.23400050000054762,0.1,0,AccFast,19,19,Woman,Right,
28,6,1,0.5660220999998273,['n'],1,right,['0'],6,0.2519428000014159,0.4,0,AccFast,19,19,Woman,Right,
29,6,1,0.5673321000012947,['n'],1,right,['0'],6,0.20136049999928218,0.4,0,AccFast,19,19,Woman,Right,
30,6,1,1.9992896999992809,['n'],0,left,['9'],5,0.21738340000047174,0.2,0,AccFast,19,19,Woman,Right,
31,6,1,0.7986029000003327,['c'],1,left,['9'],5,0.25274890000036976,0.2,0,AccFast,19,19,Woman,Right,
32,6,1,1.6013457999997627,['c'],1,left,['0'],6,0.28526829999827896,0.1,0,AccFast,19,19,Woman,Right,
33,6,1,1.3169936000012967,['c'],0,right,['0'],6,0.1681668000001082,0.1,0,AccFast,19,19,Woman,Right,
34,6,1,0.7672885000010865,['n'],0,left,['0'],6,0.23399070000050415,0.1,0,AccFast,19,19,Woman,Right,
35,6,1,0.9179524999999558,['n'],1,right,['0'],6,0.1513792999994621,0.4,0,AccFast,19,19,Woman,Right,
36,6,1,0.6338054000007105,['n'],1,right,['0'],6,0.21833580000020447,0.4,0,AccFast,19,19,Woman,Right,
37,6,1,0.5826584000005823,['n'],1,right,['0'],6,0.2022454000016296,0.4,0,AccFast,19,19,Woman,Right,
38,6,1,1.0177820999997493,['c'],1,left,['0'],6,0.16819030000078783,0.2,0,AccFast,19,19,Woman,Right,
39,6,1,0.517018200000166,['c'],1,left,['0'],6,0.25130949999947916,0.4,0,AccFast,19,19,Woman,Right,
40,6,1,1.1340688000000227,['n'],0,left,['9'],5,0.3185742999994545,0.1,0,AccFast,19,19,Woman,Right,
41,6,1,0.7844882999997935,['n'],1,right,['9'],5,0.1848333999987517,0.2,0,AccFast,19,19,Woman,Right,
42,6,1,1.4675865999997768,['c'],1,left,['0'],6,0.18470650000017486,0.2,0,AccFast,19,19,Woman,Right,
43,6,1,0.5005192999997234,['c'],1,left,['0'],6,0.4664847000003647,0.2,0,AccFast,19,19,Woman,Right,
44,6,1,1.534191099999589,['n'],0,left,['0'],6,0.2849251000006916,0.2,0,AccFast,19,19,Woman,Right,
45,6,1,3.949968999999328,['c'],0,right,['8'],4,0.9014029999998456,0.2,0,AccFast,19,19,Woman,Right,
46,6,1,0.8832442000002629,['c'],1,left,['0'],6,0.38594109999939974,0.4,0,AccFast,19,19,Woman,Right,
47,6,1,0.6172494000002189,['c'],1,left,['0'],6,0.283579799999643,0.4,0,AccFast,19,19,Woman,Right,
48,6,1,0.7006488999995781,['n'],1,right,['0'],6,0.23439519999919867,0.1,0,AccFast,19,19,Woman,Right,
49,6,1,0.6338814999999158,['n'],1,right,['0'],6,0.3344192999993538,0.4,0,AccFast,19,19,Woman,Right,
50,6,1,1.151495000000068,['n'],0,left,['0'],6,0.18450789999951667,0.1,0,AccFast,19,19,Woman,Right,
51,6,1,2.1339672000012797,['n'],1,right,['8'],4,0.6346606999995856,0.1,0,AccFast,19,19,Woman,Right,
52,6,1,0.7840175999990606,['n'],0,left,['0'],6,0.3181723999987298,0.4,0,AccFast,19,19,Woman,Right,
53,6,1,0.40067570000064734,['n'],1,right,['0'],6,0.33482700000058685,0.2,0,AccFast,19,19,Woman,Right,
54,6,1,1.5170899999993708,['n'],0,left,['0'],6,0.20144510000136506,0.2,0,AccFast,19,19,Woman,Right,
55,6,1,0.700623300001098,['n'],1,right,['9'],5,0.3181760999996186,0.1,0,AccFast,19,19,Woman,Right,
56,6,1,0.7335949999996956,['n'],1,right,['0'],6,0.25201820000074804,0.4,0,AccFast,19,19,Woman,Right,
57,6,1,2.0838000000003376,['c'],1,left,['0'],6,0.7178175000008196,0.2,0,AccFast,19,19,Woman,Right,
58,6,1,0.6172108999999182,['c'],1,left,['0'],6,0.16813330000150017,0.4,0,AccFast,19,19,Woman,Right,
59,6,1,0.8498041000002559,['n'],1,right,['0'],6,0.18466449999868928,0.2,0,AccFast,19,19,Woman,Right,
0,7,1,1.1682540000001609,['n'],1,right,['0'],6,0.3845865000002959,0.4,0,AccAcc,19,19,Woman,Right,
1,7,1,1.8003980000012234,['n'],1,right,['0'],6,0.2847885999999562,0.2,0,AccAcc,19,19,Woman,Right,
2,7,1,0.7506446999996115,['c'],1,left,['0'],6,0.2685505999997986,0.2,0,AccAcc,19,19,Woman,Right,
3,7,1,0.6331085999991046,['n'],1,right,['0'],6,0.3181346000001213,0.2,0,AccAcc,19,19,Woman,Right,
4,7,1,0.5830143999992288,['n'],1,right,['0'],6,0.2848787999992055,0.4,0,AccAcc,19,19,Woman,Right,
5,7,1,1.067029800000455,['c'],1,left,['9'],5,1.0513212000005296,0.2,0,AccAcc,19,19,Woman,Right,
6,7,1,1.384010699999635,['c'],1,left,['8'],4,0.30049309999958496,0.1,0,AccAcc,19,19,Woman,Right,
7,7,1,0.6171702000010555,['c'],1,left,['0'],6,0.26803909999944153,0.2,0,AccAcc,19,19,Woman,Right,
8,7,1,0.6331154999988939,['n'],1,right,['0'],6,0.4512968999988516,0.4,0,AccAcc,19,19,Woman,Right,
9,7,1,1.3492560999984562,['n'],1,right,['0'],6,0.23480580000068585,0.4,0,AccAcc,19,19,Woman,Right,
10,7,1,0.7171414000004006,['n'],1,right,['0'],6,0.21800009999969916,0.4,0,AccAcc,19,19,Woman,Right,
11,7,1,0.7176804000009724,['c'],1,left,['0'],6,0.18452669999896898,0.4,0,AccAcc,19,19,Woman,Right,
12,7,1,0.700389499999801,['c'],1,left,['0'],6,0.25091210000027786,0.4,0,AccAcc,19,19,Woman,Right,
13,7,1,1.350723300000027,['n'],1,right,['0'],6,0.35131319999891275,0.1,0,AccAcc,19,19,Woman,Right,
14,7,1,0.5669117999987066,['c'],1,left,['0'],6,0.23497609999867564,0.2,0,AccAcc,19,19,Woman,Right,
15,7,1,1.5659973000001628,['n'],1,right,['0'],6,0.285591599998952,0.1,0,AccAcc,19,19,Woman,Right,
16,7,1,1.6503618999995524,['n'],0,left,['9'],5,0.3181137999999919,0.1,0,AccAcc,19,19,Woman,Right,
17,7,1,0.683683100000053,['c'],1,left,['0'],6,0.2681498999991163,0.2,0,AccAcc,19,19,Woman,Right,
18,7,1,0.8003506999993988,['n'],1,right,['0'],6,0.2513226000010036,0.2,0,AccAcc,19,19,Woman,Right,
19,7,1,0.7332905000002938,['n'],1,right,['0'],6,0.38370510000095237,0.4,0,AccAcc,19,19,Woman,Right,
20,7,1,0.7176314999996976,['c'],1,left,['9'],5,0.30111029999898165,0.1,0,AccAcc,19,19,Woman,Right,
21,7,1,1.3835553000008076,['c'],1,left,['8'],4,1.1014484999996057,0.2,0,AccAcc,19,19,Woman,Right,
22,7,1,1.8170133000003261,['c'],1,left,['0'],6,0.23358359999838285,0.4,0,AccAcc,19,19,Woman,Right,
23,7,1,3.7505541000009543,['c'],1,left,['0'],6,0.20045010000103503,0.2,0,AccAcc,19,19,Woman,Right,
24,7,1,1.399790400000711,['c'],1,left,['9'],5,0.13378699999884702,0.2,0,AccAcc,19,19,Woman,Right,
25,7,1,1.9502995000002556,['n'],0,left,['9'],5,0.25137829999948735,0.1,0,AccAcc,19,19,Woman,Right,
26,7,1,1.749571599999399,['c'],1,left,['0'],6,0.14999940000052447,0.2,0,AccAcc,19,19,Woman,Right,
27,7,1,1.201113400000395,['c'],1,left,['9'],5,0.3503626000001532,0.2,0,AccAcc,19,19,Woman,Right,
28,7,1,1.0338062000009813,['c'],1,left,['9'],5,0.3177572999993572,0.1,0,AccAcc,19,19,Woman,Right,
29,7,1,2.0163448999992397,['n'],0,left,['0'],6,0.45145009999941976,0.1,0,AccAcc,19,19,Woman,Right,
30,7,1,1.5672623999998905,['n'],1,right,['0'],6,0.2847743999991508,0.2,0,AccAcc,19,19,Woman,Right,
31,7,1,1.5011673999997583,['n'],1,right,['0'],6,0.23497219999990193,0.2,0,AccAcc,19,19,Woman,Right,
32,7,1,1.3825092999995832,['n'],1,right,['0'],6,0.2686550000016723,0.1,0,AccAcc,19,19,Woman,Right,
33,7,1,0.9828484999998182,['n'],1,right,['0'],6,0.43525210000007064,0.1,0,AccAcc,19,19,Woman,Right,
34,7,1,0.9331753999995271,['c'],1,left,['0'],6,0.21819239999967976,0.2,0,AccAcc,19,19,Woman,Right,
35,7,1,0.7170663999986573,['n'],1,right,['0'],6,0.2166919000010239,0.4,0,AccAcc,19,19,Woman,Right,
36,7,1,0.6007691000013438,['n'],1,right,['0'],6,0.21814269999958924,0.4,0,AccAcc,19,19,Woman,Right,
37,7,1,1.2327698999997665,['n'],1,right,['0'],6,0.251221099999384,0.1,0,AccAcc,19,19,Woman,Right,
38,7,1,0.6337698999996064,['c'],1,left,['0'],6,0.28468919999977516,0.2,0,AccAcc,19,19,Woman,Right,
39,7,1,0.7674647000003461,['n'],1,right,['0'],6,0.21696069999961765,0.2,0,AccAcc,19,19,Woman,Right,
40,7,1,0.6341847999992751,['c'],1,left,['0'],6,0.2844440000008035,0.4,0,AccAcc,19,19,Woman,Right,
41,7,1,0.7671683999997185,['n'],0,left,['0'],6,0.20140470000114874,0.1,0,AccAcc,19,19,Woman,Right,
42,7,1,0.9670928999985335,['n'],1,right,['0'],6,0.3679489999994985,0.2,0,AccAcc,19,19,Woman,Right,
43,7,1,0.9669960999999603,['n'],1,right,['9'],5,0.16809739999916928,0.1,0,AccAcc,19,19,Woman,Right,
44,7,1,0.9501643000003241,['c'],1,left,['0'],6,0.3345857000003889,0.4,0,AccAcc,19,19,Woman,Right,
45,7,1,0.9172546999998303,['n'],1,right,['0'],6,0.11735489999955462,0.4,0,AccAcc,19,19,Woman,Right,
46,7,1,1.8004916000008961,['n'],1,right,['0'],6,0.20032119999996212,0.1,0,AccAcc,19,19,Woman,Right,
47,7,1,0.7511833000007755,['c'],1,left,['9'],5,0.2346519000002445,0.4,0,AccAcc,19,19,Woman,Right,
48,7,1,0.7671907000003557,['c'],1,left,['0'],6,0.18475349999971513,0.4,0,AccAcc,19,19,Woman,Right,
49,7,1,0.8175332999999227,['n'],1,right,['0'],6,0.25130629999875964,0.4,0,AccAcc,19,19,Woman,Right,
50,7,1,1.4671073000008619,['c'],1,left,['0'],6,0.20038369999929273,0.4,0,AccAcc,19,19,Woman,Right,
51,7,1,1.0179463000004034,['n'],1,right,['0'],6,0.20137109999996028,0.1,0,AccAcc,19,19,Woman,Right,
52,7,1,2.5177167000001646,['n'],1,right,['9'],5,0.21817670000018552,0.1,0,AccAcc,19,19,Woman,Right,
53,7,1,0.9671531000003597,['n'],1,right,['0'],6,0.18545040000026347,0.4,0,AccAcc,19,19,Woman,Right,
54,7,1,1.3841902000003756,['c'],1,left,['0'],6,0.21833560000050056,0.1,0,AccAcc,19,19,Woman,Right,
55,7,1,2.6835203999999067,['n'],0,left,['0'],6,0.15108929999951215,0.1,0,AccAcc,19,19,Woman,Right,
56,7,1,0.8673997000005329,['n'],1,right,['0'],6,0.2514408999995794,0.4,0,AccAcc,19,19,Woman,Right,
57,7,1,0.9344969999983732,['n'],1,right,['0'],6,0.6177936000003683,0.1,0,AccAcc,19,19,Woman,Right,
58,7,1,3.2170341000000917,['n'],1,right,['0'],6,0.20147799999904237,0.2,0,AccAcc,19,19,Woman,Right,
59,7,1,1.2002389999997831,['n'],0,left,['0'],6,0.1513835999994626,0.1,0,AccAcc,19,19,Woman,Right,
0,8,1,1.4008803999986412,['c'],1,left,['0'],6,0.31808470000032685,0.2,0,FastAcc,19,19,Woman,Right,
1,8,1,1.1660876000005373,['n'],1,right,['0'],6,0.1677417000009882,0.1,0,FastAcc,19,19,Woman,Right,
2,8,1,0.6174012999999832,['c'],1,left,['0'],6,0.16669290000027104,0.2,0,FastAcc,19,19,Woman,Right,
3,8,1,0.6676163000011002,['n'],1,right,['9'],5,0.3348593999999139,0.4,0,FastAcc,19,19,Woman,Right,
4,8,1,0.6336907999993855,['n'],1,right,['0'],6,0.35076139999910083,0.4,0,FastAcc,19,19,Woman,Right,
5,8,1,1.283721499999956,['n'],0,left,['9'],5,0.26832739999917976,0.1,0,FastAcc,19,19,Woman,Right,
6,8,1,0.6001285000002099,['n'],1,right,['0'],6,0.2504126999992877,0.2,0,FastAcc,19,19,Woman,Right,
7,8,1,0.7662657000000763,['n'],0,left,['0'],6,0.1682490000002872,0.1,0,FastAcc,19,19,Woman,Right,
8,8,1,0.7003112000002147,['n'],1,right,['0'],6,0.23470559999987017,0.4,0,FastAcc,19,19,Woman,Right,
9,8,1,0.46594530000038503,['c'],1,left,['0'],6,0.23545430000012857,0.2,0,FastAcc,19,19,Woman,Right,
10,8,1,0.4999356999996962,['c'],1,left,['0'],6,0.21789540000099805,0.4,0,FastAcc,19,19,Woman,Right,
11,8,1,0.7506945999994059,['n'],1,right,['0'],6,0.16799360000004526,0.2,0,FastAcc,19,19,Woman,Right,
12,8,1,0.5167871000012383,['n'],1,right,['0'],6,0.4682005000013305,0.4,0,FastAcc,19,19,Woman,Right,
13,8,1,0.8169465999999375,['c'],1,left,['0'],6,0.3848825000004581,0.1,0,FastAcc,19,19,Woman,Right,
14,8,1,1.1335570000010193,['n'],1,right,['9'],5,0.23458969999956025,0.4,0,FastAcc,19,19,Woman,Right,
15,8,1,0.7990737000000081,['n'],0,left,['0'],6,0.21825859999989916,0.1,0,FastAcc,19,19,Woman,Right,
16,8,1,1.316608200000701,['n'],0,left,['0'],6,0.3353139999999257,0.4,0,FastAcc,19,19,Woman,Right,
17,8,1,1.3994516000002477,['c'],1,left,['0'],6,0.23467680000067048,0.2,0,FastAcc,19,19,Woman,Right,
18,8,1,0.5831591000005574,['c'],1,left,['0'],6,0.18467260000034003,0.2,0,FastAcc,19,19,Woman,Right,
19,8,1,0.9838514999992185,['n'],1,right,['9'],5,0.35011970000050496,0.2,0,FastAcc,19,19,Woman,Right,
20,8,1,0.9837009999992006,['n'],1,right,['0'],6,0.20189290000053006,0.4,0,FastAcc,19,19,Woman,Right,
21,8,1,1.28310269999929,['n'],0,left,['0'],6,0.23533519999909913,0.4,0,FastAcc,19,19,Woman,Right,
22,8,1,0.8500423999994382,['n'],1,right,['0'],6,0.13483909999922616,0.1,0,FastAcc,19,19,Woman,Right,
23,8,1,1.8327294000009715,['n'],0,left,['0'],6,0.4676533000001655,0.4,0,FastAcc,19,19,Woman,Right,
24,8,1,0.634219600000506,['n'],1,right,['0'],6,0.20121389999985695,0.2,0,FastAcc,19,19,Woman,Right,
25,8,1,2.1333119999999326,['n'],1,right,['0'],6,0.16823759999897447,0.2,0,FastAcc,19,19,Woman,Right,
26,8,1,2.450953599998684,['n'],1,right,['0'],6,0.2513581000002887,0.2,0,FastAcc,19,19,Woman,Right,
27,8,1,1.2336290999992343,['n'],0,left,['0'],6,0.1513740999998845,0.1,0,FastAcc,19,19,Woman,Right,
28,8,1,0.7834275000004709,['n'],1,right,['9'],5,0.18345370000133698,0.4,0,FastAcc,19,19,Woman,Right,
29,8,1,0.6840787000001001,['c'],1,left,['9'],5,0.18497389999902225,0.1,0,FastAcc,19,19,Woman,Right,
30,8,1,1.4337025999993784,['c'],1,left,['8'],4,0.801384299998972,0.1,0,FastAcc,19,19,Woman,Right,
31,8,1,1.9998062000013306,['n'],0,left,['0'],6,0.15073949999896286,0.1,0,FastAcc,19,19,Woman,Right,
32,8,1,0.7006294000002526,['n'],1,right,['0'],6,0.16674700000112352,0.2,0,FastAcc,19,19,Woman,Right,
33,8,1,0.6170669999992242,['c'],1,left,['0'],6,0.2845271000005596,0.4,0,FastAcc,19,19,Woman,Right,
34,8,1,0.8669797000002291,['n'],0,left,['0'],6,0.2166471000000456,0.1,0,FastAcc,19,19,Woman,Right,
35,8,1,0.8014220999993995,['c'],1,left,['9'],5,0.7832202999998117,0.4,0,FastAcc,19,19,Woman,Right,
36,8,1,0.8843484000008175,['c'],1,left,['9'],5,0.1847940000006929,0.4,0,FastAcc,19,19,Woman,Right,
37,8,1,1.4501784000003681,['c'],1,left,['3'],3,0.7680233999999473,0.1,0,FastAcc,19,19,Woman,Right,
38,8,1,1.2336996000012732,['n'],1,right,['0'],6,0.1347435999996378,0.4,0,FastAcc,19,19,Woman,Right,
39,8,1,1.1011539000010089,['c'],0,right,['0'],6,0.2847641999996995,0.1,0,FastAcc,19,19,Woman,Right,
40,8,1,0.9839658999990206,['n'],0,left,['9'],5,0.28510170000117796,0.1,0,FastAcc,19,19,Woman,Right,
41,8,1,0.7503402000002097,['c'],0,right,['0'],6,0.35144899999977497,0.2,0,FastAcc,19,19,Woman,Right,
42,8,1,0.9493531999996776,['n'],1,right,['9'],5,0.20214779999878374,0.2,0,FastAcc,19,19,Woman,Right,
43,8,1,0.7827236000011908,['n'],1,right,['0'],6,0.18520290000014938,0.4,0,FastAcc,19,19,Woman,Right,
44,8,1,0.8485586000006151,['n'],1,right,['0'],6,0.15130839999983436,0.2,0,FastAcc,19,19,Woman,Right,
45,8,1,0.44964040000013483,['n'],1,right,"['0', '9']",6,0.16819089999989956,0.2,0,FastAcc,19,19,Woman,Right,
46,8,1,0.6995827999999165,['n'],1,right,['9'],5,0.1020050999995874,0.2,0,FastAcc,19,19,Woman,Right,
47,8,1,0.9501992000004975,['c'],0,right,['9'],5,0.3999677000010706,0.1,0,FastAcc,19,19,Woman,Right,
48,8,1,0.8010065999988001,['c'],1,left,['9'],5,0.2011612000005698,0.2,0,FastAcc,19,19,Woman,Right,
49,8,1,0.8003082999985054,['n'],1,right,['0'],6,0.4180458999999246,0.4,0,FastAcc,19,19,Woman,Right,
50,8,1,1.249593399999867,['c'],1,left,['0'],6,0.20113359999959357,0.4,0,FastAcc,19,19,Woman,Right,
51,8,1,0.666939700000512,['c'],1,left,['0'],6,0.26806670000041777,0.2,0,FastAcc,19,19,Woman,Right,
52,8,1,1.0005135999999766,['c'],1,left,['0'],6,0.35152650000054564,0.1,0,FastAcc,19,19,Woman,Right,
53,8,1,0.767089599999963,['c'],0,right,['0'],6,0.43352819999927306,0.1,0,FastAcc,19,19,Woman,Right,
54,8,1,1.4009461999994528,['c'],1,left,['0'],6,0.4504531999991741,0.2,0,FastAcc,19,19,Woman,Right,
55,8,1,0.6991266999993968,['c'],1,left,['0'],6,0.1835375999999087,0.4,0,FastAcc,19,19,Woman,Right,
56,8,1,0.7171493000005285,['c'],0,right,['0'],6,0.20066139999835286,0.1,0,FastAcc,19,19,Woman,Right,
57,8,1,0.6674289000002318,['c'],0,right,['9'],5,0.28520899999966787,0.1,0,FastAcc,19,19,Woman,Right,
58,8,1,1.8996000999995886,['c'],0,right,['8'],4,0.36724970000068424,0.1,0,FastAcc,19,19,Woman,Right,
59,8,1,1.516859999999724,['c'],1,left,['8'],4,0.21799129999999423,0.4,0,FastAcc,19,19,Woman,Right,
0,9,1,1.4180283999994572,['c'],1,left,['0'],6,0.16757830000096874,0.4,0,FastFast,19,19,Woman,Right,
1,9,1,0.8833752999998978,['c'],1,left,['9'],5,0.23480279999967024,0.1,0,FastFast,19,19,Woman,Right,
2,9,1,0.7336216999992757,['c'],1,left,['9'],5,0.3349193000012747,0.1,0,FastFast,19,19,Woman,Right,
3,9,1,0.5005264999999781,['c'],1,left,['9'],5,0.13343029999850842,0.4,0,FastFast,19,19,Woman,Right,
4,9,1,0.4000154000004841,['n'],1,right,['0'],6,0.18470259999958216,0.2,0,FastFast,19,19,Woman,Right,
5,9,1,0.41694039999856614,['c'],1,left,['0'],6,0.15149810000002617,0.4,0,FastFast,19,19,Woman,Right,
6,9,1,0.4490055000005668,['n'],1,right,['0'],6,0.13572959999874,0.4,0,FastFast,19,19,Woman,Right,
7,9,1,0.45097379999970144,['c'],1,left,['0'],6,0.1346517000001768,0.2,0,FastFast,19,19,Woman,Right,
8,9,1,0.6336476000014954,['n'],0,left,['0'],6,0.16821019999952114,0.2,0,FastFast,19,19,Woman,Right,
9,9,1,0.44985189999897557,['c'],1,left,['0'],6,0.2335359000007884,0.2,0,FastFast,19,19,Woman,Right,
10,9,1,0.6664901000003738,['c'],1,left,['1'],1,0.18484360000002198,0.2,0,FastFast,19,19,Woman,Right,
11,9,1,1.1997714999997697,['c'],1,left,['0'],6,0.2347341000004235,0.2,0,FastFast,19,19,Woman,Right,
12,9,1,0.7507005999996181,['n'],1,right,['0'],6,0.301273900000524,0.2,0,FastFast,19,19,Woman,Right,
13,9,1,0.5829383000000234,['c'],1,left,['0'],6,0.1523151000001235,0.2,0,FastFast,19,19,Woman,Right,
14,9,1,0.5504645999990316,['n'],1,right,['0'],6,0.18481229999997595,0.1,0,FastFast,19,19,Woman,Right,
15,9,1,0.8003962000002502,['c'],1,left,['0'],6,0.15198439999949187,0.4,0,FastFast,19,19,Woman,Right,
16,9,1,0.5669530000013765,['n'],1,right,['0'],6,0.25210189999961585,0.1,0,FastFast,19,19,Woman,Right,
17,9,1,1.4840008999999554,['n'],1,right,['0'],6,0.10255770000003395,0.4,0,FastFast,19,19,Woman,Right,
18,9,1,0.6498537000006763,['c'],0,right,['1'],1,0.650975999998991,0.4,0,FastFast,19,19,Woman,Right,
19,9,1,0.6005832999999257,['c'],1,left,['0'],6,0.20068690000152856,0.4,0,FastFast,19,19,Woman,Right,
20,9,1,0.700531399999818,['n'],1,right,['0'],6,0.18468790000042645,0.4,0,FastFast,19,19,Woman,Right,
21,9,1,0.8837273000008281,['n'],0,left,['0'],6,0.6835482999995293,0.1,0,FastFast,19,19,Woman,Right,
22,9,1,1.301003500000661,['n'],0,left,['0'],6,0.16744420000031823,0.1,0,FastFast,19,19,Woman,Right,
23,9,1,0.9332178000004205,['n'],0,left,['0'],6,0.1848675999990519,0.1,0,FastFast,19,19,Woman,Right,
24,9,1,0.8332590999998502,['n'],0,left,['0'],6,0.2857531999998173,0.1,0,FastFast,19,19,Woman,Right,
25,9,1,1.633199900001273,['n'],0,left,['0'],6,0.2503173000004608,0.2,0,FastFast,19,19,Woman,Right,
26,9,1,0.8834249999999884,['n'],1,right,['0'],6,0.16918040000018664,0.1,0,FastFast,19,19,Woman,Right,
27,9,1,1.5171540999999706,['c'],1,left,['3'],3,0.2675997999995161,0.4,0,FastFast,19,19,Woman,Right,
28,9,1,0.8502475999994203,['n'],1,right,['0'],6,0.1337997999999061,0.1,0,FastFast,19,19,Woman,Right,
29,9,1,1.5506941999992705,['c'],0,right,['8'],4,0.6012799999989511,0.1,0,FastFast,19,19,Woman,Right,
30,9,1,0.7825833999995666,['c'],1,left,['9'],5,0.1358856000006199,0.4,0,FastFast,19,19,Woman,Right,
31,9,1,1.3174381999997422,['n'],1,right,['9'],5,0.1679292999997415,0.2,0,FastFast,19,19,Woman,Right,
32,9,1,1.8837229000000661,['n'],1,right,['9'],5,0.2013981000000058,0.2,0,FastFast,19,19,Woman,Right,
33,9,1,0.9164264999999432,['n'],1,right,['9'],5,0.11809159999938856,0.2,0,FastFast,19,19,Woman,Right,
34,9,1,1.050190300000395,['n'],1,right,['0'],6,0.1501998999992793,0.1,0,FastFast,19,19,Woman,Right,
35,9,1,0.884584299999915,['n'],1,right,['0'],6,0.38480990000061865,0.2,0,FastFast,19,19,Woman,Right,
36,9,1,0.7504674000010709,['n'],0,left,['0'],6,0.10178930000074615,0.2,0,FastFast,19,19,Woman,Right,
37,9,1,1.8831193000005442,['n'],1,right,['8'],4,0.2512635999992199,0.2,0,FastFast,19,19,Woman,Right,
38,9,1,1.2492354000005435,['n'],1,right,['9'],5,0.16902850000042235,0.2,0,FastFast,19,19,Woman,Right,
39,9,1,0.9503817999993771,['c'],0,right,['0'],6,0.3014127999995253,0.1,0,FastFast,19,19,Woman,Right,
40,9,1,0.9006955999993806,['n'],1,right,['9'],5,0.15222629999880155,0.1,0,FastFast,19,19,Woman,Right,
41,9,1,0.8342990999990434,['c'],0,right,['9'],5,1.901380399998743,0.2,0,FastFast,19,19,Woman,Right,
42,9,1,1.451025700000173,['n'],1,right,['0'],6,0.1516475000007631,0.1,0,FastFast,19,19,Woman,Right,
43,9,1,0.8836914999992587,['c'],1,left,['8'],4,0.3852327000004152,0.4,0,FastFast,19,19,Woman,Right,
44,9,1,0.7509497999999439,['n'],0,left,['0'],6,0.18513130000064848,0.1,0,FastFast,19,19,Woman,Right,
45,9,1,1.6670023999995465,['n'],1,right,['9'],5,0.15046069999880274,0.4,0,FastFast,19,19,Woman,Right,
46,9,1,0.7505619000003207,['n'],1,right,['0'],6,0.13533800000004703,0.4,0,FastFast,19,19,Woman,Right,
47,9,1,0.7003781999992498,['n'],1,right,['0'],6,0.21752859999833163,0.1,0,FastFast,19,19,Woman,Right,
48,9,1,0.6003698999993503,['n'],0,left,['0'],6,0.20108439999967231,0.1,0,FastFast,19,19,Woman,Right,
49,9,1,1.0005782999996882,['c'],1,left,['0'],6,0.33475199999884353,0.4,0,FastFast,19,19,Woman,Right,
50,9,1,1.367122699999527,['n'],0,left,['0'],6,0.46707559999958903,0.2,0,FastFast,19,19,Woman,Right,
51,9,1,0.8177727999991475,['c'],1,left,['0'],6,0.1184835000003659,0.4,0,FastFast,19,19,Woman,Right,
52,9,1,0.5831861999995454,['c'],1,left,['0'],6,0.2836354000010033,0.4,0,FastFast,19,19,Woman,Right,
53,9,1,0.6509949999999662,['c'],1,left,['0'],6,0.21757629999956407,0.2,0,FastFast,19,19,Woman,Right,
54,9,1,0.5839325999986613,['c'],1,left,['0'],6,0.15155140000024403,0.4,0,FastFast,19,19,Woman,Right,
55,9,1,0.8337805000010121,['n'],1,right,['0'],6,0.16806290000022273,0.1,0,FastFast,19,19,Woman,Right,
56,9,1,0.7830241000010574,['c'],0,right,['0'],6,0.15081730000019888,0.4,0,FastFast,19,19,Woman,Right,
57,9,1,1.700068599999213,['c'],0,right,['1'],1,0.16738040000018373,0.2,0,FastFast,19,19,Woman,Right,
58,9,1,1.8176087000010739,['n'],1,right,['8'],4,0.23478780000004917,0.4,0,FastFast,19,19,Woman,Right,
59,9,1,1.417908699999316,['c'],0,right,['8'],4,1.0013451999984682,0.1,0,FastFast,19,19,Woman,Right,
0,10,1,2.3178766000000905,['n'],1,right,['8'],4,0.30038109999986773,0.1,0,AccFast,19,19,Woman,Right,
1,10,1,0.6342817999993713,['c'],1,left,['0'],6,0.15094039999894449,0.4,0,AccFast,19,19,Woman,Right,
2,10,1,1.9314346999999543,['n'],0,left,['3'],3,0.23515890000089712,0.1,0,AccFast,19,19,Woman,Right,
3,10,1,0.767790399999285,['c'],1,left,['3'],3,0.16733919999933278,0.4,0,AccFast,19,19,Woman,Right,
4,10,1,0.9666357000005519,['n'],1,right,['0'],6,0.41800010000042676,0.4,0,AccFast,19,19,Woman,Right,
5,10,1,0.5839606999998068,['n'],1,right,['0'],6,0.11810510000032082,0.4,0,AccFast,19,19,Woman,Right,
6,10,1,0.7843341000007058,['n'],1,right,['9'],5,0.14994229999865638,0.2,0,AccFast,19,19,Woman,Right,
7,10,1,0.533444699998654,['c'],1,left,['0'],6,0.16721870000037597,0.2,0,AccFast,19,19,Woman,Right,
8,10,1,1.0177261999997427,['c'],1,left,['9'],5,0.5514555999998265,0.1,0,AccFast,19,19,Woman,Right,
9,10,1,0.632906599999842,['n'],1,right,['0'],6,0.16830429999936314,0.2,0,AccFast,19,19,Woman,Right,
10,10,1,0.7005350999988877,['n'],1,right,['0'],6,0.20130930000050284,0.4,0,AccFast,19,19,Woman,Right,
11,10,1,0.6004890000003797,['c'],1,left,['0'],6,0.151732099999208,0.4,0,AccFast,19,19,Woman,Right,
12,10,1,0.4670213999997941,['n'],1,right,['9'],5,0.2015439000006154,0.1,0,AccFast,19,19,Woman,Right,
13,10,1,0.6503124999999272,['c'],0,right,['9'],5,0.16829499999948894,0.1,0,AccFast,19,19,Woman,Right,
14,10,1,0.8336099999996804,['c'],1,left,['9'],5,0.15105550000043877,0.1,0,AccFast,19,19,Woman,Right,
15,10,1,0.8005057000009401,['c'],0,right,['9'],5,0.218137800000477,0.1,0,AccFast,19,19,Woman,Right,
16,10,1,0.6173049000008177,['c'],1,left,['9'],5,0.15123790000143345,0.4,0,AccFast,19,19,Woman,Right,
17,10,1,0.549926300000152,['c'],1,left,['9'],5,0.25117839999984426,0.4,0,AccFast,19,19,Woman,Right,
18,10,1,0.8672397999998793,['n'],1,right,['9'],5,0.16818720000082976,0.2,0,AccFast,19,19,Woman,Right,
19,10,1,0.7345325000005687,['n'],1,right,['0'],6,0.16823619999922812,0.2,0,AccFast,19,19,Woman,Right,
20,10,1,0.499673399999665,['c'],1,left,['0'],6,0.21695349999936298,0.4,0,AccFast,19,19,Woman,Right,
21,10,1,0.9350142000002961,['c'],1,left,['9'],5,0.18480230000022857,0.1,0,AccFast,19,19,Woman,Right,
22,10,1,0.784023199999865,['n'],0,left,['9'],5,0.15140020000035292,0.1,0,AccFast,19,19,Woman,Right,
23,10,1,1.1341452000015124,['n'],0,left,['8'],4,0.46672790000047826,0.2,0,AccFast,19,19,Woman,Right,
24,10,1,0.7844117000004189,['n'],0,left,['0'],6,0.1513850999999704,0.2,0,AccFast,19,19,Woman,Right,
25,10,1,0.683918700000504,['n'],0,left,['0'],6,0.16757700000016484,0.1,0,AccFast,19,19,Woman,Right,
26,10,1,0.43320330000096874,['n'],1,right,['0'],6,0.1347936000001937,0.1,0,AccFast,19,19,Woman,Right,
27,10,1,0.5493155000003753,['c'],0,right,['9'],5,0.23512510000000475,0.1,0,AccFast,19,19,Woman,Right,
28,10,1,0.33442140000079235,['c'],0,right,['9'],5,0.1016170000002603,0.2,0,AccFast,19,19,Woman,Right,
29,10,1,0.8504412000002048,['c'],1,left,['0'],6,1.1680768000005628,0.4,0,AccFast,19,19,Woman,Right,
30,10,1,0.8326994000017294,['n'],1,right,['0'],6,0.20191730000078678,0.2,0,AccFast,19,19,Woman,Right,
31,10,1,0.7000972000005277,['c'],1,left,['0'],6,0.15207749999899534,0.2,0,AccFast,19,19,Woman,Right,
32,10,1,0.9670514999997977,['n'],1,right,['0'],6,0.18474890000106825,0.1,0,AccFast,19,19,Woman,Right,
33,10,1,0.8835766000011063,['c'],0,right,['0'],6,0.16784699999880104,0.2,0,AccFast,19,19,Woman,Right,
34,10,1,3.9843835000010586,['n'],0,left,['9'],5,0.4840709000000061,0.2,0,AccFast,19,19,Woman,Right,
35,10,1,0.7505779000002804,['n'],1,right,['0'],6,0.26828480000040145,0.1,0,AccFast,19,19,Woman,Right,
36,10,1,1.7821172999992996,['c'],1,left,['9'],5,0.20263709999926505,0.1,0,AccFast,19,19,Woman,Right,
37,10,1,0.7171127000001434,['n'],1,right,['0'],6,0.2015676999999414,0.4,0,AccFast,19,19,Woman,Right,
38,10,1,0.9335317999994004,['c'],0,right,['8'],4,0.26663559999906283,0.1,0,AccFast,19,19,Woman,Right,
39,10,1,0.666059099999984,['c'],1,left,['8'],4,0.1847371000003477,0.4,0,AccFast,19,19,Woman,Right,
40,10,1,0.7666571000008844,['c'],1,left,['9'],5,0.35170360000120127,0.2,0,AccFast,19,19,Woman,Right,
41,10,1,0.882831900000383,['n'],1,right,['0'],6,0.18484200000057172,0.4,0,AccFast,19,19,Woman,Right,
42,10,1,3.5321743999993487,['n'],0,left,['9'],5,0.45239959999889834,0.4,0,AccFast,19,19,Woman,Right,
43,10,1,3.766562000000704,['n'],1,right,['0'],6,0.7840742999997019,0.2,0,AccFast,19,19,Woman,Right,
44,10,1,0.8838455999994039,['c'],1,left,['0'],6,0.16809350000039558,0.4,0,AccFast,19,19,Woman,Right,
45,10,1,0.7157034000010754,['c'],0,right,['0'],6,0.33496070000001055,0.2,0,AccFast,19,19,Woman,Right,
46,10,1,0.5506740000000718,['c'],0,right,['9'],5,0.1332600999994611,0.4,0,AccFast,19,19,Woman,Right,
47,10,1,0.4170259000002261,['c'],0,right,['0'],6,0.20218560000103025,0.1,0,AccFast,19,19,Woman,Right,
48,10,1,0.43346130000099947,['n'],1,right,['9'],5,0.18490550000024086,0.2,0,AccFast,19,19,Woman,Right,
49,10,1,0.7004147000006924,['n'],1,right,['9'],5,0.16799650000029942,0.4,0,AccFast,19,19,Woman,Right,
50,10,1,0.5173324999996112,['c'],1,left,['0'],6,0.2347143999995751,0.1,0,AccFast,19,19,Woman,Right,
51,10,1,0.684552500000791,['n'],0,left,['9'],5,0.1676874000004318,0.1,0,AccFast,19,19,Woman,Right,
52,10,1,0.6176324999996723,['n'],1,right,['9'],5,0.11780680000083521,0.2,0,AccFast,19,19,Woman,Right,
53,10,1,0.5837298999995255,['c'],1,left,['9'],5,0.11883820000002743,0.1,0,AccFast,19,19,Woman,Right,
54,10,1,0.8846862999998848,['c'],1,left,['9'],5,0.16693560000021535,0.4,0,AccFast,19,19,Woman,Right,
55,10,1,1.0508054999991145,['n'],1,right,['0'],6,0.23474019999957818,0.2,0,AccFast,19,19,Woman,Right,
56,10,1,2.0671199999997043,['n'],0,left,['9'],5,0.16802730000017618,0.4,0,AccFast,19,19,Woman,Right,
57,10,1,1.3486295000002428,['c'],1,left,['9'],5,0.1846945000015694,0.2,0,AccFast,19,19,Woman,Right,
58,10,1,1.0668358000002627,['c'],1,left,['0'],6,0.45177760000115086,0.4,0,AccFast,19,19,Woman,Right,
59,10,1,0.9333686999998463,['c'],0,right,['9'],5,0.21746389999862004,0.2,0,AccFast,19,19,Woman,Right,
0,11,1,1.4344214999982796,['n'],0,left,['9'],5,0.11869479999950272,0.1,0,AccAcc,19,19,Woman,Right,
1,11,1,0.9337960999982897,['n'],1,right,['0'],6,0.2671206000013626,0.4,0,AccAcc,19,19,Woman,Right,
2,11,1,0.617717500001163,['c'],1,left,['0'],6,0.16805089999979828,0.4,0,AccAcc,19,19,Woman,Right,
3,11,1,0.5845308999996632,['n'],1,right,['0'],6,0.16829449999931967,0.4,0,AccAcc,19,19,Woman,Right,
4,11,1,0.9838409000003594,['n'],1,right,['9'],5,0.15112089999820455,0.1,0,AccAcc,19,19,Woman,Right,
5,11,1,0.7507458000000042,['c'],1,left,['9'],5,0.1516793000009784,0.1,0,AccAcc,19,19,Woman,Right,
6,11,1,1.3489717999982531,['n'],1,right,['9'],5,0.18545399999857182,0.2,0,AccAcc,19,19,Woman,Right,
7,11,1,1.2173660000007658,['c'],1,left,['9'],5,0.30138889999943785,0.2,0,AccAcc,19,19,Woman,Right,
8,11,1,0.6824789999991481,['n'],1,right,['0'],6,0.16872330000114744,0.2,0,AccAcc,19,19,Woman,Right,
9,11,1,0.6330149999994319,['n'],1,right,['0'],6,0.18476670000018203,0.1,0,AccAcc,19,19,Woman,Right,
10,11,1,0.6504348999987997,['c'],1,left,['0'],6,0.3013620000019728,0.4,0,AccAcc,19,19,Woman,Right,
11,11,1,0.600190900000598,['n'],1,right,['0'],6,0.21787780000158818,0.4,0,AccAcc,19,19,Woman,Right,
12,11,1,0.6169211999986146,['c'],0,right,['1'],1,0.6174063999969803,0.1,0,AccAcc,19,19,Woman,Right,
13,11,1,2.5989694999989297,['c'],1,left,['1'],1,0.17127139999865904,0.4,0,AccAcc,19,19,Woman,Right,
14,11,1,0.854242699999304,['n'],1,right,['0'],6,0.15278029999899445,0.2,0,AccAcc,19,19,Woman,Right,
15,11,1,0.8670412999999826,['c'],1,left,['0'],6,0.16776329999993322,0.4,0,AccAcc,19,19,Woman,Right,
16,11,1,0.6161079999983485,['n'],1,right,['9'],5,0.16709389999959967,0.2,0,AccAcc,19,19,Woman,Right,
17,11,1,0.6503797000004852,['c'],1,left,['0'],6,0.1858007999981055,0.2,0,AccAcc,19,19,Woman,Right,
18,11,1,2.6651467999981833,['n'],0,left,['0'],6,0.3192304999975022,0.2,0,AccAcc,19,19,Woman,Right,
19,11,1,0.5996695000030741,['n'],1,right,['0'],6,0.2016022999996494,0.4,0,AccAcc,19,19,Woman,Right,
20,11,1,0.5834979999999632,['n'],0,left,['9'],5,0.16836200000034296,0.4,0,AccAcc,19,19,Woman,Right,
21,11,1,0.33283050000318326,['c'],1,left,['0'],6,0.21884729999874253,0.2,0,AccAcc,19,19,Woman,Right,
22,11,1,0.6503928999991331,['c'],1,left,['0'],6,0.21731109999745968,0.4,0,AccAcc,19,19,Woman,Right,
23,11,1,0.7010465999992448,['c'],0,right,['0'],6,0.11836789999870234,0.4,0,AccAcc,19,19,Woman,Right,
24,11,1,0.801071599998977,['c'],0,right,['9'],5,0.5847181999997701,0.1,0,AccAcc,19,19,Woman,Right,
25,11,1,0.8159090999979526,['c'],1,left,['0'],6,0.1517998000017542,0.4,0,AccAcc,19,19,Woman,Right,
26,11,1,0.6179660000016156,['c'],0,right,['9'],5,0.2338181999984954,0.2,0,AccAcc,19,19,Woman,Right,
27,11,1,0.982544999998936,['c'],1,left,['9'],5,0.30243939999854774,0.1,0,AccAcc,19,19,Woman,Right,
28,11,1,0.8004792000028829,['c'],1,left,['8'],4,0.2844307999985176,0.2,0,AccAcc,19,19,Woman,Right,
29,11,1,2.283098100000643,['c'],1,left,['0'],6,0.21826030000011087,0.2,0,AccAcc,19,19,Woman,Right,
30,11,1,0.6991266000004543,['n'],1,right,['9'],5,0.2018242999984068,0.2,0,AccAcc,19,19,Woman,Right,
31,11,1,0.9327413999999408,['n'],1,right,['0'],6,0.20133920000080252,0.4,0,AccAcc,19,19,Woman,Right,
32,11,1,0.6172712000006868,['c'],0,right,['0'],6,0.33645070000056876,0.2,0,AccAcc,19,19,Woman,Right,
33,11,1,0.5670909000000393,['c'],1,left,['0'],6,0.1681386999989627,0.2,0,AccAcc,19,19,Woman,Right,
34,11,1,0.5336463000021467,['n'],1,right,['9'],5,0.16884770000251592,0.2,0,AccAcc,19,19,Woman,Right,
35,11,1,0.8177390999990166,['c'],0,right,['9'],5,0.18603299999813316,0.1,0,AccAcc,19,19,Woman,Right,
36,11,1,0.7335499000000709,['c'],1,left,['8'],4,0.18591709999964223,0.1,0,AccAcc,19,19,Woman,Right,
37,11,1,0.8172334000009869,['c'],0,right,['0'],6,0.18333830000119633,0.4,0,AccAcc,19,19,Woman,Right,
38,11,1,0.7178505999982008,['n'],1,right,['0'],6,0.1849952000011399,0.4,0,AccAcc,19,19,Woman,Right,
39,11,1,1.0663097999968159,['n'],1,right,['0'],6,0.3170319000018935,0.2,0,AccAcc,19,19,Woman,Right,
40,11,1,0.7334327999997186,['c'],1,left,['0'],6,0.16802040000038687,0.4,0,AccAcc,19,19,Woman,Right,
41,11,1,0.6341088000008313,['n'],1,right,['0'],6,0.20166729999982635,0.4,0,AccAcc,19,19,Woman,Right,
42,11,1,0.767246300001716,['n'],1,right,['0'],6,0.23493039999812027,0.1,0,AccAcc,19,19,Woman,Right,
43,11,1,0.599876199998107,['n'],0,left,['0'],6,0.3513649999986228,0.1,0,AccAcc,19,19,Woman,Right,
44,11,1,0.6995858000009321,['n'],0,left,['9'],5,0.20188729999790667,0.1,0,AccAcc,19,19,Woman,Right,
45,11,1,0.616921500000899,['c'],0,right,['9'],5,0.13479559999905177,0.2,0,AccAcc,19,19,Woman,Right,
46,11,1,0.4005321999975422,['c'],1,left,['9'],5,0.1347284999974363,0.1,0,AccAcc,19,19,Woman,Right,
47,11,1,0.5671795999987808,['c'],0,right,['0'],6,0.21716789999845787,0.1,0,AccAcc,19,19,Woman,Right,
48,11,1,1.1174585000007937,['c'],1,left,['1'],1,0.21809070000017527,0.2,0,AccAcc,19,19,Woman,Right,
49,11,1,0.9168768000017735,['c'],1,left,['0'],6,0.4012715000026219,0.1,0,AccAcc,19,19,Woman,Right,
50,11,1,1.7838611000006495,['c'],0,right,['8'],4,0.1513360000026296,0.1,0,AccAcc,19,19,Woman,Right,
51,11,1,1.215773199997784,['c'],1,left,['9'],5,0.23436409999703756,0.1,0,AccAcc,19,19,Woman,Right,
52,11,1,2.284088000000338,['c'],1,left,['8'],4,0.1847078999999212,0.1,0,AccAcc,19,19,Woman,Right,
53,11,1,0.851255300000048,['c'],0,right,['9'],5,0.13476769999761018,0.1,0,AccAcc,19,19,Woman,Right,
54,11,1,0.8992066999999224,['n'],1,right,['0'],6,0.1177750000024389,0.4,0,AccAcc,19,19,Woman,Right,
55,11,1,0.7175204999984999,['c'],1,left,['1'],1,0.38482940000176313,0.2,0,AccAcc,19,19,Woman,Right,
56,11,1,2.600299800000357,['n'],1,right,['8'],4,0.15145159999883617,0.1,0,AccAcc,19,19,Woman,Right,
57,11,1,2.8995604000010644,['c'],1,left,['0'],6,0.7847129000001587,0.4,0,AccAcc,19,19,Woman,Right,
58,11,1,0.6512710999995761,['c'],1,left,['0'],6,0.1346187999988615,0.2,0,AccAcc,19,19,Woman,Right,
59,11,1,0.9664358000009088,['c'],1,left,['0'],6,0.201429000000644,0.4,0,AccAcc,19,19,Woman,Right,
0,12,1,0.8337390000015148,['n'],1,right,['0'],6,0.16658240000106161,0.2,0,FastAcc,19,19,Woman,Right,
1,12,1,1.0176823000001605,['c'],1,left,['0'],6,0.16750599999795668,0.1,0,FastAcc,19,19,Woman,Right,
2,12,1,0.5171064000023762,['n'],1,right,['0'],6,0.1679982999994536,0.1,0,FastAcc,19,19,Woman,Right,
3,12,1,0.5505170999967959,['n'],1,right,['0'],6,0.15142629999900237,0.4,0,FastAcc,19,19,Woman,Right,
4,12,1,0.517329599999357,['c'],1,left,['0'],6,0.21818800000255578,0.2,0,FastAcc,19,19,Woman,Right,
5,12,1,0.4177486000007775,['c'],1,left,['0'],6,0.16735930000140797,0.4,0,FastAcc,19,19,Woman,Right,
6,12,1,0.4345262000024377,['c'],1,left,['0'],6,0.15009980000104406,0.4,0,FastAcc,19,19,Woman,Right,
7,12,1,0.5341622000014468,['n'],1,right,['0'],6,0.15171180000106688,0.2,0,FastAcc,19,19,Woman,Right,
8,12,1,0.4670751999983622,['c'],1,left,['0'],6,0.1515108000021428,0.1,0,FastAcc,19,19,Woman,Right,
9,12,1,0.851182799997332,['c'],1,left,['0'],6,0.30117210000025807,0.4,0,FastAcc,19,19,Woman,Right,
10,12,1,0.6833742999988317,['c'],1,left,['0'],6,0.1502795000014885,0.4,0,FastAcc,19,19,Woman,Right,
11,12,1,1.8832333000027575,['c'],1,left,['9'],5,0.13517599999977392,0.1,0,FastAcc,19,19,Woman,Right,
12,12,1,0.6006640999985393,['n'],1,right,['0'],6,0.1184752999979537,0.2,0,FastAcc,19,19,Woman,Right,
13,12,1,0.5176363000027777,['c'],1,left,['0'],6,0.33464249999815365,0.1,0,FastAcc,19,19,Woman,Right,
14,12,1,0.8996777000029397,['c'],1,left,['9'],5,0.1517550000025949,0.2,0,FastAcc,19,19,Woman,Right,
15,12,1,0.5505139999986568,['c'],1,left,['0'],6,0.3007501999964006,0.4,0,FastAcc,19,19,Woman,Right,
16,12,1,0.48312069999883533,['n'],1,right,['0'],6,0.13506409999899915,0.2,0,FastAcc,19,19,Woman,Right,
17,12,1,0.9671517000024323,['n'],1,right,['9'],5,0.15150319999884232,0.2,0,FastAcc,19,19,Woman,Right,
18,12,1,1.0325980000015988,['n'],0,left,['8'],4,0.15204720000110683,0.2,0,FastAcc,19,19,Woman,Right,
19,12,1,0.8347109999995155,['n'],1,right,['8'],4,0.08427339999980177,0.1,0,FastAcc,19,19,Woman,Right,
20,12,1,0.7338541999997688,['n'],1,right,['0'],6,0.26816950000284123,0.4,0,FastAcc,19,19,Woman,Right,
21,12,1,0.932598200000939,['n'],1,right,['0'],6,0.1857806999978493,0.1,0,FastAcc,19,19,Woman,Right,
22,12,1,0.9165581000015663,['n'],1,right,['8'],4,0.21806220000144094,0.2,0,FastAcc,19,19,Woman,Right,
23,12,1,1.1171987999987323,['n'],1,right,['9'],5,0.1513885999993363,0.2,0,FastAcc,19,19,Woman,Right,
24,12,1,0.5833013999981631,['n'],1,right,['9'],5,0.1846613999987312,0.4,0,FastAcc,19,19,Woman,Right,
25,12,1,0.868226800001139,['c'],1,left,['0'],6,0.1682905000016035,0.2,0,FastAcc,19,19,Woman,Right,
26,12,1,0.5843954000010854,['c'],1,left,['0'],6,0.400466699997196,0.1,0,FastAcc,19,19,Woman,Right,
27,12,1,0.8675687000031758,['c'],1,left,['0'],6,0.28399290000015753,0.1,0,FastAcc,19,19,Woman,Right,
28,12,1,0.6836684000008972,['n'],1,right,['0'],6,0.1173348000011174,0.1,0,FastAcc,19,19,Woman,Right,
29,12,1,0.5338350999991235,['c'],0,right,['1'],1,0.8847343999987061,0.4,0,FastAcc,19,19,Woman,Right,
30,12,1,0.917726899999252,['n'],1,right,['9'],5,0.1677254999995057,0.1,0,FastAcc,19,19,Woman,Right,
31,12,1,0.5665508999991289,['c'],0,right,['9'],5,0.15133290000085253,0.2,0,FastAcc,19,19,Woman,Right,
32,12,1,0.8827080000010028,['n'],1,right,['0'],6,0.10203349999937927,0.4,0,FastAcc,19,19,Woman,Right,
33,12,1,0.6997572999971453,['c'],1,left,['0'],6,0.13409339999998338,0.2,0,FastAcc,19,19,Woman,Right,
34,12,1,0.6843305000002147,['c'],1,left,['9'],5,0.26797739999892656,0.4,0,FastAcc,19,19,Woman,Right,
35,12,1,0.6171195999995689,['n'],1,right,['0'],6,0.1669631999975536,0.2,0,FastAcc,19,19,Woman,Right,
36,12,1,0.5504915999990772,['c'],1,left,['0'],6,0.20146930000191787,0.4,0,FastAcc,19,19,Woman,Right,
37,12,1,0.8337198000008357,['n'],1,right,['0'],6,0.1518800999983796,0.1,0,FastAcc,19,19,Woman,Right,
38,12,1,0.6168211000003794,['c'],0,right,['0'],6,0.25158860000010463,0.1,0,FastAcc,19,19,Woman,Right,
39,12,1,0.8325722999979916,['c'],0,right,['9'],5,0.3850843000000168,0.2,0,FastAcc,19,19,Woman,Right,
40,12,1,0.8011423999996623,['n'],1,right,['9'],5,0.15072379999764962,0.4,0,FastAcc,19,19,Woman,Right,
41,12,1,0.949681199999759,['c'],1,left,['9'],5,0.2690896000021894,0.1,0,FastAcc,19,19,Woman,Right,
42,12,1,0.6998521999994409,['c'],1,left,['8'],4,0.16703749999942374,0.1,0,FastAcc,19,19,Woman,Right,
43,12,1,0.6322901000021375,['n'],1,right,['0'],6,0.18449270000201068,0.4,0,FastAcc,19,19,Woman,Right,
44,12,1,0.7172726999997394,['n'],1,right,['0'],6,0.1517037999983586,0.2,0,FastAcc,19,19,Woman,Right,
45,12,1,1.19933939999828,['c'],1,left,['0'],6,0.16786839999986114,0.2,0,FastAcc,19,19,Woman,Right,
46,12,1,0.7508334000012837,['n'],1,right,['0'],6,0.1680938999998034,0.4,0,FastAcc,19,19,Woman,Right,
47,12,1,0.8339531999990868,['n'],1,right,['9'],5,0.15165390000038315,0.4,0,FastAcc,19,19,Woman,Right,
48,12,1,0.6332789999978559,['c'],1,left,['0'],6,0.31788349999987986,0.4,0,FastAcc,19,19,Woman,Right,
49,12,1,0.866541799998231,['n'],0,left,['9'],5,0.1352110999978322,0.1,0,FastAcc,19,19,Woman,Right,
50,12,1,0.76710020000246,['n'],1,right,['8'],4,0.1834975999991002,0.2,0,FastAcc,19,19,Woman,Right,
51,12,1,0.7327120000009018,['c'],1,left,['0'],6,0.18535239999982878,0.4,0,FastAcc,19,19,Woman,Right,
52,12,1,0.7009734999992361,['c'],1,left,['0'],6,0.25091059999977006,0.1,0,FastAcc,19,19,Woman,Right,
53,12,1,0.7180320999977994,['n'],0,left,['0'],6,0.15148770000087097,0.1,0,FastAcc,19,19,Woman,Right,
54,12,1,0.6837941999983741,['c'],0,right,['9'],5,0.4500717999981134,0.2,0,FastAcc,19,19,Woman,Right,
55,12,1,0.8680936000018846,['c'],1,left,['8'],4,0.23467629999868223,0.1,0,FastAcc,19,19,Woman,Right,
56,12,1,1.317039499997918,['c'],0,right,['3'],3,0.9848811000010755,0.2,0,FastAcc,19,19,Woman,Right,
57,12,1,0.817160700000386,['c'],1,left,['3'],3,0.4671046000003116,0.4,0,FastAcc,19,19,Woman,Right,
58,12,1,0.9004874000020209,['c'],1,left,['3'],3,0.350435500000458,0.4,0,FastAcc,19,19,Woman,Right,
59,12,1,1.6657533999969019,['c'],1,left,['0'],6,0.23415599999862025,0.1,0,FastAcc,19,19,Woman,Right,
0,13,1,0.7347875000014028,['n'],1,right,['0'],6,0.23380859999815584,0.2,0,FastFast,19,19,Woman,Right,
1,13,1,0.499089200002345,['n'],1,right,['0'],6,0.15137889999823528,0.2,0,FastFast,19,19,Woman,Right,
2,13,1,0.5838282000004256,['c'],1,left,['0'],6,0.15013980000003357,0.2,0,FastFast,19,19,Woman,Right,
3,13,1,0.43386260000261245,['n'],1,right,['0'],6,0.16876739999861456,0.2,0,FastFast,19,19,Woman,Right,
4,13,1,0.4161260000000766,['c'],1,left,['0'],6,0.11878100000103586,0.2,0,FastFast,19,19,Woman,Right,
5,13,1,0.5172696000008727,['c'],0,right,['0'],6,0.16824520000227494,0.4,0,FastFast,19,19,Woman,Right,
6,13,1,0.6495359000000462,['n'],1,right,['0'],6,0.18503779999809922,0.4,0,FastFast,19,19,Woman,Right,
7,13,1,0.5339281000015035,['c'],1,left,['1'],1,0.15157950000138953,0.1,0,FastFast,19,19,Woman,Right,
8,13,1,0.4834289999998873,['n'],1,right,['0'],6,0.13417789999948582,0.2,0,FastFast,19,19,Woman,Right,
9,13,1,0.5173327999982575,['n'],1,right,['0'],6,0.1179072000013548,0.4,0,FastFast,19,19,Woman,Right,
10,13,1,0.5831060000018624,['c'],1,left,['0'],6,0.1353625000010652,0.2,0,FastFast,19,19,Woman,Right,
11,13,1,0.9664099000001443,['c'],1,left,['0'],6,0.3014301000002888,0.1,0,FastFast,19,19,Woman,Right,
12,13,1,1.016881600000488,['c'],1,left,['0'],6,0.15146670000103768,0.4,0,FastFast,19,19,Woman,Right,
13,13,1,1.0337665000006382,['c'],1,left,['8'],4,0.2521186999983911,0.2,0,FastFast,19,19,Woman,Right,
14,13,1,0.48349159999997937,['c'],1,left,['8'],4,0.15044699999998556,0.2,0,FastFast,19,19,Woman,Right,
15,13,1,0.7003602999975556,['n'],1,right,['9'],5,0.16808339999988675,0.1,0,FastFast,19,19,Woman,Right,
16,13,1,0.8314229999996314,['c'],1,left,['0'],6,0.13524649999817484,0.4,0,FastFast,19,19,Woman,Right,
17,13,1,0.5342940000009548,['n'],1,right,['0'],6,0.18405490000077407,0.1,0,FastFast,19,19,Woman,Right,
18,13,1,0.4998773999977857,['c'],1,left,['0'],6,0.13479539999752888,0.2,0,FastFast,19,19,Woman,Right,
19,13,1,0.7659659000019019,['n'],1,right,['9'],5,0.15178430000014487,0.1,0,FastFast,19,19,Woman,Right,
20,13,1,0.6670632000023033,['c'],1,left,['8'],4,0.16771349999908125,0.1,0,FastFast,19,19,Woman,Right,
21,13,1,0.7339212000006228,['c'],1,left,['0'],6,0.2347163999984332,0.1,0,FastFast,19,19,Woman,Right,
22,13,1,0.6673902000002272,['c'],0,right,['9'],5,0.13349899999957415,0.1,0,FastFast,19,19,Woman,Right,
23,13,1,0.31647739999971236,['c'],0,right,['9'],5,0.1022609999999986,0.1,0,FastFast,19,19,Woman,Right,
24,13,1,0.7180148000006739,['c'],0,right,['9'],5,0.13481250000040745,0.1,0,FastFast,19,19,Woman,Right,
25,13,1,0.717054000000644,['c'],0,right,['9'],5,0.16789649999918765,0.2,0,FastFast,19,19,Woman,Right,
26,13,1,0.8169949000002816,['n'],0,left,['8'],4,0.13455070000054548,0.2,0,FastFast,19,19,Woman,Right,
27,13,1,0.650518499998725,['c'],0,right,['8'],4,0.13485190000210423,0.1,0,FastFast,19,19,Woman,Right,
28,13,1,0.6660429000003205,['n'],1,right,['8'],4,0.13527980000071693,0.2,0,FastFast,19,19,Woman,Right,
29,13,1,0.9843074999989767,['c'],1,left,['8'],4,0.2680011000011291,0.1,0,FastFast,19,19,Woman,Right,
30,13,1,0.5843077999998059,['c'],1,left,['8'],4,0.10239450000153738,0.2,0,FastFast,19,19,Woman,Right,
31,13,1,0.6838458999991417,['c'],0,right,['0'],6,0.20138260000021546,0.4,0,FastFast,19,19,Woman,Right,
32,13,1,0.7995569000013347,['c'],1,left,['0'],6,0.1336423000029754,0.4,0,FastFast,19,19,Woman,Right,
33,13,1,0.4828428000000713,['n'],1,right,['0'],6,0.18579089999911957,0.2,0,FastFast,19,19,Woman,Right,
34,13,1,0.6673307000019122,['n'],1,right,['0'],6,0.20178710000254796,0.4,0,FastFast,19,19,Woman,Right,
35,13,1,0.5994456999978865,['c'],1,left,['0'],6,0.10182560000248486,0.2,0,FastFast,19,19,Woman,Right,
36,13,1,0.7005395999985922,['n'],0,left,['0'],6,0.16742990000057034,0.1,0,FastFast,19,19,Woman,Right,
37,13,1,0.8336836999988009,['n'],1,right,['0'],6,0.1850637999996252,0.1,0,FastFast,19,19,Woman,Right,
38,13,1,0.7494908000007854,['c'],1,left,['9'],5,0.1519676999996591,0.1,0,FastFast,19,19,Woman,Right,
39,13,1,0.6323521000012988,['c'],1,left,['0'],6,0.1689552999996522,0.4,0,FastFast,19,19,Woman,Right,
40,13,1,0.6337455000029877,['c'],1,left,['0'],6,0.28472099999999045,0.1,0,FastFast,19,19,Woman,Right,
41,13,1,0.651085299999977,['n'],1,right,['0'],6,0.13515469999765628,0.4,0,FastFast,19,19,Woman,Right,
42,13,1,0.6678606999994372,['c'],1,left,['0'],6,0.3180073000003176,0.4,0,FastFast,19,19,Woman,Right,
43,13,1,0.7327101000009861,['n'],1,right,['0'],6,0.15233740000257967,0.4,0,FastFast,19,19,Woman,Right,
44,13,1,0.7836757000004582,['c'],1,left,['9'],5,0.0833349000022281,0.4,0,FastFast,19,19,Woman,Right,
45,13,1,0.6162710999997216,['n'],0,left,['0'],6,0.15222849999918253,0.1,0,FastFast,19,19,Woman,Right,
46,13,1,0.800291899999138,['n'],1,right,['9'],5,0.10155289999966044,0.4,0,FastFast,19,19,Woman,Right,
47,13,1,0.8484872000008181,['c'],1,left,['9'],5,0.13600050000241026,0.2,0,FastFast,19,19,Woman,Right,
48,13,1,0.6170788999988872,['c'],0,right,['0'],6,0.135764200000267,0.2,0,FastFast,19,19,Woman,Right,
49,13,1,0.6509217000020726,['c'],1,left,['0'],6,0.11798990000170306,0.4,0,FastFast,19,19,Woman,Right,
50,13,1,0.967307200000505,['n'],0,left,['0'],6,0.13323579999996582,0.4,0,FastFast,19,19,Woman,Right,
51,13,1,0.5673825999983819,['n'],1,right,['0'],6,0.11797599999772501,0.1,0,FastFast,19,19,Woman,Right,
52,13,1,1.0331086999976833,['c'],0,right,['9'],5,0.15184659999795258,0.1,0,FastFast,19,19,Woman,Right,
53,13,1,0.4840255999988585,['c'],1,left,['0'],6,0.2682291000019177,0.4,0,FastFast,19,19,Woman,Right,
54,13,1,0.616444400002365,['n'],1,right,['0'],6,0.11835639999844716,0.4,0,FastFast,19,19,Woman,Right,
55,13,1,0.6843559000008099,['n'],1,right,['0'],6,0.16858510000020033,0.4,0,FastFast,19,19,Woman,Right,
56,13,1,1.3003950000020268,['c'],1,left,['0'],6,0.13498650000110501,0.2,0,FastFast,19,19,Woman,Right,
57,13,1,0.7154273000014655,['n'],1,right,['0'],6,0.1172357000032207,0.4,0,FastFast,19,19,Woman,Right,
58,13,1,0.6172259000013582,['n'],1,right,['0'],6,0.11689489999844227,0.2,0,FastFast,19,19,Woman,Right,
59,13,1,1.1836685999987822,['n'],0,left,['9'],5,0.15236820000063744,0.1,0,FastFast,19,19,Woman,Right,
0,14,1,0.8510452999980771,['c'],1,left,['0'],6,0.13474160000259872,0.4,0,AccFast,19,19,Woman,Right,
1,14,1,0.567188699998951,['c'],1,left,['0'],6,0.13448760000028415,0.2,0,AccFast,19,19,Woman,Right,
2,14,1,0.46590809999906924,['n'],1,right,['0'],6,0.15136629999688012,0.2,0,AccFast,19,19,Woman,Right,
3,14,1,0.465698700001667,['c'],1,left,['0'],6,0.13356159999966621,0.1,0,AccFast,19,19,Woman,Right,
4,14,1,0.8010711000024457,['c'],1,left,['9'],5,0.23460139999951934,0.4,0,AccFast,19,19,Woman,Right,
5,14,1,1.0836725999979535,['n'],1,right,['0'],6,0.1683184000030451,0.2,0,AccFast,19,19,Woman,Right,
6,14,1,0.5338229000008141,['c'],1,left,['0'],6,0.23513670000102138,0.1,0,AccFast,19,19,Woman,Right,
7,14,1,0.5502315000012459,['c'],1,left,['0'],6,0.13368930000069668,0.4,0,AccFast,19,19,Woman,Right,
8,14,1,0.5833767999974953,['n'],1,right,['0'],6,0.0853532000000996,0.4,0,AccFast,19,19,Woman,Right,
9,14,1,0.41699359999984154,['c'],1,left,['0'],6,0.11857809999855817,0.4,0,AccFast,19,19,Woman,Right,
10,14,1,0.8670547000001534,['c'],1,left,['9'],5,0.16823759999897447,0.1,0,AccFast,19,19,Woman,Right,
11,14,1,0.4840308000020741,['n'],1,right,['9'],5,0.099325700000918,0.2,0,AccFast,19,19,Woman,Right,
12,14,1,1.1352411999978358,['n'],1,right,['8'],4,0.1184955999997328,0.2,0,AccFast,19,19,Woman,Right,
13,14,1,0.7341617999991286,['c'],1,left,['0'],6,0.1502174000015657,0.4,0,AccFast,19,19,Woman,Right,
14,14,1,0.8173437000004924,['n'],0,left,['8'],4,0.11826060000021243,0.1,0,AccFast,19,19,Woman,Right,
15,14,1,0.9671388999995543,['c'],0,right,['8'],4,0.1178431999978784,0.2,0,AccFast,19,19,Woman,Right,
16,14,1,0.8507411000027787,['c'],0,right,['9'],5,0.3178814999992028,0.2,0,AccFast,19,19,Woman,Right,
17,14,1,0.8998350000001665,['c'],0,right,['9'],5,0.30084119999810355,0.2,0,AccFast,19,19,Woman,Right,
18,14,1,0.7508348000010301,['n'],1,right,['0'],6,0.13520669999707025,0.2,0,AccFast,19,19,Woman,Right,
19,14,1,0.5340833999980532,['c'],0,right,['9'],5,0.1185576999996556,0.2,0,AccFast,19,19,Woman,Right,
20,14,1,0.6990669000006164,['c'],0,right,['0'],6,0.16740720000234433,0.1,0,AccFast,19,19,Woman,Right,
21,14,1,0.9173139999984414,['n'],1,right,['0'],6,0.13458019999961834,0.4,0,AccFast,19,19,Woman,Right,
22,14,1,0.6170802000015101,['n'],1,right,['0'],6,0.11845849999735947,0.1,0,AccFast,19,19,Woman,Right,
23,14,1,2.5665068000016618,['n'],0,left,['0'],6,0.1347433999981149,0.2,0,AccFast,19,19,Woman,Right,
24,14,1,1.8172611000009056,['c'],1,left,['0'],6,0.11804180000035558,0.4,0,AccFast,19,19,Woman,Right,
25,14,1,1.134280199999921,['c'],1,left,['1'],1,0.06800030000158586,0.4,0,AccFast,19,19,Woman,Right,
26,14,1,0.7162972000005539,['n'],1,right,['0'],6,0.10057329999835929,0.2,0,AccFast,19,19,Woman,Right,
27,14,1,0.7169928000002983,['c'],1,left,['0'],6,0.2676169000005757,0.4,0,AccFast,19,19,Woman,Right,
28,14,1,0.533589499998925,['n'],0,left,['0'],6,0.15146810000078403,0.1,0,AccFast,19,19,Woman,Right,
29,14,1,0.5671050999990257,['n'],1,right,['0'],6,0.13486829999965266,0.2,0,AccFast,19,19,Woman,Right,
30,14,1,2.0673949000010907,['n'],0,left,['0'],6,0.11789000000135275,0.4,0,AccFast,19,19,Woman,Right,
31,14,1,0.6505675000007614,['c'],0,right,['0'],6,0.13509269999849494,0.2,0,AccFast,19,19,Woman,Right,
32,14,1,0.5505873999973119,['n'],0,left,['0'],6,0.11871210000026622,0.1,0,AccFast,19,19,Woman,Right,
33,14,1,0.5343936999997823,['n'],1,right,['0'],6,0.1677854000008665,0.1,0,AccFast,19,19,Woman,Right,
34,14,1,0.7152190999986487,['n'],1,right,['0'],6,0.13545080000039889,0.4,0,AccFast,19,19,Woman,Right,
35,14,1,0.46613090000028023,['n'],1,right,['0'],6,0.0850365000005695,0.1,0,AccFast,19,19,Woman,Right,
36,14,1,0.9840215000003809,['n'],0,left,['0'],6,0.15194899999914924,0.4,0,AccFast,19,19,Woman,Right,
37,14,1,0.6171317999978783,['n'],0,left,['0'],6,0.10148889999982202,0.1,0,AccFast,19,19,Woman,Right,
38,14,1,0.4491947999995318,['n'],1,right,['0'],6,0.13565160000143806,0.1,0,AccFast,19,19,Woman,Right,
39,14,1,0.33308540000143694,['n'],0,left,['0'],6,0.051350099998671794,0.1,0,AccFast,19,19,Woman,Right,
40,14,1,0.5678686999999627,['n'],1,right,['0'],6,0.15063679999730084,0.4,0,AccFast,19,19,Woman,Right,
41,14,1,1.0505231999995885,['n'],0,left,['0'],6,0.1847261000002618,0.1,0,AccFast,19,19,Woman,Right,
42,14,1,0.34991919999811216,['n'],1,right,['0'],6,0.18517509999946924,0.1,0,AccFast,19,19,Woman,Right,
43,14,1,0.8497065999981714,['n'],1,right,['0'],6,0.15248219999921275,0.1,0,AccFast,19,19,Woman,Right,
44,14,1,0.4332092000004195,['n'],1,right,['0'],6,0.11818940000011935,0.1,0,AccFast,19,19,Woman,Right,
45,14,1,0.6172186000003421,['c'],1,left,['0'],6,0.18399609999687527,0.4,0,AccFast,19,19,Woman,Right,
46,14,1,0.40038759999879403,['n'],1,right,['0'],6,0.10131399999954738,0.2,0,AccFast,19,19,Woman,Right,
47,14,1,0.6827793999982532,['n'],0,left,['0'],6,0.1361864999998943,0.4,0,AccFast,19,19,Woman,Right,
48,14,1,0.29973919999974896,['n'],0,left,['0'],6,0.10204210000301828,0.2,0,AccFast,19,19,Woman,Right,
49,14,1,0.5838299999995797,['n'],0,left,['0'],6,0.15138350000052014,0.2,0,AccFast,19,19,Woman,Right,
50,14,1,0.6671178000033251,['n'],1,right,['0'],6,0.16689770000084536,0.1,0,AccFast,19,19,Woman,Right,
51,14,1,0.6508953000011388,['n'],1,right,['0'],6,0.1844662999974389,0.4,0,AccFast,19,19,Woman,Right,
52,14,1,0.28328029999829596,['n'],0,left,['0'],6,0.08420000000114669,0.1,0,AccFast,19,19,Woman,Right,
53,14,1,2.300084999998944,['n'],1,right,['0'],6,0.10137920000124723,0.2,0,AccFast,19,19,Woman,Right,
54,14,1,0.6168871000008949,['n'],1,right,['0'],6,0.08540020000145887,0.4,0,AccFast,19,19,Woman,Right,
55,14,1,0.41630850000001374,['n'],0,left,['0'],6,0.11881429999993998,0.4,0,AccFast,19,19,Woman,Right,
56,14,1,0.2832471000001533,['n'],1,right,['0'],6,0.13479419999930542,0.1,0,AccFast,19,19,Woman,Right,
57,14,1,0.4995346999967296,['n'],0,left,['0'],6,0.10165950000009616,0.2,0,AccFast,19,19,Woman,Right,
58,14,1,0.3492005000007339,['n'],0,left,['0'],6,0.13584980000086944,0.2,0,AccFast,19,19,Woman,Right,
59,14,1,0.8836078999993333,['n'],0,left,['0'],6,0.11817519999749493,0.4,0,AccFast,19,19,Woman,Right,
0,15,1,1.6176874000011594,['n'],1,right,['0'],6,0.318056299998716,0.1,0,AccAcc,19,19,Woman,Right,
1,15,1,0.9992879999990691,['n'],0,left,['9'],5,0.16881930000090506,0.1,0,AccAcc,19,19,Woman,Right,
2,15,1,1.6839169999984733,['c'],1,left,['9'],5,0.2502438000010443,0.2,0,AccAcc,19,19,Woman,Right,
3,15,1,0.8007276999996975,['c'],1,left,['9'],5,0.2015023999992991,0.4,0,AccAcc,19,19,Woman,Right,
4,15,1,0.6338082999973267,['n'],1,right,['0'],6,0.1348441999980423,0.2,0,AccAcc,19,19,Woman,Right,
5,15,1,0.8665871000011975,['n'],0,left,['9'],5,0.30119120000017574,0.2,0,AccAcc,19,19,Woman,Right,
6,15,1,1.0831910000015341,['n'],0,left,['9'],5,0.13489440000194008,0.4,0,AccAcc,19,19,Woman,Right,
7,15,1,0.9341273999998521,['c'],1,left,['9'],5,0.1515889000002062,0.4,0,AccAcc,19,19,Woman,Right,
8,15,1,0.5338192999988678,['n'],1,right,['0'],6,0.19995530000232975,0.4,0,AccAcc,19,19,Woman,Right,
9,15,1,1.566546099998959,['c'],1,left,['1'],1,0.7023810999999114,0.4,0,AccAcc,19,19,Woman,Right,
10,15,1,1.2005076999994344,['n'],0,left,['0'],6,0.21826570000121137,0.2,0,AccAcc,19,19,Woman,Right,
11,15,1,0.6168947999976808,['n'],1,right,['0'],6,0.1688159999976051,0.4,0,AccAcc,19,19,Woman,Right,
12,15,1,0.4503645000004326,['n'],0,left,['0'],6,0.3849277000008442,0.4,0,AccAcc,19,19,Woman,Right,
13,15,1,0.4335553999990225,['n'],1,right,['9'],5,0.11838170000191894,0.1,0,AccAcc,19,19,Woman,Right,
14,15,1,0.48448569999891333,['n'],1,right,['0'],6,0.15131320000000414,0.2,0,AccAcc,19,19,Woman,Right,
15,15,1,0.6335892999995849,['n'],0,left,['0'],6,0.11848040000040783,0.4,0,AccAcc,19,19,Woman,Right,
16,15,1,0.5834891999984393,['n'],0,left,['9'],5,0.15148219999900903,0.4,0,AccAcc,19,19,Woman,Right,
17,15,1,0.6328088000009302,['n'],1,right,['0'],6,0.15175319999980275,0.4,0,AccAcc,19,19,Woman,Right,
18,15,1,0.5001205999978993,['n'],1,right,['0'],6,0.11822580000080052,0.1,0,AccAcc,19,19,Woman,Right,
19,15,1,0.7165514000007533,['n'],1,right,['0'],6,0.15135730000110925,0.2,0,AccAcc,19,19,Woman,Right,
20,15,1,0.9487380999999004,['n'],1,right,['0'],6,0.151369799998065,0.4,0,AccAcc,19,19,Woman,Right,
21,15,1,0.3003117000007478,['n'],1,right,['0'],6,0.20035699999789358,0.1,0,AccAcc,19,19,Woman,Right,
22,15,1,1.532717500002036,['c'],1,left,['9'],5,0.13575009999840404,0.2,0,AccAcc,19,19,Woman,Right,
23,15,1,0.7665102999999363,['n'],1,right,['9'],5,0.18419300000095973,0.4,0,AccAcc,19,19,Woman,Right,
24,15,1,1.2171444000014162,['c'],0,right,['8'],4,0.15023870000004536,0.1,0,AccAcc,19,19,Woman,Right,
25,15,1,2.484114300001238,['c'],1,left,['9'],5,0.15137680000043474,0.2,0,AccAcc,19,19,Woman,Right,
26,15,1,0.6504186999991362,['c'],0,right,['9'],5,0.1359755999983463,0.1,0,AccAcc,19,19,Woman,Right,
27,15,1,0.6339024000008067,['c'],1,left,['9'],5,0.11695160000090254,0.2,0,AccAcc,19,19,Woman,Right,
28,15,1,0.43396650000067893,['n'],1,right,['9'],5,0.10239789999832283,0.1,0,AccAcc,19,19,Woman,Right,
29,15,1,0.49919930000032764,['n'],1,right,['0'],6,0.18437289999928907,0.1,0,AccAcc,19,19,Woman,Right,
30,15,1,0.6665808999969158,['c'],1,left,['9'],5,0.16806419999920763,0.2,0,AccAcc,19,19,Woman,Right,
31,15,1,1.3840577000009944,['n'],1,right,['9'],5,0.10263739999936661,0.1,0,AccAcc,19,19,Woman,Right,
32,15,1,1.950124399998458,['n'],0,left,['9'],5,0.18469330000152695,0.1,0,AccAcc,19,19,Woman,Right,
33,15,1,0.7676931999994849,['n'],1,right,['9'],5,0.16813989999718615,0.4,0,AccAcc,19,19,Woman,Right,
34,15,1,0.5172266000008676,['n'],1,right,['0'],6,0.20074229999954696,0.2,0,AccAcc,19,19,Woman,Right,
35,15,1,0.5007336999988183,['n'],0,left,['9'],5,0.16824669999914477,0.2,0,AccAcc,19,19,Woman,Right,
36,15,1,0.550943999998708,['n'],1,right,['9'],5,0.1340944000003219,0.2,0,AccAcc,19,19,Woman,Right,
37,15,1,0.6003248999986681,['n'],1,right,['9'],5,0.13382610000189743,0.1,0,AccAcc,19,19,Woman,Right,
38,15,1,0.6845463999998174,['c'],0,right,['9'],5,0.06847050000214949,0.1,0,AccAcc,19,19,Woman,Right,
39,15,1,0.7012391999996908,['c'],1,left,['9'],5,0.11850789999880362,0.4,0,AccAcc,19,19,Woman,Right,
40,15,1,0.5837209999990591,['n'],0,left,['9'],5,0.10161620000144467,0.2,0,AccAcc,19,19,Woman,Right,
41,15,1,0.7342128999989654,['n'],1,right,['0'],6,0.16677120000167633,0.1,0,AccAcc,19,19,Woman,Right,
42,15,1,1.3338393999983964,['n'],1,right,['9'],5,0.4347978999976476,0.1,0,AccAcc,19,19,Woman,Right,
43,15,1,1.3485425999970175,['c'],1,left,['9'],5,0.16932599999927334,0.2,0,AccAcc,19,19,Woman,Right,
44,15,1,0.7171631000019261,['c'],1,left,['9'],5,0.15139170000111335,0.4,0,AccAcc,19,19,Woman,Right,
45,15,1,1.4329434999999648,['c'],0,right,['8'],4,0.1679885000012291,0.1,0,AccAcc,19,19,Woman,Right,
46,15,1,0.9503779999977269,['n'],1,right,['8'],4,0.18359140000029583,0.2,0,AccAcc,19,19,Woman,Right,
47,15,1,0.8839465999990352,['n'],1,right,['9'],5,0.36815090000163764,0.2,0,AccAcc,19,19,Woman,Right,
48,15,1,0.8004061999999976,['c'],1,left,['0'],6,0.11824020000130986,0.4,0,AccAcc,19,19,Woman,Right,
49,15,1,0.7003851000008581,['c'],1,left,['9'],5,0.11818769999808865,0.4,0,AccAcc,19,19,Woman,Right,
50,15,1,0.6516814999995404,['c'],1,left,['0'],6,0.18497690000003786,0.4,0,AccAcc,19,19,Woman,Right,
51,15,1,0.48273640000115847,['c'],1,left,['9'],5,0.2678806000003533,0.2,0,AccAcc,19,19,Woman,Right,
52,15,1,0.8839684999984456,['c'],1,left,['0'],6,0.18489860000045155,0.4,0,AccAcc,19,19,Woman,Right,
53,15,1,0.6992605000014009,['c'],1,left,['9'],5,0.15225930000087828,0.2,0,AccAcc,19,19,Woman,Right,
54,15,1,0.5846777000006114,['c'],1,left,['9'],5,0.15169539999988046,0.1,0,AccAcc,19,19,Woman,Right,
55,15,1,0.783721499999956,['c'],0,right,['9'],5,0.2178256999977748,0.1,0,AccAcc,19,19,Woman,Right,
56,15,1,0.44995529999869177,['c'],0,right,['0'],6,0.11930909999864525,0.1,0,AccAcc,19,19,Woman,Right,
57,15,1,0.6670194999969681,['c'],0,right,['0'],6,0.1352506999974139,0.1,0,AccAcc,19,19,Woman,Right,
58,15,1,0.7013518000021577,['c'],1,left,['0'],6,0.1185351999993145,0.4,0,AccAcc,19,19,Woman,Right,
59,15,1,0.5333218000014313,['c'],1,left,['9'],5,0.26768169999922975,0.2,0,AccAcc,19,19,Woman,Right,
