withinblocktrial,block,block_repetition,rt,resp,cor,cresp,conf_press,cj,rtconf,coherence,slow_trial,manipulation,sub,age,gender,handedness,
0,1,1,1.0862561000001278,['n'],1,right,none,-99,-99,0.5,0,none,6,18,Woman,Right,
1,1,1,0.885526900000059,['c'],1,left,none,-99,-99,0.5,0,none,6,18,Woman,Right,
2,1,1,0.7861382000000958,['c'],1,left,none,-99,-99,0.5,0,none,6,18,Woman,Right,
3,1,1,0.7524864000001799,['n'],1,right,none,-99,-99,0.5,0,none,6,18,Woman,Right,
4,1,1,0.769657000000052,['n'],1,right,none,-99,-99,0.5,0,none,6,18,Woman,Right,
5,1,1,0.6864120000000185,['c'],1,left,none,-99,-99,0.5,0,none,6,18,Woman,Right,
6,1,1,0.6529043999998976,['c'],1,left,none,-99,-99,0.5,0,none,6,18,Woman,Right,
7,1,1,1.2029024000000845,['c'],0,right,none,-99,-99,0.5,0,none,6,18,Woman,Right,
8,1,1,0.6864673999998558,['n'],1,right,none,-99,-99,0.5,0,none,6,18,Woman,Right,
9,1,1,0.7352220000000216,['c'],1,left,none,-99,-99,0.5,0,none,6,18,Woman,Right,
10,1,1,0.6192318999999316,['c'],1,left,none,-99,-99,0.5,0,none,6,18,Woman,Right,
11,1,1,0.7683243000001312,['c'],1,left,none,-99,-99,0.5,0,none,6,18,Woman,Right,
12,1,1,0.869161800000029,['c'],1,left,none,-99,-99,0.5,0,none,6,18,Woman,Right,
13,1,1,1.4362114000000474,['c'],0,right,none,-99,-99,0.5,0,none,6,18,Woman,Right,
14,1,1,1.9865308999999343,['c'],0,right,none,-99,-99,0.5,0,none,6,18,Woman,Right,
15,1,1,4.0530474999998205,['n'],1,right,none,-99,-99,0.5,0,none,6,18,Woman,Right,
16,1,1,1.9864293000000544,['n'],1,right,none,-99,-99,0.5,0,none,6,18,Woman,Right,
17,1,1,3.2363578999998026,['n'],1,right,none,-99,-99,0.5,0,none,6,18,Woman,Right,
18,1,1,1.3531541999998353,['n'],1,right,none,-99,-99,0.5,0,none,6,18,Woman,Right,
19,1,1,1.069234300000062,['c'],1,left,none,-99,-99,0.5,0,none,6,18,Woman,Right,
20,1,1,0.7695538999998917,['c'],1,left,none,-99,-99,0.5,0,none,6,18,Woman,Right,
21,1,1,2.3860526999999365,['n'],1,right,none,-99,-99,0.5,0,none,6,18,Woman,Right,
22,1,1,0.8025416000000405,['c'],1,left,none,-99,-99,0.5,0,none,6,18,Woman,Right,
23,1,1,0.9195636000001741,['c'],1,left,none,-99,-99,0.5,0,none,6,18,Woman,Right,
0,2,1,0.8200305000000299,['c'],1,left,none,-99,-99,0.4,0,none,6,18,Woman,Right,
1,2,1,0.9027639000000818,['c'],1,left,none,-99,-99,0.2,0,none,6,18,Woman,Right,
2,2,1,1.1692057000000204,['n'],1,right,none,-99,-99,0.1,0,none,6,18,Woman,Right,
3,2,1,0.8030176999998275,['n'],1,right,none,-99,-99,0.4,0,none,6,18,Woman,Right,
4,2,1,0.7354182999999921,['c'],1,left,none,-99,-99,0.4,0,none,6,18,Woman,Right,
5,2,1,0.9847174999999879,['n'],1,right,none,-99,-99,0.4,0,none,6,18,Woman,Right,
6,2,1,1.0373184999998557,['n'],1,right,none,-99,-99,0.4,0,none,6,18,Woman,Right,
7,2,1,1.1361139999999068,['n'],0,left,none,-99,-99,0.2,0,none,6,18,Woman,Right,
8,2,1,2.5859771999998884,['n'],0,left,none,-99,-99,0.1,0,none,6,18,Woman,Right,
9,2,1,1.1517787000000226,['c'],1,left,none,-99,-99,0.2,0,none,6,18,Woman,Right,
10,2,1,3.802941500000088,['n'],1,right,none,-99,-99,0.1,0,none,6,18,Woman,Right,
11,2,1,1.0685894999999164,['n'],1,right,none,-99,-99,0.4,0,none,6,18,Woman,Right,
12,2,1,1.1526764000000185,['c'],0,right,none,-99,-99,0.1,0,none,6,18,Woman,Right,
13,2,1,0.719720099999904,['c'],1,left,none,-99,-99,0.4,0,none,6,18,Woman,Right,
14,2,1,0.9861389999998664,['c'],0,right,none,-99,-99,0.1,0,none,6,18,Woman,Right,
15,2,1,1.3696738000001005,['c'],0,right,none,-99,-99,0.2,0,none,6,18,Woman,Right,
16,2,1,3.319817499999999,['n'],0,left,none,-99,-99,0.2,0,none,6,18,Woman,Right,
17,2,1,2.3034732999999505,['n'],0,left,none,-99,-99,0.1,0,none,6,18,Woman,Right,
18,2,1,1.218769199999997,['c'],1,left,none,-99,-99,0.2,0,none,6,18,Woman,Right,
19,2,1,0.7189908000000287,['c'],0,right,none,-99,-99,0.1,0,none,6,18,Woman,Right,
20,2,1,1.2193512999999712,['c'],1,left,none,-99,-99,0.2,0,none,6,18,Woman,Right,
21,2,1,3.485915499999919,['n'],0,left,none,-99,-99,0.1,0,none,6,18,Woman,Right,
22,2,1,0.9026556000001165,['n'],1,right,none,-99,-99,0.4,0,none,6,18,Woman,Right,
23,2,1,1.435593899999958,['n'],1,right,none,-99,-99,0.2,0,none,6,18,Woman,Right,
0,3,1,1.0195808999999372,['c'],1,left,['3'],4,2.2009534999999687,0.2,0,none,6,18,Woman,Right,
1,3,1,1.900500299999976,['n'],0,left,['8'],3,0.700114400000075,0.1,0,none,6,18,Woman,Right,
2,3,1,0.8506686999999147,['c'],1,left,['8'],3,0.4335383999998612,0.1,0,none,6,18,Woman,Right,
3,3,1,1.2320145999999568,['n'],1,right,['9'],2,0.5855965000000651,0.4,0,none,6,18,Woman,Right,
4,3,1,1.9172926000001098,['c'],0,right,['8'],3,0.7510936999999558,0.2,0,none,6,18,Woman,Right,
5,3,1,1.100608199999897,['n'],1,right,['3'],4,1.0010590000001685,0.4,0,none,6,18,Woman,Right,
6,3,1,1.8835689000000002,['c'],1,left,['3'],4,0.6340384000000086,0.4,0,none,6,18,Woman,Right,
7,3,1,1.3329894999999397,['c'],1,left,['3'],4,1.3177215000000615,0.2,0,none,6,18,Woman,Right,
8,3,1,1.6340712000001076,['n'],1,right,['9'],2,0.6168462000000545,0.2,0,none,6,18,Woman,Right,
9,3,1,0.9843647000000146,['n'],0,left,['9'],2,0.634674799999857,0.1,0,none,6,18,Woman,Right,
10,3,1,1.7844258000000082,['n'],1,right,['3'],4,1.284257000000025,0.1,0,none,6,18,Woman,Right,
11,3,1,1.3168515999998363,['n'],0,left,['3'],4,0.5675462000001517,0.4,0,none,6,18,Woman,Right,
12,3,1,2.9830202000000554,['n'],0,left,['8'],3,0.6844558000000234,0.1,0,none,6,18,Woman,Right,
13,3,1,2.499261499999875,['n'],1,right,['8'],3,1.8180649000000813,0.4,0,none,6,18,Woman,Right,
14,3,1,3.9177230000000236,['c'],1,left,['8'],3,0.7510012999998708,0.4,0,none,6,18,Woman,Right,
15,3,1,1.4670401999999285,['n'],0,left,['8'],3,0.5175371000000268,0.4,0,none,6,18,Woman,Right,
16,3,1,3.150188500000013,['n'],0,left,['8'],3,0.8184506999998575,0.2,0,none,6,18,Woman,Right,
17,3,1,1.483826800000088,['c'],0,right,['3'],4,0.6499629999998433,0.1,0,none,6,18,Woman,Right,
18,3,1,3.0854289999999764,['n'],1,right,['8'],3,0.700934400000051,0.2,0,none,6,18,Woman,Right,
19,3,1,3.8177462999999534,['n'],1,right,['3'],4,0.901111599999922,0.1,0,none,6,18,Woman,Right,
20,3,1,0.7833126000000448,['n'],1,right,['3'],4,1.1010453999999754,0.2,0,none,6,18,Woman,Right,
21,3,1,0.7344526000001679,['n'],1,right,['2'],5,0.41771399999993264,0.1,0,none,6,18,Woman,Right,
22,3,1,0.7669333000001188,['n'],0,left,['3'],4,0.4677745000001323,0.4,0,none,6,18,Woman,Right,
23,3,1,3.1499149000001125,['n'],1,right,['3'],4,0.5677109999999175,0.2,0,none,6,18,Woman,Right,
0,4,1,0.9868056999998771,['n'],1,right,['8'],3,0.2676962000000458,0.2,0,FastFast,6,18,Woman,Right,
1,4,1,0.5513084000001527,['n'],0,left,['9'],2,0.3676307999999153,0.2,0,FastFast,6,18,Woman,Right,
2,4,1,0.8688109999998233,['c'],1,left,['3'],4,0.28383129999997436,0.4,0,FastFast,6,18,Woman,Right,
3,4,1,0.9188642999999956,['n'],1,right,['8'],3,0.3009493999998085,0.1,0,FastFast,6,18,Woman,Right,
4,4,1,0.6851798000000144,['n'],0,left,['9'],2,0.3843744999999217,0.1,0,FastFast,6,18,Woman,Right,
5,4,1,0.7838753999999426,['n'],1,right,['8'],3,0.28505519999998796,0.2,0,FastFast,6,18,Woman,Right,
6,4,1,1.0012469000000692,['n'],1,right,['8'],3,0.45046419999994214,0.1,0,FastFast,6,18,Woman,Right,
7,4,1,1.2171694999999545,['n'],1,right,['9'],2,0.21671969999988505,0.4,0,FastFast,6,18,Woman,Right,
8,4,1,1.3161474000000908,['n'],1,right,['9'],2,0.3017722000001868,0.2,0,FastFast,6,18,Woman,Right,
9,4,1,0.7508746000000883,['n'],1,right,['9'],2,0.3174771999999848,0.2,0,FastFast,6,18,Woman,Right,
10,4,1,0.9165709999999763,['n'],1,right,['3'],4,0.6682885000000169,0.1,0,FastFast,6,18,Woman,Right,
11,4,1,0.5338133000000198,['n'],1,right,['9'],2,0.1673499000000902,0.1,0,FastFast,6,18,Woman,Right,
12,4,1,0.6676016999999774,['n'],1,right,['9'],2,0.38434010000014496,0.2,0,FastFast,6,18,Woman,Right,
13,4,1,0.7510073999999349,['n'],1,right,['8'],3,0.35053100000004633,0.4,0,FastFast,6,18,Woman,Right,
14,4,1,0.6010338000000957,['n'],0,left,['9'],2,0.3352663000000575,0.2,0,FastFast,6,18,Woman,Right,
15,4,1,0.7682259000000613,['n'],1,right,['9'],2,0.3343861000000743,0.2,0,FastFast,6,18,Woman,Right,
16,4,1,0.7007981000001564,['n'],1,right,['3'],4,0.40051469999980327,0.2,0,FastFast,6,18,Woman,Right,
17,4,1,1.6009004000000004,['n'],0,left,['3'],4,0.23428360000002613,0.4,0,FastFast,6,18,Woman,Right,
18,4,1,2.2170834000000923,['c'],0,right,['9'],2,0.45161189999998896,0.2,0,FastFast,6,18,Woman,Right,
19,4,1,0.7182935999999245,['n'],0,left,['9'],2,0.23340410000014344,0.1,0,FastFast,6,18,Woman,Right,
20,4,1,0.6352706999998645,['n'],0,left,['9'],2,0.18474109999988286,0.2,0,FastFast,6,18,Woman,Right,
21,4,1,0.6333597999998801,['n'],0,left,['9'],2,0.9346252000000277,0.2,0,FastFast,6,18,Woman,Right,
22,4,1,0.9005127999998876,['n'],0,left,['9'],2,0.20178429999987202,0.1,0,FastFast,6,18,Woman,Right,
23,4,1,1.0658218999999463,['c'],1,left,['9'],2,0.9017897999999605,0.4,0,FastFast,6,18,Woman,Right,
24,4,1,0.6674341000000368,['n'],0,left,['3'],4,0.7676535999999032,0.1,0,FastFast,6,18,Woman,Right,
25,4,1,0.5339500000000044,['n'],0,left,['3'],4,0.18309309999995094,0.4,0,FastFast,6,18,Woman,Right,
26,4,1,0.5668065999998362,['n'],1,right,['3'],4,0.18565650000005007,0.2,0,FastFast,6,18,Woman,Right,
27,4,1,0.6843814000001203,['n'],0,left,['9'],2,0.15131330000008347,0.4,0,FastFast,6,18,Woman,Right,
28,4,1,0.5173087999999098,['n'],0,left,['8'],3,0.26714399999991656,0.2,0,FastFast,6,18,Woman,Right,
29,4,1,0.5508221999998568,['n'],0,left,['9'],2,0.1677194999999756,0.1,0,FastFast,6,18,Woman,Right,
30,4,1,0.8349906000000828,['n'],1,right,['3'],4,0.41758210000011786,0.2,0,FastFast,6,18,Woman,Right,
31,4,1,0.9183297999998103,['n'],0,left,['8'],3,0.3510356000001593,0.2,0,FastFast,6,18,Woman,Right,
32,4,1,0.4847055000000182,['n'],1,right,['9'],2,0.1844796000000315,0.1,0,FastFast,6,18,Woman,Right,
33,4,1,0.8337109999999939,['c'],1,left,['8'],3,0.4686491999998452,0.2,0,FastFast,6,18,Woman,Right,
34,4,1,0.7516815999999835,['c'],0,right,['8'],3,0.16782380000017838,0.4,0,FastFast,6,18,Woman,Right,
35,4,1,1.000742100000025,['c'],1,left,['8'],3,0.15106360000004315,0.1,0,FastFast,6,18,Woman,Right,
36,4,1,0.5668485000001056,['n'],0,left,['8'],3,0.2008335000000443,0.4,0,FastFast,6,18,Woman,Right,
37,4,1,0.4830709000000297,['n'],1,right,['9'],2,0.15028430000006665,0.2,0,FastFast,6,18,Woman,Right,
38,4,1,1.1352699999999913,['n'],1,right,['9'],2,0.30113330000017413,0.4,0,FastFast,6,18,Woman,Right,
39,4,1,0.8349326000000019,['n'],1,right,['8'],3,0.15118429999984073,0.1,0,FastFast,6,18,Woman,Right,
40,4,1,0.7514937000000828,['c'],0,right,['3'],4,0.46778199999994285,0.2,0,FastFast,6,18,Woman,Right,
41,4,1,0.5845944999998665,['c'],1,left,['3'],4,0.15171159999999873,0.4,0,FastFast,6,18,Woman,Right,
42,4,1,0.8504811000000245,['c'],0,right,['3'],4,0.11768719999986388,0.1,0,FastFast,6,18,Woman,Right,
43,4,1,1.0003834000001461,['c'],0,right,['8'],3,0.4845308000001296,0.1,0,FastFast,6,18,Woman,Right,
44,4,1,1.1163943999999901,['c'],1,left,['8'],3,0.1851354000000356,0.4,0,FastFast,6,18,Woman,Right,
45,4,1,1.134427500000129,['n'],0,left,['8'],3,0.13463350000006358,0.4,0,FastFast,6,18,Woman,Right,
46,4,1,1.1164848000000802,['n'],1,right,['3'],4,0.30106000000000677,0.1,0,FastFast,6,18,Woman,Right,
47,4,1,0.7170898999997917,['n'],0,left,['0'],1,1.0175591000001987,0.4,0,FastFast,6,18,Woman,Right,
48,4,1,0.9371464000000742,['c'],0,right,['3'],4,0.2675944000000072,0.4,0,FastFast,6,18,Woman,Right,
49,4,1,0.6848171000001457,['n'],1,right,['8'],3,0.284330700000055,0.2,0,FastFast,6,18,Woman,Right,
50,4,1,0.8506724000001213,['c'],1,left,['3'],4,0.2838458000001083,0.4,0,FastFast,6,18,Woman,Right,
51,4,1,0.9175886000000446,['c'],1,left,['3'],4,0.28421359999993,0.4,0,FastFast,6,18,Woman,Right,
52,4,1,0.5003745999999865,['c'],1,left,['3'],4,0.2006759000000784,0.4,0,FastFast,6,18,Woman,Right,
53,4,1,0.999671699999908,['c'],1,left,['3'],4,0.2683408000000327,0.1,0,FastFast,6,18,Woman,Right,
54,4,1,0.7505840999999691,['c'],0,right,['2'],5,0.3681086999999934,0.1,0,FastFast,6,18,Woman,Right,
55,4,1,1.117556299999933,['n'],0,left,['8'],3,0.16771990000006554,0.1,0,FastFast,6,18,Woman,Right,
56,4,1,0.9320397000001321,['c'],1,left,['3'],4,0.20088150000015048,0.1,0,FastFast,6,18,Woman,Right,
57,4,1,0.9849667999999383,['c'],0,right,['8'],3,0.7342917000000853,0.1,0,FastFast,6,18,Woman,Right,
58,4,1,0.9342735000000175,['c'],1,left,['8'],3,0.16660710000019208,0.4,0,FastFast,6,18,Woman,Right,
59,4,1,1.4169799000001149,['c'],0,right,['8'],3,0.31793530000004466,0.4,0,FastFast,6,18,Woman,Right,
0,5,1,1.0361951999998382,['c'],0,right,['9'],2,0.7846454000000449,0.1,0,AccFast,6,18,Woman,Right,
1,5,1,1.7015879999999015,['c'],0,right,['8'],3,0.43458800000007614,0.1,0,AccFast,6,18,Woman,Right,
2,5,1,1.5676363000000038,['n'],0,left,['8'],3,0.4346207000000959,0.4,0,AccFast,6,18,Woman,Right,
3,5,1,0.934154400000125,['c'],1,left,['3'],4,0.4848541000001205,0.4,0,AccFast,6,18,Woman,Right,
4,5,1,0.9337133999999878,['c'],0,right,['3'],4,0.39977139999996325,0.1,0,AccFast,6,18,Woman,Right,
5,5,1,1.1174008000000413,['c'],1,left,['8'],3,0.40114760000005845,0.2,0,AccFast,6,18,Woman,Right,
6,5,1,1.6510882000000038,['c'],0,right,['8'],3,0.5845824000000448,0.4,0,AccFast,6,18,Woman,Right,
7,5,1,0.6009106000001339,['c'],0,right,['8'],3,0.40031260000000657,0.2,0,AccFast,6,18,Woman,Right,
8,5,1,0.9169597000000067,['c'],1,left,['8'],3,0.2006093999998484,0.4,0,AccFast,6,18,Woman,Right,
9,5,1,0.9676354000000629,['c'],0,right,['3'],4,0.23348719999989953,0.1,0,AccFast,6,18,Woman,Right,
10,5,1,0.8502648999999565,['n'],0,left,['3'],4,0.25012939999987793,0.2,0,AccFast,6,18,Woman,Right,
11,5,1,0.7344852999999603,['c'],1,left,['3'],4,0.23425270000007004,0.1,0,AccFast,6,18,Woman,Right,
12,5,1,1.1159651000000395,['c'],0,right,['3'],4,0.2852914000000055,0.2,0,AccFast,6,18,Woman,Right,
13,5,1,0.9336217000000033,['c'],0,right,['3'],4,0.2176849999998467,0.1,0,AccFast,6,18,Woman,Right,
14,5,1,1.3999131000000489,['n'],0,left,['9'],2,0.36757149999994,0.4,0,AccFast,6,18,Woman,Right,
15,5,1,1.0512718000002224,['c'],0,right,['9'],2,0.2677191000000221,0.4,0,AccFast,6,18,Woman,Right,
16,5,1,1.301535599999852,['c'],1,left,['8'],3,0.30089909999992415,0.1,0,AccFast,6,18,Woman,Right,
17,5,1,0.9678241999999955,['c'],1,left,['8'],3,0.3008543999999347,0.4,0,AccFast,6,18,Woman,Right,
18,5,1,1.7007138999999825,['n'],0,left,['8'],3,0.2838447999999971,0.4,0,AccFast,6,18,Woman,Right,
19,5,1,1.0849147999999786,['n'],0,left,['8'],3,0.25085519999993267,0.4,0,AccFast,6,18,Woman,Right,
20,5,1,0.8846151000000191,['n'],1,right,['3'],4,0.21795429999997395,0.4,0,AccFast,6,18,Woman,Right,
21,5,1,0.9178691999998136,['c'],0,right,['3'],4,0.2834249,0.2,0,AccFast,6,18,Woman,Right,
22,5,1,1.1509254000000055,['c'],0,right,['3'],4,0.23438929999997526,0.2,0,AccFast,6,18,Woman,Right,
23,5,1,0.9506046999999853,['c'],0,right,['3'],4,0.2345124000000851,0.1,0,AccFast,6,18,Woman,Right,
24,5,1,1.2006205999998656,['c'],0,right,['9'],2,0.3008151999999882,0.2,0,AccFast,6,18,Woman,Right,
25,5,1,1.6173842999999124,['n'],1,right,['3'],4,0.2512247000001935,0.1,0,AccFast,6,18,Woman,Right,
26,5,1,0.6991723000001002,['c'],1,left,['8'],3,0.3016811999998481,0.2,0,AccFast,6,18,Woman,Right,
27,5,1,0.8354408000000149,['c'],1,left,['3'],4,0.2502537999998822,0.1,0,AccFast,6,18,Woman,Right,
28,5,1,0.7508126000000175,['c'],1,left,['3'],4,0.21743820000006053,0.1,0,AccFast,6,18,Woman,Right,
29,5,1,0.8005909000000884,['c'],0,right,['3'],4,0.21710920000009537,0.1,0,AccFast,6,18,Woman,Right,
30,5,1,0.667747400000053,['c'],1,left,['3'],4,0.2829761000000417,0.2,0,AccFast,6,18,Woman,Right,
31,5,1,0.767288199999939,['c'],1,left,['2'],5,0.2511856999999509,0.1,0,AccFast,6,18,Woman,Right,
32,5,1,0.9013021000000663,['n'],1,right,['3'],4,0.31786910000005264,0.4,0,AccFast,6,18,Woman,Right,
33,5,1,0.8670469999999568,['c'],0,right,['3'],4,0.35156000000006316,0.4,0,AccFast,6,18,Woman,Right,
34,5,1,0.9183752999999797,['n'],0,left,['3'],4,0.2998704000001453,0.4,0,AccFast,6,18,Woman,Right,
35,5,1,0.7180226000000403,['c'],0,right,['3'],4,0.35086150000006455,0.2,0,AccFast,6,18,Woman,Right,
36,5,1,0.7671135999999024,['c'],0,right,['3'],4,0.46641239999985373,0.4,0,AccFast,6,18,Woman,Right,
37,5,1,0.8006934000000001,['c'],0,right,['3'],4,0.3011481000000913,0.1,0,AccFast,6,18,Woman,Right,
38,5,1,0.7171295999999074,['c'],1,left,['3'],4,0.23540700000012293,0.4,0,AccFast,6,18,Woman,Right,
39,5,1,0.7843596000000161,['c'],0,right,['3'],4,0.25118529999986094,0.1,0,AccFast,6,18,Woman,Right,
40,5,1,0.8178869999999279,['c'],0,right,['3'],4,0.270594200000005,0.2,0,AccFast,6,18,Woman,Right,
41,5,1,0.8670750000001135,['c'],1,left,['9'],2,0.30104290000008405,0.4,0,AccFast,6,18,Woman,Right,
42,5,1,0.6328889000001254,['c'],0,right,['3'],4,0.23520450000000892,0.4,0,AccFast,6,18,Woman,Right,
43,5,1,1.5671184000000267,['n'],1,right,['3'],4,0.3676033000001553,0.1,0,AccFast,6,18,Woman,Right,
44,5,1,0.7000150999999732,['c'],1,left,['8'],3,0.38467709999986255,0.4,0,AccFast,6,18,Woman,Right,
45,5,1,0.7504302999998345,['c'],1,left,['8'],3,0.3347329999999147,0.2,0,AccFast,6,18,Woman,Right,
46,5,1,0.8331083999999009,['c'],1,left,['8'],3,0.2677836999998817,0.2,0,AccFast,6,18,Woman,Right,
47,5,1,1.050870199999963,['c'],0,right,['3'],4,0.2511044000000311,0.2,0,AccFast,6,18,Woman,Right,
48,5,1,0.7676162000000204,['c'],1,left,['3'],4,0.2513007000000016,0.2,0,AccFast,6,18,Woman,Right,
49,5,1,1.1499390999999832,['c'],1,left,['3'],4,0.18400719999999637,0.1,0,AccFast,6,18,Woman,Right,
50,5,1,1.0836445999998432,['c'],0,right,['3'],4,0.1998479999999745,0.2,0,AccFast,6,18,Woman,Right,
51,5,1,0.7504390999999941,['c'],0,right,['8'],3,0.2996625999999196,0.4,0,AccFast,6,18,Woman,Right,
52,5,1,0.7020944000000782,['c'],0,right,['8'],3,0.39976690000003146,0.2,0,AccFast,6,18,Woman,Right,
53,5,1,0.9341844999999012,['c'],1,left,['3'],4,0.1846837000002779,0.1,0,AccFast,6,18,Woman,Right,
54,5,1,1.3344225999999253,['n'],0,left,['3'],4,0.38435640000034255,0.2,0,AccFast,6,18,Woman,Right,
55,5,1,0.8164737000001878,['c'],1,left,['8'],3,0.3342177999998057,0.2,0,AccFast,6,18,Woman,Right,
56,5,1,0.9342032999998082,['c'],1,left,['3'],4,0.2342756000002737,0.1,0,AccFast,6,18,Woman,Right,
57,5,1,0.9176570999998148,['n'],0,left,['3'],4,0.15091089999987162,0.1,0,AccFast,6,18,Woman,Right,
58,5,1,1.0006891999996697,['n'],0,left,['3'],4,0.15129060000026584,0.2,0,AccFast,6,18,Woman,Right,
59,5,1,0.8838851999998951,['n'],1,right,['3'],4,0.2673971999997775,0.4,0,AccFast,6,18,Woman,Right,
0,6,1,2.3194181999997454,['n'],1,right,['3'],4,0.567606799999794,0.1,0,AccAcc,6,18,Woman,Right,
1,6,1,1.6177056000001357,['n'],0,left,['3'],4,0.5517750000003616,0.4,0,AccAcc,6,18,Woman,Right,
2,6,1,1.9340852999998788,['c'],1,left,['3'],4,0.26788269999997283,0.2,0,AccAcc,6,18,Woman,Right,
3,6,1,1.4668339999998352,['c'],1,left,['3'],4,0.300966199999948,0.4,0,AccAcc,6,18,Woman,Right,
4,6,1,1.6180205999999089,['c'],0,right,['3'],4,0.3678374999999505,0.4,0,AccAcc,6,18,Woman,Right,
5,6,1,1.8673713999996835,['c'],0,right,['3'],4,0.26660069999979896,0.4,0,AccAcc,6,18,Woman,Right,
6,6,1,2.4510793999997986,['c'],1,left,['8'],3,0.36790030000020124,0.1,0,AccAcc,6,18,Woman,Right,
7,6,1,1.5662398999998004,['c'],0,right,['3'],4,0.3340901000001395,0.1,0,AccAcc,6,18,Woman,Right,
8,6,1,1.8671942000000854,['c'],0,right,['3'],4,0.4352089000003616,0.1,0,AccAcc,6,18,Woman,Right,
9,6,1,1.600206800000251,['c'],0,right,['3'],4,0.3177071000000069,0.4,0,AccAcc,6,18,Woman,Right,
10,6,1,1.1825997999999345,['c'],1,left,['3'],4,0.3001838999998654,0.4,0,AccAcc,6,18,Woman,Right,
11,6,1,1.7686328999998295,['c'],0,right,['3'],4,0.36808920000021317,0.1,0,AccAcc,6,18,Woman,Right,
12,6,1,1.3509586999998646,['c'],1,left,['3'],4,0.2999730000001364,0.4,0,AccAcc,6,18,Woman,Right,
13,6,1,1.4347674000000552,['c'],1,left,['3'],4,0.33486119999997754,0.1,0,AccAcc,6,18,Woman,Right,
14,6,1,2.7348188999999365,['c'],1,left,['3'],4,0.28409959999999046,0.2,0,AccAcc,6,18,Woman,Right,
15,6,1,2.3005962000002,['c'],0,right,['3'],4,0.30107459999999264,0.2,0,AccAcc,6,18,Woman,Right,
16,6,1,1.7170204999997623,['c'],0,right,['8'],3,0.40019349999965925,0.2,0,AccAcc,6,18,Woman,Right,
17,6,1,1.2369178000003558,['c'],0,right,['9'],2,0.36843580000004295,0.2,0,AccAcc,6,18,Woman,Right,
18,6,1,1.9340290000000095,['c'],0,right,['3'],4,0.40077289999999266,0.1,0,AccAcc,6,18,Woman,Right,
19,6,1,2.85155930000019,['c'],1,left,['3'],4,0.33436500000016167,0.4,0,AccAcc,6,18,Woman,Right,
20,6,1,2.334345299999768,['c'],1,left,['3'],4,0.3664014999999381,0.2,0,AccAcc,6,18,Woman,Right,
21,6,1,1.0350892999999814,['c'],1,left,['2'],5,0.21788919999971768,0.1,0,AccAcc,6,18,Woman,Right,
22,6,1,2.4180185000000165,['c'],1,left,['3'],4,0.5676914000000579,0.2,0,AccAcc,6,18,Woman,Right,
23,6,1,2.484045799999876,['c'],0,right,['3'],4,0.3339854999999261,0.1,0,AccAcc,6,18,Woman,Right,
24,6,1,1.1180425000002288,['c'],0,right,['3'],4,0.266321600000083,0.1,0,AccAcc,6,18,Woman,Right,
25,6,1,1.1162924999998722,['c'],1,left,['8'],3,0.3843725000001541,0.4,0,AccAcc,6,18,Woman,Right,
26,6,1,0.9517205999995895,['c'],1,left,['8'],3,0.31768000000010943,0.2,0,AccAcc,6,18,Woman,Right,
27,6,1,1.2172249999998712,['c'],1,left,['8'],3,0.334535699999833,0.4,0,AccAcc,6,18,Woman,Right,
28,6,1,0.8508418000001257,['c'],0,right,['2'],5,0.251013999999941,0.2,0,AccAcc,6,18,Woman,Right,
29,6,1,1.1677488000000267,['c'],1,left,['3'],4,0.2497337999998308,0.4,0,AccAcc,6,18,Woman,Right,
30,6,1,1.4666815000000497,['c'],1,left,['3'],4,0.30075669999996535,0.4,0,AccAcc,6,18,Woman,Right,
31,6,1,1.0340547000000697,['c'],1,left,['3'],4,0.23429750000013883,0.1,0,AccAcc,6,18,Woman,Right,
32,6,1,0.7171893999998247,['c'],1,left,['3'],4,0.21825079999962327,0.2,0,AccAcc,6,18,Woman,Right,
33,6,1,1.5848060000002988,['c'],0,right,['3'],4,0.20092209999984334,0.2,0,AccAcc,6,18,Woman,Right,
34,6,1,1.801779500000066,['c'],0,right,['3'],4,0.25120579999975234,0.4,0,AccAcc,6,18,Woman,Right,
35,6,1,0.8172706999998809,['c'],0,right,['3'],4,0.25087440000015704,0.2,0,AccAcc,6,18,Woman,Right,
36,6,1,1.183066300000064,['c'],1,left,['2'],5,0.23509280000007493,0.4,0,AccAcc,6,18,Woman,Right,
37,6,1,3.1342758999999205,['c'],0,right,['2'],5,0.5009834999996201,0.2,0,AccAcc,6,18,Woman,Right,
38,6,1,2.3000025000001187,['c'],0,right,['3'],4,0.6187789000000521,0.1,0,AccAcc,6,18,Woman,Right,
39,6,1,1.8841729999999188,['c'],0,right,['8'],3,0.7844684000001507,0.4,0,AccAcc,6,18,Woman,Right,
40,6,1,3.8502152000000933,['n'],1,right,['3'],4,0.5010138000002371,0.1,0,AccAcc,6,18,Woman,Right,
41,6,1,0.9841963000003489,['c'],1,left,['3'],4,0.417366800000309,0.4,0,AccAcc,6,18,Woman,Right,
42,6,1,2.1837681000001794,['n'],0,left,['8'],3,0.3343496000002233,0.1,0,AccAcc,6,18,Woman,Right,
43,6,1,0.6675347999998849,['c'],1,left,['3'],4,0.33467930000006163,0.4,0,AccAcc,6,18,Woman,Right,
44,6,1,1.6168483999999808,['n'],1,right,['9'],2,0.1682223000002523,0.2,0,AccAcc,6,18,Woman,Right,
45,6,1,1.083742699999675,['c'],0,right,['3'],4,0.2344705000000431,0.4,0,AccAcc,6,18,Woman,Right,
46,6,1,1.1677234999997381,['c'],1,left,['2'],5,0.23298979999981384,0.1,0,AccAcc,6,18,Woman,Right,
47,6,1,1.4345102000002043,['n'],1,right,['9'],2,0.2670904999999948,0.4,0,AccAcc,6,18,Woman,Right,
48,6,1,1.4668969000003926,['n'],0,left,['9'],2,0.31756529999984195,0.1,0,AccAcc,6,18,Woman,Right,
49,6,1,0.8842091999999866,['n'],0,left,['3'],4,0.18387739999980113,0.1,0,AccAcc,6,18,Woman,Right,
50,6,1,1.2009299999999712,['n'],0,left,['3'],4,0.26789729999973133,0.2,0,AccAcc,6,18,Woman,Right,
51,6,1,1.1842854000001353,['n'],1,right,['3'],4,0.4176292000001922,0.2,0,AccAcc,6,18,Woman,Right,
52,6,1,0.8174783999997999,['n'],1,right,['2'],5,0.3345438999999715,0.1,0,AccAcc,6,18,Woman,Right,
53,6,1,0.8665448000001561,['n'],1,right,['2'],5,0.4173180000002503,0.2,0,AccAcc,6,18,Woman,Right,
54,6,1,1.1837048000002142,['n'],0,left,['2'],5,0.3162321999998312,0.2,0,AccAcc,6,18,Woman,Right,
55,6,1,0.8849674999996751,['n'],1,right,['3'],4,0.3342952999996669,0.4,0,AccAcc,6,18,Woman,Right,
56,6,1,1.5009949999998753,['n'],1,right,['3'],4,0.4343344999997498,0.1,0,AccAcc,6,18,Woman,Right,
57,6,1,0.816983799999889,['n'],0,left,['3'],4,0.2179047999998147,0.1,0,AccAcc,6,18,Woman,Right,
58,6,1,1.2338497999999163,['n'],1,right,['3'],4,0.3004565999999613,0.2,0,AccAcc,6,18,Woman,Right,
59,6,1,1.4676590999997643,['n'],0,left,['9'],2,1.2511061000000154,0.2,0,AccAcc,6,18,Woman,Right,
0,7,1,0.7696679999999105,['c'],0,right,['8'],3,0.5176412999999229,0.1,0,FastAcc,6,18,Woman,Right,
1,7,1,0.7837062999997215,['c'],1,left,['8'],3,0.21748840000009295,0.4,0,FastAcc,6,18,Woman,Right,
2,7,1,0.7678396999999677,['c'],0,right,['8'],3,0.1845786999997472,0.2,0,FastAcc,6,18,Woman,Right,
3,7,1,0.5507649999999558,['c'],1,left,['8'],3,0.15062669999997524,0.1,0,FastAcc,6,18,Woman,Right,
4,7,1,0.6180692000002637,['c'],1,left,['9'],2,0.16768499999989217,0.4,0,FastAcc,6,18,Woman,Right,
5,7,1,0.5842319999997017,['c'],0,right,['9'],2,0.23519590000023527,0.4,0,FastAcc,6,18,Woman,Right,
6,7,1,0.6674350999996932,['c'],0,right,['3'],4,0.5165649999999005,0.4,0,FastAcc,6,18,Woman,Right,
7,7,1,0.6512510000002294,['c'],1,left,['3'],4,0.48463700000002063,0.4,0,FastAcc,6,18,Woman,Right,
8,7,1,0.5182906000000003,['c'],0,right,['3'],4,0.16753860000017085,0.1,0,FastAcc,6,18,Woman,Right,
9,7,1,0.5008182999999917,['c'],0,right,['3'],4,0.15031649999991714,0.2,0,FastAcc,6,18,Woman,Right,
10,7,1,0.5014616000003116,['c'],0,right,['3'],4,0.18424730000015188,0.2,0,FastAcc,6,18,Woman,Right,
11,7,1,0.7504951999999321,['c'],0,right,['3'],4,0.26735469999994166,0.1,0,FastAcc,6,18,Woman,Right,
12,7,1,0.5671145000001161,['c'],1,left,['3'],4,0.3010994000001119,0.2,0,FastAcc,6,18,Woman,Right,
13,7,1,1.183525799999643,['c'],0,right,['9'],2,0.18459530000018276,0.1,0,FastAcc,6,18,Woman,Right,
14,7,1,0.9342320000000655,['c'],1,left,['3'],4,0.2350056999998742,0.1,0,FastAcc,6,18,Woman,Right,
15,7,1,0.9502582000000075,['c'],1,left,['3'],4,0.2009979999997995,0.4,0,FastAcc,6,18,Woman,Right,
16,7,1,1.2013984999998684,['c'],1,left,['3'],4,0.15088880000030258,0.1,0,FastAcc,6,18,Woman,Right,
17,7,1,0.9335854999999356,['c'],0,right,['3'],4,0.017760399999588117,0.4,0,FastAcc,6,18,Woman,Right,
18,7,1,1.4839810000003126,['c'],0,right,['3'],4,0.16795109999975466,0.2,0,FastAcc,6,18,Woman,Right,
19,7,1,2.200955299999805,['c'],1,left,['9'],2,0.11759859999983746,0.2,0,FastAcc,6,18,Woman,Right,
20,7,1,1.7170836000000236,['n'],1,right,['8'],3,0.13517319999982647,0.1,0,FastAcc,6,18,Woman,Right,
21,7,1,0.8171345000000656,['c'],1,left,['8'],3,0.2845690999997714,0.4,0,FastAcc,6,18,Woman,Right,
22,7,1,1.0511359000001903,['c'],0,right,['3'],4,0.08436170000004495,0.4,0,FastAcc,6,18,Woman,Right,
23,7,1,1.150859599999876,['c'],1,left,['3'],4,0.1343010000000504,0.2,0,FastAcc,6,18,Woman,Right,
24,7,1,0.6842636000001221,['c'],1,left,['3'],4,0.2011265999999523,0.4,0,FastAcc,6,18,Woman,Right,
25,7,1,0.9833214999998745,['c'],0,right,['3'],4,0.16702249999980268,0.2,0,FastAcc,6,18,Woman,Right,
26,7,1,1.0660750000001826,['c'],0,right,['2'],5,0.23397419999992053,0.2,0,FastAcc,6,18,Woman,Right,
27,7,1,1.3841072000000167,['c'],1,left,['3'],4,0.1840530000004037,0.1,0,FastAcc,6,18,Woman,Right,
28,7,1,1.6826209000000745,['c'],1,left,['3'],4,0.2513205000000198,0.4,0,FastAcc,6,18,Woman,Right,
29,7,1,1.6163931999999477,['c'],1,left,['3'],4,0.26748129999987214,0.4,0,FastAcc,6,18,Woman,Right,
30,7,1,0.7842268999997941,['n'],1,right,['3'],4,0.5843777000000046,0.4,0,FastAcc,6,18,Woman,Right,
31,7,1,0.8336988000000929,['n'],1,right,['3'],4,0.2511890000000676,0.2,0,FastAcc,6,18,Woman,Right,
32,7,1,0.7677266999999119,['n'],1,right,['3'],4,0.3345576000001529,0.4,0,FastAcc,6,18,Woman,Right,
33,7,1,1.6676430999996228,['n'],1,right,['2'],5,0.2187582999999904,0.2,0,FastAcc,6,18,Woman,Right,
34,7,1,0.650068999999803,['n'],0,left,['2'],5,0.13539929999978995,0.1,0,FastAcc,6,18,Woman,Right,
35,7,1,1.5339982000000418,['n'],1,right,['2'],5,0.4175700999999208,0.1,0,FastAcc,6,18,Woman,Right,
36,7,1,0.9343239999998332,['n'],1,right,['3'],4,0.25092380000023695,0.4,0,FastAcc,6,18,Woman,Right,
37,7,1,0.8179943999998613,['c'],1,left,['3'],4,0.21630729999969844,0.2,0,FastAcc,6,18,Woman,Right,
38,7,1,1.0001913999999488,['n'],0,left,['0'],1,1.5509378000001561,0.4,0,FastAcc,6,18,Woman,Right,
39,7,1,1.2844083999998475,['c'],1,left,['3'],4,0.3000731000001906,0.4,0,FastAcc,6,18,Woman,Right,
40,7,1,0.8004439999999704,['c'],0,right,['3'],4,0.25151140000025407,0.2,0,FastAcc,6,18,Woman,Right,
41,7,1,0.8509155000001556,['c'],1,left,['3'],4,0.20098809999990408,0.2,0,FastAcc,6,18,Woman,Right,
42,7,1,0.7493297000000894,['c'],1,left,['3'],4,0.2173083999996379,0.1,0,FastAcc,6,18,Woman,Right,
43,7,1,1.5180613000002268,['c'],0,right,['3'],4,0.2678571000001284,0.1,0,FastAcc,6,18,Woman,Right,
44,7,1,1.1331004999997276,['n'],0,left,['3'],4,0.09953470000027664,0.1,0,FastAcc,6,18,Woman,Right,
45,7,1,1.0016639999998915,['c'],1,left,['3'],4,0.18432510000002367,0.1,0,FastAcc,6,18,Woman,Right,
46,7,1,0.7163242000001446,['c'],0,right,['3'],4,0.3169072000000597,0.1,0,FastAcc,6,18,Woman,Right,
47,7,1,0.7014346999999361,['c'],0,right,['3'],4,0.14963910000005853,0.4,0,FastAcc,6,18,Woman,Right,
48,7,1,0.7509135000000242,['c'],0,right,['3'],4,0.1675774000000274,0.2,0,FastAcc,6,18,Woman,Right,
49,7,1,0.7658600999998271,['c'],1,left,['3'],4,0.16846750000013344,0.1,0,FastAcc,6,18,Woman,Right,
50,7,1,0.8506458000001658,['c'],1,left,['2'],5,0.11864860000014232,0.2,0,FastAcc,6,18,Woman,Right,
51,7,1,0.7514142999998512,['c'],0,right,['2'],5,0.13462120000031064,0.2,0,FastAcc,6,18,Woman,Right,
52,7,1,0.9168095999998513,['c'],1,left,['2'],5,0.05109700000002704,0.4,0,FastAcc,6,18,Woman,Right,
53,7,1,1.1016684999999597,['c'],1,left,['2'],5,0.18434509999997317,0.1,0,FastAcc,6,18,Woman,Right,
54,7,1,1.6005442999999104,['n'],1,right,['9'],2,0.18442830000003596,0.2,0,FastAcc,6,18,Woman,Right,
55,7,1,1.7332845999999336,['n'],0,left,['9'],2,0.2845858999999109,0.1,0,FastAcc,6,18,Woman,Right,
56,7,1,1.4664490999998634,['c'],1,left,['3'],4,0.5343926999998985,0.2,0,FastAcc,6,18,Woman,Right,
57,7,1,1.4338428000000931,['n'],1,right,['3'],4,0.16790590000027805,0.2,0,FastAcc,6,18,Woman,Right,
58,7,1,1.1337689000001774,['c'],1,left,['3'],4,0.2010085000001709,0.1,0,FastAcc,6,18,Woman,Right,
59,7,1,1.7002172000002247,['n'],1,right,['3'],4,0.21740439999985028,0.4,0,FastAcc,6,18,Woman,Right,
0,8,1,0.8039325999998255,['c'],1,left,['3'],4,0.16795019999972283,0.4,0,FastFast,6,18,Woman,Right,
1,8,1,0.5828818999998475,['c'],1,left,['3'],4,0.11770019999994474,0.4,0,FastFast,6,18,Woman,Right,
2,8,1,0.48386970000001384,['c'],0,right,['3'],4,0.1014433000000281,0.4,0,FastFast,6,18,Woman,Right,
3,8,1,0.5175761000000421,['c'],1,left,['8'],3,0.06765850000010687,0.2,0,FastFast,6,18,Woman,Right,
4,8,1,0.4509180000000015,['c'],0,right,['8'],3,0.4011331000001519,0.1,0,FastFast,6,18,Woman,Right,
5,8,1,0.5507963000000018,['c'],1,left,['8'],3,0.08373459999984334,0.4,0,FastFast,6,18,Woman,Right,
6,8,1,0.8665839000000233,['n'],0,left,['3'],4,0.08332089999976233,0.1,0,FastFast,6,18,Woman,Right,
7,8,1,0.717236800000137,['c'],1,left,['8'],3,0.2499523000001318,0.1,0,FastFast,6,18,Woman,Right,
8,8,1,1.1678597000000082,['n'],1,right,['3'],4,0.1327393999999913,0.1,0,FastFast,6,18,Woman,Right,
9,8,1,1.0353852999996889,['c'],1,left,['2'],5,0.21667369999977382,0.4,0,FastFast,6,18,Woman,Right,
10,8,1,0.7511808000003839,['c'],1,left,['2'],5,0.268117600000096,0.4,0,FastFast,6,18,Woman,Right,
11,8,1,0.7503759000001082,['c'],0,right,['3'],4,0.28318439999975453,0.1,0,FastFast,6,18,Woman,Right,
12,8,1,1.4016427000001386,['n'],1,right,['8'],3,0.2007515999998759,0.2,0,FastFast,6,18,Woman,Right,
13,8,1,0.667235499999606,['c'],1,left,['3'],4,0.16769300000032672,0.4,0,FastFast,6,18,Woman,Right,
14,8,1,0.8008122999999614,['n'],0,left,['8'],3,0.1343643999998676,0.4,0,FastFast,6,18,Woman,Right,
15,8,1,1.233762200000001,['c'],0,right,['3'],4,0.20020019999992655,0.4,0,FastFast,6,18,Woman,Right,
16,8,1,1.1682559999999285,['n'],1,right,['3'],4,0.08378300000003946,0.1,0,FastFast,6,18,Woman,Right,
17,8,1,1.266512000000148,['n'],1,right,['8'],3,0.20150479999983872,0.4,0,FastFast,6,18,Woman,Right,
18,8,1,2.1679346999999325,['n'],0,left,['3'],4,0.23437120000016876,0.2,0,FastFast,6,18,Woman,Right,
19,8,1,0.984483100000034,['c'],0,right,['3'],4,0.1176935999997113,0.2,0,FastFast,6,18,Woman,Right,
20,8,1,1.0511436000001595,['n'],0,left,['3'],4,0.1511374000001524,0.1,0,FastFast,6,18,Woman,Right,
21,8,1,0.9178753999999572,['n'],1,right,['3'],4,0.2173598999997921,0.2,0,FastFast,6,18,Woman,Right,
22,8,1,2.366377999999713,['n'],0,left,['3'],4,0.21839399999998932,0.2,0,FastFast,6,18,Woman,Right,
23,8,1,0.683292000000165,['n'],0,left,['3'],4,0.28454820000024483,0.4,0,FastFast,6,18,Woman,Right,
24,8,1,0.9995445000004111,['n'],1,right,['3'],4,0.13503039999977773,0.1,0,FastFast,6,18,Woman,Right,
25,8,1,1.733219100000042,['c'],0,right,['8'],3,0.2685068000000683,0.4,0,FastFast,6,18,Woman,Right,
26,8,1,1.1674003000002813,['n'],0,left,['3'],4,0.15141100000028018,0.2,0,FastFast,6,18,Woman,Right,
27,8,1,1.5509680000000117,['n'],1,right,['3'],4,0.3010831000001417,0.4,0,FastFast,6,18,Woman,Right,
28,8,1,1.1011262000001807,['c'],0,right,['3'],4,0.16749710000021878,0.2,0,FastFast,6,18,Woman,Right,
29,8,1,1.3676587999998446,['c'],1,left,['3'],4,0.2176659000001564,0.4,0,FastFast,6,18,Woman,Right,
30,8,1,1.999851299999591,['n'],1,right,['3'],4,0.13480619999972987,0.1,0,FastFast,6,18,Woman,Right,
31,8,1,0.8509118000001763,['n'],1,right,['3'],4,0.08388300000024174,0.2,0,FastFast,6,18,Woman,Right,
32,8,1,1.5007298999998966,['c'],0,right,['3'],4,0.20099479999998948,0.1,0,FastFast,6,18,Woman,Right,
33,8,1,1.6679027999998652,['c'],1,left,['3'],4,0.3003576000000976,0.1,0,FastFast,6,18,Woman,Right,
34,8,1,0.718468699999903,['c'],1,left,['3'],4,0.13396000000011554,0.1,0,FastFast,6,18,Woman,Right,
35,8,1,0.7833435000002282,['n'],0,left,['3'],4,0.06780250000019805,0.2,0,FastFast,6,18,Woman,Right,
36,8,1,0.8339320999998563,['n'],1,right,['3'],4,0.06734860000005938,0.4,0,FastFast,6,18,Woman,Right,
37,8,1,0.532517199999802,['n'],1,right,['3'],4,0.05166109999981927,0.4,0,FastFast,6,18,Woman,Right,
38,8,1,0.6505050000000665,['c'],0,right,['8'],3,0.06748830000015005,0.1,0,FastFast,6,18,Woman,Right,
39,8,1,0.9837582000000111,['c'],1,left,['9'],2,0.1512958999996954,0.2,0,FastFast,6,18,Woman,Right,
40,8,1,0.9162673999999242,['n'],0,left,['3'],4,0.03470309999966048,0.4,0,FastFast,6,18,Woman,Right,
41,8,1,0.6840903000002072,['n'],0,left,['3'],4,0.05133899999964342,0.2,0,FastFast,6,18,Woman,Right,
42,8,1,1.5014297000002443,['c'],0,right,['8'],3,0.30135100000006787,0.2,0,FastFast,6,18,Woman,Right,
43,8,1,1.6830505000002631,['c'],1,left,['3'],4,0.21699459999990722,0.1,0,FastFast,6,18,Woman,Right,
44,8,1,1.6852194000002783,['n'],0,left,['3'],4,0.2344959000001836,0.2,0,FastFast,6,18,Woman,Right,
45,8,1,0.7173775999999634,['c'],1,left,['3'],4,0.1329254000002038,0.4,0,FastFast,6,18,Woman,Right,
46,8,1,0.9010426999998344,['c'],1,left,['3'],4,0.15129090000027645,0.2,0,FastFast,6,18,Woman,Right,
47,8,1,0.79936379999981,['c'],0,right,['2'],5,0.16793079999979454,0.2,0,FastFast,6,18,Woman,Right,
48,8,1,1.6335709999998471,['c'],0,right,['3'],4,0.21763879999980418,0.2,0,FastFast,6,18,Woman,Right,
49,8,1,1.633744100000058,['c'],1,left,['3'],4,0.18447880000030636,0.1,0,FastFast,6,18,Woman,Right,
50,8,1,1.234134300000278,['n'],0,left,['3'],4,0.16874819999975443,0.1,0,FastFast,6,18,Woman,Right,
51,8,1,0.8509111000003031,['n'],0,left,['3'],4,0.1344850000000406,0.4,0,FastFast,6,18,Woman,Right,
52,8,1,0.9672479000000749,['n'],1,right,['3'],4,0.18439549999993687,0.1,0,FastFast,6,18,Woman,Right,
53,8,1,0.9341088999999556,['n'],1,right,['3'],4,0.18480899999985922,0.1,0,FastFast,6,18,Woman,Right,
54,8,1,0.9677630999999565,['n'],1,right,['3'],4,0.10110389999999825,0.2,0,FastFast,6,18,Woman,Right,
55,8,1,1.4846016999999847,['n'],1,right,['3'],4,0.16790290000017194,0.2,0,FastFast,6,18,Woman,Right,
56,8,1,3.833896300000106,['c'],0,right,['8'],3,0.18369710000024497,0.1,0,FastFast,6,18,Woman,Right,
57,8,1,1.0325305000001208,['n'],1,right,['8'],3,0.16802499999994325,0.4,0,FastFast,6,18,Woman,Right,
58,8,1,0.899887900000067,['c'],1,left,['8'],3,0.2172288000001572,0.2,0,FastFast,6,18,Woman,Right,
59,8,1,0.5676584999996521,['c'],0,right,['8'],3,0.2178063999999722,0.1,0,FastFast,6,18,Woman,Right,
0,9,1,1.2517554000000928,['n'],1,right,['8'],3,0.10226230000034775,0.4,0,AccFast,6,18,Woman,Right,
1,9,1,0.8000707999999577,['n'],1,right,['8'],3,0.18456170000035854,0.4,0,AccFast,6,18,Woman,Right,
2,9,1,0.8331858999999895,['c'],0,right,['3'],4,0.1843935000001693,0.2,0,AccFast,6,18,Woman,Right,
3,9,1,0.684202599999935,['c'],1,left,['3'],4,0.1345011000003069,0.1,0,AccFast,6,18,Woman,Right,
4,9,1,0.9001330000000962,['n'],0,left,['3'],4,0.08346630000005462,0.4,0,AccFast,6,18,Woman,Right,
5,9,1,0.7664461999997911,['c'],0,right,['3'],4,0.068809599999895,0.2,0,AccFast,6,18,Woman,Right,
6,9,1,0.6839834000002156,['c'],0,right,['3'],4,0.11767850000023827,0.1,0,AccFast,6,18,Woman,Right,
7,9,1,0.7671753999998145,['c'],1,left,['3'],4,0.0844320000001062,0.4,0,AccFast,6,18,Woman,Right,
8,9,1,0.666722800000116,['c'],1,left,['3'],4,0.03373970000029658,0.1,0,AccFast,6,18,Woman,Right,
9,9,1,0.7508184000002984,['n'],0,left,['8'],3,0.11833739999974568,0.4,0,AccFast,6,18,Woman,Right,
10,9,1,1.0170969000000696,['n'],1,right,['8'],3,0.11594659999991563,0.4,0,AccFast,6,18,Woman,Right,
11,9,1,0.9180603999998311,['c'],1,left,"['3', '8']",4,0.16658419999976104,0.2,0,AccFast,6,18,Woman,Right,
12,9,1,0.7844949999998789,['c'],1,left,['8'],3,0.21797680000008768,0.1,0,AccFast,6,18,Woman,Right,
13,9,1,0.8175624000000425,['c'],0,right,['8'],3,0.08430989999988014,0.1,0,AccFast,6,18,Woman,Right,
14,9,1,0.7174297000001388,['c'],1,left,['3'],4,0.1677092999998422,0.1,0,AccFast,6,18,Woman,Right,
15,9,1,0.9339488999999048,['c'],0,right,['3'],4,0.1851965000000746,0.1,0,AccFast,6,18,Woman,Right,
16,9,1,0.8517911000003551,['c'],1,left,['8'],3,0.23425649999990128,0.4,0,AccFast,6,18,Woman,Right,
17,9,1,0.8000185000000783,['c'],0,right,['3'],4,0.20092079999994894,0.4,0,AccFast,6,18,Woman,Right,
18,9,1,0.8505890000001273,['c'],1,left,['3'],4,0.11761859999978697,0.4,0,AccFast,6,18,Woman,Right,
19,9,1,1.0834863000000041,['c'],0,right,['3'],4,0.15153220000001966,0.4,0,AccFast,6,18,Woman,Right,
20,9,1,0.9665080000004309,['c'],0,right,['3'],4,0.10089270000025863,0.2,0,AccFast,6,18,Woman,Right,
21,9,1,0.7009142000001702,['c'],1,left,['3'],4,0.11742350000031365,0.2,0,AccFast,6,18,Woman,Right,
22,9,1,0.8341888999998446,['n'],0,left,['3'],4,0.10104839999985415,0.4,0,AccFast,6,18,Woman,Right,
23,9,1,0.6343833000000814,['c'],1,left,['8'],3,0.1676379000000452,0.2,0,AccFast,6,18,Woman,Right,
24,9,1,1.1160660999998981,['n'],0,left,['3'],4,0.16711249999980282,0.2,0,AccFast,6,18,Woman,Right,
25,9,1,1.0346331999999165,['n'],1,right,['3'],4,0.4507131999998819,0.1,0,AccFast,6,18,Woman,Right,
26,9,1,0.9839197999999669,['n'],1,right,['3'],4,0.0843696000001728,0.2,0,AccFast,6,18,Woman,Right,
27,9,1,0.7340982000000622,['c'],1,left,['8'],3,0.15010159999974348,0.1,0,AccFast,6,18,Woman,Right,
28,9,1,0.8517431999998735,['c'],1,left,['8'],3,0.13439219999963825,0.2,0,AccFast,6,18,Woman,Right,
29,9,1,1.0850101000000905,['c'],1,left,['8'],3,0.11800480000010793,0.2,0,AccFast,6,18,Woman,Right,
30,9,1,1.16652060000024,['n'],0,left,['3'],4,0.13516389999995226,0.2,0,AccFast,6,18,Woman,Right,
31,9,1,0.9513859000003322,['c'],1,left,['8'],3,0.13387499999998909,0.4,0,AccFast,6,18,Woman,Right,
32,9,1,0.901087500000358,['n'],1,right,['3'],4,0.1163075999998,0.2,0,AccFast,6,18,Woman,Right,
33,9,1,0.8668302000000949,['n'],1,right,['3'],4,0.23434309999993275,0.1,0,AccFast,6,18,Woman,Right,
34,9,1,0.8838787999998203,['c'],1,left,['3'],4,0.16610720000016954,0.2,0,AccFast,6,18,Woman,Right,
35,9,1,0.9018521999996665,['n'],1,right,['3'],4,0.11766829999987749,0.4,0,AccFast,6,18,Woman,Right,
36,9,1,0.9319218999999066,['c'],0,right,['3'],4,0.13541699999996126,0.1,0,AccFast,6,18,Woman,Right,
37,9,1,1.1339114000002155,['c'],1,left,['3'],4,2.484564099999716,0.1,0,AccFast,6,18,Woman,Right,
38,9,1,1.46769919999997,['n'],1,right,['3'],4,0.10071960000004765,0.2,0,AccFast,6,18,Woman,Right,
39,9,1,0.9344946000001073,['n'],0,left,['3'],4,0.08474509999996371,0.1,0,AccFast,6,18,Woman,Right,
40,9,1,0.900909099999808,['c'],1,left,['3'],4,0.13324039999997694,0.4,0,AccFast,6,18,Woman,Right,
41,9,1,1.6669520000000375,['c'],0,right,['3'],4,0.15106359999981578,0.2,0,AccFast,6,18,Woman,Right,
42,9,1,0.8674079999996138,['c'],0,right,['3'],4,0.13466969999990397,0.1,0,AccFast,6,18,Woman,Right,
43,9,1,0.7844495999997889,['c'],0,right,['3'],4,0.13451600000007602,0.2,0,AccFast,6,18,Woman,Right,
44,9,1,0.7004413999998178,['c'],0,right,['3'],4,0.1169660999998996,0.1,0,AccFast,6,18,Woman,Right,
45,9,1,0.9840446999996857,['c'],1,left,['8'],3,0.20008880000023055,0.1,0,AccFast,6,18,Woman,Right,
46,9,1,1.3174252999997407,['n'],0,left,['3'],4,0.16710029999967446,0.1,0,AccFast,6,18,Woman,Right,
47,9,1,0.9841523999998572,['c'],0,right,['3'],4,0.13503880000007484,0.2,0,AccFast,6,18,Woman,Right,
48,9,1,0.9502723000000515,['n'],0,left,['3'],4,0.10170739999966827,0.4,0,AccFast,6,18,Woman,Right,
49,9,1,1.0501813000000766,['n'],1,right,['3'],4,0.10112679999974716,0.4,0,AccFast,6,18,Woman,Right,
50,9,1,1.1340026999996553,['n'],0,left,['3'],4,0.14990949999992154,0.2,0,AccFast,6,18,Woman,Right,
51,9,1,0.8016458000001876,['n'],1,right,['3'],4,0.1345397000000048,0.2,0,AccFast,6,18,Woman,Right,
52,9,1,1.3171050999999352,['n'],1,right,['3'],4,0.11765759999980219,0.4,0,AccFast,6,18,Woman,Right,
53,9,1,1.000570400000015,['n'],1,right,['3'],4,0.11738740000009784,0.1,0,AccFast,6,18,Woman,Right,
54,9,1,0.8505304000000251,['n'],0,left,['3'],4,0.13497069999993982,0.2,0,AccFast,6,18,Woman,Right,
55,9,1,1.0997214000003623,['n'],0,left,['3'],4,0.10188250000010157,0.1,0,AccFast,6,18,Woman,Right,
56,9,1,0.9011473000000478,['n'],1,right,['3'],4,0.08307369999965886,0.4,0,AccFast,6,18,Woman,Right,
57,9,1,1.3848445999997239,['n'],0,left,['3'],4,0.13380750000033004,0.4,0,AccFast,6,18,Woman,Right,
58,9,1,0.8343448000000535,['n'],1,right,['3'],4,0.08451259999992544,0.1,0,AccFast,6,18,Woman,Right,
59,9,1,0.9340538999999808,['n'],1,right,['3'],4,0.11768650000021808,0.4,0,AccFast,6,18,Woman,Right,
0,10,1,0.8522509999997965,['c'],1,left,['3'],4,0.2504047000002174,0.2,0,AccAcc,6,18,Woman,Right,
1,10,1,0.8005401999998867,['c'],1,left,['3'],4,0.20101170000043567,0.2,0,AccAcc,6,18,Woman,Right,
2,10,1,0.667216400000143,['n'],1,right,['3'],4,0.20080749999988257,0.1,0,AccAcc,6,18,Woman,Right,
3,10,1,0.8844826999998077,['n'],0,left,['2'],5,0.251318000000083,0.2,0,AccAcc,6,18,Woman,Right,
4,10,1,0.6843417999998564,['c'],0,right,['3'],4,0.2844812999996975,0.1,0,AccAcc,6,18,Woman,Right,
5,10,1,2.0012636000001294,['c'],0,right,['3'],4,0.3345294999999169,0.2,0,AccAcc,6,18,Woman,Right,
6,10,1,0.6842381999999816,['c'],1,left,['3'],4,0.2164692000001196,0.1,0,AccAcc,6,18,Woman,Right,
7,10,1,0.867709399999967,['n'],1,right,['3'],4,0.13360849999980928,0.4,0,AccAcc,6,18,Woman,Right,
8,10,1,1.0838902000000417,['n'],1,right,['3'],4,0.13406409999970492,0.1,0,AccAcc,6,18,Woman,Right,
9,10,1,0.951234900000145,['n'],1,right,['3'],4,0.16787990000011632,0.4,0,AccAcc,6,18,Woman,Right,
10,10,1,1.4337233000001106,['n'],1,right,['3'],4,0.13440889999992578,0.2,0,AccAcc,6,18,Woman,Right,
11,10,1,1.1340425999997024,['n'],1,right,['3'],4,0.16764149999971778,0.4,0,AccAcc,6,18,Woman,Right,
12,10,1,1.467205500000091,['n'],1,right,['3'],4,0.28447700000015175,0.4,0,AccAcc,6,18,Woman,Right,
13,10,1,0.8339171000002352,['n'],0,left,['3'],4,0.10089510000034352,0.2,0,AccAcc,6,18,Woman,Right,
14,10,1,1.5335144999999102,['n'],1,right,['8'],3,0.16754630000014004,0.1,0,AccAcc,6,18,Woman,Right,
15,10,1,0.8007265000001098,['n'],0,left,['8'],3,2.167672599999605,0.4,0,AccAcc,6,18,Woman,Right,
16,10,1,0.9683964000000742,['n'],0,left,['3'],4,0.1335454000000027,0.1,0,AccAcc,6,18,Woman,Right,
17,10,1,0.9841316000001825,['n'],1,right,['3'],4,0.1015161000000262,0.2,0,AccAcc,6,18,Woman,Right,
18,10,1,1.5997004000000743,['n'],1,right,['3'],4,0.1351543999999194,0.4,0,AccAcc,6,18,Woman,Right,
19,10,1,1.1328604999998788,['c'],0,right,['3'],4,0.8517456999998103,0.2,0,AccAcc,6,18,Woman,Right,
20,10,1,1.0342114000000038,['n'],0,left,['3'],4,0.051234500000191474,0.1,0,AccAcc,6,18,Woman,Right,
21,10,1,0.8842134999999871,['c'],1,left,['3'],4,0.08430559999987963,0.4,0,AccAcc,6,18,Woman,Right,
22,10,1,1.7668164000001525,['c'],0,right,['3'],4,0.13458360000004177,0.4,0,AccAcc,6,18,Woman,Right,
23,10,1,0.8832931999995708,['c'],1,left,['3'],4,0.13441899999997986,0.1,0,AccAcc,6,18,Woman,Right,
24,10,1,0.5830261000000974,['c'],1,left,['3'],4,0.03517759999976988,0.1,0,AccAcc,6,18,Woman,Right,
25,10,1,0.6177433000002566,['c'],1,left,['3'],4,0.034186099999715225,0.4,0,AccAcc,6,18,Woman,Right,
26,10,1,1.2010715000001255,['c'],1,left,['8'],3,0.15112870000029943,0.4,0,AccAcc,6,18,Woman,Right,
27,10,1,1.2342635999998492,['c'],1,left,['8'],3,0.1500037999999222,0.1,0,AccAcc,6,18,Woman,Right,
28,10,1,0.8013179000004129,['c'],1,left,['3'],4,0.16853609999998298,0.4,0,AccAcc,6,18,Woman,Right,
29,10,1,0.8174549000000297,['c'],1,left,['3'],4,0.11834129999988363,0.1,0,AccAcc,6,18,Woman,Right,
30,10,1,1.0009641999999985,['c'],0,right,['3'],4,0.23443540000016583,0.2,0,AccAcc,6,18,Woman,Right,
31,10,1,1.2844031999998151,['c'],1,left,['3'],4,0.2015476999999919,0.4,0,AccAcc,6,18,Woman,Right,
32,10,1,1.033572599999843,['n'],1,right,['3'],4,0.1498527000003378,0.4,0,AccAcc,6,18,Woman,Right,
33,10,1,1.4182590000000346,['c'],1,left,['3'],4,0.18320719999974244,0.1,0,AccAcc,6,18,Woman,Right,
34,10,1,0.8008299000002808,['c'],1,left,['3'],4,0.15137589999994816,0.2,0,AccAcc,6,18,Woman,Right,
35,10,1,0.9014720000000125,['c'],0,right,['3'],4,0.11717889999999898,0.4,0,AccAcc,6,18,Woman,Right,
36,10,1,1.0831963999999061,['c'],0,right,['3'],4,0.2181455999998434,0.2,0,AccAcc,6,18,Woman,Right,
37,10,1,1.9826739000000089,['c'],1,left,['3'],4,0.2018396000003122,0.1,0,AccAcc,6,18,Woman,Right,
38,10,1,0.9004400000003443,['c'],1,left,['3'],4,0.101288299999851,0.1,0,AccAcc,6,18,Woman,Right,
39,10,1,0.8007864000001064,['c'],0,right,['3'],4,0.16755100000000311,0.1,0,AccAcc,6,18,Woman,Right,
40,10,1,0.7516183999996429,['c'],0,right,['3'],4,0.050959900000179914,0.2,0,AccAcc,6,18,Woman,Right,
41,10,1,0.8010161000001972,['c'],1,left,['3'],4,0.0674405999998271,0.2,0,AccAcc,6,18,Woman,Right,
42,10,1,1.0335340000001452,['c'],1,left,['3'],4,0.1675335000004452,0.2,0,AccAcc,6,18,Woman,Right,
43,10,1,2.917294299999867,['n'],0,left,['3'],4,0.15113249999967593,0.4,0,AccAcc,6,18,Woman,Right,
44,10,1,1.0511742999997296,['c'],1,left,['3'],4,0.08439829999997528,0.1,0,AccAcc,6,18,Woman,Right,
45,10,1,0.8008398999995734,['c'],1,left,['3'],4,0.05131049999999959,0.4,0,AccAcc,6,18,Woman,Right,
46,10,1,1.316601300000002,['c'],1,left,['3'],4,0.1336103999997249,0.1,0,AccAcc,6,18,Woman,Right,
47,10,1,0.7685937000001104,['c'],0,right,['3'],4,0.13440970000010566,0.2,0,AccAcc,6,18,Woman,Right,
48,10,1,1.017243800000415,['c'],0,right,['3'],4,0.18394780000016908,0.1,0,AccAcc,6,18,Woman,Right,
49,10,1,1.4345383999998376,['n'],1,right,['3'],4,0.11743100000012419,0.4,0,AccAcc,6,18,Woman,Right,
50,10,1,0.8510345000004236,['c'],1,left,['3'],4,0.18560870000010254,0.4,0,AccAcc,6,18,Woman,Right,
51,10,1,0.5846626000002288,['c'],1,left,['3'],4,0.1345051000002968,0.1,0,AccAcc,6,18,Woman,Right,
52,10,1,0.6176108999998178,['c'],0,right,['3'],4,0.1345211000002564,0.2,0,AccAcc,6,18,Woman,Right,
53,10,1,0.7841959999996106,['c'],0,right,['3'],4,0.16778070000009393,0.2,0,AccAcc,6,18,Woman,Right,
54,10,1,0.8842967999999019,['c'],0,right,['3'],4,0.13462090000030003,0.4,0,AccAcc,6,18,Woman,Right,
55,10,1,0.8684775000001537,['c'],0,right,['3'],4,0.16787440000007336,0.1,0,AccAcc,6,18,Woman,Right,
56,10,1,0.9004734999998618,['c'],0,right,['3'],4,0.11753779999980907,0.4,0,AccAcc,6,18,Woman,Right,
57,10,1,0.750459200000023,['c'],0,right,['3'],4,0.06782039999961853,0.2,0,AccAcc,6,18,Woman,Right,
58,10,1,0.9828327999998692,['c'],0,right,['2'],5,0.11844229999996969,0.2,0,AccAcc,6,18,Woman,Right,
59,10,1,1.5516805999995995,['c'],1,left,['2'],5,1.5846065999999155,0.2,0,AccAcc,6,18,Woman,Right,
0,11,1,1.2028488000000834,['c'],1,left,['3'],4,0.10095479999972667,0.4,0,FastAcc,6,18,Woman,Right,
1,11,1,0.616098200000124,['c'],0,right,['3'],4,0.051667900000211375,0.1,0,FastAcc,6,18,Woman,Right,
2,11,1,0.6999096000004101,['c'],0,right,['3'],4,0.03349339999977019,0.1,0,FastAcc,6,18,Woman,Right,
3,11,1,0.5837071000000833,['c'],1,left,['3'],4,0.10178440000026967,0.1,0,FastAcc,6,18,Woman,Right,
4,11,1,0.4512776000001395,['c'],1,left,['3'],4,0.08446460000004663,0.4,0,FastAcc,6,18,Woman,Right,
5,11,1,0.8343492000003607,['c'],0,right,['2'],5,0.16793619999998555,0.1,0,FastAcc,6,18,Woman,Right,
6,11,1,0.6347317999998268,['c'],1,left,['8'],3,0.10080889999971987,0.2,0,FastAcc,6,18,Woman,Right,
7,11,1,0.6009503999998742,['c'],0,right,['2'],5,0.15131419999988793,0.2,0,FastAcc,6,18,Woman,Right,
8,11,1,0.5007353000000876,['c'],1,left,['3'],4,0.13378549999970346,0.2,0,FastAcc,6,18,Woman,Right,
9,11,1,0.5344879999997829,['c'],1,left,['2'],5,0.2337942999997722,0.2,0,FastAcc,6,18,Woman,Right,
10,11,1,0.6342121000002408,['c'],1,left,['2'],5,0.10091510000029302,0.4,0,FastAcc,6,18,Woman,Right,
11,11,1,0.8169527000000016,['c'],1,left,['2'],5,0.135477599999831,0.4,0,FastAcc,6,18,Woman,Right,
12,11,1,0.7015605999999934,['c'],1,left,['2'],5,0.08326090000036857,0.4,0,FastAcc,6,18,Woman,Right,
13,11,1,0.7014827000002697,['c'],1,left,['2'],5,0.21743059999971592,0.4,0,FastAcc,6,18,Woman,Right,
14,11,1,1.3175317999998697,['c'],1,left,['2'],5,0.18451869999989867,0.1,0,FastAcc,6,18,Woman,Right,
15,11,1,0.834144699999797,['c'],0,right,['2'],5,0.15059989999963364,0.2,0,FastAcc,6,18,Woman,Right,
16,11,1,0.9840896000000612,['c'],0,right,['3'],4,0.15126770000006218,0.2,0,FastAcc,6,18,Woman,Right,
17,11,1,1.0009104000000661,['c'],1,left,['3'],4,0.10126989999980651,0.4,0,FastAcc,6,18,Woman,Right,
18,11,1,1.284273000000212,['n'],0,left,['8'],3,0.13377290000016728,0.1,0,FastAcc,6,18,Woman,Right,
19,11,1,0.9181118999999853,['c'],1,left,['3'],4,0.06771710000020903,0.2,0,FastAcc,6,18,Woman,Right,
20,11,1,0.700625399999808,['c'],1,left,['2'],5,0.08438139999998384,0.4,0,FastAcc,6,18,Woman,Right,
21,11,1,1.1999227000001156,['c'],0,right,['2'],5,0.20019589999992604,0.4,0,FastAcc,6,18,Woman,Right,
22,11,1,0.7681752000003144,['c'],0,right,['3'],4,0.10112620000018069,0.2,0,FastAcc,6,18,Woman,Right,
23,11,1,0.7840178999999807,['c'],1,left,['3'],4,0.13396060000013676,0.1,0,FastAcc,6,18,Woman,Right,
24,11,1,0.7502964000000247,['c'],1,left,['3'],4,0.11780720000024303,0.1,0,FastAcc,6,18,Woman,Right,
25,11,1,0.5668276999999762,['c'],0,right,['3'],4,0.05169879999994009,0.4,0,FastAcc,6,18,Woman,Right,
26,11,1,0.6847379000000728,['c'],1,left,['3'],4,0.2009438999998565,0.2,0,FastAcc,6,18,Woman,Right,
27,11,1,1.0497239999999692,['c'],0,right,['3'],4,0.3686533000000054,0.2,0,FastAcc,6,18,Woman,Right,
28,11,1,3.1504839000003813,['c'],1,left,['3'],4,0.08458629999995537,0.2,0,FastAcc,6,18,Woman,Right,
29,11,1,1.201255399999809,['n'],1,right,['3'],4,0.05100579999998445,0.1,0,FastAcc,6,18,Woman,Right,
30,11,1,0.7500199999999495,['c'],1,left,['3'],4,0.050626700000066194,0.4,0,FastAcc,6,18,Woman,Right,
31,11,1,0.666916399999991,['c'],0,right,['3'],4,0.03453559999979916,0.2,0,FastAcc,6,18,Woman,Right,
32,11,1,0.7845924999996896,['c'],0,right,['3'],4,0.03415769999992335,0.2,0,FastAcc,6,18,Woman,Right,
33,11,1,1.2164721000003738,['c'],1,left,['3'],4,0.03379350000022896,0.4,0,FastAcc,6,18,Woman,Right,
34,11,1,0.9337565000000723,['n'],1,right,['3'],4,0.11781609999979992,0.2,0,FastAcc,6,18,Woman,Right,
35,11,1,2.2331506999998965,['n'],1,right,['8'],3,0.16658779999988838,0.4,0,FastAcc,6,18,Woman,Right,
36,11,1,1.8839302999999745,['n'],1,right,['8'],3,0.16830369999979666,0.2,0,FastAcc,6,18,Woman,Right,
37,11,1,1.3988878000000113,['n'],0,left,['8'],3,0.4670634999997674,0.1,0,FastAcc,6,18,Woman,Right,
38,11,1,1.2513927999998486,['n'],1,right,['8'],3,0.16694139999981417,0.1,0,FastAcc,6,18,Woman,Right,
39,11,1,1.3498710000003484,['n'],1,right,['3'],4,0.133596099999977,0.4,0,FastAcc,6,18,Woman,Right,
40,11,1,1.050873799999863,['c'],1,left,['3'],4,0.11772419999988415,0.4,0,FastAcc,6,18,Woman,Right,
41,11,1,1.617728299999726,['n'],0,left,['3'],4,0.13458829999990485,0.1,0,FastAcc,6,18,Woman,Right,
42,11,1,1.2831310999999914,['n'],1,right,['3'],4,0.08427010000013979,0.1,0,FastAcc,6,18,Woman,Right,
43,11,1,1.6664221999999427,['c'],0,right,['3'],4,0.20168069999999716,0.4,0,FastAcc,6,18,Woman,Right,
44,11,1,0.700571399999717,['c'],0,right,['3'],4,0.051272400000016205,0.1,0,FastAcc,6,18,Woman,Right,
45,11,1,0.650509399999919,['c'],1,left,['3'],4,0.017626500000005763,0.2,0,FastAcc,6,18,Woman,Right,
46,11,1,1.4680045000000064,['c'],0,right,['3'],4,0.09944559999985358,0.1,0,FastAcc,6,18,Woman,Right,
47,11,1,1.117393500000162,['n'],1,right,['3'],4,0.18414380000012898,0.4,0,FastAcc,6,18,Woman,Right,
48,11,1,1.0500276000002486,['n'],0,left,['3'],4,0.09969460000002073,0.2,0,FastAcc,6,18,Woman,Right,
49,11,1,1.5006389000000127,['n'],0,left,['3'],4,0.034010099999704835,0.1,0,FastAcc,6,18,Woman,Right,
50,11,1,1.5182119000000966,['c'],0,right,['3'],4,0.2683543000002828,0.1,0,FastAcc,6,18,Woman,Right,
51,11,1,1.600787699999728,['n'],0,left,['3'],4,0.13366910000013377,0.1,0,FastAcc,6,18,Woman,Right,
52,11,1,1.1347138999999515,['n'],1,right,['3'],4,0.06767730000001393,0.2,0,FastAcc,6,18,Woman,Right,
53,11,1,3.950933499999792,['n'],1,right,['3'],4,0.08440150000024005,0.1,0,FastAcc,6,18,Woman,Right,
54,11,1,0.7185673999997562,['c'],1,left,['3'],4,0.11772889999974723,0.1,0,FastAcc,6,18,Woman,Right,
55,11,1,0.4509675999997853,['c'],0,right,['3'],4,0.03421760000037466,0.4,0,FastAcc,6,18,Woman,Right,
56,11,1,1.1672243000002709,['n'],1,right,['8'],3,0.19985029999998005,0.2,0,FastAcc,6,18,Woman,Right,
57,11,1,0.817036200000075,['c'],1,left,['3'],4,0.08436769999980243,0.2,0,FastAcc,6,18,Woman,Right,
58,11,1,0.6180355000001327,['c'],0,right,['3'],4,0.050882800000181305,0.4,0,FastAcc,6,18,Woman,Right,
59,11,1,0.7343829999999798,['c'],0,right,['2'],5,0.10098379999999452,0.4,0,FastAcc,6,18,Woman,Right,
0,12,1,0.9037490000000616,['n'],1,right,['8'],3,0.06744000000026062,0.2,0,FastFast,6,18,Woman,Right,
1,12,1,0.8832166000001962,['c'],1,left,['3'],4,0.01697859999967477,0.2,0,FastFast,6,18,Woman,Right,
2,12,1,0.6344466000000466,['c'],0,right,['2'],5,3.068111200000203,0.2,0,FastFast,6,18,Woman,Right,
3,12,1,0.799847900000259,['c'],1,left,['2'],5,0.1176977000000079,0.1,0,FastFast,6,18,Woman,Right,
4,12,1,0.7181102999998075,['c'],1,left,['2'],5,0.7176799999997456,0.2,0,FastFast,6,18,Woman,Right,
5,12,1,0.685236100000111,['c'],1,left,['2'],5,0.11747409999998126,0.1,0,FastFast,6,18,Woman,Right,
6,12,1,0.6174906000001101,['c'],1,left,['2'],5,0.0674605000003794,0.4,0,FastFast,6,18,Woman,Right,
7,12,1,0.6339970000003632,['c'],0,right,['3'],4,0.13446980000026088,0.4,0,FastFast,6,18,Woman,Right,
8,12,1,0.5014907999998286,['c'],1,left,['2'],5,0.05136620000030234,0.1,0,FastFast,6,18,Woman,Right,
9,12,1,0.4839013000000705,['c'],1,left,['2'],5,0.06794880000006742,0.4,0,FastFast,6,18,Woman,Right,
10,12,1,0.7180217000000084,['c'],0,right,['2'],5,0.13439050000033603,0.1,0,FastFast,6,18,Woman,Right,
11,12,1,0.5507299999999304,['c'],1,left,['2'],5,0.11711169999989579,0.2,0,FastFast,6,18,Woman,Right,
12,12,1,0.6662148000000343,['c'],1,left,['3'],4,0.06757550000020274,0.4,0,FastFast,6,18,Woman,Right,
13,12,1,1.001185600000099,['c'],1,left,['3'],4,0.1009939000000486,0.4,0,FastFast,6,18,Woman,Right,
14,12,1,0.7675475000000915,['c'],0,right,['2'],5,0.06760739999981524,0.1,0,FastFast,6,18,Woman,Right,
15,12,1,0.8842896000001019,['c'],0,right,['2'],5,0.4009277000000111,0.4,0,FastFast,6,18,Woman,Right,
16,12,1,1.000821999999971,['c'],0,right,['2'],5,0.03430279999975028,0.4,0,FastFast,6,18,Woman,Right,
17,12,1,1.150153600000067,['c'],1,left,['2'],5,0.06791560000010577,0.2,0,FastFast,6,18,Woman,Right,
18,12,1,0.567685900000015,['c'],0,right,['2'],5,0.06787050000002637,0.2,0,FastFast,6,18,Woman,Right,
19,12,1,1.300765599999977,['c'],0,right,['2'],5,0.3678992999998627,0.1,0,FastFast,6,18,Woman,Right,
20,12,1,0.7836888000001636,['c'],1,left,['2'],5,0.06880400000000009,0.1,0,FastFast,6,18,Woman,Right,
21,12,1,0.8327783999998246,['c'],0,right,['2'],5,0.05091360000005807,0.1,0,FastFast,6,18,Woman,Right,
22,12,1,0.8015699999996286,['c'],1,left,['2'],5,0.034356600000137405,0.2,0,FastFast,6,18,Woman,Right,
23,12,1,0.8008780000000115,['c'],0,right,['2'],5,0.017644000000018423,0.4,0,FastFast,6,18,Woman,Right,
24,12,1,0.7183027999999467,['c'],0,right,['3'],4,0.18455100000028324,0.2,0,FastFast,6,18,Woman,Right,
25,12,1,0.6676229999998213,['c'],1,left,['3'],4,0.1848853000001327,0.1,0,FastFast,6,18,Woman,Right,
26,12,1,0.7686931000002915,['c'],1,left,['2'],5,0.10101980000035837,0.4,0,FastFast,6,18,Woman,Right,
27,12,1,0.9682348000001184,['c'],1,left,"['2', '3']",5,0.135170399999879,0.1,0,FastFast,6,18,Woman,Right,
28,12,1,1.2327061999999387,['c'],0,right,['3'],4,0.08531270000003133,0.2,0,FastFast,6,18,Woman,Right,
29,12,1,0.850955200000044,['n'],1,right,['8'],3,0.11711639999975887,0.1,0,FastFast,6,18,Woman,Right,
30,12,1,0.9842883999999685,['c'],1,left,['3'],4,0.0845803000001979,0.2,0,FastFast,6,18,Woman,Right,
31,12,1,0.6675807999999961,['c'],1,left,['3'],4,0.05112569999982952,0.1,0,FastFast,6,18,Woman,Right,
32,12,1,0.7997889000002942,['c'],1,left,['3'],4,0.08361000000013519,0.2,0,FastFast,6,18,Woman,Right,
33,12,1,0.7825302999999622,['c'],0,right,['3'],4,0.11876269999993383,0.2,0,FastFast,6,18,Woman,Right,
34,12,1,0.8836389000002782,['c'],0,right,['3'],4,0.10106309999991936,0.4,0,FastFast,6,18,Woman,Right,
35,12,1,2.5670454999999492,['c'],0,right,['3'],4,0.06781279999995604,0.1,0,FastFast,6,18,Woman,Right,
36,12,1,0.7829313999995975,['c'],0,right,['3'],4,0.05172499999980573,0.1,0,FastFast,6,18,Woman,Right,
37,12,1,0.8683906999999635,['c'],1,left,['3'],4,0.05094969999981913,0.1,0,FastFast,6,18,Woman,Right,
38,12,1,1.0174230000002353,['c'],1,left,['3'],4,0.16779670000005353,0.2,0,FastFast,6,18,Woman,Right,
39,12,1,1.7342713000002732,['c'],0,right,['3'],4,0.16789810000000216,0.2,0,FastFast,6,18,Woman,Right,
40,12,1,0.7663423999997576,['c'],1,left,['3'],4,0.03421529999968698,0.4,0,FastFast,6,18,Woman,Right,
41,12,1,1.4505288000000292,['n'],0,left,['3'],4,0.11808060000021214,0.1,0,FastFast,6,18,Woman,Right,
42,12,1,2.1660185999999158,['c'],0,right,['3'],4,0.11795549999987998,0.2,0,FastFast,6,18,Woman,Right,
43,12,1,0.7189642000003005,['c'],1,left,['3'],4,0.03444480000007388,0.4,0,FastFast,6,18,Woman,Right,
44,12,1,0.4676908999999796,['c'],1,left,['2'],5,0.13406750000012835,0.4,0,FastFast,6,18,Woman,Right,
45,12,1,0.48389999999972133,['c'],0,right,['3'],4,0.08428980000007869,0.4,0,FastFast,6,18,Woman,Right,
46,12,1,0.5023043000001053,['c'],1,left,['3'],4,0.016830999999911,0.1,0,FastFast,6,18,Woman,Right,
47,12,1,0.8165533000001233,['c'],0,right,['3'],4,0.10136929999998756,0.4,0,FastFast,6,18,Woman,Right,
48,12,1,1.1842740000001868,['n'],1,right,['8'],3,0.08481680000022607,0.4,0,FastFast,6,18,Woman,Right,
49,12,1,1.5338039999996909,['c'],1,left,['3'],4,0.16703549999965617,0.2,0,FastFast,6,18,Woman,Right,
50,12,1,1.183799600000384,['n'],0,left,['3'],4,0.05089490000000296,0.2,0,FastFast,6,18,Woman,Right,
51,12,1,1.2339062999999442,['n'],1,right,['3'],4,0.11822120000033465,0.4,0,FastFast,6,18,Woman,Right,
52,12,1,0.9662857999996959,['c'],1,left,['3'],4,0.10170700000026045,0.4,0,FastFast,6,18,Woman,Right,
53,12,1,1.8341495999998187,['c'],0,right,['3'],4,0.184775400000035,0.1,0,FastFast,6,18,Woman,Right,
54,12,1,1.88393300000007,['n'],1,right,['3'],4,0.2175164999998742,0.4,0,FastFast,6,18,Woman,Right,
55,12,1,0.8346783000001778,['n'],1,right,['3'],4,0.01768739999988611,0.1,0,FastFast,6,18,Woman,Right,
56,12,1,0.9011798999999883,['n'],1,right,['3'],4,0.06805620000022827,0.2,0,FastFast,6,18,Woman,Right,
57,12,1,1.9188748999999916,['c'],1,left,['3'],4,0.08418710000023566,0.2,0,FastFast,6,18,Woman,Right,
58,12,1,0.8343353999998726,['n'],1,right,['3'],4,0.0672457000000577,0.4,0,FastFast,6,18,Woman,Right,
59,12,1,0.683611700000256,['c'],0,right,['3'],4,0.0518102999999428,0.1,0,FastFast,6,18,Woman,Right,
0,13,1,0.7687998999999763,['c'],1,left,['3'],4,0.11759829999982685,0.1,0,AccFast,6,18,Woman,Right,
1,13,1,0.784388300000046,['c'],0,right,['3'],4,0.0846056000000317,0.2,0,AccFast,6,18,Woman,Right,
2,13,1,1.101273400000082,['c'],0,right,['3'],4,0.0175584999997227,0.2,0,AccFast,6,18,Woman,Right,
3,13,1,1.1160077999998066,['c'],1,left,['3'],4,0.050593599999956496,0.1,0,AccFast,6,18,Woman,Right,
4,13,1,1.1846104999999625,['c'],1,left,['3'],4,0.018318899999940186,0.1,0,AccFast,6,18,Woman,Right,
5,13,1,0.9680069000000913,['n'],0,left,['3'],4,0.10081989999980578,0.1,0,AccFast,6,18,Woman,Right,
6,13,1,0.934307500000159,['n'],0,left,['3'],4,0.10122440000031929,0.2,0,AccFast,6,18,Woman,Right,
7,13,1,0.9341503000000557,['c'],1,left,['3'],4,0.13436760000013237,0.1,0,AccFast,6,18,Woman,Right,
8,13,1,1.117126499999813,['n'],1,right,['3'],4,0.08419879999974,0.4,0,AccFast,6,18,Woman,Right,
9,13,1,0.8182102000000668,['n'],1,right,['3'],4,0.15121439999984432,0.1,0,AccFast,6,18,Woman,Right,
10,13,1,1.2826906999998755,['c'],0,right,['3'],4,0.2008154000000104,0.4,0,AccFast,6,18,Woman,Right,
11,13,1,0.8170700000000579,['c'],1,left,['3'],4,0.1347499000003154,0.2,0,AccFast,6,18,Woman,Right,
12,13,1,0.9842163999996956,['c'],0,right,['3'],4,0.08416190000025381,0.4,0,AccFast,6,18,Woman,Right,
13,13,1,1.083677600000101,['c'],0,right,['3'],4,0.08421739999994315,0.2,0,AccFast,6,18,Woman,Right,
14,13,1,0.9676343000000998,['c'],0,right,['3'],4,0.15081989999998768,0.2,0,AccFast,6,18,Woman,Right,
15,13,1,1.1178078999996615,['n'],0,left,['3'],4,0.06775970000035159,0.1,0,AccFast,6,18,Woman,Right,
16,13,1,2.383829799999603,['c'],1,left,['3'],4,0.11745089999976699,0.4,0,AccFast,6,18,Woman,Right,
17,13,1,0.801408100000117,['c'],1,left,['3'],4,0.13566009999976814,0.4,0,AccFast,6,18,Woman,Right,
18,13,1,0.7340789999998378,['c'],1,left,['3'],4,0.10102779999988343,0.1,0,AccFast,6,18,Woman,Right,
19,13,1,0.7009527999998681,['c'],0,right,['3'],4,0.1339392999998381,0.1,0,AccFast,6,18,Woman,Right,
20,13,1,1.1678203999999823,['n'],1,right,['3'],4,0.13427640000008978,0.2,0,AccFast,6,18,Woman,Right,
21,13,1,0.8174365999998372,['c'],1,left,['3'],4,0.05090279999967606,0.4,0,AccFast,6,18,Woman,Right,
22,13,1,0.6338756000000103,['c'],1,left,['3'],4,0.08467960000007224,0.4,0,AccFast,6,18,Woman,Right,
23,13,1,0.6838361000000077,['c'],1,left,['3'],4,0.05031079999980648,0.2,0,AccFast,6,18,Woman,Right,
24,13,1,1.5015179000001808,['n'],0,left,['3'],4,0.1845181000003322,0.2,0,AccFast,6,18,Woman,Right,
25,13,1,1.1176392000002124,['n'],1,right,['3'],4,0.10119310000027326,0.2,0,AccFast,6,18,Woman,Right,
26,13,1,1.3501213999998072,['c'],1,left,['3'],4,0.151050700000269,0.2,0,AccFast,6,18,Woman,Right,
27,13,1,0.7676243000000795,['c'],1,left,['3'],4,0.051175900000089314,0.1,0,AccFast,6,18,Woman,Right,
28,13,1,0.900879900000291,['c'],0,right,['3'],4,0.05111830000032569,0.2,0,AccFast,6,18,Woman,Right,
29,13,1,0.8340017000000444,['c'],0,right,['3'],4,0.05075120000037714,0.4,0,AccFast,6,18,Woman,Right,
30,13,1,0.7502054999999928,['c'],1,left,['3'],4,0.08422049999990122,0.2,0,AccFast,6,18,Woman,Right,
31,13,1,0.968395800000053,['c'],0,right,['2'],5,0.7010215000000244,0.4,0,AccFast,6,18,Woman,Right,
32,13,1,0.6676362000002882,['c'],0,right,['3'],4,0.18454590000010285,0.1,0,AccFast,6,18,Woman,Right,
33,13,1,1.1330234000001838,['c'],0,right,['3'],4,0.10123199999998178,0.2,0,AccFast,6,18,Woman,Right,
34,13,1,1.217704700000013,['n'],1,right,['8'],3,0.11774220000006608,0.1,0,AccFast,6,18,Woman,Right,
35,13,1,1.33407649999981,['c'],0,right,['8'],3,0.2342082999998638,0.2,0,AccFast,6,18,Woman,Right,
36,13,1,1.4509941000001163,['c'],0,right,['3'],4,0.751331399999799,0.1,0,AccFast,6,18,Woman,Right,
37,13,1,0.8677371999997376,['c'],1,left,['8'],3,0.3010399999998299,0.1,0,AccFast,6,18,Woman,Right,
38,13,1,1.2503944999998566,['n'],1,right,['8'],3,0.13328169999977035,0.4,0,AccFast,6,18,Woman,Right,
39,13,1,0.9842429000000266,['n'],1,right,['3'],4,0.15080219999981637,0.1,0,AccFast,6,18,Woman,Right,
40,13,1,0.967744699999912,['c'],1,left,['3'],4,0.20119620000014038,0.4,0,AccFast,6,18,Woman,Right,
41,13,1,1.1509535000000142,['n'],1,right,['3'],4,0.1345171000002665,0.4,0,AccFast,6,18,Woman,Right,
42,13,1,0.8012499999999818,['n'],1,right,['3'],4,0.14997859999994034,0.2,0,AccFast,6,18,Woman,Right,
43,13,1,0.9666326000001391,['n'],0,left,['3'],4,0.18437390000008236,0.4,0,AccFast,6,18,Woman,Right,
44,13,1,1.1173134999999093,['n'],0,left,['3'],4,0.11808810000002268,0.2,0,AccFast,6,18,Woman,Right,
45,13,1,1.4182848000000376,['n'],1,right,['3'],4,0.4016983000001346,0.4,0,AccFast,6,18,Woman,Right,
46,13,1,1.1165822000002663,['n'],1,right,['3'],4,0.10200970000005327,0.1,0,AccFast,6,18,Woman,Right,
47,13,1,0.7001363000003948,['n'],1,right,['3'],4,0.06761800000003859,0.1,0,AccFast,6,18,Woman,Right,
48,13,1,0.7685132000001431,['c'],1,left,['3'],4,0.11791579999999158,0.2,0,AccFast,6,18,Woman,Right,
49,13,1,1.0338310999995883,['n'],1,right,['3'],4,0.0843764999999621,0.4,0,AccFast,6,18,Woman,Right,
50,13,1,0.6007973999999194,['c'],1,left,['3'],4,1.0164067000000614,0.4,0,AccFast,6,18,Woman,Right,
51,13,1,0.5508785000001808,['c'],1,left,['3'],4,0.13406399999985297,0.1,0,AccFast,6,18,Woman,Right,
52,13,1,0.7175342000000455,['c'],0,right,['3'],4,0.034491500000058295,0.2,0,AccFast,6,18,Woman,Right,
53,13,1,0.7173560000001089,['c'],1,left,['3'],4,0.017885199999909673,0.4,0,AccFast,6,18,Woman,Right,
54,13,1,0.9342886999997972,['c'],1,left,['3'],4,0.5841218999999,0.4,0,AccFast,6,18,Woman,Right,
55,13,1,1.0509650999997575,['n'],1,right,['3'],4,0.06762079999998605,0.4,0,AccFast,6,18,Woman,Right,
56,13,1,0.9006351000002724,['c'],1,left,['3'],4,0.11661959999992177,0.4,0,AccFast,6,18,Woman,Right,
57,13,1,1.051399599999968,['n'],1,right,['3'],4,0.10087900000007721,0.2,0,AccFast,6,18,Woman,Right,
58,13,1,1.2837187000000085,['n'],0,left,['3'],4,0.15105210000001534,0.1,0,AccFast,6,18,Woman,Right,
59,13,1,1.0842160000001968,['n'],0,left,['3'],4,0.13415669999994861,0.1,0,AccFast,6,18,Woman,Right,
0,14,1,0.8540540000003602,['c'],1,left,['3'],4,0.06627509999998438,0.2,0,AccAcc,6,18,Woman,Right,
1,14,1,1.6519002,['n'],1,right,['3'],4,0.08555299999989074,0.1,0,AccAcc,6,18,Woman,Right,
2,14,1,0.8827805000000808,['c'],1,left,['3'],4,0.11801959999957035,0.1,0,AccAcc,6,18,Woman,Right,
3,14,1,0.8337068000000727,['c'],1,left,['3'],4,0.08424819999981992,0.4,0,AccAcc,6,18,Woman,Right,
4,14,1,1.034321699999964,['n'],1,right,['3'],4,0.08419820000017353,0.1,0,AccAcc,6,18,Woman,Right,
5,14,1,1.15067930000032,['c'],1,left,['3'],4,0.13490060000003723,0.2,0,AccAcc,6,18,Woman,Right,
6,14,1,0.7674089000001914,['c'],1,left,['3'],4,0.08456680000017514,0.4,0,AccAcc,6,18,Woman,Right,
7,14,1,0.801332800000182,['c'],0,right,['3'],4,0.03555469999992056,0.2,0,AccAcc,6,18,Woman,Right,
8,14,1,1.0341272999999092,['c'],0,right,['2'],5,0.13438619999988077,0.2,0,AccAcc,6,18,Woman,Right,
9,14,1,0.9177725999998074,['c'],0,right,['3'],4,0.1678855999998632,0.4,0,AccAcc,6,18,Woman,Right,
10,14,1,1.4515395999997054,['n'],0,left,['3'],4,0.06801450000011755,0.1,0,AccAcc,6,18,Woman,Right,
11,14,1,0.7507180000002336,['c'],1,left,['3'],4,0.08290470000019923,0.4,0,AccAcc,6,18,Woman,Right,
12,14,1,0.7511273000000074,['c'],1,left,['3'],4,0.017503099999885308,0.4,0,AccAcc,6,18,Woman,Right,
13,14,1,0.7175478999997722,['c'],1,left,['3'],4,0.11762189999990369,0.1,0,AccAcc,6,18,Woman,Right,
14,14,1,1.1342145999997229,['c'],0,right,['3'],4,0.05112749999989319,0.2,0,AccAcc,6,18,Woman,Right,
15,14,1,0.8006706000001031,['c'],0,right,['3'],4,0.08432399999992413,0.4,0,AccAcc,6,18,Woman,Right,
16,14,1,0.7840893000002325,['c'],0,right,['2'],5,0.14983970000002955,0.4,0,AccAcc,6,18,Woman,Right,
17,14,1,0.768148299999666,['c'],1,left,['2'],5,0.1333270000000084,0.2,0,AccAcc,6,18,Woman,Right,
18,14,1,0.8179807000001347,['c'],0,right,['2'],5,0.13411770000038814,0.2,0,AccAcc,6,18,Woman,Right,
19,14,1,1.099567499999921,['c'],0,right,['2'],5,0.13550900000018373,0.4,0,AccAcc,6,18,Woman,Right,
20,14,1,0.7838424000001396,['c'],1,left,['2'],5,0.06755939999993643,0.2,0,AccAcc,6,18,Woman,Right,
21,14,1,1.650666000000001,['c'],0,right,['2'],5,0.15022069999986343,0.2,0,AccAcc,6,18,Woman,Right,
22,14,1,1.5842905999998038,['c'],1,left,['3'],4,0.23383629999989353,0.4,0,AccAcc,6,18,Woman,Right,
23,14,1,1.735984599999938,['n'],1,right,['3'],4,0.1673135999999431,0.4,0,AccAcc,6,18,Woman,Right,
24,14,1,1.0998467999997956,['n'],0,left,['3'],4,0.1343720999998368,0.2,0,AccAcc,6,18,Woman,Right,
25,14,1,1.2515384999996968,['n'],1,right,['3'],4,0.017844500000137486,0.1,0,AccAcc,6,18,Woman,Right,
26,14,1,0.8167813999998543,['n'],0,left,['3'],4,0.06658109999989392,0.1,0,AccAcc,6,18,Woman,Right,
27,14,1,1.5175752000000102,['c'],0,right,['3'],4,0.08382140000003346,0.1,0,AccAcc,6,18,Woman,Right,
28,14,1,0.8510369999999057,['c'],0,right,['3'],4,0.06792230000019117,0.2,0,AccAcc,6,18,Woman,Right,
29,14,1,1.6346511000001556,['c'],0,right,['3'],4,0.15061789999981556,0.4,0,AccAcc,6,18,Woman,Right,
30,14,1,0.8168003000000681,['c'],1,left,['3'],4,0.03456339999956981,0.4,0,AccAcc,6,18,Woman,Right,
31,14,1,0.8162430000002132,['c'],0,right,['3'],4,0.08352530000001934,0.1,0,AccAcc,6,18,Woman,Right,
32,14,1,0.7675312999999733,['c'],1,left,['3'],4,0.06762189999972179,0.1,0,AccAcc,6,18,Woman,Right,
33,14,1,0.9010607000000164,['c'],1,left,['3'],4,0.06743460000006962,0.2,0,AccAcc,6,18,Woman,Right,
34,14,1,1.133730900000046,['n'],1,right,['3'],4,0.06730760000027658,0.1,0,AccAcc,6,18,Woman,Right,
35,14,1,1.0671787000001132,['c'],0,right,['3'],4,0.06782320000002073,0.1,0,AccAcc,6,18,Woman,Right,
36,14,1,1.5841120999998566,['c'],1,left,['9'],2,0.3675354000001789,0.4,0,AccAcc,6,18,Woman,Right,
37,14,1,2.7344201000000794,['c'],1,left,['3'],4,0.06770579999965776,0.2,0,AccAcc,6,18,Woman,Right,
38,14,1,0.6994402999998783,['c'],0,right,['3'],4,0.05086959999971441,0.4,0,AccAcc,6,18,Woman,Right,
39,14,1,1.1510207999999693,['n'],1,right,['9'],2,0.10053060000018377,0.4,0,AccAcc,6,18,Woman,Right,
40,14,1,0.9508430999999291,['n'],1,right,['8'],3,0.16853560000026846,0.1,0,AccAcc,6,18,Woman,Right,
41,14,1,0.8004493999997067,['n'],0,left,['9'],2,0.13464109999995344,0.1,0,AccAcc,6,18,Woman,Right,
42,14,1,0.8010788999999932,['c'],1,left,['3'],4,0.08406430000013643,0.2,0,AccAcc,6,18,Woman,Right,
43,14,1,0.8009477999999035,['c'],0,right,['3'],4,0.0666335999999319,0.2,0,AccAcc,6,18,Woman,Right,
44,14,1,1.201252299999851,['c'],1,left,['3'],4,0.13419870000006995,0.4,0,AccAcc,6,18,Woman,Right,
45,14,1,1.3672592999996596,['c'],0,right,['3'],4,0.1175585000000865,0.1,0,AccAcc,6,18,Woman,Right,
46,14,1,2.0672950000002857,['c'],1,left,['3'],4,0.117127999999866,0.4,0,AccAcc,6,18,Woman,Right,
47,14,1,0.8999925999996776,['c'],0,right,['3'],4,0.15063069999996515,0.2,0,AccAcc,6,18,Woman,Right,
48,14,1,1.0176774000001387,['c'],1,left,['3'],4,0.03376829999979236,0.4,0,AccAcc,6,18,Woman,Right,
49,14,1,2.317624799999976,['c'],0,right,['3'],4,1.0012095000001864,0.2,0,AccAcc,6,18,Woman,Right,
50,14,1,1.2339302000000316,['n'],0,left,['3'],4,0.034502599999996164,0.4,0,AccAcc,6,18,Woman,Right,
51,14,1,0.68410700000004,['c'],1,left,['3'],4,0.08450279999988197,0.2,0,AccAcc,6,18,Woman,Right,
52,14,1,1.0011012999998457,['c'],1,left,['8'],3,0.5343640999999479,0.4,0,AccAcc,6,18,Woman,Right,
53,14,1,1.0682410999997956,['c'],0,right,['3'],4,0.10040280000021085,0.1,0,AccAcc,6,18,Woman,Right,
54,14,1,1.2177307000001747,['n'],0,left,['3'],4,0.05114839999987453,0.1,0,AccAcc,6,18,Woman,Right,
55,14,1,0.74987770000007,['n'],0,left,['3'],4,0.05142120000027717,0.1,0,AccAcc,6,18,Woman,Right,
56,14,1,0.8007752000003165,['n'],1,right,['3'],4,0.0684795000001941,0.1,0,AccAcc,6,18,Woman,Right,
57,14,1,5.016162700000223,x,-99,right,none,-99,-99,0.2,1,AccAcc,6,18,Woman,Right,
58,14,1,0.7682225999997172,['n'],1,right,['3'],4,0.01742289999992863,0.2,0,AccAcc,6,18,Woman,Right,
59,14,1,0.9175230000000738,['c'],1,left,['3'],4,0.08379620000005161,0.1,0,AccAcc,6,18,Woman,Right,
0,15,1,0.8197981000002983,['c'],1,left,['3'],4,0.10130840000010721,0.2,0,FastAcc,6,18,Woman,Right,
1,15,1,0.6341910999999527,['c'],0,right,['3'],4,0.017179599999963102,0.1,0,FastAcc,6,18,Woman,Right,
2,15,1,0.701402600000165,['c'],0,right,['3'],4,0.017683300000044255,0.1,0,FastAcc,6,18,Woman,Right,
3,15,1,0.5833658000001378,['c'],0,right,['3'],4,0.017080900000109978,0.4,0,FastAcc,6,18,Woman,Right,
4,15,1,0.5179404000000432,['c'],0,right,['3'],4,0.11713579999968715,0.4,0,FastAcc,6,18,Woman,Right,
5,15,1,0.5207793999998103,['c'],1,left,['8'],3,0.16830419999996593,0.4,0,FastAcc,6,18,Woman,Right,
6,15,1,0.418288400000165,['c'],0,right,['9'],2,0.10056739999981801,0.2,0,FastAcc,6,18,Woman,Right,
7,15,1,0.5016903000000639,['c'],1,left,['9'],2,0.1170812999998816,0.1,0,FastAcc,6,18,Woman,Right,
8,15,1,1.0844372999999905,['n'],1,right,['3'],4,0.08447399999977279,0.2,0,FastAcc,6,18,Woman,Right,
9,15,1,0.7333494999998038,['c'],0,right,['3'],4,0.06758759999956965,0.4,0,FastAcc,6,18,Woman,Right,
10,15,1,0.6846737999999277,['c'],0,right,['3'],4,0.049992200000360754,0.4,0,FastAcc,6,18,Woman,Right,
11,15,1,0.7003094000001511,['c'],0,right,['3'],4,0.05099069999960193,0.1,0,FastAcc,6,18,Woman,Right,
12,15,1,0.5839731999999458,['c'],1,left,['3'],4,0.1009063999999853,0.1,0,FastAcc,6,18,Woman,Right,
13,15,1,0.7835448999999244,['c'],0,right,['3'],4,0.03435739999986254,0.2,0,FastAcc,6,18,Woman,Right,
14,15,1,0.8848435999998401,['c'],1,left,['3'],4,0.06778500000018539,0.2,0,FastAcc,6,18,Woman,Right,
15,15,1,1.049498599999879,['n'],1,right,['3'],4,0.08383940000021539,0.2,0,FastAcc,6,18,Woman,Right,
16,15,1,0.7847094999997353,['n'],1,right,['3'],4,0.11790590000009615,0.1,0,FastAcc,6,18,Woman,Right,
17,15,1,0.58400040000015,['n'],0,left,['3'],4,0.13481469999987894,0.1,0,FastAcc,6,18,Woman,Right,
18,15,1,0.6840617999996539,['n'],1,right,['3'],4,0.13495659999989584,0.4,0,FastAcc,6,18,Woman,Right,
19,15,1,1.0004629000000023,['n'],0,left,['9'],2,0.15149079999991955,0.2,0,FastAcc,6,18,Woman,Right,
20,15,1,1.1505341999995835,['n'],0,left,['3'],4,0.10214149999956135,0.2,0,FastAcc,6,18,Woman,Right,
21,15,1,0.6341645000002245,['n'],0,left,['3'],4,0.10130470000012792,0.2,0,FastAcc,6,18,Woman,Right,
22,15,1,0.7162720999999692,['n'],0,left,['8'],3,0.13298279999980878,0.1,0,FastAcc,6,18,Woman,Right,
23,15,1,1.200514199999816,['n'],1,right,['8'],3,0.20107830000006288,0.4,0,FastAcc,6,18,Woman,Right,
24,15,1,0.8999195999999756,['n'],0,left,['8'],3,0.08492979999982708,0.2,0,FastAcc,6,18,Woman,Right,
25,15,1,0.48313640000014857,['c'],0,right,['3'],4,0.13550990000021557,0.1,0,FastAcc,6,18,Woman,Right,
26,15,1,0.9164016999998239,['n'],1,right,['3'],4,0.03470849999985148,0.1,0,FastAcc,6,18,Woman,Right,
27,15,1,0.9334742000000915,['n'],0,left,['3'],4,0.10162260000015522,0.4,0,FastAcc,6,18,Woman,Right,
28,15,1,0.7674348999998983,['c'],1,left,['3'],4,1.3011606999998548,0.2,0,FastAcc,6,18,Woman,Right,
29,15,1,0.8503617999999733,['n'],0,left,['3'],4,0.15100540000003093,0.4,0,FastAcc,6,18,Woman,Right,
30,15,1,0.9352999000002455,['n'],1,right,['3'],4,0.11798989999988407,0.4,0,FastAcc,6,18,Woman,Right,
31,15,1,0.8828465999999935,['n'],1,right,['8'],3,0.8352945999999974,0.1,0,FastAcc,6,18,Woman,Right,
32,15,1,0.901200599999811,['n'],0,left,['8'],3,0.1329532999998264,0.1,0,FastAcc,6,18,Woman,Right,
33,15,1,0.618054999999913,['n'],0,left,['8'],3,0.05096000000003187,0.2,0,FastAcc,6,18,Woman,Right,
34,15,1,0.7010660999999345,['n'],1,right,['3'],4,0.06698140000025887,0.1,0,FastAcc,6,18,Woman,Right,
35,15,1,0.9679558999996516,['n'],0,left,['3'],4,0.10088730000006763,0.2,0,FastAcc,6,18,Woman,Right,
36,15,1,1.617685800000345,['n'],0,left,['3'],4,0.16794209999989107,0.2,0,FastAcc,6,18,Woman,Right,
37,15,1,1.2504604000000654,['n'],0,left,['3'],4,0.15094589999989694,0.2,0,FastAcc,6,18,Woman,Right,
38,15,1,0.933292000000165,['c'],0,right,['3'],4,0.0676792999997815,0.1,0,FastAcc,6,18,Woman,Right,
39,15,1,1.7831166000000849,['n'],0,left,['3'],4,0.13515989999996236,0.4,0,FastAcc,6,18,Woman,Right,
40,15,1,1.7334493000003022,['c'],0,right,['3'],4,0.08440749999999753,0.4,0,FastAcc,6,18,Woman,Right,
41,15,1,0.9344318000003113,['c'],0,right,['3'],4,0.06780579999986003,0.2,0,FastAcc,6,18,Woman,Right,
42,15,1,2.0676517000001695,['c'],1,left,['3'],4,0.06792859999995926,0.2,0,FastAcc,6,18,Woman,Right,
43,15,1,1.3016202000003432,['c'],1,left,['3'],4,0.016669699999965815,0.1,0,FastAcc,6,18,Woman,Right,
44,15,1,0.9672463000001699,['n'],0,left,['3'],4,0.11742880000019795,0.4,0,FastAcc,6,18,Woman,Right,
45,15,1,1.316842799999904,['c'],1,left,['3'],4,0.08408580000013899,0.4,0,FastAcc,6,18,Woman,Right,
46,15,1,1.1004533000000265,['c'],1,left,['3'],4,0.03536450000001423,0.1,0,FastAcc,6,18,Woman,Right,
47,15,1,0.8834564999997383,['c'],0,right,['3'],4,0.034560699999929057,0.4,0,FastAcc,6,18,Woman,Right,
48,15,1,1.1680708000003506,['c'],1,left,['3'],4,0.08425110000007408,0.1,0,FastAcc,6,18,Woman,Right,
49,15,1,1.0987762999998267,['n'],1,right,['3'],4,0.08486470000025292,0.1,0,FastAcc,6,18,Woman,Right,
50,15,1,0.9003758000003472,['c'],1,left,['8'],3,0.1511012999999366,0.4,0,FastAcc,6,18,Woman,Right,
51,15,1,0.5349134000002778,['c'],0,right,['9'],2,0.13426410000010947,0.2,0,FastAcc,6,18,Woman,Right,
52,15,1,0.5508715000000848,['n'],0,left,['9'],2,0.16688989999965997,0.4,0,FastAcc,6,18,Woman,Right,
53,15,1,0.8172308000002886,['n'],1,right,['9'],2,0.1662833000000319,0.4,0,FastAcc,6,18,Woman,Right,
54,15,1,1.184407900000224,['n'],1,right,['9'],2,0.3011874999997417,0.1,0,FastAcc,6,18,Woman,Right,
55,15,1,0.8509589999998752,['n'],0,left,['9'],2,0.20117519999985234,0.2,0,FastAcc,6,18,Woman,Right,
56,15,1,0.8675345000001471,['n'],1,right,['9'],2,0.1511209999998755,0.1,0,FastAcc,6,18,Woman,Right,
57,15,1,0.6329434999997829,['n'],1,right,['9'],2,0.10353600000007646,0.4,0,FastAcc,6,18,Woman,Right,
58,15,1,1.8668281999998726,['n'],1,right,['9'],2,0.15194089999977223,0.2,0,FastAcc,6,18,Woman,Right,
59,15,1,0.6512060999998539,['n'],0,left,['8'],3,0.11766269999998258,0.4,0,FastAcc,6,18,Woman,Right,
