withinblocktrial,block,block_repetition,rt,resp,cor,cresp,conf_press,cj,rtconf,coherence,slow_trial,manipulation,sub,age,gender,handedness,
0,1,1,2.5346613000001526,['n'],0,left,none,-99,-99,0.5,0,none,29,18,Woman,Right,
1,1,1,0.9341604999999618,['n'],1,right,none,-99,-99,0.5,0,none,29,18,Woman,Right,
2,1,1,0.9171378999999433,['c'],1,left,none,-99,-99,0.5,0,none,29,18,Woman,Right,
3,1,1,0.48462990000007267,['n'],1,right,none,-99,-99,0.5,0,none,29,18,Woman,Right,
4,1,1,0.5508022000003621,['c'],1,left,none,-99,-99,0.5,0,none,29,18,Woman,Right,
5,1,1,0.7840534000006301,['n'],0,left,none,-99,-99,0.5,0,none,29,18,Woman,Right,
6,1,1,0.5338213000004544,['n'],1,right,none,-99,-99,0.5,0,none,29,18,Woman,Right,
7,1,1,0.900351999999657,['n'],1,right,none,-99,-99,0.5,0,none,29,18,Woman,Right,
8,1,1,0.5991389000000709,['c'],1,left,none,-99,-99,0.5,0,none,29,18,Woman,Right,
9,1,1,0.5334680999994816,['c'],1,left,none,-99,-99,0.5,0,none,29,18,Woman,Right,
10,1,1,0.28399569999965024,['c'],1,left,none,-99,-99,0.5,0,none,29,18,Woman,Right,
11,1,1,0.5343548999999257,['n'],1,right,none,-99,-99,0.5,0,none,29,18,Woman,Right,
12,1,1,0.4340469999997367,['n'],1,right,none,-99,-99,0.5,0,none,29,18,Woman,Right,
13,1,1,0.401079899999786,['n'],0,left,none,-99,-99,0.5,0,none,29,18,Woman,Right,
14,1,1,0.501447300000109,['c'],1,left,none,-99,-99,0.5,0,none,29,18,Woman,Right,
15,1,1,0.3341121999992538,['c'],0,right,none,-99,-99,0.5,0,none,29,18,Woman,Right,
16,1,1,0.6006485999996585,['c'],1,left,none,-99,-99,0.5,0,none,29,18,Woman,Right,
17,1,1,0.4668727999996918,['n'],1,right,none,-99,-99,0.5,0,none,29,18,Woman,Right,
18,1,1,0.4342540999996345,['c'],0,right,none,-99,-99,0.5,0,none,29,18,Woman,Right,
19,1,1,0.4827618999997867,['n'],1,right,none,-99,-99,0.5,0,none,29,18,Woman,Right,
20,1,1,0.4005047000000559,['n'],1,right,none,-99,-99,0.5,0,none,29,18,Woman,Right,
21,1,1,0.4187282000002597,['n'],1,right,none,-99,-99,0.5,0,none,29,18,Woman,Right,
22,1,1,0.28445409999949334,['n'],0,left,none,-99,-99,0.5,0,none,29,18,Woman,Right,
23,1,1,0.4506703999995807,['c'],1,left,none,-99,-99,0.5,0,none,29,18,Woman,Right,
0,1,2,0.4673830000001544,['n'],1,right,none,-99,-99,0.5,0,none,29,18,Woman,Right,
1,1,2,0.45046929999989516,['c'],1,left,none,-99,-99,0.5,0,none,29,18,Woman,Right,
2,1,2,0.41722290000052453,['c'],1,left,none,-99,-99,0.5,0,none,29,18,Woman,Right,
3,1,2,0.41756600000007893,['n'],1,right,none,-99,-99,0.5,0,none,29,18,Woman,Right,
4,1,2,0.6171014999999898,['n'],1,right,none,-99,-99,0.5,0,none,29,18,Woman,Right,
5,1,2,0.41682029999992665,['n'],1,right,none,-99,-99,0.5,0,none,29,18,Woman,Right,
6,1,2,0.3843901000000187,['n'],0,left,none,-99,-99,0.5,0,none,29,18,Woman,Right,
7,1,2,0.6003356999999596,['c'],1,left,none,-99,-99,0.5,0,none,29,18,Woman,Right,
8,1,2,0.4837874999993801,['n'],1,right,none,-99,-99,0.5,0,none,29,18,Woman,Right,
9,1,2,0.4022827999997389,['c'],1,left,none,-99,-99,0.5,0,none,29,18,Woman,Right,
10,1,2,0.28238880000026256,['n'],0,left,none,-99,-99,0.5,0,none,29,18,Woman,Right,
11,1,2,0.4335071000004973,['c'],1,left,none,-99,-99,0.5,0,none,29,18,Woman,Right,
12,1,2,0.3846720000001369,['n'],0,left,none,-99,-99,0.5,0,none,29,18,Woman,Right,
13,1,2,0.5985106999996788,['c'],0,right,none,-99,-99,0.5,0,none,29,18,Woman,Right,
14,1,2,0.5017365000003338,['n'],1,right,none,-99,-99,0.5,0,none,29,18,Woman,Right,
15,1,2,0.4161371999998664,['n'],1,right,none,-99,-99,0.5,0,none,29,18,Woman,Right,
16,1,2,0.600413899999694,['n'],1,right,none,-99,-99,0.5,0,none,29,18,Woman,Right,
17,1,2,0.41678890000002866,['n'],0,left,none,-99,-99,0.5,0,none,29,18,Woman,Right,
18,1,2,0.3838647000002311,['n'],1,right,none,-99,-99,0.5,0,none,29,18,Woman,Right,
19,1,2,0.36786230000052456,['n'],0,left,none,-99,-99,0.5,0,none,29,18,Woman,Right,
20,1,2,0.31727370000044175,['c'],0,right,none,-99,-99,0.5,0,none,29,18,Woman,Right,
21,1,2,0.3338319999993473,['n'],1,right,none,-99,-99,0.5,0,none,29,18,Woman,Right,
22,1,2,0.33367030000044906,['n'],0,left,none,-99,-99,0.5,0,none,29,18,Woman,Right,
23,1,2,0.5692603000006784,['c'],1,left,none,-99,-99,0.5,0,none,29,18,Woman,Right,
0,1,3,1.0504855999997744,['c'],1,left,none,-99,-99,0.5,0,none,29,18,Woman,Right,
1,1,3,0.5169401000002836,['n'],1,right,none,-99,-99,0.5,0,none,29,18,Woman,Right,
2,1,3,0.4824527000000671,['c'],1,left,none,-99,-99,0.5,0,none,29,18,Woman,Right,
3,1,3,0.967444599999908,['n'],0,left,none,-99,-99,0.5,0,none,29,18,Woman,Right,
4,1,3,0.5499411000000691,['n'],1,right,none,-99,-99,0.5,0,none,29,18,Woman,Right,
5,1,3,0.40150900000026013,['c'],1,left,none,-99,-99,0.5,0,none,29,18,Woman,Right,
6,1,3,0.36722550000013143,['n'],1,right,none,-99,-99,0.5,0,none,29,18,Woman,Right,
7,1,3,0.36876290000054723,['c'],0,right,none,-99,-99,0.5,0,none,29,18,Woman,Right,
8,1,3,0.41659059999983583,['c'],1,left,none,-99,-99,0.5,0,none,29,18,Woman,Right,
9,1,3,0.40094779999981256,['n'],1,right,none,-99,-99,0.5,0,none,29,18,Woman,Right,
10,1,3,0.46720600000026025,['c'],1,left,none,-99,-99,0.5,0,none,29,18,Woman,Right,
11,1,3,0.4508863000000929,['n'],1,right,none,-99,-99,0.5,0,none,29,18,Woman,Right,
12,1,3,0.43375400000059017,['c'],1,left,none,-99,-99,0.5,0,none,29,18,Woman,Right,
13,1,3,0.6005380999995396,['n'],1,right,none,-99,-99,0.5,0,none,29,18,Woman,Right,
14,1,3,0.3665605999995023,['n'],1,right,none,-99,-99,0.5,0,none,29,18,Woman,Right,
15,1,3,0.45020540000041365,['n'],1,right,none,-99,-99,0.5,0,none,29,18,Woman,Right,
16,1,3,0.5179039000004195,['n'],1,right,none,-99,-99,0.5,0,none,29,18,Woman,Right,
17,1,3,0.5165402000002359,['n'],1,right,none,-99,-99,0.5,0,none,29,18,Woman,Right,
18,1,3,0.39964210000016465,['c'],1,left,none,-99,-99,0.5,0,none,29,18,Woman,Right,
19,1,3,0.5002101000000039,['c'],1,left,none,-99,-99,0.5,0,none,29,18,Woman,Right,
20,1,3,0.3841400999999678,['n'],1,right,none,-99,-99,0.5,0,none,29,18,Woman,Right,
21,1,3,0.4665836999993189,['n'],0,left,none,-99,-99,0.5,0,none,29,18,Woman,Right,
22,1,3,0.533096399999522,['c'],1,left,none,-99,-99,0.5,0,none,29,18,Woman,Right,
23,1,3,0.3349719999996523,['c'],1,left,none,-99,-99,0.5,0,none,29,18,Woman,Right,
0,2,1,0.9007465000004231,['n'],0,left,none,-99,-99,0.1,0,none,29,18,Woman,Right,
1,2,1,0.4511726999999155,['n'],1,right,none,-99,-99,0.2,0,none,29,18,Woman,Right,
2,2,1,0.5171557000003304,['n'],1,right,none,-99,-99,0.1,0,none,29,18,Woman,Right,
3,2,1,0.549287099999674,['n'],0,left,none,-99,-99,0.2,0,none,29,18,Woman,Right,
4,2,1,0.6339496000000509,['c'],1,left,none,-99,-99,0.2,0,none,29,18,Woman,Right,
5,2,1,0.4663420999995651,['c'],1,left,none,-99,-99,0.4,0,none,29,18,Woman,Right,
6,2,1,0.3667801999999938,['c'],0,right,none,-99,-99,0.1,0,none,29,18,Woman,Right,
7,2,1,0.3678587000003972,['n'],1,right,none,-99,-99,0.1,0,none,29,18,Woman,Right,
8,2,1,4.200630700000147,['n'],0,left,none,-99,-99,0.4,0,none,29,18,Woman,Right,
9,2,1,0.41733879999992496,['n'],1,right,none,-99,-99,0.4,0,none,29,18,Woman,Right,
10,2,1,0.5658886000001075,['n'],0,left,none,-99,-99,0.1,0,none,29,18,Woman,Right,
11,2,1,0.35033430000021326,['n'],1,right,none,-99,-99,0.2,0,none,29,18,Woman,Right,
12,2,1,0.167446899999959,['n'],0,left,none,-99,-99,0.1,0,none,29,18,Woman,Right,
13,2,1,0.4173989000000802,['c'],0,right,none,-99,-99,0.2,0,none,29,18,Woman,Right,
14,2,1,0.38329849999990984,['n'],0,left,none,-99,-99,0.2,0,none,29,18,Woman,Right,
15,2,1,0.39954430000034336,['n'],1,right,none,-99,-99,0.4,0,none,29,18,Woman,Right,
16,2,1,1.9010422999999719,['n'],1,right,none,-99,-99,0.4,0,none,29,18,Woman,Right,
17,2,1,0.10119159999976546,['n'],0,left,none,-99,-99,0.2,0,none,29,18,Woman,Right,
18,2,1,0.5508084000002782,['n'],1,right,none,-99,-99,0.4,0,none,29,18,Woman,Right,
19,2,1,0.36717270000008284,['n'],0,left,none,-99,-99,0.2,0,none,29,18,Woman,Right,
20,2,1,0.36703990000023623,['c'],0,right,none,-99,-99,0.1,0,none,29,18,Woman,Right,
21,2,1,0.40048579999984213,['n'],0,left,none,-99,-99,0.1,0,none,29,18,Woman,Right,
22,2,1,0.4153288999996221,['n'],1,right,none,-99,-99,0.4,0,none,29,18,Woman,Right,
23,2,1,0.3507306999999855,['n'],0,left,none,-99,-99,0.4,0,none,29,18,Woman,Right,
0,2,2,1.0847358999999415,['n'],1,right,none,-99,-99,0.1,0,none,29,18,Woman,Right,
1,2,2,0.5000288999999611,['c'],1,left,none,-99,-99,0.2,0,none,29,18,Woman,Right,
2,2,2,0.48448669999925187,['c'],1,left,none,-99,-99,0.1,0,none,29,18,Woman,Right,
3,2,2,0.9010072999999466,['n'],0,left,none,-99,-99,0.2,0,none,29,18,Woman,Right,
4,2,2,0.4011454000001322,['n'],1,right,none,-99,-99,0.2,0,none,29,18,Woman,Right,
5,2,2,0.4838856999995187,['n'],0,left,none,-99,-99,0.4,0,none,29,18,Woman,Right,
6,2,2,0.4502111000001605,['n'],0,left,none,-99,-99,0.1,0,none,29,18,Woman,Right,
7,2,2,0.4657049999996161,['n'],0,left,none,-99,-99,0.1,0,none,29,18,Woman,Right,
8,2,2,0.5175642000003791,['c'],1,left,none,-99,-99,0.4,0,none,29,18,Woman,Right,
9,2,2,0.43390420000014274,['c'],1,left,none,-99,-99,0.4,0,none,29,18,Woman,Right,
10,2,2,0.43465699999978824,['n'],1,right,none,-99,-99,0.1,0,none,29,18,Woman,Right,
11,2,2,1.6670732000002317,['n'],1,right,none,-99,-99,0.2,0,none,29,18,Woman,Right,
12,2,2,0.7506745999999112,['n'],0,left,none,-99,-99,0.1,0,none,29,18,Woman,Right,
13,2,2,0.9343300000000454,['n'],1,right,none,-99,-99,0.2,0,none,29,18,Woman,Right,
14,2,2,0.7156934000004185,['n'],1,right,none,-99,-99,0.2,0,none,29,18,Woman,Right,
15,2,2,0.5661651999998867,['c'],1,left,none,-99,-99,0.4,0,none,29,18,Woman,Right,
16,2,2,0.5173915000004854,['n'],1,right,none,-99,-99,0.4,0,none,29,18,Woman,Right,
17,2,2,0.48458540000046924,['c'],1,left,none,-99,-99,0.2,0,none,29,18,Woman,Right,
18,2,2,0.3837217000000237,['n'],1,right,none,-99,-99,0.4,0,none,29,18,Woman,Right,
19,2,2,0.5337868999995408,['n'],1,right,none,-99,-99,0.2,0,none,29,18,Woman,Right,
20,2,2,0.7164969999994355,['c'],0,right,none,-99,-99,0.1,0,none,29,18,Woman,Right,
21,2,2,0.4835622999999032,['n'],0,left,none,-99,-99,0.1,0,none,29,18,Woman,Right,
22,2,2,0.5340469000002486,['n'],1,right,none,-99,-99,0.4,0,none,29,18,Woman,Right,
23,2,2,0.46684730000015406,['n'],1,right,none,-99,-99,0.4,0,none,29,18,Woman,Right,
0,3,1,1.0853453000008813,['n'],1,right,['9'],5,3.2011237000006076,0.1,0,none,29,18,Woman,Right,
1,3,1,4.116369400000622,['n'],1,right,['8'],4,2.1345608999999968,0.4,0,none,29,18,Woman,Right,
2,3,1,1.5166802000003372,['c'],1,left,['3'],3,4.450890800000707,0.1,0,none,29,18,Woman,Right,
3,3,1,1.501213600000483,['n'],1,right,['8'],4,1.6504390000000058,0.1,0,none,29,18,Woman,Right,
4,3,1,1.3159346000002188,['c'],1,left,['9'],5,2.4692434999997204,0.4,0,none,29,18,Woman,Right,
5,3,1,1.2180652000006376,['c'],1,left,['0'],6,0.4004413000002387,0.4,0,none,29,18,Woman,Right,
6,3,1,1.5828785000003336,['n'],1,right,['8'],4,1.385432199999741,0.2,0,none,29,18,Woman,Right,
7,3,1,1.0344680999996854,['c'],1,left,['8'],4,0.618120899999667,0.2,0,none,29,18,Woman,Right,
8,3,1,0.8837524000000485,['n'],0,left,['3'],3,0.9679416999997557,0.1,0,none,29,18,Woman,Right,
9,3,1,1.3009265999999116,['n'],1,right,['8'],4,0.46884030000001076,0.1,0,none,29,18,Woman,Right,
10,3,1,1.934545899999648,['n'],1,right,['8'],4,0.31829130000005534,0.4,0,none,29,18,Woman,Right,
11,3,1,1.1679336000006515,['n'],1,right,['9'],5,0.2846147000000201,0.4,0,none,29,18,Woman,Right,
12,3,1,2.3171895999994376,['n'],0,left,['8'],4,0.8012760000001435,0.2,0,none,29,18,Woman,Right,
13,3,1,0.6171457000000373,['n'],1,right,['8'],4,0.3511880000005476,0.1,0,none,29,18,Woman,Right,
14,3,1,1.3333229999998366,['c'],1,left,['3'],3,0.434858699999495,0.2,0,none,29,18,Woman,Right,
15,3,1,2.450810199999978,['n'],0,left,['8'],4,0.30116240000006655,0.4,0,none,29,18,Woman,Right,
16,3,1,2.717185500000596,['n'],1,right,['8'],4,0.4178647999997338,0.2,0,none,29,18,Woman,Right,
17,3,1,0.8830027000003611,['n'],1,right,['8'],4,0.28388579999955255,0.2,0,none,29,18,Woman,Right,
18,3,1,1.5839422999997623,['n'],0,left,['8'],4,0.26807260000077804,0.2,0,none,29,18,Woman,Right,
19,3,1,3.6497351000007257,['c'],1,left,['8'],4,0.3682096000002275,0.1,0,none,29,18,Woman,Right,
20,3,1,1.2337478999997984,['n'],1,right,['2'],2,0.48467559999971854,0.4,0,none,29,18,Woman,Right,
21,3,1,1.349505300000601,['n'],0,left,['8'],4,0.3014461000002484,0.2,0,none,29,18,Woman,Right,
22,3,1,1.9347322999992684,['n'],0,left,['3'],3,0.6180034999997588,0.1,0,none,29,18,Woman,Right,
23,3,1,1.2678275999996913,['n'],1,right,['8'],4,0.3679283999999825,0.4,0,none,29,18,Woman,Right,
0,4,1,3.334033399999498,['c'],1,left,['8'],4,1.2010042000001704,0.1,0,AccAcc,29,18,Woman,Right,
1,4,1,5.0160249999999,x,-99,left,none,-99,-99,0.2,1,AccAcc,29,18,Woman,Right,
2,4,1,1.2171124000005875,['n'],1,right,['8'],4,0.5186083999997209,0.4,0,AccAcc,29,18,Woman,Right,
3,4,1,1.3169089999992138,['n'],0,left,['9'],5,0.5170490999998947,0.2,0,AccAcc,29,18,Woman,Right,
4,4,1,1.9503739000001588,['n'],1,right,['0'],6,0.58345509999981,0.4,0,AccAcc,29,18,Woman,Right,
5,4,1,2.8005800999999337,['c'],1,left,['3'],3,0.9339884999999413,0.1,0,AccAcc,29,18,Woman,Right,
6,4,1,2.3665979999996125,['n'],1,right,['8'],4,0.4499863999999434,0.1,0,AccAcc,29,18,Woman,Right,
7,4,1,1.3176708000000872,['n'],1,right,['9'],5,0.3680206000008184,0.1,0,AccAcc,29,18,Woman,Right,
8,4,1,2.782990799999425,['c'],1,left,['0'],6,1.784469000000172,0.4,0,AccAcc,29,18,Woman,Right,
9,4,1,2.0843372999997882,['n'],1,right,['8'],4,0.6010175000001254,0.1,0,AccAcc,29,18,Woman,Right,
10,4,1,4.083274900000106,['c'],1,left,['3'],3,0.3677824000005785,0.2,0,AccAcc,29,18,Woman,Right,
11,4,1,1.8162790999995195,['n'],1,right,['8'],4,0.3021330999999918,0.4,0,AccAcc,29,18,Woman,Right,
12,4,1,2.0339026999999987,['n'],1,right,['9'],5,0.3849699000002147,0.4,0,AccAcc,29,18,Woman,Right,
13,4,1,1.6839277999997648,['n'],1,right,['9'],5,0.6846519000000626,0.4,0,AccAcc,29,18,Woman,Right,
14,4,1,1.3002832000001945,['c'],1,left,['0'],6,0.934639199999765,0.2,0,AccAcc,29,18,Woman,Right,
15,4,1,1.6168728000002375,['n'],1,right,['9'],5,0.5348205000000235,0.2,0,AccAcc,29,18,Woman,Right,
16,4,1,1.266979099999844,['c'],0,right,['0'],6,0.7669712000006257,0.1,0,AccAcc,29,18,Woman,Right,
17,4,1,1.5005332000000635,['c'],0,right,['8'],4,0.9847703000004913,0.4,0,AccAcc,29,18,Woman,Right,
18,4,1,1.1493461000000025,['c'],0,right,['3'],3,0.43417829999998503,0.4,0,AccAcc,29,18,Woman,Right,
19,4,1,1.8852682000006098,['n'],1,right,['3'],3,0.701437600000645,0.1,0,AccAcc,29,18,Woman,Right,
20,4,1,1.58324630000061,['c'],1,left,['9'],5,0.8338497000004281,0.2,0,AccAcc,29,18,Woman,Right,
21,4,1,1.416238599999815,['c'],0,right,['9'],5,0.5685437000001912,0.2,0,AccAcc,29,18,Woman,Right,
22,4,1,1.766924999999901,['c'],1,left,['8'],4,0.9844720999999481,0.1,0,AccAcc,29,18,Woman,Right,
23,4,1,1.3502164999999877,['c'],1,left,['9'],5,0.5837932000004002,0.2,0,AccAcc,29,18,Woman,Right,
24,4,1,1.4005834999998115,['c'],1,left,['9'],5,0.6678405000002385,0.2,0,AccAcc,29,18,Woman,Right,
25,4,1,1.7316147999999885,['c'],0,right,['8'],4,0.601792899999964,0.1,0,AccAcc,29,18,Woman,Right,
26,4,1,1.2995344000000841,['c'],1,left,['0'],6,0.7179212999999436,0.1,0,AccAcc,29,18,Woman,Right,
27,4,1,2.466434699999809,['c'],1,left,['2'],2,1.300017999999909,0.2,0,AccAcc,29,18,Woman,Right,
28,4,1,1.3010449000003064,['c'],0,right,['8'],4,0.8514682999993965,0.1,0,AccAcc,29,18,Woman,Right,
29,4,1,1.4839540000002671,['c'],0,right,['9'],5,0.5356061999991653,0.1,0,AccAcc,29,18,Woman,Right,
30,4,1,1.283871700000418,['c'],0,right,['9'],5,0.5671120999995765,0.2,0,AccAcc,29,18,Woman,Right,
31,4,1,1.7170249999999214,['c'],1,left,['0'],6,1.6015859999997701,0.4,0,AccAcc,29,18,Woman,Right,
32,4,1,1.1832929000001968,['c'],1,left,['0'],6,0.9846582999998645,0.1,0,AccAcc,29,18,Woman,Right,
33,4,1,1.517035599999872,['c'],1,left,['0'],6,0.6511604999996052,0.1,0,AccAcc,29,18,Woman,Right,
34,4,1,1.7003334999999424,['c'],1,left,['8'],4,0.5512169000003269,0.2,0,AccAcc,29,18,Woman,Right,
35,4,1,1.565994700000374,['n'],1,right,['3'],3,0.8348511000003782,0.4,0,AccAcc,29,18,Woman,Right,
36,4,1,2.2167512000005445,['c'],1,left,['8'],4,0.35130630000003293,0.4,0,AccAcc,29,18,Woman,Right,
37,4,1,1.8341284000007363,['c'],0,right,['9'],5,0.7845032000004721,0.4,0,AccAcc,29,18,Woman,Right,
38,4,1,2.7498699000007036,['n'],0,left,['3'],3,0.9844980000007126,0.2,0,AccAcc,29,18,Woman,Right,
39,4,1,1.4328969999996843,['c'],0,right,['8'],4,0.48546489999989717,0.1,0,AccAcc,29,18,Woman,Right,
40,4,1,1.6995939999997063,['c'],0,right,['8'],4,0.46830510000017966,0.1,0,AccAcc,29,18,Woman,Right,
41,4,1,2.6992639000000054,['c'],1,left,['9'],5,0.9666354999999385,0.2,0,AccAcc,29,18,Woman,Right,
42,4,1,1.118000999999822,['c'],0,right,['9'],5,0.7013176999998905,0.4,0,AccAcc,29,18,Woman,Right,
43,4,1,0.9990017999998599,['c'],1,left,['9'],5,0.619184099999984,0.4,0,AccAcc,29,18,Woman,Right,
44,4,1,1.8337453000003734,['n'],1,right,['2'],2,1.1495954000001802,0.1,0,AccAcc,29,18,Woman,Right,
45,4,1,2.118410699999913,['c'],0,right,['9'],5,0.4501481999996031,0.2,0,AccAcc,29,18,Woman,Right,
46,4,1,1.1996796000003087,['c'],1,left,['9'],5,0.7852929999999105,0.4,0,AccAcc,29,18,Woman,Right,
47,4,1,1.6338295999994443,['c'],0,right,['3'],3,0.7682584000003772,0.1,0,AccAcc,29,18,Woman,Right,
48,4,1,1.4337307999994664,['c'],1,left,['8'],4,0.4513237000001027,0.2,0,AccAcc,29,18,Woman,Right,
49,4,1,2.733189300000049,['c'],0,right,['9'],5,0.4014016000000993,0.1,0,AccAcc,29,18,Woman,Right,
50,4,1,0.8507645999998203,['c'],1,left,['0'],6,0.5667248999998264,0.4,0,AccAcc,29,18,Woman,Right,
51,4,1,0.9329657999996925,['c'],1,left,['9'],5,0.5006797000005463,0.4,0,AccAcc,29,18,Woman,Right,
52,4,1,1.4994891999995161,['n'],0,left,['3'],3,0.46770940000078554,0.1,0,AccAcc,29,18,Woman,Right,
53,4,1,2.1006145999999717,['n'],0,left,['8'],4,0.6013844999997673,0.2,0,AccAcc,29,18,Woman,Right,
54,4,1,1.4000412000004872,['c'],1,left,['9'],5,0.8840818999997282,0.2,0,AccAcc,29,18,Woman,Right,
55,4,1,1.284992500000044,['c'],0,right,['9'],5,0.48555540000052133,0.2,0,AccAcc,29,18,Woman,Right,
56,4,1,5.0161279999992985,x,-99,right,none,-99,-99,0.4,1,AccAcc,29,18,Woman,Right,
57,4,1,1.834594100000686,['c'],1,left,['8'],4,0.8677042999997866,0.2,0,AccAcc,29,18,Woman,Right,
58,4,1,0.8490722000005917,['n'],1,right,['8'],4,0.5359709000003932,0.4,0,AccAcc,29,18,Woman,Right,
59,4,1,0.6333805000003849,['c'],1,left,['3'],3,0.7515266999998858,0.4,0,AccAcc,29,18,Woman,Right,
0,5,1,1.483802900000228,['n'],1,right,['8'],4,0.3512955999995029,0.1,0,FastAcc,29,18,Woman,Right,
1,5,1,0.6005496999996467,['n'],0,left,['8'],4,0.23512430000027962,0.2,0,FastAcc,29,18,Woman,Right,
2,5,1,0.7003780999993978,['n'],1,right,['9'],5,0.48481039999933273,0.4,0,FastAcc,29,18,Woman,Right,
3,5,1,0.5339672000000064,['n'],1,right,['9'],5,0.31827049999992596,0.2,0,FastAcc,29,18,Woman,Right,
4,5,1,1.1998696999999083,['n'],1,right,['0'],6,0.7345501999998305,0.4,0,FastAcc,29,18,Woman,Right,
5,5,1,1.1837418999994043,['c'],1,left,['8'],4,0.4345952000003308,0.2,0,FastAcc,29,18,Woman,Right,
6,5,1,0.734657299999526,['c'],0,right,['3'],3,0.6344409000002997,0.1,0,FastAcc,29,18,Woman,Right,
7,5,1,0.7330963000003976,['n'],1,right,['9'],5,0.23339970000051835,0.1,0,FastAcc,29,18,Woman,Right,
8,5,1,0.9842866000008144,['c'],1,left,['9'],5,0.46811299999990297,0.4,0,FastAcc,29,18,Woman,Right,
9,5,1,1.251270900000236,['c'],0,right,['9'],5,0.21781449999980396,0.1,0,FastAcc,29,18,Woman,Right,
10,5,1,0.300447599999643,['c'],0,right,['9'],5,0.3182137000003422,0.2,0,FastAcc,29,18,Woman,Right,
11,5,1,0.8668330999998943,['n'],0,left,['9'],5,0.2681216000000859,0.2,0,FastAcc,29,18,Woman,Right,
12,5,1,0.4668433000006189,['n'],1,right,['9'],5,0.21836460000031366,0.1,0,FastAcc,29,18,Woman,Right,
13,5,1,0.7333089000003383,['c'],1,left,"['3', '2']",3,0.31846719999975903,0.2,0,FastAcc,29,18,Woman,Right,
14,5,1,1.3010767000005217,['c'],0,right,['9'],5,0.31820369999968534,0.4,0,FastAcc,29,18,Woman,Right,
15,5,1,1.7000221000007514,['c'],1,left,['9'],5,0.30138390000047366,0.1,0,FastAcc,29,18,Woman,Right,
16,5,1,0.667040100000122,['c'],0,right,['9'],5,0.28280780000022787,0.1,0,FastAcc,29,18,Woman,Right,
17,5,1,0.9177685999993628,['c'],1,left,['9'],5,0.21918280000045343,0.1,0,FastAcc,29,18,Woman,Right,
18,5,1,0.9666367999998329,['n'],0,left,['9'],5,0.20134539999980916,0.1,0,FastAcc,29,18,Woman,Right,
19,5,1,0.9337741999997888,['n'],1,right,['9'],5,0.23471779999999853,0.2,0,FastAcc,29,18,Woman,Right,
20,5,1,0.8010679999997592,['c'],1,left,['9'],5,1.1338259000003745,0.4,0,FastAcc,29,18,Woman,Right,
21,5,1,1.0338593999995283,['c'],0,right,['0'],6,0.21761440000045695,0.2,0,FastAcc,29,18,Woman,Right,
22,5,1,1.001012400000036,['n'],0,left,['0'],6,0.23478810000051453,0.1,0,FastAcc,29,18,Woman,Right,
23,5,1,0.7845263999997769,['n'],0,left,['0'],6,0.18384900000000926,0.1,0,FastAcc,29,18,Woman,Right,
24,5,1,0.8847522999994908,['c'],1,left,['0'],6,0.23474480000004405,0.4,0,FastAcc,29,18,Woman,Right,
25,5,1,1.0005714999997508,['c'],1,left,['0'],6,0.23468320000029053,0.2,0,FastAcc,29,18,Woman,Right,
26,5,1,0.4668159000002561,['n'],1,right,['8'],4,0.33545279999998456,0.2,0,FastAcc,29,18,Woman,Right,
27,5,1,0.5163959000001341,['c'],1,left,['8'],4,0.3002331999996386,0.4,0,FastAcc,29,18,Woman,Right,
28,5,1,0.867587600000661,['n'],1,right,['8'],4,0.18341979999968316,0.1,0,FastAcc,29,18,Woman,Right,
29,5,1,0.501077400000213,['n'],1,right,['8'],4,0.2178961999998137,0.1,0,FastAcc,29,18,Woman,Right,
30,5,1,0.2841624000002412,['c'],1,left,['3'],3,0.46776709999994637,0.4,0,FastAcc,29,18,Woman,Right,
31,5,1,0.8503787999998167,['n'],0,left,['2'],2,0.3348621999994066,0.1,0,FastAcc,29,18,Woman,Right,
32,5,1,0.7496512000006987,['n'],1,right,['8'],4,2.3520440000002054,0.2,0,FastAcc,29,18,Woman,Right,
33,5,1,0.3658758999999918,['n'],1,right,['8'],4,0.7844257999995534,0.2,0,FastAcc,29,18,Woman,Right,
34,5,1,3.8666613999994297,['n'],1,right,['8'],4,0.4513531000002331,0.1,0,FastAcc,29,18,Woman,Right,
35,5,1,0.4008075000001554,['n'],1,right,['8'],4,0.251028600000609,0.4,0,FastAcc,29,18,Woman,Right,
36,5,1,1.033973700000388,['c'],0,right,['8'],4,0.30119509999985894,0.1,0,FastAcc,29,18,Woman,Right,
37,5,1,0.9169969999993555,['n'],1,right,['9'],5,0.1845115000005535,0.2,0,FastAcc,29,18,Woman,Right,
38,5,1,0.5504350999999588,['n'],1,right,['9'],5,0.18354889999955049,0.4,0,FastAcc,29,18,Woman,Right,
39,5,1,0.8673192000005656,['c'],1,left,['3'],3,0.2347788999995828,0.4,0,FastAcc,29,18,Woman,Right,
40,5,1,0.6833736000007775,['c'],1,left,['3'],3,0.3354704999992464,0.4,0,FastAcc,29,18,Woman,Right,
41,5,1,1.2671596000000136,['c'],1,left,['3'],3,0.035019899999497284,0.2,0,FastAcc,29,18,Woman,Right,
42,5,1,0.8660665000006702,['n'],0,left,['8'],4,0.18505660000028,0.4,0,FastAcc,29,18,Woman,Right,
43,5,1,0.6839126000004399,['n'],1,right,['9'],5,0.25144470000032015,0.1,0,FastAcc,29,18,Woman,Right,
44,5,1,1.5158093999998528,['c'],1,left,['3'],3,0.2356032999996387,0.4,0,FastAcc,29,18,Woman,Right,
45,5,1,0.6675253000003067,['n'],1,right,['8'],4,0.18515990000014426,0.2,0,FastAcc,29,18,Woman,Right,
46,5,1,0.6671020000003409,['n'],1,right,['9'],5,0.16819789999954082,0.4,0,FastAcc,29,18,Woman,Right,
47,5,1,0.35121129999970435,['n'],0,left,['9'],5,0.25133740000001126,0.4,0,FastAcc,29,18,Woman,Right,
48,5,1,0.40039099999921746,['c'],1,left,['3'],3,0.24946259999978793,0.2,0,FastAcc,29,18,Woman,Right,
49,5,1,0.6346859999994194,['n'],1,right,['9'],5,0.151344899999458,0.4,0,FastAcc,29,18,Woman,Right,
50,5,1,0.5506899000001795,['c'],1,left,['2'],2,0.3179766000002928,0.2,0,FastAcc,29,18,Woman,Right,
51,5,1,0.2844448999994711,['n'],0,left,['9'],5,0.16810940000050323,0.4,0,FastAcc,29,18,Woman,Right,
52,5,1,0.26729599999998754,['n'],1,right,['0'],6,0.13487010000062583,0.1,0,FastAcc,29,18,Woman,Right,
53,5,1,0.9170266000000993,['n'],0,left,['8'],4,0.1346438999999009,0.4,0,FastAcc,29,18,Woman,Right,
54,5,1,1.5335457000001043,['c'],0,right,['3'],3,0.21845720000055735,0.1,0,FastAcc,29,18,Woman,Right,
55,5,1,0.36753309999949124,['n'],0,left,['8'],4,0.1519575000002078,0.1,0,FastAcc,29,18,Woman,Right,
56,5,1,0.9505013999996663,['c'],1,left,['9'],5,0.2181962000004205,0.4,0,FastAcc,29,18,Woman,Right,
57,5,1,0.5170911000004708,['n'],0,left,['9'],5,0.16794620000018767,0.2,0,FastAcc,29,18,Woman,Right,
58,5,1,0.40067739999994956,['n'],0,left,['8'],4,0.2683475999992879,0.2,0,FastAcc,29,18,Woman,Right,
59,5,1,0.9511329000006299,['n'],1,right,['9'],5,0.3014276999992944,0.2,0,FastAcc,29,18,Woman,Right,
0,6,1,0.31787029999941296,['n'],1,right,['9'],5,0.2682243000008384,0.4,0,FastFast,29,18,Woman,Right,
1,6,1,0.2998625999998694,['c'],1,left,['9'],5,0.2510560999999143,0.1,0,FastFast,29,18,Woman,Right,
2,6,1,0.2501291999997193,['n'],0,left,['9'],5,0.21713550000004034,0.4,0,FastFast,29,18,Woman,Right,
3,6,1,0.3670542999998361,['n'],0,left,['9'],5,0.18492440000045463,0.2,0,FastFast,29,18,Woman,Right,
4,6,1,0.3833694999993895,['c'],0,right,['3'],3,0.18506840000009106,0.2,0,FastFast,29,18,Woman,Right,
5,6,1,0.6841569999996864,['c'],1,left,['9'],5,0.21820539999953326,0.4,0,FastFast,29,18,Woman,Right,
6,6,1,0.782791399999951,['n'],1,right,['9'],5,0.15212209999936022,0.2,0,FastFast,29,18,Woman,Right,
7,6,1,0.6336338000000978,['n'],1,right,['9'],5,0.11803210000016406,0.2,0,FastFast,29,18,Woman,Right,
8,6,1,0.4839979000007588,['n'],0,left,['9'],5,0.1683892000000924,0.1,0,FastFast,29,18,Woman,Right,
9,6,1,0.884348399999908,['c'],0,right,['2'],2,0.2681447000004482,0.1,0,FastFast,29,18,Woman,Right,
10,6,1,0.5667932999995173,['c'],1,left,['0'],6,0.301396100000602,0.2,0,FastFast,29,18,Woman,Right,
11,6,1,0.5504080999999132,['n'],1,right,['9'],5,0.16767310000068392,0.1,0,FastFast,29,18,Woman,Right,
12,6,1,0.5344485999994504,['n'],0,left,['3'],3,0.15112909999970725,0.2,0,FastFast,29,18,Woman,Right,
13,6,1,0.2510507000006328,['n'],1,right,['3'],3,0.26706600000034086,0.4,0,FastFast,29,18,Woman,Right,
14,6,1,0.20024900000044,['n'],0,left,['3'],3,0.20085480000034295,0.4,0,FastFast,29,18,Woman,Right,
15,6,1,0.7825748999994175,['n'],1,right,['8'],4,0.20260109999981069,0.1,0,FastFast,29,18,Woman,Right,
16,6,1,0.7006085000002713,['n'],0,left,['8'],4,0.25176160000046366,0.2,0,FastFast,29,18,Woman,Right,
17,6,1,1.2668249999996988,['n'],1,right,['9'],5,0.6343788000003769,0.4,0,FastFast,29,18,Woman,Right,
18,6,1,0.6998730000004798,['n'],1,right,['9'],5,0.15168749999975262,0.4,0,FastFast,29,18,Woman,Right,
19,6,1,0.3838955999999598,['n'],0,left,['9'],5,0.11800849999963248,0.1,0,FastFast,29,18,Woman,Right,
20,6,1,0.45030039999983273,['n'],0,left,['9'],5,0.15209700000013981,0.2,0,FastFast,29,18,Woman,Right,
21,6,1,0.5504470999994737,['n'],0,left,['9'],5,0.16697750000002998,0.1,0,FastFast,29,18,Woman,Right,
22,6,1,0.8008927999999287,['n'],1,right,['9'],5,0.13410360000034416,0.2,0,FastFast,29,18,Woman,Right,
23,6,1,0.6008842999999615,['n'],1,right,['9'],5,0.11864340000010998,0.2,0,FastFast,29,18,Woman,Right,
24,6,1,0.6983827000003657,['n'],0,left,['8'],4,0.11740910000025906,0.2,0,FastFast,29,18,Woman,Right,
25,6,1,0.8842125999999553,['c'],1,left,['3'],3,0.16726870000002236,0.2,0,FastFast,29,18,Woman,Right,
26,6,1,0.5333749000001262,['c'],1,left,['8'],4,0.2513604000005216,0.4,0,FastFast,29,18,Woman,Right,
27,6,1,0.7338876999992863,['n'],1,right,['9'],5,0.20097530000020924,0.2,0,FastFast,29,18,Woman,Right,
28,6,1,0.750394900000174,['c'],0,right,['9'],5,0.26807670000016515,0.2,0,FastFast,29,18,Woman,Right,
29,6,1,0.7835207000007358,"['n', 'c']",1,right,['8'],4,0.40129699999943114,0.1,0,FastFast,29,18,Woman,Right,
30,6,1,0.317115200000444,['n'],0,left,['8'],4,0.41709090000040305,0.2,0,FastFast,29,18,Woman,Right,
31,6,1,0.18323010000040085,['c'],0,right,['8'],4,0.8328178000001571,0.4,0,FastFast,29,18,Woman,Right,
32,6,1,0.5169165999996039,['c'],0,right,"['3', '8']",3,4.001643600000534,0.1,0,FastFast,29,18,Woman,Right,
33,6,1,0.5010626999992382,['c'],1,left,['9'],5,0.2679269000000204,0.1,0,FastFast,29,18,Woman,Right,
34,6,1,0.6503960999998526,['n'],0,left,['9'],5,0.21729080000022805,0.1,0,FastFast,29,18,Woman,Right,
35,6,1,0.8337517999998454,['c'],1,left,['9'],5,0.1848906999994142,0.2,0,FastFast,29,18,Woman,Right,
36,6,1,0.3336232999999993,['c'],1,left,['8'],4,0.9341713999992862,0.4,0,FastFast,29,18,Woman,Right,
37,6,1,0.48386389999996027,['n'],1,right,['8'],4,0.18461999999999534,0.4,0,FastFast,29,18,Woman,Right,
38,6,1,0.6834509000000253,['c'],1,left,['9'],5,0.21681079999962094,0.1,0,FastFast,29,18,Woman,Right,
39,6,1,0.4511475999997856,['n'],0,left,['8'],4,0.18453409999983705,0.1,0,FastFast,29,18,Woman,Right,
40,6,1,0.46649879999949917,['c'],0,right,['9'],5,0.25161800000023504,0.1,0,FastFast,29,18,Woman,Right,
41,6,1,0.4510563000003458,['n'],1,right,['9'],5,0.18477290000009816,0.4,0,FastFast,29,18,Woman,Right,
42,6,1,1.0160400000004302,['n'],1,right,['0'],6,0.18523580000055517,0.2,0,FastFast,29,18,Woman,Right,
43,6,1,0.7338516999998319,['c'],1,left,['0'],6,0.417515000000094,0.4,0,FastFast,29,18,Woman,Right,
44,6,1,0.5993967999993401,['n'],0,left,['9'],5,0.2514599000005546,0.1,0,FastFast,29,18,Woman,Right,
45,6,1,0.850944800000434,['n'],1,right,['0'],6,0.2183050000003277,0.4,0,FastFast,29,18,Woman,Right,
46,6,1,0.5163228999999774,['n'],1,right,['0'],6,0.20122249999985797,0.4,0,FastFast,29,18,Woman,Right,
47,6,1,0.6334277000005386,['n'],1,right,['0'],6,0.13292040000033012,0.4,0,FastFast,29,18,Woman,Right,
48,6,1,1.284873300000072,['n'],0,left,['3'],3,0.1515371999994386,0.1,0,FastFast,29,18,Woman,Right,
49,6,1,0.4170234999992317,['n'],1,right,['9'],5,0.15171939999981987,0.4,0,FastFast,29,18,Woman,Right,
50,6,1,0.7997746999999436,['c'],0,right,['9'],5,0.18524149999939254,0.1,0,FastFast,29,18,Woman,Right,
51,6,1,1.0671775000000707,['n'],0,left,['9'],5,0.18514460000005784,0.2,0,FastFast,29,18,Woman,Right,
52,6,1,0.4664381000002322,['n'],1,right,['8'],4,0.2679894000002605,0.4,0,FastFast,29,18,Woman,Right,
53,6,1,0.26660570000058215,['n'],1,right,['8'],4,0.21837939999932132,0.4,0,FastFast,29,18,Woman,Right,
54,6,1,1.200127799999791,['n'],1,right,['9'],5,0.18546229999992647,0.1,0,FastFast,29,18,Woman,Right,
55,6,1,0.0839125000002241,['n'],0,left,['8'],4,0.6513016000008065,0.4,0,FastFast,29,18,Woman,Right,
56,6,1,1.0159928000002765,['n'],0,left,['9'],5,1.2009009999992486,0.1,0,FastFast,29,18,Woman,Right,
57,6,1,1.0002070000000458,['n'],1,right,['9'],5,0.2513267000003907,0.2,0,FastFast,29,18,Woman,Right,
58,6,1,0.08402640000076644,['n'],0,left,['0'],6,0.8336706000000049,0.2,0,FastFast,29,18,Woman,Right,
59,6,1,0.06590909999977157,['c'],1,left,['0'],6,0.4525404999994862,0.1,0,FastFast,29,18,Woman,Right,
0,7,1,1.4011043000000427,['n'],1,right,['0'],6,0.4012390999996569,0.2,0,AccFast,29,18,Woman,Right,
1,7,1,0.1014353000000483,['c'],0,right,['2'],2,0.6173535999996602,0.4,0,AccFast,29,18,Woman,Right,
2,7,1,0.4668696999997337,['n'],1,right,['9'],5,0.28504979999979696,0.4,0,AccFast,29,18,Woman,Right,
3,7,1,0.45040849999986676,['n'],1,right,['9'],5,0.20124899999973422,0.4,0,AccFast,29,18,Woman,Right,
4,7,1,0.3504511999999522,['c'],1,left,['3'],3,0.26808040000014444,0.4,0,AccFast,29,18,Woman,Right,
5,7,1,0.3340390000003026,['c'],0,right,['9'],5,0.2345246999993833,0.1,0,AccFast,29,18,Woman,Right,
6,7,1,0.7169581999996808,['n'],1,right,['9'],5,0.1675482999999076,0.4,0,AccFast,29,18,Woman,Right,
7,7,1,0.4178162999996857,['c'],1,left,['9'],5,0.4516815000006318,0.2,0,AccFast,29,18,Woman,Right,
8,7,1,1.0844185000005382,['n'],1,right,['0'],6,0.18491369999992457,0.4,0,AccFast,29,18,Woman,Right,
9,7,1,0.7003992999998445,['n'],1,right,['8'],4,0.18259259999922506,0.2,0,AccFast,29,18,Woman,Right,
10,7,1,0.7341712000006737,['n'],1,right,['8'],4,0.15146549999917625,0.4,0,AccFast,29,18,Woman,Right,
11,7,1,0.33302050000020245,['c'],0,right,['3'],3,0.23491070000000036,0.2,0,AccFast,29,18,Woman,Right,
12,7,1,1.2323635000002469,['c'],0,right,['3'],3,0.20221239999955287,0.4,0,AccFast,29,18,Woman,Right,
13,7,1,0.3502725999996983,['n'],0,left,['0'],6,0.28441230000044015,0.1,0,AccFast,29,18,Woman,Right,
14,7,1,0.23389229999975214,['c'],0,right,['8'],4,1.2178296000001865,0.2,0,AccFast,29,18,Woman,Right,
15,7,1,0.6831382999998823,['c'],1,left,['8'],4,0.16762629999993806,0.2,0,AccFast,29,18,Woman,Right,
16,7,1,0.701039700000365,['n'],0,left,['9'],5,0.20080200000029436,0.2,0,AccFast,29,18,Woman,Right,
17,7,1,0.5011535000003278,['n'],0,left,['9'],5,0.16805420000036975,0.1,0,AccFast,29,18,Woman,Right,
18,7,1,1.750391600000512,['c'],1,left,['8'],4,0.21934700000019802,0.2,0,AccFast,29,18,Woman,Right,
19,7,1,0.28338870000061434,['c'],1,left,['9'],5,0.26779549999992014,0.1,0,AccFast,29,18,Woman,Right,
20,7,1,1.2010231000003841,['c'],1,left,['9'],5,0.18479649999972025,0.1,0,AccFast,29,18,Woman,Right,
21,7,1,0.5839089999999487,['c'],1,left,['9'],5,1.4846466999997574,0.1,0,AccFast,29,18,Woman,Right,
22,7,1,1.1004014999998617,['n'],1,right,['3'],3,0.567889599999944,0.4,0,AccFast,29,18,Woman,Right,
23,7,1,0.9499607999996442,['c'],1,left,['9'],5,0.21693690000029164,0.1,0,AccFast,29,18,Woman,Right,
24,7,1,0.40047490000051766,['c'],1,left,['8'],4,0.8514697000000524,0.4,0,AccFast,29,18,Woman,Right,
25,7,1,0.7503169000001435,['n'],0,left,['9'],5,0.2847351999998864,0.1,0,AccFast,29,18,Woman,Right,
26,7,1,0.38263959999949293,['c'],1,left,['9'],5,0.18550859999959357,0.1,0,AccFast,29,18,Woman,Right,
27,7,1,0.7163316999995004,['c'],1,left,['9'],5,0.18455559999983961,0.4,0,AccFast,29,18,Woman,Right,
28,7,1,1.317615900000419,['c'],0,right,['9'],5,0.2181534000001193,0.4,0,AccFast,29,18,Woman,Right,
29,7,1,1.6672147999997833,['c'],1,left,['9'],5,0.2512717999998131,0.1,0,AccFast,29,18,Woman,Right,
30,7,1,1.116244099999676,['c'],1,left,['9'],5,0.2014694999998028,0.1,0,AccFast,29,18,Woman,Right,
31,7,1,0.6836341999996876,['c'],1,left,['9'],5,0.23483110000051965,0.4,0,AccFast,29,18,Woman,Right,
32,7,1,0.8672483999998803,['c'],1,left,['0'],6,0.2349631999995836,0.4,0,AccFast,29,18,Woman,Right,
33,7,1,2.1984887999997227,['c'],1,left,['0'],6,0.13541389999954845,0.4,0,AccFast,29,18,Woman,Right,
34,7,1,0.5838138999997682,['c'],1,left,['0'],6,0.16821680000066408,0.1,0,AccFast,29,18,Woman,Right,
35,7,1,0.333201000000372,['c'],0,right,['0'],6,0.18483889999970415,0.4,0,AccFast,29,18,Woman,Right,
36,7,1,0.5505040999996709,['c'],1,left,['0'],6,0.184042099999715,0.1,0,AccFast,29,18,Woman,Right,
37,7,1,1.0660184999997,['n'],0,left,"['2', '1']",2,0.21838129999923694,0.2,0,AccFast,29,18,Woman,Right,
38,7,1,0.8840553,['n'],0,left,['2'],2,0.1502130999997462,0.2,0,AccFast,29,18,Woman,Right,
39,7,1,0.799869000000399,['n'],1,right,['9'],5,0.15147199999955774,0.2,0,AccFast,29,18,Woman,Right,
40,7,1,0.349680499999522,['n'],1,right,['8'],4,0.16818609999972978,0.2,0,AccFast,29,18,Woman,Right,
41,7,1,0.45108970000001136,['n'],1,right,['9'],5,0.13501590000032593,0.4,0,AccFast,29,18,Woman,Right,
42,7,1,0.5159387999992759,['n'],1,right,['9'],5,0.21872699999948964,0.2,0,AccFast,29,18,Woman,Right,
43,7,1,0.5177569999996194,['n'],1,right,['9'],5,0.13526350000029197,0.2,0,AccFast,29,18,Woman,Right,
44,7,1,0.3999385999995866,['n'],0,left,['2'],2,0.28544370000054187,0.1,0,AccFast,29,18,Woman,Right,
45,7,1,0.33416959999976825,['c'],1,left,['2'],2,0.23521789999995235,0.2,0,AccFast,29,18,Woman,Right,
46,7,1,0.45162920000075246,['c'],1,left,['3'],3,0.33504679999987275,0.2,0,AccFast,29,18,Woman,Right,
47,7,1,0.600492900000063,['c'],0,right,['1'],1,0.2848037000003387,0.2,0,AccFast,29,18,Woman,Right,
48,7,1,2.883316100000229,['c'],0,right,['0'],6,0.2183986999998524,0.1,0,AccFast,29,18,Woman,Right,
49,7,1,0.4506117999999333,['n'],1,right,['0'],6,0.3341915999999401,0.4,0,AccFast,29,18,Woman,Right,
50,7,1,0.2831122999996296,['c'],0,right,['2'],2,0.3011655000000246,0.2,0,AccFast,29,18,Woman,Right,
51,7,1,0.28404870000031224,['n'],1,right,['8'],4,0.5016208000006372,0.2,0,AccFast,29,18,Woman,Right,
52,7,1,0.434056199999759,['c'],0,right,['9'],5,0.2680970999999772,0.4,0,AccFast,29,18,Woman,Right,
53,7,1,4.484101699999883,['c'],0,right,['9'],5,1.9008868000000803,0.1,0,AccFast,29,18,Woman,Right,
54,7,1,0.3506176000000778,['n'],0,left,['0'],6,0.20133069999974396,0.2,0,AccFast,29,18,Woman,Right,
55,7,1,0.38381070000014006,['n'],0,left,['9'],5,0.15079379999951925,0.1,0,AccFast,29,18,Woman,Right,
56,7,1,0.3514082000001508,['n'],1,right,['9'],5,0.15127570000004198,0.1,0,AccFast,29,18,Woman,Right,
57,7,1,0.28413759999966715,['n'],1,right,['9'],5,0.15161769999940589,0.1,0,AccFast,29,18,Woman,Right,
58,7,1,0.19943349999994098,['n'],0,left,['9'],5,0.15162559999953373,0.4,0,AccFast,29,18,Woman,Right,
59,7,1,0.017105000000810833,['n'],1,right,['3'],3,1.3845573999997214,0.1,0,AccFast,29,18,Woman,Right,
0,8,1,1.034637799999473,['c'],0,right,['9'],5,1.0011439999998402,0.4,0,AccAcc,29,18,Woman,Right,
1,8,1,0.7337741999999707,['c'],1,left,['9'],5,0.20133639999949082,0.2,0,AccAcc,29,18,Woman,Right,
2,8,1,0.49944720000075904,['c'],1,left,['9'],5,0.1849529999999504,0.2,0,AccAcc,29,18,Woman,Right,
3,8,1,0.7505327999997462,['n'],1,right,['9'],5,0.11852499999986321,0.2,0,AccAcc,29,18,Woman,Right,
4,8,1,0.5497534999994969,['c'],1,left,['9'],5,0.2014509000000544,0.4,0,AccAcc,29,18,Woman,Right,
5,8,1,0.4829577000000427,['n'],0,left,['0'],6,0.18454340000062075,0.1,0,AccAcc,29,18,Woman,Right,
6,8,1,0.6667440999999599,['c'],1,left,['0'],6,0.5167787000000317,0.4,0,AccAcc,29,18,Woman,Right,
7,8,1,0.8168167999992875,['c'],1,left,['0'],6,0.20066680000036285,0.2,0,AccAcc,29,18,Woman,Right,
8,8,1,1.100815099999636,['c'],1,left,['9'],5,0.2183188999997583,0.1,0,AccAcc,29,18,Woman,Right,
9,8,1,0.5168296000001646,['c'],0,right,['9'],5,0.2012724000005619,0.1,0,AccAcc,29,18,Woman,Right,
10,8,1,0.983786499999951,['c'],0,right,['1'],1,0.8517153000002509,0.2,0,AccAcc,29,18,Woman,Right,
11,8,1,0.701017999999749,['c'],0,right,['9'],5,0.5844090000000506,0.4,0,AccAcc,29,18,Woman,Right,
12,8,1,5.000042900000153,x,-99,left,none,-99,-99,0.4,1,AccAcc,29,18,Woman,Right,
13,8,1,1.4178341000006185,['n'],1,right,['9'],5,0.18511060000037105,0.4,0,AccAcc,29,18,Woman,Right,
14,8,1,0.7501652000000831,['c'],0,right,['9'],5,0.28456499999992957,0.4,0,AccAcc,29,18,Woman,Right,
15,8,1,0.6172262999998566,['c'],0,right,['9'],5,0.18476670000018203,0.2,0,AccAcc,29,18,Woman,Right,
16,8,1,0.6999928999994154,['c'],1,left,['9'],5,0.23504490000050282,0.2,0,AccAcc,29,18,Woman,Right,
17,8,1,0.600288399999954,['c'],0,right,['0'],6,0.31806130000040866,0.4,0,AccAcc,29,18,Woman,Right,
18,8,1,0.4834312000002683,['c'],1,left,['2'],2,0.35023030000047584,0.2,0,AccAcc,29,18,Woman,Right,
19,8,1,0.9507792000003974,['c'],1,left,['8'],4,0.2668834000005518,0.2,0,AccAcc,29,18,Woman,Right,
20,8,1,0.700437299999976,['c'],0,right,['8'],4,0.20091669999965234,0.1,0,AccAcc,29,18,Woman,Right,
21,8,1,1.3002840999997716,['c'],0,right,['9'],5,0.6170477999994546,0.1,0,AccAcc,29,18,Woman,Right,
22,8,1,0.9331228999999439,['c'],1,left,['9'],5,0.21844329999930778,0.1,0,AccAcc,29,18,Woman,Right,
23,8,1,0.9330920000002152,['c'],1,left,['9'],5,0.20197800000005373,0.4,0,AccAcc,29,18,Woman,Right,
24,8,1,0.5010048000003735,['c'],1,left,['8'],4,0.2676658000000316,0.4,0,AccAcc,29,18,Woman,Right,
25,8,1,0.31672859999980574,['c'],1,left,['9'],5,0.3351015999996889,0.1,0,AccAcc,29,18,Woman,Right,
26,8,1,2.4167891999995845,['c'],0,right,['9'],5,0.1680860999995275,0.1,0,AccAcc,29,18,Woman,Right,
27,8,1,0.2844319000005271,['c'],1,left,['9'],5,0.2013516000006348,0.1,0,AccAcc,29,18,Woman,Right,
28,8,1,4.999564300000202,['c'],0,right,['0'],6,0.05131600000004255,0.1,0,AccAcc,29,18,Woman,Right,
29,8,1,1.0177290000001449,['c'],0,right,['0'],6,2.71711089999917,0.4,0,AccAcc,29,18,Woman,Right,
30,8,1,0.2338872000000265,['n'],0,left,['0'],6,0.31824260000030336,0.1,0,AccAcc,29,18,Woman,Right,
31,8,1,0.3997443000007479,['c'],1,left,['9'],5,0.20142370000030496,0.1,0,AccAcc,29,18,Woman,Right,
32,8,1,0.48247540000011213,['c'],0,right,['9'],5,0.20076089999929536,0.1,0,AccAcc,29,18,Woman,Right,
33,8,1,0.5841669000001275,['c'],0,right,['8'],4,0.23423079999975016,0.1,0,AccAcc,29,18,Woman,Right,
34,8,1,0.8172227000004568,['c'],1,left,['9'],5,0.28496029999951134,0.1,0,AccAcc,29,18,Woman,Right,
35,8,1,0.7173204000000624,['n'],1,right,['2'],2,0.2507391999997708,0.2,0,AccAcc,29,18,Woman,Right,
36,8,1,0.6345358999997188,['c'],1,left,['9'],5,0.25075660000038624,0.1,0,AccAcc,29,18,Woman,Right,
37,8,1,0.7502643999996508,['n'],1,right,['9'],5,0.16792900000018562,0.1,0,AccAcc,29,18,Woman,Right,
38,8,1,0.6673470000005182,['c'],1,left,['9'],5,0.41849139999976614,0.2,0,AccAcc,29,18,Woman,Right,
39,8,1,0.6164668000001257,['c'],1,left,['9'],5,0.4183701000001747,0.2,0,AccAcc,29,18,Woman,Right,
40,8,1,3.2160626999993838,['c'],0,right,['0'],6,0.15139710000039486,0.4,0,AccAcc,29,18,Woman,Right,
41,8,1,0.28351150000071357,['c'],1,left,['9'],5,0.39991400000053545,0.4,0,AccAcc,29,18,Woman,Right,
42,8,1,1.0175110000000132,['n'],1,right,['9'],5,0.13335450000067794,0.4,0,AccAcc,29,18,Woman,Right,
43,8,1,0.6012059000004228,['c'],1,left,['9'],5,0.21674910000001546,0.4,0,AccAcc,29,18,Woman,Right,
44,8,1,0.6510388999995484,['n'],1,right,['0'],6,0.15081860000009328,0.4,0,AccAcc,29,18,Woman,Right,
45,8,1,1.2166803999998592,['n'],0,left,['0'],6,0.18532779999986815,0.1,0,AccAcc,29,18,Woman,Right,
46,8,1,0.6672103999999308,['c'],1,left,['9'],5,0.2509718999999677,0.4,0,AccAcc,29,18,Woman,Right,
47,8,1,1.0176479000001564,['c'],1,left,['0'],6,0.23449890000028972,0.1,0,AccAcc,29,18,Woman,Right,
48,8,1,0.8004439000005732,['n'],0,left,['9'],5,0.23372549999930925,0.2,0,AccAcc,29,18,Woman,Right,
49,8,1,2.8509618999996746,['n'],0,left,['0'],6,0.03416819999984,0.4,0,AccAcc,29,18,Woman,Right,
50,8,1,0.7666166000008161,['n'],1,right,['0'],6,0.1184904000001552,0.2,0,AccAcc,29,18,Woman,Right,
51,8,1,0.5331371000002036,['n'],1,right,['9'],5,0.13492169999972248,0.2,0,AccAcc,29,18,Woman,Right,
52,8,1,0.4170436000003974,['n'],0,left,['9'],5,0.48518779999994877,0.2,0,AccAcc,29,18,Woman,Right,
53,8,1,0.6845045999998547,['n'],1,right,['9'],5,0.21817079999982525,0.4,0,AccAcc,29,18,Woman,Right,
54,8,1,0.9170248000000356,['c'],0,right,['3'],3,0.28512440000031347,0.4,0,AccAcc,29,18,Woman,Right,
55,8,1,0.6326825000005556,['n'],1,right,['0'],6,0.018107499999132415,0.2,0,AccAcc,29,18,Woman,Right,
56,8,1,0.6330558999998175,['n'],1,right,['9'],5,0.13453389999995125,0.2,0,AccAcc,29,18,Woman,Right,
57,8,1,0.6342101000000184,['n'],1,right,['0'],6,0.2002924999997049,0.1,0,AccAcc,29,18,Woman,Right,
58,8,1,1.4005734000002121,['n'],1,right,['0'],6,0.1510703999992984,0.2,0,AccAcc,29,18,Woman,Right,
59,8,1,3.2322690999999395,['n'],1,right,['0'],6,0.10204340000018419,0.2,0,AccAcc,29,18,Woman,Right,
0,9,1,0.8341760000002978,['c'],0,right,['0'],6,0.184628299999531,0.1,0,FastAcc,29,18,Woman,Right,
1,9,1,0.5016250999997283,['c'],1,left,['0'],6,0.18474799999967217,0.4,0,FastAcc,29,18,Woman,Right,
2,9,1,0.4173641999996107,['c'],0,right,['3'],3,0.7013715000002776,0.4,0,FastAcc,29,18,Woman,Right,
3,9,1,0.6163038000004235,['c'],1,left,['9'],5,0.18576780000057624,0.4,0,FastAcc,29,18,Woman,Right,
4,9,1,0.7005336999991414,['c'],1,left,['9'],5,0.1683685999996669,0.4,0,FastAcc,29,18,Woman,Right,
5,9,1,0.7174562000000151,['n'],1,right,['2'],2,0.28332899999986694,0.4,0,FastAcc,29,18,Woman,Right,
6,9,1,0.584549899999729,['n'],1,right,['9'],5,0.18496070000037435,0.4,0,FastAcc,29,18,Woman,Right,
7,9,1,0.7006925999994564,['c'],1,left,['9'],5,0.1845351000001756,0.2,0,FastAcc,29,18,Woman,Right,
8,9,1,0.9007242999996379,['c'],1,left,['8'],4,0.2515276999993148,0.2,0,FastAcc,29,18,Woman,Right,
9,9,1,0.6510678000004191,['c'],1,left,['8'],4,0.16795300000012503,0.4,0,FastAcc,29,18,Woman,Right,
10,9,1,0.368672599999627,['c'],1,left,['8'],4,0.1513926999996329,0.4,0,FastAcc,29,18,Woman,Right,
11,9,1,0.283859900000607,['c'],1,left,['8'],4,0.11804149999989022,0.4,0,FastAcc,29,18,Woman,Right,
12,9,1,1.2006332999999358,['n'],1,right,['3'],3,0.2681327999998757,0.1,0,FastAcc,29,18,Woman,Right,
13,9,1,0.31715470000017376,['c'],1,left,['8'],4,0.18488849999994272,0.1,0,FastAcc,29,18,Woman,Right,
14,9,1,0.3839351999995415,['c'],0,right,['8'],4,0.23460749999958352,0.1,0,FastAcc,29,18,Woman,Right,
15,9,1,0.5841961999994965,['n'],0,left,['3'],3,0.1844740999995338,0.2,0,FastAcc,29,18,Woman,Right,
16,9,1,0.7006944000004296,['n'],0,left,['8'],4,0.13461439999991853,0.2,0,FastAcc,29,18,Woman,Right,
17,9,1,0.3332383999995727,['n'],0,left,['8'],4,0.18479590000060853,0.2,0,FastAcc,29,18,Woman,Right,
18,9,1,0.6004672000008213,['n'],1,right,['8'],4,0.11819350000041595,0.4,0,FastAcc,29,18,Woman,Right,
19,9,1,0.48390659999950003,['n'],1,right,['8'],4,0.1334351000004972,0.1,0,FastAcc,29,18,Woman,Right,
20,9,1,0.36755450000055134,['n'],1,right,['9'],5,0.1686807999994926,0.1,0,FastAcc,29,18,Woman,Right,
21,9,1,1.0167498000000705,['c'],1,left,['8'],4,0.18485419999979058,0.4,0,FastAcc,29,18,Woman,Right,
22,9,1,0.48299820000011096,['c'],1,left,['8'],4,0.18339689999993425,0.4,0,FastAcc,29,18,Woman,Right,
23,9,1,0.6999986999999237,['n'],1,right,['8'],4,0.1522586000000956,0.1,0,FastAcc,29,18,Woman,Right,
24,9,1,1.1332144999996672,['n'],1,right,['8'],4,0.1509305999998105,0.4,0,FastAcc,29,18,Woman,Right,
25,9,1,0.5838444000000891,['n'],1,right,['8'],4,0.20157250000011118,0.2,0,FastAcc,29,18,Woman,Right,
26,9,1,0.7838525000006484,['c'],1,left,['8'],4,0.18475309999939782,0.4,0,FastAcc,29,18,Woman,Right,
27,9,1,0.6175666999997702,['n'],0,left,['9'],5,0.16823639999984152,0.1,0,FastAcc,29,18,Woman,Right,
28,9,1,0.550691899999947,['c'],0,right,['9'],5,0.2519171000003553,0.1,0,FastAcc,29,18,Woman,Right,
29,9,1,0.7836441999997987,['n'],1,right,['9'],5,0.13468990000001213,0.4,0,FastAcc,29,18,Woman,Right,
30,9,1,0.7163065999993705,['n'],0,left,['9'],5,0.15134190000026138,0.1,0,FastAcc,29,18,Woman,Right,
31,9,1,2.2506603000001633,['n'],1,right,['3'],3,0.23470689999976457,0.1,0,FastAcc,29,18,Woman,Right,
32,9,1,0.9503370000002178,['c'],0,right,['9'],5,0.2674188000000868,0.1,0,FastAcc,29,18,Woman,Right,
33,9,1,0.5339174999999159,['c'],1,left,['9'],5,0.13479370000004565,0.4,0,FastAcc,29,18,Woman,Right,
34,9,1,0.3987017999997988,['c'],1,left,['9'],5,0.35023889999956737,0.4,0,FastAcc,29,18,Woman,Right,
35,9,1,0.6014562000000296,['c'],0,right,['9'],5,0.16806200000064564,0.2,0,FastAcc,29,18,Woman,Right,
36,9,1,0.48369520000051125,['c'],1,left,['0'],6,0.151549299999715,0.2,0,FastAcc,29,18,Woman,Right,
37,9,1,0.36751360000016575,['c'],1,left,['0'],6,0.25107670000033977,0.2,0,FastAcc,29,18,Woman,Right,
38,9,1,0.8324943999996322,['c'],1,left,['0'],6,0.18558140000004641,0.2,0,FastAcc,29,18,Woman,Right,
39,9,1,0.40049830000043585,['c'],0,right,['9'],5,0.21819680000044173,0.2,0,FastAcc,29,18,Woman,Right,
40,9,1,0.20016100000066217,['c'],1,left,['9'],5,0.3179833000003782,0.2,0,FastAcc,29,18,Woman,Right,
41,9,1,2.115918100000272,['c'],0,right,['9'],5,0.15223100000002887,0.2,0,FastAcc,29,18,Woman,Right,
42,9,1,0.5493598000002748,['n'],0,left,['9'],5,0.13475759999982984,0.1,0,FastAcc,29,18,Woman,Right,
43,9,1,0.3838401999992129,['n'],0,left,['9'],5,0.1688560000002326,0.2,0,FastAcc,29,18,Woman,Right,
44,9,1,0.3339779999996608,['n'],1,right,['9'],5,0.201460400000542,0.1,0,FastAcc,29,18,Woman,Right,
45,9,1,0.051562399999966146,['n'],1,right,['9'],5,0.3349425999995219,0.4,0,FastAcc,29,18,Woman,Right,
46,9,1,0.3002276000006532,['n'],1,right,['9'],5,0.11860589999923832,0.1,0,FastAcc,29,18,Woman,Right,
47,9,1,0.3335943000001862,['n'],0,left,['9'],5,0.1337229999999181,0.2,0,FastAcc,29,18,Woman,Right,
48,9,1,0.2671430999998847,['n'],1,right,['9'],5,0.11816040000030625,0.4,0,FastAcc,29,18,Woman,Right,
49,9,1,0.26764450000064244,['n'],1,right,['9'],5,0.08492980000028183,0.1,0,FastAcc,29,18,Woman,Right,
50,9,1,0.2504778000002261,['n'],1,right,['9'],5,0.1341335999995863,0.1,0,FastAcc,29,18,Woman,Right,
51,9,1,0.3181177000005846,['n'],1,right,['9'],5,0.13432840000041324,0.4,0,FastAcc,29,18,Woman,Right,
52,9,1,1.050492000000304,['n'],1,right,['9'],5,1.5346890999999232,0.1,0,FastAcc,29,18,Woman,Right,
53,9,1,0.5668655999998009,['n'],1,right,['9'],5,0.13482420000036655,0.2,0,FastAcc,29,18,Woman,Right,
54,9,1,0.9995866999997816,['c'],1,left,['9'],5,0.13523069999973814,0.2,0,FastAcc,29,18,Woman,Right,
55,9,1,0.5003723999998329,['n'],0,left,['9'],5,0.11738440000044648,0.2,0,FastAcc,29,18,Woman,Right,
56,9,1,1.1168994999998176,['n'],1,right,['3'],3,0.13383559999965655,0.2,0,FastAcc,29,18,Woman,Right,
57,9,1,0.5345522999996319,['n'],0,left,['9'],5,0.06731160000072123,0.2,0,FastAcc,29,18,Woman,Right,
58,9,1,0.41769230000045354,['n'],0,left,['9'],5,0.06800659999953496,0.1,0,FastAcc,29,18,Woman,Right,
59,9,1,0.4338342000000921,['n'],1,right,['9'],5,0.15181370000027528,0.1,0,FastAcc,29,18,Woman,Right,
0,10,1,0.8668824999995195,['n'],1,right,['9'],5,0.15124400000058813,0.1,0,FastFast,29,18,Woman,Right,
1,10,1,0.26634480000029725,['n'],0,left,['9'],5,0.13499589999992168,0.1,0,FastFast,29,18,Woman,Right,
2,10,1,0.11708080000062182,['n'],1,right,['9'],5,0.08343619999959628,0.4,0,FastFast,29,18,Woman,Right,
3,10,1,0.40219340000021475,['n'],1,right,['9'],5,0.18370349999986502,0.1,0,FastFast,29,18,Woman,Right,
4,10,1,0.7510400000001027,['n'],0,left,['0'],6,0.11841679999997723,0.1,0,FastFast,29,18,Woman,Right,
5,10,1,0.3504563999995298,['n'],0,left,['9'],5,0.23385899999993853,0.2,0,FastFast,29,18,Woman,Right,
6,10,1,0.7177046000006158,['n'],1,right,['9'],5,0.13507100000060746,0.4,0,FastFast,29,18,Woman,Right,
7,10,1,0.5334825999998429,['c'],1,left,['9'],5,0.2508244000000559,0.1,0,FastFast,29,18,Woman,Right,
8,10,1,0.4817369000002145,['c'],1,left,['9'],5,0.1344730000000709,0.1,0,FastFast,29,18,Woman,Right,
9,10,1,0.5669415000002118,['n'],1,right,['9'],5,0.16758959999970102,0.1,0,FastFast,29,18,Woman,Right,
10,10,1,0.33347329999924114,['c'],1,left,['9'],5,0.20118030000048748,0.2,0,FastFast,29,18,Woman,Right,
11,10,1,0.5178575999998429,['c'],0,right,['9'],5,0.2014963000001444,0.2,0,FastFast,29,18,Woman,Right,
12,10,1,0.6338390999999319,['n'],1,right,['9'],5,0.1348528999988048,0.1,0,FastFast,29,18,Woman,Right,
13,10,1,0.7833778000003804,['n'],1,right,['9'],5,0.13484410000091884,0.4,0,FastFast,29,18,Woman,Right,
14,10,1,0.5165080999995553,['n'],0,left,['9'],5,0.1348496000009618,0.1,0,FastFast,29,18,Woman,Right,
15,10,1,0.532974199999444,['n'],0,left,['0'],6,0.10131430000001274,0.1,0,FastFast,29,18,Woman,Right,
16,10,1,0.8664497000008851,['n'],1,right,['0'],6,0.13519699999960721,0.1,0,FastFast,29,18,Woman,Right,
17,10,1,0.7324831999994785,['n'],1,right,['0'],6,0.08581249999951979,0.2,0,FastFast,29,18,Woman,Right,
18,10,1,0.7665420000012091,['n'],1,right,['0'],6,0.10139720000006491,0.1,0,FastFast,29,18,Woman,Right,
19,10,1,0.7497148999991623,['n'],0,left,['9'],5,0.1182063999985985,0.4,0,FastFast,29,18,Woman,Right,
20,10,1,0.6672349000000395,['n'],1,right,['9'],5,0.08327020000069751,0.2,0,FastFast,29,18,Woman,Right,
21,10,1,0.9841268000000127,['c'],1,left,['9'],5,0.08361089999925753,0.4,0,FastFast,29,18,Woman,Right,
22,10,1,0.8844374000000244,['n'],1,right,['9'],5,0.1015322000002925,0.2,0,FastFast,29,18,Woman,Right,
23,10,1,0.6343252000006032,['n'],1,right,['9'],5,0.1184317999995983,0.1,0,FastFast,29,18,Woman,Right,
24,10,1,0.3997036000000662,['c'],1,left,['9'],5,0.08451109999987239,0.4,0,FastFast,29,18,Woman,Right,
25,10,1,0.7160129000003508,['c'],0,right,['9'],5,0.16787810000096215,0.4,0,FastFast,29,18,Woman,Right,
26,10,1,0.6171444999999949,['c'],0,right,['9'],5,0.16824180000003253,0.2,0,FastFast,29,18,Woman,Right,
27,10,1,0.5171324000002642,['n'],0,left,['9'],5,0.13487419999910344,0.1,0,FastFast,29,18,Woman,Right,
28,10,1,0.25001940000038303,['n'],1,right,['9'],5,0.16752810000070895,0.2,0,FastFast,29,18,Woman,Right,
29,10,1,0.1830485000009503,['n'],0,left,['9'],5,0.152438400000392,0.4,0,FastFast,29,18,Woman,Right,
30,10,1,0.1996006999997917,['c'],1,left,['2'],2,0.1680949999990844,0.1,0,FastFast,29,18,Woman,Right,
31,10,1,0.35040180000032706,['n'],1,right,['9'],5,0.3014251000004151,0.4,0,FastFast,29,18,Woman,Right,
32,10,1,2.1168588000000454,['n'],0,left,['0'],6,0.08542910000142001,0.1,0,FastFast,29,18,Woman,Right,
33,10,1,0.5174237999999605,['n'],1,right,['9'],5,0.10168909999993048,0.2,0,FastFast,29,18,Woman,Right,
34,10,1,0.5673186000003625,['n'],0,left,['0'],6,0.018139499999961117,0.4,0,FastFast,29,18,Woman,Right,
35,10,1,0.4004672000010032,['n'],0,left,['9'],5,0.034258300000146846,0.4,0,FastFast,29,18,Woman,Right,
36,10,1,1.399654200000441,['n'],1,right,['9'],5,0.08439120000002731,0.2,0,FastFast,29,18,Woman,Right,
37,10,1,0.7171733999985008,['n'],1,right,['9'],5,0.051165700000638026,0.1,0,FastFast,29,18,Woman,Right,
38,10,1,0.3174014999985957,['n'],0,left,['9'],5,0.10152460000063002,0.2,0,FastFast,29,18,Woman,Right,
39,10,1,0.31712529999822436,['n'],1,right,['9'],5,2.4183615000001737,0.2,0,FastFast,29,18,Woman,Right,
40,10,1,0.6845128000004479,['c'],1,left,['9'],5,0.10223740000037651,0.4,0,FastFast,29,18,Woman,Right,
41,10,1,0.383328400001119,['n'],1,right,['9'],5,0.10130370000115363,0.4,0,FastFast,29,18,Woman,Right,
42,10,1,0.2838929999998072,['c'],0,right,['9'],5,0.10129290000077162,0.4,0,FastFast,29,18,Woman,Right,
43,10,1,0.40040699999917706,['c'],1,left,['8'],4,0.3843078999998397,0.4,0,FastFast,29,18,Woman,Right,
44,10,1,0.6509960999992472,['n'],0,left,['0'],6,0.1021443999998155,0.2,0,FastFast,29,18,Woman,Right,
45,10,1,0.48399369999970077,['c'],1,left,['9'],5,0.20168509999894013,0.1,0,FastFast,29,18,Woman,Right,
46,10,1,0.4005789000002551,['n'],0,left,['0'],6,0.1350603000009869,0.2,0,FastFast,29,18,Woman,Right,
47,10,1,0.33330860000023677,['n'],1,right,['0'],6,0.11802170000009937,0.4,0,FastFast,29,18,Woman,Right,
48,10,1,0.5008276999997179,['c'],1,left,['9'],5,0.13486310000007506,0.2,0,FastFast,29,18,Woman,Right,
49,10,1,0.5494333000006009,['n'],0,left,"['0', '9']",6,0.13514040000154637,0.1,0,FastFast,29,18,Woman,Right,
50,10,1,0.5675828000003094,['n'],1,right,['9'],5,0.11693589999958931,0.2,0,FastFast,29,18,Woman,Right,
51,10,1,0.6835831999997026,['c'],1,left,['9'],5,0.1326920000010432,0.4,0,FastFast,29,18,Woman,Right,
52,10,1,0.35129260000030627,['n'],1,right,['0'],6,0.13519230000019888,0.2,0,FastFast,29,18,Woman,Right,
53,10,1,0.715906499999619,['c'],0,right,['0'],6,0.11872020000009798,0.1,0,FastFast,29,18,Woman,Right,
54,10,1,0.9498578999991878,['n'],1,right,['0'],6,0.13563330000033602,0.4,0,FastFast,29,18,Woman,Right,
55,10,1,0.433949099999154,['c'],1,left,['0'],6,0.11814459999914106,0.4,0,FastFast,29,18,Woman,Right,
56,10,1,0.41662990000077116,['n'],0,left,['0'],6,0.13482049999947776,0.2,0,FastFast,29,18,Woman,Right,
57,10,1,0.3334888999997929,['c'],1,left,['0'],6,0.21812540000064473,0.2,0,FastFast,29,18,Woman,Right,
58,10,1,0.3675239000003785,['n'],1,right,['9'],5,0.13459700000021257,0.4,0,FastFast,29,18,Woman,Right,
59,10,1,1.6502973999995447,['c'],1,left,['9'],5,0.35121819999949366,0.2,0,FastFast,29,18,Woman,Right,
0,11,1,1.734588999999687,['n'],1,right,['9'],5,0.13480619999972987,0.4,0,AccFast,29,18,Woman,Right,
1,11,1,0.2497603000010713,['n'],0,left,['9'],5,0.1179656000003888,0.2,0,AccFast,29,18,Woman,Right,
2,11,1,0.5338192999988678,['n'],0,left,['9'],5,0.06759580000107235,0.2,0,AccFast,29,18,Woman,Right,
3,11,1,0.784440800000084,['c'],1,left,['3'],3,0.05082279999987804,0.4,0,AccFast,29,18,Woman,Right,
4,11,1,0.8678003999993962,['n'],1,right,['9'],5,0.10048769999957585,0.4,0,AccFast,29,18,Woman,Right,
5,11,1,0.5832319000001007,['c'],0,right,['9'],5,0.1670787000002747,0.4,0,AccFast,29,18,Woman,Right,
6,11,1,0.4168416000011348,['n'],1,right,['9'],5,0.10163869999996678,0.2,0,AccFast,29,18,Woman,Right,
7,11,1,0.633413899999141,['c'],0,right,['9'],5,0.10158539999974892,0.2,0,AccFast,29,18,Woman,Right,
8,11,1,0.533689100000629,['c'],0,right,['9'],5,0.16720779999923252,0.1,0,AccFast,29,18,Woman,Right,
9,11,1,0.38393340000038734,['c'],1,left,['9'],5,0.18501029999970342,0.2,0,AccFast,29,18,Woman,Right,
10,11,1,0.3330839999998716,['c'],1,left,['9'],5,0.2513574000004155,0.1,0,AccFast,29,18,Woman,Right,
11,11,1,4.300233500000104,['c'],1,left,['8'],4,0.1177891000006639,0.1,0,AccFast,29,18,Woman,Right,
12,11,1,0.4832645999995293,['n'],0,left,['0'],6,0.18477940000047965,0.2,0,AccFast,29,18,Woman,Right,
13,11,1,0.6505059999999503,['n'],0,left,['9'],5,0.28354189999845403,0.2,0,AccFast,29,18,Woman,Right,
14,11,1,0.5844625000008818,['c'],1,left,['0'],6,0.16809730000022682,0.4,0,AccFast,29,18,Woman,Right,
15,11,1,0.8509541999992507,['c'],1,left,['0'],6,0.11827699999957986,0.1,0,AccFast,29,18,Woman,Right,
16,11,1,0.4169599999986531,['c'],0,right,['9'],5,0.18399109999882057,0.2,0,AccFast,29,18,Woman,Right,
17,11,1,4.082802400000219,['c'],1,left,['0'],6,0.750448900000265,0.1,0,AccFast,29,18,Woman,Right,
18,11,1,0.36775670000133687,['n'],0,left,['0'],6,0.3847742999987531,0.4,0,AccFast,29,18,Woman,Right,
19,11,1,1.1170740999987174,['c'],0,right,['0'],6,0.183345499999632,0.4,0,AccFast,29,18,Woman,Right,
20,11,1,0.5996892999992269,['n'],1,right,"['0', '9']",6,0.15183020000040415,0.2,0,AccFast,29,18,Woman,Right,
21,11,1,0.6005476999998791,['c'],1,left,"['3', '2']",3,0.11878780000006373,0.4,0,AccFast,29,18,Woman,Right,
22,11,1,0.7842734999994718,['n'],1,right,['9'],5,0.11847710000074585,0.1,0,AccFast,29,18,Woman,Right,
23,11,1,0.6178780999998708,['n'],0,left,['8'],4,0.11868259999937436,0.2,0,AccFast,29,18,Woman,Right,
24,11,1,0.9336827000006451,['c'],1,left,['0'],6,0.14983800000118208,0.2,0,AccFast,29,18,Woman,Right,
25,11,1,0.5334270000003016,['c'],1,left,['9'],5,0.2024132999995345,0.4,0,AccFast,29,18,Woman,Right,
26,11,1,0.4173811000000569,['c'],1,left,['9'],5,0.1503720999990037,0.1,0,AccFast,29,18,Woman,Right,
27,11,1,0.35009139999965555,['n'],0,left,['9'],5,0.1682658999998239,0.2,0,AccFast,29,18,Woman,Right,
28,11,1,1.0673182999998971,['n'],1,right,['8'],4,0.18499899999915215,0.1,0,AccFast,29,18,Woman,Right,
29,11,1,1.083915799999886,['n'],1,right,['9'],5,0.051195199999710894,0.2,0,AccFast,29,18,Woman,Right,
30,11,1,1.183604000001651,['n'],1,right,['8'],4,0.11804130000018631,0.1,0,AccFast,29,18,Woman,Right,
31,11,1,0.3505768999984866,['n'],1,right,['9'],5,0.11810929999955988,0.1,0,AccFast,29,18,Woman,Right,
32,11,1,0.46720639999875857,['n'],1,right,"['3', '2']",3,3.1519115999999485,0.4,0,AccFast,29,18,Woman,Right,
33,11,1,0.4676225000002887,['n'],1,right,['9'],5,0.1353385000002163,0.4,0,AccFast,29,18,Woman,Right,
34,11,1,0.4848770999997214,['c'],0,right,['1'],1,0.5010433999996167,0.4,0,AccFast,29,18,Woman,Right,
35,11,1,0.45046690000162926,['c'],0,right,['3'],3,0.3348999999998341,0.4,0,AccFast,29,18,Woman,Right,
36,11,1,0.5170562000002974,['n'],0,left,['9'],5,0.15120739999838406,0.1,0,AccFast,29,18,Woman,Right,
37,11,1,0.8671297999990202,['n'],0,left,['3'],3,0.1180915000004461,0.2,0,AccFast,29,18,Woman,Right,
38,11,1,0.9174829000003228,['c'],1,left,['9'],5,0.1683565000003,0.2,0,AccFast,29,18,Woman,Right,
39,11,1,0.7167417999989993,['c'],0,right,['9'],5,1.9849131999999372,0.1,0,AccFast,29,18,Woman,Right,
40,11,1,0.433475299998463,['n'],1,right,['9'],5,0.1014113000001089,0.4,0,AccFast,29,18,Woman,Right,
41,11,1,0.367306500000268,['n'],1,right,['9'],5,0.03489609999996901,0.2,0,AccFast,29,18,Woman,Right,
42,11,1,0.49995659999876807,['n'],0,left,['9'],5,3.501694500000667,0.1,0,AccFast,29,18,Woman,Right,
43,11,1,0.8830538999991404,['n'],0,left,['3'],3,0.08470540000053006,0.1,0,AccFast,29,18,Woman,Right,
44,11,1,0.616935599999124,['n'],1,right,['3'],3,0.16841810000005353,0.4,0,AccFast,29,18,Woman,Right,
45,11,1,1.5334210999990319,['n'],0,left,['9'],5,0.7847010000004957,0.4,0,AccFast,29,18,Woman,Right,
46,11,1,2.2333943999983603,['n'],1,right,['9'],5,0.03481079999983194,0.4,0,AccFast,29,18,Woman,Right,
47,11,1,0.8501039999991917,['n'],0,left,['9'],5,0.017852499999207794,0.4,0,AccFast,29,18,Woman,Right,
48,11,1,4.734049000000596,['n'],1,right,['9'],5,1.7512012000006507,0.4,0,AccFast,29,18,Woman,Right,
49,11,1,0.28495850000035716,['n'],1,right,['9'],5,0.6515220000001136,0.2,0,AccFast,29,18,Woman,Right,
50,11,1,4.2162883000000875,['n'],1,right,"['0', '9']",6,0.8023136000010709,0.1,0,AccFast,29,18,Woman,Right,
51,11,1,0.5496725000011793,['n'],1,right,['1'],1,0.73507360000076,0.2,0,AccFast,29,18,Woman,Right,
52,11,1,0.03201489999992191,['n'],0,left,['9'],5,3.41782079999939,0.1,0,AccFast,29,18,Woman,Right,
53,11,1,0.7508827000001475,['c'],1,left,['9'],5,0.1182384000003367,0.1,0,AccFast,29,18,Woman,Right,
54,11,1,0.6679454000004625,['c'],1,left,['9'],5,0.1681176999991294,0.1,0,AccFast,29,18,Woman,Right,
55,11,1,0.7329268000012235,['c'],0,right,['9'],5,0.13504470000043511,0.2,0,AccFast,29,18,Woman,Right,
56,11,1,0.9673976000012772,['n'],0,left,['9'],5,0.10153729999910865,0.1,0,AccFast,29,18,Woman,Right,
57,11,1,0.9998304000000644,['c'],0,right,['9'],5,0.13486990000092192,0.1,0,AccFast,29,18,Woman,Right,
58,11,1,3.6659896000001027,['c'],0,right,['9'],5,0.03502949999892735,0.2,0,AccFast,29,18,Woman,Right,
59,11,1,0.3672360000000481,['n'],0,left,['9'],5,3.2357108000014705,0.4,0,AccFast,29,18,Woman,Right,
0,12,1,1.0009730999991007,['n'],1,right,['9'],5,0.15028220000021975,0.4,0,AccAcc,29,18,Woman,Right,
1,12,1,1.0506685000000289,['c'],0,right,['9'],5,0.18477570000140986,0.1,0,AccAcc,29,18,Woman,Right,
2,12,1,1.9334157000012056,['c'],0,right,"['8', '9']",4,0.9685095999993791,0.2,0,AccAcc,29,18,Woman,Right,
3,12,1,0.7331124000011187,['n'],1,right,['8'],4,0.13479189999998198,0.4,0,AccAcc,29,18,Woman,Right,
4,12,1,0.517280899999605,['n'],0,left,['9'],5,0.05086889999984123,0.1,0,AccAcc,29,18,Woman,Right,
5,12,1,0.466464500001166,['n'],1,right,['9'],5,0.017670300001555006,0.4,0,AccAcc,29,18,Woman,Right,
6,12,1,1.050061400001141,['c'],0,right,['2'],2,0.11845259999972768,0.1,0,AccAcc,29,18,Woman,Right,
7,12,1,0.9495404999997845,['c'],1,left,['9'],5,0.13486759999977949,0.2,0,AccAcc,29,18,Woman,Right,
8,12,1,0.8997280999992654,['c'],1,left,['8'],4,0.13519079999969108,0.4,0,AccAcc,29,18,Woman,Right,
9,12,1,0.8832589000012376,['n'],1,right,['2'],2,0.06828800000039337,0.1,0,AccAcc,29,18,Woman,Right,
10,12,1,0.883583599999838,['c'],0,right,['9'],5,0.11795960000017658,0.2,0,AccAcc,29,18,Woman,Right,
11,12,1,1.1683515999993688,['n'],1,right,['9'],5,1.535717200000363,0.4,0,AccAcc,29,18,Woman,Right,
12,12,1,1.317570600000181,['c'],1,left,['9'],5,0.11828619999869261,0.1,0,AccAcc,29,18,Woman,Right,
13,12,1,0.6500147999995534,['c'],1,left,['9'],5,0.05149410000012722,0.4,0,AccAcc,29,18,Woman,Right,
14,12,1,0.9827650999995967,['c'],1,left,['9'],5,0.1688125000000582,0.2,0,AccAcc,29,18,Woman,Right,
15,12,1,0.767687699999442,['c'],0,right,['9'],5,0.15101860000140732,0.2,0,AccAcc,29,18,Woman,Right,
16,12,1,1.351916199999323,['c'],0,right,['9'],5,1.3680347999998048,0.1,0,AccAcc,29,18,Woman,Right,
17,12,1,0.6837768999994296,['n'],1,right,['9'],5,0.13445390000015323,0.1,0,AccAcc,29,18,Woman,Right,
18,12,1,1.184251700000459,['c'],1,left,['9'],5,0.15175260000069102,0.4,0,AccAcc,29,18,Woman,Right,
19,12,1,0.7171247000005678,['n'],1,right,['0'],6,0.1845932999985962,0.2,0,AccAcc,29,18,Woman,Right,
20,12,1,1.0998517999996693,['n'],0,left,['0'],6,2.1685202999997273,0.2,0,AccAcc,29,18,Woman,Right,
21,12,1,0.7669418000004953,['c'],1,left,['9'],5,0.08494369999971241,0.1,0,AccAcc,29,18,Woman,Right,
22,12,1,0.5670446000003722,['n'],0,left,['9'],5,0.1351715000000695,0.4,0,AccAcc,29,18,Woman,Right,
23,12,1,1.7659819000000425,['c'],1,left,['2'],2,0.102044899998873,0.2,0,AccAcc,29,18,Woman,Right,
24,12,1,0.9171108999998978,['n'],0,left,['9'],5,0.15074970000023313,0.2,0,AccAcc,29,18,Woman,Right,
25,12,1,5.016048400000727,x,-99,right,none,-99,-99,0.2,1,AccAcc,29,18,Woman,Right,
26,12,1,0.7826977999993687,['c'],0,right,['9'],5,0.11853849999897648,0.2,0,AccAcc,29,18,Woman,Right,
27,12,1,0.6835105999998632,['c'],1,left,['9'],5,0.1681603000015457,0.2,0,AccAcc,29,18,Woman,Right,
28,12,1,1.0499779000001581,['n'],1,right,['9'],5,0.15211190000081842,0.2,0,AccAcc,29,18,Woman,Right,
29,12,1,0.28284139999959734,['c'],0,right,['9'],5,0.11891309999919031,0.4,0,AccAcc,29,18,Woman,Right,
30,12,1,0.21740869999848655,['c'],0,right,['0'],6,0.1674713000011252,0.1,0,AccAcc,29,18,Woman,Right,
31,12,1,1.8675917000000481,['c'],0,right,['9'],5,0.21713879999879282,0.4,0,AccAcc,29,18,Woman,Right,
32,12,1,1.31699959999969,['n'],1,right,['9'],5,0.18411059999925783,0.1,0,AccAcc,29,18,Woman,Right,
33,12,1,2.934184699999605,['c'],0,right,['8'],4,0.16805240000030608,0.2,0,AccAcc,29,18,Woman,Right,
34,12,1,0.9670576000007713,['n'],0,left,['0'],6,0.16797430000042368,0.1,0,AccAcc,29,18,Woman,Right,
35,12,1,0.7162238000000798,['n'],1,right,['9'],5,0.05140980000032869,0.4,0,AccAcc,29,18,Woman,Right,
36,12,1,0.8337910999998712,['c'],1,left,['9'],5,0.16745369999989634,0.2,0,AccAcc,29,18,Woman,Right,
37,12,1,1.1833690000003116,['c'],1,left,['9'],5,0.1189431999991939,0.4,0,AccAcc,29,18,Woman,Right,
38,12,1,1.2820969999993395,['c'],0,right,['9'],5,0.13425869999991846,0.1,0,AccAcc,29,18,Woman,Right,
39,12,1,0.9676469999994879,['n'],1,right,['0'],6,0.13495789999979024,0.2,0,AccAcc,29,18,Woman,Right,
40,12,1,0.8829529999984516,['c'],1,left,['0'],6,0.1678767000012158,0.4,0,AccAcc,29,18,Woman,Right,
41,12,1,0.7669812999993155,['n'],1,right,['9'],5,0.1679201999995712,0.1,0,AccAcc,29,18,Woman,Right,
42,12,1,0.9340563000005204,['c'],1,left,['0'],6,0.20101960000101826,0.1,0,AccAcc,29,18,Woman,Right,
43,12,1,0.7674229000003834,['c'],0,right,['0'],6,0.10180720000062138,0.2,0,AccAcc,29,18,Woman,Right,
44,12,1,0.7000840000000608,['c'],1,left,['0'],6,0.1506190999989485,0.1,0,AccAcc,29,18,Woman,Right,
45,12,1,0.5000219000012294,['n'],1,right,['9'],5,0.11819409999952768,0.4,0,AccAcc,29,18,Woman,Right,
46,12,1,1.000888099999429,['c'],1,left,['0'],6,0.18537719999949331,0.2,0,AccAcc,29,18,Woman,Right,
47,12,1,2.931531799998993,['c'],1,left,['0'],6,0.08395190000010189,0.1,0,AccAcc,29,18,Woman,Right,
48,12,1,0.9501160999989224,['c'],1,left,['0'],6,0.15175730000009935,0.4,0,AccAcc,29,18,Woman,Right,
49,12,1,1.1993906000006973,['c'],0,right,['9'],5,0.15164480000021285,0.1,0,AccAcc,29,18,Woman,Right,
50,12,1,0.5331059000000096,['c'],0,right,['8'],4,0.16671300000052724,0.2,0,AccAcc,29,18,Woman,Right,
51,12,1,1.3009922000001097,['c'],0,right,['0'],6,0.1852113000004465,0.2,0,AccAcc,29,18,Woman,Right,
52,12,1,1.1338294999986829,['c'],1,left,['9'],5,0.16845410000132688,0.1,0,AccAcc,29,18,Woman,Right,
53,12,1,1.1830363999997644,['c'],1,left,['9'],5,0.18580760000077134,0.1,0,AccAcc,29,18,Woman,Right,
54,12,1,0.8340348000001541,['c'],1,left,['0'],6,0.16686200000003737,0.4,0,AccAcc,29,18,Woman,Right,
55,12,1,0.8674487999996927,['c'],1,left,['9'],5,0.16796880000038072,0.4,0,AccAcc,29,18,Woman,Right,
56,12,1,0.08347990000038408,['c'],1,left,['0'],6,0.23476019999907294,0.1,0,AccAcc,29,18,Woman,Right,
57,12,1,0.3673603999995976,['c'],1,left,['0'],6,0.20192359999964538,0.4,0,AccAcc,29,18,Woman,Right,
58,12,1,0.4682385999985854,['c'],1,left,['9'],5,0.16838950000055775,0.4,0,AccAcc,29,18,Woman,Right,
59,12,1,0.6339940999987448,['c'],1,left,['9'],5,0.13523109999914595,0.4,0,AccAcc,29,18,Woman,Right,
0,13,1,1.2837988999999652,['c'],1,left,['9'],5,0.20067410000046948,0.4,0,FastAcc,29,18,Woman,Right,
1,13,1,0.7514724000011483,['c'],1,left,['9'],5,0.1348524000004545,0.1,0,FastAcc,29,18,Woman,Right,
2,13,1,0.7669813000011345,['c'],1,left,['9'],5,0.15136309999979858,0.1,0,FastAcc,29,18,Woman,Right,
3,13,1,0.8670128999983717,['c'],1,left,['9'],5,0.15012280000155442,0.2,0,FastAcc,29,18,Woman,Right,
4,13,1,1.1010200000000623,['c'],1,left,['9'],5,0.11856139999872539,0.1,0,FastAcc,29,18,Woman,Right,
5,13,1,1.6338109000007535,['c'],0,right,['3'],3,0.5679801999995107,0.1,0,FastAcc,29,18,Woman,Right,
6,13,1,0.9496048000000883,['n'],0,left,['9'],5,1.4332054999995307,0.2,0,FastAcc,29,18,Woman,Right,
7,13,1,1.3504611000007571,['c'],0,right,['9'],5,0.15025090000017371,0.2,0,FastAcc,29,18,Woman,Right,
8,13,1,0.5844797999998264,['c'],1,left,['9'],5,0.1679201999995712,0.1,0,FastAcc,29,18,Woman,Right,
9,13,1,0.5670136999997339,['n'],1,right,['9'],5,0.1348338000007061,0.4,0,FastAcc,29,18,Woman,Right,
10,13,1,0.733880699999645,['c'],1,left,['9'],5,0.11798650000127964,0.4,0,FastAcc,29,18,Woman,Right,
11,13,1,0.7161301999985881,['n'],0,left,['9'],5,0.1356513000009727,0.1,0,FastAcc,29,18,Woman,Right,
12,13,1,0.61710420000054,['n'],1,right,['9'],5,0.11800199999925098,0.1,0,FastAcc,29,18,Woman,Right,
13,13,1,0.65041999999994,['n'],1,right,['9'],5,0.0846598999996786,0.4,0,FastAcc,29,18,Woman,Right,
14,13,1,0.8506555000003573,['c'],0,right,['9'],5,0.1499764000000141,0.1,0,FastAcc,29,18,Woman,Right,
15,13,1,0.9842071000002761,['n'],1,right,['8'],4,0.13474010000027192,0.2,0,FastAcc,29,18,Woman,Right,
16,13,1,1.3169804999997723,['c'],1,left,['8'],4,0.13470340000094438,0.4,0,FastAcc,29,18,Woman,Right,
17,13,1,1.3815529000003153,['c'],1,left,['8'],4,0.21862859999964712,0.1,0,FastAcc,29,18,Woman,Right,
18,13,1,3.9658118999996077,['c'],1,left,['8'],4,0.08400710000023537,0.2,0,FastAcc,29,18,Woman,Right,
19,13,1,0.399486700000125,['c'],0,right,"['3', '2']",3,0.018705599999520928,0.4,0,FastAcc,29,18,Woman,Right,
20,13,1,0.6337849999999889,['c'],0,right,['2'],2,0.05174369999986084,0.4,0,FastAcc,29,18,Woman,Right,
21,13,1,0.9336316000008082,['c'],1,left,['2'],2,0.16809420000026876,0.4,0,FastAcc,29,18,Woman,Right,
22,13,1,1.0996818999992684,['n'],1,right,['9'],5,0.08479330000045593,0.1,0,FastAcc,29,18,Woman,Right,
23,13,1,1.0330534000004263,['c'],0,right,['9'],5,0.15181589999883727,0.2,0,FastAcc,29,18,Woman,Right,
24,13,1,0.9836811999994097,['n'],1,right,['1'],1,2.0013330999991013,0.2,0,FastAcc,29,18,Woman,Right,
25,13,1,0.7674440000009781,['c'],1,left,['9'],5,0.10036269999909564,0.4,0,FastAcc,29,18,Woman,Right,
26,13,1,3.250922899998841,['c'],0,right,['1'],1,0.05149309999978868,0.1,0,FastAcc,29,18,Woman,Right,
27,13,1,2.1167167000003246,['c'],0,right,['8'],4,1.0187744999984716,0.2,0,FastAcc,29,18,Woman,Right,
28,13,1,0.7833519999985583,['c'],1,left,['9'],5,0.15209890000005544,0.4,0,FastAcc,29,18,Woman,Right,
29,13,1,3.7502799999983836,['c'],0,right,['9'],5,0.2858840000008058,0.2,0,FastAcc,29,18,Woman,Right,
30,13,1,0.31767410000065865,"['n', 'c']",0,left,"['0', '9']",6,0.1686344999998255,0.4,0,FastAcc,29,18,Woman,Right,
31,13,1,1.234321899999486,['c'],0,right,['9'],5,1.2176761999999144,0.1,0,FastAcc,29,18,Woman,Right,
32,13,1,1.0001596999991307,['c'],1,left,['9'],5,0.2339233000002423,0.4,0,FastAcc,29,18,Woman,Right,
33,13,1,2.9819477000000916,['c'],1,left,['9'],5,0.20103039999958128,0.2,0,FastAcc,29,18,Woman,Right,
34,13,1,0.48508439999932307,['n'],1,right,"['0', '9']",6,0.152180999999473,0.2,0,FastAcc,29,18,Woman,Right,
35,13,1,0.716572699999233,['c'],1,left,['9'],5,0.05142639999940002,0.1,0,FastAcc,29,18,Woman,Right,
36,13,1,2.0174688000006427,['c'],0,right,['0'],6,0.034790600000633276,0.4,0,FastAcc,29,18,Woman,Right,
37,13,1,0.7827489000010246,['c'],0,right,['9'],5,0.1855202000006102,0.1,0,FastAcc,29,18,Woman,Right,
38,13,1,0.9006766000002244,['c'],1,left,['8'],4,2.9340707999999722,0.4,0,FastAcc,29,18,Woman,Right,
39,13,1,1.5501786999993783,['n'],1,right,['9'],5,0.21805719999974826,0.1,0,FastAcc,29,18,Woman,Right,
40,13,1,1.1502071999984764,['c'],1,left,['0'],6,0.18471729999873787,0.2,0,FastAcc,29,18,Woman,Right,
41,13,1,5.016208499999266,x,-99,right,none,-99,-99,0.2,1,FastAcc,29,18,Woman,Right,
42,13,1,0.9840574999998353,['n'],0,left,"['0', '9']",6,0.11874989999887475,0.2,0,FastAcc,29,18,Woman,Right,
43,13,1,0.7170862000002671,['c'],0,right,['9'],5,0.0837506999996549,0.4,0,FastAcc,29,18,Woman,Right,
44,13,1,0.29967459999897983,['n'],1,right,['9'],5,0.16829499999948894,0.2,0,FastAcc,29,18,Woman,Right,
45,13,1,1.217606899999737,['c'],1,left,['9'],5,1.0347922000000835,0.4,0,FastAcc,29,18,Woman,Right,
46,13,1,0.5670117999998183,['c'],0,right,['9'],5,0.6513462000002619,0.2,0,FastAcc,29,18,Woman,Right,
47,13,1,5.016547499999433,x,-99,right,none,-99,-99,0.1,1,FastAcc,29,18,Woman,Right,
48,13,1,0.734744800000044,['n'],1,right,['9'],5,0.15137849999882746,0.2,0,FastAcc,29,18,Woman,Right,
49,13,1,0.7838318000012805,['n'],0,left,['8'],4,0.13523299999906158,0.2,0,FastAcc,29,18,Woman,Right,
50,13,1,0.9336350999983551,['c'],1,left,['9'],5,0.1181799999994837,0.1,0,FastAcc,29,18,Woman,Right,
51,13,1,0.751013500001136,['n'],1,right,['9'],5,0.13425180000012915,0.4,0,FastAcc,29,18,Woman,Right,
52,13,1,0.7997596000004705,['n'],0,left,['9'],5,0.11809400000129244,0.1,0,FastAcc,29,18,Woman,Right,
53,13,1,3.000972699999693,['n'],1,right,['9'],5,1.4001567999985127,0.4,0,FastAcc,29,18,Woman,Right,
54,13,1,2.233766100000139,['c'],1,left,['8'],4,0.051079099999697064,0.2,0,FastAcc,29,18,Woman,Right,
55,13,1,0.6838633999996091,['c'],1,left,['9'],5,0.08539500000006228,0.4,0,FastAcc,29,18,Woman,Right,
56,13,1,0.6844378000005236,['c'],0,right,['0'],6,0.1347342999997636,0.2,0,FastAcc,29,18,Woman,Right,
57,13,1,0.667097500001546,['c'],1,left,['9'],5,0.26809989999856043,0.1,0,FastAcc,29,18,Woman,Right,
58,13,1,1.3332085000001825,['c'],1,left,['0'],6,0.035276999999041436,0.4,0,FastAcc,29,18,Woman,Right,
59,13,1,0.7659641000009287,['c'],0,right,['8'],4,0.1687980000006064,0.1,0,FastAcc,29,18,Woman,Right,
0,14,1,0.5177223999999114,['n'],0,left,['9'],5,0.1182652000006783,0.2,0,FastFast,29,18,Woman,Right,
1,14,1,0.6007236999994348,['c'],1,left,['9'],5,0.1674130999999761,0.4,0,FastFast,29,18,Woman,Right,
2,14,1,0.9006755999998859,['c'],0,right,['3'],3,0.6847005999989051,0.1,0,FastFast,29,18,Woman,Right,
3,14,1,0.8004669000001741,['n'],1,right,['9'],5,0.11805960000128835,0.2,0,FastFast,29,18,Woman,Right,
4,14,1,0.48431019999952696,['n'],1,right,['9'],5,0.034711399999650894,0.1,0,FastFast,29,18,Woman,Right,
5,14,1,0.6177436999987549,['c'],1,left,['9'],5,0.1186913999990793,0.1,0,FastFast,29,18,Woman,Right,
6,14,1,1.717163299999811,['c'],1,left,['9'],5,0.1675943999998708,0.2,0,FastFast,29,18,Woman,Right,
7,14,1,4.033813100000771,['c'],1,left,['9'],5,0.1516300000002957,0.1,0,FastFast,29,18,Woman,Right,
8,14,1,0.6176875999990443,['c'],1,left,['9'],5,0.10163760000068578,0.4,0,FastFast,29,18,Woman,Right,
9,14,1,1.2991846000004443,['c'],1,left,['9'],5,0.10151539999969827,0.1,0,FastFast,29,18,Woman,Right,
10,14,1,1.183548700000756,['n'],0,left,['9'],5,0.11738150000019232,0.2,0,FastFast,29,18,Woman,Right,
11,14,1,1.2004786000015883,['n'],0,left,['9'],5,0.10004320000007283,0.1,0,FastFast,29,18,Woman,Right,
12,14,1,0.9176877999998396,['c'],1,left,['9'],5,0.13455489999978454,0.2,0,FastFast,29,18,Woman,Right,
13,14,1,1.1671625999988464,['n'],0,left,['9'],5,0.083889999999883,0.2,0,FastFast,29,18,Woman,Right,
14,14,1,1.299848500000735,['c'],1,left,['9'],5,0.1182171999989805,0.4,0,FastFast,29,18,Woman,Right,
15,14,1,1.1828268999997817,['c'],0,right,['8'],4,0.2683180000003631,0.1,0,FastFast,29,18,Woman,Right,
16,14,1,3.0997545999998692,['c'],0,right,"['8', '9']",4,0.2523364999997284,0.4,0,FastFast,29,18,Woman,Right,
17,14,1,1.5000772000003053,['n'],1,right,['9'],5,0.08462599999984377,0.4,0,FastFast,29,18,Woman,Right,
18,14,1,4.682816799999273,['n'],1,right,['9'],5,0.6341683000009652,0.4,0,FastFast,29,18,Woman,Right,
19,14,1,0.9010902000009082,['n'],1,right,['9'],5,0.11800560000119731,0.4,0,FastFast,29,18,Woman,Right,
20,14,1,0.5991453999995429,['n'],1,right,['9'],5,0.08588489999965532,0.4,0,FastFast,29,18,Woman,Right,
21,14,1,0.6171095999998215,['n'],1,right,['9'],5,0.06835789999968256,0.4,0,FastFast,29,18,Woman,Right,
22,14,1,0.7669462000012572,['c'],1,left,['9'],5,0.13515280000137864,0.2,0,FastFast,29,18,Woman,Right,
23,14,1,0.4833478999989893,['c'],0,right,['8'],4,0.16818599999896833,0.4,0,FastFast,29,18,Woman,Right,
24,14,1,1.6312588000000687,['n'],0,left,['9'],5,0.13473940000039875,0.2,0,FastFast,29,18,Woman,Right,
25,14,1,1.1174731999999494,['c'],1,left,['0'],6,0.2011992999996437,0.4,0,FastFast,29,18,Woman,Right,
26,14,1,0.7844218000009278,['n'],1,right,['9'],5,0.10129679999954533,0.4,0,FastFast,29,18,Woman,Right,
27,14,1,3.599378800001432,['n'],1,right,['9'],5,0.318310399999973,0.4,0,FastFast,29,18,Woman,Right,
28,14,1,3.833447700000761,['c'],1,left,"['0', '9', '1']",6,0.2697883999990154,0.4,0,FastFast,29,18,Woman,Right,
29,14,1,1.0990848000001279,['n'],0,left,['9'],5,0.08344089999991411,0.2,0,FastFast,29,18,Woman,Right,
30,14,1,5.017373700000462,x,-99,left,none,-99,-99,0.1,1,FastFast,29,18,Woman,Right,
31,14,1,0.6012373000012303,['c'],1,left,['0'],6,0.16719190000003437,0.4,0,FastFast,29,18,Woman,Right,
32,14,1,0.8508060999993177,['c'],0,right,['9'],5,0.13471070000014151,0.1,0,FastFast,29,18,Woman,Right,
33,14,1,2.9330000999998447,['c'],1,left,['0'],6,0.1683751000000484,0.1,0,FastFast,29,18,Woman,Right,
34,14,1,0.7016198000001168,['n'],1,right,['0'],6,0.15072939999845403,0.1,0,FastFast,29,18,Woman,Right,
35,14,1,0.683706899999379,['c'],1,left,['0'],6,0.15173390000018117,0.4,0,FastFast,29,18,Woman,Right,
36,14,1,3.8333481999998185,['n'],0,left,['0'],6,1.818415300000197,0.2,0,FastFast,29,18,Woman,Right,
37,14,1,1.5169414000010875,['c'],1,left,['9'],5,0.21814780000022438,0.2,0,FastFast,29,18,Woman,Right,
38,14,1,5.015950200000589,x,-99,right,none,-99,-99,0.2,1,FastFast,29,18,Woman,Right,
39,14,1,0.9016460000002553,['n'],1,right,['0'],6,0.11790139999902749,0.1,0,FastFast,29,18,Woman,Right,
40,14,1,1.0671099000010145,['c'],0,right,['9'],5,0.10170069999912812,0.2,0,FastFast,29,18,Woman,Right,
41,14,1,0.8498459000002185,['n'],1,right,['0'],6,0.15043960000002699,0.2,0,FastFast,29,18,Woman,Right,
42,14,1,0.6331630000004225,['c'],0,right,['0'],6,0.15227319999939937,0.4,0,FastFast,29,18,Woman,Right,
43,14,1,0.29849359999934677,['c'],0,right,['2'],2,0.06883980000020529,0.1,0,FastFast,29,18,Woman,Right,
44,14,1,0.382220800000141,['c'],0,right,['2'],2,0.1692364999998972,0.1,0,FastFast,29,18,Woman,Right,
45,14,1,0.9505188999992242,['n'],1,right,['9'],5,0.1346732999991218,0.4,0,FastFast,29,18,Woman,Right,
46,14,1,0.8835983000008127,['n'],1,right,['9'],5,0.15071460000035586,0.2,0,FastFast,29,18,Woman,Right,
47,14,1,0.45099409999966156,['c'],0,right,['0'],6,0.08476650000011432,0.2,0,FastFast,29,18,Woman,Right,
48,14,1,0.9989487000002555,['c'],0,right,['2'],2,0.1678274000005331,0.2,0,FastFast,29,18,Woman,Right,
49,14,1,0.23267010000017763,['c'],0,right,['1'],1,0.4839691999986826,0.4,0,FastFast,29,18,Woman,Right,
50,14,1,1.216866700000537,['n'],0,left,['0'],6,0.184852200000023,0.1,0,FastFast,29,18,Woman,Right,
51,14,1,0.7508092000007309,['c'],1,left,['2'],2,0.2179414000001998,0.4,0,FastFast,29,18,Woman,Right,
52,14,1,5.015457699999388,x,-99,left,none,-99,-99,0.2,1,FastFast,29,18,Woman,Right,
53,14,1,0.7010583999999653,['c'],1,left,"['0', '9']",6,0.15212749999955122,0.1,0,FastFast,29,18,Woman,Right,
54,14,1,0.6829342000000906,['c'],1,left,['9'],5,0.10094320000098378,0.2,0,FastFast,29,18,Woman,Right,
55,14,1,0.41666020000047865,['c'],0,right,['9'],5,0.2851297999986855,0.1,0,FastFast,29,18,Woman,Right,
56,14,1,0.58375580000029,['c'],0,right,['9'],5,0.2513922999987699,0.1,0,FastFast,29,18,Woman,Right,
57,14,1,0.7669164999988425,['c'],1,left,['9'],5,0.10117829999944661,0.2,0,FastFast,29,18,Woman,Right,
58,14,1,0.4840562999997928,['c'],0,right,['0'],6,0.15162690000033763,0.1,0,FastFast,29,18,Woman,Right,
59,14,1,0.3841989000011381,['c'],1,left,['8'],4,0.13460479999957897,0.1,0,FastFast,29,18,Woman,Right,
0,15,1,1.233016600001065,['c'],1,left,['0'],6,0.10212090000095486,0.2,0,AccFast,29,18,Woman,Right,
1,15,1,0.9162856000002648,['n'],1,right,['0'],6,0.1515648999993573,0.2,0,AccFast,29,18,Woman,Right,
2,15,1,0.4997449000002234,['c'],0,right,['0'],6,0.13469369999984337,0.1,0,AccFast,29,18,Woman,Right,
3,15,1,0.6669684999997116,['c'],1,left,['9'],5,0.15139210000052117,0.1,0,AccFast,29,18,Woman,Right,
4,15,1,0.43435799999861047,['c'],0,right,['9'],5,0.18414630000006582,0.1,0,AccFast,29,18,Woman,Right,
5,15,1,1.766714099998353,['c'],0,right,['9'],5,0.3181564000005892,0.2,0,AccFast,29,18,Woman,Right,
6,15,1,1.2162391000001662,['c'],0,right,['8'],4,0.23414869999942312,0.2,0,AccFast,29,18,Woman,Right,
7,15,1,1.1177310999992187,['c'],0,right,['8'],4,0.11836959999891405,0.4,0,AccFast,29,18,Woman,Right,
8,15,1,0.716906999999992,['c'],1,left,['3'],3,1.0848551999988558,0.2,0,AccFast,29,18,Woman,Right,
9,15,1,0.8332694000000629,['c'],0,right,['9'],5,0.08462060000056226,0.1,0,AccFast,29,18,Woman,Right,
10,15,1,0.8836190999991231,['n'],1,right,['9'],5,0.13395289999971283,0.4,0,AccFast,29,18,Woman,Right,
11,15,1,1.450479400000404,['c'],1,left,['2'],2,0.40067440000166243,0.2,0,AccFast,29,18,Woman,Right,
12,15,1,0.06649060000017926,['n'],1,right,['9'],5,0.26747249999971245,0.4,0,AccFast,29,18,Woman,Right,
13,15,1,1.367036300000109,['n'],1,right,['9'],5,0.20143330000064452,0.1,0,AccFast,29,18,Woman,Right,
14,15,1,0.4003539000004821,['n'],0,left,['3'],3,0.4014201000009052,0.4,0,AccFast,29,18,Woman,Right,
15,15,1,2.250850000000355,"['n', 'c']",1,right,"['2', '1']",2,0.017373599999700673,0.2,0,AccFast,29,18,Woman,Right,
16,15,1,0.467657600000166,['n'],0,left,['0'],6,0.16957619999993767,0.1,0,AccFast,29,18,Woman,Right,
17,15,1,0.2838464999986172,['n'],0,left,['9'],5,2.00095440000041,0.1,0,AccFast,29,18,Woman,Right,
18,15,1,0.5840594999990572,['c'],1,left,['9'],5,0.10135930000069493,0.1,0,AccFast,29,18,Woman,Right,
19,15,1,0.7663348000005499,['n'],1,right,['9'],5,0.11833829999886802,0.2,0,AccFast,29,18,Woman,Right,
20,15,1,0.8500564999994822,['c'],1,left,['9'],5,0.23412660000030883,0.1,0,AccFast,29,18,Woman,Right,
21,15,1,3.550650700000915,['c'],0,right,"['0', '9', '2', '1']",6,0.20071660000030533,0.4,0,AccFast,29,18,Woman,Right,
22,15,1,0.6341539000004559,['c'],1,left,['9'],5,0.13553759999922477,0.2,0,AccFast,29,18,Woman,Right,
23,15,1,0.5343573999998625,['c'],1,left,['0'],6,0.3348993999989034,0.4,0,AccFast,29,18,Woman,Right,
24,15,1,4.0155547999984265,['c'],0,right,['9'],5,0.051233600001069135,0.4,0,AccFast,29,18,Woman,Right,
25,15,1,0.6503403000006074,['c'],1,left,['0'],6,0.16790340000079595,0.4,0,AccFast,29,18,Woman,Right,
26,15,1,0.5663844999999128,['c'],1,left,['9'],5,0.11868449999928998,0.1,0,AccFast,29,18,Woman,Right,
27,15,1,0.6338173000003735,['c'],1,left,['9'],5,0.13478140000006533,0.4,0,AccFast,29,18,Woman,Right,
28,15,1,2.4508623000001535,['c'],0,right,['0'],6,0.034633400000529946,0.2,0,AccFast,29,18,Woman,Right,
29,15,1,0.6335517999996227,['c'],1,left,['9'],5,0.10163549999924726,0.4,0,AccFast,29,18,Woman,Right,
30,15,1,0.7828699000001507,['n'],1,right,['9'],5,0.05199480000010226,0.4,0,AccFast,29,18,Woman,Right,
31,15,1,1.0668519999999262,['n'],0,left,none,-99,-99,0.2,1,AccFast,29,18,Woman,Right,
32,15,1,0.9513494000002538,['c'],1,left,['0'],6,0.15075890000116487,0.2,0,AccFast,29,18,Woman,Right,
33,15,1,0.5338355000003503,['n'],1,right,['9'],5,0.06820230000084848,0.4,0,AccFast,29,18,Woman,Right,
34,15,1,0.7147819999991043,['c'],0,right,['9'],5,0.15093460000025516,0.1,0,AccFast,29,18,Woman,Right,
35,15,1,0.7510815000005095,['c'],1,left,['0'],6,0.15073039999879256,0.4,0,AccFast,29,18,Woman,Right,
36,15,1,2.3837070999998105,['c'],1,left,['0'],6,0.40124529999957304,0.4,0,AccFast,29,18,Woman,Right,
37,15,1,0.6671563000018068,['c'],1,left,['9'],5,0.1679020000010496,0.2,0,AccFast,29,18,Woman,Right,
38,15,1,0.26775999999881606,['c'],0,right,['9'],5,0.16795129999991332,0.2,0,AccFast,29,18,Woman,Right,
39,15,1,2.31707809999898,['c'],1,left,['0'],6,0.1170019000001048,0.1,0,AccFast,29,18,Woman,Right,
40,15,1,0.6166563000006136,['c'],0,right,['9'],5,0.21865210000032675,0.2,0,AccFast,29,18,Woman,Right,
41,15,1,0.8500451000018074,['c'],0,right,['0'],6,0.0679586999995081,0.1,0,AccFast,29,18,Woman,Right,
42,15,1,0.7824639999998908,['c'],0,right,['0'],6,0.017813399999795365,0.4,0,AccFast,29,18,Woman,Right,
43,15,1,5.015918700000839,x,-99,left,none,-99,-99,0.1,1,AccFast,29,18,Woman,Right,
44,15,1,1.266717599999538,['c'],0,right,['9'],5,1.0006410999994841,0.1,0,AccFast,29,18,Woman,Right,
45,15,1,0.6174476999985927,['c'],1,left,['9'],5,0.11795880000136094,0.1,0,AccFast,29,18,Woman,Right,
46,15,1,0.7837703000004694,['n'],0,left,['9'],5,0.10137480000048527,0.2,0,AccFast,29,18,Woman,Right,
47,15,1,0.6668622000015603,['n'],1,right,['9'],5,0.08478070000091975,0.4,0,AccFast,29,18,Woman,Right,
48,15,1,1.2836805999995704,['n'],1,right,['1'],1,0.18466630000148143,0.1,0,AccFast,29,18,Woman,Right,
49,15,1,1.2328976999997394,['c'],1,left,['9'],5,0.1686699999991106,0.2,0,AccFast,29,18,Woman,Right,
50,15,1,0.9668956999994407,['c'],1,left,['9'],5,0.16911509999954433,0.2,0,AccFast,29,18,Woman,Right,
51,15,1,0.5671600999994553,['c'],1,left,['9'],5,0.11797719999958645,0.4,0,AccFast,29,18,Woman,Right,
52,15,1,1.1323888999995688,['c'],1,left,['0'],6,0.13556939999944007,0.2,0,AccFast,29,18,Woman,Right,
53,15,1,4.849926800001413,['c'],1,left,['8'],4,0.0683138999993389,0.1,0,AccFast,29,18,Woman,Right,
54,15,1,0.6157425999990664,['c'],0,right,['9'],5,0.1350112000000081,0.4,0,AccFast,29,18,Woman,Right,
55,15,1,0.7506422000005841,['n'],1,right,['9'],5,0.06683449999945879,0.1,0,AccFast,29,18,Woman,Right,
56,15,1,0.8180150000007416,['c'],0,right,['9'],5,2.351092900000367,0.1,0,AccFast,29,18,Woman,Right,
57,15,1,0.23408869999911985,['c'],0,right,['9'],5,0.7850007999986701,0.4,0,AccFast,29,18,Woman,Right,
58,15,1,0.8830549999984214,['n'],1,right,['9'],5,2.6845271999991382,0.2,0,AccFast,29,18,Woman,Right,
59,15,1,4.0329167999989295,"['n', 'c']",0,left,"['0', '9']",6,0.26737640000101237,0.4,0,AccFast,29,18,Woman,Right,
