withinblocktrial,block,block_repetition,rt,resp,cor,cresp,conf_press,cj,rtconf,coherence,slow_trial,manipulation,sub,age,gender,handedness,
0,1,1,2.433650099999795,['c'],0,right,none,-99,-99,0.5,0,none,1,0,Woman,Left,
1,1,1,3.416939100000036,['c'],0,right,none,-99,-99,0.5,0,none,1,0,Woman,Left,
2,1,1,0.6167209000000184,['n'],1,right,none,-99,-99,0.5,0,none,1,0,Woman,Left,
3,1,1,2.032727799999975,['n'],1,right,none,-99,-99,0.5,0,none,1,0,Woman,Left,
4,1,1,0.9010731999997006,['c'],1,left,none,-99,-99,0.5,0,none,1,0,Woman,Left,
5,1,1,1.2010895999997047,['n'],0,left,none,-99,-99,0.5,0,none,1,0,Woman,Left,
6,1,1,1.7493438999999853,['c'],0,right,none,-99,-99,0.5,0,none,1,0,Woman,Left,
7,1,1,0.9519043999998757,['n'],0,left,none,-99,-99,0.5,0,none,1,0,Woman,Left,
8,1,1,0.7828012999998464,['c'],1,left,none,-99,-99,0.5,0,none,1,0,Woman,Left,
9,1,1,0.8177249000000302,['c'],1,left,none,-99,-99,0.5,0,none,1,0,Woman,Left,
10,1,1,0.8010770000000775,['c'],1,left,none,-99,-99,0.5,0,none,1,0,Woman,Left,
11,1,1,0.8011717999997927,['c'],1,left,none,-99,-99,0.5,0,none,1,0,Woman,Left,
12,1,1,0.6825825999999324,['n'],1,right,none,-99,-99,0.5,0,none,1,0,Woman,Left,
13,1,1,0.5667212999996991,['c'],0,right,none,-99,-99,0.5,0,none,1,0,Woman,Left,
14,1,1,1.0506106000002546,['n'],1,right,none,-99,-99,0.5,0,none,1,0,Woman,Left,
15,1,1,0.916919599999801,['c'],1,left,none,-99,-99,0.5,0,none,1,0,Woman,Left,
16,1,1,0.9664745999998559,['c'],1,left,none,-99,-99,0.5,0,none,1,0,Woman,Left,
17,1,1,0.5836710000003222,['c'],1,left,none,-99,-99,0.5,0,none,1,0,Woman,Left,
18,1,1,0.6011282999998002,['c'],1,left,none,-99,-99,0.5,0,none,1,0,Woman,Left,
19,1,1,0.4011305999997603,['c'],1,left,none,-99,-99,0.5,0,none,1,0,Woman,Left,
20,1,1,0.7995077000000492,['n'],1,right,none,-99,-99,0.5,0,none,1,0,Woman,Left,
21,1,1,0.6173244000001432,['n'],1,right,none,-99,-99,0.5,0,none,1,0,Woman,Left,
22,1,1,0.4842988000000332,['n'],1,right,none,-99,-99,0.5,0,none,1,0,Woman,Left,
23,1,1,0.6169242999999369,['n'],1,right,none,-99,-99,0.5,0,none,1,0,Woman,Left,
0,1,2,0.6345049000001382,['c'],1,left,none,-99,-99,0.5,0,none,1,0,Woman,Left,
1,1,2,0.5844908999997642,['n'],1,right,none,-99,-99,0.5,0,none,1,0,Woman,Left,
2,1,2,0.4171614000001682,['c'],0,right,none,-99,-99,0.5,0,none,1,0,Woman,Left,
3,1,2,0.9169255000001613,['c'],1,left,none,-99,-99,0.5,0,none,1,0,Woman,Left,
4,1,2,0.5005863000001227,['n'],1,right,none,-99,-99,0.5,0,none,1,0,Woman,Left,
5,1,2,0.5171227999999246,['c'],1,left,none,-99,-99,0.5,0,none,1,0,Woman,Left,
6,1,2,0.6677991999999904,['n'],0,left,none,-99,-99,0.5,0,none,1,0,Woman,Left,
7,1,2,0.48386719999962224,['c'],0,right,none,-99,-99,0.5,0,none,1,0,Woman,Left,
8,1,2,0.5170069999999214,['n'],1,right,none,-99,-99,0.5,0,none,1,0,Woman,Left,
9,1,2,0.45044259999986025,['n'],1,right,none,-99,-99,0.5,0,none,1,0,Woman,Left,
10,1,2,0.667779000000337,['c'],0,right,none,-99,-99,0.5,0,none,1,0,Woman,Left,
11,1,2,0.7676713999999265,['c'],1,left,none,-99,-99,0.5,0,none,1,0,Woman,Left,
12,1,2,0.5498380999997607,['n'],1,right,none,-99,-99,0.5,0,none,1,0,Woman,Left,
13,1,2,0.8334230999998908,['n'],1,right,none,-99,-99,0.5,0,none,1,0,Woman,Left,
14,1,2,0.6499022999996669,['c'],1,left,none,-99,-99,0.5,0,none,1,0,Woman,Left,
15,1,2,0.565975200000139,['n'],1,right,none,-99,-99,0.5,0,none,1,0,Woman,Left,
16,1,2,0.48440690000006725,['c'],1,left,none,-99,-99,0.5,0,none,1,0,Woman,Left,
17,1,2,0.6177404000000024,['c'],1,left,none,-99,-99,0.5,0,none,1,0,Woman,Left,
18,1,2,0.7178311000002395,['c'],1,left,none,-99,-99,0.5,0,none,1,0,Woman,Left,
19,1,2,0.5002117999997608,['c'],1,left,none,-99,-99,0.5,0,none,1,0,Woman,Left,
20,1,2,0.7003371999999217,['c'],1,left,none,-99,-99,0.5,0,none,1,0,Woman,Left,
21,1,2,0.5337852000002385,['c'],1,left,none,-99,-99,0.5,0,none,1,0,Woman,Left,
22,1,2,0.7016750000002503,['c'],0,right,none,-99,-99,0.5,0,none,1,0,Woman,Left,
23,1,2,0.8672354999998788,['c'],0,right,none,-99,-99,0.5,0,none,1,0,Woman,Left,
0,1,3,0.7011044999999285,['n'],1,right,none,-99,-99,0.5,0,none,1,0,Woman,Left,
1,1,3,1.0320016000000578,['n'],1,right,none,-99,-99,0.5,0,none,1,0,Woman,Left,
2,1,3,0.6998943999997209,['c'],1,left,none,-99,-99,0.5,0,none,1,0,Woman,Left,
3,1,3,0.7013809999998557,['n'],1,right,none,-99,-99,0.5,0,none,1,0,Woman,Left,
4,1,3,0.5516597000000729,['c'],0,right,none,-99,-99,0.5,0,none,1,0,Woman,Left,
5,1,3,0.5509467000001678,['n'],1,right,none,-99,-99,0.5,0,none,1,0,Woman,Left,
6,1,3,0.666216600000098,['c'],0,right,none,-99,-99,0.5,0,none,1,0,Woman,Left,
7,1,3,0.6659810000001016,['c'],1,left,none,-99,-99,0.5,0,none,1,0,Woman,Left,
8,1,3,0.5843783000000258,['n'],1,right,none,-99,-99,0.5,0,none,1,0,Woman,Left,
9,1,3,0.5519803000001957,['c'],1,left,none,-99,-99,0.5,0,none,1,0,Woman,Left,
10,1,3,0.6845886000000974,['n'],1,right,none,-99,-99,0.5,0,none,1,0,Woman,Left,
11,1,3,1.082925200000318,['c'],1,left,none,-99,-99,0.5,0,none,1,0,Woman,Left,
12,1,3,0.7019575000003897,['c'],1,left,none,-99,-99,0.5,0,none,1,0,Woman,Left,
13,1,3,0.7189069999999447,['n'],1,right,none,-99,-99,0.5,0,none,1,0,Woman,Left,
14,1,3,0.5514833000002,['n'],1,right,none,-99,-99,0.5,0,none,1,0,Woman,Left,
15,1,3,0.6333423000000948,['c'],1,left,none,-99,-99,0.5,0,none,1,0,Woman,Left,
16,1,3,0.4348450000002231,['c'],1,left,none,-99,-99,0.5,0,none,1,0,Woman,Left,
17,1,3,0.5843858000002911,['c'],1,left,none,-99,-99,0.5,0,none,1,0,Woman,Left,
18,1,3,0.6513953999997284,['c'],1,left,none,-99,-99,0.5,0,none,1,0,Woman,Left,
19,1,3,0.8000486999999339,['n'],1,right,none,-99,-99,0.5,0,none,1,0,Woman,Left,
20,1,3,0.44993490000024394,['c'],1,left,none,-99,-99,0.5,0,none,1,0,Woman,Left,
21,1,3,0.4340882999999849,['n'],1,right,none,-99,-99,0.5,0,none,1,0,Woman,Left,
22,1,3,0.332746699999916,['c'],1,left,none,-99,-99,0.5,0,none,1,0,Woman,Left,
23,1,3,0.34967249999999694,['n'],0,left,none,-99,-99,0.5,0,none,1,0,Woman,Left,
0,2,1,2.100923200000125,['n'],0,left,none,-99,-99,0.1,0,none,1,0,Woman,Left,
1,2,1,1.367228999999952,['c'],0,right,none,-99,-99,0.4,0,none,1,0,Woman,Left,
2,2,1,1.18464830000039,['n'],0,left,none,-99,-99,0.4,0,none,1,0,Woman,Left,
3,2,1,0.6177895999999237,['c'],1,left,none,-99,-99,0.4,0,none,1,0,Woman,Left,
4,2,1,0.6500811000000795,['c'],0,right,none,-99,-99,0.2,0,none,1,0,Woman,Left,
5,2,1,2.8824478000001363,['c'],1,left,none,-99,-99,0.1,0,none,1,0,Woman,Left,
6,2,1,0.649847900000168,['n'],1,right,none,-99,-99,0.2,0,none,1,0,Woman,Left,
7,2,1,0.7165557999996963,['n'],1,right,none,-99,-99,0.1,0,none,1,0,Woman,Left,
8,2,1,0.5176381999999649,['c'],1,left,none,-99,-99,0.4,0,none,1,0,Woman,Left,
9,2,1,1.0329980000001342,['n'],1,right,none,-99,-99,0.2,0,none,1,0,Woman,Left,
10,2,1,0.5509860000001936,['c'],1,left,none,-99,-99,0.4,0,none,1,0,Woman,Left,
11,2,1,0.6337884999998096,['n'],1,right,none,-99,-99,0.1,0,none,1,0,Woman,Left,
12,2,1,0.4008366000002752,['c'],0,right,none,-99,-99,0.2,0,none,1,0,Woman,Left,
13,2,1,0.6496179999999185,['n'],1,right,none,-99,-99,0.4,0,none,1,0,Woman,Left,
14,2,1,0.7670663999997487,['c'],1,left,none,-99,-99,0.2,0,none,1,0,Woman,Left,
15,2,1,0.5669868999998471,['n'],1,right,none,-99,-99,0.4,0,none,1,0,Woman,Left,
16,2,1,0.49990969999998924,['c'],0,right,none,-99,-99,0.2,0,none,1,0,Woman,Left,
17,2,1,0.5155666999999085,['n'],0,left,none,-99,-99,0.1,0,none,1,0,Woman,Left,
18,2,1,0.55155620000005,['c'],1,left,none,-99,-99,0.1,0,none,1,0,Woman,Left,
19,2,1,0.5508346999999958,['c'],0,right,none,-99,-99,0.1,0,none,1,0,Woman,Left,
20,2,1,0.7681549999997515,['n'],1,right,none,-99,-99,0.1,0,none,1,0,Woman,Left,
21,2,1,0.7504800000001524,['c'],1,left,none,-99,-99,0.2,0,none,1,0,Woman,Left,
22,2,1,0.7679521999998542,['c'],1,left,none,-99,-99,0.2,0,none,1,0,Woman,Left,
23,2,1,0.6671366000000489,['c'],1,left,none,-99,-99,0.4,0,none,1,0,Woman,Left,
0,3,1,1.2663611999996647,['n'],1,right,none,-99,-99,0.4,1,none,1,0,Woman,Left,
1,3,1,0.7169370000001436,['c'],1,left,['9'],5,3.5172975000000406,0.2,0,none,1,0,Woman,Left,
2,3,1,0.7679054999998698,['c'],0,right,['9'],5,0.9836045000001832,0.2,0,none,1,0,Woman,Left,
3,3,1,1.1173328999998375,['c'],0,right,['9'],5,0.7507565000000795,0.2,0,none,1,0,Woman,Left,
4,3,1,0.8666534999997566,['c'],0,right,['9'],5,1.601034300000265,0.4,0,none,1,0,Woman,Left,
5,3,1,2.3994622999998683,['n'],1,right,['8'],4,1.2181611999999404,0.4,0,none,1,0,Woman,Left,
6,3,1,1.0171285999999782,['c'],1,left,['9'],5,0.6340718999999808,0.2,0,none,1,0,Woman,Left,
7,3,1,1.0683195999999953,['c'],1,left,['3'],3,2.116724299999987,0.1,0,none,1,0,Woman,Left,
8,3,1,0.9324025000000802,['c'],1,left,['9'],5,0.785041099999944,0.4,0,none,1,0,Woman,Left,
9,3,1,1.5180026999996699,['n'],1,right,['9'],5,0.5189162000001488,0.2,0,none,1,0,Woman,Left,
10,3,1,1.7176212999997915,['n'],1,right,['0'],6,1.4509613000000172,0.1,0,none,1,0,Woman,Left,
11,3,1,0.7345018999999411,['c'],1,left,['8'],4,0.8010247000001982,0.4,0,none,1,0,Woman,Left,
12,3,1,0.8343822000001637,['n'],0,left,['9'],5,0.6674812999999631,0.1,0,none,1,0,Woman,Left,
13,3,1,0.5665255000003526,['c'],1,left,['9'],5,0.5189731999998912,0.2,0,none,1,0,Woman,Left,
14,3,1,1.6988314000000173,['n'],0,left,['0'],6,1.535151600000063,0.1,0,none,1,0,Woman,Left,
15,3,1,1.1667161000000306,['n'],1,right,['9'],5,0.5343194000001859,0.1,0,none,1,0,Woman,Left,
16,3,1,2.250388400000247,['n'],1,right,['3'],3,1.4025170999998409,0.1,0,none,1,0,Woman,Left,
17,3,1,1.715599199999815,['c'],1,left,['8'],4,1.383176999999705,0.4,0,none,1,0,Woman,Left,
18,3,1,1.0345148000001245,['n'],0,left,['8'],4,0.36885869999969145,0.1,0,none,1,0,Woman,Left,
19,3,1,1.3342835000003106,['n'],0,left,['9'],5,0.7680543999999827,0.1,0,none,1,0,Woman,Left,
20,3,1,1.4676585000001978,['c'],1,left,['3'],3,1.4494026000002123,0.2,0,none,1,0,Woman,Left,
21,3,1,0.9022276000000602,['n'],1,right,['8'],4,0.867891100000179,0.4,0,none,1,0,Woman,Left,
22,3,1,1.3828008999998929,['n'],1,right,['8'],4,0.5853693999997631,0.4,0,none,1,0,Woman,Left,
23,3,1,0.8655225000002247,['n'],1,right,['8'],4,0.5190842000001794,0.2,0,none,1,0,Woman,Left,
0,4,1,1.8854038000004039,['c'],1,left,['3'],3,1.5014335000000756,0.4,0,FastFast,1,0,Woman,Left,
1,4,1,1.0831500999997843,['n'],1,right,['9'],5,0.9181675000004361,0.1,0,FastFast,1,0,Woman,Left,
2,4,1,1.3326296000000184,['n'],0,left,['9'],5,0.4851778000002014,0.1,0,FastFast,1,0,Woman,Left,
3,4,1,0.9829534000000422,['c'],1,left,['2'],2,0.38443729999971765,0.4,0,FastFast,1,0,Woman,Left,
4,4,1,0.8341719999998531,['n'],1,right,['8'],4,0.6013765000002422,0.4,0,FastFast,1,0,Woman,Left,
5,4,1,1.282141899999715,['n'],1,right,['9'],5,0.8179292999998324,0.1,0,FastFast,1,0,Woman,Left,
6,4,1,1.1003943000000618,['c'],1,left,['2'],2,0.4513268999999127,0.4,0,FastFast,1,0,Woman,Left,
7,4,1,1.884353899999951,['n'],0,left,['8'],4,0.4831948000000921,0.2,0,FastFast,1,0,Woman,Left,
8,4,1,0.9491603999999825,['c'],1,left,['8'],4,0.635821599999872,0.2,0,FastFast,1,0,Woman,Left,
9,4,1,1.4151974999999766,['n'],1,right,['8'],4,0.602810800000043,0.1,0,FastFast,1,0,Woman,Left,
10,4,1,2.0996774000000187,['c'],1,left,['8'],4,0.6353404000001319,0.1,0,FastFast,1,0,Woman,Left,
11,4,1,0.7676143000003322,['n'],0,left,['8'],4,0.350376999999753,0.1,0,FastFast,1,0,Woman,Left,
12,4,1,0.9669368000004397,['n'],1,right,['0'],6,0.7684511000002203,0.4,0,FastFast,1,0,Woman,Left,
13,4,1,0.9649810999999318,['c'],1,left,['3'],3,0.6187740000000304,0.2,0,FastFast,1,0,Woman,Left,
14,4,1,1.1336108000000422,['c'],1,left,['8'],4,0.43474209999976665,0.4,0,FastFast,1,0,Woman,Left,
15,4,1,0.7002448000002914,['n'],1,right,['8'],4,0.3845068999999057,0.4,0,FastFast,1,0,Woman,Left,
16,4,1,0.7667193999996016,['n'],1,right,['9'],5,0.7175907000000734,0.1,0,FastFast,1,0,Woman,Left,
17,4,1,0.9164710999998533,['n'],1,right,['8'],4,0.4512395000001561,0.1,0,FastFast,1,0,Woman,Left,
18,4,1,1.6330800999999155,['c'],1,left,['8'],4,1.384303700000146,0.1,0,FastFast,1,0,Woman,Left,
19,4,1,0.9346236999999746,['n'],1,right,['8'],4,0.4171523999998499,0.1,0,FastFast,1,0,Woman,Left,
20,4,1,0.8166591999997763,['n'],0,left,['9'],5,0.5017953000001398,0.2,0,FastFast,1,0,Woman,Left,
21,4,1,1.3827636999999413,['c'],1,left,['8'],4,0.7688357000001815,0.2,0,FastFast,1,0,Woman,Left,
22,4,1,0.7007661999996344,['n'],0,left,['8'],4,1.3332621999998082,0.1,0,FastFast,1,0,Woman,Left,
23,4,1,1.6679122000000461,['c'],1,left,['8'],4,0.8513269999998556,0.2,0,FastFast,1,0,Woman,Left,
24,4,1,0.8491862000000765,['n'],1,right,['8'],4,0.3841288999997232,0.1,0,FastFast,1,0,Woman,Left,
25,4,1,0.6506709999998748,['c'],0,right,['8'],4,0.434988500000145,0.2,0,FastFast,1,0,Woman,Left,
26,4,1,0.9667906999998195,['n'],1,right,['9'],5,0.6507277000000613,0.4,0,FastFast,1,0,Woman,Left,
27,4,1,1.0338044999998601,['c'],0,right,['2'],2,1.4180088000002797,0.2,0,FastFast,1,0,Woman,Left,
28,4,1,0.7993542000003799,['n'],1,right,['8'],4,0.702107800000249,0.2,0,FastFast,1,0,Woman,Left,
29,4,1,0.8151060000000143,['n'],0,left,['8'],4,0.3513339000000997,0.4,0,FastFast,1,0,Woman,Left,
30,4,1,0.984495600000173,['c'],1,left,['8'],4,0.434899200000018,0.2,0,FastFast,1,0,Woman,Left,
31,4,1,0.6838365999997222,['n'],1,right,['8'],4,0.31860320000032516,0.1,0,FastFast,1,0,Woman,Left,
32,4,1,1.0838678000000073,['c'],1,left,['8'],4,0.4834624000000076,0.4,0,FastFast,1,0,Woman,Left,
33,4,1,0.6671507000000929,['n'],1,right,['9'],5,0.6330063999998856,0.4,0,FastFast,1,0,Woman,Left,
34,4,1,0.7663699999998244,['n'],1,right,['8'],4,0.45224469999993744,0.2,0,FastFast,1,0,Woman,Left,
35,4,1,0.7504447000001164,['n'],1,right,['8'],4,0.5346590999997716,0.4,0,FastFast,1,0,Woman,Left,
36,4,1,1.1002792000003865,['c'],1,left,['8'],4,0.3681495000000723,0.2,0,FastFast,1,0,Woman,Left,
37,4,1,1.6006471000000602,['c'],0,right,['8'],4,0.4678905999999188,0.1,0,FastFast,1,0,Woman,Left,
38,4,1,1.4838070000000698,['n'],1,right,['9'],5,1.1679137000000992,0.2,0,FastFast,1,0,Woman,Left,
39,4,1,0.9336296999999831,['c'],1,left,['3'],3,1.534682900000007,0.4,0,FastFast,1,0,Woman,Left,
40,4,1,1.283820900000137,['c'],1,left,['8'],4,0.5677701999998135,0.1,0,FastFast,1,0,Woman,Left,
41,4,1,0.8990834000001087,['n'],1,right,['9'],5,0.5331114000000525,0.1,0,FastFast,1,0,Woman,Left,
42,4,1,1.1169434999997065,['c'],1,left,['8'],4,0.7685323000000608,0.4,0,FastFast,1,0,Woman,Left,
43,4,1,1.0002527999999984,['n'],1,right,['9'],5,0.5499824999997145,0.4,0,FastFast,1,0,Woman,Left,
44,4,1,1.3998971999999412,['n'],1,right,['8'],4,0.36616719999983616,0.2,0,FastFast,1,0,Woman,Left,
45,4,1,0.9686790000000656,['c'],1,left,['8'],4,0.4169661000000815,0.1,0,FastFast,1,0,Woman,Left,
46,4,1,0.8991652999998223,['n'],1,right,['8'],4,0.41827120000016293,0.4,0,FastFast,1,0,Woman,Left,
47,4,1,1.099988200000098,['c'],1,left,['8'],4,1.0340570999996999,0.4,0,FastFast,1,0,Woman,Left,
48,4,1,0.7003116000000773,['n'],1,right,['8'],4,0.5360504999998739,0.2,0,FastFast,1,0,Woman,Left,
49,4,1,0.8006027999999787,['n'],1,right,['8'],4,0.4015509999999267,0.4,0,FastFast,1,0,Woman,Left,
50,4,1,0.8647270000001299,['n'],0,left,['8'],4,0.43411009999999806,0.2,0,FastFast,1,0,Woman,Left,
51,4,1,1.1015164999998888,['c'],0,right,['8'],4,0.6680059000000256,0.2,0,FastFast,1,0,Woman,Left,
52,4,1,0.9825341999999182,['n'],0,left,['8'],4,0.3677992000002632,0.2,0,FastFast,1,0,Woman,Left,
53,4,1,1.6493562000000566,['n'],0,left,['8'],4,0.3843338000001495,0.2,0,FastFast,1,0,Woman,Left,
54,4,1,0.9338991999998143,['c'],1,left,['8'],4,0.5340766999997868,0.4,0,FastFast,1,0,Woman,Left,
55,4,1,1.4163854000003084,['c'],1,left,['8'],4,0.5349913999998535,0.4,0,FastFast,1,0,Woman,Left,
56,4,1,1.0662483999999495,['n'],0,left,['8'],4,0.3526750999999422,0.1,0,FastFast,1,0,Woman,Left,
57,4,1,0.933642499999678,['n'],1,right,['8'],4,0.3350482999999258,0.1,0,FastFast,1,0,Woman,Left,
58,4,1,0.9324437999998736,['n'],1,right,['8'],4,0.36764899999980116,0.2,0,FastFast,1,0,Woman,Left,
59,4,1,1.0014272999997047,['n'],1,right,['8'],4,0.3506526999999551,0.1,0,FastFast,1,0,Woman,Left,
0,5,1,1.801043600000412,['c'],0,right,['8'],4,0.6164616000000933,0.4,0,AccFast,1,0,Woman,Left,
1,5,1,0.7013064000002487,['n'],1,right,['8'],4,0.6344118000001799,0.4,0,AccFast,1,0,Woman,Left,
2,5,1,0.3673007000002144,['c'],0,right,['9'],5,0.5008303999998134,0.4,0,AccFast,1,0,Woman,Left,
3,5,1,0.6681404999999359,['n'],0,left,['3'],3,0.2512222999998812,0.2,0,AccFast,1,0,Woman,Left,
4,5,1,0.6327398000003086,['c'],1,left,['0'],6,0.40082190000021,0.1,0,AccFast,1,0,Woman,Left,
5,5,1,0.9514070999998694,['c'],0,right,['9'],5,0.48500600000033955,0.4,0,AccFast,1,0,Woman,Left,
6,5,1,1.2503797999997914,['c'],1,left,['3'],3,0.5500247999998464,0.1,0,AccFast,1,0,Woman,Left,
7,5,1,0.7327197999998134,['n'],1,right,['9'],5,1.5504258000000846,0.4,0,AccFast,1,0,Woman,Left,
8,5,1,0.7326395000000048,['c'],0,right,['9'],5,0.28534369999988485,0.2,0,AccFast,1,0,Woman,Left,
9,5,1,0.8165304000003744,['c'],1,left,['9'],5,0.4523133000002417,0.1,0,AccFast,1,0,Woman,Left,
10,5,1,0.7505848999999216,['c'],1,left,['9'],5,0.3346804000002521,0.1,0,AccFast,1,0,Woman,Left,
11,5,1,1.550269500000013,['n'],1,right,['9'],5,0.33468560000028447,0.1,0,AccFast,1,0,Woman,Left,
12,5,1,1.0491852000000108,['c'],1,left,['9'],5,0.30199939999965864,0.2,0,AccFast,1,0,Woman,Left,
13,5,1,0.7824884000001475,['c'],1,left,['9'],5,0.2516048000002229,0.1,0,AccFast,1,0,Woman,Left,
14,5,1,0.6502770000001874,['c'],0,right,['9'],5,0.316570700000284,0.2,0,AccFast,1,0,Woman,Left,
15,5,1,0.9181151000002501,['c'],1,left,['9'],5,0.26797080000005735,0.2,0,AccFast,1,0,Woman,Left,
16,5,1,1.2010974999998325,['n'],1,right,['9'],5,0.3678287000002456,0.1,0,AccFast,1,0,Woman,Left,
17,5,1,2.466672000000017,['n'],1,right,['9'],5,0.367311299999983,0.4,0,AccFast,1,0,Woman,Left,
18,5,1,0.9333693999997195,['c'],1,left,['9'],5,0.2848395000000892,0.4,0,AccFast,1,0,Woman,Left,
19,5,1,0.8669562999998561,['c'],1,left,['9'],5,0.25141349999967133,0.2,0,AccFast,1,0,Woman,Left,
20,5,1,0.6163384999999835,['c'],0,right,['9'],5,0.3182977999999821,0.1,0,AccFast,1,0,Woman,Left,
21,5,1,0.9170851000003495,['n'],1,right,['9'],5,0.33481239999991885,0.2,0,AccFast,1,0,Woman,Left,
22,5,1,1.3000498999999763,['c'],0,right,['9'],5,0.31618780000007973,0.2,0,AccFast,1,0,Woman,Left,
23,5,1,0.8492802000000665,['c'],1,left,['9'],5,0.25088229999983014,0.2,0,AccFast,1,0,Woman,Left,
24,5,1,1.4170752999998513,['c'],1,left,['9'],5,0.30093059999990146,0.2,0,AccFast,1,0,Woman,Left,
25,5,1,0.750204500000109,['c'],0,right,['9'],5,0.33402509999996255,0.1,0,AccFast,1,0,Woman,Left,
26,5,1,0.567814399999861,['c'],1,left,['9'],5,0.33377840000002834,0.1,0,AccFast,1,0,Woman,Left,
27,5,1,0.5826395999997658,['c'],1,left,['9'],5,0.35168279999970764,0.4,0,AccFast,1,0,Woman,Left,
28,5,1,0.7506429999998545,['c'],0,right,['9'],5,0.28409789999977875,0.2,0,AccFast,1,0,Woman,Left,
29,5,1,0.6831806999998662,['c'],1,left,['9'],5,0.28413739999996324,0.1,0,AccFast,1,0,Woman,Left,
30,5,1,0.5845629000000372,['c'],0,right,['9'],5,0.3179904999997234,0.4,0,AccFast,1,0,Woman,Left,
31,5,1,0.6331887999999708,['c'],1,left,['9'],5,0.31760320000012143,0.4,0,AccFast,1,0,Woman,Left,
32,5,1,0.650028999999904,['c'],1,left,['9'],5,0.2850596999996924,0.4,0,AccFast,1,0,Woman,Left,
33,5,1,1.7508910999999898,['n'],1,right,['9'],5,0.4008708999999726,0.1,0,AccFast,1,0,Woman,Left,
34,5,1,1.4175743999999213,['c'],0,right,['9'],5,0.4336412999996355,0.4,0,AccFast,1,0,Woman,Left,
35,5,1,1.1998881000004076,['n'],0,left,['9'],5,0.31745530000034705,0.2,0,AccFast,1,0,Woman,Left,
36,5,1,1.4831182000002627,['n'],1,right,['9'],5,0.33435430000008637,0.2,0,AccFast,1,0,Woman,Left,
37,5,1,1.1163683999998284,['c'],0,right,['9'],5,0.3681776000003083,0.1,0,AccFast,1,0,Woman,Left,
38,5,1,1.2669678000002023,['n'],1,right,['9'],5,0.468002599999636,0.4,0,AccFast,1,0,Woman,Left,
39,5,1,1.3170015000000603,['c'],0,right,['9'],5,0.31793610000022454,0.1,0,AccFast,1,0,Woman,Left,
40,5,1,1.7495669999998427,['n'],0,left,['9'],5,0.3011716000000888,0.1,0,AccFast,1,0,Woman,Left,
41,5,1,1.1001854999999523,['n'],1,right,['9'],5,0.35047960000019884,0.1,0,AccFast,1,0,Woman,Left,
42,5,1,0.8671362000000045,['n'],1,right,['9'],5,0.3515804999997272,0.4,0,AccFast,1,0,Woman,Left,
43,5,1,0.5348380000000361,['c'],0,right,['9'],5,0.46776820000013686,0.2,0,AccFast,1,0,Woman,Left,
44,5,1,0.7677011000000675,['c'],1,left,['9'],5,0.26806119999992006,0.4,0,AccFast,1,0,Woman,Left,
45,5,1,1.034001200000148,['c'],1,left,['9'],5,2.567717100000209,0.2,0,AccFast,1,0,Woman,Left,
46,5,1,1.3004516000000876,['c'],0,right,['9'],5,0.41748069999994186,0.1,0,AccFast,1,0,Woman,Left,
47,5,1,0.9016111999999339,['n'],1,right,['9'],5,0.3506541000001562,0.4,0,AccFast,1,0,Woman,Left,
48,5,1,1.4508617999999842,['c'],0,right,['8'],4,0.30141130000038174,0.2,0,AccFast,1,0,Woman,Left,
49,5,1,1.983012300000155,['c'],0,right,['8'],4,0.40061149999974077,0.2,0,AccFast,1,0,Woman,Left,
50,5,1,1.1173675999998522,['n'],0,left,['8'],4,0.3518813000000591,0.1,0,AccFast,1,0,Woman,Left,
51,5,1,1.0160005000002457,['c'],1,left,['8'],4,0.33563279999998485,0.4,0,AccFast,1,0,Woman,Left,
52,5,1,1.367072300000018,['c'],0,right,['8'],4,0.3344990999999027,0.4,0,AccFast,1,0,Woman,Left,
53,5,1,1.3499744000000646,['c'],1,left,['8'],4,0.4852720999997473,0.4,0,AccFast,1,0,Woman,Left,
54,5,1,1.0322353999999905,['c'],1,left,['8'],4,0.6859337999999298,0.2,0,AccFast,1,0,Woman,Left,
55,5,1,0.8829365999999936,['c'],1,left,['8'],4,0.6520187999999507,0.1,0,AccFast,1,0,Woman,Left,
56,5,1,0.6324688000004244,['c'],1,left,['8'],4,0.3687702999995963,0.4,0,AccFast,1,0,Woman,Left,
57,5,1,0.633611799999926,['c'],1,left,['8'],4,0.4349011999997856,0.2,0,AccFast,1,0,Woman,Left,
58,5,1,0.7338158999996267,['c'],1,left,['8'],4,0.3513642000002619,0.2,0,AccFast,1,0,Woman,Left,
59,5,1,0.6323512999997547,['c'],1,left,['9'],5,0.5859622999996645,0.1,0,AccFast,1,0,Woman,Left,
0,6,1,2.4178108000000975,['c'],0,right,['8'],4,0.4348024000000805,0.2,0,AccAcc,1,0,Woman,Left,
1,6,1,2.667148300000008,['n'],1,right,['8'],4,1.434242499999982,0.1,0,AccAcc,1,0,Woman,Left,
2,6,1,3.0995615000001635,['c'],0,right,['8'],4,0.8000629000002846,0.1,0,AccAcc,1,0,Woman,Left,
3,6,1,1.7664663999998993,['c'],0,right,['8'],4,0.4679378999999244,0.2,0,AccAcc,1,0,Woman,Left,
4,6,1,1.0503773000000365,['c'],1,left,['8'],4,0.26810299999988274,0.2,0,AccAcc,1,0,Woman,Left,
5,6,1,0.800566500000059,['c'],1,left,['8'],4,0.2676035999998021,0.4,0,AccAcc,1,0,Woman,Left,
6,6,1,0.5512071999996806,['n'],1,right,['8'],4,0.3012114000002839,0.4,0,AccAcc,1,0,Woman,Left,
7,6,1,0.7010083999998642,['c'],1,left,['8'],4,0.31825279999975464,0.4,0,AccAcc,1,0,Woman,Left,
8,6,1,0.4999265999999807,['n'],1,right,['8'],4,0.3334437000003163,0.2,0,AccAcc,1,0,Woman,Left,
9,6,1,0.7003387000004295,['c'],0,right,['8'],4,0.40143959999977596,0.2,0,AccAcc,1,0,Woman,Left,
10,6,1,0.7348003999995854,['n'],1,right,['8'],4,0.3517689000000246,0.2,0,AccAcc,1,0,Woman,Left,
11,6,1,1.5506028999998307,['c'],1,left,['8'],4,0.9174610999998549,0.2,0,AccAcc,1,0,Woman,Left,
12,6,1,1.9688450000003286,['c'],0,right,['8'],4,0.4013943999998446,0.1,0,AccAcc,1,0,Woman,Left,
13,6,1,0.6671053000000029,['c'],1,left,['8'],4,0.35122970000065834,0.2,0,AccAcc,1,0,Woman,Left,
14,6,1,0.7172316000005594,['c'],1,left,['8'],4,0.35146219999933237,0.1,0,AccAcc,1,0,Woman,Left,
15,6,1,0.7838331000002654,['n'],1,right,['8'],4,0.38366859999950975,0.4,0,AccAcc,1,0,Woman,Left,
16,6,1,1.3497700999996596,['c'],0,right,['8'],4,0.3527917000001253,0.1,0,AccAcc,1,0,Woman,Left,
17,6,1,1.4010320000006686,['c'],0,right,['8'],4,0.3013373000003412,0.2,0,AccAcc,1,0,Woman,Left,
18,6,1,0.7323471999998219,['c'],1,left,['8'],4,0.33555100000012317,0.4,0,AccAcc,1,0,Woman,Left,
19,6,1,0.9830145999994784,['c'],0,right,['8'],4,0.30135969999992085,0.4,0,AccAcc,1,0,Woman,Left,
20,6,1,0.9007958000001963,['c'],0,right,['8'],4,0.267939600000318,0.2,0,AccAcc,1,0,Woman,Left,
21,6,1,0.8679371999996874,['c'],1,left,['8'],4,0.3181610000001456,0.4,0,AccAcc,1,0,Woman,Left,
22,6,1,1.416454000000158,['n'],1,right,['9'],5,1.1346819999998843,0.2,0,AccAcc,1,0,Woman,Left,
23,6,1,1.4826102999995783,['c'],1,left,['8'],4,0.5513254000006782,0.4,0,AccAcc,1,0,Woman,Left,
24,6,1,0.9688313999995444,['c'],1,left,['8'],4,0.44986119999975926,0.1,0,AccAcc,1,0,Woman,Left,
25,6,1,1.4502669000003152,['c'],0,right,['8'],4,0.7180493999994724,0.2,0,AccAcc,1,0,Woman,Left,
26,6,1,0.8508136000000377,['c'],1,left,['8'],4,0.501518600000054,0.4,0,AccAcc,1,0,Woman,Left,
27,6,1,1.300807700000405,['n'],1,right,['9'],5,0.40113300000029994,0.4,0,AccAcc,1,0,Woman,Left,
28,6,1,1.3001899999999296,['c'],1,left,['8'],4,0.3506894000001921,0.2,0,AccAcc,1,0,Woman,Left,
29,6,1,0.8170747000003757,['n'],1,right,['8'],4,0.4511030000003302,0.4,0,AccAcc,1,0,Woman,Left,
30,6,1,0.6669794999997976,['c'],1,left,['8'],4,0.40131339999970805,0.2,0,AccAcc,1,0,Woman,Left,
31,6,1,0.7668145999996341,['c'],1,left,['8'],4,0.2847690999997212,0.4,0,AccAcc,1,0,Woman,Left,
32,6,1,0.7497438999998849,['n'],1,right,['8'],4,0.435503300000164,0.4,0,AccAcc,1,0,Woman,Left,
33,6,1,0.5339230999998108,['c'],1,left,['8'],4,0.3667718999995486,0.1,0,AccAcc,1,0,Woman,Left,
34,6,1,1.5169244999997318,['n'],0,left,['8'],4,0.33458729999983916,0.2,0,AccAcc,1,0,Woman,Left,
35,6,1,1.1829575000001569,['c'],0,right,['9'],5,0.6677678000005471,0.2,0,AccAcc,1,0,Woman,Left,
36,6,1,1.0495382999997673,['c'],1,left,['9'],5,0.3678782000006322,0.2,0,AccAcc,1,0,Woman,Left,
37,6,1,0.6499359999997978,['c'],1,left,['8'],4,0.4685859999999593,0.4,0,AccAcc,1,0,Woman,Left,
38,6,1,1.2156967999999324,['n'],0,left,['8'],4,0.45074469999963185,0.1,0,AccAcc,1,0,Woman,Left,
39,6,1,0.6165247000008094,['c'],1,left,['8'],4,0.26894280000033177,0.4,0,AccAcc,1,0,Woman,Left,
40,6,1,1.0495285999995758,['c'],0,right,['8'],4,0.3839663999997356,0.2,0,AccAcc,1,0,Woman,Left,
41,6,1,0.8329153000004226,['c'],1,left,['8'],4,0.3168409999998403,0.1,0,AccAcc,1,0,Woman,Left,
42,6,1,0.933115099999668,['c'],0,right,['8'],4,0.40212070000052336,0.1,0,AccAcc,1,0,Woman,Left,
43,6,1,0.6502064999995127,['c'],1,left,['8'],4,0.21799339999961376,0.4,0,AccAcc,1,0,Woman,Left,
44,6,1,1.266327999999703,['n'],1,right,['8'],4,0.38346399999954883,0.1,0,AccAcc,1,0,Woman,Left,
45,6,1,0.6174753999994209,['c'],1,left,['8'],4,0.28460769999946933,0.4,0,AccAcc,1,0,Woman,Left,
46,6,1,0.6838402000003043,['c'],1,left,['8'],4,0.3179990999997244,0.4,0,AccAcc,1,0,Woman,Left,
47,6,1,2.8016748000000007,['n'],1,right,['0'],6,0.5500785999993241,0.2,0,AccAcc,1,0,Woman,Left,
48,6,1,1.016881800000192,['c'],1,left,['8'],4,0.3513075000000754,0.1,0,AccAcc,1,0,Woman,Left,
49,6,1,2.716503100000409,['c'],0,right,['9'],5,0.6014556999998604,0.1,0,AccAcc,1,0,Woman,Left,
50,6,1,2.7658425999998144,['n'],0,left,['9'],5,0.8516885000008187,0.1,0,AccAcc,1,0,Woman,Left,
51,6,1,3.1834375999997064,['n'],0,left,['9'],5,0.7670673000002353,0.1,0,AccAcc,1,0,Woman,Left,
52,6,1,1.267493800000011,['n'],1,right,['9'],5,0.5012428,0.1,0,AccAcc,1,0,Woman,Left,
53,6,1,1.217405399999734,['c'],1,left,['9'],5,0.5008204999994632,0.1,0,AccAcc,1,0,Woman,Left,
54,6,1,1.8673734000003606,['c'],0,right,['2'],2,0.8179521000001841,0.2,0,AccAcc,1,0,Woman,Left,
55,6,1,1.7325251000002027,['n'],1,right,['2'],2,2.60188719999951,0.4,0,AccAcc,1,0,Woman,Left,
56,6,1,2.8501580000001923,['n'],1,right,['2'],2,1.034320900000239,0.1,0,AccAcc,1,0,Woman,Left,
57,6,1,1.2833965999998327,['c'],1,left,['9'],5,0.8681171999996877,0.4,0,AccAcc,1,0,Woman,Left,
58,6,1,2.150625299999774,['n'],1,right,['9'],5,0.6679978000001938,0.1,0,AccAcc,1,0,Woman,Left,
59,6,1,1.6330648000002839,['c'],1,left,['9'],5,0.38423210000019026,0.1,0,AccAcc,1,0,Woman,Left,
0,7,1,1.9174843000000692,['n'],0,left,['9'],5,0.768492399999559,0.1,0,FastAcc,1,0,Woman,Left,
1,7,1,0.9324219999998604,['c'],1,left,['9'],5,1.2176742999999988,0.4,0,FastAcc,1,0,Woman,Left,
2,7,1,1.1175569000006362,['c'],1,left,['9'],5,0.3680500000000393,0.2,0,FastAcc,1,0,Woman,Left,
3,7,1,0.8839120000002367,['n'],1,right,['9'],5,0.35199809999994613,0.1,0,FastAcc,1,0,Woman,Left,
4,7,1,1.1336989999999787,['c'],1,left,['9'],5,0.7841742999999042,0.4,0,FastAcc,1,0,Woman,Left,
5,7,1,1.067798699999912,['c'],0,right,['9'],5,0.6011625999999524,0.1,0,FastAcc,1,0,Woman,Left,
6,7,1,0.7830625999995391,['n'],1,right,['9'],5,0.35127840000041033,0.2,0,FastAcc,1,0,Woman,Left,
7,7,1,0.7512870999998995,['c'],1,left,['9'],5,0.5350803000001179,0.2,0,FastAcc,1,0,Woman,Left,
8,7,1,0.6493496000002779,['n'],1,right,['8'],4,0.5186711999995168,0.4,0,FastAcc,1,0,Woman,Left,
9,7,1,1.617728100000022,['c'],0,right,['9'],5,0.36810520000017277,0.1,0,FastAcc,1,0,Woman,Left,
10,7,1,0.8493002000004708,['n'],0,left,['9'],5,0.33540030000040133,0.1,0,FastAcc,1,0,Woman,Left,
11,7,1,0.5004776000005222,['c'],1,left,['3'],3,0.3167954999998983,0.2,0,FastAcc,1,0,Woman,Left,
12,7,1,0.6180296999991697,['n'],1,right,['9'],5,0.3014960999998948,0.4,0,FastAcc,1,0,Woman,Left,
13,7,1,0.7333760000001348,['c'],0,right,['3'],3,0.7674355999997715,0.2,0,FastAcc,1,0,Woman,Left,
14,7,1,1.350982599999952,['c'],0,right,['2'],2,0.41796550000071875,0.2,0,FastAcc,1,0,Woman,Left,
15,7,1,1.3156102000002647,['n'],1,right,['9'],5,0.38423490000059246,0.4,0,FastAcc,1,0,Woman,Left,
16,7,1,1.3012797000001228,['c'],1,left,['8'],4,0.8353531000002477,0.1,0,FastAcc,1,0,Woman,Left,
17,7,1,2.667083199999979,['n'],0,left,['1'],1,0.7693613000001278,0.1,0,FastAcc,1,0,Woman,Left,
18,7,1,1.4347930000003544,['n'],0,left,['1'],1,0.5347016999994594,0.1,0,FastAcc,1,0,Woman,Left,
19,7,1,0.8016155999994226,['n'],1,right,['1'],1,0.619465300000229,0.4,0,FastAcc,1,0,Woman,Left,
20,7,1,1.89954840000064,['c'],1,left,['9'],5,0.6681753000002573,0.2,0,FastAcc,1,0,Woman,Left,
21,7,1,0.7334961999995357,['n'],1,right,['9'],5,0.8331631999999445,0.4,0,FastAcc,1,0,Woman,Left,
22,7,1,3.534292600000299,['n'],1,right,['8'],4,0.817513300000428,0.1,0,FastAcc,1,0,Woman,Left,
23,7,1,1.4842389000004914,['c'],1,left,['8'],4,1.0005251000002318,0.2,0,FastAcc,1,0,Woman,Left,
24,7,1,2.2162442000008014,['c'],1,left,['9'],5,0.6842698999998902,0.1,0,FastAcc,1,0,Woman,Left,
25,7,1,1.8831182000003537,['n'],1,right,['9'],5,0.6517500999998447,0.4,0,FastAcc,1,0,Woman,Left,
26,7,1,1.3839326000006622,['c'],1,left,['8'],4,1.1008862000007866,0.4,0,FastAcc,1,0,Woman,Left,
27,7,1,1.9838219000002937,['c'],1,left,['8'],4,0.36804879999999685,0.1,0,FastAcc,1,0,Woman,Left,
28,7,1,0.8349841999997807,['n'],1,right,['8'],4,0.4172329000002719,0.4,0,FastAcc,1,0,Woman,Left,
29,7,1,0.866425000000163,['n'],1,right,['8'],4,0.4176287999998749,0.4,0,FastAcc,1,0,Woman,Left,
30,7,1,0.917429500000253,['c'],1,left,['8'],4,0.5844688000006499,0.1,0,FastAcc,1,0,Woman,Left,
31,7,1,2.0176563000004535,['n'],1,right,['2'],2,1.3179234999997789,0.1,0,FastAcc,1,0,Woman,Left,
32,7,1,1.316844800000581,['c'],1,left,['8'],4,0.5342015999995056,0.4,0,FastAcc,1,0,Woman,Left,
33,7,1,1.4163018999997803,['c'],1,left,['8'],4,0.6682943000005253,0.4,0,FastAcc,1,0,Woman,Left,
34,7,1,1.633517700000084,['c'],1,left,['8'],4,0.6018131999999241,0.1,0,FastAcc,1,0,Woman,Left,
35,7,1,2.3001610999999684,['c'],0,right,['9'],5,0.6682149999996909,0.2,0,FastAcc,1,0,Woman,Left,
36,7,1,1.0002896000005421,['c'],1,left,['9'],5,0.43409709999923507,0.2,0,FastAcc,1,0,Woman,Left,
37,7,1,2.2499281000000337,['n'],1,right,['9'],5,0.4678715000000011,0.4,0,FastAcc,1,0,Woman,Left,
38,7,1,0.9170442999993611,['c'],1,left,['9'],5,0.6520904999997583,0.2,0,FastAcc,1,0,Woman,Left,
39,7,1,1.183929399999215,['n'],1,right,['9'],5,0.36777770000026067,0.4,0,FastAcc,1,0,Woman,Left,
40,7,1,1.4157818999992742,['n'],1,right,['9'],5,0.35243329999957496,0.4,0,FastAcc,1,0,Woman,Left,
41,7,1,0.6166628999999375,['n'],1,right,['9'],5,0.269173800000317,0.2,0,FastAcc,1,0,Woman,Left,
42,7,1,0.8668647000004057,['n'],1,right,['9'],5,0.3667398999996294,0.1,0,FastAcc,1,0,Woman,Left,
43,7,1,1.517049300000508,['c'],1,left,['9'],5,0.4016694000001735,0.2,0,FastAcc,1,0,Woman,Left,
44,7,1,1.1011865999998918,['n'],1,right,['9'],5,0.3179928999998083,0.2,0,FastAcc,1,0,Woman,Left,
45,7,1,0.9330208999999741,['c'],1,left,['9'],5,0.3183641000005082,0.4,0,FastAcc,1,0,Woman,Left,
46,7,1,0.7836998000002495,['n'],1,right,['9'],5,0.31645209999987856,0.2,0,FastAcc,1,0,Woman,Left,
47,7,1,1.168223699999544,['c'],1,left,['9'],5,0.38563130000056844,0.2,0,FastAcc,1,0,Woman,Left,
48,7,1,1.1498977999999624,['c'],1,left,['9'],5,0.2504602999997587,0.4,0,FastAcc,1,0,Woman,Left,
49,7,1,1.0004905999994662,['n'],1,right,['9'],5,0.36803169999984675,0.2,0,FastAcc,1,0,Woman,Left,
50,7,1,1.0504151999994065,['c'],1,left,['9'],5,0.335354499999994,0.1,0,FastAcc,1,0,Woman,Left,
51,7,1,1.9979620000003706,['n'],1,right,['2'],2,0.5689563999994789,0.1,0,FastAcc,1,0,Woman,Left,
52,7,1,1.0988295000006474,['n'],1,right,['9'],5,0.39990149999994173,0.2,0,FastAcc,1,0,Woman,Left,
53,7,1,2.200957500000186,['n'],1,right,['2'],2,0.3513849000000846,0.1,0,FastAcc,1,0,Woman,Left,
54,7,1,0.7837874000006195,['c'],1,left,['2'],2,0.4179327000001649,0.2,0,FastAcc,1,0,Woman,Left,
55,7,1,1.1173992000003636,['c'],1,left,['9'],5,0.40154900000015914,0.2,0,FastAcc,1,0,Woman,Left,
56,7,1,0.8016683999994711,['c'],1,left,['9'],5,0.33489079999981186,0.4,0,FastAcc,1,0,Woman,Left,
57,7,1,1.5340167999993355,['c'],1,left,['9'],5,0.3518074000003253,0.1,0,FastAcc,1,0,Woman,Left,
58,7,1,1.166853199999423,['n'],1,right,['9'],5,0.40199479999955656,0.4,0,FastAcc,1,0,Woman,Left,
59,7,1,2.781617099999494,['n'],1,right,['2'],2,0.4509669999997641,0.1,0,FastAcc,1,0,Woman,Left,
0,8,1,1.4501693000001978,['c'],1,left,['8'],4,0.50150769999982,0.4,0,FastFast,1,0,Woman,Left,
1,8,1,0.9318830000001981,['c'],1,left,['9'],5,0.30026480000015,0.4,0,FastFast,1,0,Woman,Left,
2,8,1,1.3161190999999235,['c'],0,right,['2'],2,0.5352226000004521,0.2,0,FastFast,1,0,Woman,Left,
3,8,1,0.7340003999997862,['c'],0,right,['2'],2,0.6191781000006813,0.1,0,FastFast,1,0,Woman,Left,
4,8,1,1.3173127000000022,['n'],1,right,['9'],5,0.3335594999998648,0.4,0,FastFast,1,0,Woman,Left,
5,8,1,1.4507570000005217,['c'],0,right,['9'],5,0.33538769999995566,0.4,0,FastFast,1,0,Woman,Left,
6,8,1,1.2999669000000722,['c'],1,left,['9'],5,0.5012602999995579,0.4,0,FastFast,1,0,Woman,Left,
7,8,1,0.7836557000000539,['c'],1,left,['8'],4,0.3018174999997427,0.4,0,FastFast,1,0,Woman,Left,
8,8,1,0.6819179000003714,['c'],1,left,['8'],4,0.36893030000010185,0.1,0,FastFast,1,0,Woman,Left,
9,8,1,0.8007029999998849,['n'],1,right,['9'],5,0.45107090000055905,0.1,0,FastFast,1,0,Woman,Left,
10,8,1,0.7171489000002111,['c'],0,right,['9'],5,0.3176746999997704,0.1,0,FastFast,1,0,Woman,Left,
11,8,1,0.7007721999998466,['c'],1,left,['9'],5,0.36890869999933784,0.2,0,FastFast,1,0,Woman,Left,
12,8,1,1.183343199999399,['c'],0,right,['2'],2,0.48410599999988335,0.1,0,FastFast,1,0,Woman,Left,
13,8,1,1.0835503999996945,['c'],0,right,['2'],2,0.4505736999999499,0.2,0,FastFast,1,0,Woman,Left,
14,8,1,0.9490336999997453,['c'],1,left,['9'],5,0.7006670999999187,0.4,0,FastFast,1,0,Woman,Left,
15,8,1,0.7678467999994609,['c'],1,left,['9'],5,0.28501500000038504,0.1,0,FastFast,1,0,Woman,Left,
16,8,1,1.2001594000003024,['c'],0,right,['2'],2,0.40101009999943926,0.1,0,FastFast,1,0,Woman,Left,
17,8,1,0.8843472999997175,['c'],0,right,['2'],2,1.5997007000005397,0.1,0,FastFast,1,0,Woman,Left,
18,8,1,0.8670941000000312,['c'],0,right,['2'],2,0.40233319999970263,0.2,0,FastFast,1,0,Woman,Left,
19,8,1,1.1827119999998104,['c'],1,left,['9'],5,0.40098049999960494,0.2,0,FastFast,1,0,Woman,Left,
20,8,1,1.0827168999994683,['c'],0,right,['2'],2,0.43496899999991,0.1,0,FastFast,1,0,Woman,Left,
21,8,1,2.633400900000197,['c'],0,right,['2'],2,0.3503710000004503,0.2,0,FastFast,1,0,Woman,Left,
22,8,1,1.133966400000645,['c'],1,left,['2'],2,0.3503915000001143,0.2,0,FastFast,1,0,Woman,Left,
23,8,1,1.9493020999998407,['n'],0,left,['9'],5,0.3508568000006562,0.2,0,FastFast,1,0,Woman,Left,
24,8,1,0.9653528999997434,['n'],1,right,['9'],5,0.31853569999930187,0.4,0,FastFast,1,0,Woman,Left,
25,8,1,1.2484175999998115,['n'],1,right,['9'],5,0.30244459999994433,0.4,0,FastFast,1,0,Woman,Left,
26,8,1,1.1989387000003262,['c'],1,left,['9'],5,0.5686914999996588,0.2,0,FastFast,1,0,Woman,Left,
27,8,1,1.3822825999995985,['c'],1,left,['9'],5,1.1518119000002116,0.2,0,FastFast,1,0,Woman,Left,
28,8,1,1.3839507000002413,['c'],1,left,['9'],5,0.7512139000000388,0.2,0,FastFast,1,0,Woman,Left,
29,8,1,1.0342670999998518,['c'],1,left,['9'],5,0.3514465999996901,0.2,0,FastFast,1,0,Woman,Left,
30,8,1,1.367033800000172,['c'],0,right,['8'],4,0.6189662000006138,0.2,0,FastFast,1,0,Woman,Left,
31,8,1,1.1328151999996408,['c'],0,right,['8'],4,0.3353219000000536,0.1,0,FastFast,1,0,Woman,Left,
32,8,1,0.8830563999999868,['c'],0,right,['9'],5,0.40130820000013046,0.2,0,FastFast,1,0,Woman,Left,
33,8,1,0.950337700000091,['c'],1,left,['8'],4,0.26799300000038784,0.2,0,FastFast,1,0,Woman,Left,
34,8,1,1.2499306999998225,['c'],1,left,['8'],4,0.5344906000000265,0.2,0,FastFast,1,0,Woman,Left,
35,8,1,1.1167148999993515,['c'],0,right,['8'],4,0.44952120000016293,0.2,0,FastFast,1,0,Woman,Left,
36,8,1,0.7682485000004817,['c'],1,left,['8'],4,0.43316020000020217,0.2,0,FastFast,1,0,Woman,Left,
37,8,1,0.9514454000000114,['c'],1,left,['8'],4,0.36841779999940627,0.1,0,FastFast,1,0,Woman,Left,
38,8,1,0.517740600000252,['c'],1,left,['8'],4,0.4179696999999578,0.4,0,FastFast,1,0,Woman,Left,
39,8,1,1.5013066000001345,['n'],1,right,['8'],4,0.7686710000007224,0.4,0,FastFast,1,0,Woman,Left,
40,8,1,0.601756099999875,['c'],1,left,['8'],4,0.5169764000002033,0.1,0,FastFast,1,0,Woman,Left,
41,8,1,0.4502299000005223,['c'],0,right,['8'],4,0.6006007999994836,0.1,0,FastFast,1,0,Woman,Left,
42,8,1,0.7344370000000708,['c'],1,left,['8'],4,0.5011515000005602,0.1,0,FastFast,1,0,Woman,Left,
43,8,1,0.599885899999208,['c'],1,left,['8'],4,0.4513845000001311,0.4,0,FastFast,1,0,Woman,Left,
44,8,1,0.7671130000007906,['c'],0,right,['8'],4,0.4844708000000537,0.1,0,FastFast,1,0,Woman,Left,
45,8,1,0.668291699999827,['c'],1,left,['8'],4,0.4674873000003572,0.4,0,FastFast,1,0,Woman,Left,
46,8,1,0.7670621999996001,['c'],1,left,['8'],4,0.5179273000003377,0.1,0,FastFast,1,0,Woman,Left,
47,8,1,0.5996168000001489,['c'],1,left,['8'],4,0.4193124000003081,0.2,0,FastFast,1,0,Woman,Left,
48,8,1,0.834878700000445,['c'],0,right,['8'],4,0.3520247999995263,0.1,0,FastFast,1,0,Woman,Left,
49,8,1,0.5676320000002306,['c'],1,left,['8'],4,0.26801999999952386,0.4,0,FastFast,1,0,Woman,Left,
50,8,1,0.6329257999996116,['c'],1,left,['8'],4,0.3002958999995826,0.1,0,FastFast,1,0,Woman,Left,
51,8,1,0.6502181999994718,['c'],1,left,['8'],4,0.2857837000001382,0.4,0,FastFast,1,0,Woman,Left,
52,8,1,2.15017540000008,['n'],1,right,['2'],2,0.8507838000004995,0.4,0,FastFast,1,0,Woman,Left,
53,8,1,1.4827258000004804,['c'],1,left,['9'],5,0.4177989999998317,0.4,0,FastFast,1,0,Woman,Left,
54,8,1,2.849759100000483,['c'],0,right,['2'],2,1.1516399000001911,0.1,0,FastFast,1,0,Woman,Left,
55,8,1,1.9994174000003113,['c'],0,right,['2'],2,1.201796600000307,0.1,0,FastFast,1,0,Woman,Left,
56,8,1,0.7503681000007418,['n'],1,right,['9'],5,0.4680017999999109,0.2,0,FastFast,1,0,Woman,Left,
57,8,1,0.9669864000006783,['n'],1,right,['9'],5,0.33476250000057917,0.4,0,FastFast,1,0,Woman,Left,
58,8,1,1.400738100000126,['n'],1,right,['9'],5,0.38338979999934963,0.4,0,FastFast,1,0,Woman,Left,
59,8,1,1.4009722000000693,['c'],0,right,['9'],5,0.4679104999995616,0.4,0,FastFast,1,0,Woman,Left,
0,9,1,2.234667800000352,['c'],1,left,['2'],2,0.45118600000023434,0.1,0,AccFast,1,0,Woman,Left,
1,9,1,1.416156699999192,['n'],1,right,['9'],5,0.5170436999997037,0.4,0,AccFast,1,0,Woman,Left,
2,9,1,0.5837552000002688,['c'],1,left,['2'],2,0.43352799999956915,0.4,0,AccFast,1,0,Woman,Left,
3,9,1,0.8006475000001956,['n'],1,right,['9'],5,0.351813399999628,0.4,0,AccFast,1,0,Woman,Left,
4,9,1,0.667347399999926,['c'],1,left,['9'],5,0.25135860000045795,0.4,0,AccFast,1,0,Woman,Left,
5,9,1,2.4321427000004405,['c'],0,right,['2'],2,0.2690613000004305,0.2,0,AccFast,1,0,Woman,Left,
6,9,1,1.2985515000000305,['n'],1,right,['9'],5,0.3192296000006536,0.4,0,AccFast,1,0,Woman,Left,
7,9,1,0.6836178000003201,['n'],1,right,['9'],5,0.3013564000002589,0.4,0,AccFast,1,0,Woman,Left,
8,9,1,1.2502329999997528,['c'],1,left,['9'],5,0.3503534999999829,0.1,0,AccFast,1,0,Woman,Left,
9,9,1,2.6336490000003323,['c'],1,left,['9'],5,0.38391800000044896,0.1,0,AccFast,1,0,Woman,Left,
10,9,1,0.6657462000002852,['n'],1,right,['9'],5,0.5179329000002326,0.4,0,AccFast,1,0,Woman,Left,
11,9,1,2.4828026000004684,['n'],1,right,['9'],5,0.602510099999563,0.4,0,AccFast,1,0,Woman,Left,
12,9,1,0.8675241999999344,['c'],1,left,['8'],4,0.6843856999994387,0.4,0,AccFast,1,0,Woman,Left,
13,9,1,3.749686699999984,['c'],1,left,['8'],4,1.2676068999999188,0.1,0,AccFast,1,0,Woman,Left,
14,9,1,0.7678544000000329,['n'],1,right,['9'],5,0.7002361000004385,0.4,0,AccFast,1,0,Woman,Left,
15,9,1,0.8009047000005012,['c'],1,left,['8'],4,0.5849979000004168,0.2,0,AccFast,1,0,Woman,Left,
16,9,1,0.8838341999999102,['c'],1,left,['8'],4,0.35133810000024823,0.1,0,AccFast,1,0,Woman,Left,
17,9,1,0.7010362999999415,['c'],1,left,['8'],4,0.4013377000001128,0.2,0,AccFast,1,0,Woman,Left,
18,9,1,0.7668518999998923,['n'],1,right,['8'],4,0.3519572999994125,0.2,0,AccFast,1,0,Woman,Left,
19,9,1,2.649711699999898,['c'],0,right,['2'],2,0.41800919999968755,0.2,0,AccFast,1,0,Woman,Left,
20,9,1,2.599053800000547,['c'],0,right,['2'],2,0.43540180000036344,0.1,0,AccFast,1,0,Woman,Left,
21,9,1,1.2009601999998267,['c'],1,left,['9'],5,0.3844495999992432,0.1,0,AccFast,1,0,Woman,Left,
22,9,1,0.7510519000006752,['c'],1,left,['8'],4,0.6334894000001441,0.1,0,AccFast,1,0,Woman,Left,
23,9,1,2.866591399999379,['c'],0,right,['2'],2,0.7345864000008078,0.1,0,AccFast,1,0,Woman,Left,
24,9,1,3.117207000000235,['c'],0,right,['9'],5,1.1011951999998928,0.1,0,AccFast,1,0,Woman,Left,
25,9,1,4.283344599999509,['n'],1,right,['9'],5,0.7512511000004451,0.1,0,AccFast,1,0,Woman,Left,
26,9,1,1.2170580000001792,['n'],1,right,['8'],4,0.4340440000005401,0.4,0,AccFast,1,0,Woman,Left,
27,9,1,1.5159639000003153,['n'],1,right,['9'],5,0.6331279000005452,0.2,0,AccFast,1,0,Woman,Left,
28,9,1,0.7330254999997123,['c'],0,right,['9'],5,1.2848144999998112,0.1,0,AccFast,1,0,Woman,Left,
29,9,1,1.1162967000000208,['c'],1,left,['8'],4,1.1000966999999946,0.4,0,AccFast,1,0,Woman,Left,
30,9,1,1.468195000000378,['c'],1,left,['2'],2,1.1002532000002248,0.2,0,AccFast,1,0,Woman,Left,
31,9,1,0.8511637000001429,['c'],1,left,['2'],2,0.4015752000004795,0.1,0,AccFast,1,0,Woman,Left,
32,9,1,1.1670744000002742,['c'],0,right,['2'],2,0.3516042000001107,0.2,0,AccFast,1,0,Woman,Left,
33,9,1,0.683150800000476,['n'],0,left,['9'],5,0.9678693999994721,0.4,0,AccFast,1,0,Woman,Left,
34,9,1,0.8666129999992336,['n'],1,right,['8'],4,0.4512565999993967,0.1,0,AccFast,1,0,Woman,Left,
35,9,1,1.3521493999996892,['n'],0,left,['8'],4,0.26787140000033105,0.1,0,AccFast,1,0,Woman,Left,
36,9,1,0.7828940000008515,['n'],0,left,['8'],4,0.3016546999997445,0.2,0,AccFast,1,0,Woman,Left,
37,9,1,0.8017295999998169,['n'],0,left,['8'],4,0.3184363000000303,0.1,0,AccFast,1,0,Woman,Left,
38,9,1,2.4333402000002025,['c'],0,right,['9'],5,1.0011806000002252,0.2,0,AccFast,1,0,Woman,Left,
39,9,1,1.6004265000001396,['c'],1,left,['9'],5,1.2338735000002998,0.4,0,AccFast,1,0,Woman,Left,
40,9,1,2.501757500000167,['n'],1,right,['9'],5,0.9507665999999517,0.4,0,AccFast,1,0,Woman,Left,
41,9,1,1.6177535000006174,['c'],1,left,['9'],5,0.9012209000002258,0.4,0,AccFast,1,0,Woman,Left,
42,9,1,1.550008500000331,['n'],1,right,['9'],5,0.5179550000002564,0.2,0,AccFast,1,0,Woman,Left,
43,9,1,0.8837748999994801,['c'],1,left,['8'],4,0.951987100000224,0.4,0,AccFast,1,0,Woman,Left,
44,9,1,0.7328797999998642,['c'],1,left,['8'],4,0.2829506999996738,0.2,0,AccFast,1,0,Woman,Left,
45,9,1,2.4017155999999886,['c'],0,right,['8'],4,0.4178647999997338,0.1,0,AccFast,1,0,Woman,Left,
46,9,1,0.7505271999998513,['c'],1,left,['8'],4,0.38482440000007045,0.4,0,AccFast,1,0,Woman,Left,
47,9,1,0.5336335000001782,['c'],1,left,['8'],4,0.29996050000045216,0.4,0,AccFast,1,0,Woman,Left,
48,9,1,1.6508797999995295,['n'],1,right,['9'],5,0.5662756000001536,0.2,0,AccFast,1,0,Woman,Left,
49,9,1,2.550823799999307,['n'],1,right,['9'],5,0.3683879000000161,0.2,0,AccFast,1,0,Woman,Left,
50,9,1,1.6504432000001543,['c'],1,left,['9'],5,0.4846499999994194,0.1,0,AccFast,1,0,Woman,Left,
51,9,1,2.2497637999995277,['c'],1,left,['9'],5,0.38435560000016267,0.2,0,AccFast,1,0,Woman,Left,
52,9,1,1.1996847000000344,['n'],1,right,['9'],5,0.31835230000069714,0.2,0,AccFast,1,0,Woman,Left,
53,9,1,1.9344308999998248,['c'],1,left,['2'],2,0.6015531000002738,0.1,0,AccFast,1,0,Woman,Left,
54,9,1,1.7160446999996566,['c'],0,right,['8'],4,0.5019618000005721,0.1,0,AccFast,1,0,Woman,Left,
55,9,1,2.5162556999994194,['n'],1,right,['0'],6,1.3847251999995933,0.2,0,AccFast,1,0,Woman,Left,
56,9,1,2.1671236000001954,['n'],1,right,['9'],5,0.25022509999962494,0.2,0,AccFast,1,0,Woman,Left,
57,9,1,1.1674503000003824,['n'],1,right,['9'],5,0.33390480000070966,0.2,0,AccFast,1,0,Woman,Left,
58,9,1,1.100467000000208,['n'],0,left,['9'],5,0.41726399999970454,0.2,0,AccFast,1,0,Woman,Left,
59,9,1,0.9010004000001572,['c'],1,left,['2'],2,1.402171300000191,0.4,0,AccFast,1,0,Woman,Left,
0,10,1,2.8176462000001266,['c'],1,left,['2'],2,1.1825617999993483,0.1,0,AccAcc,1,0,Woman,Left,
1,10,1,0.9507982000004631,['c'],1,left,['2'],2,0.5684842000000572,0.1,0,AccAcc,1,0,Woman,Left,
2,10,1,1.0667327999999543,['c'],0,right,['2'],2,0.9680209999996805,0.1,0,AccAcc,1,0,Woman,Left,
3,10,1,2.266097400000035,['c'],0,right,['9'],5,0.7682118999991872,0.2,0,AccAcc,1,0,Woman,Left,
4,10,1,1.0163336000005074,['c'],0,right,['8'],4,0.518192700000327,0.2,0,AccAcc,1,0,Woman,Left,
5,10,1,0.8324539999994158,['c'],1,left,['8'],4,0.2678205000001981,0.4,0,AccAcc,1,0,Woman,Left,
6,10,1,1.516759699999966,['n'],1,right,['8'],4,0.5508199000005334,0.4,0,AccAcc,1,0,Woman,Left,
7,10,1,1.0664766999998392,['n'],1,right,['9'],5,0.4520327999998699,0.2,0,AccAcc,1,0,Woman,Left,
8,10,1,1.2333621999996467,['c'],1,left,['9'],5,0.8857246999996278,0.4,0,AccAcc,1,0,Woman,Left,
9,10,1,2.567656100000022,['c'],1,left,['9'],5,0.6512456999998903,0.4,0,AccAcc,1,0,Woman,Left,
10,10,1,0.8843319999996311,['c'],0,right,['9'],5,0.3846339000001535,0.2,0,AccAcc,1,0,Woman,Left,
11,10,1,2.3501114999999118,['c'],1,left,['9'],5,0.36806220000016765,0.2,0,AccAcc,1,0,Woman,Left,
12,10,1,0.833693100000346,['n'],1,right,['9'],5,0.35131839999939984,0.4,0,AccAcc,1,0,Woman,Left,
13,10,1,0.6333342999996603,['c'],0,right,['9'],5,0.38393730000007054,0.2,0,AccAcc,1,0,Woman,Left,
14,10,1,0.7341670999994676,['c'],1,left,['9'],5,0.25179580000076385,0.2,0,AccAcc,1,0,Woman,Left,
15,10,1,1.2491575999993074,['n'],1,right,['9'],5,0.3853549000004932,0.4,0,AccAcc,1,0,Woman,Left,
16,10,1,1.1836934000002657,['n'],1,right,['9'],5,0.30123060000005353,0.1,0,AccAcc,1,0,Woman,Left,
17,10,1,1.299943500000154,['c'],1,left,['9'],5,0.45186310000008234,0.1,0,AccAcc,1,0,Woman,Left,
18,10,1,1.4165485000003173,['c'],1,left,['9'],5,0.35137960000065505,0.1,0,AccAcc,1,0,Woman,Left,
19,10,1,1.016448099999252,['n'],1,right,['9'],5,0.5015247000001182,0.2,0,AccAcc,1,0,Woman,Left,
20,10,1,1.217071500000202,['c'],1,left,['9'],5,0.45118710000042483,0.1,0,AccAcc,1,0,Woman,Left,
21,10,1,0.9346036999995704,['n'],1,right,['9'],5,0.30141530000037164,0.4,0,AccAcc,1,0,Woman,Left,
22,10,1,0.8343965000003664,['c'],1,left,['9'],5,0.30170280000038474,0.2,0,AccAcc,1,0,Woman,Left,
23,10,1,1.2837453000001915,['n'],1,right,['9'],5,0.35135230000014417,0.4,0,AccAcc,1,0,Woman,Left,
24,10,1,0.7843865999993795,['c'],1,left,['9'],5,0.3514967000000979,0.4,0,AccAcc,1,0,Woman,Left,
25,10,1,1.3172533000006297,['n'],1,right,['9'],5,0.31677750000017113,0.2,0,AccAcc,1,0,Woman,Left,
26,10,1,2.9003670000001875,['c'],1,left,['9'],5,0.3177694000005431,0.4,0,AccAcc,1,0,Woman,Left,
27,10,1,0.7176872000000003,['c'],1,left,['9'],5,0.2679551999999603,0.4,0,AccAcc,1,0,Woman,Left,
28,10,1,0.6497339999996257,['c'],1,left,['8'],4,0.6002271000006658,0.4,0,AccAcc,1,0,Woman,Left,
29,10,1,0.6492744000006496,['n'],1,right,['8'],4,0.3179030999999668,0.4,0,AccAcc,1,0,Woman,Left,
30,10,1,1.8004649000004065,['n'],1,right,['2'],2,0.9350683000002391,0.1,0,AccAcc,1,0,Woman,Left,
31,10,1,2.0326016000008167,['c'],1,left,['8'],4,0.385091499999362,0.4,0,AccAcc,1,0,Woman,Left,
32,10,1,4.933351499999844,['c'],0,right,['2'],2,0.7013697000002139,0.2,0,AccAcc,1,0,Woman,Left,
33,10,1,0.9014554000004864,['n'],1,right,['9'],5,0.9496485999998185,0.4,0,AccAcc,1,0,Woman,Left,
34,10,1,1.0668924999999945,['c'],0,right,['8'],4,0.8857052000003023,0.2,0,AccAcc,1,0,Woman,Left,
35,10,1,1.0332251999998334,['c'],1,left,['8'],4,1.201350999999704,0.1,0,AccAcc,1,0,Woman,Left,
36,10,1,1.0679628999996567,['n'],1,right,['8'],4,0.668055899999672,0.4,0,AccAcc,1,0,Woman,Left,
37,10,1,0.9333223999992697,['c'],1,left,['8'],4,0.5191916000003403,0.2,0,AccAcc,1,0,Woman,Left,
38,10,1,0.8831571000000622,['n'],0,left,['8'],4,0.418337099999917,0.1,0,AccAcc,1,0,Woman,Left,
39,10,1,0.7336629999999786,['c'],1,left,['8'],4,0.284857199999351,0.2,0,AccAcc,1,0,Woman,Left,
40,10,1,0.5492336999996041,['c'],1,left,['9'],5,0.6012343000002147,0.1,0,AccAcc,1,0,Woman,Left,
41,10,1,1.9320479999996678,['n'],1,right,['9'],5,0.40080080000007,0.2,0,AccAcc,1,0,Woman,Left,
42,10,1,2.1354663999991317,['c'],1,left,['9'],5,0.5681476999998267,0.2,0,AccAcc,1,0,Woman,Left,
43,10,1,0.9835655999995652,['c'],1,left,['9'],5,0.9338233999997101,0.1,0,AccAcc,1,0,Woman,Left,
44,10,1,0.8493607000000338,['c'],0,right,['8'],4,0.3013620000001538,0.2,0,AccAcc,1,0,Woman,Left,
45,10,1,2.000446099999863,['c'],0,right,['9'],5,0.9003402999996979,0.2,0,AccAcc,1,0,Woman,Left,
46,10,1,1.4837272000004305,['n'],1,right,['9'],5,0.7339657000002262,0.1,0,AccAcc,1,0,Woman,Left,
47,10,1,1.3320675000004485,['c'],0,right,['9'],5,0.468870099999549,0.4,0,AccAcc,1,0,Woman,Left,
48,10,1,1.11478519999946,['c'],0,right,['9'],5,0.3507950000002893,0.1,0,AccAcc,1,0,Woman,Left,
49,10,1,2.53328590000001,['c'],0,right,['9'],5,0.3674570000002859,0.2,0,AccAcc,1,0,Woman,Left,
50,10,1,1.1181397999998808,['c'],0,right,['9'],5,0.33517420000043785,0.1,0,AccAcc,1,0,Woman,Left,
51,10,1,1.6499556999997367,['c'],1,left,['9'],5,0.9679863000001205,0.1,0,AccAcc,1,0,Woman,Left,
52,10,1,1.3495155000000523,['n'],0,left,['9'],5,0.4181505999995352,0.1,0,AccAcc,1,0,Woman,Left,
53,10,1,2.3656942000006893,['c'],0,right,['9'],5,0.3013348999993468,0.1,0,AccAcc,1,0,Woman,Left,
54,10,1,0.951102300000457,['n'],1,right,['9'],5,0.46712010000010196,0.4,0,AccAcc,1,0,Woman,Left,
55,10,1,1.5667430999992575,['c'],1,left,['9'],5,0.4681483999993361,0.4,0,AccAcc,1,0,Woman,Left,
56,10,1,1.1673273999995217,['c'],1,left,['9'],5,0.4669989000003625,0.2,0,AccAcc,1,0,Woman,Left,
57,10,1,1.9492664999997942,['n'],0,left,['9'],5,0.5677353999999468,0.1,0,AccAcc,1,0,Woman,Left,
58,10,1,0.9165041999995083,['c'],1,left,['9'],5,0.2672578000001522,0.4,0,AccAcc,1,0,Woman,Left,
59,10,1,1.0667696999998952,['c'],1,left,['9'],5,0.33505150000019057,0.1,0,AccAcc,1,0,Woman,Left,
0,11,1,1.383404000000155,['c'],1,left,['9'],5,0.26773899999989226,0.4,0,FastAcc,1,0,Woman,Left,
1,11,1,0.7511310999998386,['n'],1,right,['9'],5,0.21791659999962576,0.1,0,FastAcc,1,0,Woman,Left,
2,11,1,1.2508403000001636,['n'],1,right,['9'],5,0.23348489999989397,0.4,0,FastAcc,1,0,Woman,Left,
3,11,1,0.5665533000001233,['c'],1,left,['9'],5,0.26686359999985143,0.1,0,FastAcc,1,0,Woman,Left,
4,11,1,0.9491570000000138,['n'],1,right,['9'],5,0.36879810000027646,0.2,0,FastAcc,1,0,Woman,Left,
5,11,1,1.9010093000006236,['c'],1,left,['9'],5,0.25001500000053056,0.2,0,FastAcc,1,0,Woman,Left,
6,11,1,0.7667760999993334,['n'],1,right,['9'],5,0.20133370000075956,0.1,0,FastAcc,1,0,Woman,Left,
7,11,1,0.582081499999731,['c'],1,left,['9'],5,0.48507819999940693,0.4,0,FastAcc,1,0,Woman,Left,
8,11,1,1.4504162000002907,['n'],0,left,['9'],5,0.33454619999974966,0.1,0,FastAcc,1,0,Woman,Left,
9,11,1,0.6665806999999404,['c'],1,left,['9'],5,0.5841719999998531,0.1,0,FastAcc,1,0,Woman,Left,
10,11,1,0.8522433999996792,['c'],1,left,['9'],5,0.3009836000001087,0.2,0,FastAcc,1,0,Woman,Left,
11,11,1,0.6672551999999996,['n'],1,right,['9'],5,0.28294459999960964,0.4,0,FastAcc,1,0,Woman,Left,
12,11,1,0.5019406000001254,['c'],1,left,['9'],5,0.31799560000035854,0.1,0,FastAcc,1,0,Woman,Left,
13,11,1,0.6836957000004986,['n'],1,right,['9'],5,0.3680193000000145,0.2,0,FastAcc,1,0,Woman,Left,
14,11,1,0.4670829999995476,['c'],1,left,['9'],5,0.31660329999976966,0.2,0,FastAcc,1,0,Woman,Left,
15,11,1,0.4835997000000134,['n'],1,right,['9'],5,0.3344790999999532,0.1,0,FastAcc,1,0,Woman,Left,
16,11,1,0.8341317000003983,['n'],1,right,['9'],5,0.31776239999999234,0.4,0,FastAcc,1,0,Woman,Left,
17,11,1,0.6838322000003245,['c'],1,left,['9'],5,0.2681767999993099,0.1,0,FastAcc,1,0,Woman,Left,
18,11,1,0.6002865000000384,['n'],1,right,['9'],5,0.33336599999984173,0.1,0,FastAcc,1,0,Woman,Left,
19,11,1,0.5679731000000174,['c'],1,left,['9'],5,0.43572990000029677,0.2,0,FastAcc,1,0,Woman,Left,
20,11,1,0.650050100000044,['n'],1,right,['9'],5,0.40130219999991823,0.4,0,FastAcc,1,0,Woman,Left,
21,11,1,0.6833821000000171,['c'],1,left,['9'],5,0.2514320999998745,0.4,0,FastAcc,1,0,Woman,Left,
22,11,1,0.7503936000002795,['c'],1,left,['9'],5,0.2849113000002035,0.1,0,FastAcc,1,0,Woman,Left,
23,11,1,0.4838899999995192,['c'],1,left,['9'],5,0.26675539999996545,0.4,0,FastAcc,1,0,Woman,Left,
24,11,1,0.7502200000008088,['n'],1,right,['9'],5,0.3352628000002369,0.4,0,FastAcc,1,0,Woman,Left,
25,11,1,0.5337912000004508,['c'],1,left,['9'],5,0.48454409999976633,0.2,0,FastAcc,1,0,Woman,Left,
26,11,1,0.5666051999996853,['c'],1,left,['9'],5,0.2511332999993101,0.2,0,FastAcc,1,0,Woman,Left,
27,11,1,1.0828059000004941,['n'],1,right,['9'],5,0.35064370000054623,0.2,0,FastAcc,1,0,Woman,Left,
28,11,1,2.1002582000000984,['n'],1,right,['9'],5,0.3513877000004868,0.2,0,FastAcc,1,0,Woman,Left,
29,11,1,1.8510643999998138,['n'],1,right,['9'],5,0.33427649999975984,0.2,0,FastAcc,1,0,Woman,Left,
30,11,1,1.166827099999864,['n'],1,right,['9'],5,0.33349730000009004,0.1,0,FastAcc,1,0,Woman,Left,
31,11,1,0.9172717999999804,['n'],1,right,['9'],5,0.3180179999999382,0.2,0,FastAcc,1,0,Woman,Left,
32,11,1,2.6169307000000117,['c'],0,right,['9'],5,0.43298109999977896,0.2,0,FastAcc,1,0,Woman,Left,
33,11,1,1.1512119999997594,['c'],1,left,['9'],5,0.3167335999996794,0.1,0,FastAcc,1,0,Woman,Left,
34,11,1,1.832743400000254,['c'],0,right,['9'],5,0.33390550000058283,0.1,0,FastAcc,1,0,Woman,Left,
35,11,1,2.550702500000625,['c'],0,right,['9'],5,0.6675014000002193,0.1,0,FastAcc,1,0,Woman,Left,
36,11,1,0.9003554999999324,['c'],1,left,['9'],5,0.38406320000012784,0.2,0,FastAcc,1,0,Woman,Left,
37,11,1,1.6669426999997086,['n'],1,right,['9'],5,0.3841517000000749,0.2,0,FastAcc,1,0,Woman,Left,
38,11,1,1.6332154000001537,['n'],1,right,['9'],5,0.38485100000070815,0.2,0,FastAcc,1,0,Woman,Left,
39,11,1,2.2011161000000357,['c'],1,left,['9'],5,0.4342507999999725,0.2,0,FastAcc,1,0,Woman,Left,
40,11,1,1.5505137999998624,['c'],1,left,['9'],5,0.3835570999999618,0.2,0,FastAcc,1,0,Woman,Left,
41,11,1,0.8333619999993971,['c'],1,left,['9'],5,0.4008077999997113,0.4,0,FastAcc,1,0,Woman,Left,
42,11,1,1.750395699999899,['n'],1,right,['9'],5,0.3847253999992972,0.4,0,FastAcc,1,0,Woman,Left,
43,11,1,1.1005977999993775,['n'],1,right,['9'],5,0.3512342999993052,0.4,0,FastAcc,1,0,Woman,Left,
44,11,1,1.2004430999995748,['c'],1,left,['9'],5,0.33465070000056585,0.1,0,FastAcc,1,0,Woman,Left,
45,11,1,0.5171830999997837,['c'],1,left,['9'],5,0.2856783000006544,0.2,0,FastAcc,1,0,Woman,Left,
46,11,1,2.065776899999946,['n'],1,right,['9'],5,0.31807819999994535,0.1,0,FastAcc,1,0,Woman,Left,
47,11,1,1.0666834000003291,['c'],0,right,['9'],5,0.3001824000002671,0.1,0,FastAcc,1,0,Woman,Left,
48,11,1,1.31711869999981,['n'],1,right,['9'],5,0.36726660000022093,0.4,0,FastAcc,1,0,Woman,Left,
49,11,1,2.234005999999681,['n'],0,left,['9'],5,0.38449539999965054,0.1,0,FastAcc,1,0,Woman,Left,
50,11,1,0.9169131999997262,['c'],1,left,['9'],5,0.38515430000006745,0.4,0,FastAcc,1,0,Woman,Left,
51,11,1,0.7178071999996973,['c'],1,left,['9'],5,0.5347442000002047,0.4,0,FastAcc,1,0,Woman,Left,
52,11,1,2.066063700000086,['c'],1,left,['9'],5,0.250955100000283,0.4,0,FastAcc,1,0,Woman,Left,
53,11,1,0.6176500999999917,['c'],1,left,['9'],5,0.23379649999969843,0.4,0,FastAcc,1,0,Woman,Left,
54,11,1,0.6671270999995613,['n'],1,right,['9'],5,0.2680298999994193,0.4,0,FastAcc,1,0,Woman,Left,
55,11,1,0.4999030999997558,['c'],0,right,['9'],5,0.3345123999997668,0.1,0,FastAcc,1,0,Woman,Left,
56,11,1,0.8163091999995231,['c'],1,left,['9'],5,0.5024484000005032,0.2,0,FastAcc,1,0,Woman,Left,
57,11,1,1.2332246999994823,['n'],1,right,['9'],5,0.4026321999999709,0.1,0,FastAcc,1,0,Woman,Left,
58,11,1,0.6505967000002784,['c'],1,left,['9'],5,0.368207400000756,0.4,0,FastAcc,1,0,Woman,Left,
59,11,1,0.6841801000000487,['n'],1,right,['9'],5,0.3348431000003984,0.4,0,FastAcc,1,0,Woman,Left,
0,12,1,1.0843263000006118,['c'],1,left,['9'],5,0.23463559999981953,0.2,0,FastFast,1,0,Woman,Left,
1,12,1,0.8323136999997587,['c'],1,left,['9'],5,0.20276579999972455,0.4,0,FastFast,1,0,Woman,Left,
2,12,1,2.3173557000000073,['n'],1,right,['8'],4,0.5167085000002771,0.4,0,FastFast,1,0,Woman,Left,
3,12,1,0.9508622000003015,['c'],1,left,['8'],4,0.6334912000002078,0.2,0,FastFast,1,0,Woman,Left,
4,12,1,3.750166199999512,['c'],1,left,['2'],2,0.4679240999994363,0.2,0,FastFast,1,0,Woman,Left,
5,12,1,0.8836111000000528,['n'],1,right,['9'],5,0.35118320000037784,0.4,0,FastFast,1,0,Woman,Left,
6,12,1,0.732935400000315,['c'],0,right,['9'],5,0.40230699999938224,0.1,0,FastFast,1,0,Woman,Left,
7,12,1,1.2670704000001933,['c'],1,left,['2'],2,1.0019290000000183,0.2,0,FastFast,1,0,Woman,Left,
8,12,1,0.7499447000000146,['n'],1,right,['9'],5,0.8016548999994484,0.2,0,FastFast,1,0,Woman,Left,
9,12,1,0.8006453999996666,['c'],0,right,['9'],5,0.36837459999969724,0.1,0,FastFast,1,0,Woman,Left,
10,12,1,0.7835887999999613,['n'],1,right,['9'],5,0.41780160000053,0.2,0,FastFast,1,0,Woman,Left,
11,12,1,0.6832420999999158,['c'],1,left,['9'],5,0.35110960000019986,0.2,0,FastFast,1,0,Woman,Left,
12,12,1,1.2995874999996886,['c'],1,left,['9'],5,0.5168131999998877,0.1,0,FastFast,1,0,Woman,Left,
13,12,1,0.6678198999998131,['n'],1,right,['9'],5,0.3835268000002543,0.2,0,FastFast,1,0,Woman,Left,
14,12,1,0.8152771000004577,['n'],1,right,['9'],5,0.3840511999997034,0.1,0,FastFast,1,0,Woman,Left,
15,12,1,0.8183481000005486,['n'],1,right,['9'],5,0.5014703000006193,0.1,0,FastFast,1,0,Woman,Left,
16,12,1,0.8996361999998044,['n'],1,right,['9'],5,0.28466019999996206,0.2,0,FastFast,1,0,Woman,Left,
17,12,1,0.6503606000005675,['c'],0,right,['9'],5,0.30149190000065573,0.2,0,FastFast,1,0,Woman,Left,
18,12,1,0.7669039000002158,['c'],1,left,['9'],5,0.2516316999999617,0.4,0,FastFast,1,0,Woman,Left,
19,12,1,0.63388120000036,['c'],1,left,['9'],5,0.20000449999952252,0.4,0,FastFast,1,0,Woman,Left,
20,12,1,2.1171948999999586,['n'],1,right,['9'],5,0.3179262000003291,0.1,0,FastFast,1,0,Woman,Left,
21,12,1,1.4002628000007462,['c'],1,left,['9'],5,0.3166736999992281,0.4,0,FastFast,1,0,Woman,Left,
22,12,1,0.8167380000004414,['n'],1,right,['9'],5,0.6503684999997859,0.2,0,FastFast,1,0,Woman,Left,
23,12,1,0.9011646000008113,['n'],1,right,['9'],5,0.4005369000005885,0.1,0,FastFast,1,0,Woman,Left,
24,12,1,0.7167868999995335,['n'],1,right,['9'],5,0.3171396999996432,0.4,0,FastFast,1,0,Woman,Left,
25,12,1,1.2844165999995312,['n'],0,left,['9'],5,0.31751359999998385,0.1,0,FastFast,1,0,Woman,Left,
26,12,1,1.0333423000001858,['c'],1,left,['9'],5,0.4509649999999965,0.4,0,FastFast,1,0,Woman,Left,
27,12,1,0.6505824999994729,['n'],1,right,['9'],5,0.5346691000004284,0.4,0,FastFast,1,0,Woman,Left,
28,12,1,1.167000299999927,['c'],1,left,['9'],5,0.3346788999997443,0.1,0,FastFast,1,0,Woman,Left,
29,12,1,0.9672986999994464,['c'],0,right,['9'],5,0.5027036000001317,0.1,0,FastFast,1,0,Woman,Left,
30,12,1,1.783133199999611,['c'],1,left,['9'],5,0.317681999999877,0.2,0,FastFast,1,0,Woman,Left,
31,12,1,1.084060899999713,['n'],1,right,['9'],5,0.4335284999997384,0.4,0,FastFast,1,0,Woman,Left,
32,12,1,1.0500402999996368,['c'],1,left,['9'],5,0.40027029999964725,0.1,0,FastFast,1,0,Woman,Left,
33,12,1,0.7665015000002313,['c'],0,right,['9'],5,0.45034039999973174,0.1,0,FastFast,1,0,Woman,Left,
34,12,1,0.8512549999995827,['c'],1,left,['9'],5,0.3507164000002376,0.1,0,FastFast,1,0,Woman,Left,
35,12,1,1.0673419999993712,['n'],1,right,['9'],5,0.4846008999993501,0.4,0,FastFast,1,0,Woman,Left,
36,12,1,1.4837526000001162,['n'],1,right,['9'],5,0.4014651999996204,0.1,0,FastFast,1,0,Woman,Left,
37,12,1,0.9662239000008412,['c'],0,right,['9'],5,0.3178176000001258,0.1,0,FastFast,1,0,Woman,Left,
38,12,1,0.9326714999997421,['n'],0,left,['9'],5,0.28430889999981446,0.1,0,FastFast,1,0,Woman,Left,
39,12,1,0.9325171999998929,['n'],0,left,['9'],5,0.3360656000004383,0.2,0,FastFast,1,0,Woman,Left,
40,12,1,1.999561999999969,['c'],0,right,['9'],5,0.38351499999953376,0.4,0,FastFast,1,0,Woman,Left,
41,12,1,0.7506008999998812,['c'],1,left,['9'],5,0.3517750999999407,0.4,0,FastFast,1,0,Woman,Left,
42,12,1,1.0661239999999452,['n'],1,right,['9'],5,0.3687939000001279,0.1,0,FastFast,1,0,Woman,Left,
43,12,1,0.8673178999997617,['n'],0,left,['9'],5,0.3008742000001803,0.1,0,FastFast,1,0,Woman,Left,
44,12,1,1.0000731999998607,['n'],1,right,['9'],5,0.30000810000001366,0.4,0,FastFast,1,0,Woman,Left,
45,12,1,0.8827496000003521,['c'],1,left,['9'],5,0.3185958000003666,0.2,0,FastFast,1,0,Woman,Left,
46,12,1,0.6999385999997685,['c'],1,left,['9'],5,0.2849980000000869,0.4,0,FastFast,1,0,Woman,Left,
47,12,1,0.7843255999996472,['c'],1,left,['9'],5,0.21764690000054543,0.4,0,FastFast,1,0,Woman,Left,
48,12,1,0.8007870999999795,['n'],1,right,['9'],5,0.31778989999929763,0.4,0,FastFast,1,0,Woman,Left,
49,12,1,1.0674386000000595,['n'],1,right,['9'],5,0.3333857000006901,0.1,0,FastFast,1,0,Woman,Left,
50,12,1,1.283354600000166,['c'],1,left,['8'],4,0.4355643000008058,0.4,0,FastFast,1,0,Woman,Left,
51,12,1,0.9327821000006224,['n'],1,right,['9'],5,0.5334624999995867,0.2,0,FastFast,1,0,Woman,Left,
52,12,1,0.7338458000003811,['c'],1,left,['8'],4,0.38359290000062174,0.4,0,FastFast,1,0,Woman,Left,
53,12,1,0.6843804000000091,['c'],1,left,['9'],5,0.3856744000004255,0.4,0,FastFast,1,0,Woman,Left,
54,12,1,1.3673740000003818,['n'],1,right,['9'],5,0.884511699999166,0.1,0,FastFast,1,0,Woman,Left,
55,12,1,4.732601800000339,['c'],1,left,['2'],2,1.1844459000003553,0.2,0,FastFast,1,0,Woman,Left,
56,12,1,2.3837424999992436,['n'],0,left,['2'],2,0.5512868000005255,0.2,0,FastFast,1,0,Woman,Left,
57,12,1,1.63297060000059,['c'],1,left,['9'],5,0.36832719999983965,0.2,0,FastFast,1,0,Woman,Left,
58,12,1,1.3997981000002255,['n'],0,left,['9'],5,0.3684457999997903,0.2,0,FastFast,1,0,Woman,Left,
59,12,1,1.8166252000000895,['n'],1,right,['9'],5,0.6359235999998418,0.2,0,FastFast,1,0,Woman,Left,
0,13,1,1.884271699999772,['n'],1,right,['9'],5,0.36736979999932373,0.4,0,AccFast,1,0,Woman,Left,
1,13,1,1.6007495000003473,['c'],1,left,['8'],4,0.9680533000000651,0.4,0,AccFast,1,0,Woman,Left,
2,13,1,1.7013191999994888,['n'],1,right,['9'],5,0.31808220000039,0.2,0,AccFast,1,0,Woman,Left,
3,13,1,0.7507557999997516,['c'],1,left,['9'],5,0.43586060000052385,0.4,0,AccFast,1,0,Woman,Left,
4,13,1,1.2163200999993933,['n'],0,left,['9'],5,0.4514435000000958,0.2,0,AccFast,1,0,Woman,Left,
5,13,1,1.58326070000021,['n'],1,right,['9'],5,0.3522278999998889,0.2,0,AccFast,1,0,Woman,Left,
6,13,1,2.0324337000001833,['c'],0,right,['9'],5,0.467262799999844,0.4,0,AccFast,1,0,Woman,Left,
7,13,1,1.3832630000006247,['c'],1,left,['9'],5,0.2335735000006025,0.1,0,AccFast,1,0,Woman,Left,
8,13,1,0.8498787999997148,['c'],1,left,['9'],5,0.33443569999963074,0.4,0,AccFast,1,0,Woman,Left,
9,13,1,0.6841348999996626,['n'],0,left,['9'],5,0.3672036999996635,0.2,0,AccFast,1,0,Woman,Left,
10,13,1,1.4496472999999241,['n'],0,left,['9'],5,0.30274420000023383,0.2,0,AccFast,1,0,Woman,Left,
11,13,1,2.1156356000001324,['n'],1,right,['9'],5,0.4021802999995998,0.4,0,AccFast,1,0,Woman,Left,
12,13,1,1.550173800000266,['n'],1,right,['9'],5,0.40214079999987007,0.2,0,AccFast,1,0,Woman,Left,
13,13,1,1.3836415000005218,['n'],1,right,['9'],5,0.3014389999998457,0.1,0,AccFast,1,0,Woman,Left,
14,13,1,1.2668910000002143,['n'],1,right,['9'],5,0.3498230000004696,0.1,0,AccFast,1,0,Woman,Left,
15,13,1,1.1999157000000196,['n'],1,right,['9'],5,0.38396340000053897,0.1,0,AccFast,1,0,Woman,Left,
16,13,1,1.4678873999991993,['n'],1,right,['9'],5,0.5499426999995194,0.4,0,AccFast,1,0,Woman,Left,
17,13,1,0.5841999000003852,['n'],1,right,['8'],4,0.3515391000000818,0.2,0,AccFast,1,0,Woman,Left,
18,13,1,1.8836662999992768,['n'],0,left,['8'],4,0.3347386000004917,0.1,0,AccFast,1,0,Woman,Left,
19,13,1,1.0003711999997904,['n'],1,right,['8'],4,0.4180084999998144,0.4,0,AccFast,1,0,Woman,Left,
20,13,1,0.9995961000004172,['c'],1,left,['8'],4,0.4165932000005341,0.4,0,AccFast,1,0,Woman,Left,
21,13,1,1.1842472999996971,['c'],1,left,['8'],4,0.2514925999994375,0.1,0,AccFast,1,0,Woman,Left,
22,13,1,0.6008111999999528,['c'],1,left,['8'],4,0.23476579999987734,0.4,0,AccFast,1,0,Woman,Left,
23,13,1,1.3658808000000136,['c'],1,left,['8'],4,0.26816910000070493,0.1,0,AccFast,1,0,Woman,Left,
24,13,1,0.7667646999998396,['c'],1,left,['8'],4,0.2524476999997205,0.4,0,AccFast,1,0,Woman,Left,
25,13,1,0.8004185999998299,['c'],1,left,['8'],4,0.2349119000000428,0.1,0,AccFast,1,0,Woman,Left,
26,13,1,0.6323952000002464,['c'],1,left,['8'],4,0.28448870000011084,0.4,0,AccFast,1,0,Woman,Left,
27,13,1,2.5332371999993484,['n'],1,right,['9'],5,0.4002416000002995,0.2,0,AccFast,1,0,Woman,Left,
28,13,1,0.8334325000005265,['c'],1,left,['8'],4,0.33498789999976,0.1,0,AccFast,1,0,Woman,Left,
29,13,1,1.151299499999368,['n'],1,right,['9'],5,0.41680640000049607,0.2,0,AccFast,1,0,Woman,Left,
30,13,1,0.9177481999995507,['c'],1,left,['9'],5,0.33446009999988746,0.2,0,AccFast,1,0,Woman,Left,
31,13,1,0.9180575999998837,['n'],1,right,['9'],5,0.36757679999936954,0.4,0,AccFast,1,0,Woman,Left,
32,13,1,1.2655063000001974,['c'],1,left,['9'],5,0.3353674999998475,0.1,0,AccFast,1,0,Woman,Left,
33,13,1,2.200904199999968,['n'],1,right,['9'],5,0.38393059999998513,0.2,0,AccFast,1,0,Woman,Left,
34,13,1,1.7344782000000123,['n'],1,right,['9'],5,0.384697700000288,0.4,0,AccFast,1,0,Woman,Left,
35,13,1,0.849293299999772,['n'],1,right,['9'],5,0.3351898999999321,0.4,0,AccFast,1,0,Woman,Left,
36,13,1,1.566848200000095,['c'],0,right,['9'],5,0.30138089999945805,0.2,0,AccFast,1,0,Woman,Left,
37,13,1,0.9659882999994807,['c'],1,left,['9'],5,0.2519991999997728,0.4,0,AccFast,1,0,Woman,Left,
38,13,1,0.6490675000004558,['c'],1,left,['9'],5,0.28514180000001943,0.2,0,AccFast,1,0,Woman,Left,
39,13,1,0.5168853999994099,['c'],0,right,['9'],5,0.20077970000056666,0.2,0,AccFast,1,0,Woman,Left,
40,13,1,0.7998911000004227,['c'],1,left,['9'],5,0.2012021000000459,0.1,0,AccFast,1,0,Woman,Left,
41,13,1,1.4676222999996753,['c'],0,right,['9'],5,0.2682098000004771,0.1,0,AccFast,1,0,Woman,Left,
42,13,1,1.217152499999429,['c'],0,right,['9'],5,0.26651899999978923,0.1,0,AccFast,1,0,Woman,Left,
43,13,1,0.6825026000005892,['c'],0,right,['9'],5,0.28417999999965105,0.1,0,AccFast,1,0,Woman,Left,
44,13,1,1.8511964999997872,['c'],0,right,['2'],2,0.7845606999999291,0.2,0,AccFast,1,0,Woman,Left,
45,13,1,1.2174678000001222,['c'],1,left,['9'],5,0.26656700000057754,0.2,0,AccFast,1,0,Woman,Left,
46,13,1,0.7002731000002314,['n'],1,right,['9'],5,0.35143069999958243,0.2,0,AccFast,1,0,Woman,Left,
47,13,1,0.6834463000004689,['c'],0,right,['9'],5,0.39988160000029893,0.1,0,AccFast,1,0,Woman,Left,
48,13,1,0.7504259999996066,['n'],1,right,['9'],5,0.38556419999986247,0.1,0,AccFast,1,0,Woman,Left,
49,13,1,1.4164675000001807,['n'],1,right,['9'],5,0.38533519999964483,0.4,0,AccFast,1,0,Woman,Left,
50,13,1,0.7346595999997589,['c'],1,left,['9'],5,0.4182584999998653,0.4,0,AccFast,1,0,Woman,Left,
51,13,1,3.682505100000526,['c'],1,left,['9'],5,0.4505718999998862,0.4,0,AccFast,1,0,Woman,Left,
52,13,1,0.9336991000000125,['c'],1,left,['9'],5,0.48460179999983666,0.2,0,AccFast,1,0,Woman,Left,
53,13,1,1.5169319999995423,['n'],0,left,['8'],4,0.35119399999985035,0.1,0,AccFast,1,0,Woman,Left,
54,13,1,1.0825807999999597,['n'],0,left,['8'],4,0.650774800000363,0.1,0,AccFast,1,0,Woman,Left,
55,13,1,1.2008197000004657,['n'],0,left,['8'],4,0.38337170000068,0.2,0,AccFast,1,0,Woman,Left,
56,13,1,1.5999198999998043,['n'],0,left,['9'],5,0.34944130000076257,0.1,0,AccFast,1,0,Woman,Left,
57,13,1,1.8998290999998062,['n'],1,right,['9'],5,1.001555400000143,0.2,0,AccFast,1,0,Woman,Left,
58,13,1,0.8666231000006519,['n'],0,left,['9'],5,0.30023290000008274,0.1,0,AccFast,1,0,Woman,Left,
59,13,1,1.2671344000000317,['c'],0,right,['9'],5,0.28379150000000664,0.4,0,AccFast,1,0,Woman,Left,
0,14,1,2.1997481999997035,['n'],0,left,['2'],2,1.4518305999999939,0.1,0,AccAcc,1,0,Woman,Left,
1,14,1,1.5654217999999673,['c'],0,right,['9'],5,0.33475819999966916,0.2,0,AccAcc,1,0,Woman,Left,
2,14,1,0.7001388000007864,['c'],1,left,['8'],4,0.4009539999997287,0.4,0,AccAcc,1,0,Woman,Left,
3,14,1,1.8839454999997542,['n'],1,right,['9'],5,0.3844263000000865,0.1,0,AccAcc,1,0,Woman,Left,
4,14,1,2.117147500000101,['n'],1,right,['9'],5,0.3014130000001387,0.1,0,AccAcc,1,0,Woman,Left,
5,14,1,0.7506485000003522,['c'],0,right,['9'],5,0.2670876000001954,0.2,0,AccAcc,1,0,Woman,Left,
6,14,1,0.599543199999971,['c'],1,left,['9'],5,0.21656760000041686,0.2,0,AccAcc,1,0,Woman,Left,
7,14,1,1.0501413000001776,['n'],1,right,['9'],5,0.2674931999999899,0.1,0,AccAcc,1,0,Woman,Left,
8,14,1,0.4669727000000421,['c'],1,left,['9'],5,0.25016499999946973,0.4,0,AccAcc,1,0,Woman,Left,
9,14,1,0.8512958000001163,['n'],0,left,['9'],5,0.4670160000005126,0.4,0,AccAcc,1,0,Woman,Left,
10,14,1,1.218067499999961,['c'],1,left,['9'],5,0.2668820999997479,0.2,0,AccAcc,1,0,Woman,Left,
11,14,1,0.7663867000001119,['n'],1,right,['9'],5,0.2860098000001017,0.4,0,AccAcc,1,0,Woman,Left,
12,14,1,1.9001690999994025,['n'],1,right,['9'],5,0.2496702999997069,0.1,0,AccAcc,1,0,Woman,Left,
13,14,1,0.6156755000001795,['c'],1,left,['9'],5,0.2673226999995677,0.2,0,AccAcc,1,0,Woman,Left,
14,14,1,0.6501184999997349,['n'],1,right,['9'],5,0.250373199999558,0.4,0,AccAcc,1,0,Woman,Left,
15,14,1,0.7340994000005594,['c'],1,left,['9'],5,0.2355822999998054,0.4,0,AccAcc,1,0,Woman,Left,
16,14,1,0.833802299999661,['n'],1,right,['9'],5,0.3162191999999777,0.2,0,AccAcc,1,0,Woman,Left,
17,14,1,0.5005372000005082,['c'],1,left,['9'],5,0.383915700000216,0.2,0,AccAcc,1,0,Woman,Left,
18,14,1,0.7346901000000798,['c'],1,left,['9'],5,0.26718630000050325,0.4,0,AccAcc,1,0,Woman,Left,
19,14,1,0.7339187999996284,['n'],0,left,['9'],5,0.23279600000023493,0.2,0,AccAcc,1,0,Woman,Left,
20,14,1,0.6166932000005545,['c'],1,left,['9'],5,0.21807090000038443,0.2,0,AccAcc,1,0,Woman,Left,
21,14,1,0.5336653999993359,['n'],1,right,['9'],5,0.2000170999999682,0.4,0,AccAcc,1,0,Woman,Left,
22,14,1,0.7522824000006949,['n'],1,right,['9'],5,0.21645819999957894,0.4,0,AccAcc,1,0,Woman,Left,
23,14,1,0.44835239999974874,['c'],1,left,['9'],5,0.2186098000001948,0.1,0,AccAcc,1,0,Woman,Left,
24,14,1,0.5826152999998158,['c'],1,left,['9'],5,0.2669708000003084,0.4,0,AccAcc,1,0,Woman,Left,
25,14,1,0.7513212000003477,['n'],1,right,['9'],5,0.2834154000001945,0.4,0,AccAcc,1,0,Woman,Left,
26,14,1,0.9671874000005118,['n'],1,right,['9'],5,0.7026792000006026,0.1,0,AccAcc,1,0,Woman,Left,
27,14,1,0.5669094999993831,['n'],1,right,['9'],5,0.30138950000036857,0.4,0,AccAcc,1,0,Woman,Left,
28,14,1,0.7655625999996118,['n'],1,right,['9'],5,0.23598320000019157,0.4,0,AccAcc,1,0,Woman,Left,
29,14,1,0.6172386999996888,['n'],1,right,['9'],5,0.31936810000024707,0.2,0,AccAcc,1,0,Woman,Left,
30,14,1,0.6660878000002413,['n'],1,right,['9'],5,0.3860860999993747,0.4,0,AccAcc,1,0,Woman,Left,
31,14,1,1.217758099999628,['n'],0,left,['3'],3,0.3168900000000576,0.2,0,AccAcc,1,0,Woman,Left,
32,14,1,0.8179366000003938,['n'],0,left,['3'],3,0.31696069999998144,0.4,0,AccAcc,1,0,Woman,Left,
33,14,1,0.6327515000002677,['n'],0,left,['3'],3,0.28448719999960304,0.4,0,AccAcc,1,0,Woman,Left,
34,14,1,0.6007940999998027,['n'],0,left,['3'],3,0.2679121999999552,0.4,0,AccAcc,1,0,Woman,Left,
35,14,1,2.2001649000003454,['n'],1,right,['0'],6,0.5500534000002517,0.1,0,AccAcc,1,0,Woman,Left,
36,14,1,0.8172597000002497,['n'],0,left,['0'],6,0.6827481000000262,0.1,0,AccAcc,1,0,Woman,Left,
37,14,1,1.8343110000005254,['c'],1,left,['0'],6,0.43422129999999015,0.2,0,AccAcc,1,0,Woman,Left,
38,14,1,1.1349610999996003,['c'],1,left,['9'],5,0.48458599999958096,0.2,0,AccAcc,1,0,Woman,Left,
39,14,1,2.2155680000005304,['n'],1,right,['0'],6,0.7684014000005845,0.1,0,AccAcc,1,0,Woman,Left,
40,14,1,1.9835296999999628,['n'],1,right,['9'],5,3.218126900000243,0.1,0,AccAcc,1,0,Woman,Left,
41,14,1,4.449559800000316,['n'],0,left,['9'],5,0.31869189999997616,0.2,0,AccAcc,1,0,Woman,Left,
42,14,1,0.6993517000000793,['n'],1,right,['9'],5,0.2847400999999081,0.2,0,AccAcc,1,0,Woman,Left,
43,14,1,0.6340413999996599,['n'],1,right,['9'],5,0.2678403999998409,0.1,0,AccAcc,1,0,Woman,Left,
44,14,1,0.6173728000003393,['n'],1,right,['9'],5,0.26754869999967923,0.1,0,AccAcc,1,0,Woman,Left,
45,14,1,1.5337405999998737,['c'],0,right,['9'],5,0.5666268000004493,0.1,0,AccAcc,1,0,Woman,Left,
46,14,1,0.8167948000000251,['c'],1,left,['0'],6,0.7846178999998301,0.4,0,AccAcc,1,0,Woman,Left,
47,14,1,1.2164556000006996,['c'],1,left,['0'],6,0.3346878000002107,0.1,0,AccAcc,1,0,Woman,Left,
48,14,1,1.4829703999994308,['n'],0,left,['0'],6,0.34991960000024847,0.1,0,AccAcc,1,0,Woman,Left,
49,14,1,2.466637300000002,['n'],1,right,['9'],5,0.4509085999998206,0.1,0,AccAcc,1,0,Woman,Left,
50,14,1,0.9342207999998209,['n'],1,right,['9'],5,0.5003995000006398,0.2,0,AccAcc,1,0,Woman,Left,
51,14,1,1.366274400000293,['n'],0,left,['0'],6,0.40121389999967505,0.4,0,AccAcc,1,0,Woman,Left,
52,14,1,0.7158901000002516,['n'],0,left,['0'],6,0.319462299999941,0.1,0,AccAcc,1,0,Woman,Left,
53,14,1,2.5175059000002875,['c'],1,left,['9'],5,0.18298550000054092,0.2,0,AccAcc,1,0,Woman,Left,
54,14,1,0.8519677000003867,['n'],1,right,['9'],5,0.984719000000041,0.2,0,AccAcc,1,0,Woman,Left,
55,14,1,0.6672652000006565,['n'],0,left,['9'],5,0.25025300000015704,0.2,0,AccAcc,1,0,Woman,Left,
56,14,1,0.9673667999995814,['c'],0,right,['9'],5,0.3349073999997927,0.2,0,AccAcc,1,0,Woman,Left,
57,14,1,0.5163677000000462,['n'],1,right,['9'],5,0.01776030000019091,0.4,0,AccAcc,1,0,Woman,Left,
58,14,1,1.1990426000002117,['n'],1,right,['9'],5,0.15158659999997326,0.1,0,AccAcc,1,0,Woman,Left,
59,14,1,1.9009224000001268,['c'],1,left,['9'],5,1.4505286000003252,0.1,0,AccAcc,1,0,Woman,Left,
0,15,1,2.1167171999995844,['n'],1,right,['9'],5,0.36855589999959193,0.1,0,FastAcc,1,0,Woman,Left,
1,15,1,1.381987100000515,['c'],1,left,['9'],5,1.4677471000004516,0.1,0,FastAcc,1,0,Woman,Left,
2,15,1,0.6842993000000206,['n'],1,right,['9'],5,0.31659880000006524,0.4,0,FastAcc,1,0,Woman,Left,
3,15,1,0.6677653000006103,['n'],1,right,['9'],5,0.2671516000000338,0.2,0,FastAcc,1,0,Woman,Left,
4,15,1,1.082646200000454,['c'],1,left,['9'],5,0.3185649999995803,0.2,0,FastAcc,1,0,Woman,Left,
5,15,1,1.9502420999997412,['n'],0,left,['9'],5,0.31729989999985264,0.1,0,FastAcc,1,0,Woman,Left,
6,15,1,1.249246100000164,['c'],1,left,['9'],5,0.3335809000000154,0.2,0,FastAcc,1,0,Woman,Left,
7,15,1,0.784653900000194,['n'],1,right,['9'],5,0.28451979999954347,0.1,0,FastAcc,1,0,Woman,Left,
8,15,1,0.9162913999998636,['n'],1,right,['9'],5,0.2501875999996628,0.4,0,FastAcc,1,0,Woman,Left,
9,15,1,0.69999370000005,['n'],1,right,['9'],5,0.25240560000020196,0.4,0,FastAcc,1,0,Woman,Left,
10,15,1,0.8513424000002487,['c'],0,right,['9'],5,0.28467539999928704,0.1,0,FastAcc,1,0,Woman,Left,
11,15,1,0.8167307000003348,['n'],1,right,['9'],5,0.31826450000062323,0.2,0,FastAcc,1,0,Woman,Left,
12,15,1,0.866747299999588,['c'],1,left,['9'],5,0.3675602000002982,0.1,0,FastAcc,1,0,Woman,Left,
13,15,1,1.4506217999996807,['n'],0,left,['9'],5,0.8686754000000292,0.4,0,FastAcc,1,0,Woman,Left,
14,15,1,1.2170607999996719,['n'],0,left,['1'],1,4.883412600000156,0.4,0,FastAcc,1,0,Woman,Left,
15,15,1,1.1655703000005815,['n'],1,right,['9'],5,0.7175360000001092,0.1,0,FastAcc,1,0,Woman,Left,
16,15,1,1.0346957000001566,['n'],1,right,['9'],5,0.30131920000076207,0.4,0,FastAcc,1,0,Woman,Left,
17,15,1,2.3484379999999874,['c'],0,right,['9'],5,0.3527065999996921,0.1,0,FastAcc,1,0,Woman,Left,
18,15,1,0.7337754999998651,['n'],1,right,['9'],5,0.2523580999995829,0.2,0,FastAcc,1,0,Woman,Left,
19,15,1,0.6835479999999734,['c'],1,left,['9'],5,0.25002000000040425,0.2,0,FastAcc,1,0,Woman,Left,
20,15,1,0.6342031999993196,['c'],1,left,['9'],5,0.28497800000059215,0.4,0,FastAcc,1,0,Woman,Left,
21,15,1,0.6998765999996976,['c'],1,left,['9'],5,0.23482999999941967,0.2,0,FastAcc,1,0,Woman,Left,
22,15,1,0.6831609999999273,['c'],0,right,['9'],5,0.23460760000034497,0.1,0,FastAcc,1,0,Woman,Left,
23,15,1,0.7507668999996895,['c'],0,right,['9'],5,0.2658024000002115,0.1,0,FastAcc,1,0,Woman,Left,
24,15,1,1.2175274999999601,['n'],1,right,['9'],5,0.2835949000000255,0.4,0,FastAcc,1,0,Woman,Left,
25,15,1,0.5178339000003689,['c'],1,left,['9'],5,0.45024409999950876,0.4,0,FastAcc,1,0,Woman,Left,
26,15,1,0.46633250000013504,['n'],1,right,['9'],5,0.4015940999997838,0.4,0,FastAcc,1,0,Woman,Left,
27,15,1,0.9322772999994413,['c'],0,right,['9'],5,0.2687646999993376,0.2,0,FastAcc,1,0,Woman,Left,
28,15,1,0.9165021999997407,['n'],1,right,['9'],5,0.4024864000002708,0.1,0,FastAcc,1,0,Woman,Left,
29,15,1,1.0004632999998648,['c'],0,right,['9'],5,0.2684947000007014,0.2,0,FastAcc,1,0,Woman,Left,
30,15,1,0.732510199999524,['c'],1,left,['9'],5,0.23373460000038904,0.1,0,FastAcc,1,0,Woman,Left,
31,15,1,1.267476600000009,['c'],1,left,['9'],5,0.3002206999999544,0.1,0,FastAcc,1,0,Woman,Left,
32,15,1,0.3829531000001225,['c'],0,right,['9'],5,0.28518760000042676,0.2,0,FastAcc,1,0,Woman,Left,
33,15,1,0.684011900000769,['c'],1,left,['9'],5,0.6335440000002563,0.4,0,FastAcc,1,0,Woman,Left,
34,15,1,0.7180168000004414,['c'],1,left,['0'],6,0.21705669999937527,0.4,0,FastAcc,1,0,Woman,Left,
35,15,1,1.0324031000000105,['c'],1,left,['0'],6,0.2687565000005634,0.1,0,FastAcc,1,0,Woman,Left,
36,15,1,0.8012620999998035,['c'],1,left,['0'],6,0.20153279999976803,0.2,0,FastAcc,1,0,Woman,Left,
37,15,1,0.9341704999997091,['n'],1,right,['0'],6,0.41806650000035006,0.2,0,FastAcc,1,0,Woman,Left,
38,15,1,1.0002537999998822,['c'],0,right,['9'],5,0.30077580000033777,0.4,0,FastAcc,1,0,Woman,Left,
39,15,1,3.417032399999698,['n'],1,right,['2'],2,1.667663000000175,0.2,0,FastAcc,1,0,Woman,Left,
40,15,1,1.5831049000007624,['c'],1,left,['0'],6,0.416892000000189,0.4,0,FastAcc,1,0,Woman,Left,
41,15,1,0.7164716999996017,['c'],1,left,['0'],6,0.252144799999769,0.2,0,FastAcc,1,0,Woman,Left,
42,15,1,0.6167248000001564,['c'],1,left,['0'],6,0.3335674999998446,0.2,0,FastAcc,1,0,Woman,Left,
43,15,1,1.4508160999994288,['n'],1,right,['0'],6,0.43451720000030036,0.4,0,FastAcc,1,0,Woman,Left,
44,15,1,0.8330842999994275,['c'],1,left,['0'],6,0.3678110999999262,0.1,0,FastAcc,1,0,Woman,Left,
45,15,1,0.7824129000000539,['c'],1,left,['0'],6,0.20179619999998977,0.4,0,FastAcc,1,0,Woman,Left,
46,15,1,1.1503351999999722,['c'],0,right,['0'],6,0.38248139999996056,0.2,0,FastAcc,1,0,Woman,Left,
47,15,1,0.8166856999996526,['c'],1,left,['0'],6,0.3847475000002305,0.4,0,FastAcc,1,0,Woman,Left,
48,15,1,0.8839842999996108,['n'],1,right,['0'],6,0.3680187999998452,0.4,0,FastAcc,1,0,Woman,Left,
49,15,1,1.232467899999392,['c'],0,right,['0'],6,0.3518007000002399,0.1,0,FastAcc,1,0,Woman,Left,
50,15,1,1.8491943999997602,['c'],0,right,['0'],6,0.3184065000004921,0.2,0,FastAcc,1,0,Woman,Left,
51,15,1,0.8325568000000203,['c'],1,left,['9'],5,0.25080960000013874,0.1,0,FastAcc,1,0,Woman,Left,
52,15,1,1.0834272000001874,['c'],1,left,['0'],6,0.4345109000005323,0.1,0,FastAcc,1,0,Woman,Left,
53,15,1,0.7499281999998857,['c'],1,left,['0'],6,0.3185092000003351,0.2,0,FastAcc,1,0,Woman,Left,
54,15,1,0.6671104999995805,['c'],1,left,['0'],6,0.3332830000008471,0.4,0,FastAcc,1,0,Woman,Left,
55,15,1,2.167873800000052,['n'],0,left,['9'],5,0.4681218000005174,0.1,0,FastAcc,1,0,Woman,Left,
56,15,1,1.283530900000187,['c'],0,right,['9'],5,0.30117599999994127,0.2,0,FastAcc,1,0,Woman,Left,
57,15,1,0.8498183000001518,['c'],0,right,['9'],5,0.318334199999299,0.4,0,FastAcc,1,0,Woman,Left,
58,15,1,2.1002323000002434,['c'],1,left,['9'],5,0.25020739999945363,0.2,0,FastAcc,1,0,Woman,Left,
59,15,1,1.0830027000001792,['c'],1,left,['9'],5,0.28556509999998525,0.1,0,FastAcc,1,0,Woman,Left,
