withinblocktrial,block,block_repetition,rt,resp,cor,cresp,conf_press,cj,rtconf,coherence,slow_trial,manipulation,sub,age,gender,handedness,
0,1,1,1.8354883999995764,['n'],1,right,none,-99,-99,0.5,0,none,12,18,Woman,Right,
1,1,1,1.000453600000128,['c'],0,right,none,-99,-99,0.5,0,none,12,18,Woman,Right,
2,1,1,1.2994607999999062,['c'],0,right,none,-99,-99,0.5,0,none,12,18,Woman,Right,
3,1,1,1.7829961000002186,['n'],0,left,none,-99,-99,0.5,0,none,12,18,Woman,Right,
4,1,1,1.083837499999845,['c'],1,left,none,-99,-99,0.5,0,none,12,18,Woman,Right,
5,1,1,1.049949100000049,['c'],0,right,none,-99,-99,0.5,0,none,12,18,Woman,Right,
6,1,1,1.5503365999998096,['c'],1,left,none,-99,-99,0.5,0,none,12,18,Woman,Right,
7,1,1,0.7667427000001226,['n'],0,left,none,-99,-99,0.5,0,none,12,18,Woman,Right,
8,1,1,0.7006756000000678,['c'],1,left,none,-99,-99,0.5,0,none,12,18,Woman,Right,
9,1,1,0.6506631000002017,['n'],1,right,none,-99,-99,0.5,0,none,12,18,Woman,Right,
10,1,1,1.1345335000000887,['c'],0,right,none,-99,-99,0.5,0,none,12,18,Woman,Right,
11,1,1,0.8492439000001468,['c'],1,left,none,-99,-99,0.5,0,none,12,18,Woman,Right,
12,1,1,0.8511643000001641,['c'],1,left,none,-99,-99,0.5,0,none,12,18,Woman,Right,
13,1,1,0.6010142999998607,['c'],1,left,none,-99,-99,0.5,0,none,12,18,Woman,Right,
14,1,1,0.5673946000001706,['n'],1,right,none,-99,-99,0.5,0,none,12,18,Woman,Right,
15,1,1,0.5163468999999168,['c'],1,left,none,-99,-99,0.5,0,none,12,18,Woman,Right,
16,1,1,0.6176023999996687,['c'],1,left,none,-99,-99,0.5,0,none,12,18,Woman,Right,
17,1,1,0.6010028999999122,['c'],1,left,none,-99,-99,0.5,0,none,12,18,Woman,Right,
18,1,1,0.6832703000000038,['n'],1,right,none,-99,-99,0.5,0,none,12,18,Woman,Right,
19,1,1,0.9664574000003086,['c'],0,right,none,-99,-99,0.5,0,none,12,18,Woman,Right,
20,1,1,1.0499024000000645,['c'],1,left,none,-99,-99,0.5,0,none,12,18,Woman,Right,
21,1,1,0.732224700000188,['n'],1,right,none,-99,-99,0.5,0,none,12,18,Woman,Right,
22,1,1,0.9842933999998422,['n'],1,right,none,-99,-99,0.5,0,none,12,18,Woman,Right,
23,1,1,1.6989904000001843,['n'],1,right,none,-99,-99,0.5,0,none,12,18,Woman,Right,
0,1,2,0.6350259999999253,['c'],0,right,none,-99,-99,0.5,0,none,12,18,Woman,Right,
1,1,2,0.5662900999996054,['c'],1,left,none,-99,-99,0.5,0,none,12,18,Woman,Right,
2,1,2,0.5984807000004366,['n'],1,right,none,-99,-99,0.5,0,none,12,18,Woman,Right,
3,1,2,0.5505825999998706,['c'],0,right,none,-99,-99,0.5,0,none,12,18,Woman,Right,
4,1,2,0.5519355000001269,['c'],1,left,none,-99,-99,0.5,0,none,12,18,Woman,Right,
5,1,2,0.4846325000003162,['c'],1,left,none,-99,-99,0.5,0,none,12,18,Woman,Right,
6,1,2,0.4672603999997591,['n'],1,right,none,-99,-99,0.5,0,none,12,18,Woman,Right,
7,1,2,0.40034749999995256,['c'],1,left,none,-99,-99,0.5,0,none,12,18,Woman,Right,
8,1,2,0.48370199999999386,['n'],1,right,none,-99,-99,0.5,0,none,12,18,Woman,Right,
9,1,2,0.4672947999997632,['n'],1,right,none,-99,-99,0.5,0,none,12,18,Woman,Right,
10,1,2,0.5177278000001024,['n'],1,right,none,-99,-99,0.5,0,none,12,18,Woman,Right,
11,1,2,0.4841545999997834,['n'],1,right,none,-99,-99,0.5,0,none,12,18,Woman,Right,
12,1,2,0.3837242999998125,['c'],1,left,none,-99,-99,0.5,0,none,12,18,Woman,Right,
13,1,2,0.41562560000011217,['n'],1,right,none,-99,-99,0.5,0,none,12,18,Woman,Right,
14,1,2,0.4157264000000396,['c'],1,left,none,-99,-99,0.5,0,none,12,18,Woman,Right,
15,1,2,0.40127460000030624,['n'],0,left,none,-99,-99,0.5,0,none,12,18,Woman,Right,
16,1,2,0.5004314000002523,['c'],1,left,none,-99,-99,0.5,0,none,12,18,Woman,Right,
17,1,2,0.4824119999998402,['n'],1,right,none,-99,-99,0.5,0,none,12,18,Woman,Right,
18,1,2,0.4160305000000335,['c'],1,left,none,-99,-99,0.5,0,none,12,18,Woman,Right,
19,1,2,0.45098430000007284,['c'],1,left,none,-99,-99,0.5,0,none,12,18,Woman,Right,
20,1,2,0.49965149999979985,['c'],1,left,none,-99,-99,0.5,0,none,12,18,Woman,Right,
21,1,2,0.41683999999986554,['c'],1,left,none,-99,-99,0.5,0,none,12,18,Woman,Right,
22,1,2,0.4836436999999023,['n'],1,right,none,-99,-99,0.5,0,none,12,18,Woman,Right,
23,1,2,0.6005579000002399,['c'],0,right,none,-99,-99,0.5,0,none,12,18,Woman,Right,
0,1,3,1.0836277000003065,['c'],0,right,none,-99,-99,0.5,0,none,12,18,Woman,Right,
1,1,3,0.5509567000003699,['c'],0,right,none,-99,-99,0.5,0,none,12,18,Woman,Right,
2,1,3,0.49968200000012075,['c'],1,left,none,-99,-99,0.5,0,none,12,18,Woman,Right,
3,1,3,0.5004649000002246,['n'],1,right,none,-99,-99,0.5,0,none,12,18,Woman,Right,
4,1,3,0.5511249999999563,['n'],1,right,none,-99,-99,0.5,0,none,12,18,Woman,Right,
5,1,3,0.4333411000002343,['c'],1,left,none,-99,-99,0.5,0,none,12,18,Woman,Right,
6,1,3,0.4678324999999859,['c'],1,left,none,-99,-99,0.5,0,none,12,18,Woman,Right,
7,1,3,0.4171464000000924,['n'],1,right,none,-99,-99,0.5,0,none,12,18,Woman,Right,
8,1,3,0.5007261000000653,['c'],1,left,none,-99,-99,0.5,0,none,12,18,Woman,Right,
9,1,3,0.5179533000000447,['n'],1,right,none,-99,-99,0.5,0,none,12,18,Woman,Right,
10,1,3,0.38398430000006556,['c'],1,left,none,-99,-99,0.5,0,none,12,18,Woman,Right,
11,1,3,0.43375560000004043,['c'],1,left,none,-99,-99,0.5,0,none,12,18,Woman,Right,
12,1,3,0.45054369999979826,['n'],1,right,none,-99,-99,0.5,0,none,12,18,Woman,Right,
13,1,3,0.46569640000006984,['c'],1,left,none,-99,-99,0.5,0,none,12,18,Woman,Right,
14,1,3,0.46767840000029537,['c'],1,left,none,-99,-99,0.5,0,none,12,18,Woman,Right,
15,1,3,0.5008837000000312,['n'],1,right,none,-99,-99,0.5,0,none,12,18,Woman,Right,
16,1,3,0.5181096999999681,['c'],1,left,none,-99,-99,0.5,0,none,12,18,Woman,Right,
17,1,3,0.4321196000000782,['c'],1,left,none,-99,-99,0.5,0,none,12,18,Woman,Right,
18,1,3,0.516128000000208,['n'],1,right,none,-99,-99,0.5,0,none,12,18,Woman,Right,
19,1,3,0.45078430000012304,['c'],1,left,none,-99,-99,0.5,0,none,12,18,Woman,Right,
20,1,3,0.4324882000000798,['n'],1,right,none,-99,-99,0.5,0,none,12,18,Woman,Right,
21,1,3,0.4663298999998915,['n'],1,right,none,-99,-99,0.5,0,none,12,18,Woman,Right,
22,1,3,0.4818614000000707,['c'],1,left,none,-99,-99,0.5,0,none,12,18,Woman,Right,
23,1,3,0.5328517000002648,['n'],1,right,none,-99,-99,0.5,0,none,12,18,Woman,Right,
0,2,1,0.6995254999997087,['c'],1,left,none,-99,-99,0.2,0,none,12,18,Woman,Right,
1,2,1,0.8336346999999478,['n'],1,right,none,-99,-99,0.1,0,none,12,18,Woman,Right,
2,2,1,0.6997257000002719,['c'],1,left,none,-99,-99,0.2,0,none,12,18,Woman,Right,
3,2,1,0.6512032000000545,['n'],1,right,none,-99,-99,0.2,0,none,12,18,Woman,Right,
4,2,1,0.4992913999999473,['c'],0,right,none,-99,-99,0.2,0,none,12,18,Woman,Right,
5,2,1,0.5348775000002206,['n'],1,right,none,-99,-99,0.2,0,none,12,18,Woman,Right,
6,2,1,0.4495968000001085,['c'],1,left,none,-99,-99,0.4,0,none,12,18,Woman,Right,
7,2,1,0.4484668000000056,['c'],1,left,none,-99,-99,0.2,0,none,12,18,Woman,Right,
8,2,1,0.4172363999996378,['n'],1,right,none,-99,-99,0.2,0,none,12,18,Woman,Right,
9,2,1,0.3491324000001441,['c'],1,left,none,-99,-99,0.2,0,none,12,18,Woman,Right,
10,2,1,0.368358900000203,['n'],0,left,none,-99,-99,0.1,0,none,12,18,Woman,Right,
11,2,1,0.9164035000003423,['n'],1,right,none,-99,-99,0.1,0,none,12,18,Woman,Right,
12,2,1,0.5675805999999284,['c'],1,left,none,-99,-99,0.1,0,none,12,18,Woman,Right,
13,2,1,0.43282970000018395,['n'],1,right,none,-99,-99,0.4,0,none,12,18,Woman,Right,
14,2,1,0.5318617000002632,['c'],0,right,none,-99,-99,0.1,0,none,12,18,Woman,Right,
15,2,1,0.4491379000000961,['n'],1,right,none,-99,-99,0.4,0,none,12,18,Woman,Right,
16,2,1,0.4691342999999506,['c'],1,left,none,-99,-99,0.1,0,none,12,18,Woman,Right,
17,2,1,0.5337184999998499,['c'],1,left,none,-99,-99,0.4,0,none,12,18,Woman,Right,
18,2,1,0.4512491000000409,['n'],0,left,none,-99,-99,0.4,0,none,12,18,Woman,Right,
19,2,1,0.43286680000028355,['c'],1,left,none,-99,-99,0.1,0,none,12,18,Woman,Right,
20,2,1,0.40195289999974193,['n'],1,right,none,-99,-99,0.1,0,none,12,18,Woman,Right,
21,2,1,0.48284479999983887,['n'],1,right,none,-99,-99,0.4,0,none,12,18,Woman,Right,
22,2,1,0.36512919999995574,['c'],1,left,none,-99,-99,0.4,0,none,12,18,Woman,Right,
23,2,1,0.3848812999999609,['n'],1,right,none,-99,-99,0.4,0,none,12,18,Woman,Right,
0,3,1,0.6672800999999708,['n'],0,left,['8'],3,2.2176150000000234,0.1,0,none,12,18,Woman,Right,
1,3,1,0.8006404000002476,['c'],1,left,['1'],6,0.9666783000002397,0.1,0,none,12,18,Woman,Right,
2,3,1,0.6346775000001799,['n'],1,right,['9'],2,3.2998186999998325,0.1,0,none,12,18,Woman,Right,
3,3,1,1.2185032000002138,['c'],1,left,['2'],5,1.218065999999908,0.2,0,none,12,18,Woman,Right,
4,3,1,0.633575600000313,['n'],1,right,['0'],1,0.6006379999998899,0.4,0,none,12,18,Woman,Right,
5,3,1,1.051146400000107,['c'],1,left,['1'],6,0.68525499999987,0.4,0,none,12,18,Woman,Right,
6,3,1,1.0831874000000425,['n'],1,right,['1'],6,0.6167615999997906,0.4,0,none,12,18,Woman,Right,
7,3,1,0.516981400000077,['c'],1,left,['1'],6,0.4171931000000768,0.2,0,none,12,18,Woman,Right,
8,3,1,0.6838791999998648,['c'],1,left,['1'],6,0.35066280000000916,0.4,0,none,12,18,Woman,Right,
9,3,1,0.5010417000003144,['c'],1,left,['1'],6,0.4334309000000758,0.4,0,none,12,18,Woman,Right,
10,3,1,4.26727800000026,['c'],1,left,['2'],5,0.7010150000000976,0.2,0,none,12,18,Woman,Right,
11,3,1,0.6671538999999029,['c'],0,right,['0'],1,0.9353609999998298,0.2,0,none,12,18,Woman,Right,
12,3,1,0.849355899999864,['c'],1,left,['1'],6,0.3847565000000941,0.4,0,none,12,18,Woman,Right,
13,3,1,0.56809579999981,['n'],1,right,['1'],6,0.40234890000010637,0.1,0,none,12,18,Woman,Right,
14,3,1,3.200418699999773,['c'],1,left,['3'],4,2.801052400000117,0.2,0,none,12,18,Woman,Right,
15,3,1,0.665757300000223,['n'],1,right,['1'],6,0.5522442999999839,0.4,0,none,12,18,Woman,Right,
16,3,1,0.39994049999995696,['c'],0,right,['9'],2,2.535221399999955,0.2,0,none,12,18,Woman,Right,
17,3,1,0.5329368000002432,['n'],1,right,['2'],5,0.818116800000098,0.1,0,none,12,18,Woman,Right,
18,3,1,0.4846583999997165,['c'],1,left,['1'],6,0.3679621999999654,0.1,0,none,12,18,Woman,Right,
19,3,1,0.5673461999999745,['n'],1,right,['1'],6,0.3846936999998434,0.2,0,none,12,18,Woman,Right,
20,3,1,1.73271990000012,['n'],1,right,['2'],5,0.9516195000001062,0.2,0,none,12,18,Woman,Right,
21,3,1,0.5006418000002668,['c'],1,left,['3'],4,1.2009388999999828,0.4,0,none,12,18,Woman,Right,
22,3,1,0.8830610999998498,['c'],0,right,['2'],5,0.9013789999999062,0.1,0,none,12,18,Woman,Right,
23,3,1,0.967505500000243,['n'],1,right,['9'],2,0.4851865999999063,0.1,0,none,12,18,Woman,Right,
0,4,1,1.1828914000002442,['c'],1,left,['2'],5,0.7511933000000681,0.4,0,FastAcc,12,18,Woman,Right,
1,4,1,0.7510287000000062,['n'],1,right,['1'],6,1.8841393000002427,0.2,0,FastAcc,12,18,Woman,Right,
2,4,1,0.7335187000003316,['n'],1,right,['2'],5,2.4181100000000697,0.4,0,FastAcc,12,18,Woman,Right,
3,4,1,0.5664287999998123,['n'],1,right,['1'],6,2.4011500999999953,0.2,0,FastAcc,12,18,Woman,Right,
4,4,1,0.5505021999997552,['n'],1,right,['3'],4,0.8014032000000952,0.2,0,FastAcc,12,18,Woman,Right,
5,4,1,1.2670078000001013,['n'],0,left,['3'],4,1.9019469999998364,0.1,0,FastAcc,12,18,Woman,Right,
6,4,1,0.6003496999996969,['n'],1,right,['3'],4,1.3515729999999166,0.4,0,FastAcc,12,18,Woman,Right,
7,4,1,0.9003813999997874,['c'],0,right,['3'],4,1.9667589999999109,0.2,0,FastAcc,12,18,Woman,Right,
8,4,1,1.8507555000001048,['n'],1,right,['3'],4,2.466512099999818,0.1,0,FastAcc,12,18,Woman,Right,
9,4,1,0.5009251000001314,['c'],1,left,['1'],6,1.5015894000002845,0.1,0,FastAcc,12,18,Woman,Right,
10,4,1,1.0833001000000877,['n'],0,left,['2'],5,2.267140500000096,0.1,0,FastAcc,12,18,Woman,Right,
11,4,1,1.0330806000001758,['n'],0,left,['1'],6,1.1341884999997092,0.2,0,FastAcc,12,18,Woman,Right,
12,4,1,0.5676677999999811,['n'],0,left,['2'],5,0.5998706000000311,0.1,0,FastAcc,12,18,Woman,Right,
13,4,1,1.1176550000000134,['n'],0,left,['8'],3,2.2499912999996923,0.1,0,FastAcc,12,18,Woman,Right,
14,4,1,0.8676161000003049,['n'],0,left,['3'],4,1.5012730000003103,0.2,0,FastAcc,12,18,Woman,Right,
15,4,1,0.7983312000001206,['n'],1,right,['1'],6,1.3520516000003227,0.2,0,FastAcc,12,18,Woman,Right,
16,4,1,0.7342423999998573,['n'],0,left,['3'],4,2.5681782999999996,0.4,0,FastAcc,12,18,Woman,Right,
17,4,1,0.48398749999978463,['n'],1,right,['1'],6,2.2679800999999316,0.4,0,FastAcc,12,18,Woman,Right,
18,4,1,0.7499727999997958,['n'],0,left,['8'],3,2.085157000000436,0.4,0,FastAcc,12,18,Woman,Right,
19,4,1,0.48378209999964383,['n'],0,left,['8'],3,1.0844226999997773,0.1,0,FastAcc,12,18,Woman,Right,
20,4,1,0.6338417000001755,['n'],1,right,['1'],6,1.3512746999999763,0.1,0,FastAcc,12,18,Woman,Right,
21,4,1,0.4831802999997308,['c'],1,left,['1'],6,1.9511837999998534,0.4,0,FastAcc,12,18,Woman,Right,
22,4,1,0.5509096999999201,['n'],1,right,['3'],4,1.8682106000001113,0.4,0,FastAcc,12,18,Woman,Right,
23,4,1,0.4833179000002019,['c'],1,left,['1'],6,1.5513547000000472,0.4,0,FastAcc,12,18,Woman,Right,
24,4,1,0.6504794000002221,['n'],1,right,['2'],5,1.468556400000125,0.1,0,FastAcc,12,18,Woman,Right,
25,4,1,0.7336700000000747,['n'],1,right,['2'],5,2.3179393999998865,0.1,0,FastAcc,12,18,Woman,Right,
26,4,1,0.5676527999999053,['n'],1,right,['1'],6,1.4346624999998312,0.4,0,FastAcc,12,18,Woman,Right,
27,4,1,0.5829675999998472,['c'],1,left,['1'],6,1.4504880999998022,0.4,0,FastAcc,12,18,Woman,Right,
28,4,1,0.38364210000008825,['n'],1,right,['1'],6,1.5683090000002267,0.2,0,FastAcc,12,18,Woman,Right,
29,4,1,0.28355610000016895,['c'],0,right,['1'],6,1.134896700000354,0.1,0,FastAcc,12,18,Woman,Right,
30,4,1,1.0345698999999513,['c'],1,left,['1'],6,1.234602999999879,0.4,0,FastAcc,12,18,Woman,Right,
31,4,1,0.3845449999998891,['n'],0,left,['0'],1,2.0663652999996884,0.2,0,FastAcc,12,18,Woman,Right,
32,4,1,0.3997610999999779,"['n', 'c']",1,right,['0'],1,1.1849658000001,0.2,0,FastAcc,12,18,Woman,Right,
33,4,1,0.6015079999997397,['c'],1,left,['3'],4,1.6347483999998076,0.1,0,FastAcc,12,18,Woman,Right,
34,4,1,0.6497668000001795,['c'],1,left,['1'],6,2.2520282000000407,0.4,0,FastAcc,12,18,Woman,Right,
35,4,1,0.3837263999998868,['n'],0,left,['1'],6,0.9347084999999424,0.2,0,FastAcc,12,18,Woman,Right,
36,4,1,0.7999156999999286,['c'],1,left,['2'],5,1.1511623999999756,0.2,0,FastAcc,12,18,Woman,Right,
37,4,1,0.6002714000001106,['c'],0,right,['3'],4,1.9344426000002386,0.2,0,FastAcc,12,18,Woman,Right,
38,4,1,1.6010906000001341,['c'],1,left,['3'],4,1.6506389000001036,0.4,0,FastAcc,12,18,Woman,Right,
39,4,1,1.6658566999999493,['c'],1,left,['1'],6,1.551346199999898,0.2,0,FastAcc,12,18,Woman,Right,
40,4,1,0.43295390000002953,['n'],0,left,['2'],5,1.6506116999998994,0.4,0,FastAcc,12,18,Woman,Right,
41,4,1,0.3674180000002707,['c'],1,left,['1'],6,1.2346634999998969,0.1,0,FastAcc,12,18,Woman,Right,
42,4,1,0.3508249999999862,['n'],1,right,['8'],3,1.4167194999999992,0.1,0,FastAcc,12,18,Woman,Right,
43,4,1,0.5024377999998251,['c'],0,right,['0'],1,1.6512575000001561,0.2,0,FastAcc,12,18,Woman,Right,
44,4,1,0.5345097999997961,['c'],1,left,['1'],6,1.6680127999998149,0.4,0,FastAcc,12,18,Woman,Right,
45,4,1,0.7992742999999791,['n'],1,right,['2'],5,1.3509493000001385,0.1,0,FastAcc,12,18,Woman,Right,
46,4,1,0.49993229999972755,['c'],0,right,['1'],6,1.3845221999999922,0.2,0,FastAcc,12,18,Woman,Right,
47,4,1,0.4170063999999911,['c'],1,left,['8'],3,1.2520140000001447,0.4,0,FastAcc,12,18,Woman,Right,
48,4,1,1.017149100000097,['n'],1,right,['2'],5,1.5345382999998947,0.2,0,FastAcc,12,18,Woman,Right,
49,4,1,0.5674738000002435,['n'],0,left,['3'],4,0.8856219999997847,0.1,0,FastAcc,12,18,Woman,Right,
50,4,1,0.6507390000001578,['c'],1,left,['1'],6,1.7824735999997756,0.4,0,FastAcc,12,18,Woman,Right,
51,4,1,0.4508791999996902,['n'],1,right,['9'],2,1.6180399999998372,0.2,0,FastAcc,12,18,Woman,Right,
52,4,1,0.5489818000000923,['c'],0,right,['1'],6,1.552780200000143,0.1,0,FastAcc,12,18,Woman,Right,
53,4,1,0.7322720000001937,['n'],1,right,['1'],6,1.169059500000003,0.4,0,FastAcc,12,18,Woman,Right,
54,4,1,0.40009760000020833,['n'],1,right,['2'],5,1.0014335000000756,0.1,0,FastAcc,12,18,Woman,Right,
55,4,1,5.014357799999743,x,-99,right,none,-99,-99,0.2,1,FastAcc,12,18,Woman,Right,
56,4,1,0.6011678999998367,['n'],0,left,['2'],5,0.6844246000000567,0.4,0,FastAcc,12,18,Woman,Right,
57,4,1,0.7008495000000039,['c'],1,left,['2'],5,1.4831239000000096,0.1,0,FastAcc,12,18,Woman,Right,
58,4,1,0.46746429999984684,['n'],1,right,['9'],2,1.9510439000000588,0.1,0,FastAcc,12,18,Woman,Right,
59,4,1,1.0004358999999567,['c'],0,right,['2'],5,1.1825893000000178,0.2,0,FastAcc,12,18,Woman,Right,
0,5,1,0.7000348999999915,['n'],1,right,['2'],5,0.40199819999998,0.2,0,FastFast,12,18,Woman,Right,
1,5,1,0.6342084999996587,['c'],1,left,['1'],6,0.26672389999976076,0.2,0,FastFast,12,18,Woman,Right,
2,5,1,0.4000811999999314,['n'],1,right,['1'],6,0.3016227999996772,0.4,0,FastFast,12,18,Woman,Right,
3,5,1,0.46747899999991205,['c'],0,right,['9'],2,0.3350065999998151,0.4,0,FastFast,12,18,Woman,Right,
4,5,1,0.38287239999999656,['n'],1,right,['2'],5,0.3335781999999199,0.4,0,FastFast,12,18,Woman,Right,
5,5,1,0.38485709999986284,['c'],1,left,['0'],1,0.8182400000000598,0.1,0,FastFast,12,18,Woman,Right,
6,5,1,0.5830783999999767,['c'],0,right,['2'],5,0.6336827000000085,0.1,0,FastFast,12,18,Woman,Right,
7,5,1,1.217262699999992,['c'],1,left,['1'],6,1.3013943999999356,0.4,0,FastFast,12,18,Woman,Right,
8,5,1,0.41725410000026386,['n'],0,left,['2'],5,0.7014220999999452,0.1,0,FastFast,12,18,Woman,Right,
9,5,1,2.133847699999933,['n'],0,left,['0'],1,0.916535500000009,0.2,0,FastFast,12,18,Woman,Right,
10,5,1,0.6664303000002292,['c'],1,left,['2'],5,1.1687093999998979,0.1,0,FastFast,12,18,Woman,Right,
11,5,1,0.5505837000000611,['n'],1,right,['2'],5,0.36768480000000636,0.2,0,FastFast,12,18,Woman,Right,
12,5,1,0.601374400000168,['c'],1,left,['2'],5,0.5356106999997792,0.4,0,FastFast,12,18,Woman,Right,
13,5,1,0.7513907000002291,['n'],0,left,['0'],1,0.7520178999998279,0.1,0,FastFast,12,18,Woman,Right,
14,5,1,0.5650863999999274,['c'],1,left,['2'],5,0.516456200000448,0.1,0,FastFast,12,18,Woman,Right,
15,5,1,0.6835172999999486,['c'],0,right,['1'],6,0.4175943999998708,0.2,0,FastFast,12,18,Woman,Right,
16,5,1,0.44883329999993293,['n'],0,left,['2'],5,0.5524313000000802,0.1,0,FastFast,12,18,Woman,Right,
17,5,1,0.9838626999999178,['c'],0,right,['1'],6,0.40202929999986736,0.4,0,FastFast,12,18,Woman,Right,
18,5,1,1.3164772999998604,['c'],1,left,['3'],4,1.7504128000000492,0.2,0,FastFast,12,18,Woman,Right,
19,5,1,0.9002613000002384,['c'],1,left,['2'],5,0.4850960999997369,0.2,0,FastFast,12,18,Woman,Right,
20,5,1,0.6333824000003005,['c'],0,right,['9'],2,0.8349620999997569,0.4,0,FastFast,12,18,Woman,Right,
21,5,1,0.5502421999999569,['n'],1,right,['2'],5,0.5520203000000947,0.2,0,FastFast,12,18,Woman,Right,
22,5,1,0.8667014000002382,['c'],0,right,['2'],5,0.984589700000015,0.2,0,FastFast,12,18,Woman,Right,
23,5,1,0.7165509999999813,['c'],1,left,['1'],6,0.65144650000002,0.2,0,FastFast,12,18,Woman,Right,
24,5,1,0.8503195999996933,['c'],1,left,['3'],4,0.6348281999999017,0.1,0,FastFast,12,18,Woman,Right,
25,5,1,0.6000568999997995,['c'],1,left,['2'],5,0.4515261000001374,0.2,0,FastFast,12,18,Woman,Right,
26,5,1,0.5170137999998587,['n'],0,left,['9'],2,0.5007120999998733,0.4,0,FastFast,12,18,Woman,Right,
27,5,1,0.8830876000001808,['c'],0,right,['1'],6,0.3516709999998966,0.1,0,FastFast,12,18,Woman,Right,
28,5,1,0.634523100000024,['c'],1,left,['2'],5,0.4513712999996642,0.4,0,FastFast,12,18,Woman,Right,
29,5,1,0.45029159999967305,['n'],0,left,['2'],5,0.5513798999995743,0.4,0,FastFast,12,18,Woman,Right,
30,5,1,0.5167603999998391,['c'],1,left,['3'],4,0.4849808999997549,0.2,0,FastFast,12,18,Woman,Right,
31,5,1,0.7667990999998437,['c'],1,left,['1'],6,0.4013150000000678,0.4,0,FastFast,12,18,Woman,Right,
32,5,1,0.39997079999966445,['n'],1,right,['2'],5,0.4673053000001346,0.1,0,FastFast,12,18,Woman,Right,
33,5,1,0.5656407999999828,['c'],0,right,['1'],6,0.36880840000003445,0.1,0,FastFast,12,18,Woman,Right,
34,5,1,0.4326632999996036,['n'],0,left,['2'],5,0.3680998999998337,0.1,0,FastFast,12,18,Woman,Right,
35,5,1,0.43280819999972664,['c'],0,right,['1'],6,0.33547619999990275,0.2,0,FastFast,12,18,Woman,Right,
36,5,1,0.3671593000003668,['n'],0,left,['1'],6,0.28420299999970666,0.2,0,FastFast,12,18,Woman,Right,
37,5,1,0.8674267999999756,['c'],0,right,['1'],6,0.29921009999998205,0.2,0,FastFast,12,18,Woman,Right,
38,5,1,1.2998063000000002,['n'],0,left,['9'],2,0.38425950000009834,0.4,0,FastFast,12,18,Woman,Right,
39,5,1,0.6335908000000927,['c'],0,right,['2'],5,0.2673210000002655,0.1,0,FastFast,12,18,Woman,Right,
40,5,1,0.3671868000001268,['n'],1,right,['2'],5,0.3682630000002973,0.4,0,FastFast,12,18,Woman,Right,
41,5,1,0.44971669999995356,['c'],0,right,['1'],6,0.36793719999968744,0.2,0,FastFast,12,18,Woman,Right,
42,5,1,1.3332033000001502,['n'],1,right,['0'],1,0.6013496000000487,0.2,0,FastFast,12,18,Woman,Right,
43,5,1,0.6326484000001074,['c'],0,right,['1'],6,0.5854660999998487,0.2,0,FastFast,12,18,Woman,Right,
44,5,1,0.41639089999989665,['n'],0,left,['2'],5,0.6847771000002467,0.4,0,FastFast,12,18,Woman,Right,
45,5,1,0.4492506000001413,['c'],1,left,['1'],6,0.9013154999997823,0.1,0,FastFast,12,18,Woman,Right,
46,5,1,0.5323459999999614,['c'],1,left,['2'],5,0.4841183999997156,0.4,0,FastFast,12,18,Woman,Right,
47,5,1,0.4342586000002484,['n'],1,right,['8'],3,1.651080600000114,0.1,0,FastFast,12,18,Woman,Right,
48,5,1,0.5664845000001151,['c'],1,left,['3'],4,0.33496000000013737,0.1,0,FastFast,12,18,Woman,Right,
49,5,1,0.7506810999998379,['c'],1,left,['2'],5,0.7514047999998184,0.2,0,FastFast,12,18,Woman,Right,
50,5,1,0.6999065999998493,['n'],1,right,['0'],1,0.9349644999997508,0.2,0,FastFast,12,18,Woman,Right,
51,5,1,1.0003269000003456,['n'],0,left,['3'],4,0.4007430999999997,0.4,0,FastFast,12,18,Woman,Right,
52,5,1,0.5999172999995608,['c'],0,right,['1'],6,0.3345350999998118,0.4,0,FastFast,12,18,Woman,Right,
53,5,1,0.867384900000161,['n'],1,right,['3'],4,0.6179384000001846,0.1,0,FastFast,12,18,Woman,Right,
54,5,1,0.5337279000000308,['c'],0,right,['3'],4,0.3346404999997503,0.1,0,FastFast,12,18,Woman,Right,
55,5,1,0.8330543000001853,['n'],0,left,['8'],3,0.6025091000001339,0.4,0,FastFast,12,18,Woman,Right,
56,5,1,1.416587900000195,['n'],1,right,['3'],4,0.28567089999978634,0.1,0,FastFast,12,18,Woman,Right,
57,5,1,0.46689169999990554,['c'],0,right,['1'],6,0.41697320000002946,0.4,0,FastFast,12,18,Woman,Right,
58,5,1,0.7675457999998798,['n'],1,right,['8'],3,1.4005560999999034,0.1,0,FastFast,12,18,Woman,Right,
59,5,1,0.5505160000002434,['c'],0,right,['9'],2,1.9346065999998245,0.4,0,FastFast,12,18,Woman,Right,
0,6,1,0.83441189999985,['c'],1,left,['8'],3,0.8182235999997829,0.4,0,AccFast,12,18,Woman,Right,
1,6,1,0.8828895999999986,['n'],0,left,['1'],6,0.25068540000029316,0.2,0,AccFast,12,18,Woman,Right,
2,6,1,0.7843664000001809,['c'],1,left,['8'],3,0.40155430000004344,0.2,0,AccFast,12,18,Woman,Right,
3,6,1,0.7176217999999608,['n'],0,left,['1'],6,0.4681488999999601,0.2,0,AccFast,12,18,Woman,Right,
4,6,1,1.1665563999999904,['c'],0,right,['1'],6,0.2855359000000135,0.4,0,AccFast,12,18,Woman,Right,
5,6,1,0.8505528999999115,['c'],1,left,['1'],6,0.3848846999999296,0.2,0,AccFast,12,18,Woman,Right,
6,6,1,0.6493909000000713,['c'],1,left,['2'],5,0.4504933000002893,0.1,0,AccFast,12,18,Woman,Right,
7,6,1,0.9670071999998981,['c'],0,right,['3'],4,0.4015795000000253,0.1,0,AccFast,12,18,Woman,Right,
8,6,1,0.6507565000001705,['c'],1,left,['8'],3,0.5348970999998528,0.4,0,AccFast,12,18,Woman,Right,
9,6,1,1.9672585000002982,['n'],0,left,['8'],3,0.33478199999990466,0.2,0,AccFast,12,18,Woman,Right,
10,6,1,0.9003850999997667,['c'],0,right,['3'],4,1.000529099999767,0.2,0,AccFast,12,18,Woman,Right,
11,6,1,3.7333020000000943,['n'],1,right,['3'],4,0.28475680000019565,0.2,0,AccFast,12,18,Woman,Right,
12,6,1,2.6670162999998865,['n'],1,right,['3'],4,0.1328467000003002,0.2,0,AccFast,12,18,Woman,Right,
13,6,1,1.5856437000002188,['c'],1,left,['8'],3,0.18405799999982264,0.1,0,AccFast,12,18,Woman,Right,
14,6,1,1.6002450999999382,['n'],0,left,['1'],6,0.2514542999997502,0.4,0,AccFast,12,18,Woman,Right,
15,6,1,3.066595700000107,['c'],1,left,['3'],4,0.36816330000010566,0.1,0,AccFast,12,18,Woman,Right,
16,6,1,4.76640929999985,['n'],1,right,['3'],4,0.2683948000003511,0.1,0,AccFast,12,18,Woman,Right,
17,6,1,1.182633899999928,['c'],1,left,['1'],6,0.41808979999996154,0.1,0,AccFast,12,18,Woman,Right,
18,6,1,3.3833435000001373,['n'],1,right,['8'],3,1.0349003999999695,0.1,0,AccFast,12,18,Woman,Right,
19,6,1,1.7003361999995832,['c'],1,left,['8'],3,0.3506808000001911,0.4,0,AccFast,12,18,Woman,Right,
20,6,1,0.8829623000001448,['n'],1,right,['2'],5,0.384652300000198,0.4,0,AccFast,12,18,Woman,Right,
21,6,1,1.81658809999999,['c'],0,right,['2'],5,0.3505737999998928,0.1,0,AccFast,12,18,Woman,Right,
22,6,1,2.517008700000133,['c'],1,left,['2'],5,0.2843536000000313,0.1,0,AccFast,12,18,Woman,Right,
23,6,1,2.3826122999998915,['n'],1,right,['3'],4,0.6022235000000364,0.4,0,AccFast,12,18,Woman,Right,
24,6,1,1.532731899999817,['n'],1,right,['8'],3,0.6346373999999741,0.4,0,AccFast,12,18,Woman,Right,
25,6,1,1.4168973000000733,['c'],1,left,['1'],6,0.5681194999997388,0.2,0,AccFast,12,18,Woman,Right,
26,6,1,1.7338513999998213,['c'],0,right,['1'],6,0.20112090000020544,0.4,0,AccFast,12,18,Woman,Right,
27,6,1,3.6502379000003202,['c'],1,left,['1'],6,0.301331200000277,0.2,0,AccFast,12,18,Woman,Right,
28,6,1,0.8835715999998683,['n'],1,right,['1'],6,0.31896499999993466,0.4,0,AccFast,12,18,Woman,Right,
29,6,1,0.8991571999999906,['c'],1,left,['1'],6,0.35195199999998295,0.4,0,AccFast,12,18,Woman,Right,
30,6,1,1.7827784999999494,['n'],1,right,['2'],5,0.13454020000017408,0.1,0,AccFast,12,18,Woman,Right,
31,6,1,2.6008661000000757,['n'],1,right,['1'],6,0.20172240000010788,0.1,0,AccFast,12,18,Woman,Right,
32,6,1,1.9664717000000564,['n'],1,right,['8'],3,0.3174210000001949,0.2,0,AccFast,12,18,Woman,Right,
33,6,1,1.2502208999999311,['c'],1,left,['3'],4,0.28472659999988537,0.4,0,AccFast,12,18,Woman,Right,
34,6,1,1.7342871000000741,['c'],1,left,['8'],3,0.251345499999843,0.4,0,AccFast,12,18,Woman,Right,
35,6,1,1.2174585999996452,['n'],1,right,['3'],4,0.25006889999986015,0.2,0,AccFast,12,18,Woman,Right,
36,6,1,1.7338890999999421,['c'],0,right,['8'],3,1.449966300000142,0.1,0,AccFast,12,18,Woman,Right,
37,6,1,2.2164388999999574,['n'],1,right,['2'],5,0.7172424000000319,0.1,0,AccFast,12,18,Woman,Right,
38,6,1,2.284041000000343,['c'],1,left,['3'],4,1.101370599999882,0.2,0,AccFast,12,18,Woman,Right,
39,6,1,1.0811674000001403,['n'],1,right,['2'],5,0.6194172999998955,0.4,0,AccFast,12,18,Woman,Right,
40,6,1,1.3153686000000562,['c'],0,right,['8'],3,0.7690188999999918,0.2,0,AccFast,12,18,Woman,Right,
41,6,1,1.6172506000002613,['c'],1,left,['1'],6,0.20106289999966975,0.1,0,AccFast,12,18,Woman,Right,
42,6,1,2.099025999999867,['n'],0,left,['2'],5,0.15208260000008522,0.1,0,AccFast,12,18,Woman,Right,
43,6,1,1.9341457000000446,['c'],0,right,['3'],4,0.23338590000003023,0.2,0,AccFast,12,18,Woman,Right,
44,6,1,1.6845967000003839,['n'],0,left,['3'],4,0.21736730000020543,0.2,0,AccFast,12,18,Woman,Right,
45,6,1,1.1172317999998995,['c'],0,right,['1'],6,0.3677940000002309,0.2,0,AccFast,12,18,Woman,Right,
46,6,1,2.1836969999999383,['n'],1,right,['1'],6,0.20115089999990232,0.4,0,AccFast,12,18,Woman,Right,
47,6,1,1.50078510000003,['n'],1,right,['1'],6,0.41798130000006495,0.4,0,AccFast,12,18,Woman,Right,
48,6,1,0.9659113000002435,['c'],0,right,['3'],4,0.33470009999973627,0.1,0,AccFast,12,18,Woman,Right,
49,6,1,1.284552099999928,['n'],1,right,['2'],5,0.39977630000021236,0.1,0,AccFast,12,18,Woman,Right,
50,6,1,1.3009311999999227,['n'],1,right,['2'],5,0.16774290000012115,0.2,0,AccFast,12,18,Woman,Right,
51,6,1,2.681404399999792,['c'],1,left,['1'],6,0.23346020000008139,0.2,0,AccFast,12,18,Woman,Right,
52,6,1,1.6010355000003074,['n'],0,left,['2'],5,0.21808880000025965,0.1,0,AccFast,12,18,Woman,Right,
53,6,1,3.0168762999996943,['n'],0,left,['2'],5,0.30117589999963457,0.1,0,AccFast,12,18,Woman,Right,
54,6,1,2.0336600000000544,['c'],1,left,['1'],6,0.20026159999997617,0.4,0,AccFast,12,18,Woman,Right,
55,6,1,2.767450100000133,['n'],0,left,['1'],6,0.28309779999972307,0.1,0,AccFast,12,18,Woman,Right,
56,6,1,1.4677860000001601,['n'],1,right,['2'],5,0.18595589999995354,0.4,0,AccFast,12,18,Woman,Right,
57,6,1,1.233936900000117,['c'],1,left,['1'],6,0.21808689999988928,0.4,0,AccFast,12,18,Woman,Right,
58,6,1,1.1172495000000708,['n'],0,left,['2'],5,0.3344617999996444,0.2,0,AccFast,12,18,Woman,Right,
59,6,1,1.0173764999999548,['n'],1,right,['2'],5,0.1346163999996861,0.4,0,AccFast,12,18,Woman,Right,
0,7,1,1.4008779000000686,['n'],1,right,['2'],5,1.1514523999999255,0.2,0,AccAcc,12,18,Woman,Right,
1,7,1,2.449033899999904,['n'],1,right,['3'],4,1.0187419999997473,0.2,0,AccAcc,12,18,Woman,Right,
2,7,1,1.516301900000144,['n'],1,right,['1'],6,0.3846444999999221,0.4,0,AccAcc,12,18,Woman,Right,
3,7,1,2.9501030999999784,['n'],1,right,['2'],5,1.0839137000002665,0.2,0,AccAcc,12,18,Woman,Right,
4,7,1,3.3670216999998956,['c'],1,left,['2'],5,0.8846158999999716,0.2,0,AccAcc,12,18,Woman,Right,
5,7,1,1.032897999999932,['n'],1,right,['1'],6,0.7008082000002105,0.1,0,AccAcc,12,18,Woman,Right,
6,7,1,1.4006920000001628,['n'],1,right,['1'],6,0.8009996999999203,0.1,0,AccAcc,12,18,Woman,Right,
7,7,1,1.6835476000001108,['c'],1,left,['2'],5,1.1014215999998669,0.4,0,AccAcc,12,18,Woman,Right,
8,7,1,3.383835999999974,['c'],1,left,['3'],4,0.751005300000088,0.1,0,AccAcc,12,18,Woman,Right,
9,7,1,1.6994411999999102,['c'],1,left,['1'],6,0.5015284999999494,0.4,0,AccAcc,12,18,Woman,Right,
10,7,1,1.3829690000002302,['n'],1,right,['3'],4,1.367501700000048,0.1,0,AccAcc,12,18,Woman,Right,
11,7,1,1.6829309999998259,['c'],1,left,['8'],3,1.417907600000035,0.2,0,AccAcc,12,18,Woman,Right,
12,7,1,2.266524699999991,['n'],1,right,['2'],5,0.8680980999997701,0.1,0,AccAcc,12,18,Woman,Right,
13,7,1,1.4675250000000233,['c'],1,left,['3'],4,0.8018417000002955,0.1,0,AccAcc,12,18,Woman,Right,
14,7,1,0.9495934000001398,['n'],1,right,['1'],6,0.3834689000000253,0.4,0,AccAcc,12,18,Woman,Right,
15,7,1,1.1506380000000718,['n'],1,right,['1'],6,0.6343498000001091,0.1,0,AccAcc,12,18,Woman,Right,
16,7,1,5.016757599999892,x,-99,left,none,-99,-99,0.1,1,AccAcc,12,18,Woman,Right,
17,7,1,1.3680809000002228,['n'],0,left,['2'],5,1.0346219000002748,0.1,0,AccAcc,12,18,Woman,Right,
18,7,1,1.033947999999782,['c'],1,left,['1'],6,0.6167474999997467,0.2,0,AccAcc,12,18,Woman,Right,
19,7,1,0.8343722000004163,['n'],0,left,['3'],4,1.168474900000092,0.2,0,AccAcc,12,18,Woman,Right,
20,7,1,1.434263600000122,['n'],1,right,['2'],5,1.0839327999997295,0.1,0,AccAcc,12,18,Woman,Right,
21,7,1,3.266713299999992,['n'],1,right,['3'],4,0.8844311000002563,0.1,0,AccAcc,12,18,Woman,Right,
22,7,1,3.6003278000002865,['c'],0,right,['8'],3,0.8510408999995889,0.2,0,AccAcc,12,18,Woman,Right,
23,7,1,2.2671137999996063,['n'],0,left,['8'],3,0.9691178999996737,0.4,0,AccAcc,12,18,Woman,Right,
24,7,1,3.2326897000002646,['c'],0,right,['3'],4,0.5694768000003023,0.2,0,AccAcc,12,18,Woman,Right,
25,7,1,2.215147799999613,['c'],1,left,['1'],6,0.7678071999998792,0.4,0,AccAcc,12,18,Woman,Right,
26,7,1,2.1671785999997155,['n'],1,right,['8'],3,0.5348168999998961,0.2,0,AccAcc,12,18,Woman,Right,
27,7,1,1.317275299999892,['n'],1,right,['3'],4,1.8011536999997588,0.1,0,AccAcc,12,18,Woman,Right,
28,7,1,1.9998034999998708,['n'],1,right,['3'],4,0.40116710000029343,0.4,0,AccAcc,12,18,Woman,Right,
29,7,1,3.1998904000001858,['c'],1,left,['3'],4,0.6522522000000208,0.2,0,AccAcc,12,18,Woman,Right,
30,7,1,2.733633800000007,['n'],0,left,['3'],4,0.6177448000003096,0.2,0,AccAcc,12,18,Woman,Right,
31,7,1,5.01596120000022,x,-99,right,none,-99,-99,0.1,1,AccAcc,12,18,Woman,Right,
32,7,1,1.400654399999894,['n'],0,left,['2'],5,0.7840642000001026,0.2,0,AccAcc,12,18,Woman,Right,
33,7,1,1.90044429999989,['n'],1,right,['8'],3,0.3013260000002447,0.4,0,AccAcc,12,18,Woman,Right,
34,7,1,1.2340925000003153,['c'],1,left,['0'],1,0.3679722000001675,0.4,0,AccAcc,12,18,Woman,Right,
35,7,1,1.084097500000098,['n'],1,right,['0'],1,0.2680803000002925,0.2,0,AccAcc,12,18,Woman,Right,
36,7,1,3.7829507999999805,['c'],1,left,['3'],4,0.6679718000000321,0.2,0,AccAcc,12,18,Woman,Right,
37,7,1,1.7506560000001627,['n'],0,left,['0'],1,0.7847386000003098,0.1,0,AccAcc,12,18,Woman,Right,
38,7,1,2.499671000000035,['n'],0,left,['9'],2,0.7512381000001369,0.2,0,AccAcc,12,18,Woman,Right,
39,7,1,2.6847438999998303,['c'],0,right,['9'],2,1.5346942999999555,0.4,0,AccAcc,12,18,Woman,Right,
40,7,1,2.7175853999997344,['n'],1,right,['9'],2,0.3832126000002063,0.4,0,AccAcc,12,18,Woman,Right,
41,7,1,2.3675365999997666,['n'],0,left,['9'],2,0.8346750999999131,0.2,0,AccAcc,12,18,Woman,Right,
42,7,1,4.332459299999755,['n'],0,left,['9'],2,0.40046799999981886,0.4,0,AccAcc,12,18,Woman,Right,
43,7,1,2.367595000000165,['c'],1,left,['1'],6,0.8182206000001315,0.1,0,AccAcc,12,18,Woman,Right,
44,7,1,2.916983699999946,['c'],0,right,['2'],5,0.6680859000002783,0.1,0,AccAcc,12,18,Woman,Right,
45,7,1,2.7501704999999674,['n'],0,left,['3'],4,0.8514735999997356,0.1,0,AccAcc,12,18,Woman,Right,
46,7,1,1.2491525000000365,['n'],1,right,['8'],3,0.3684486000001925,0.4,0,AccAcc,12,18,Woman,Right,
47,7,1,1.6654469000000063,['c'],1,left,['3'],4,0.8860147999998844,0.4,0,AccAcc,12,18,Woman,Right,
48,7,1,1.8998699000003398,['c'],0,right,['3'],4,0.599773400000231,0.4,0,AccAcc,12,18,Woman,Right,
49,7,1,0.9011568000000807,['c'],0,right,['2'],5,0.8835795999998481,0.2,0,AccAcc,12,18,Woman,Right,
50,7,1,3.301000400000248,['n'],0,left,['0'],1,0.4506980000001022,0.1,0,AccAcc,12,18,Woman,Right,
51,7,1,1.9660232000001088,['c'],0,right,['9'],2,0.4007406999999148,0.4,0,AccAcc,12,18,Woman,Right,
52,7,1,3.566685399999642,['c'],1,left,['2'],5,0.5180427000000236,0.4,0,AccAcc,12,18,Woman,Right,
53,7,1,1.9160087999998723,['n'],0,left,['0'],1,0.3851057000001674,0.1,0,AccAcc,12,18,Woman,Right,
54,7,1,3.2170188000000053,['n'],1,right,['0'],1,0.6504307000000153,0.2,0,AccAcc,12,18,Woman,Right,
55,7,1,3.7679047999999966,['n'],0,left,['0'],1,0.33435069999995903,0.4,0,AccAcc,12,18,Woman,Right,
56,7,1,2.350537400000121,['c'],1,left,['3'],4,0.7847065000000839,0.1,0,AccAcc,12,18,Woman,Right,
57,7,1,1.8501399000001584,['n'],1,right,['3'],4,0.518185099999755,0.4,0,AccAcc,12,18,Woman,Right,
58,7,1,0.9500370000000657,['c'],1,left,['3'],4,0.5512986000003366,0.2,0,AccAcc,12,18,Woman,Right,
59,7,1,2.0003226999997423,['n'],1,right,['8'],3,0.4168937999997979,0.4,0,AccAcc,12,18,Woman,Right,
0,8,1,1.8496464999998352,['n'],0,left,['8'],3,0.667363000000023,0.4,0,FastAcc,12,18,Woman,Right,
1,8,1,0.3679090999999062,['c'],1,left,['2'],5,0.7345734000000448,0.2,0,FastAcc,12,18,Woman,Right,
2,8,1,0.5669941999999537,['n'],1,right,['2'],5,0.7348320999999487,0.4,0,FastAcc,12,18,Woman,Right,
3,8,1,1.9160044000000198,['n'],1,right,['8'],3,0.7172164999997221,0.2,0,FastAcc,12,18,Woman,Right,
4,8,1,5.015522200000305,x,-99,right,none,-99,-99,0.4,1,FastAcc,12,18,Woman,Right,
5,8,1,0.6841944999996485,['n'],0,left,['8'],3,0.35167530000035185,0.2,0,FastAcc,12,18,Woman,Right,
6,8,1,0.8169852999999421,['n'],0,left,['0'],1,0.43341549999968265,0.2,0,FastAcc,12,18,Woman,Right,
7,8,1,1.051654100000178,['c'],1,left,['3'],4,2.30139169999984,0.1,0,FastAcc,12,18,Woman,Right,
8,8,1,1.4168972999996186,['n'],0,left,['8'],3,0.7679413999999269,0.4,0,FastAcc,12,18,Woman,Right,
9,8,1,1.4493720999998914,['c'],0,right,['2'],5,0.8688830999999482,0.2,0,FastAcc,12,18,Woman,Right,
10,8,1,3.283570199999758,['c'],1,left,['2'],5,1.134941499999968,0.1,0,FastAcc,12,18,Woman,Right,
11,8,1,2.8839012999997067,['n'],0,left,['9'],2,2.134317099999862,0.4,0,FastAcc,12,18,Woman,Right,
12,8,1,0.34931509999978516,['c'],0,right,['3'],4,1.717447799999718,0.4,0,FastAcc,12,18,Woman,Right,
13,8,1,0.7503133000000162,['n'],0,left,['9'],2,1.5841322999999647,0.1,0,FastAcc,12,18,Woman,Right,
14,8,1,1.4836897000000135,['c'],0,right,['2'],5,0.8667341999998825,0.4,0,FastAcc,12,18,Woman,Right,
15,8,1,1.9324918000002071,['n'],1,right,['0'],1,1.052898599999935,0.1,0,FastAcc,12,18,Woman,Right,
16,8,1,1.5496258000002854,['c'],1,left,['0'],1,0.4693419999998696,0.2,0,FastAcc,12,18,Woman,Right,
17,8,1,0.7323808999999528,['n'],1,right,['9'],2,1.383664399999816,0.4,0,FastAcc,12,18,Woman,Right,
18,8,1,0.3666696000000229,['c'],0,right,['3'],4,1.2014463000000433,0.4,0,FastAcc,12,18,Woman,Right,
19,8,1,0.34932849999995597,['n'],0,left,['8'],3,1.4518425000001116,0.4,0,FastAcc,12,18,Woman,Right,
20,8,1,0.5345899000003556,['c'],1,left,['3'],4,2.2166595000003326,0.1,0,FastAcc,12,18,Woman,Right,
21,8,1,1.1008007999998881,['c'],0,right,['3'],4,1.567950600000131,0.1,0,FastAcc,12,18,Woman,Right,
22,8,1,0.3491954999999507,['n'],0,left,['8'],3,1.602429800000209,0.4,0,FastAcc,12,18,Woman,Right,
23,8,1,1.3327271000002838,['c'],0,right,['3'],4,0.9347436000002745,0.4,0,FastAcc,12,18,Woman,Right,
24,8,1,0.9990080000002308,['n'],0,left,['8'],3,1.5012987999998586,0.4,0,FastAcc,12,18,Woman,Right,
25,8,1,0.9835496999999123,['c'],0,right,['0'],1,1.1513872999998966,0.1,0,FastAcc,12,18,Woman,Right,
26,8,1,0.849235900000167,['c'],0,right,['9'],2,1.0852692000003117,0.2,0,FastAcc,12,18,Woman,Right,
27,8,1,1.033136900000045,['c'],0,right,['8'],3,1.351639200000136,0.1,0,FastAcc,12,18,Woman,Right,
28,8,1,0.5687127000001055,['c'],1,left,['8'],3,1.0512423999998646,0.2,0,FastAcc,12,18,Woman,Right,
29,8,1,0.5157607999999527,['n'],0,left,['9'],2,0.6187035000002652,0.1,0,FastAcc,12,18,Woman,Right,
30,8,1,0.4818929000002754,['c'],0,right,['0'],1,0.6025589000000764,0.1,0,FastAcc,12,18,Woman,Right,
31,8,1,2.8166791000003286,['n'],1,right,['8'],3,0.8499973000002683,0.4,0,FastAcc,12,18,Woman,Right,
32,8,1,0.7173215000002529,['c'],1,left,['8'],3,1.2345310999999128,0.4,0,FastAcc,12,18,Woman,Right,
33,8,1,0.7496195999997326,['c'],1,left,['0'],1,0.485349000000042,0.1,0,FastAcc,12,18,Woman,Right,
34,8,1,0.8503746000001229,['c'],1,left,['9'],2,0.46708899999975984,0.1,0,FastAcc,12,18,Woman,Right,
35,8,1,0.7671986000000288,['c'],1,left,['9'],2,0.6511099999997896,0.2,0,FastAcc,12,18,Woman,Right,
36,8,1,0.7502012999998442,['n'],1,right,['8'],3,1.2173358000000007,0.2,0,FastAcc,12,18,Woman,Right,
37,8,1,0.5007802000000083,['c'],0,right,['8'],3,1.3852477000000363,0.1,0,FastAcc,12,18,Woman,Right,
38,8,1,0.8839554999999564,['c'],1,left,['8'],3,1.0681198000002041,0.4,0,FastAcc,12,18,Woman,Right,
39,8,1,3.6494074000002,['c'],1,left,['2'],5,0.8688164999998662,0.4,0,FastAcc,12,18,Woman,Right,
40,8,1,2.115307699999903,['c'],1,left,['3'],4,1.5349845000000641,0.2,0,FastAcc,12,18,Woman,Right,
41,8,1,2.0340009999999893,['c'],0,right,['3'],4,1.767989899999975,0.1,0,FastAcc,12,18,Woman,Right,
42,8,1,0.7168994000003295,['n'],1,right,['3'],4,1.1668313000000126,0.1,0,FastAcc,12,18,Woman,Right,
43,8,1,0.6838913999999932,['c'],1,left,['2'],5,1.0667247999999745,0.4,0,FastAcc,12,18,Woman,Right,
44,8,1,1.2000772999999754,['c'],1,left,['3'],4,1.2345900000000256,0.2,0,FastAcc,12,18,Woman,Right,
45,8,1,1.116678999999749,['n'],1,right,['3'],4,1.4512068000003637,0.2,0,FastAcc,12,18,Woman,Right,
46,8,1,0.8501848999994763,['c'],1,left,['2'],5,1.500455200000033,0.1,0,FastAcc,12,18,Woman,Right,
47,8,1,1.2818327000004501,['n'],1,right,['3'],4,1.0846704999994472,0.1,0,FastAcc,12,18,Woman,Right,
48,8,1,1.0504547999998977,['c'],0,right,['1'],6,0.8346561000007569,0.2,0,FastAcc,12,18,Woman,Right,
49,8,1,0.8822675000001254,['n'],0,left,['8'],3,1.1341728999996121,0.4,0,FastAcc,12,18,Woman,Right,
50,8,1,0.8681523000004745,['c'],0,right,['2'],5,0.8179758999995101,0.4,0,FastAcc,12,18,Woman,Right,
51,8,1,1.0174694000006639,['c'],1,left,['2'],5,0.800378300000375,0.2,0,FastAcc,12,18,Woman,Right,
52,8,1,0.46620030000030965,['n'],1,right,['2'],5,0.7855334999994739,0.2,0,FastAcc,12,18,Woman,Right,
53,8,1,0.8498655999992479,['c'],0,right,['3'],4,0.984770799999751,0.1,0,FastAcc,12,18,Woman,Right,
54,8,1,0.8836546000002272,['c'],1,left,['2'],5,1.1664897000000565,0.1,0,FastAcc,12,18,Woman,Right,
55,8,1,1.4010045000004538,['c'],1,left,['2'],5,0.834207900000365,0.2,0,FastAcc,12,18,Woman,Right,
56,8,1,1.499377999999524,['n'],1,right,['2'],5,2.0180531999994855,0.1,0,FastAcc,12,18,Woman,Right,
57,8,1,0.615065300000424,['n'],1,right,['2'],5,0.3175676000000749,0.2,0,FastAcc,12,18,Woman,Right,
58,8,1,0.6664423000001989,['n'],1,right,['2'],5,0.652628700000605,0.2,0,FastAcc,12,18,Woman,Right,
59,8,1,0.7835846999996647,['n'],1,right,['2'],5,0.6832764999999199,0.2,0,FastAcc,12,18,Woman,Right,
0,9,1,0.7666239999998652,['n'],1,right,['3'],4,0.3179516000000149,0.1,0,FastFast,12,18,Woman,Right,
1,9,1,0.8011108000000604,['c'],1,left,['1'],6,0.3513579000000391,0.4,0,FastFast,12,18,Woman,Right,
2,9,1,1.6173944000001939,['c'],1,left,['1'],6,0.30251529999986815,0.4,0,FastFast,12,18,Woman,Right,
3,9,1,1.0171193000005587,['c'],1,left,['1'],6,0.2503077999999732,0.4,0,FastFast,12,18,Woman,Right,
4,9,1,0.48467100000016217,['n'],1,right,['1'],6,0.21816339999986667,0.4,0,FastFast,12,18,Woman,Right,
5,9,1,0.9331910999999309,['c'],0,right,['2'],5,0.3520879999996396,0.2,0,FastFast,12,18,Woman,Right,
6,9,1,0.9017275999995036,['c'],1,left,['3'],4,0.2170472999996491,0.2,0,FastFast,12,18,Woman,Right,
7,9,1,1.0501729999996314,['n'],1,right,['8'],3,0.1855940000004921,0.2,0,FastFast,12,18,Woman,Right,
8,9,1,0.9499177000006966,['c'],1,left,['1'],6,0.2514405000001716,0.2,0,FastFast,12,18,Woman,Right,
9,9,1,0.7166827999999441,['n'],0,left,['2'],5,0.20165989999986778,0.1,0,FastFast,12,18,Woman,Right,
10,9,1,1.1323569999995016,['c'],1,left,['2'],5,0.23470569999972213,0.4,0,FastFast,12,18,Woman,Right,
11,9,1,0.9824385000001712,['n'],1,right,['3'],4,0.20221829999991314,0.2,0,FastFast,12,18,Woman,Right,
12,9,1,0.7167131000005611,['c'],1,left,['1'],6,0.7005681999999069,0.2,0,FastFast,12,18,Woman,Right,
13,9,1,0.8166895000003933,['c'],0,right,['2'],5,0.2688875999992888,0.1,0,FastFast,12,18,Woman,Right,
14,9,1,0.6333039999999528,['n'],0,left,['3'],4,0.2666715999994267,0.1,0,FastFast,12,18,Woman,Right,
15,9,1,0.6664153000001534,['c'],1,left,['8'],3,0.2025986999997258,0.1,0,FastFast,12,18,Woman,Right,
16,9,1,1.0167061000001922,['n'],1,right,['3'],4,0.1845686000006026,0.1,0,FastFast,12,18,Woman,Right,
17,9,1,0.750853499999721,['n'],1,right,['3'],4,0.20078920000014477,0.4,0,FastFast,12,18,Woman,Right,
18,9,1,0.600456099999974,['c'],1,left,['1'],6,0.2516185000004043,0.4,0,FastFast,12,18,Woman,Right,
19,9,1,0.6992386000001716,['n'],1,right,['3'],4,0.16898760000003676,0.1,0,FastFast,12,18,Woman,Right,
20,9,1,0.8340764000004128,['c'],1,left,['1'],6,0.2848855000002004,0.2,0,FastFast,12,18,Woman,Right,
21,9,1,0.5660599999991973,['n'],1,right,['1'],6,0.20232450000003155,0.1,0,FastFast,12,18,Woman,Right,
22,9,1,0.43463010000050417,['c'],0,right,['1'],6,0.25151090000053955,0.2,0,FastFast,12,18,Woman,Right,
23,9,1,0.4665476000000126,['n'],0,left,['1'],6,0.21793040000011388,0.2,0,FastFast,12,18,Woman,Right,
24,9,1,0.7173867999999857,['c'],0,right,['1'],6,0.25085829999989073,0.1,0,FastFast,12,18,Woman,Right,
25,9,1,0.5499163000004046,['n'],0,left,['2'],5,0.2023613999999725,0.4,0,FastFast,12,18,Woman,Right,
26,9,1,0.6164416999999958,['c'],0,right,['2'],5,0.3166668000003483,0.1,0,FastFast,12,18,Woman,Right,
27,9,1,0.7999443999997311,['c'],1,left,['2'],5,0.20200260000001435,0.1,0,FastFast,12,18,Woman,Right,
28,9,1,0.6835577000001649,['c'],1,left,['2'],5,0.2686723999995593,0.4,0,FastFast,12,18,Woman,Right,
29,9,1,0.8317089000001943,['c'],1,left,['2'],5,0.23426649999964866,0.4,0,FastFast,12,18,Woman,Right,
30,9,1,0.5503405999997995,['n'],1,right,['2'],5,0.20212999999966996,0.2,0,FastFast,12,18,Woman,Right,
31,9,1,0.7172307999999248,['n'],1,right,['3'],4,0.21742079999967245,0.4,0,FastFast,12,18,Woman,Right,
32,9,1,0.5842131999997946,['c'],1,left,['1'],6,0.21752500000002328,0.4,0,FastFast,12,18,Woman,Right,
33,9,1,0.6164001000006465,['n'],0,left,['3'],4,0.1848876999993081,0.1,0,FastFast,12,18,Woman,Right,
34,9,1,0.5993115000001126,['c'],1,left,['3'],4,0.21827780000057828,0.2,0,FastFast,12,18,Woman,Right,
35,9,1,0.6346580999997968,['c'],1,left,['8'],3,0.3499954999997499,0.1,0,FastFast,12,18,Woman,Right,
36,9,1,1.0011263000005783,['c'],0,right,['1'],6,0.35138890000052925,0.1,0,FastFast,12,18,Woman,Right,
37,9,1,0.8839050000005955,['c'],1,left,['3'],4,0.23484389999975974,0.4,0,FastFast,12,18,Woman,Right,
38,9,1,0.5334754999994402,['c'],0,right,['3'],4,0.2684963000001517,0.1,0,FastFast,12,18,Woman,Right,
39,9,1,0.5334560999999667,['c'],1,left,['1'],6,0.41806410000026517,0.1,0,FastFast,12,18,Woman,Right,
40,9,1,0.8835898999996061,['n'],1,right,['2'],5,0.20103980000021693,0.2,0,FastFast,12,18,Woman,Right,
41,9,1,0.5673039000002973,['c'],0,right,['2'],5,0.2670976999997947,0.1,0,FastFast,12,18,Woman,Right,
42,9,1,0.6168636000002152,['c'],0,right,['2'],5,0.36780369999996765,0.4,0,FastFast,12,18,Woman,Right,
43,9,1,0.7000839000002088,['c'],1,left,['2'],5,0.20217009999942093,0.4,0,FastFast,12,18,Woman,Right,
44,9,1,0.7671216000007917,['c'],0,right,['2'],5,0.318095199999334,0.1,0,FastFast,12,18,Woman,Right,
45,9,1,0.5838610999999219,['c'],1,left,['3'],4,0.21826820000023872,0.4,0,FastFast,12,18,Woman,Right,
46,9,1,0.5334988000004159,['c'],1,left,"['2', '1']",5,0.286477499999819,0.2,0,FastFast,12,18,Woman,Right,
47,9,1,0.6996364999995421,['c'],0,right,['2'],5,0.268165699999372,0.2,0,FastFast,12,18,Woman,Right,
48,9,1,0.7497658000002048,['n'],1,right,['3'],4,0.2013985000003231,0.4,0,FastFast,12,18,Woman,Right,
49,9,1,0.4505447000001368,['c'],0,right,['1'],6,0.23394809999990684,0.1,0,FastFast,12,18,Woman,Right,
50,9,1,0.7505706000001737,['n'],1,right,['2'],5,0.2006306000002951,0.2,0,FastFast,12,18,Woman,Right,
51,9,1,0.7848973000000115,['c'],0,right,['9'],2,0.20064989999991667,0.4,0,FastFast,12,18,Woman,Right,
52,9,1,0.9001407999994626,['n'],1,right,['1'],6,0.6028365000001941,0.4,0,FastFast,12,18,Woman,Right,
53,9,1,0.6344994000000952,['c'],1,left,['1'],6,0.16823519999979908,0.1,0,FastFast,12,18,Woman,Right,
54,9,1,1.1843951000000743,['n'],0,left,['0'],1,0.31852320000052714,0.2,0,FastFast,12,18,Woman,Right,
55,9,1,0.8176469999998517,['c'],1,left,['2'],5,0.20013790000029985,0.4,0,FastFast,12,18,Woman,Right,
56,9,1,0.6669934999999896,['n'],1,right,['2'],5,0.16863090000060765,0.2,0,FastFast,12,18,Woman,Right,
57,9,1,0.6844601000002513,['n'],1,right,['1'],6,0.1673306999991837,0.2,0,FastFast,12,18,Woman,Right,
58,9,1,0.8826002999994671,['n'],1,right,['1'],6,0.18556719999924098,0.2,0,FastFast,12,18,Woman,Right,
59,9,1,0.9336789999997563,['c'],1,left,['1'],6,0.15177539999967848,0.2,0,FastFast,12,18,Woman,Right,
0,10,1,2.5010878000002776,['n'],0,left,['2'],5,0.46816539999963425,0.1,0,AccFast,12,18,Woman,Right,
1,10,1,2.582485999999335,['c'],1,left,['2'],5,0.1856089000002612,0.2,0,AccFast,12,18,Woman,Right,
2,10,1,3.1500699000007444,['c'],1,left,['9'],2,0.18514600000071368,0.2,0,AccFast,12,18,Woman,Right,
3,10,1,3.050284599999941,['n'],1,right,['2'],5,0.3512100999996619,0.2,0,AccFast,12,18,Woman,Right,
4,10,1,3.0167875999995886,['n'],1,right,['3'],4,0.20013680000010936,0.1,0,AccFast,12,18,Woman,Right,
5,10,1,1.867760800000724,['n'],1,right,['1'],6,0.3504609999999957,0.2,0,AccFast,12,18,Woman,Right,
6,10,1,1.299400500000047,['n'],1,right,['1'],6,0.18499470000006113,0.4,0,AccFast,12,18,Woman,Right,
7,10,1,1.2839985000000524,['n'],1,right,['1'],6,0.1514999999999418,0.4,0,AccFast,12,18,Woman,Right,
8,10,1,3.7489040000000386,['c'],1,left,['3'],4,0.7353696999998647,0.1,0,AccFast,12,18,Woman,Right,
9,10,1,3.68362100000013,['c'],1,left,['1'],6,0.28491180000037275,0.2,0,AccFast,12,18,Woman,Right,
10,10,1,2.2991361999993387,['n'],0,left,['3'],4,0.13554479999947944,0.2,0,AccFast,12,18,Woman,Right,
11,10,1,2.7169560000002093,['n'],1,right,['3'],4,0.1519098999997368,0.2,0,AccFast,12,18,Woman,Right,
12,10,1,1.4323013000002902,['c'],1,left,['1'],6,0.1523472999997466,0.2,0,AccFast,12,18,Woman,Right,
13,10,1,1.983857799999896,['n'],1,right,['2'],5,0.1848112999996374,0.4,0,AccFast,12,18,Woman,Right,
14,10,1,2.0837601000002905,['c'],0,right,['1'],6,0.16848250000020926,0.1,0,AccFast,12,18,Woman,Right,
15,10,1,1.3830662000000302,['n'],1,right,['3'],4,0.11816090000047552,0.4,0,AccFast,12,18,Woman,Right,
16,10,1,1.0170058000003337,['c'],1,left,['1'],6,0.21681819999957952,0.4,0,AccFast,12,18,Woman,Right,
17,10,1,1.033300600000075,['n'],1,right,['2'],5,0.15226020000045537,0.4,0,AccFast,12,18,Woman,Right,
18,10,1,0.650474099999883,['c'],1,left,['1'],6,0.21712079999997513,0.1,0,AccFast,12,18,Woman,Right,
19,10,1,1.4163238999999521,['c'],1,left,['2'],5,0.13472290000026987,0.2,0,AccFast,12,18,Woman,Right,
20,10,1,1.0336255000001984,['n'],1,right,['2'],5,0.15152450000005047,0.2,0,AccFast,12,18,Woman,Right,
21,10,1,1.8001798999994207,['n'],1,right,['3'],4,0.14950520000002143,0.2,0,AccFast,12,18,Woman,Right,
22,10,1,3.516093500000352,['c'],0,right,['8'],3,0.30271570000059,0.2,0,AccFast,12,18,Woman,Right,
23,10,1,4.11564240000007,['n'],0,left,['8'],3,0.4008674999995492,0.1,0,AccFast,12,18,Woman,Right,
24,10,1,4.366871700000047,['c'],0,right,['8'],3,0.2522759000003134,0.2,0,AccFast,12,18,Woman,Right,
25,10,1,2.098947600000429,['c'],0,right,['9'],2,0.3018827000005331,0.1,0,AccFast,12,18,Woman,Right,
26,10,1,3.4515626000002158,['c'],1,left,['9'],2,0.1847325999997338,0.2,0,AccFast,12,18,Woman,Right,
27,10,1,4.365278000000217,['c'],1,left,['9'],2,0.28430050000042684,0.2,0,AccFast,12,18,Woman,Right,
28,10,1,4.384204199999658,['c'],1,left,['1'],6,0.2180319999997664,0.4,0,AccFast,12,18,Woman,Right,
29,10,1,3.1336592999996356,['n'],0,left,['9'],2,0.44980260000011185,0.4,0,AccFast,12,18,Woman,Right,
30,10,1,5.00070229999983,x,-99,left,none,-99,-99,0.4,1,AccFast,12,18,Woman,Right,
31,10,1,2.851822899999206,['c'],0,right,['9'],2,0.2516128999995999,0.2,0,AccFast,12,18,Woman,Right,
32,10,1,2.066866000000118,['c'],0,right,['9'],2,0.8009634000000005,0.1,0,AccFast,12,18,Woman,Right,
33,10,1,1.4489072999995187,['c'],1,left,['9'],2,0.2190162999995664,0.1,0,AccFast,12,18,Woman,Right,
34,10,1,2.2341236000002027,['c'],0,right,['9'],2,0.3350638000001709,0.1,0,AccFast,12,18,Woman,Right,
35,10,1,2.582885599999827,['n'],0,left,['8'],3,1.0187728999999308,0.2,0,AccFast,12,18,Woman,Right,
36,10,1,1.116458400000738,['c'],1,left,['2'],5,0.3507940999998027,0.4,0,AccFast,12,18,Woman,Right,
37,10,1,1.7169462000001658,['c'],1,left,['8'],3,0.6675224999999045,0.1,0,AccFast,12,18,Woman,Right,
38,10,1,0.8995865999995658,['c'],1,left,['8'],3,0.23462259999996604,0.4,0,AccFast,12,18,Woman,Right,
39,10,1,2.849093300000277,['c'],1,left,['3'],4,0.15158590000010008,0.4,0,AccFast,12,18,Woman,Right,
40,10,1,2.049253399999543,['c'],0,right,['3'],4,0.1522666000000754,0.4,0,AccFast,12,18,Woman,Right,
41,10,1,3.0500238000004174,['n'],0,left,['8'],3,0.20182819999990897,0.2,0,AccFast,12,18,Woman,Right,
42,10,1,2.2502643999996508,['c'],0,right,['3'],4,0.20017009999992297,0.1,0,AccFast,12,18,Woman,Right,
43,10,1,2.999803599999723,['c'],0,right,['3'],4,0.16695010000057664,0.4,0,AccFast,12,18,Woman,Right,
44,10,1,1.5160405000005994,['n'],1,right,['8'],3,0.2358923000001596,0.4,0,AccFast,12,18,Woman,Right,
45,10,1,2.9997416000005614,['c'],1,left,['3'],4,0.16786170000068523,0.1,0,AccFast,12,18,Woman,Right,
46,10,1,1.5156706999996459,['n'],1,right,['3'],4,0.2520985000001019,0.4,0,AccFast,12,18,Woman,Right,
47,10,1,1.7006288000002314,['c'],0,right,['3'],4,0.4516653000000588,0.4,0,AccFast,12,18,Woman,Right,
48,10,1,1.6663606000001892,['n'],0,left,['2'],5,0.3180309999997917,0.1,0,AccFast,12,18,Woman,Right,
49,10,1,1.6158535999993546,['c'],1,left,['1'],6,0.35221830000045884,0.1,0,AccFast,12,18,Woman,Right,
50,10,1,2.1662061999995785,['n'],1,right,['2'],5,0.2515568999997413,0.1,0,AccFast,12,18,Woman,Right,
51,10,1,3.7655133999996906,['c'],1,left,['3'],4,0.21808539999983623,0.1,0,AccFast,12,18,Woman,Right,
52,10,1,1.8831303999995725,['c'],1,left,['3'],4,0.4348061000000598,0.4,0,AccFast,12,18,Woman,Right,
53,10,1,0.9989889999997104,['n'],1,right,['3'],4,0.1857278999996197,0.1,0,AccFast,12,18,Woman,Right,
54,10,1,1.5497043999994276,['c'],0,right,['3'],4,0.18686390000038955,0.4,0,AccFast,12,18,Woman,Right,
55,10,1,1.4008459999995466,['c'],0,right,['3'],4,0.2513982999998916,0.1,0,AccFast,12,18,Woman,Right,
56,10,1,1.8486431000001176,['c'],0,right,['0'],1,0.16809529999954975,0.4,0,AccFast,12,18,Woman,Right,
57,10,1,1.4347976999997627,['n'],0,left,['3'],4,0.18323899999995774,0.2,0,AccFast,12,18,Woman,Right,
58,10,1,1.1664902000002257,['n'],1,right,['8'],3,0.28547840000010183,0.1,0,AccFast,12,18,Woman,Right,
59,10,1,0.9503623000000516,['c'],1,left,['3'],4,0.15212960000008025,0.2,0,AccFast,12,18,Woman,Right,
0,11,1,4.5835849999994025,['n'],1,right,['2'],5,1.1344852000001993,0.4,0,AccAcc,12,18,Woman,Right,
1,11,1,2.8501028999999107,['c'],1,left,['9'],2,0.6826707999998689,0.1,0,AccAcc,12,18,Woman,Right,
2,11,1,5.000083199999608,x,-99,right,none,-99,-99,0.2,1,AccAcc,12,18,Woman,Right,
3,11,1,1.3840591999996832,['n'],0,left,['3'],4,1.3520189000000755,0.4,0,AccAcc,12,18,Woman,Right,
4,11,1,3.2668641999998727,['c'],0,right,['3'],4,0.2494552999996813,0.1,0,AccAcc,12,18,Woman,Right,
5,11,1,3.351083800000197,['c'],1,left,['0'],1,0.18450980000034178,0.1,0,AccAcc,12,18,Woman,Right,
6,11,1,3.333967499999744,['n'],1,right,['0'],1,0.43290760000036244,0.1,0,AccAcc,12,18,Woman,Right,
7,11,1,1.8996564999997645,['c'],1,left,['3'],4,1.7849251000006916,0.4,0,AccAcc,12,18,Woman,Right,
8,11,1,2.14901909999935,['n'],0,left,['3'],4,1.6169910999997228,0.2,0,AccAcc,12,18,Woman,Right,
9,11,1,1.3997362999998586,['n'],1,right,['3'],4,1.8521905999996306,0.2,0,AccAcc,12,18,Woman,Right,
10,11,1,1.1504212999998344,['c'],1,left,['3'],4,2.3675327999999354,0.4,0,AccAcc,12,18,Woman,Right,
11,11,1,2.250279699999737,['n'],0,left,['3'],4,0.33400019999953656,0.2,0,AccAcc,12,18,Woman,Right,
12,11,1,2.283391699999811,['n'],1,right,['8'],3,0.8013183000002755,0.1,0,AccAcc,12,18,Woman,Right,
13,11,1,3.000224800000069,['n'],0,left,['3'],4,0.8675211999998282,0.2,0,AccAcc,12,18,Woman,Right,
14,11,1,1.168923299999733,['c'],1,left,['2'],5,1.4678644999994503,0.4,0,AccAcc,12,18,Woman,Right,
15,11,1,1.3166754000003493,['c'],1,left,['1'],6,1.0672772000007171,0.4,0,AccAcc,12,18,Woman,Right,
16,11,1,1.2674762000006012,['n'],0,left,['2'],5,1.451389900000322,0.1,0,AccAcc,12,18,Woman,Right,
17,11,1,2.216111499999897,['n'],0,left,['3'],4,0.7176011999999901,0.2,0,AccAcc,12,18,Woman,Right,
18,11,1,3.6817701999998462,['n'],0,left,['2'],5,0.9859526000000187,0.1,0,AccAcc,12,18,Woman,Right,
19,11,1,2.1336027999996077,['n'],0,left,['3'],4,1.8331915999997364,0.1,0,AccAcc,12,18,Woman,Right,
20,11,1,1.417006799999399,['n'],1,right,['3'],4,1.0340256999998019,0.4,0,AccAcc,12,18,Woman,Right,
21,11,1,2.400365899999997,['c'],0,right,['8'],3,0.9680571999997483,0.2,0,AccAcc,12,18,Woman,Right,
22,11,1,1.5988651999996364,['n'],1,right,['3'],4,0.7686976999993931,0.2,0,AccAcc,12,18,Woman,Right,
23,11,1,2.132622299999639,['n'],1,right,['3'],4,3.551474699999744,0.2,0,AccAcc,12,18,Woman,Right,
24,11,1,1.5162949000005028,['n'],1,right,['1'],6,0.7179855999993379,0.4,0,AccAcc,12,18,Woman,Right,
25,11,1,4.932988900000055,['c'],0,right,['3'],4,0.7350712000006752,0.1,0,AccAcc,12,18,Woman,Right,
26,11,1,1.5336158000000069,['c'],1,left,['2'],5,0.6835395999996763,0.4,0,AccAcc,12,18,Woman,Right,
27,11,1,2.0505992999997034,['n'],1,right,['3'],4,0.8347199999998338,0.2,0,AccAcc,12,18,Woman,Right,
28,11,1,1.4174950999995417,['c'],1,left,['2'],5,1.401542800000243,0.4,0,AccAcc,12,18,Woman,Right,
29,11,1,4.182744499999899,['n'],0,left,['3'],4,0.9846503999997367,0.2,0,AccAcc,12,18,Woman,Right,
30,11,1,1.38259300000027,['c'],1,left,['2'],5,0.5507032999994408,0.4,0,AccAcc,12,18,Woman,Right,
31,11,1,4.117852700000185,['n'],1,right,['3'],4,0.6673047999993287,0.1,0,AccAcc,12,18,Woman,Right,
32,11,1,1.4668445999996038,['n'],1,right,['3'],4,0.4181546999998318,0.2,0,AccAcc,12,18,Woman,Right,
33,11,1,2.0841521000002103,['n'],1,right,['3'],4,0.36834900000030757,0.4,0,AccAcc,12,18,Woman,Right,
34,11,1,1.5819571000001815,['n'],1,right,['3'],4,0.3363949999993565,0.1,0,AccAcc,12,18,Woman,Right,
35,11,1,1.3340326000006826,['c'],1,left,['3'],4,1.3847413000003144,0.4,0,AccAcc,12,18,Woman,Right,
36,11,1,1.382386399999632,['n'],0,left,['1'],6,0.21900790000017878,0.2,0,AccAcc,12,18,Woman,Right,
37,11,1,1.4163558000000194,['n'],1,right,['1'],6,0.5182030999994822,0.4,0,AccAcc,12,18,Woman,Right,
38,11,1,0.8830820000002859,['n'],1,right,['1'],6,0.5194805999999517,0.2,0,AccAcc,12,18,Woman,Right,
39,11,1,1.500182599999789,['n'],1,right,['1'],6,0.2510596000001897,0.1,0,AccAcc,12,18,Woman,Right,
40,11,1,1.50056240000049,['n'],0,left,['1'],6,0.21814660000018193,0.2,0,AccAcc,12,18,Woman,Right,
41,11,1,1.9159829000000173,['n'],1,right,['3'],4,0.3686857000002419,0.2,0,AccAcc,12,18,Woman,Right,
42,11,1,1.3660870000003342,['c'],1,left,['3'],4,0.7681448999992426,0.4,0,AccAcc,12,18,Woman,Right,
43,11,1,2.9832960999992792,['n'],0,left,['3'],4,0.384596099999726,0.1,0,AccAcc,12,18,Woman,Right,
44,11,1,1.3000946000001932,['n'],1,right,['1'],6,0.7509484000001976,0.2,0,AccAcc,12,18,Woman,Right,
45,11,1,1.8171210999998948,['n'],1,right,['3'],4,0.5013315000005605,0.1,0,AccAcc,12,18,Woman,Right,
46,11,1,0.8983327000005374,['n'],1,right,['1'],6,0.3843280999999479,0.4,0,AccAcc,12,18,Woman,Right,
47,11,1,1.0014663000001747,['n'],0,left,['1'],6,0.4846239999997124,0.1,0,AccAcc,12,18,Woman,Right,
48,11,1,2.0494528999997783,['c'],1,left,['1'],6,0.5167898999998215,0.4,0,AccAcc,12,18,Woman,Right,
49,11,1,0.8159021000001303,['n'],1,right,['2'],5,0.6178744999997434,0.4,0,AccAcc,12,18,Woman,Right,
50,11,1,1.1508728999997402,['c'],1,left,['2'],5,0.5826508000000103,0.4,0,AccAcc,12,18,Woman,Right,
51,11,1,3.317541600000368,['n'],1,right,['2'],5,0.8186743000005663,0.1,0,AccAcc,12,18,Woman,Right,
52,11,1,2.4659701000000496,['n'],1,right,none,-99,-99,0.1,1,AccAcc,12,18,Woman,Right,
53,11,1,3.0164489999997386,['n'],0,left,['8'],3,1.2827861000005214,0.1,0,AccAcc,12,18,Woman,Right,
54,11,1,3.4999172000007093,['c'],1,left,['3'],4,1.3851764999999432,0.1,0,AccAcc,12,18,Woman,Right,
55,11,1,2.5001915000002555,['n'],0,left,['8'],3,0.3337773000002926,0.1,0,AccAcc,12,18,Woman,Right,
56,11,1,2.9840360999996847,['n'],1,right,['2'],5,1.4844756000002235,0.2,0,AccAcc,12,18,Woman,Right,
57,11,1,3.3342182999995202,['c'],0,right,['3'],4,1.101332100000036,0.2,0,AccAcc,12,18,Woman,Right,
58,11,1,3.9822432999999364,['c'],0,right,['3'],4,0.7669951999996556,0.4,0,AccAcc,12,18,Woman,Right,
59,11,1,3.984437099999923,['c'],1,left,['3'],4,0.3679795000007289,0.2,0,AccAcc,12,18,Woman,Right,
0,12,1,0.9352583999998387,['c'],0,right,['3'],4,0.3333646000000954,0.2,0,FastAcc,12,18,Woman,Right,
1,12,1,1.4177720999996382,['c'],0,right,['8'],3,1.3512612999993507,0.4,0,FastAcc,12,18,Woman,Right,
2,12,1,0.5497433999998975,['n'],0,left,['3'],4,1.349337800000285,0.4,0,FastAcc,12,18,Woman,Right,
3,12,1,0.5335811000004469,['c'],1,left,['8'],3,1.0836797000001752,0.4,0,FastAcc,12,18,Woman,Right,
4,12,1,0.7843068000001949,['c'],0,right,['2'],5,2.2845729999999094,0.4,0,FastAcc,12,18,Woman,Right,
5,12,1,1.5006923000000825,['c'],1,left,['9'],2,2.667856000000029,0.4,0,FastAcc,12,18,Woman,Right,
6,12,1,1.283090999999331,['c'],0,right,['9'],2,0.751899400000184,0.2,0,FastAcc,12,18,Woman,Right,
7,12,1,2.483240999999907,['c'],1,left,['3'],4,1.752664100000402,0.2,0,FastAcc,12,18,Woman,Right,
8,12,1,1.7002202000003308,['c'],0,right,['3'],4,1.317422500000248,0.4,0,FastAcc,12,18,Woman,Right,
9,12,1,0.8672806999993554,['c'],0,right,['8'],3,1.45122259999971,0.1,0,FastAcc,12,18,Woman,Right,
10,12,1,1.3498090000002776,['c'],0,right,['8'],3,0.6172753000000739,0.2,0,FastAcc,12,18,Woman,Right,
11,12,1,0.6998045000000275,['c'],1,left,['0'],1,0.30216199999995297,0.4,0,FastAcc,12,18,Woman,Right,
12,12,1,0.6986973000002763,['c'],0,right,['9'],2,0.33506390000002284,0.1,0,FastAcc,12,18,Woman,Right,
13,12,1,2.2337471000000733,['c'],0,right,['8'],3,0.5666873000000123,0.1,0,FastAcc,12,18,Woman,Right,
14,12,1,2.333454300000085,['c'],1,left,['8'],3,2.067949799999951,0.2,0,FastAcc,12,18,Woman,Right,
15,12,1,1.4334281999999803,['c'],1,left,['9'],2,1.4182858000003762,0.1,0,FastAcc,12,18,Woman,Right,
16,12,1,1.3174293999991278,['c'],0,right,['2'],5,0.41667409999990923,0.1,0,FastAcc,12,18,Woman,Right,
17,12,1,2.1334133000000293,['c'],0,right,['3'],4,1.2512614000006579,0.4,0,FastAcc,12,18,Woman,Right,
18,12,1,2.7498695000003863,['n'],0,left,['3'],4,0.8842452000008052,0.2,0,FastAcc,12,18,Woman,Right,
19,12,1,3.1003092999999353,['c'],1,left,['3'],4,0.5669208999997863,0.4,0,FastAcc,12,18,Woman,Right,
20,12,1,1.067779499999233,['c'],0,right,['8'],3,1.2178396000008433,0.2,0,FastAcc,12,18,Woman,Right,
21,12,1,0.6490346999999019,['c'],1,left,['8'],3,1.2005073000000266,0.4,0,FastAcc,12,18,Woman,Right,
22,12,1,0.9178899000007732,['c'],0,right,['9'],2,2.1345538000005035,0.1,0,FastAcc,12,18,Woman,Right,
23,12,1,0.5503791999999521,['c'],0,right,['8'],3,2.317744500000117,0.1,0,FastAcc,12,18,Woman,Right,
24,12,1,0.6328072999995129,['c'],1,left,['8'],3,1.0667012000003524,0.4,0,FastAcc,12,18,Woman,Right,
25,12,1,0.9837937000002057,['c'],0,right,['9'],2,1.1012713000000076,0.1,0,FastAcc,12,18,Woman,Right,
26,12,1,1.6660025999999561,['n'],1,right,['3'],4,1.0524358000002394,0.2,0,FastAcc,12,18,Woman,Right,
27,12,1,2.8002095000001646,['c'],1,left,['3'],4,0.817739399999482,0.4,0,FastAcc,12,18,Woman,Right,
28,12,1,1.1337250999995376,['c'],1,left,['2'],5,1.801430999999866,0.4,0,FastAcc,12,18,Woman,Right,
29,12,1,1.2501312000003963,['c'],1,left,['3'],4,0.8660685000004378,0.4,0,FastAcc,12,18,Woman,Right,
30,12,1,1.1193015999997442,['n'],1,right,['2'],5,1.0175462999995943,0.2,0,FastAcc,12,18,Woman,Right,
31,12,1,0.9991051000006337,['c'],1,left,['2'],5,0.9694799999997485,0.1,0,FastAcc,12,18,Woman,Right,
32,12,1,1.0660181000002922,['n'],1,right,['2'],5,1.3179591999996774,0.2,0,FastAcc,12,18,Woman,Right,
33,12,1,0.650886299999911,['n'],1,right,['9'],2,0.7512995999995837,0.1,0,FastAcc,12,18,Woman,Right,
34,12,1,0.6512378999996145,['c'],1,left,['3'],4,0.7678341999999247,0.1,0,FastAcc,12,18,Woman,Right,
35,12,1,0.5507478999998057,['n'],0,left,['8'],3,0.8178867999995418,0.2,0,FastAcc,12,18,Woman,Right,
36,12,1,0.9005139999999301,['c'],1,left,['3'],4,0.7181348000003709,0.1,0,FastAcc,12,18,Woman,Right,
37,12,1,0.7670856000004278,['n'],1,right,['3'],4,1.1017056999999113,0.1,0,FastAcc,12,18,Woman,Right,
38,12,1,1.182594899999458,['n'],1,right,['2'],5,0.7678427000000738,0.2,0,FastAcc,12,18,Woman,Right,
39,12,1,0.9501568000005136,['c'],0,right,['1'],6,0.751889499999379,0.1,0,FastAcc,12,18,Woman,Right,
40,12,1,0.41645190000053844,['n'],0,left,['3'],4,1.3353309999993144,0.1,0,FastAcc,12,18,Woman,Right,
41,12,1,0.4657584999995379,['c'],1,left,['2'],5,0.6838742999998431,0.4,0,FastAcc,12,18,Woman,Right,
42,12,1,0.9006681000000754,['c'],1,left,['2'],5,0.26700370000071416,0.2,0,FastAcc,12,18,Woman,Right,
43,12,1,0.833258399999977,['c'],1,left,['1'],6,0.7511586999999054,0.4,0,FastAcc,12,18,Woman,Right,
44,12,1,0.7835024999994857,['n'],1,right,['2'],5,1.5850328999995327,0.1,0,FastAcc,12,18,Woman,Right,
45,12,1,0.5669373999999152,['c'],0,right,['8'],3,1.6513494999999239,0.2,0,FastAcc,12,18,Woman,Right,
46,12,1,0.5657412999998996,['c'],1,left,['2'],5,1.3354760000001988,0.2,0,FastAcc,12,18,Woman,Right,
47,12,1,0.7158854999997857,['n'],0,left,['8'],3,1.1842576999997618,0.1,0,FastAcc,12,18,Woman,Right,
48,12,1,0.4166068999993513,['c'],1,left,['3'],4,1.235112499999559,0.2,0,FastAcc,12,18,Woman,Right,
49,12,1,0.6336752999995952,['n'],1,right,['3'],4,1.350953600000139,0.4,0,FastAcc,12,18,Woman,Right,
50,12,1,0.6337801999998192,['c'],1,left,['1'],6,1.4525260000000344,0.2,0,FastAcc,12,18,Woman,Right,
51,12,1,0.7008401000002777,['n'],0,left,['2'],5,0.7660397999998168,0.2,0,FastAcc,12,18,Woman,Right,
52,12,1,0.6690647000004901,['n'],1,right,['2'],5,0.9013779999995677,0.4,0,FastAcc,12,18,Woman,Right,
53,12,1,0.6506694999998217,['n'],1,right,['2'],5,4.034261800000422,0.1,0,FastAcc,12,18,Woman,Right,
54,12,1,0.8348701000004439,['c'],1,left,['2'],5,0.9185426000003645,0.2,0,FastAcc,12,18,Woman,Right,
55,12,1,1.2337703000002875,['n'],1,right,['8'],3,1.9008973999998489,0.1,0,FastAcc,12,18,Woman,Right,
56,12,1,0.7501806000000215,['c'],0,right,['2'],5,0.6514915999996447,0.1,0,FastAcc,12,18,Woman,Right,
57,12,1,0.6837961000001087,['c'],1,left,['2'],5,1.6332305000005363,0.4,0,FastAcc,12,18,Woman,Right,
58,12,1,0.4176234000005934,['n'],0,left,['0'],1,1.2339093000000503,0.4,0,FastAcc,12,18,Woman,Right,
59,12,1,0.8172628000002078,['n'],1,right,['3'],4,0.9171589999996286,0.2,0,FastAcc,12,18,Woman,Right,
0,13,1,1.017592500000319,['c'],0,right,['3'],4,0.2012282999994568,0.2,0,FastFast,12,18,Woman,Right,
1,13,1,0.4674181000000317,['n'],1,right,['8'],3,0.1344730000000709,0.2,0,FastFast,12,18,Woman,Right,
2,13,1,0.4663197999998374,['c'],1,left,['3'],4,0.15146550000008574,0.4,0,FastFast,12,18,Woman,Right,
3,13,1,0.4169097000003603,['n'],1,right,['9'],2,0.2179206000000704,0.4,0,FastFast,12,18,Woman,Right,
4,13,1,0.3662834999995539,['c'],1,left,['1'],6,0.26816210000015417,0.4,0,FastFast,12,18,Woman,Right,
5,13,1,0.43214009999974223,['n'],0,left,['2'],5,0.25133659999937663,0.4,0,FastFast,12,18,Woman,Right,
6,13,1,0.5672123000003921,['c'],1,left,['1'],6,0.2180594999999812,0.2,0,FastFast,12,18,Woman,Right,
7,13,1,0.6174301000000924,['n'],1,right,['9'],2,0.26821279999967373,0.1,0,FastFast,12,18,Woman,Right,
8,13,1,0.4842335000003004,['n'],1,right,['3'],4,0.1680022000000463,0.4,0,FastFast,12,18,Woman,Right,
9,13,1,0.4499491999995371,['c'],0,right,['2'],5,0.28483909999977186,0.1,0,FastFast,12,18,Woman,Right,
10,13,1,0.6004976000003808,['n'],1,right,['2'],5,0.13487569999961124,0.1,0,FastFast,12,18,Woman,Right,
11,13,1,0.5992868000003,['n'],1,right,['2'],5,0.06917040000007546,0.4,0,FastFast,12,18,Woman,Right,
12,13,1,0.8497292000001835,['c'],1,left,['2'],5,0.18554240000048594,0.1,0,FastFast,12,18,Woman,Right,
13,13,1,0.8159913999998025,['n'],1,right,['3'],4,0.15070070000001579,0.1,0,FastFast,12,18,Woman,Right,
14,13,1,0.6673534000001382,['n'],0,left,['3'],4,0.13476340000033815,0.1,0,FastFast,12,18,Woman,Right,
15,13,1,0.7177857000006043,['n'],0,left,['1'],6,0.08533609999994951,0.2,0,FastFast,12,18,Woman,Right,
16,13,1,0.6998423999993975,['c'],1,left,['3'],4,0.20204420000027312,0.1,0,FastFast,12,18,Woman,Right,
17,13,1,0.7348105999999461,['c'],1,left,['1'],6,0.15152240000043093,0.4,0,FastFast,12,18,Woman,Right,
18,13,1,0.5166555000005246,['n'],0,left,['1'],6,0.08328209999945102,0.2,0,FastFast,12,18,Woman,Right,
19,13,1,0.6011180999994394,['n'],1,right,['2'],5,0.10122370000044612,0.4,0,FastFast,12,18,Woman,Right,
20,13,1,1.0845995999998195,['c'],0,right,['3'],4,0.11684129999957804,0.1,0,FastFast,12,18,Woman,Right,
21,13,1,0.9834915999999794,['c'],1,left,['3'],4,0.08368179999979475,0.4,0,FastFast,12,18,Woman,Right,
22,13,1,0.6844940000000861,['c'],1,left,['3'],4,0.3017214999999851,0.4,0,FastFast,12,18,Woman,Right,
23,13,1,0.617041500000596,['n'],1,right,['3'],4,0.08470039999974688,0.2,0,FastFast,12,18,Woman,Right,
24,13,1,0.516038199999457,['n'],1,right,['3'],4,0.16830170000048383,0.2,0,FastFast,12,18,Woman,Right,
25,13,1,0.7178260000000591,['c'],0,right,['3'],4,0.14983209999991232,0.1,0,FastFast,12,18,Woman,Right,
26,13,1,0.38392260000000533,['n'],1,right,['3'],4,0.11858029999984865,0.2,0,FastFast,12,18,Woman,Right,
27,13,1,0.6837673999998515,['c'],1,left,['3'],4,0.16829569999936211,0.1,0,FastFast,12,18,Woman,Right,
28,13,1,0.7844239999994898,['c'],1,left,['2'],5,0.1503218999996534,0.4,0,FastFast,12,18,Woman,Right,
29,13,1,0.6167260000001988,['n'],1,right,['1'],6,0.1178751999996166,0.1,0,FastFast,12,18,Woman,Right,
30,13,1,0.466765199999827,['c'],0,right,['1'],6,0.15012449999994715,0.2,0,FastFast,12,18,Woman,Right,
31,13,1,0.5343874999998661,['n'],1,right,['2'],5,0.08336770000005345,0.1,0,FastFast,12,18,Woman,Right,
32,13,1,1.1178339000007327,['c'],1,left,['2'],5,0.11871419999988575,0.2,0,FastFast,12,18,Woman,Right,
33,13,1,0.6497994999999719,['n'],1,right,['2'],5,0.10118099999999686,0.2,0,FastFast,12,18,Woman,Right,
34,13,1,0.6338306000006924,['c'],1,left,['1'],6,0.18403810000017984,0.4,0,FastFast,12,18,Woman,Right,
35,13,1,0.6002379000001383,['n'],0,left,['2'],5,0.16824830000041402,0.4,0,FastFast,12,18,Woman,Right,
36,13,1,1.016733700000259,['c'],1,left,['3'],4,0.10229090000029828,0.4,0,FastFast,12,18,Woman,Right,
37,13,1,0.5835123000006206,['n'],0,left,['2'],5,0.10203780000028928,0.1,0,FastFast,12,18,Woman,Right,
38,13,1,0.6493242000005921,['n'],1,right,['2'],5,0.1522383000001355,0.4,0,FastFast,12,18,Woman,Right,
39,13,1,0.5817240000005768,['n'],1,right,['2'],5,0.18599950000043464,0.4,0,FastFast,12,18,Woman,Right,
40,13,1,1.0484106000003521,['n'],0,left,['2'],5,1.235599199999342,0.2,0,FastFast,12,18,Woman,Right,
41,13,1,0.5828623000006701,['n'],0,left,['2'],5,0.15028669999992417,0.2,0,FastFast,12,18,Woman,Right,
42,13,1,0.6523855999994339,['n'],1,right,['2'],5,0.11874989999978425,0.4,0,FastFast,12,18,Woman,Right,
43,13,1,0.8836089999995238,['c'],0,right,['2'],5,0.14986800000042422,0.4,0,FastFast,12,18,Woman,Right,
44,13,1,2.2337758000003305,['n'],0,left,['8'],3,0.15100809999967169,0.1,0,FastFast,12,18,Woman,Right,
45,13,1,0.6836551999995208,['c'],1,left,['2'],5,0.16840309999952296,0.4,0,FastFast,12,18,Woman,Right,
46,13,1,0.4995069999995394,['n'],0,left,['2'],5,0.15221529999962513,0.2,0,FastFast,12,18,Woman,Right,
47,13,1,0.6168397000001278,['n'],1,right,['2'],5,0.10086250000040309,0.4,0,FastFast,12,18,Woman,Right,
48,13,1,1.2006461999999374,['c'],0,right,['8'],3,0.14997479999965435,0.1,0,FastFast,12,18,Woman,Right,
49,13,1,0.7336395000002085,['n'],1,right,['8'],3,0.2000981999999567,0.2,0,FastFast,12,18,Woman,Right,
50,13,1,0.6326737999997931,['c'],0,right,['0'],1,0.8515016000001197,0.2,0,FastFast,12,18,Woman,Right,
51,13,1,0.7831292999999278,['n'],0,left,['9'],2,0.16749629999958415,0.2,0,FastFast,12,18,Woman,Right,
52,13,1,0.849946600000294,['c'],1,left,['2'],5,0.16810999999961496,0.1,0,FastFast,12,18,Woman,Right,
53,13,1,0.7171238999999332,['n'],0,left,['8'],3,1.1676417999997284,0.2,0,FastFast,12,18,Woman,Right,
54,13,1,0.8004103000002942,['c'],1,left,['3'],4,0.14959760000056121,0.2,0,FastFast,12,18,Woman,Right,
55,13,1,0.5025279999999839,['n'],1,right,['2'],5,0.1348337999997966,0.1,0,FastFast,12,18,Woman,Right,
56,13,1,0.5325431000001117,['n'],1,right,['2'],5,0.11828009999953792,0.1,0,FastFast,12,18,Woman,Right,
57,13,1,1.0674944000002142,['n'],0,left,['3'],4,0.133640999999443,0.1,0,FastFast,12,18,Woman,Right,
58,13,1,2.0169490999996924,['n'],0,left,['3'],4,0.26800860000003013,0.1,0,FastFast,12,18,Woman,Right,
59,13,1,0.8676423999995677,['n'],1,right,['3'],4,0.10115940000014234,0.2,0,FastFast,12,18,Woman,Right,
0,14,1,1.4668351999998777,['c'],1,left,['3'],4,0.7518908000001829,0.2,0,AccFast,12,18,Woman,Right,
1,14,1,1.1325527999997576,['n'],1,right,['3'],4,0.16917849999936152,0.2,0,AccFast,12,18,Woman,Right,
2,14,1,2.2669624000000113,['n'],0,left,['3'],4,0.11738939999941067,0.1,0,AccFast,12,18,Woman,Right,
3,14,1,3.049110400000245,['n'],1,right,['8'],3,0.1187592999995104,0.2,0,AccFast,12,18,Woman,Right,
4,14,1,1.3331318999998985,['n'],1,right,['3'],4,0.08448270000008051,0.1,0,AccFast,12,18,Woman,Right,
5,14,1,2.4158186000004207,['n'],1,right,['1'],6,0.08598650000021735,0.4,0,AccFast,12,18,Woman,Right,
6,14,1,1.5010758999997051,['n'],1,right,['2'],5,0.08479470000020228,0.1,0,AccFast,12,18,Woman,Right,
7,14,1,2.331594700000096,['n'],1,right,['2'],5,0.13447929999983899,0.1,0,AccFast,12,18,Woman,Right,
8,14,1,2.1503413000000364,['c'],1,left,['2'],5,0.19999519999964832,0.4,0,AccFast,12,18,Woman,Right,
9,14,1,0.8505174000001716,['n'],0,left,['2'],5,0.13458379999974568,0.1,0,AccFast,12,18,Woman,Right,
10,14,1,1.4838446000003387,['n'],1,right,['3'],4,0.11802110000007815,0.1,0,AccFast,12,18,Woman,Right,
11,14,1,1.3168625999996948,['c'],1,left,['3'],4,0.11669509999956063,0.1,0,AccFast,12,18,Woman,Right,
12,14,1,1.3344296999994185,['n'],1,right,['3'],4,0.15090959999997722,0.1,0,AccFast,12,18,Woman,Right,
13,14,1,1.1669608000001972,['n'],0,left,['3'],4,0.13462130000061734,0.2,0,AccFast,12,18,Woman,Right,
14,14,1,0.9837230000002819,['c'],1,left,['3'],4,0.1684039000001576,0.4,0,AccFast,12,18,Woman,Right,
15,14,1,1.1672005999998873,['c'],1,left,['2'],5,0.13478379999924073,0.4,0,AccFast,12,18,Woman,Right,
16,14,1,1.8989269000003333,['c'],1,left,['2'],5,0.20161089999965043,0.2,0,AccFast,12,18,Woman,Right,
17,14,1,1.450582100000247,['c'],1,left,['2'],5,0.25076739999985875,0.2,0,AccFast,12,18,Woman,Right,
18,14,1,2.298968399999467,['c'],1,left,['2'],5,0.13490029999957187,0.4,0,AccFast,12,18,Woman,Right,
19,14,1,1.3661424000001716,['c'],1,left,['2'],5,0.11855490000016289,0.4,0,AccFast,12,18,Woman,Right,
20,14,1,1.6837076000001616,['c'],1,left,['2'],5,0.1340065999993385,0.4,0,AccFast,12,18,Woman,Right,
21,14,1,0.9339295999998285,['n'],1,right,['2'],5,0.06758179999997083,0.2,0,AccFast,12,18,Woman,Right,
22,14,1,1.2005604000005405,['n'],1,right,['2'],5,0.15199510000002192,0.1,0,AccFast,12,18,Woman,Right,
23,14,1,1.0165531000002375,['n'],1,right,['2'],5,0.09948910000002797,0.1,0,AccFast,12,18,Woman,Right,
24,14,1,1.0326058999999077,['c'],1,left,['2'],5,0.18385169999965,0.2,0,AccFast,12,18,Woman,Right,
25,14,1,0.8851360999997269,['n'],1,right,['2'],5,0.14959249999992608,0.2,0,AccFast,12,18,Woman,Right,
26,14,1,0.952667499999734,['c'],1,left,['2'],5,0.15016760000071372,0.2,0,AccFast,12,18,Woman,Right,
27,14,1,1.116260599999805,['n'],1,right,['3'],4,0.10227800000029674,0.2,0,AccFast,12,18,Woman,Right,
28,14,1,1.4332025000003341,['c'],1,left,['8'],3,0.13496260000010807,0.1,0,AccFast,12,18,Woman,Right,
29,14,1,1.5671415999995588,['c'],1,left,['2'],5,0.18334629999935714,0.2,0,AccFast,12,18,Woman,Right,
30,14,1,1.2009351000006063,['n'],1,right,['2'],5,0.15115400000013324,0.2,0,AccFast,12,18,Woman,Right,
31,14,1,0.615864800000054,['n'],1,right,['2'],5,0.20176270000047225,0.1,0,AccFast,12,18,Woman,Right,
32,14,1,0.7157971000006,['n'],1,right,['8'],3,0.16887270000006538,0.4,0,AccFast,12,18,Woman,Right,
33,14,1,1.0340878999995766,['c'],0,right,['8'],3,0.13396860000011657,0.4,0,AccFast,12,18,Woman,Right,
34,14,1,1.3834336999998413,['n'],1,right,['3'],4,0.28400609999971493,0.2,0,AccFast,12,18,Woman,Right,
35,14,1,1.7833418999998685,['n'],1,right,['2'],5,0.1351488000000245,0.2,0,AccFast,12,18,Woman,Right,
36,14,1,0.832994399999734,['c'],1,left,['1'],6,0.16730579999966722,0.4,0,AccFast,12,18,Woman,Right,
37,14,1,1.397860000000037,['n'],0,left,['2'],5,0.1687104000002364,0.2,0,AccFast,12,18,Woman,Right,
38,14,1,1.4167413999994096,['n'],1,right,['3'],4,0.2180717999999615,0.1,0,AccFast,12,18,Woman,Right,
39,14,1,1.4999780000007377,['n'],1,right,['3'],4,0.1688397999996596,0.4,0,AccFast,12,18,Woman,Right,
40,14,1,0.8827350999999908,['c'],1,left,['1'],6,0.7835160999993604,0.4,0,AccFast,12,18,Woman,Right,
41,14,1,3.2179603000004136,['c'],1,left,['3'],4,0.11613579999993817,0.1,0,AccFast,12,18,Woman,Right,
42,14,1,1.4827097999996113,['n'],1,right,['3'],4,0.1679208000005019,0.1,0,AccFast,12,18,Woman,Right,
43,14,1,2.0173925999997664,['n'],1,right,['3'],4,0.30232920000071317,0.4,0,AccFast,12,18,Woman,Right,
44,14,1,4.297675199999503,['c'],1,left,['3'],4,0.1522755000005418,0.1,0,AccFast,12,18,Woman,Right,
45,14,1,1.6501871999998912,['c'],0,right,['8'],3,0.11811630000011064,0.4,0,AccFast,12,18,Woman,Right,
46,14,1,1.7997009000000617,['c'],1,left,['0'],1,0.08526889999939158,0.1,0,AccFast,12,18,Woman,Right,
47,14,1,1.5499190000000453,['c'],0,right,['9'],2,0.18547320000016043,0.4,0,AccFast,12,18,Woman,Right,
48,14,1,2.0824385999994774,['c'],1,left,['1'],6,0.7007323999996515,0.4,0,AccFast,12,18,Woman,Right,
49,14,1,1.9162324999997509,['c'],1,left,['2'],5,0.31713789999957953,0.2,0,AccFast,12,18,Woman,Right,
50,14,1,4.433240999999725,['c'],1,left,['8'],3,1.0846017000003485,0.1,0,AccFast,12,18,Woman,Right,
51,14,1,1.7167804999999134,['c'],1,left,['8'],3,0.7506409000006897,0.1,0,AccFast,12,18,Woman,Right,
52,14,1,1.2677800000001298,['n'],1,right,['3'],4,0.8679627000001346,0.2,0,AccFast,12,18,Woman,Right,
53,14,1,1.3153927000003023,['n'],1,right,['3'],4,0.21765370000048279,0.4,0,AccFast,12,18,Woman,Right,
54,14,1,3.1178587999993397,['c'],0,right,['3'],4,0.18351050000001123,0.2,0,AccFast,12,18,Woman,Right,
55,14,1,1.2008721999991394,['n'],0,left,['8'],3,1.0333726999997452,0.4,0,AccFast,12,18,Woman,Right,
56,14,1,1.517094700000598,['c'],0,right,['3'],4,0.202323499999693,0.4,0,AccFast,12,18,Woman,Right,
57,14,1,1.4507591999999931,['c'],1,left,['3'],4,0.18603020000045944,0.4,0,AccFast,12,18,Woman,Right,
58,14,1,2.467054200000348,['c'],0,right,['3'],4,0.1510470000002897,0.2,0,AccFast,12,18,Woman,Right,
59,14,1,4.032699700000194,['c'],1,left,['3'],4,0.13551530000040657,0.1,0,AccFast,12,18,Woman,Right,
0,15,1,3.0001506000007794,['c'],1,left,['3'],4,0.9169800999998188,0.1,0,AccAcc,12,18,Woman,Right,
1,15,1,2.0161878000008073,['c'],0,right,['3'],4,0.4002974000004542,0.1,0,AccAcc,12,18,Woman,Right,
2,15,1,2.966002400000434,['c'],1,left,['2'],5,0.26814480000030017,0.4,0,AccAcc,12,18,Woman,Right,
3,15,1,1.7008057000002736,['c'],0,right,['8'],3,0.5846725000001243,0.2,0,AccAcc,12,18,Woman,Right,
4,15,1,3.349008700000013,['c'],1,left,['3'],4,1.6686595999999554,0.2,0,AccAcc,12,18,Woman,Right,
5,15,1,2.334165799999937,['c'],0,right,['8'],3,0.6330695000006017,0.1,0,AccAcc,12,18,Woman,Right,
6,15,1,2.4179291000000376,['c'],1,left,['3'],4,1.117913099999896,0.4,0,AccAcc,12,18,Woman,Right,
7,15,1,1.8505073000005723,['c'],1,left,['9'],2,0.6847987999999532,0.2,0,AccAcc,12,18,Woman,Right,
8,15,1,2.5345250000000306,['c'],0,right,['9'],2,0.46843149999949674,0.2,0,AccAcc,12,18,Woman,Right,
9,15,1,3.0833729000005405,['n'],0,left,['8'],3,0.4006447000001572,0.1,0,AccAcc,12,18,Woman,Right,
10,15,1,3.8179173999997147,['n'],1,right,['8'],3,1.1519165999998222,0.1,0,AccAcc,12,18,Woman,Right,
11,15,1,4.781792499999938,['c'],1,left,['2'],5,0.8010756000003312,0.4,0,AccAcc,12,18,Woman,Right,
12,15,1,2.9334115999999995,['n'],1,right,['8'],3,0.5666324000003442,0.4,0,AccAcc,12,18,Woman,Right,
13,15,1,2.084595499999523,['c'],0,right,['3'],4,0.684737500000665,0.1,0,AccAcc,12,18,Woman,Right,
14,15,1,3.2993931000000885,['c'],1,left,['2'],5,0.5348322999998345,0.2,0,AccAcc,12,18,Woman,Right,
15,15,1,1.6017117000001235,['c'],1,left,['8'],3,0.584106299999803,0.2,0,AccAcc,12,18,Woman,Right,
16,15,1,1.7825703000007707,['c'],0,right,['9'],2,0.6356374000006326,0.4,0,AccAcc,12,18,Woman,Right,
17,15,1,2.8661787000000913,['c'],1,left,['9'],2,1.0846967999996195,0.4,0,AccAcc,12,18,Woman,Right,
18,15,1,1.7153263000000152,['c'],1,left,['3'],4,0.9013844999999492,0.4,0,AccAcc,12,18,Woman,Right,
19,15,1,2.4511408999997,['c'],1,left,['3'],4,1.3679896000003282,0.4,0,AccAcc,12,18,Woman,Right,
20,15,1,1.9831758999998783,['n'],1,right,['3'],4,1.2175548999994135,0.2,0,AccAcc,12,18,Woman,Right,
21,15,1,0.9847073000000819,['c'],0,right,['9'],2,1.134650199999669,0.4,0,AccAcc,12,18,Woman,Right,
22,15,1,1.766956299999947,['c'],0,right,['8'],3,1.1177858999999444,0.2,0,AccAcc,12,18,Woman,Right,
23,15,1,1.3664601999998922,['c'],1,left,['3'],4,0.43559910000021773,0.2,0,AccAcc,12,18,Woman,Right,
24,15,1,1.4168355000001611,['n'],1,right,['8'],3,0.3014411000003747,0.2,0,AccAcc,12,18,Woman,Right,
25,15,1,1.5004318999999668,['c'],1,left,['8'],3,1.2343787999998312,0.2,0,AccAcc,12,18,Woman,Right,
26,15,1,1.7333849999995437,['c'],0,right,['9'],2,0.3665448000001561,0.4,0,AccAcc,12,18,Woman,Right,
27,15,1,3.36773919999996,['c'],1,left,['3'],4,0.2016020999999455,0.4,0,AccAcc,12,18,Woman,Right,
28,15,1,2.050123699999858,['c'],1,left,['3'],4,0.5679887000005692,0.2,0,AccAcc,12,18,Woman,Right,
29,15,1,1.0011230000000069,['n'],1,right,['1'],6,0.6678715000007287,0.1,0,AccAcc,12,18,Woman,Right,
30,15,1,5.016095299999506,x,-99,right,none,-99,-99,0.1,1,AccAcc,12,18,Woman,Right,
31,15,1,1.1998344999992696,['n'],1,right,['2'],5,0.5689051999997901,0.4,0,AccAcc,12,18,Woman,Right,
32,15,1,1.0164830000003349,['n'],1,right,['1'],6,0.6847573000004559,0.2,0,AccAcc,12,18,Woman,Right,
33,15,1,1.133742799999709,['c'],1,left,['1'],6,0.5834359000000404,0.1,0,AccAcc,12,18,Woman,Right,
34,15,1,3.00170320000052,['n'],1,right,['3'],4,1.1510946999997032,0.1,0,AccAcc,12,18,Woman,Right,
35,15,1,0.7996901999995316,['n'],1,right,['2'],5,1.1015477999999348,0.4,0,AccAcc,12,18,Woman,Right,
36,15,1,1.5841187999994872,['n'],1,right,['3'],4,0.833939800000735,0.4,0,AccAcc,12,18,Woman,Right,
37,15,1,1.2168796000005386,['c'],1,left,['2'],5,0.9334538000002794,0.1,0,AccAcc,12,18,Woman,Right,
38,15,1,0.9830362000002424,['n'],0,left,['3'],4,0.8498915999998644,0.1,0,AccAcc,12,18,Woman,Right,
39,15,1,0.8160859999998138,['c'],1,left,['2'],5,0.7514939000002414,0.4,0,AccAcc,12,18,Woman,Right,
40,15,1,1.0175237000003108,['n'],0,left,['2'],5,0.7679815999999846,0.1,0,AccAcc,12,18,Woman,Right,
41,15,1,1.8482112000001507,['c'],1,left,['2'],5,0.6697952000004079,0.1,0,AccAcc,12,18,Woman,Right,
42,15,1,2.4342080999995233,['c'],1,left,['3'],4,0.5993716000002678,0.2,0,AccAcc,12,18,Woman,Right,
43,15,1,1.1012342000003628,['n'],1,right,['3'],4,0.617982399999164,0.2,0,AccAcc,12,18,Woman,Right,
44,15,1,1.3008300999999847,['c'],1,left,['8'],3,0.7014891999997417,0.1,0,AccAcc,12,18,Woman,Right,
45,15,1,0.9327782000000298,['n'],1,right,['3'],4,0.400263300000006,0.4,0,AccAcc,12,18,Woman,Right,
46,15,1,1.5166964000000007,['n'],0,left,['3'],4,0.217149199999767,0.1,0,AccAcc,12,18,Woman,Right,
47,15,1,1.1010676999994757,['c'],1,left,['1'],6,0.3500296000001981,0.4,0,AccAcc,12,18,Woman,Right,
48,15,1,0.7993619000008039,['n'],1,right,['2'],5,0.7509201000002577,0.1,0,AccAcc,12,18,Woman,Right,
49,15,1,1.7678504999994402,['n'],1,right,['3'],4,0.6178639999998268,0.2,0,AccAcc,12,18,Woman,Right,
50,15,1,0.8335942999992767,['n'],1,right,['2'],5,0.6850107000000207,0.2,0,AccAcc,12,18,Woman,Right,
51,15,1,0.9006964999998672,['c'],1,left,['2'],5,1.1836159000004045,0.2,0,AccAcc,12,18,Woman,Right,
52,15,1,1.6660652000000482,['n'],1,right,['3'],4,0.4337423000006311,0.1,0,AccAcc,12,18,Woman,Right,
53,15,1,1.6674201000005269,['n'],1,right,['3'],4,0.5685100000000602,0.1,0,AccAcc,12,18,Woman,Right,
54,15,1,0.8666690000000017,['n'],1,right,['3'],4,0.9683243999998012,0.4,0,AccAcc,12,18,Woman,Right,
55,15,1,1.4839781999999104,['c'],1,left,['1'],6,0.6173718000000008,0.2,0,AccAcc,12,18,Woman,Right,
56,15,1,1.9340308000000732,['c'],1,left,['2'],5,0.9503524000001562,0.2,0,AccAcc,12,18,Woman,Right,
57,15,1,0.8321224999999686,['n'],1,right,['2'],5,2.2351817999997365,0.4,0,AccAcc,12,18,Woman,Right,
58,15,1,0.9003713000001881,['n'],1,right,['2'],5,0.5334839000006468,0.1,0,AccAcc,12,18,Woman,Right,
59,15,1,0.7998985999993238,['c'],1,left,['2'],5,0.45221659999970143,0.4,0,AccAcc,12,18,Woman,Right,
