withinblocktrial,block,block_repetition,rt,resp,cor,cresp,conf_press,cj,rtconf,coherence,slow_trial,manipulation,sub,age,gender,handedness,
0,1,1,4.466176400001132,['c'],0,right,none,-99,-99,0.5,0,none,39,18,Woman,Right,
1,1,1,0.900631099999373,['c'],1,left,none,-99,-99,0.5,0,none,39,18,Woman,Right,
2,1,1,0.9332047000007151,['n'],1,right,none,-99,-99,0.5,0,none,39,18,Woman,Right,
3,1,1,0.5845762999997532,['c'],1,left,none,-99,-99,0.5,0,none,39,18,Woman,Right,
4,1,1,0.6002121999990777,['c'],0,right,none,-99,-99,0.5,0,none,39,18,Woman,Right,
5,1,1,0.8835402999993676,['c'],1,left,none,-99,-99,0.5,0,none,39,18,Woman,Right,
6,1,1,0.31792419999874255,['n'],1,right,none,-99,-99,0.5,0,none,39,18,Woman,Right,
7,1,1,0.5012624999999389,['n'],0,left,none,-99,-99,0.5,0,none,39,18,Woman,Right,
8,1,1,0.5666294000002381,['n'],0,left,none,-99,-99,0.5,0,none,39,18,Woman,Right,
9,1,1,0.4665007000003243,['n'],1,right,none,-99,-99,0.5,0,none,39,18,Woman,Right,
10,1,1,0.5674913999991986,['c'],1,left,none,-99,-99,0.5,0,none,39,18,Woman,Right,
11,1,1,2.4004893000001175,['c'],0,right,none,-99,-99,0.5,0,none,39,18,Woman,Right,
12,1,1,0.5831400000006397,['c'],1,left,none,-99,-99,0.5,0,none,39,18,Woman,Right,
13,1,1,0.6681480999995983,['c'],1,left,none,-99,-99,0.5,0,none,39,18,Woman,Right,
14,1,1,0.4680814000003011,['n'],0,left,none,-99,-99,0.5,0,none,39,18,Woman,Right,
15,1,1,0.4338345999985904,['n'],1,right,none,-99,-99,0.5,0,none,39,18,Woman,Right,
16,1,1,0.5016771000009612,['c'],1,left,none,-99,-99,0.5,0,none,39,18,Woman,Right,
17,1,1,0.7179804999996122,['c'],0,right,none,-99,-99,0.5,0,none,39,18,Woman,Right,
18,1,1,0.5001830999990489,['c'],1,left,none,-99,-99,0.5,0,none,39,18,Woman,Right,
19,1,1,0.6674387000002753,['c'],0,right,none,-99,-99,0.5,0,none,39,18,Woman,Right,
20,1,1,0.5500187999987247,['n'],1,right,none,-99,-99,0.5,0,none,39,18,Woman,Right,
21,1,1,0.28446919999987585,['n'],0,left,none,-99,-99,0.5,0,none,39,18,Woman,Right,
22,1,1,0.5669266999993852,['n'],1,right,none,-99,-99,0.5,0,none,39,18,Woman,Right,
23,1,1,0.5013952999997855,['c'],0,right,none,-99,-99,0.5,0,none,39,18,Woman,Right,
0,1,2,0.6510760000001028,['c'],1,left,none,-99,-99,0.5,0,none,39,18,Woman,Right,
1,1,2,0.29981670000051963,['n'],0,left,none,-99,-99,0.5,0,none,39,18,Woman,Right,
2,1,2,0.3500513000017236,['n'],0,left,none,-99,-99,0.5,0,none,39,18,Woman,Right,
3,1,2,0.26779940000051283,['n'],1,right,none,-99,-99,0.5,0,none,39,18,Woman,Right,
4,1,2,0.36587779999899794,['c'],0,right,none,-99,-99,0.5,0,none,39,18,Woman,Right,
5,1,2,0.2679454999997688,['c'],1,left,none,-99,-99,0.5,0,none,39,18,Woman,Right,
6,1,2,0.4178313000011258,['c'],0,right,none,-99,-99,0.5,0,none,39,18,Woman,Right,
7,1,2,0.534340099999099,['n'],0,left,none,-99,-99,0.5,0,none,39,18,Woman,Right,
8,1,2,0.6339680000000953,['c'],1,left,none,-99,-99,0.5,0,none,39,18,Woman,Right,
9,1,2,0.517117600000347,['n'],0,left,none,-99,-99,0.5,0,none,39,18,Woman,Right,
10,1,2,1.1173758000004455,['c'],0,right,none,-99,-99,0.5,0,none,39,18,Woman,Right,
11,1,2,0.782360700000936,['c'],1,left,none,-99,-99,0.5,0,none,39,18,Woman,Right,
12,1,2,0.46774229999937234,['n'],1,right,none,-99,-99,0.5,0,none,39,18,Woman,Right,
13,1,2,0.5840150000003632,['c'],1,left,none,-99,-99,0.5,0,none,39,18,Woman,Right,
14,1,2,0.49985190000006696,['c'],0,right,none,-99,-99,0.5,0,none,39,18,Woman,Right,
15,1,2,3.25103880000097,['c'],0,right,none,-99,-99,0.5,0,none,39,18,Woman,Right,
16,1,2,2.7334948999996413,['c'],0,right,none,-99,-99,0.5,0,none,39,18,Woman,Right,
17,1,2,1.4316546000009112,['n'],0,left,none,-99,-99,0.5,0,none,39,18,Woman,Right,
18,1,2,0.4831938999996055,['c'],1,left,none,-99,-99,0.5,0,none,39,18,Woman,Right,
19,1,2,0.4013898000011977,['n'],0,left,none,-99,-99,0.5,0,none,39,18,Woman,Right,
20,1,2,0.3847139999998035,['c'],0,right,none,-99,-99,0.5,0,none,39,18,Woman,Right,
21,1,2,0.3167390999988129,['c'],0,right,none,-99,-99,0.5,0,none,39,18,Woman,Right,
22,1,2,0.3005217999998422,['c'],0,right,none,-99,-99,0.5,0,none,39,18,Woman,Right,
23,1,2,0.5837434999994002,['c'],0,right,none,-99,-99,0.5,0,none,39,18,Woman,Right,
0,1,3,0.46721070000057807,['c'],1,left,none,-99,-99,0.5,0,none,39,18,Woman,Right,
1,1,3,0.45006760000069335,['n'],1,right,none,-99,-99,0.5,0,none,39,18,Woman,Right,
2,1,3,0.5845996999996714,['n'],1,right,none,-99,-99,0.5,0,none,39,18,Woman,Right,
3,1,3,0.4173404000011942,['c'],0,right,none,-99,-99,0.5,0,none,39,18,Woman,Right,
4,1,3,0.7167570000001433,['c'],0,right,none,-99,-99,0.5,0,none,39,18,Woman,Right,
5,1,3,1.5005584999998973,['n'],1,right,none,-99,-99,0.5,0,none,39,18,Woman,Right,
6,1,3,0.6327636999994866,['c'],0,right,none,-99,-99,0.5,0,none,39,18,Woman,Right,
7,1,3,0.5339597999991383,['c'],1,left,none,-99,-99,0.5,0,none,39,18,Woman,Right,
8,1,3,0.6345020000007935,['n'],1,right,none,-99,-99,0.5,0,none,39,18,Woman,Right,
9,1,3,0.5842883000004804,['c'],1,left,none,-99,-99,0.5,0,none,39,18,Woman,Right,
10,1,3,0.4488586999996187,['c'],1,left,none,-99,-99,0.5,0,none,39,18,Woman,Right,
11,1,3,0.6165485000001354,['n'],1,right,none,-99,-99,0.5,0,none,39,18,Woman,Right,
12,1,3,0.5498867000005703,['c'],1,left,none,-99,-99,0.5,0,none,39,18,Woman,Right,
13,1,3,0.5341539999990346,['n'],1,right,none,-99,-99,0.5,0,none,39,18,Woman,Right,
14,1,3,0.6675516000013886,['n'],0,left,none,-99,-99,0.5,0,none,39,18,Woman,Right,
15,1,3,0.6168510999996215,['c'],1,left,none,-99,-99,0.5,0,none,39,18,Woman,Right,
16,1,3,0.6838367000000289,['c'],0,right,none,-99,-99,0.5,0,none,39,18,Woman,Right,
17,1,3,0.634523500000796,['c'],1,left,none,-99,-99,0.5,0,none,39,18,Woman,Right,
18,1,3,0.4666118000004644,['n'],0,left,none,-99,-99,0.5,0,none,39,18,Woman,Right,
19,1,3,0.5004825000014534,['n'],0,left,none,-99,-99,0.5,0,none,39,18,Woman,Right,
20,1,3,1.566639299999224,['c'],1,left,none,-99,-99,0.5,0,none,39,18,Woman,Right,
21,1,3,0.7513708000005863,['n'],0,left,none,-99,-99,0.5,0,none,39,18,Woman,Right,
22,1,3,1.018216399999801,['n'],1,right,none,-99,-99,0.5,0,none,39,18,Woman,Right,
23,1,3,0.5672555000001012,['c'],0,right,none,-99,-99,0.5,0,none,39,18,Woman,Right,
0,1,4,0.8173330999998143,['n'],1,right,none,-99,-99,0.5,0,none,39,18,Woman,Right,
1,1,4,1.134749799999554,['c'],1,left,none,-99,-99,0.5,0,none,39,18,Woman,Right,
2,1,4,4.967392399999881,['n'],1,right,none,-99,-99,0.5,0,none,39,18,Woman,Right,
3,1,4,0.9013197000003856,['c'],0,right,none,-99,-99,0.5,0,none,39,18,Woman,Right,
4,1,4,0.4842330999999831,['c'],1,left,none,-99,-99,0.5,0,none,39,18,Woman,Right,
5,1,4,0.4999852999990253,['c'],0,right,none,-99,-99,0.5,0,none,39,18,Woman,Right,
6,1,4,0.4184531999999308,['c'],0,right,none,-99,-99,0.5,0,none,39,18,Woman,Right,
7,1,4,0.5342286999984935,['c'],1,left,none,-99,-99,0.5,0,none,39,18,Woman,Right,
8,1,4,0.39933920000112266,['n'],1,right,none,-99,-99,0.5,0,none,39,18,Woman,Right,
9,1,4,0.5835683000004792,['n'],1,right,none,-99,-99,0.5,0,none,39,18,Woman,Right,
10,1,4,0.8011284000003798,['c'],1,left,none,-99,-99,0.5,0,none,39,18,Woman,Right,
11,1,4,0.6505749000007199,['c'],0,right,none,-99,-99,0.5,0,none,39,18,Woman,Right,
12,1,4,1.4012576000004628,['c'],0,right,none,-99,-99,0.5,0,none,39,18,Woman,Right,
13,1,4,0.300566500000059,['n'],0,left,none,-99,-99,0.5,0,none,39,18,Woman,Right,
14,1,4,0.5670641000015166,['c'],1,left,none,-99,-99,0.5,0,none,39,18,Woman,Right,
15,1,4,0.33565730000009353,['c'],1,left,none,-99,-99,0.5,0,none,39,18,Woman,Right,
16,1,4,0.467068100000688,['n'],0,left,none,-99,-99,0.5,0,none,39,18,Woman,Right,
17,1,4,0.6675645999985136,['n'],0,left,none,-99,-99,0.5,0,none,39,18,Woman,Right,
18,1,4,0.5518748000013147,['n'],1,right,none,-99,-99,0.5,0,none,39,18,Woman,Right,
19,1,4,1.701068899999882,['n'],0,left,none,-99,-99,0.5,0,none,39,18,Woman,Right,
20,1,4,0.8845209000010072,['n'],1,right,none,-99,-99,0.5,0,none,39,18,Woman,Right,
21,1,4,0.4830752999987453,['c'],1,left,none,-99,-99,0.5,0,none,39,18,Woman,Right,
22,1,4,0.33450790000097186,['c'],1,left,none,-99,-99,0.5,0,none,39,18,Woman,Right,
23,1,4,0.25048550000065006,['c'],0,right,none,-99,-99,0.5,0,none,39,18,Woman,Right,
0,1,5,0.5013754999999946,['c'],1,left,none,-99,-99,0.5,0,none,39,18,Woman,Right,
1,1,5,0.7005279999993945,['n'],1,right,none,-99,-99,0.5,0,none,39,18,Woman,Right,
2,1,5,0.6328876000006858,['n'],1,right,none,-99,-99,0.5,0,none,39,18,Woman,Right,
3,1,5,0.7503169999999955,['c'],0,right,none,-99,-99,0.5,0,none,39,18,Woman,Right,
4,1,5,0.65044399999897,['n'],1,right,none,-99,-99,0.5,0,none,39,18,Woman,Right,
5,1,5,0.6014610999991419,['n'],1,right,none,-99,-99,0.5,0,none,39,18,Woman,Right,
6,1,5,1.0505444000009447,['c'],1,left,none,-99,-99,0.5,0,none,39,18,Woman,Right,
7,1,5,0.6003704000013386,['c'],1,left,none,-99,-99,0.5,0,none,39,18,Woman,Right,
8,1,5,0.6178237999993144,['n'],1,right,none,-99,-99,0.5,0,none,39,18,Woman,Right,
9,1,5,0.450722700001279,['c'],1,left,none,-99,-99,0.5,0,none,39,18,Woman,Right,
10,1,5,0.5504272000016499,['c'],0,right,none,-99,-99,0.5,0,none,39,18,Woman,Right,
11,1,5,1.0001947000000655,['n'],1,right,none,-99,-99,0.5,0,none,39,18,Woman,Right,
12,1,5,0.5681654999989405,['c'],1,left,none,-99,-99,0.5,0,none,39,18,Woman,Right,
13,1,5,0.8170688999998674,['n'],1,right,none,-99,-99,0.5,0,none,39,18,Woman,Right,
14,1,5,0.5336951999997837,['c'],1,left,none,-99,-99,0.5,0,none,39,18,Woman,Right,
15,1,5,0.9830399999991641,['c'],1,left,none,-99,-99,0.5,0,none,39,18,Woman,Right,
16,1,5,1.2007295000003069,['n'],1,right,none,-99,-99,0.5,0,none,39,18,Woman,Right,
17,1,5,0.8672378999999637,['n'],0,left,none,-99,-99,0.5,0,none,39,18,Woman,Right,
18,1,5,0.73451120000027,['n'],0,left,none,-99,-99,0.5,0,none,39,18,Woman,Right,
19,1,5,0.9510912999994616,['c'],1,left,none,-99,-99,0.5,0,none,39,18,Woman,Right,
20,1,5,0.9344029000003502,['c'],1,left,none,-99,-99,0.5,0,none,39,18,Woman,Right,
21,1,5,0.5503587999992305,['c'],1,left,none,-99,-99,0.5,0,none,39,18,Woman,Right,
22,1,5,0.649370999999519,['n'],1,right,none,-99,-99,0.5,0,none,39,18,Woman,Right,
23,1,5,0.6977242000011756,['c'],0,right,none,-99,-99,0.5,0,none,39,18,Woman,Right,
0,1,6,0.6000326999983372,['c'],1,left,none,-99,-99,0.5,0,none,39,18,Woman,Right,
1,1,6,0.45125499999994645,['c'],0,right,none,-99,-99,0.5,0,none,39,18,Woman,Right,
2,1,6,0.4005238999998255,['c'],1,left,none,-99,-99,0.5,0,none,39,18,Woman,Right,
3,1,6,0.4499435999987327,['n'],1,right,none,-99,-99,0.5,0,none,39,18,Woman,Right,
4,1,6,0.35166230000140786,['n'],0,left,none,-99,-99,0.5,0,none,39,18,Woman,Right,
5,1,6,0.5164650000006077,['n'],1,right,none,-99,-99,0.5,0,none,39,18,Woman,Right,
6,1,6,0.4328514999997424,['c'],0,right,none,-99,-99,0.5,0,none,39,18,Woman,Right,
7,1,6,0.41860369999994873,['c'],1,left,none,-99,-99,0.5,0,none,39,18,Woman,Right,
8,1,6,0.9833574000003864,['n'],1,right,none,-99,-99,0.5,0,none,39,18,Woman,Right,
9,1,6,0.8002990000004502,['c'],0,right,none,-99,-99,0.5,0,none,39,18,Woman,Right,
10,1,6,0.5190280000006169,['c'],0,right,none,-99,-99,0.5,0,none,39,18,Woman,Right,
11,1,6,0.8679990999989968,['n'],0,left,none,-99,-99,0.5,0,none,39,18,Woman,Right,
12,1,6,2.317180100000769,['c'],0,right,none,-99,-99,0.5,0,none,39,18,Woman,Right,
13,1,6,0.7501675999992585,['c'],0,right,none,-99,-99,0.5,0,none,39,18,Woman,Right,
14,1,6,0.5502773999996862,['c'],1,left,none,-99,-99,0.5,0,none,39,18,Woman,Right,
15,1,6,0.8339013000004343,['n'],0,left,none,-99,-99,0.5,0,none,39,18,Woman,Right,
16,1,6,0.5181587000006402,['c'],1,left,none,-99,-99,0.5,0,none,39,18,Woman,Right,
17,1,6,0.6501672999984294,['c'],1,left,none,-99,-99,0.5,0,none,39,18,Woman,Right,
18,1,6,0.4505250000001979,['c'],1,left,none,-99,-99,0.5,0,none,39,18,Woman,Right,
19,1,6,0.5323785000000498,['n'],1,right,none,-99,-99,0.5,0,none,39,18,Woman,Right,
20,1,6,0.5833691999996518,['c'],1,left,none,-99,-99,0.5,0,none,39,18,Woman,Right,
21,1,6,0.46861250000074506,['n'],1,right,none,-99,-99,0.5,0,none,39,18,Woman,Right,
22,1,6,0.6170954000008351,['c'],1,left,none,-99,-99,0.5,0,none,39,18,Woman,Right,
23,1,6,0.45035420000021986,['n'],1,right,none,-99,-99,0.5,0,none,39,18,Woman,Right,
0,1,7,0.4680558000000019,['c'],1,left,none,-99,-99,0.5,0,none,39,18,Woman,Right,
1,1,7,0.5511190000015631,['c'],0,right,none,-99,-99,0.5,0,none,39,18,Woman,Right,
2,1,7,0.4336915999992925,['c'],1,left,none,-99,-99,0.5,0,none,39,18,Woman,Right,
3,1,7,0.5333031000009214,['n'],1,right,none,-99,-99,0.5,0,none,39,18,Woman,Right,
4,1,7,0.43368030000056024,['c'],1,left,none,-99,-99,0.5,0,none,39,18,Woman,Right,
5,1,7,2.4842594000001554,['n'],0,left,none,-99,-99,0.5,0,none,39,18,Woman,Right,
6,1,7,0.7350320000005013,['n'],0,left,none,-99,-99,0.5,0,none,39,18,Woman,Right,
7,1,7,0.4005711000008887,['c'],0,right,none,-99,-99,0.5,0,none,39,18,Woman,Right,
8,1,7,0.7663652999999613,['n'],1,right,none,-99,-99,0.5,0,none,39,18,Woman,Right,
9,1,7,0.5666607000002841,['c'],1,left,none,-99,-99,0.5,0,none,39,18,Woman,Right,
10,1,7,0.5673839999999473,['n'],0,left,none,-99,-99,0.5,0,none,39,18,Woman,Right,
11,1,7,1.1336988999992172,['n'],1,right,none,-99,-99,0.5,0,none,39,18,Woman,Right,
12,1,7,0.6174516999999469,['c'],1,left,none,-99,-99,0.5,0,none,39,18,Woman,Right,
13,1,7,0.516630800000712,['n'],1,right,none,-99,-99,0.5,0,none,39,18,Woman,Right,
14,1,7,1.0004475000005186,['n'],1,right,none,-99,-99,0.5,0,none,39,18,Woman,Right,
15,1,7,0.4998773999996047,['n'],1,right,none,-99,-99,0.5,0,none,39,18,Woman,Right,
16,1,7,0.5673408000002382,['c'],1,left,none,-99,-99,0.5,0,none,39,18,Woman,Right,
17,1,7,0.9505320999996911,['n'],1,right,none,-99,-99,0.5,0,none,39,18,Woman,Right,
18,1,7,0.5838960999990377,['c'],0,right,none,-99,-99,0.5,0,none,39,18,Woman,Right,
19,1,7,0.5839939999987109,['c'],1,left,none,-99,-99,0.5,0,none,39,18,Woman,Right,
20,1,7,0.8844269999990502,['n'],1,right,none,-99,-99,0.5,0,none,39,18,Woman,Right,
21,1,7,1.0338850999996794,['n'],0,left,none,-99,-99,0.5,0,none,39,18,Woman,Right,
22,1,7,0.8837821000015538,['n'],0,left,none,-99,-99,0.5,0,none,39,18,Woman,Right,
23,1,7,0.48397210000075574,['c'],0,right,none,-99,-99,0.5,0,none,39,18,Woman,Right,
0,1,8,1.4180022000000463,['n'],1,right,none,-99,-99,0.5,0,none,39,18,Woman,Right,
1,1,8,0.6505210999985138,['n'],1,right,none,-99,-99,0.5,0,none,39,18,Woman,Right,
2,1,8,0.4175580000010086,['c'],1,left,none,-99,-99,0.5,0,none,39,18,Woman,Right,
3,1,8,0.8173298999990948,['c'],1,left,none,-99,-99,0.5,0,none,39,18,Woman,Right,
4,1,8,0.7177143000008073,['n'],1,right,none,-99,-99,0.5,0,none,39,18,Woman,Right,
5,1,8,0.4998265000012907,['n'],1,right,none,-99,-99,0.5,0,none,39,18,Woman,Right,
6,1,8,0.4670274000000063,['c'],0,right,none,-99,-99,0.5,0,none,39,18,Woman,Right,
7,1,8,0.566986600000746,['c'],1,left,none,-99,-99,0.5,0,none,39,18,Woman,Right,
8,1,8,1.0339311999996426,['n'],0,left,none,-99,-99,0.5,0,none,39,18,Woman,Right,
9,1,8,0.8166153999991366,['n'],1,right,none,-99,-99,0.5,0,none,39,18,Woman,Right,
10,1,8,0.6336418000009871,['n'],1,right,none,-99,-99,0.5,0,none,39,18,Woman,Right,
11,1,8,0.5986650000013469,['c'],0,right,none,-99,-99,0.5,0,none,39,18,Woman,Right,
12,1,8,0.4348145999992994,['c'],0,right,none,-99,-99,0.5,0,none,39,18,Woman,Right,
13,1,8,0.6835605999986001,['c'],1,left,none,-99,-99,0.5,0,none,39,18,Woman,Right,
14,1,8,0.483915300001172,['n'],1,right,none,-99,-99,0.5,0,none,39,18,Woman,Right,
15,1,8,0.4515654999995604,['n'],1,right,none,-99,-99,0.5,0,none,39,18,Woman,Right,
16,1,8,0.648808599999029,['c'],1,left,none,-99,-99,0.5,0,none,39,18,Woman,Right,
17,1,8,0.4179222999991907,['n'],0,left,none,-99,-99,0.5,0,none,39,18,Woman,Right,
18,1,8,1.0190388999999413,['n'],1,right,none,-99,-99,0.5,0,none,39,18,Woman,Right,
19,1,8,0.6172077999999601,['c'],1,left,none,-99,-99,0.5,0,none,39,18,Woman,Right,
20,1,8,0.6005607999995846,['n'],0,left,none,-99,-99,0.5,0,none,39,18,Woman,Right,
21,1,8,0.4338145000001532,['c'],1,left,none,-99,-99,0.5,0,none,39,18,Woman,Right,
22,1,8,0.8344453999998223,['n'],0,left,none,-99,-99,0.5,0,none,39,18,Woman,Right,
23,1,8,0.7011432999988756,['n'],0,left,none,-99,-99,0.5,0,none,39,18,Woman,Right,
0,1,9,0.7844660999999178,['n'],1,right,none,-99,-99,0.5,0,none,39,18,Woman,Right,
1,1,9,0.415803900001265,['c'],0,right,none,-99,-99,0.5,0,none,39,18,Woman,Right,
2,1,9,0.7008077999998932,['n'],1,right,none,-99,-99,0.5,0,none,39,18,Woman,Right,
3,1,9,0.8010840999995708,['n'],1,right,none,-99,-99,0.5,0,none,39,18,Woman,Right,
4,1,9,1.1673573999996734,['c'],1,left,none,-99,-99,0.5,0,none,39,18,Woman,Right,
5,1,9,1.815955899999608,['c'],0,right,none,-99,-99,0.5,0,none,39,18,Woman,Right,
6,1,9,0.450408000000607,['n'],0,left,none,-99,-99,0.5,0,none,39,18,Woman,Right,
7,1,9,0.46635410000089905,['n'],0,left,none,-99,-99,0.5,0,none,39,18,Woman,Right,
8,1,9,0.7326914000004763,['c'],1,left,none,-99,-99,0.5,0,none,39,18,Woman,Right,
9,1,9,0.6338743999986036,['c'],1,left,none,-99,-99,0.5,0,none,39,18,Woman,Right,
10,1,9,0.46741990000009537,['c'],1,left,none,-99,-99,0.5,0,none,39,18,Woman,Right,
11,1,9,0.6344355000001087,['n'],0,left,none,-99,-99,0.5,0,none,39,18,Woman,Right,
12,1,9,0.5158234999998967,['c'],0,right,none,-99,-99,0.5,0,none,39,18,Woman,Right,
13,1,9,0.5839913999989221,['n'],1,right,none,-99,-99,0.5,0,none,39,18,Woman,Right,
14,1,9,0.5839379999997618,['c'],0,right,none,-99,-99,0.5,0,none,39,18,Woman,Right,
15,1,9,0.3662473999993381,['n'],0,left,none,-99,-99,0.5,0,none,39,18,Woman,Right,
16,1,9,0.401036600000225,['n'],1,right,none,-99,-99,0.5,0,none,39,18,Woman,Right,
17,1,9,0.3833682999993471,['c'],1,left,none,-99,-99,0.5,0,none,39,18,Woman,Right,
18,1,9,0.5838719000003039,['c'],1,left,none,-99,-99,0.5,0,none,39,18,Woman,Right,
19,1,9,0.766588699998465,['n'],1,right,none,-99,-99,0.5,0,none,39,18,Woman,Right,
20,1,9,0.5004922000007355,['c'],1,left,none,-99,-99,0.5,0,none,39,18,Woman,Right,
21,1,9,0.46801879999839,['n'],1,right,none,-99,-99,0.5,0,none,39,18,Woman,Right,
22,1,9,0.5335255000009056,['n'],1,right,none,-99,-99,0.5,0,none,39,18,Woman,Right,
23,1,9,0.5347060999993118,['c'],1,left,none,-99,-99,0.5,0,none,39,18,Woman,Right,
0,1,10,0.6504783000000316,['n'],1,right,none,-99,-99,0.5,0,none,39,18,Woman,Right,
1,1,10,0.43497519999982615,['c'],0,right,none,-99,-99,0.5,0,none,39,18,Woman,Right,
2,1,10,0.4333372999990388,['c'],0,right,none,-99,-99,0.5,0,none,39,18,Woman,Right,
3,1,10,0.8499147999991692,['c'],0,right,none,-99,-99,0.5,0,none,39,18,Woman,Right,
4,1,10,0.6840965000010328,['c'],1,left,none,-99,-99,0.5,0,none,39,18,Woman,Right,
5,1,10,0.6159482999992179,['c'],1,left,none,-99,-99,0.5,0,none,39,18,Woman,Right,
6,1,10,0.5348673999997118,['n'],1,right,none,-99,-99,0.5,0,none,39,18,Woman,Right,
7,1,10,0.584958600000391,['c'],1,left,none,-99,-99,0.5,0,none,39,18,Woman,Right,
8,1,10,0.46825209999951767,['c'],0,right,none,-99,-99,0.5,0,none,39,18,Woman,Right,
9,1,10,0.5172107999987929,['c'],1,left,none,-99,-99,0.5,0,none,39,18,Woman,Right,
10,1,10,0.41802390000157175,['n'],1,right,none,-99,-99,0.5,0,none,39,18,Woman,Right,
11,1,10,0.8004328999995778,['c'],0,right,none,-99,-99,0.5,0,none,39,18,Woman,Right,
12,1,10,0.3166196999991371,['n'],0,left,none,-99,-99,0.5,0,none,39,18,Woman,Right,
13,1,10,0.5173063000002003,['c'],0,right,none,-99,-99,0.5,0,none,39,18,Woman,Right,
14,1,10,0.6510877000000619,['n'],0,left,none,-99,-99,0.5,0,none,39,18,Woman,Right,
15,1,10,0.4677427999995416,['n'],1,right,none,-99,-99,0.5,0,none,39,18,Woman,Right,
16,1,10,0.7176235999995697,['c'],1,left,none,-99,-99,0.5,0,none,39,18,Woman,Right,
17,1,10,0.5000710000003892,['n'],1,right,none,-99,-99,0.5,0,none,39,18,Woman,Right,
18,1,10,0.46818100000018603,['c'],1,left,none,-99,-99,0.5,0,none,39,18,Woman,Right,
19,1,10,0.5836096000002726,['n'],0,left,none,-99,-99,0.5,0,none,39,18,Woman,Right,
20,1,10,0.6677899999995134,['c'],0,right,none,-99,-99,0.5,0,none,39,18,Woman,Right,
21,1,10,0.4679035000008298,['c'],1,left,none,-99,-99,0.5,0,none,39,18,Woman,Right,
22,1,10,0.46724549999999,['n'],0,left,none,-99,-99,0.5,0,none,39,18,Woman,Right,
23,1,10,0.5846003999995446,['c'],1,left,none,-99,-99,0.5,0,none,39,18,Woman,Right,
0,1,11,0.5842293999994581,['n'],1,right,none,-99,-99,0.5,0,none,39,18,Woman,Right,
1,1,11,0.6178546000010101,['n'],1,right,none,-99,-99,0.5,0,none,39,18,Woman,Right,
2,1,11,0.6672546999998303,['n'],1,right,none,-99,-99,0.5,0,none,39,18,Woman,Right,
3,1,11,0.46727779999855557,['n'],1,right,none,-99,-99,0.5,0,none,39,18,Woman,Right,
4,1,11,0.6677991999986261,['n'],1,right,none,-99,-99,0.5,0,none,39,18,Woman,Right,
5,1,11,0.5343345000001136,['c'],1,left,none,-99,-99,0.5,0,none,39,18,Woman,Right,
6,1,11,0.7840118999993138,['c'],1,left,none,-99,-99,0.5,0,none,39,18,Woman,Right,
7,1,11,0.5658331999984512,['n'],0,left,none,-99,-99,0.5,0,none,39,18,Woman,Right,
8,1,11,1.2832822000000306,['c'],0,right,none,-99,-99,0.5,0,none,39,18,Woman,Right,
9,1,11,0.6672097999999096,['c'],1,left,none,-99,-99,0.5,0,none,39,18,Woman,Right,
10,1,11,0.8012066999999661,['c'],1,left,none,-99,-99,0.5,0,none,39,18,Woman,Right,
11,1,11,1.384117100000367,['c'],1,left,none,-99,-99,0.5,0,none,39,18,Woman,Right,
12,1,11,0.9510683999997127,['c'],0,right,none,-99,-99,0.5,0,none,39,18,Woman,Right,
13,1,11,0.8348745999992389,['c'],1,left,none,-99,-99,0.5,0,none,39,18,Woman,Right,
14,1,11,0.7509637999992265,['c'],1,left,none,-99,-99,0.5,0,none,39,18,Woman,Right,
15,1,11,1.1344482999993488,['n'],1,right,none,-99,-99,0.5,0,none,39,18,Woman,Right,
16,1,11,0.7176698000002943,['n'],0,left,none,-99,-99,0.5,0,none,39,18,Woman,Right,
17,1,11,0.5512020000005577,['c'],0,right,none,-99,-99,0.5,0,none,39,18,Woman,Right,
18,1,11,0.40132230000017444,['n'],1,right,none,-99,-99,0.5,0,none,39,18,Woman,Right,
19,1,11,0.46728840000105265,['n'],1,right,none,-99,-99,0.5,0,none,39,18,Woman,Right,
20,1,11,1.4171493999983795,['c'],0,right,none,-99,-99,0.5,0,none,39,18,Woman,Right,
21,1,11,0.5499913999992714,['c'],1,left,none,-99,-99,0.5,0,none,39,18,Woman,Right,
22,1,11,1.1838005999998131,['c'],1,left,none,-99,-99,0.5,0,none,39,18,Woman,Right,
23,1,11,0.5337534999998752,['c'],1,left,none,-99,-99,0.5,0,none,39,18,Woman,Right,
0,1,12,0.6516264000001684,['n'],1,right,none,-99,-99,0.5,0,none,39,18,Woman,Right,
1,1,12,0.5178740000010293,['n'],0,left,none,-99,-99,0.5,0,none,39,18,Woman,Right,
2,1,12,0.8510840999988432,['c'],1,left,none,-99,-99,0.5,0,none,39,18,Woman,Right,
3,1,12,1.1005925999997999,['c'],0,right,none,-99,-99,0.5,0,none,39,18,Woman,Right,
4,1,12,0.7011779000004026,['n'],1,right,none,-99,-99,0.5,0,none,39,18,Woman,Right,
5,1,12,0.5678444999994099,['c'],1,left,none,-99,-99,0.5,0,none,39,18,Woman,Right,
6,1,12,0.784003800001301,['c'],0,right,none,-99,-99,0.5,0,none,39,18,Woman,Right,
7,1,12,0.8347370999999839,['c'],1,left,none,-99,-99,0.5,0,none,39,18,Woman,Right,
8,1,12,0.666210499999579,['n'],0,left,none,-99,-99,0.5,0,none,39,18,Woman,Right,
9,1,12,0.499871299998631,['c'],0,right,none,-99,-99,0.5,0,none,39,18,Woman,Right,
10,1,12,1.017044000000169,['n'],0,left,none,-99,-99,0.5,0,none,39,18,Woman,Right,
11,1,12,0.28405319999910716,['c'],1,left,none,-99,-99,0.5,0,none,39,18,Woman,Right,
12,1,12,0.4016570999992837,['n'],1,right,none,-99,-99,0.5,0,none,39,18,Woman,Right,
13,1,12,0.434546099999352,['c'],1,left,none,-99,-99,0.5,0,none,39,18,Woman,Right,
14,1,12,0.5173837000002095,['n'],0,left,none,-99,-99,0.5,0,none,39,18,Woman,Right,
15,1,12,0.4171296999993501,['n'],0,left,none,-99,-99,0.5,0,none,39,18,Woman,Right,
16,1,12,0.36720040000000154,['n'],1,right,none,-99,-99,0.5,0,none,39,18,Woman,Right,
17,1,12,0.36748330000045826,['n'],1,right,none,-99,-99,0.5,0,none,39,18,Woman,Right,
18,1,12,0.6010521999996854,['c'],0,right,none,-99,-99,0.5,0,none,39,18,Woman,Right,
19,1,12,0.5003768000005948,['c'],0,right,none,-99,-99,0.5,0,none,39,18,Woman,Right,
20,1,12,0.41730719999941357,['n'],1,right,none,-99,-99,0.5,0,none,39,18,Woman,Right,
21,1,12,0.5515240999993694,['n'],0,left,none,-99,-99,0.5,0,none,39,18,Woman,Right,
22,1,12,0.6842231000009633,['n'],1,right,none,-99,-99,0.5,0,none,39,18,Woman,Right,
23,1,12,0.7172074999998586,['c'],1,left,none,-99,-99,0.5,0,none,39,18,Woman,Right,
0,1,13,2.1513501000008546,['n'],0,left,none,-99,-99,0.5,0,none,39,18,Woman,Right,
1,1,13,0.6491619999997056,['n'],0,left,none,-99,-99,0.5,0,none,39,18,Woman,Right,
2,1,13,0.3348643000008451,['c'],0,right,none,-99,-99,0.5,0,none,39,18,Woman,Right,
3,1,13,0.23373700000047393,['n'],0,left,none,-99,-99,0.5,0,none,39,18,Woman,Right,
4,1,13,0.5346401000006153,['c'],0,right,none,-99,-99,0.5,0,none,39,18,Woman,Right,
5,1,13,0.06740710000121908,['c'],1,left,none,-99,-99,0.5,0,none,39,18,Woman,Right,
6,1,13,0.26785430000018096,['c'],0,right,none,-99,-99,0.5,0,none,39,18,Woman,Right,
7,1,13,0.21733259999928123,['c'],1,left,none,-99,-99,0.5,0,none,39,18,Woman,Right,
8,1,13,0.49928409999847645,['n'],1,right,none,-99,-99,0.5,0,none,39,18,Woman,Right,
9,1,13,0.25122059999921476,['n'],0,left,none,-99,-99,0.5,0,none,39,18,Woman,Right,
10,1,13,0.28490270000111195,['n'],1,right,none,-99,-99,0.5,0,none,39,18,Woman,Right,
11,1,13,0.2518716000013228,['c'],1,left,none,-99,-99,0.5,0,none,39,18,Woman,Right,
12,1,13,0.15132439999979397,['n'],1,right,none,-99,-99,0.5,0,none,39,18,Woman,Right,
13,1,13,0.2844285999999556,['n'],1,right,none,-99,-99,0.5,0,none,39,18,Woman,Right,
14,1,13,0.3184664000000339,['n'],0,left,none,-99,-99,0.5,0,none,39,18,Woman,Right,
15,1,13,0.3843566000014107,['n'],0,left,none,-99,-99,0.5,0,none,39,18,Woman,Right,
16,1,13,0.5504138999986026,['c'],1,left,none,-99,-99,0.5,0,none,39,18,Woman,Right,
17,1,13,0.45054030000028433,['n'],1,right,none,-99,-99,0.5,0,none,39,18,Woman,Right,
18,1,13,0.4337548000003153,['c'],1,left,none,-99,-99,0.5,0,none,39,18,Woman,Right,
19,1,13,0.4329660999992484,['n'],1,right,none,-99,-99,0.5,0,none,39,18,Woman,Right,
20,1,13,0.30032759999994596,['c'],0,right,none,-99,-99,0.5,0,none,39,18,Woman,Right,
21,1,13,0.28439240000079735,['n'],0,left,none,-99,-99,0.5,0,none,39,18,Woman,Right,
22,1,13,0.3825237000000925,['c'],0,right,none,-99,-99,0.5,0,none,39,18,Woman,Right,
23,1,13,0.4342707000014343,['c'],0,right,none,-99,-99,0.5,0,none,39,18,Woman,Right,
0,1,14,0.7345930999999837,['c'],1,left,none,-99,-99,0.5,0,none,39,18,Woman,Right,
1,1,14,0.6658011999988958,['n'],1,right,none,-99,-99,0.5,0,none,39,18,Woman,Right,
2,1,14,0.5848620000015217,['c'],1,left,none,-99,-99,0.5,0,none,39,18,Woman,Right,
3,1,14,0.6004398000004585,['c'],0,right,none,-99,-99,0.5,0,none,39,18,Woman,Right,
4,1,14,0.8003795000004175,['n'],1,right,none,-99,-99,0.5,0,none,39,18,Woman,Right,
5,1,14,0.4507904999991297,['c'],1,left,none,-99,-99,0.5,0,none,39,18,Woman,Right,
6,1,14,0.28458689999933995,['n'],0,left,none,-99,-99,0.5,0,none,39,18,Woman,Right,
7,1,14,0.3008445000014035,['n'],1,right,none,-99,-99,0.5,0,none,39,18,Woman,Right,
8,1,14,0.4345824000010907,['n'],0,left,none,-99,-99,0.5,0,none,39,18,Woman,Right,
9,1,14,0.6512987000005523,['n'],0,left,none,-99,-99,0.5,0,none,39,18,Woman,Right,
10,1,14,0.40087099999982456,['n'],0,left,none,-99,-99,0.5,0,none,39,18,Woman,Right,
11,1,14,0.36787750000075903,['n'],0,left,none,-99,-99,0.5,0,none,39,18,Woman,Right,
12,1,14,0.5171991999995953,['n'],0,left,none,-99,-99,0.5,0,none,39,18,Woman,Right,
13,1,14,0.48348710000027495,['n'],1,right,none,-99,-99,0.5,0,none,39,18,Woman,Right,
14,1,14,1.0512032000006002,['c'],1,left,none,-99,-99,0.5,0,none,39,18,Woman,Right,
15,1,14,0.384773400000995,['c'],1,left,none,-99,-99,0.5,0,none,39,18,Woman,Right,
16,1,14,0.7182959000001574,['n'],1,right,none,-99,-99,0.5,0,none,39,18,Woman,Right,
17,1,14,0.8497532999990653,['n'],1,right,none,-99,-99,0.5,0,none,39,18,Woman,Right,
18,1,14,0.48413000000073225,['c'],1,left,none,-99,-99,0.5,0,none,39,18,Woman,Right,
19,1,14,0.9182789000005869,['n'],1,right,none,-99,-99,0.5,0,none,39,18,Woman,Right,
20,1,14,1.134666500000094,['n'],1,right,none,-99,-99,0.5,0,none,39,18,Woman,Right,
21,1,14,0.8837923000010051,['c'],0,right,none,-99,-99,0.5,0,none,39,18,Woman,Right,
22,1,14,0.31641750000017055,['n'],1,right,none,-99,-99,0.5,0,none,39,18,Woman,Right,
23,1,14,0.6670101999989129,['n'],1,right,none,-99,-99,0.5,0,none,39,18,Woman,Right,
0,1,15,0.7162223999985144,['n'],1,right,none,-99,-99,0.5,0,none,39,18,Woman,Right,
1,1,15,0.6003209999998944,['n'],1,right,none,-99,-99,0.5,0,none,39,18,Woman,Right,
2,1,15,0.43322729999999865,['c'],0,right,none,-99,-99,0.5,0,none,39,18,Woman,Right,
3,1,15,0.3491089999988617,['n'],0,left,none,-99,-99,0.5,0,none,39,18,Woman,Right,
4,1,15,0.6845414999988861,['c'],1,left,none,-99,-99,0.5,0,none,39,18,Woman,Right,
5,1,15,2.3163292999997793,['c'],0,right,none,-99,-99,0.5,0,none,39,18,Woman,Right,
6,1,15,0.2841360000002169,['n'],1,right,none,-99,-99,0.5,0,none,39,18,Woman,Right,
7,1,15,0.3015045000011014,['c'],0,right,none,-99,-99,0.5,0,none,39,18,Woman,Right,
8,1,15,0.26730700000007346,['n'],1,right,none,-99,-99,0.5,0,none,39,18,Woman,Right,
9,1,15,0.30050870000013674,['n'],0,left,none,-99,-99,0.5,0,none,39,18,Woman,Right,
10,1,15,0.5339048999994702,['n'],0,left,none,-99,-99,0.5,0,none,39,18,Woman,Right,
11,1,15,0.38331339999967895,['c'],1,left,none,-99,-99,0.5,0,none,39,18,Woman,Right,
12,1,15,0.601687000000311,['n'],0,left,none,-99,-99,0.5,0,none,39,18,Woman,Right,
13,1,15,0.6004979000008461,['n'],1,right,none,-99,-99,0.5,0,none,39,18,Woman,Right,
14,1,15,0.816583100000571,['n'],1,right,none,-99,-99,0.5,0,none,39,18,Woman,Right,
15,1,15,0.36703549999947427,['n'],0,left,none,-99,-99,0.5,0,none,39,18,Woman,Right,
16,1,15,0.29859149999902,['c'],0,right,none,-99,-99,0.5,0,none,39,18,Woman,Right,
17,1,15,0.16902140000092913,['n'],0,left,none,-99,-99,0.5,0,none,39,18,Woman,Right,
18,1,15,1.8671352999990631,['c'],1,left,none,-99,-99,0.5,0,none,39,18,Woman,Right,
19,1,15,0.20070399999895017,['c'],0,right,none,-99,-99,0.5,0,none,39,18,Woman,Right,
20,1,15,0.28391689999989467,['n'],1,right,none,-99,-99,0.5,0,none,39,18,Woman,Right,
21,1,15,0.300512499999968,['n'],0,left,none,-99,-99,0.5,0,none,39,18,Woman,Right,
22,1,15,0.3337016000004951,['c'],1,left,none,-99,-99,0.5,0,none,39,18,Woman,Right,
23,1,15,0.2672251000003598,['n'],0,left,none,-99,-99,0.5,0,none,39,18,Woman,Right,
0,1,16,0.4007500000006985,['n'],0,left,none,-99,-99,0.5,0,none,39,18,Woman,Right,
1,1,16,0.45078860000103305,['n'],1,right,none,-99,-99,0.5,0,none,39,18,Woman,Right,
2,1,16,0.5015192999999272,['c'],1,left,none,-99,-99,0.5,0,none,39,18,Woman,Right,
3,1,16,0.3677766000000702,['c'],0,right,none,-99,-99,0.5,0,none,39,18,Woman,Right,
4,1,16,0.30119550000017625,['n'],1,right,none,-99,-99,0.5,0,none,39,18,Woman,Right,
5,1,16,0.6164791999999579,['c'],1,left,none,-99,-99,0.5,0,none,39,18,Woman,Right,
6,1,16,0.9671278999994684,['c'],1,left,none,-99,-99,0.5,0,none,39,18,Woman,Right,
7,1,16,0.6005285999999614,['n'],0,left,none,-99,-99,0.5,0,none,39,18,Woman,Right,
8,1,16,0.7170796999998856,['c'],0,right,none,-99,-99,0.5,0,none,39,18,Woman,Right,
9,1,16,0.39987030000156665,['c'],0,right,none,-99,-99,0.5,0,none,39,18,Woman,Right,
10,1,16,0.500690000000759,['n'],1,right,none,-99,-99,0.5,0,none,39,18,Woman,Right,
11,1,16,0.5179551999990508,['c'],1,left,none,-99,-99,0.5,0,none,39,18,Woman,Right,
12,1,16,0.5346452000012505,['c'],0,right,none,-99,-99,0.5,0,none,39,18,Woman,Right,
13,1,16,0.35131510000064736,['n'],0,left,none,-99,-99,0.5,0,none,39,18,Woman,Right,
14,1,16,0.31737470000007306,['n'],1,right,none,-99,-99,0.5,0,none,39,18,Woman,Right,
15,1,16,0.4503000999993674,['n'],0,left,none,-99,-99,0.5,0,none,39,18,Woman,Right,
16,1,16,0.16808109999874432,['c'],0,right,none,-99,-99,0.5,0,none,39,18,Woman,Right,
17,1,16,0.6171990999991976,['c'],1,left,none,-99,-99,0.5,0,none,39,18,Woman,Right,
18,1,16,1.2680443000008381,['n'],1,right,none,-99,-99,0.5,0,none,39,18,Woman,Right,
19,1,16,1.283300799999779,['n'],0,left,none,-99,-99,0.5,0,none,39,18,Woman,Right,
20,1,16,1.0181541999991168,['n'],0,left,none,-99,-99,0.5,0,none,39,18,Woman,Right,
21,1,16,1.9153872000006231,['c'],0,right,none,-99,-99,0.5,0,none,39,18,Woman,Right,
22,1,16,1.0336490999998205,['n'],0,left,none,-99,-99,0.5,0,none,39,18,Woman,Right,
23,1,16,0.8003668999990623,['c'],0,right,none,-99,-99,0.5,0,none,39,18,Woman,Right,
0,1,17,0.40118810000058147,['n'],0,left,none,-99,-99,0.5,0,none,39,18,Woman,Right,
1,1,17,0.2001388999997289,['n'],1,right,none,-99,-99,0.5,0,none,39,18,Woman,Right,
2,1,17,0.2849772999998095,['c'],1,left,none,-99,-99,0.5,0,none,39,18,Woman,Right,
3,1,17,0.36826620000101684,['c'],1,left,none,-99,-99,0.5,0,none,39,18,Woman,Right,
4,1,17,0.4332518999999593,['n'],1,right,none,-99,-99,0.5,0,none,39,18,Woman,Right,
5,1,17,0.700165800000832,['n'],1,right,none,-99,-99,0.5,0,none,39,18,Woman,Right,
6,1,17,0.48473870000088937,['n'],1,right,none,-99,-99,0.5,0,none,39,18,Woman,Right,
7,1,17,0.41645669999888923,['n'],1,right,none,-99,-99,0.5,0,none,39,18,Woman,Right,
8,1,17,0.9010756999996374,['n'],0,left,none,-99,-99,0.5,0,none,39,18,Woman,Right,
9,1,17,0.7516095999999379,['c'],1,left,none,-99,-99,0.5,0,none,39,18,Woman,Right,
10,1,17,0.41766529999949853,['c'],0,right,none,-99,-99,0.5,0,none,39,18,Woman,Right,
11,1,17,0.7509122999999818,['c'],1,left,none,-99,-99,0.5,0,none,39,18,Woman,Right,
12,1,17,0.9012259999999515,['c'],0,right,none,-99,-99,0.5,0,none,39,18,Woman,Right,
13,1,17,0.36803689999942435,['n'],0,left,none,-99,-99,0.5,0,none,39,18,Woman,Right,
14,1,17,1.2014412999997148,['n'],1,right,none,-99,-99,0.5,0,none,39,18,Woman,Right,
15,1,17,0.7860581999993883,['c'],1,left,none,-99,-99,0.5,0,none,39,18,Woman,Right,
16,1,17,0.6153793000012229,['c'],0,right,none,-99,-99,0.5,0,none,39,18,Woman,Right,
17,1,17,0.7680882999993628,['n'],1,right,none,-99,-99,0.5,0,none,39,18,Woman,Right,
18,1,17,2.2676799000000756,['n'],1,right,none,-99,-99,0.5,0,none,39,18,Woman,Right,
19,1,17,0.9007283999999345,['n'],0,left,none,-99,-99,0.5,0,none,39,18,Woman,Right,
20,1,17,0.5505744999991293,['n'],0,left,none,-99,-99,0.5,0,none,39,18,Woman,Right,
21,1,17,0.5831602999987808,['c'],1,left,none,-99,-99,0.5,0,none,39,18,Woman,Right,
22,1,17,0.5511691000010615,['c'],0,right,none,-99,-99,0.5,0,none,39,18,Woman,Right,
23,1,17,0.5505444999998872,['n'],0,left,none,-99,-99,0.5,0,none,39,18,Woman,Right,
0,1,18,0.7847065000005387,['c'],1,left,none,-99,-99,0.5,0,none,39,18,Woman,Right,
1,1,18,0.5500400000000809,['n'],1,right,none,-99,-99,0.5,0,none,39,18,Woman,Right,
2,1,18,0.301100900000165,['c'],1,left,none,-99,-99,0.5,0,none,39,18,Woman,Right,
3,1,18,0.38447509999969043,['n'],1,right,none,-99,-99,0.5,0,none,39,18,Woman,Right,
4,1,18,0.4492246999998315,['c'],0,right,none,-99,-99,0.5,0,none,39,18,Woman,Right,
5,1,18,0.4652308000004268,['n'],1,right,none,-99,-99,0.5,0,none,39,18,Woman,Right,
6,1,18,0.6158539999996719,['c'],1,left,none,-99,-99,0.5,0,none,39,18,Woman,Right,
7,1,18,1.0997314999985974,['c'],1,left,none,-99,-99,0.5,0,none,39,18,Woman,Right,
8,1,18,0.44957699999940814,['c'],0,right,none,-99,-99,0.5,0,none,39,18,Woman,Right,
9,1,18,0.7017649999997957,['c'],0,right,none,-99,-99,0.5,0,none,39,18,Woman,Right,
10,1,18,0.8847869999990507,['n'],0,left,none,-99,-99,0.5,0,none,39,18,Woman,Right,
11,1,18,1.8832103999993706,['c'],1,left,none,-99,-99,0.5,0,none,39,18,Woman,Right,
12,1,18,0.9489180000000488,['n'],0,left,none,-99,-99,0.5,0,none,39,18,Woman,Right,
13,1,18,1.8662380000005214,['c'],1,left,none,-99,-99,0.5,0,none,39,18,Woman,Right,
14,1,18,1.6176414000001387,['n'],0,left,none,-99,-99,0.5,0,none,39,18,Woman,Right,
15,1,18,1.0005304000005708,['c'],0,right,none,-99,-99,0.5,0,none,39,18,Woman,Right,
16,1,18,0.9506399999991118,['n'],1,right,none,-99,-99,0.5,0,none,39,18,Woman,Right,
17,1,18,0.9338496000000305,['n'],1,right,none,-99,-99,0.5,0,none,39,18,Woman,Right,
18,1,18,3.217688499998985,['c'],0,right,none,-99,-99,0.5,0,none,39,18,Woman,Right,
19,1,18,0.35127060000013444,['n'],0,left,none,-99,-99,0.5,0,none,39,18,Woman,Right,
20,1,18,0.5336537000002863,['n'],0,left,none,-99,-99,0.5,0,none,39,18,Woman,Right,
21,1,18,0.3012632999998459,['n'],1,right,none,-99,-99,0.5,0,none,39,18,Woman,Right,
22,1,18,0.36820760000045993,['n'],0,left,none,-99,-99,0.5,0,none,39,18,Woman,Right,
23,1,18,0.33474459999888495,['c'],0,right,none,-99,-99,0.5,0,none,39,18,Woman,Right,
0,1,19,0.5506705000007059,['n'],0,left,none,-99,-99,0.5,0,none,39,18,Woman,Right,
1,1,19,0.268510800000513,['c'],0,right,none,-99,-99,0.5,0,none,39,18,Woman,Right,
2,1,19,0.08430960000077903,['n'],1,right,none,-99,-99,0.5,0,none,39,18,Woman,Right,
3,1,19,0.43388530000083847,['n'],1,right,none,-99,-99,0.5,0,none,39,18,Woman,Right,
4,1,19,0.2657909000008658,['n'],0,left,none,-99,-99,0.5,0,none,39,18,Woman,Right,
5,1,19,0.24900479999996605,['c'],1,left,none,-99,-99,0.5,0,none,39,18,Woman,Right,
6,1,19,0.41742580000027374,['c'],1,left,none,-99,-99,0.5,0,none,39,18,Woman,Right,
7,1,19,0.44982399999935296,['n'],0,left,none,-99,-99,0.5,0,none,39,18,Woman,Right,
8,1,19,0.31757440000001225,['c'],0,right,none,-99,-99,0.5,0,none,39,18,Woman,Right,
9,1,19,0.21789080000053218,['n'],1,right,none,-99,-99,0.5,0,none,39,18,Woman,Right,
10,1,19,0.23236739999993006,['n'],0,left,none,-99,-99,0.5,0,none,39,18,Woman,Right,
11,1,19,0.18469890000051237,['n'],0,left,none,-99,-99,0.5,0,none,39,18,Woman,Right,
12,1,19,0.13413130000117235,['c'],1,left,none,-99,-99,0.5,0,none,39,18,Woman,Right,
13,1,19,0.5336341999991419,['n'],0,left,none,-99,-99,0.5,0,none,39,18,Woman,Right,
14,1,19,0.41727069999978994,['c'],1,left,none,-99,-99,0.5,0,none,39,18,Woman,Right,
15,1,19,0.5666863000005833,['n'],1,right,none,-99,-99,0.5,0,none,39,18,Woman,Right,
16,1,19,0.5994445999986056,['c'],0,right,none,-99,-99,0.5,0,none,39,18,Woman,Right,
17,1,19,0.502137199999197,['n'],1,right,none,-99,-99,0.5,0,none,39,18,Woman,Right,
18,1,19,0.36656830000174523,['c'],1,left,none,-99,-99,0.5,0,none,39,18,Woman,Right,
19,1,19,0.5339592000000266,['n'],1,right,none,-99,-99,0.5,0,none,39,18,Woman,Right,
20,1,19,0.6504896999995253,['n'],1,right,none,-99,-99,0.5,0,none,39,18,Woman,Right,
21,1,19,0.5843644999986282,['c'],0,right,none,-99,-99,0.5,0,none,39,18,Woman,Right,
22,1,19,1.0844728000010946,['c'],0,right,none,-99,-99,0.5,0,none,39,18,Woman,Right,
23,1,19,0.48372639999979583,['n'],0,left,none,-99,-99,0.5,0,none,39,18,Woman,Right,
0,1,20,0.8506515999997646,['n'],1,right,none,-99,-99,0.5,0,none,39,18,Woman,Right,
1,1,20,0.9503862000001391,['n'],0,left,none,-99,-99,0.5,0,none,39,18,Woman,Right,
2,1,20,0.7177976000002673,['c'],1,left,none,-99,-99,0.5,0,none,39,18,Woman,Right,
3,1,20,0.4347732000005635,['c'],1,left,none,-99,-99,0.5,0,none,39,18,Woman,Right,
4,1,20,0.46783309999955236,['n'],1,right,none,-99,-99,0.5,0,none,39,18,Woman,Right,
5,1,20,0.3663252000005741,['c'],0,right,none,-99,-99,0.5,0,none,39,18,Woman,Right,
6,1,20,0.7346206999991409,['n'],1,right,none,-99,-99,0.5,0,none,39,18,Woman,Right,
7,1,20,0.41733339999882446,['c'],0,right,none,-99,-99,0.5,0,none,39,18,Woman,Right,
8,1,20,0.43400500000097963,['c'],1,left,none,-99,-99,0.5,0,none,39,18,Woman,Right,
9,1,20,0.3159138000009989,['n'],1,right,none,-99,-99,0.5,0,none,39,18,Woman,Right,
10,1,20,0.33377870000003895,['n'],0,left,none,-99,-99,0.5,0,none,39,18,Woman,Right,
11,1,20,0.4672522000000754,['c'],1,left,none,-99,-99,0.5,0,none,39,18,Woman,Right,
12,1,20,1.0842765999987023,['n'],0,left,none,-99,-99,0.5,0,none,39,18,Woman,Right,
13,1,20,0.6668826000004628,['n'],1,right,none,-99,-99,0.5,0,none,39,18,Woman,Right,
14,1,20,0.48340640000060375,['n'],0,left,none,-99,-99,0.5,0,none,39,18,Woman,Right,
15,1,20,0.33186360000036075,['n'],0,left,none,-99,-99,0.5,0,none,39,18,Woman,Right,
16,1,20,0.3514742999996088,['n'],1,right,none,-99,-99,0.5,0,none,39,18,Woman,Right,
17,1,20,0.36862789999941015,['c'],1,left,none,-99,-99,0.5,0,none,39,18,Woman,Right,
18,1,20,0.7014111999997112,['c'],0,right,none,-99,-99,0.5,0,none,39,18,Woman,Right,
19,1,20,0.568000100000063,['n'],1,right,none,-99,-99,0.5,0,none,39,18,Woman,Right,
20,1,20,1.8344716000010521,['c'],0,right,none,-99,-99,0.5,0,none,39,18,Woman,Right,
21,1,20,1.5677256999988458,['c'],1,left,none,-99,-99,0.5,0,none,39,18,Woman,Right,
22,1,20,0.8838082000002032,['n'],0,left,none,-99,-99,0.5,0,none,39,18,Woman,Right,
23,1,20,0.6671363000004931,['c'],0,right,none,-99,-99,0.5,0,none,39,18,Woman,Right,
0,1,21,0.7172881999995298,['n'],1,right,none,-99,-99,0.5,0,none,39,18,Woman,Right,
1,1,21,0.41809049999937997,['n'],1,right,none,-99,-99,0.5,0,none,39,18,Woman,Right,
2,1,21,0.3832425999989937,['n'],1,right,none,-99,-99,0.5,0,none,39,18,Woman,Right,
3,1,21,0.4166370000002644,['n'],0,left,none,-99,-99,0.5,0,none,39,18,Woman,Right,
4,1,21,0.7676551999993535,['n'],0,left,none,-99,-99,0.5,0,none,39,18,Woman,Right,
5,1,21,0.6011859000009281,['c'],1,left,none,-99,-99,0.5,0,none,39,18,Woman,Right,
6,1,21,0.684505999999601,['n'],1,right,none,-99,-99,0.5,0,none,39,18,Woman,Right,
7,1,21,0.4512055999985023,['c'],1,left,none,-99,-99,0.5,0,none,39,18,Woman,Right,
8,1,21,0.28482330000042566,['n'],1,right,none,-99,-99,0.5,0,none,39,18,Woman,Right,
9,1,21,0.6500292999990052,['n'],1,right,none,-99,-99,0.5,0,none,39,18,Woman,Right,
10,1,21,1.200508500000069,['c'],0,right,none,-99,-99,0.5,0,none,39,18,Woman,Right,
11,1,21,1.1000892000010936,['n'],0,left,none,-99,-99,0.5,0,none,39,18,Woman,Right,
12,1,21,2.3011265999994066,['c'],1,left,none,-99,-99,0.5,0,none,39,18,Woman,Right,
13,1,21,1.066801499999201,['n'],0,left,none,-99,-99,0.5,0,none,39,18,Woman,Right,
14,1,21,0.6006944000000658,['n'],0,left,none,-99,-99,0.5,0,none,39,18,Woman,Right,
15,1,21,0.5681220000005851,['c'],1,left,none,-99,-99,0.5,0,none,39,18,Woman,Right,
16,1,21,0.6666197000013199,['n'],0,left,none,-99,-99,0.5,0,none,39,18,Woman,Right,
17,1,21,0.6486666000000696,['c'],0,right,none,-99,-99,0.5,0,none,39,18,Woman,Right,
18,1,21,0.9497410000003583,['c'],0,right,none,-99,-99,0.5,0,none,39,18,Woman,Right,
19,1,21,0.6336714999997639,['n'],1,right,none,-99,-99,0.5,0,none,39,18,Woman,Right,
20,1,21,1.3671157000007952,['n'],0,left,none,-99,-99,0.5,0,none,39,18,Woman,Right,
21,1,21,0.2991555000007793,['c'],0,right,none,-99,-99,0.5,0,none,39,18,Woman,Right,
22,1,21,0.8011867000004713,['n'],1,right,none,-99,-99,0.5,0,none,39,18,Woman,Right,
23,1,21,0.9007328999996389,['c'],1,left,none,-99,-99,0.5,0,none,39,18,Woman,Right,
0,1,22,0.850422499999695,['c'],1,left,none,-99,-99,0.5,0,none,39,18,Woman,Right,
1,1,22,0.8165965000007418,['n'],1,right,none,-99,-99,0.5,0,none,39,18,Woman,Right,
2,1,22,0.5176662000012584,['c'],0,right,none,-99,-99,0.5,0,none,39,18,Woman,Right,
3,1,22,0.28463730000112264,['n'],0,left,none,-99,-99,0.5,0,none,39,18,Woman,Right,
4,1,22,0.6163890999996511,['c'],0,right,none,-99,-99,0.5,0,none,39,18,Woman,Right,
5,1,22,0.31725729999925534,['n'],1,right,none,-99,-99,0.5,0,none,39,18,Woman,Right,
6,1,22,0.6007786999998643,['c'],1,left,none,-99,-99,0.5,0,none,39,18,Woman,Right,
7,1,22,0.43304989999887766,['n'],1,right,none,-99,-99,0.5,0,none,39,18,Woman,Right,
8,1,22,0.9828041000000667,['c'],0,right,none,-99,-99,0.5,0,none,39,18,Woman,Right,
9,1,22,0.9505399000008765,['n'],0,left,none,-99,-99,0.5,0,none,39,18,Woman,Right,
10,1,22,0.4498961999997846,['c'],0,right,none,-99,-99,0.5,0,none,39,18,Woman,Right,
11,1,22,0.5334008999998332,['c'],1,left,none,-99,-99,0.5,0,none,39,18,Woman,Right,
12,1,22,0.8345337000009749,['n'],1,right,none,-99,-99,0.5,0,none,39,18,Woman,Right,
13,1,22,0.866687900001125,['c'],1,left,none,-99,-99,0.5,0,none,39,18,Woman,Right,
14,1,22,0.38333419999980833,['n'],1,right,none,-99,-99,0.5,0,none,39,18,Woman,Right,
15,1,22,0.4672009000005346,['c'],1,left,none,-99,-99,0.5,0,none,39,18,Woman,Right,
16,1,22,0.3180694999991829,['n'],1,right,none,-99,-99,0.5,0,none,39,18,Woman,Right,
17,1,22,2.317699299999731,['c'],0,right,none,-99,-99,0.5,0,none,39,18,Woman,Right,
18,1,22,0.3510833000000275,['n'],1,right,none,-99,-99,0.5,0,none,39,18,Woman,Right,
19,1,22,0.3005660999988322,['c'],1,left,none,-99,-99,0.5,0,none,39,18,Woman,Right,
20,1,22,0.38325040000017907,['n'],0,left,none,-99,-99,0.5,0,none,39,18,Woman,Right,
21,1,22,0.3333011999984592,['c'],1,left,none,-99,-99,0.5,0,none,39,18,Woman,Right,
22,1,22,0.36780519999956596,['n'],0,left,none,-99,-99,0.5,0,none,39,18,Woman,Right,
23,1,22,2.416399600000659,['c'],1,left,none,-99,-99,0.5,0,none,39,18,Woman,Right,
0,1,23,0.7177332999999635,['n'],1,right,none,-99,-99,0.5,0,none,39,18,Woman,Right,
1,1,23,0.4666723999998794,['n'],1,right,none,-99,-99,0.5,0,none,39,18,Woman,Right,
2,1,23,0.31783639999957813,['n'],0,left,none,-99,-99,0.5,0,none,39,18,Woman,Right,
3,1,23,0.30114809999940917,['c'],1,left,none,-99,-99,0.5,0,none,39,18,Woman,Right,
4,1,23,0.9171463000002404,['n'],1,right,none,-99,-99,0.5,0,none,39,18,Woman,Right,
5,1,23,3.999369499999375,['c'],1,left,none,-99,-99,0.5,0,none,39,18,Woman,Right,
6,1,23,2.500366500000382,['n'],1,right,none,-99,-99,0.5,0,none,39,18,Woman,Right,
7,1,23,3.2012006000004476,['c'],0,right,none,-99,-99,0.5,0,none,39,18,Woman,Right,
8,1,23,0.40104930000052263,['n'],1,right,none,-99,-99,0.5,0,none,39,18,Woman,Right,
9,1,23,0.08487919999970472,['c'],0,right,none,-99,-99,0.5,0,none,39,18,Woman,Right,
10,1,23,0.2502687000014703,['n'],1,right,none,-99,-99,0.5,0,none,39,18,Woman,Right,
11,1,23,0.03546199999982491,['n'],0,left,none,-99,-99,0.5,0,none,39,18,Woman,Right,
12,1,23,2.200630400000591,['c'],1,left,none,-99,-99,0.5,0,none,39,18,Woman,Right,
13,1,23,5.000053499999922,x,-99,left,none,-99,-99,0.5,1,none,39,18,Woman,Right,
14,1,23,0.3838288000006287,['n'],0,left,none,-99,-99,0.5,0,none,39,18,Woman,Right,
15,1,23,0.4012337000003754,['n'],0,left,none,-99,-99,0.5,0,none,39,18,Woman,Right,
16,1,23,0.5339074000003166,['n'],0,left,none,-99,-99,0.5,0,none,39,18,Woman,Right,
17,1,23,0.5338688000010734,['n'],1,right,none,-99,-99,0.5,0,none,39,18,Woman,Right,
18,1,23,0.8832048999993276,['n'],0,left,none,-99,-99,0.5,0,none,39,18,Woman,Right,
19,1,23,0.4506376999997883,['c'],1,left,none,-99,-99,0.5,0,none,39,18,Woman,Right,
20,1,23,0.633091499999864,['n'],1,right,none,-99,-99,0.5,0,none,39,18,Woman,Right,
21,1,23,0.5831940999996732,['n'],1,right,none,-99,-99,0.5,0,none,39,18,Woman,Right,
22,1,23,0.6997300999992149,['n'],1,right,none,-99,-99,0.5,0,none,39,18,Woman,Right,
23,1,23,0.46594050000021525,['c'],1,left,none,-99,-99,0.5,0,none,39,18,Woman,Right,
0,1,24,0.7008968999998615,['n'],1,right,none,-99,-99,0.5,0,none,39,18,Woman,Right,
1,1,24,0.599774600001183,['c'],1,left,none,-99,-99,0.5,0,none,39,18,Woman,Right,
2,1,24,0.6849861999999121,['c'],1,left,none,-99,-99,0.5,0,none,39,18,Woman,Right,
3,1,24,0.4503731000004336,['c'],0,right,none,-99,-99,0.5,0,none,39,18,Woman,Right,
4,1,24,0.4841805000014574,['c'],1,left,none,-99,-99,0.5,0,none,39,18,Woman,Right,
5,1,24,0.33460700000068755,['c'],0,right,none,-99,-99,0.5,0,none,39,18,Woman,Right,
6,1,24,0.5003259999994043,['c'],1,left,none,-99,-99,0.5,0,none,39,18,Woman,Right,
7,1,24,0.666832400000203,['n'],1,right,none,-99,-99,0.5,0,none,39,18,Woman,Right,
8,1,24,0.7500847999999678,['n'],0,left,none,-99,-99,0.5,0,none,39,18,Woman,Right,
9,1,24,0.6005361000006815,['c'],1,left,none,-99,-99,0.5,0,none,39,18,Woman,Right,
10,1,24,0.7014484999999695,['n'],1,right,none,-99,-99,0.5,0,none,39,18,Woman,Right,
11,1,24,0.4331369999999879,['c'],1,left,none,-99,-99,0.5,0,none,39,18,Woman,Right,
12,1,24,0.3338714000001346,['c'],0,right,none,-99,-99,0.5,0,none,39,18,Woman,Right,
13,1,24,0.48403500000131316,['n'],0,left,none,-99,-99,0.5,0,none,39,18,Woman,Right,
14,1,24,0.38311480000083975,['c'],0,right,none,-99,-99,0.5,0,none,39,18,Woman,Right,
15,1,24,1.0005318999992596,['n'],1,right,none,-99,-99,0.5,0,none,39,18,Woman,Right,
16,1,24,0.5005007999989175,['n'],1,right,none,-99,-99,0.5,0,none,39,18,Woman,Right,
17,1,24,0.35104130000036093,['c'],0,right,none,-99,-99,0.5,0,none,39,18,Woman,Right,
18,1,24,0.48460720000002766,['c'],1,left,none,-99,-99,0.5,0,none,39,18,Woman,Right,
19,1,24,0.8178456999994523,['c'],1,left,none,-99,-99,0.5,0,none,39,18,Woman,Right,
20,1,24,0.5334226999984821,['n'],1,right,none,-99,-99,0.5,0,none,39,18,Woman,Right,
21,1,24,0.6669880000008561,['c'],0,right,none,-99,-99,0.5,0,none,39,18,Woman,Right,
22,1,24,0.5845914999990782,['n'],0,left,none,-99,-99,0.5,0,none,39,18,Woman,Right,
23,1,24,0.550588100000823,['c'],1,left,none,-99,-99,0.5,0,none,39,18,Woman,Right,
0,1,25,0.7185028999992937,['n'],1,right,none,-99,-99,0.5,0,none,39,18,Woman,Right,
1,1,25,0.5505780000003142,['c'],1,left,none,-99,-99,0.5,0,none,39,18,Woman,Right,
2,1,25,0.4679037999994762,['n'],1,right,none,-99,-99,0.5,0,none,39,18,Woman,Right,
3,1,25,0.6344157000003179,['c'],1,left,none,-99,-99,0.5,0,none,39,18,Woman,Right,
4,1,25,0.917288999999073,['c'],0,right,none,-99,-99,0.5,0,none,39,18,Woman,Right,
5,1,25,0.5678898999994999,['c'],1,left,none,-99,-99,0.5,0,none,39,18,Woman,Right,
6,1,25,0.4678342999995948,['c'],0,right,none,-99,-99,0.5,0,none,39,18,Woman,Right,
7,1,25,0.5499386999999842,['n'],1,right,none,-99,-99,0.5,0,none,39,18,Woman,Right,
8,1,25,0.5661856999995507,['c'],1,left,none,-99,-99,0.5,0,none,39,18,Woman,Right,
9,1,25,0.6676580000003014,['n'],0,left,none,-99,-99,0.5,0,none,39,18,Woman,Right,
10,1,25,0.5014535000009346,['c'],0,right,none,-99,-99,0.5,0,none,39,18,Woman,Right,
11,1,25,0.3845573999988119,['n'],0,left,none,-99,-99,0.5,0,none,39,18,Woman,Right,
12,1,25,0.4835942999998224,['n'],1,right,none,-99,-99,0.5,0,none,39,18,Woman,Right,
13,1,25,0.6340381000009074,['c'],1,left,none,-99,-99,0.5,0,none,39,18,Woman,Right,
14,1,25,0.567751300000964,['c'],0,right,none,-99,-99,0.5,0,none,39,18,Woman,Right,
15,1,25,0.48397880000084115,['n'],1,right,none,-99,-99,0.5,0,none,39,18,Woman,Right,
16,1,25,0.7173342000005505,['n'],1,right,none,-99,-99,0.5,0,none,39,18,Woman,Right,
17,1,25,0.6839868999995815,['n'],1,right,none,-99,-99,0.5,0,none,39,18,Woman,Right,
18,1,25,0.6182622000014817,['c'],1,left,none,-99,-99,0.5,0,none,39,18,Woman,Right,
19,1,25,0.7844893000001321,['c'],1,left,none,-99,-99,0.5,0,none,39,18,Woman,Right,
20,1,25,0.7504477000002225,['c'],1,left,none,-99,-99,0.5,0,none,39,18,Woman,Right,
21,1,25,0.8181998999989446,['c'],0,right,none,-99,-99,0.5,0,none,39,18,Woman,Right,
22,1,25,0.5177666999989015,['n'],0,left,none,-99,-99,0.5,0,none,39,18,Woman,Right,
23,1,25,0.5178734000000986,['c'],1,left,none,-99,-99,0.5,0,none,39,18,Woman,Right,
0,1,26,0.48342500000035216,['c'],1,left,none,-99,-99,0.5,0,none,39,18,Woman,Right,
1,1,26,0.5321569000007003,['n'],0,left,none,-99,-99,0.5,0,none,39,18,Woman,Right,
2,1,26,0.3843572000005224,['c'],0,right,none,-99,-99,0.5,0,none,39,18,Woman,Right,
3,1,26,0.5012036999996781,['n'],0,left,none,-99,-99,0.5,0,none,39,18,Woman,Right,
4,1,26,0.267343699999401,['c'],1,left,none,-99,-99,0.5,0,none,39,18,Woman,Right,
5,1,26,0.016761000000769855,['c'],0,right,none,-99,-99,0.5,0,none,39,18,Woman,Right,
6,1,26,0.2674351999994542,['n'],1,right,none,-99,-99,0.5,0,none,39,18,Woman,Right,
7,1,26,0.20116090000010445,['n'],0,left,none,-99,-99,0.5,0,none,39,18,Woman,Right,
8,1,26,0.26694320000024163,['n'],1,right,none,-99,-99,0.5,0,none,39,18,Woman,Right,
9,1,26,0.08463280000069062,['c'],0,right,none,-99,-99,0.5,0,none,39,18,Woman,Right,
10,1,26,0.18390870000075665,['c'],0,right,none,-99,-99,0.5,0,none,39,18,Woman,Right,
11,1,26,0.11788239999987127,['c'],1,left,none,-99,-99,0.5,0,none,39,18,Woman,Right,
12,1,26,0.30177910000020347,['c'],1,left,none,-99,-99,0.5,0,none,39,18,Woman,Right,
13,1,26,0.2846324000001914,['n'],0,left,none,-99,-99,0.5,0,none,39,18,Woman,Right,
14,1,26,0.15058830000089074,['c'],1,left,none,-99,-99,0.5,0,none,39,18,Woman,Right,
15,1,26,0.4506442000001698,['n'],1,right,none,-99,-99,0.5,0,none,39,18,Woman,Right,
16,1,26,0.40050439999868104,['c'],0,right,none,-99,-99,0.5,0,none,39,18,Woman,Right,
17,1,26,0.4671736000000237,['c'],1,left,none,-99,-99,0.5,0,none,39,18,Woman,Right,
18,1,26,0.7502292999997735,['n'],1,right,none,-99,-99,0.5,0,none,39,18,Woman,Right,
19,1,26,1.0167837999997573,['n'],1,right,none,-99,-99,0.5,0,none,39,18,Woman,Right,
20,1,26,0.6002918999984104,['c'],0,right,none,-99,-99,0.5,0,none,39,18,Woman,Right,
21,1,26,0.833258399999977,['n'],0,left,none,-99,-99,0.5,0,none,39,18,Woman,Right,
22,1,26,0.8845485000001645,['c'],0,right,none,-99,-99,0.5,0,none,39,18,Woman,Right,
23,1,26,0.649753800000326,['n'],0,left,none,-99,-99,0.5,0,none,39,18,Woman,Right,
0,1,27,0.8177477000008366,['c'],0,right,none,-99,-99,0.5,0,none,39,18,Woman,Right,
1,1,27,0.33385900000030233,['n'],1,right,none,-99,-99,0.5,0,none,39,18,Woman,Right,
2,1,27,1.1176331999995455,['c'],0,right,none,-99,-99,0.5,0,none,39,18,Woman,Right,
3,1,27,0.767898599999171,['n'],0,left,none,-99,-99,0.5,0,none,39,18,Woman,Right,
4,1,27,0.4818897000004654,['c'],1,left,none,-99,-99,0.5,0,none,39,18,Woman,Right,
5,1,27,1.08393740000065,['c'],0,right,none,-99,-99,0.5,0,none,39,18,Woman,Right,
6,1,27,3.967326399999365,['c'],1,left,none,-99,-99,0.5,0,none,39,18,Woman,Right,
7,1,27,0.5846841000002314,['c'],0,right,none,-99,-99,0.5,0,none,39,18,Woman,Right,
8,1,27,0.43380919999981415,['n'],0,left,none,-99,-99,0.5,0,none,39,18,Woman,Right,
9,1,27,1.2684138000004168,['c'],1,left,none,-99,-99,0.5,0,none,39,18,Woman,Right,
10,1,27,0.6830344999998488,['c'],1,left,none,-99,-99,0.5,0,none,39,18,Woman,Right,
11,1,27,0.40068759999849135,['c'],0,right,none,-99,-99,0.5,0,none,39,18,Woman,Right,
12,1,27,0.31707339999957185,['n'],1,right,none,-99,-99,0.5,0,none,39,18,Woman,Right,
13,1,27,0.9504806999993889,['n'],1,right,none,-99,-99,0.5,0,none,39,18,Woman,Right,
14,1,27,1.0488789000010001,['c'],0,right,none,-99,-99,0.5,0,none,39,18,Woman,Right,
15,1,27,0.7512557999998535,['n'],0,left,none,-99,-99,0.5,0,none,39,18,Woman,Right,
16,1,27,0.3842993000016577,['n'],0,left,none,-99,-99,0.5,0,none,39,18,Woman,Right,
17,1,27,1.3002020999992965,['n'],0,left,none,-99,-99,0.5,0,none,39,18,Woman,Right,
18,1,27,0.017990799999097362,['n'],0,left,none,-99,-99,0.5,0,none,39,18,Woman,Right,
19,1,27,0.917294299999412,['n'],0,left,none,-99,-99,0.5,0,none,39,18,Woman,Right,
20,1,27,0.5309615000005579,['c'],1,left,none,-99,-99,0.5,0,none,39,18,Woman,Right,
21,1,27,0.4355267000009917,['c'],0,right,none,-99,-99,0.5,0,none,39,18,Woman,Right,
22,1,27,2.067444800000885,['n'],1,right,none,-99,-99,0.5,0,none,39,18,Woman,Right,
23,1,27,1.2001381999998557,['n'],1,right,none,-99,-99,0.5,0,none,39,18,Woman,Right,
0,1,28,0.7012606000007509,['n'],0,left,none,-99,-99,0.5,0,none,39,18,Woman,Right,
1,1,28,0.3338991000000533,['c'],0,right,none,-99,-99,0.5,0,none,39,18,Woman,Right,
2,1,28,0.43378540000048815,['n'],1,right,none,-99,-99,0.5,0,none,39,18,Woman,Right,
3,1,28,0.5182354999997187,['c'],0,right,none,-99,-99,0.5,0,none,39,18,Woman,Right,
4,1,28,0.21663149999949383,['n'],1,right,none,-99,-99,0.5,0,none,39,18,Woman,Right,
5,1,28,0.35045239999999467,['n'],0,left,none,-99,-99,0.5,0,none,39,18,Woman,Right,
6,1,28,0.33467820000078063,['n'],1,right,none,-99,-99,0.5,0,none,39,18,Woman,Right,
7,1,28,1.0673676999995223,['c'],1,left,none,-99,-99,0.5,0,none,39,18,Woman,Right,
8,1,28,0.30060549999871,['n'],0,left,none,-99,-99,0.5,0,none,39,18,Woman,Right,
9,1,28,0.33387669999865466,['c'],1,left,none,-99,-99,0.5,0,none,39,18,Woman,Right,
10,1,28,0.25095390000024054,['n'],0,left,none,-99,-99,0.5,0,none,39,18,Woman,Right,
11,1,28,0.35152890000063053,['n'],1,right,none,-99,-99,0.5,0,none,39,18,Woman,Right,
12,1,28,0.36790540000038163,['c'],0,right,none,-99,-99,0.5,0,none,39,18,Woman,Right,
13,1,28,0.5348677000001771,['n'],0,left,none,-99,-99,0.5,0,none,39,18,Woman,Right,
14,1,28,0.36799510000128066,['c'],0,right,none,-99,-99,0.5,0,none,39,18,Woman,Right,
15,1,28,0.38280680000025313,['n'],1,right,none,-99,-99,0.5,0,none,39,18,Woman,Right,
16,1,28,0.4180211999992025,['c'],1,left,none,-99,-99,0.5,0,none,39,18,Woman,Right,
17,1,28,0.45093590000033146,['c'],0,right,none,-99,-99,0.5,0,none,39,18,Woman,Right,
18,1,28,0.6346809999995457,['n'],0,left,none,-99,-99,0.5,0,none,39,18,Woman,Right,
19,1,28,0.4338984999994864,['n'],0,left,none,-99,-99,0.5,0,none,39,18,Woman,Right,
20,1,28,0.7499807999993209,['n'],1,right,none,-99,-99,0.5,0,none,39,18,Woman,Right,
21,1,28,0.8839064999992843,['n'],0,left,none,-99,-99,0.5,0,none,39,18,Woman,Right,
22,1,28,0.7002948000008473,['n'],1,right,none,-99,-99,0.5,0,none,39,18,Woman,Right,
23,1,28,0.3165509000009479,['c'],1,left,none,-99,-99,0.5,0,none,39,18,Woman,Right,
0,1,29,0.38480019999951764,['n'],1,right,none,-99,-99,0.5,0,none,39,18,Woman,Right,
1,1,29,1.0502316000001883,['c'],0,right,none,-99,-99,0.5,0,none,39,18,Woman,Right,
2,1,29,3.2677170999995724,['n'],1,right,none,-99,-99,0.5,0,none,39,18,Woman,Right,
3,1,29,0.6176092000005156,['c'],1,left,none,-99,-99,0.5,0,none,39,18,Woman,Right,
4,1,29,0.4005503000007593,['n'],1,right,none,-99,-99,0.5,0,none,39,18,Woman,Right,
5,1,29,3.850837500000125,['n'],0,left,none,-99,-99,0.5,0,none,39,18,Woman,Right,
6,1,29,0.3014087000010477,['n'],1,right,none,-99,-99,0.5,0,none,39,18,Woman,Right,
7,1,29,0.9999411999997392,['c'],1,left,none,-99,-99,0.5,0,none,39,18,Woman,Right,
8,1,29,1.518051099999866,['n'],0,left,none,-99,-99,0.5,0,none,39,18,Woman,Right,
9,1,29,0.6514022999999725,['c'],1,left,none,-99,-99,0.5,0,none,39,18,Woman,Right,
10,1,29,0.41808799999853363,['n'],0,left,none,-99,-99,0.5,0,none,39,18,Woman,Right,
11,1,29,0.5011706000004779,['c'],1,left,none,-99,-99,0.5,0,none,39,18,Woman,Right,
12,1,29,0.3844115000010788,['n'],1,right,none,-99,-99,0.5,0,none,39,18,Woman,Right,
13,1,29,0.3654996999994182,['n'],1,right,none,-99,-99,0.5,0,none,39,18,Woman,Right,
14,1,29,0.3006205999990925,['n'],0,left,none,-99,-99,0.5,0,none,39,18,Woman,Right,
15,1,29,0.38398350000170467,['n'],1,right,none,-99,-99,0.5,0,none,39,18,Woman,Right,
16,1,29,0.3833613000006153,['n'],0,left,none,-99,-99,0.5,0,none,39,18,Woman,Right,
17,1,29,0.3185217999998713,['n'],1,right,none,-99,-99,0.5,0,none,39,18,Woman,Right,
18,1,29,5.0159428999995725,x,-99,left,none,-99,-99,0.5,1,none,39,18,Woman,Right,
19,1,29,0.36707449999994424,['n'],0,left,none,-99,-99,0.5,0,none,39,18,Woman,Right,
20,1,29,1.0835377999992488,['c'],0,right,none,-99,-99,0.5,0,none,39,18,Woman,Right,
21,1,29,0.567644200000359,['c'],1,left,none,-99,-99,0.5,0,none,39,18,Woman,Right,
22,1,29,0.30066360000091663,['n'],1,right,none,-99,-99,0.5,0,none,39,18,Woman,Right,
23,1,29,0.4338542999994388,['c'],0,right,none,-99,-99,0.5,0,none,39,18,Woman,Right,
0,1,30,0.5176879000009649,['c'],0,right,none,-99,-99,0.5,0,none,39,18,Woman,Right,
1,1,30,0.30043929999919783,['n'],0,left,none,-99,-99,0.5,0,none,39,18,Woman,Right,
2,1,30,0.3166592000015953,['c'],0,right,none,-99,-99,0.5,0,none,39,18,Woman,Right,
3,1,30,0.40114749999884225,['n'],1,right,none,-99,-99,0.5,0,none,39,18,Woman,Right,
4,1,30,0.4179722999997466,['n'],0,left,none,-99,-99,0.5,0,none,39,18,Woman,Right,
5,1,30,0.3338712000004307,['c'],0,right,none,-99,-99,0.5,0,none,39,18,Woman,Right,
6,1,30,0.3505066000016086,['n'],1,right,none,-99,-99,0.5,0,none,39,18,Woman,Right,
7,1,30,0.45123490000150923,['c'],1,left,none,-99,-99,0.5,0,none,39,18,Woman,Right,
8,1,30,0.30055320000064967,['n'],0,left,none,-99,-99,0.5,0,none,39,18,Woman,Right,
9,1,30,0.40007089999926393,['n'],1,right,none,-99,-99,0.5,0,none,39,18,Woman,Right,
10,1,30,0.5181812999999238,['n'],0,left,none,-99,-99,0.5,0,none,39,18,Woman,Right,
11,1,30,0.2517095999992307,['c'],0,right,none,-99,-99,0.5,0,none,39,18,Woman,Right,
12,1,30,0.3172160999984044,['c'],1,left,none,-99,-99,0.5,0,none,39,18,Woman,Right,
13,1,30,0.39998150000064925,['c'],1,left,none,-99,-99,0.5,0,none,39,18,Woman,Right,
14,1,30,0.3510549999991781,['c'],1,left,none,-99,-99,0.5,0,none,39,18,Woman,Right,
15,1,30,0.6014648999989731,['c'],1,left,none,-99,-99,0.5,0,none,39,18,Woman,Right,
16,1,30,0.6678794999988895,['n'],0,left,none,-99,-99,0.5,0,none,39,18,Woman,Right,
17,1,30,0.3017189000001963,"['n', 'c']",1,right,none,-99,-99,0.5,0,none,39,18,Woman,Right,
18,1,30,0.3174637000010989,['c'],0,right,none,-99,-99,0.5,0,none,39,18,Woman,Right,
19,1,30,0.29950239999925543,"['n', 'c']",0,left,none,-99,-99,0.5,0,none,39,18,Woman,Right,
20,1,30,0.46737990000110585,['n'],1,right,none,-99,-99,0.5,0,none,39,18,Woman,Right,
21,1,30,0.3503708000007464,['c'],0,right,none,-99,-99,0.5,0,none,39,18,Woman,Right,
22,1,30,0.30132920000141894,['n'],0,left,none,-99,-99,0.5,0,none,39,18,Woman,Right,
23,1,30,0.35083010000016657,['n'],1,right,none,-99,-99,0.5,0,none,39,18,Woman,Right,
0,1,31,0.4678511999991315,['n'],1,right,none,-99,-99,0.5,0,none,39,18,Woman,Right,
1,1,31,0.33323790000031295,['c'],1,left,none,-99,-99,0.5,0,none,39,18,Woman,Right,
2,1,31,0.5012488000011217,['c'],1,left,none,-99,-99,0.5,0,none,39,18,Woman,Right,
3,1,31,0.4015786999989359,['c'],1,left,none,-99,-99,0.5,0,none,39,18,Woman,Right,
4,1,31,0.4164701999998215,['n'],1,right,none,-99,-99,0.5,0,none,39,18,Woman,Right,
5,1,31,0.5171382000007725,['c'],0,right,none,-99,-99,0.5,0,none,39,18,Woman,Right,
6,1,31,0.31600260000050184,['n'],1,right,none,-99,-99,0.5,0,none,39,18,Woman,Right,
7,1,31,0.26729899999918416,['n'],0,left,none,-99,-99,0.5,0,none,39,18,Woman,Right,
8,1,31,0.30119699999886507,['c'],0,right,none,-99,-99,0.5,0,none,39,18,Woman,Right,
9,1,31,0.668255999999019,['c'],1,left,none,-99,-99,0.5,0,none,39,18,Woman,Right,
10,1,31,0.749971799999912,['n'],0,left,none,-99,-99,0.5,0,none,39,18,Woman,Right,
11,1,31,0.4171251999996457,['n'],1,right,none,-99,-99,0.5,0,none,39,18,Woman,Right,
12,1,31,0.38389789999928325,['n'],0,left,none,-99,-99,0.5,0,none,39,18,Woman,Right,
13,1,31,0.26743790000000445,['c'],0,right,none,-99,-99,0.5,0,none,39,18,Woman,Right,
14,1,31,0.6000664999992296,['n'],0,left,none,-99,-99,0.5,0,none,39,18,Woman,Right,
15,1,31,0.3014229999989766,['n'],1,right,none,-99,-99,0.5,0,none,39,18,Woman,Right,
16,1,31,0.4340178999991622,['n'],0,left,none,-99,-99,0.5,0,none,39,18,Woman,Right,
17,1,31,0.3171906999996281,['c'],0,right,none,-99,-99,0.5,0,none,39,18,Woman,Right,
18,1,31,0.301236000001154,['n'],1,right,none,-99,-99,0.5,0,none,39,18,Woman,Right,
19,1,31,0.46720619999905466,['n'],1,right,none,-99,-99,0.5,0,none,39,18,Woman,Right,
20,1,31,0.6674282999993011,['n'],0,left,none,-99,-99,0.5,0,none,39,18,Woman,Right,
21,1,31,0.3343105999992986,['c'],1,left,none,-99,-99,0.5,0,none,39,18,Woman,Right,
22,1,31,0.533670599999823,['c'],1,left,none,-99,-99,0.5,0,none,39,18,Woman,Right,
23,1,31,0.7848596000003454,['n'],1,right,none,-99,-99,0.5,0,none,39,18,Woman,Right,
0,1,32,0.5853108999999677,['c'],1,left,none,-99,-99,0.5,0,none,39,18,Woman,Right,
1,1,32,0.36732630000005884,['n'],1,right,none,-99,-99,0.5,0,none,39,18,Woman,Right,
2,1,32,0.4011186000007001,['c'],1,left,none,-99,-99,0.5,0,none,39,18,Woman,Right,
3,1,32,0.350633399999424,['n'],0,left,none,-99,-99,0.5,0,none,39,18,Woman,Right,
4,1,32,0.26710800000000745,['c'],1,left,none,-99,-99,0.5,0,none,39,18,Woman,Right,
5,1,32,0.4015027999994345,['n'],0,left,none,-99,-99,0.5,0,none,39,18,Woman,Right,
6,1,32,0.2675734000004013,['c'],0,right,none,-99,-99,0.5,0,none,39,18,Woman,Right,
7,1,32,0.35133499999938067,['n'],1,right,none,-99,-99,0.5,0,none,39,18,Woman,Right,
8,1,32,0.633913699999539,['c'],0,right,none,-99,-99,0.5,0,none,39,18,Woman,Right,
9,1,32,0.3336142000007385,['c'],0,right,none,-99,-99,0.5,0,none,39,18,Woman,Right,
10,1,32,0.4826448000003438,['c'],1,left,none,-99,-99,0.5,0,none,39,18,Woman,Right,
11,1,32,0.4179468000002089,['n'],0,left,none,-99,-99,0.5,0,none,39,18,Woman,Right,
12,1,32,0.30085540000072797,['c'],1,left,none,-99,-99,0.5,0,none,39,18,Woman,Right,
13,1,32,0.4508437000004051,['c'],0,right,none,-99,-99,0.5,0,none,39,18,Woman,Right,
14,1,32,0.4327245000004041,['c'],0,right,none,-99,-99,0.5,0,none,39,18,Woman,Right,
15,1,32,0.3158577999984118,['n'],1,right,none,-99,-99,0.5,0,none,39,18,Woman,Right,
16,1,32,0.7676830000000336,['n'],1,right,none,-99,-99,0.5,0,none,39,18,Woman,Right,
17,1,32,0.4337878999995155,['c'],0,right,none,-99,-99,0.5,0,none,39,18,Woman,Right,
18,1,32,0.11740250000002561,['n'],0,left,none,-99,-99,0.5,0,none,39,18,Woman,Right,
19,1,32,0.3006354999997711,['c'],1,left,none,-99,-99,0.5,0,none,39,18,Woman,Right,
20,1,32,0.5488949000009598,['c'],1,left,none,-99,-99,0.5,0,none,39,18,Woman,Right,
21,1,32,0.6999352000002546,['c'],0,right,none,-99,-99,0.5,0,none,39,18,Woman,Right,
22,1,32,0.4501270000000659,['c'],1,left,none,-99,-99,0.5,0,none,39,18,Woman,Right,
23,1,32,0.6175390999997035,['n'],1,right,none,-99,-99,0.5,0,none,39,18,Woman,Right,
0,1,33,0.4352619000001141,['c'],1,left,none,-99,-99,0.5,0,none,39,18,Woman,Right,
1,1,33,0.5008794999994279,['n'],1,right,none,-99,-99,0.5,0,none,39,18,Woman,Right,
2,1,33,0.8680096999996749,['n'],1,right,none,-99,-99,0.5,0,none,39,18,Woman,Right,
3,1,33,0.684327500001018,['c'],0,right,none,-99,-99,0.5,0,none,39,18,Woman,Right,
4,1,33,0.2822102999998606,['n'],1,right,none,-99,-99,0.5,0,none,39,18,Woman,Right,
5,1,33,0.3167066000005434,"['n', 'c']",0,left,none,-99,-99,0.5,0,none,39,18,Woman,Right,
6,1,33,0.31695249999938824,['n'],1,right,none,-99,-99,0.5,0,none,39,18,Woman,Right,
7,1,33,0.3675050999991072,['c'],1,left,none,-99,-99,0.5,0,none,39,18,Woman,Right,
8,1,33,0.3503599000014219,['n'],0,left,none,-99,-99,0.5,0,none,39,18,Woman,Right,
9,1,33,0.26658450000104494,['c'],1,left,none,-99,-99,0.5,0,none,39,18,Woman,Right,
10,1,33,0.6348551999999472,['n'],0,left,none,-99,-99,0.5,0,none,39,18,Woman,Right,
11,1,33,0.2839927999993961,['n'],1,right,none,-99,-99,0.5,0,none,39,18,Woman,Right,
12,1,33,0.5348572000002605,['c'],0,right,none,-99,-99,0.5,0,none,39,18,Woman,Right,
13,1,33,0.2840018999995664,['n'],0,left,none,-99,-99,0.5,0,none,39,18,Woman,Right,
14,1,33,0.28400239999973564,['c'],1,left,none,-99,-99,0.5,0,none,39,18,Woman,Right,
15,1,33,0.7156737000004796,['n'],1,right,none,-99,-99,0.5,0,none,39,18,Woman,Right,
16,1,33,0.2842366000004404,['n'],1,right,none,-99,-99,0.5,0,none,39,18,Woman,Right,
17,1,33,0.2826115999996546,['n'],0,left,none,-99,-99,0.5,0,none,39,18,Woman,Right,
18,1,33,0.3340962000002037,['c'],1,left,none,-99,-99,0.5,0,none,39,18,Woman,Right,
19,1,33,0.433531500000754,['c'],1,left,none,-99,-99,0.5,0,none,39,18,Woman,Right,
20,1,33,0.48284180000155175,['n'],0,left,none,-99,-99,0.5,0,none,39,18,Woman,Right,
21,1,33,0.33479239999905985,['c'],0,right,none,-99,-99,0.5,0,none,39,18,Woman,Right,
22,1,33,0.3664819000005082,['n'],1,right,none,-99,-99,0.5,0,none,39,18,Woman,Right,
23,1,33,0.39999470000111614,['c'],0,right,none,-99,-99,0.5,0,none,39,18,Woman,Right,
0,1,34,0.3503693000002386,['n'],0,left,none,-99,-99,0.5,0,none,39,18,Woman,Right,
1,1,34,0.4332052999998268,['n'],0,left,none,-99,-99,0.5,0,none,39,18,Woman,Right,
2,1,34,0.3511015000003681,['n'],1,right,none,-99,-99,0.5,0,none,39,18,Woman,Right,
3,1,34,0.2505658999998559,['n'],1,right,none,-99,-99,0.5,0,none,39,18,Woman,Right,
4,1,34,0.2652465999999549,['n'],1,right,none,-99,-99,0.5,0,none,39,18,Woman,Right,
5,1,34,0.23376350000035018,['n'],1,right,none,-99,-99,0.5,0,none,39,18,Woman,Right,
6,1,34,0.3489095000004454,['n'],0,left,none,-99,-99,0.5,0,none,39,18,Woman,Right,
7,1,34,0.7169004999996105,['n'],0,left,none,-99,-99,0.5,0,none,39,18,Woman,Right,
8,1,34,0.7005538000012166,['c'],1,left,none,-99,-99,0.5,0,none,39,18,Woman,Right,
9,1,34,0.5322398000007524,['n'],1,right,none,-99,-99,0.5,0,none,39,18,Woman,Right,
10,1,34,1.2510385999994469,['n'],0,left,none,-99,-99,0.5,0,none,39,18,Woman,Right,
11,1,34,0.818003200000021,['c'],0,right,none,-99,-99,0.5,0,none,39,18,Woman,Right,
12,1,34,0.6845444999999017,['n'],1,right,none,-99,-99,0.5,0,none,39,18,Woman,Right,
13,1,34,1.1004844999988563,['c'],1,left,none,-99,-99,0.5,0,none,39,18,Woman,Right,
14,1,34,0.40044810000108555,['n'],0,left,none,-99,-99,0.5,0,none,39,18,Woman,Right,
15,1,34,0.33403089999956137,['c'],0,right,none,-99,-99,0.5,0,none,39,18,Woman,Right,
16,1,34,0.016995199999655597,['n'],0,left,none,-99,-99,0.5,0,none,39,18,Woman,Right,
17,1,34,0.4172604000013962,['c'],1,left,none,-99,-99,0.5,0,none,39,18,Woman,Right,
18,1,34,0.65127129999928,['c'],0,right,none,-99,-99,0.5,0,none,39,18,Woman,Right,
19,1,34,0.31721490000018093,['n'],0,left,none,-99,-99,0.5,0,none,39,18,Woman,Right,
20,1,34,0.31704979999994976,['c'],0,right,none,-99,-99,0.5,0,none,39,18,Woman,Right,
21,1,34,0.40079250000053435,['n'],1,right,none,-99,-99,0.5,0,none,39,18,Woman,Right,
22,1,34,0.7845823000006931,['c'],0,right,none,-99,-99,0.5,0,none,39,18,Woman,Right,
23,1,34,0.6173608000008244,['c'],1,left,none,-99,-99,0.5,0,none,39,18,Woman,Right,
0,1,35,0.38366099999984726,['n'],1,right,none,-99,-99,0.5,0,none,39,18,Woman,Right,
1,1,35,0.3511977999987721,['c'],1,left,none,-99,-99,0.5,0,none,39,18,Woman,Right,
2,1,35,0.833930999999211,['n'],1,right,none,-99,-99,0.5,0,none,39,18,Woman,Right,
3,1,35,0.551216600000771,['n'],1,right,none,-99,-99,0.5,0,none,39,18,Woman,Right,
4,1,35,0.6178937000004225,['c'],1,left,none,-99,-99,0.5,0,none,39,18,Woman,Right,
5,1,35,0.3682982999998785,['n'],1,right,none,-99,-99,0.5,0,none,39,18,Woman,Right,
6,1,35,0.733890400000746,['n'],0,left,none,-99,-99,0.5,0,none,39,18,Woman,Right,
7,1,35,0.36658640000132436,['c'],0,right,none,-99,-99,0.5,0,none,39,18,Woman,Right,
8,1,35,0.48417179999887594,['n'],0,left,none,-99,-99,0.5,0,none,39,18,Woman,Right,
9,1,35,0.41703140000026906,['c'],1,left,none,-99,-99,0.5,0,none,39,18,Woman,Right,
10,1,35,0.43477879999954894,['c'],1,left,none,-99,-99,0.5,0,none,39,18,Woman,Right,
11,1,35,0.5849453999999241,['n'],1,right,none,-99,-99,0.5,0,none,39,18,Woman,Right,
12,1,35,0.38359160000072734,['n'],1,right,none,-99,-99,0.5,0,none,39,18,Woman,Right,
13,1,35,0.20102529999894614,['c'],0,right,none,-99,-99,0.5,0,none,39,18,Woman,Right,
14,1,35,0.4174867000001541,['c'],1,left,none,-99,-99,0.5,0,none,39,18,Woman,Right,
15,1,35,1.4181150000003981,['c'],0,right,none,-99,-99,0.5,0,none,39,18,Woman,Right,
16,1,35,0.3662234000003082,"['n', 'c']",1,right,none,-99,-99,0.5,0,none,39,18,Woman,Right,
17,1,35,0.41795880000063335,['c'],1,left,none,-99,-99,0.5,0,none,39,18,Woman,Right,
18,1,35,0.8682459999999992,['n'],0,left,none,-99,-99,0.5,0,none,39,18,Woman,Right,
19,1,35,0.3501154999994469,['c'],0,right,none,-99,-99,0.5,0,none,39,18,Woman,Right,
20,1,35,1.2333035000010568,['c'],0,right,none,-99,-99,0.5,0,none,39,18,Woman,Right,
21,1,35,0.41772840000157885,"['n', 'c']",0,left,none,-99,-99,0.5,0,none,39,18,Woman,Right,
22,1,35,3.500885899999048,['c'],1,left,none,-99,-99,0.5,0,none,39,18,Woman,Right,
23,1,35,0.3672900000001391,['c'],1,left,none,-99,-99,0.5,0,none,39,18,Woman,Right,
0,1,36,0.8509699000005639,['c'],0,right,none,-99,-99,0.5,0,none,39,18,Woman,Right,
1,1,36,0.684662899999239,['n'],1,right,none,-99,-99,0.5,0,none,39,18,Woman,Right,
2,1,36,0.38387299999885727,['c'],1,left,none,-99,-99,0.5,0,none,39,18,Woman,Right,
3,1,36,0.40067160000035074,['n'],0,left,none,-99,-99,0.5,0,none,39,18,Woman,Right,
4,1,36,0.31762849999904574,['c'],1,left,none,-99,-99,0.5,0,none,39,18,Woman,Right,
5,1,36,0.25113989999954356,['n'],1,right,none,-99,-99,0.5,0,none,39,18,Woman,Right,
6,1,36,0.6664524000007077,['n'],1,right,none,-99,-99,0.5,0,none,39,18,Woman,Right,
7,1,36,0.6660881000007066,['n'],0,left,none,-99,-99,0.5,0,none,39,18,Woman,Right,
8,1,36,0.35165609999967273,['n'],0,left,none,-99,-99,0.5,0,none,39,18,Woman,Right,
9,1,36,0.31844749999982014,['n'],0,left,none,-99,-99,0.5,0,none,39,18,Woman,Right,
10,1,36,0.30062439999892376,['c'],0,right,none,-99,-99,0.5,0,none,39,18,Woman,Right,
11,1,36,0.7825296999999409,['n'],1,right,none,-99,-99,0.5,0,none,39,18,Woman,Right,
12,1,36,0.38500170000043,['n'],0,left,none,-99,-99,0.5,0,none,39,18,Woman,Right,
13,1,36,0.30008900000029826,['c'],1,left,none,-99,-99,0.5,0,none,39,18,Woman,Right,
14,1,36,0.5825318999995943,['c'],1,left,none,-99,-99,0.5,0,none,39,18,Woman,Right,
15,1,36,0.45237470000029134,['n'],0,left,none,-99,-99,0.5,0,none,39,18,Woman,Right,
16,1,36,0.6345614999991085,['c'],0,right,none,-99,-99,0.5,0,none,39,18,Woman,Right,
17,1,36,0.750912800000151,['n'],0,left,none,-99,-99,0.5,0,none,39,18,Woman,Right,
18,1,36,0.4152894999988348,['c'],0,right,none,-99,-99,0.5,0,none,39,18,Woman,Right,
19,1,36,0.6999531000001298,['n'],1,right,none,-99,-99,0.5,0,none,39,18,Woman,Right,
20,1,36,1.001541100000395,['n'],1,right,none,-99,-99,0.5,0,none,39,18,Woman,Right,
21,1,36,0.4679712999986805,['c'],0,right,none,-99,-99,0.5,0,none,39,18,Woman,Right,
22,1,36,0.3843649999998888,['n'],1,right,none,-99,-99,0.5,0,none,39,18,Woman,Right,
23,1,36,0.816853500000434,['n'],0,left,none,-99,-99,0.5,0,none,39,18,Woman,Right,
0,1,37,0.467842500000188,['c'],0,right,none,-99,-99,0.5,0,none,39,18,Woman,Right,
1,1,37,0.20057970000016212,['n'],1,right,none,-99,-99,0.5,0,none,39,18,Woman,Right,
2,1,37,0.40131660000042757,['n'],1,right,none,-99,-99,0.5,0,none,39,18,Woman,Right,
3,1,37,0.30119350000131817,['n'],0,left,none,-99,-99,0.5,0,none,39,18,Woman,Right,
4,1,37,0.28409999999894353,['n'],1,right,none,-99,-99,0.5,0,none,39,18,Woman,Right,
5,1,37,0.2672435000004043,['n'],1,right,none,-99,-99,0.5,0,none,39,18,Woman,Right,
6,1,37,0.300572000000102,['c'],0,right,none,-99,-99,0.5,0,none,39,18,Woman,Right,
7,1,37,0.31693170000107784,['n'],0,left,none,-99,-99,0.5,0,none,39,18,Woman,Right,
8,1,37,0.5846040000014909,['c'],0,right,none,-99,-99,0.5,0,none,39,18,Woman,Right,
9,1,37,0.3171330000004673,['n'],1,right,none,-99,-99,0.5,0,none,39,18,Woman,Right,
10,1,37,0.33338630000071134,['n'],0,left,none,-99,-99,0.5,0,none,39,18,Woman,Right,
11,1,37,0.3340707999996084,['c'],1,left,none,-99,-99,0.5,0,none,39,18,Woman,Right,
12,1,37,1.0004864999991696,['n'],0,left,none,-99,-99,0.5,0,none,39,18,Woman,Right,
13,1,37,1.0174460999987787,['n'],0,left,none,-99,-99,0.5,0,none,39,18,Woman,Right,
14,1,37,0.33405039999888686,['c'],1,left,none,-99,-99,0.5,0,none,39,18,Woman,Right,
15,1,37,0.34910799999852316,['n'],1,right,none,-99,-99,0.5,0,none,39,18,Woman,Right,
16,1,37,0.46765700000105426,['c'],0,right,none,-99,-99,0.5,0,none,39,18,Woman,Right,
17,1,37,0.28391929999997956,['n'],0,left,none,-99,-99,0.5,0,none,39,18,Woman,Right,
18,1,37,0.30061819999900763,['c'],0,right,none,-99,-99,0.5,0,none,39,18,Woman,Right,
19,1,37,0.3174261000003753,['n'],0,left,none,-99,-99,0.5,0,none,39,18,Woman,Right,
20,1,37,0.18324410000059288,['c'],0,right,none,-99,-99,0.5,0,none,39,18,Woman,Right,
21,1,37,0.26815220000025874,['n'],0,left,none,-99,-99,0.5,0,none,39,18,Woman,Right,
22,1,37,0.29989800000112155,['n'],0,left,none,-99,-99,0.5,0,none,39,18,Woman,Right,
23,1,37,0.7494348999989597,['n'],0,left,none,-99,-99,0.5,0,none,39,18,Woman,Right,
0,1,38,0.6164035000001604,['n'],1,right,none,-99,-99,0.5,0,none,39,18,Woman,Right,
1,1,38,0.3498046000004251,['n'],0,left,none,-99,-99,0.5,0,none,39,18,Woman,Right,
2,1,38,0.41780040000048757,['n'],0,left,none,-99,-99,0.5,0,none,39,18,Woman,Right,
3,1,38,0.36774180000065826,['n'],0,left,none,-99,-99,0.5,0,none,39,18,Woman,Right,
4,1,38,0.2672799000010855,['c'],0,right,none,-99,-99,0.5,0,none,39,18,Woman,Right,
5,1,38,0.5166477000002487,['n'],1,right,none,-99,-99,0.5,0,none,39,18,Woman,Right,
6,1,38,0.7497315000000526,['c'],1,left,none,-99,-99,0.5,0,none,39,18,Woman,Right,
7,1,38,0.3670164000013756,['c'],0,right,none,-99,-99,0.5,0,none,39,18,Woman,Right,
8,1,38,0.467400199999247,['n'],0,left,none,-99,-99,0.5,0,none,39,18,Woman,Right,
9,1,38,0.3162132000015845,['c'],0,right,none,-99,-99,0.5,0,none,39,18,Woman,Right,
10,1,38,0.3682546000000002,['n'],1,right,none,-99,-99,0.5,0,none,39,18,Woman,Right,
11,1,38,0.2847230000006675,['c'],0,right,none,-99,-99,0.5,0,none,39,18,Woman,Right,
12,1,38,0.3498133000011876,['n'],1,right,none,-99,-99,0.5,0,none,39,18,Woman,Right,
13,1,38,0.36675239999931364,['c'],1,left,none,-99,-99,0.5,0,none,39,18,Woman,Right,
14,1,38,0.31730289999904926,['n'],0,left,none,-99,-99,0.5,0,none,39,18,Woman,Right,
15,1,38,0.2347347000013542,['c'],0,right,none,-99,-99,0.5,0,none,39,18,Woman,Right,
16,1,38,0.31650079999963054,['n'],0,left,none,-99,-99,0.5,0,none,39,18,Woman,Right,
17,1,38,0.3005559000011999,['c'],0,right,none,-99,-99,0.5,0,none,39,18,Woman,Right,
18,1,38,1.4010362000008172,['n'],1,right,none,-99,-99,0.5,0,none,39,18,Woman,Right,
19,1,38,2.70095339999898,['n'],1,right,none,-99,-99,0.5,0,none,39,18,Woman,Right,
20,1,38,1.984516700000313,['c'],1,left,none,-99,-99,0.5,0,none,39,18,Woman,Right,
21,1,38,0.7512965999994776,['c'],1,left,none,-99,-99,0.5,0,none,39,18,Woman,Right,
22,1,38,0.46633289999954286,['n'],0,left,none,-99,-99,0.5,0,none,39,18,Woman,Right,
23,1,38,1.0843329999988782,['n'],0,left,none,-99,-99,0.5,0,none,39,18,Woman,Right,
0,1,39,2.534412400000292,['n'],1,right,none,-99,-99,0.5,0,none,39,18,Woman,Right,
1,1,39,0.5840162999993481,['c'],1,left,none,-99,-99,0.5,0,none,39,18,Woman,Right,
2,1,39,0.350105600000461,['n'],1,right,none,-99,-99,0.5,0,none,39,18,Woman,Right,
3,1,39,0.33334970000032627,['n'],0,left,none,-99,-99,0.5,0,none,39,18,Woman,Right,
4,1,39,0.33332619999964663,['c'],1,left,none,-99,-99,0.5,0,none,39,18,Woman,Right,
5,1,39,0.3332070000014937,['n'],0,left,none,-99,-99,0.5,0,none,39,18,Woman,Right,
6,1,39,0.4656838999999309,['c'],1,left,none,-99,-99,0.5,0,none,39,18,Woman,Right,
7,1,39,2.3672229000003426,['c'],0,right,none,-99,-99,0.5,0,none,39,18,Woman,Right,
8,1,39,0.7005970999998681,['n'],0,left,none,-99,-99,0.5,0,none,39,18,Woman,Right,
9,1,39,0.5002581999997346,['n'],0,left,none,-99,-99,0.5,0,none,39,18,Woman,Right,
10,1,39,2.200855599998249,['n'],0,left,none,-99,-99,0.5,0,none,39,18,Woman,Right,
11,1,39,1.0671646000009787,['c'],0,right,none,-99,-99,0.5,0,none,39,18,Woman,Right,
12,1,39,1.2498176000008243,['n'],0,left,none,-99,-99,0.5,0,none,39,18,Woman,Right,
13,1,39,0.5334559999992052,['c'],0,right,none,-99,-99,0.5,0,none,39,18,Woman,Right,
14,1,39,0.4008252999992692,['n'],0,left,none,-99,-99,0.5,0,none,39,18,Woman,Right,
15,1,39,0.4674833999997645,['c'],0,right,none,-99,-99,0.5,0,none,39,18,Woman,Right,
16,1,39,0.35079399999995076,['n'],0,left,none,-99,-99,0.5,0,none,39,18,Woman,Right,
17,1,39,0.28496160000031523,['c'],0,right,none,-99,-99,0.5,0,none,39,18,Woman,Right,
18,1,39,0.3840669999990496,['n'],1,right,none,-99,-99,0.5,0,none,39,18,Woman,Right,
19,1,39,0.44918109999889566,['c'],1,left,none,-99,-99,0.5,0,none,39,18,Woman,Right,
20,1,39,1.8004864000013185,['c'],0,right,none,-99,-99,0.5,0,none,39,18,Woman,Right,
21,1,39,0.30075359999864304,['n'],1,right,none,-99,-99,0.5,0,none,39,18,Woman,Right,
22,1,39,0.3490810000002966,['n'],1,right,none,-99,-99,0.5,0,none,39,18,Woman,Right,
23,1,39,1.83423380000022,['c'],0,right,none,-99,-99,0.5,0,none,39,18,Woman,Right,
0,1,40,0.434630499999912,['n'],0,left,none,-99,-99,0.5,0,none,39,18,Woman,Right,
1,1,40,0.3179006999998819,['n'],1,right,none,-99,-99,0.5,0,none,39,18,Woman,Right,
2,1,40,2.934406200000012,['n'],1,right,none,-99,-99,0.5,0,none,39,18,Woman,Right,
3,1,40,0.41455689999929746,['c'],1,left,none,-99,-99,0.5,0,none,39,18,Woman,Right,
4,1,40,0.28439029999935883,['n'],0,left,none,-99,-99,0.5,0,none,39,18,Woman,Right,
5,1,40,0.3505507999998372,['n'],1,right,none,-99,-99,0.5,0,none,39,18,Woman,Right,
6,1,40,0.38474889999997686,['c'],1,left,none,-99,-99,0.5,0,none,39,18,Woman,Right,
7,1,40,0.8989148000000569,['c'],1,left,none,-99,-99,0.5,0,none,39,18,Woman,Right,
8,1,40,0.3182111999994959,['n'],0,left,none,-99,-99,0.5,0,none,39,18,Woman,Right,
9,1,40,2.434053099999801,['c'],0,right,none,-99,-99,0.5,0,none,39,18,Woman,Right,
10,1,40,0.5009135000000242,['n'],1,right,none,-99,-99,0.5,0,none,39,18,Woman,Right,
11,1,40,1.9842955000003712,['n'],1,right,none,-99,-99,0.5,0,none,39,18,Woman,Right,
12,1,40,3.432280899998659,['c'],0,right,none,-99,-99,0.5,0,none,39,18,Woman,Right,
13,1,40,0.41794389999995474,['n'],0,left,none,-99,-99,0.5,0,none,39,18,Woman,Right,
14,1,40,0.6010035999988759,['c'],1,left,none,-99,-99,0.5,0,none,39,18,Woman,Right,
15,1,40,0.4665313999994396,['c'],0,right,none,-99,-99,0.5,0,none,39,18,Woman,Right,
16,1,40,0.45056750000003376,['n'],0,left,none,-99,-99,0.5,0,none,39,18,Woman,Right,
17,1,40,0.5988668999998481,['n'],0,left,none,-99,-99,0.5,0,none,39,18,Woman,Right,
18,1,40,0.351930299999367,['n'],0,left,none,-99,-99,0.5,0,none,39,18,Woman,Right,
19,1,40,0.8170346999995672,['c'],0,right,none,-99,-99,0.5,0,none,39,18,Woman,Right,
20,1,40,0.31729059999997844,['n'],1,right,none,-99,-99,0.5,0,none,39,18,Woman,Right,
21,1,40,0.3162408999996842,['c'],0,right,none,-99,-99,0.5,0,none,39,18,Woman,Right,
22,1,40,0.3003082999985054,['n'],0,left,none,-99,-99,0.5,0,none,39,18,Woman,Right,
23,1,40,0.23428440000134287,['n'],1,right,none,-99,-99,0.5,0,none,39,18,Woman,Right,
0,1,41,0.44981469999947876,['c'],0,right,none,-99,-99,0.5,0,none,39,18,Woman,Right,
1,1,41,0.23442290000093635,['n'],0,left,none,-99,-99,0.5,0,none,39,18,Woman,Right,
2,1,41,0.283637099999396,['c'],0,right,none,-99,-99,0.5,0,none,39,18,Woman,Right,
3,1,41,0.3501594000008481,['c'],0,right,none,-99,-99,0.5,0,none,39,18,Woman,Right,
4,1,41,0.3512580999995407,['c'],1,left,none,-99,-99,0.5,0,none,39,18,Woman,Right,
5,1,41,1.2664339000002656,['c'],0,right,none,-99,-99,0.5,0,none,39,18,Woman,Right,
6,1,41,0.43360980000034033,['c'],0,right,none,-99,-99,0.5,0,none,39,18,Woman,Right,
7,1,41,1.3178958000007697,['c'],1,left,none,-99,-99,0.5,0,none,39,18,Woman,Right,
8,1,41,1.1680656999997154,['c'],0,right,none,-99,-99,0.5,0,none,39,18,Woman,Right,
9,1,41,1.000069000001531,['c'],1,left,none,-99,-99,0.5,0,none,39,18,Woman,Right,
10,1,41,0.4992473999991489,['n'],0,left,none,-99,-99,0.5,0,none,39,18,Woman,Right,
11,1,41,0.33456420000038634,['n'],0,left,none,-99,-99,0.5,0,none,39,18,Woman,Right,
12,1,41,0.3019117000003462,['c'],0,right,none,-99,-99,0.5,0,none,39,18,Woman,Right,
13,1,41,0.7008239999995567,['c'],1,left,none,-99,-99,0.5,0,none,39,18,Woman,Right,
14,1,41,0.7346467000006669,['c'],1,left,none,-99,-99,0.5,0,none,39,18,Woman,Right,
15,1,41,0.633319800001118,['c'],1,left,none,-99,-99,0.5,0,none,39,18,Woman,Right,
16,1,41,0.3840732000007847,['c'],0,right,none,-99,-99,0.5,0,none,39,18,Woman,Right,
17,1,41,0.883785900001385,['n'],1,right,none,-99,-99,0.5,0,none,39,18,Woman,Right,
18,1,41,3.8505255000000034,['n'],0,left,none,-99,-99,0.5,0,none,39,18,Woman,Right,
19,1,41,0.6515036999990116,['c'],0,right,none,-99,-99,0.5,0,none,39,18,Woman,Right,
20,1,41,0.6840044000000489,['n'],1,right,none,-99,-99,0.5,0,none,39,18,Woman,Right,
21,1,41,1.2846909999989293,['c'],1,left,none,-99,-99,0.5,0,none,39,18,Woman,Right,
22,1,41,0.33265320000100473,['n'],1,right,none,-99,-99,0.5,0,none,39,18,Woman,Right,
23,1,41,0.6515350000008766,['n'],0,left,none,-99,-99,0.5,0,none,39,18,Woman,Right,
0,1,42,0.4510034999984782,['n'],1,right,none,-99,-99,0.5,0,none,39,18,Woman,Right,
1,1,42,0.20096749999902386,['n'],0,left,none,-99,-99,0.5,0,none,39,18,Woman,Right,
2,1,42,0.5179293000001053,['n'],1,right,none,-99,-99,0.5,0,none,39,18,Woman,Right,
3,1,42,0.38335729999926116,['n'],0,left,none,-99,-99,0.5,0,none,39,18,Woman,Right,
4,1,42,0.30062480000015057,['n'],1,right,none,-99,-99,0.5,0,none,39,18,Woman,Right,
5,1,42,0.33461370000077295,['n'],1,right,none,-99,-99,0.5,0,none,39,18,Woman,Right,
6,1,42,0.30058589999862306,['n'],1,right,none,-99,-99,0.5,0,none,39,18,Woman,Right,
7,1,42,0.4498468000001594,['c'],0,right,none,-99,-99,0.5,0,none,39,18,Woman,Right,
8,1,42,0.20032400000127382,['c'],0,right,none,-99,-99,0.5,0,none,39,18,Woman,Right,
9,1,42,0.25036720000025525,['n'],1,right,none,-99,-99,0.5,0,none,39,18,Woman,Right,
10,1,42,0.35079120000045805,['n'],0,left,none,-99,-99,0.5,0,none,39,18,Woman,Right,
11,1,42,0.3338480000002164,['c'],1,left,none,-99,-99,0.5,0,none,39,18,Woman,Right,
12,1,42,0.4340210999998817,['c'],1,left,none,-99,-99,0.5,0,none,39,18,Woman,Right,
13,1,42,0.3360609999999724,['n'],1,right,none,-99,-99,0.5,0,none,39,18,Woman,Right,
14,1,42,0.26692300000104296,['n'],1,right,none,-99,-99,0.5,0,none,39,18,Woman,Right,
15,1,42,0.6339031999996223,['n'],0,left,none,-99,-99,0.5,0,none,39,18,Woman,Right,
16,1,42,0.3186751000012009,['c'],1,left,none,-99,-99,0.5,0,none,39,18,Woman,Right,
17,1,42,0.29999560000032943,['n'],0,left,none,-99,-99,0.5,0,none,39,18,Woman,Right,
18,1,42,0.3509330000015325,['n'],0,left,none,-99,-99,0.5,0,none,39,18,Woman,Right,
19,1,42,0.10014410000076168,['n'],1,right,none,-99,-99,0.5,0,none,39,18,Woman,Right,
20,1,42,0.40101639999920735,['n'],1,right,none,-99,-99,0.5,0,none,39,18,Woman,Right,
21,1,42,0.38469549999899755,['n'],0,left,none,-99,-99,0.5,0,none,39,18,Woman,Right,
22,1,42,0.45072979999895324,['n'],0,left,none,-99,-99,0.5,0,none,39,18,Woman,Right,
23,1,42,0.4512171999995189,['n'],0,left,none,-99,-99,0.5,0,none,39,18,Woman,Right,
0,1,43,0.5014069999997446,['n'],1,right,none,-99,-99,0.5,0,none,39,18,Woman,Right,
1,1,43,0.28456290000031004,['c'],0,right,none,-99,-99,0.5,0,none,39,18,Woman,Right,
2,1,43,0.3329429000004893,['n'],0,left,none,-99,-99,0.5,0,none,39,18,Woman,Right,
3,1,43,0.31598809999923105,['c'],1,left,none,-99,-99,0.5,0,none,39,18,Woman,Right,
4,1,43,0.5684901000004174,['n'],0,left,none,-99,-99,0.5,0,none,39,18,Woman,Right,
5,1,43,0.4678180999999313,['n'],0,left,none,-99,-99,0.5,0,none,39,18,Woman,Right,
6,1,43,0.26748659999975644,['n'],1,right,none,-99,-99,0.5,0,none,39,18,Woman,Right,
7,1,43,0.2828539999991335,['n'],1,right,none,-99,-99,0.5,0,none,39,18,Woman,Right,
8,1,43,0.3004246000000421,['n'],0,left,none,-99,-99,0.5,0,none,39,18,Woman,Right,
9,1,43,0.3016119999992952,['n'],1,right,none,-99,-99,0.5,0,none,39,18,Woman,Right,
10,1,43,0.31721070000094187,['n'],0,left,none,-99,-99,0.5,0,none,39,18,Woman,Right,
11,1,43,0.5339984000002005,['n'],1,right,none,-99,-99,0.5,0,none,39,18,Woman,Right,
12,1,43,0.5173770000001241,['n'],1,right,none,-99,-99,0.5,0,none,39,18,Woman,Right,
13,1,43,0.3006879000004119,['n'],0,left,none,-99,-99,0.5,0,none,39,18,Woman,Right,
14,1,43,2.334720999999263,['n'],1,right,none,-99,-99,0.5,0,none,39,18,Woman,Right,
15,1,43,0.9998350000005303,['c'],1,left,none,-99,-99,0.5,0,none,39,18,Woman,Right,
16,1,43,0.6843700999997964,['c'],0,right,none,-99,-99,0.5,0,none,39,18,Woman,Right,
17,1,43,2.5831981000010273,['n'],1,right,none,-99,-99,0.5,0,none,39,18,Woman,Right,
18,1,43,0.6848567999986699,['n'],0,left,none,-99,-99,0.5,0,none,39,18,Woman,Right,
19,1,43,0.38362839999899734,['n'],1,right,none,-99,-99,0.5,0,none,39,18,Woman,Right,
20,1,43,0.6013449000001856,['c'],1,left,none,-99,-99,0.5,0,none,39,18,Woman,Right,
21,1,43,0.9164571999990585,['n'],0,left,none,-99,-99,0.5,0,none,39,18,Woman,Right,
22,1,43,0.450125700001081,['c'],1,left,none,-99,-99,0.5,0,none,39,18,Woman,Right,
23,1,43,0.41627129999869794,['n'],1,right,none,-99,-99,0.5,0,none,39,18,Woman,Right,
0,1,44,0.701158599998962,['c'],1,left,none,-99,-99,0.5,0,none,39,18,Woman,Right,
1,1,44,0.3513755999993009,['n'],0,left,none,-99,-99,0.5,0,none,39,18,Woman,Right,
2,1,44,0.032480399999258225,['c'],0,right,none,-99,-99,0.5,0,none,39,18,Woman,Right,
3,1,44,0.21825869999884162,['n'],1,right,none,-99,-99,0.5,0,none,39,18,Woman,Right,
4,1,44,0.4339472999999998,['c'],1,left,none,-99,-99,0.5,0,none,39,18,Woman,Right,
5,1,44,0.10122150000097463,['n'],1,right,none,-99,-99,0.5,0,none,39,18,Woman,Right,
6,1,44,0.1684666000001016,['n'],0,left,none,-99,-99,0.5,0,none,39,18,Woman,Right,
7,1,44,0.2175676000006206,['n'],1,right,none,-99,-99,0.5,0,none,39,18,Woman,Right,
8,1,44,0.11788169999999809,['c'],0,right,none,-99,-99,0.5,0,none,39,18,Woman,Right,
9,1,44,0.3840612999993027,['c'],1,left,none,-99,-99,0.5,0,none,39,18,Woman,Right,
10,1,44,0.21711560000039754,['c'],1,left,none,-99,-99,0.5,0,none,39,18,Woman,Right,
11,1,44,0.23369999999886204,['c'],1,left,none,-99,-99,0.5,0,none,39,18,Woman,Right,
12,1,44,0.2678977000014129,['n'],1,right,none,-99,-99,0.5,0,none,39,18,Woman,Right,
13,1,44,0.2657127999991644,['n'],0,left,none,-99,-99,0.5,0,none,39,18,Woman,Right,
14,1,44,1.3497209999986808,['c'],0,right,none,-99,-99,0.5,0,none,39,18,Woman,Right,
15,1,44,0.31735090000074706,['n'],1,right,none,-99,-99,0.5,0,none,39,18,Woman,Right,
16,1,44,0.29950689999895985,['c'],1,left,none,-99,-99,0.5,0,none,39,18,Woman,Right,
17,1,44,0.28469399999994494,['n'],1,right,none,-99,-99,0.5,0,none,39,18,Woman,Right,
18,1,44,1.2666742999990674,['n'],1,right,none,-99,-99,0.5,0,none,39,18,Woman,Right,
19,1,44,0.4859225999989576,['c'],0,right,none,-99,-99,0.5,0,none,39,18,Woman,Right,
20,1,44,0.3333925000006275,['n'],0,left,none,-99,-99,0.5,0,none,39,18,Woman,Right,
21,1,44,0.31771740000112914,['c'],1,left,none,-99,-99,0.5,0,none,39,18,Woman,Right,
22,1,44,0.4842515000000276,['n'],0,left,none,-99,-99,0.5,0,none,39,18,Woman,Right,
23,1,44,0.4337057000011555,['c'],0,right,none,-99,-99,0.5,0,none,39,18,Woman,Right,
0,1,45,0.5497853000015311,['c'],0,right,none,-99,-99,0.5,0,none,39,18,Woman,Right,
1,1,45,0.46733209999911196,['n'],0,left,none,-99,-99,0.5,0,none,39,18,Woman,Right,
2,1,45,0.4178853000012168,['c'],0,right,none,-99,-99,0.5,0,none,39,18,Woman,Right,
3,1,45,0.9482496999989962,['n'],1,right,none,-99,-99,0.5,0,none,39,18,Woman,Right,
4,1,45,0.4678249999997206,['n'],1,right,none,-99,-99,0.5,0,none,39,18,Woman,Right,
5,1,45,0.5509681000003184,['c'],0,right,none,-99,-99,0.5,0,none,39,18,Woman,Right,
6,1,45,0.25061160000041127,['n'],0,left,none,-99,-99,0.5,0,none,39,18,Woman,Right,
7,1,45,4.0492763000002014,['c'],1,left,none,-99,-99,0.5,0,none,39,18,Woman,Right,
8,1,45,0.31672359999902255,['n'],1,right,none,-99,-99,0.5,0,none,39,18,Woman,Right,
9,1,45,0.4350224000008893,['n'],0,left,none,-99,-99,0.5,0,none,39,18,Woman,Right,
10,1,45,0.9839303999997355,['c'],1,left,none,-99,-99,0.5,0,none,39,18,Woman,Right,
11,1,45,0.5504056000008859,['n'],1,right,none,-99,-99,0.5,0,none,39,18,Woman,Right,
12,1,45,0.2995880999988003,['n'],0,left,none,-99,-99,0.5,0,none,39,18,Woman,Right,
13,1,45,0.5179052000003139,['c'],1,left,none,-99,-99,0.5,0,none,39,18,Woman,Right,
14,1,45,0.5508162999994966,['c'],1,left,none,-99,-99,0.5,0,none,39,18,Woman,Right,
15,1,45,0.26622689999931026,['n'],0,left,none,-99,-99,0.5,0,none,39,18,Woman,Right,
16,1,45,0.26675260000047274,['n'],1,right,none,-99,-99,0.5,0,none,39,18,Woman,Right,
17,1,45,0.35020169999916106,['n'],1,right,none,-99,-99,0.5,0,none,39,18,Woman,Right,
18,1,45,0.3325151000008191,['n'],1,right,none,-99,-99,0.5,0,none,39,18,Woman,Right,
19,1,45,0.583744100000331,['n'],0,left,none,-99,-99,0.5,0,none,39,18,Woman,Right,
20,1,45,0.5513234000009106,['n'],0,left,none,-99,-99,0.5,0,none,39,18,Woman,Right,
21,1,45,0.4839007999999012,['c'],1,left,none,-99,-99,0.5,0,none,39,18,Woman,Right,
22,1,45,0.30041700000037963,['n'],1,right,none,-99,-99,0.5,0,none,39,18,Woman,Right,
23,1,45,0.33421879999878,['c'],0,right,none,-99,-99,0.5,0,none,39,18,Woman,Right,
0,1,46,0.35070749999977124,['n'],1,right,none,-99,-99,0.5,0,none,39,18,Woman,Right,
1,1,46,0.35095969999929366,['n'],1,right,none,-99,-99,0.5,0,none,39,18,Woman,Right,
2,1,46,0.31599670000105107,['n'],0,left,none,-99,-99,0.5,0,none,39,18,Woman,Right,
3,1,46,0.26755820000107633,['c'],0,right,none,-99,-99,0.5,0,none,39,18,Woman,Right,
4,1,46,0.26775330000054964,['n'],0,left,none,-99,-99,0.5,0,none,39,18,Woman,Right,
5,1,46,0.49939719999929366,['n'],1,right,none,-99,-99,0.5,0,none,39,18,Woman,Right,
6,1,46,0.4986127000011038,['n'],1,right,none,-99,-99,0.5,0,none,39,18,Woman,Right,
7,1,46,0.551310700000613,['n'],1,right,none,-99,-99,0.5,0,none,39,18,Woman,Right,
8,1,46,4.133731899999475,['n'],1,right,none,-99,-99,0.5,0,none,39,18,Woman,Right,
9,1,46,0.5344448000014381,['c'],0,right,none,-99,-99,0.5,0,none,39,18,Woman,Right,
10,1,46,0.3007158000000345,['n'],0,left,none,-99,-99,0.5,0,none,39,18,Woman,Right,
11,1,46,0.46817730000111624,['c'],0,right,none,-99,-99,0.5,0,none,39,18,Woman,Right,
12,1,46,0.26581420000002254,['n'],0,left,none,-99,-99,0.5,0,none,39,18,Woman,Right,
13,1,46,0.21760290000020177,['n'],0,left,none,-99,-99,0.5,0,none,39,18,Woman,Right,
14,1,46,0.30023029999938444,['n'],1,right,none,-99,-99,0.5,0,none,39,18,Woman,Right,
15,1,46,0.4168343000001187,['n'],0,left,none,-99,-99,0.5,0,none,39,18,Woman,Right,
16,1,46,0.5006794000000809,['n'],0,left,none,-99,-99,0.5,0,none,39,18,Woman,Right,
17,1,46,0.3496089000000211,['n'],0,left,none,-99,-99,0.5,0,none,39,18,Woman,Right,
18,1,46,0.1165885000009439,['c'],1,left,none,-99,-99,0.5,0,none,39,18,Woman,Right,
19,1,46,0.6496208000007755,['n'],0,left,none,-99,-99,0.5,0,none,39,18,Woman,Right,
20,1,46,0.018098200000167708,['n'],0,left,none,-99,-99,0.5,0,none,39,18,Woman,Right,
21,1,46,0.3845621000000392,['c'],0,right,none,-99,-99,0.5,0,none,39,18,Woman,Right,
22,1,46,0.5509597999989637,['n'],0,left,none,-99,-99,0.5,0,none,39,18,Woman,Right,
23,1,46,0.7677280999996583,['c'],0,right,none,-99,-99,0.5,0,none,39,18,Woman,Right,
0,1,47,0.7831874000003154,['n'],0,left,none,-99,-99,0.5,0,none,39,18,Woman,Right,
1,1,47,0.2509229999996023,['n'],0,left,none,-99,-99,0.5,0,none,39,18,Woman,Right,
2,1,47,0.26754320000145526,['n'],0,left,none,-99,-99,0.5,0,none,39,18,Woman,Right,
3,1,47,0.3324403999995411,['n'],0,left,none,-99,-99,0.5,0,none,39,18,Woman,Right,
4,1,47,0.24899680000089575,['n'],0,left,none,-99,-99,0.5,0,none,39,18,Woman,Right,
5,1,47,0.41854849999981525,['n'],0,left,none,-99,-99,0.5,0,none,39,18,Woman,Right,
6,1,47,0.4997917000000598,['n'],0,left,none,-99,-99,0.5,0,none,39,18,Woman,Right,
7,1,47,0.3331677000005584,['n'],1,right,none,-99,-99,0.5,0,none,39,18,Woman,Right,
8,1,47,0.2844781999992847,['n'],1,right,none,-99,-99,0.5,0,none,39,18,Woman,Right,
9,1,47,0.7005112000006193,['n'],1,right,none,-99,-99,0.5,0,none,39,18,Woman,Right,
10,1,47,0.9167972000013833,['n'],1,right,none,-99,-99,0.5,0,none,39,18,Woman,Right,
11,1,47,0.4345969000005425,['c'],1,left,none,-99,-99,0.5,0,none,39,18,Woman,Right,
12,1,47,0.8505113999999594,['n'],0,left,none,-99,-99,0.5,0,none,39,18,Woman,Right,
13,1,47,0.48272999999971944,['c'],0,right,none,-99,-99,0.5,0,none,39,18,Woman,Right,
14,1,47,0.3504372000006697,['n'],1,right,none,-99,-99,0.5,0,none,39,18,Woman,Right,
15,1,47,0.5506356000005326,['n'],0,left,none,-99,-99,0.5,0,none,39,18,Woman,Right,
16,1,47,0.2845022000001336,['c'],0,right,none,-99,-99,0.5,0,none,39,18,Woman,Right,
17,1,47,0.28389440000137256,['n'],1,right,none,-99,-99,0.5,0,none,39,18,Woman,Right,
18,1,47,0.21830369999952381,['n'],0,left,none,-99,-99,0.5,0,none,39,18,Woman,Right,
19,1,47,0.2505927000001975,['c'],0,right,none,-99,-99,0.5,0,none,39,18,Woman,Right,
20,1,47,0.2672844000007899,['n'],1,right,none,-99,-99,0.5,0,none,39,18,Woman,Right,
21,1,47,0.36603180000020075,['n'],1,right,none,-99,-99,0.5,0,none,39,18,Woman,Right,
22,1,47,0.4012025000010908,['n'],0,left,none,-99,-99,0.5,0,none,39,18,Woman,Right,
23,1,47,0.30128359999980603,['c'],0,right,none,-99,-99,0.5,0,none,39,18,Woman,Right,
0,1,48,0.4513095999991492,['n'],1,right,none,-99,-99,0.5,0,none,39,18,Woman,Right,
1,1,48,0.28315119999933813,['c'],1,left,none,-99,-99,0.5,0,none,39,18,Woman,Right,
2,1,48,0.31763409999985015,['n'],0,left,none,-99,-99,0.5,0,none,39,18,Woman,Right,
3,1,48,0.5512033999984851,['n'],0,left,none,-99,-99,0.5,0,none,39,18,Woman,Right,
4,1,48,0.8185573000009754,['c'],0,right,none,-99,-99,0.5,0,none,39,18,Woman,Right,
5,1,48,0.5334518000017852,['n'],1,right,none,-99,-99,0.5,0,none,39,18,Woman,Right,
6,1,48,0.35082560000046215,['n'],1,right,none,-99,-99,0.5,0,none,39,18,Woman,Right,
7,1,48,0.3170064000005368,['n'],1,right,none,-99,-99,0.5,0,none,39,18,Woman,Right,
8,1,48,0.35115790000054403,['n'],0,left,none,-99,-99,0.5,0,none,39,18,Woman,Right,
9,1,48,0.4171150000001944,['c'],0,right,none,-99,-99,0.5,0,none,39,18,Woman,Right,
10,1,48,0.5006495000016002,['n'],0,left,none,-99,-99,0.5,0,none,39,18,Woman,Right,
11,1,48,0.5009828000002017,['c'],0,right,none,-99,-99,0.5,0,none,39,18,Woman,Right,
12,1,48,0.31758629999967525,['n'],0,left,none,-99,-99,0.5,0,none,39,18,Woman,Right,
13,1,48,0.3662602999993396,['n'],0,left,none,-99,-99,0.5,0,none,39,18,Woman,Right,
14,1,48,0.4013364000002184,['n'],1,right,none,-99,-99,0.5,0,none,39,18,Woman,Right,
15,1,48,1.1507585999988805,['n'],1,right,none,-99,-99,0.5,0,none,39,18,Woman,Right,
16,1,48,0.400757600000361,['c'],1,left,none,-99,-99,0.5,0,none,39,18,Woman,Right,
17,1,48,0.5176580000006652,['c'],1,left,none,-99,-99,0.5,0,none,39,18,Woman,Right,
