withinblocktrial,block,block_repetition,rt,resp,cor,cresp,conf_press,cj,rtconf,coherence,slow_trial,manipulation,sub,age,gender,handedness,
0,1,1,5.000187900001038,x,-99,left,none,-99,-99,0.5,1,none,40,18,Woman,Right,
1,1,1,1.1505880999993678,['n'],1,right,none,-99,-99,0.5,0,none,40,18,Woman,Right,
2,1,1,1.0334963999994216,['n'],1,right,none,-99,-99,0.5,0,none,40,18,Woman,Right,
3,1,1,0.5669698999990942,['c'],1,left,none,-99,-99,0.5,0,none,40,18,Woman,Right,
4,1,1,0.9497128000002704,['c'],1,left,none,-99,-99,0.5,0,none,40,18,Woman,Right,
5,1,1,0.7326284999999189,['c'],0,right,none,-99,-99,0.5,0,none,40,18,Woman,Right,
6,1,1,0.9345262000006187,['c'],1,left,none,-99,-99,0.5,0,none,40,18,Woman,Right,
7,1,1,0.5500433999986853,['n'],1,right,none,-99,-99,0.5,0,none,40,18,Woman,Right,
8,1,1,0.6838369000015518,['c'],1,left,none,-99,-99,0.5,0,none,40,18,Woman,Right,
9,1,1,0.6673640999997588,['c'],0,right,none,-99,-99,0.5,0,none,40,18,Woman,Right,
10,1,1,0.7837271999997029,['c'],1,left,none,-99,-99,0.5,0,none,40,18,Woman,Right,
11,1,1,0.7171307999997225,['n'],1,right,none,-99,-99,0.5,0,none,40,18,Woman,Right,
12,1,1,1.2153981999999814,['c'],1,left,none,-99,-99,0.5,0,none,40,18,Woman,Right,
13,1,1,0.48341230000005453,['n'],1,right,none,-99,-99,0.5,0,none,40,18,Woman,Right,
14,1,1,0.700171099999352,['c'],1,left,none,-99,-99,0.5,0,none,40,18,Woman,Right,
15,1,1,0.7504124999995838,['n'],1,right,none,-99,-99,0.5,0,none,40,18,Woman,Right,
16,1,1,0.5502063000003545,['c'],1,left,none,-99,-99,0.5,0,none,40,18,Woman,Right,
17,1,1,0.7171703000003617,['c'],1,left,none,-99,-99,0.5,0,none,40,18,Woman,Right,
18,1,1,0.5168078999995487,['c'],1,left,none,-99,-99,0.5,0,none,40,18,Woman,Right,
19,1,1,0.8000871999993251,['n'],1,right,none,-99,-99,0.5,0,none,40,18,Woman,Right,
20,1,1,0.5507545999989816,['c'],1,left,none,-99,-99,0.5,0,none,40,18,Woman,Right,
21,1,1,0.6835453000003326,['n'],1,right,none,-99,-99,0.5,0,none,40,18,Woman,Right,
22,1,1,0.6332089999996242,['n'],1,right,none,-99,-99,0.5,0,none,40,18,Woman,Right,
23,1,1,0.8007675999997446,['n'],1,right,none,-99,-99,0.5,0,none,40,18,Woman,Right,
0,2,1,0.6504963999996107,['c'],1,left,none,-99,-99,0.4,0,none,40,18,Woman,Right,
1,2,1,0.6168772000000899,['c'],0,right,none,-99,-99,0.1,0,none,40,18,Woman,Right,
2,2,1,0.8340088999993895,['c'],1,left,none,-99,-99,0.4,0,none,40,18,Woman,Right,
3,2,1,0.7000105999995867,['n'],1,right,none,-99,-99,0.1,0,none,40,18,Woman,Right,
4,2,1,0.5507254999993165,['c'],1,left,none,-99,-99,0.2,0,none,40,18,Woman,Right,
5,2,1,0.617161500000293,['n'],1,right,none,-99,-99,0.2,0,none,40,18,Woman,Right,
6,2,1,0.516670900000463,['c'],1,left,none,-99,-99,0.4,0,none,40,18,Woman,Right,
7,2,1,0.7667831999988266,['c'],0,right,none,-99,-99,0.4,0,none,40,18,Woman,Right,
8,2,1,0.6003256000003603,['c'],0,right,none,-99,-99,0.2,0,none,40,18,Woman,Right,
9,2,1,0.6000192000010429,['c'],1,left,none,-99,-99,0.1,0,none,40,18,Woman,Right,
10,2,1,0.5339268000006996,['n'],0,left,none,-99,-99,0.2,0,none,40,18,Woman,Right,
11,2,1,0.5163642000006803,['c'],1,left,none,-99,-99,0.1,0,none,40,18,Woman,Right,
12,2,1,0.5658856000009109,['c'],1,left,none,-99,-99,0.4,0,none,40,18,Woman,Right,
13,2,1,0.5508188999992853,['c'],0,right,none,-99,-99,0.2,0,none,40,18,Woman,Right,
14,2,1,0.9174820000007458,['c'],1,left,none,-99,-99,0.1,0,none,40,18,Woman,Right,
15,2,1,0.5834054999995715,['n'],1,right,none,-99,-99,0.2,0,none,40,18,Woman,Right,
16,2,1,0.5833267999987584,['c'],0,right,none,-99,-99,0.4,0,none,40,18,Woman,Right,
17,2,1,0.633789200001047,['c'],0,right,none,-99,-99,0.1,0,none,40,18,Woman,Right,
18,2,1,0.5669168000003992,['n'],0,left,none,-99,-99,0.2,0,none,40,18,Woman,Right,
19,2,1,0.6672622000005504,['c'],1,left,none,-99,-99,0.1,0,none,40,18,Woman,Right,
20,2,1,0.7007705000014539,['c'],0,right,none,-99,-99,0.1,0,none,40,18,Woman,Right,
21,2,1,0.8335996999994677,['c'],1,left,none,-99,-99,0.4,0,none,40,18,Woman,Right,
22,2,1,0.9998572999993485,['c'],0,right,none,-99,-99,0.4,0,none,40,18,Woman,Right,
23,2,1,0.7325792000010551,['n'],1,right,none,-99,-99,0.2,0,none,40,18,Woman,Right,
0,2,2,0.5341079999998328,['c'],0,right,none,-99,-99,0.4,0,none,40,18,Woman,Right,
1,2,2,0.7174426999990828,['c'],1,left,none,-99,-99,0.1,0,none,40,18,Woman,Right,
2,2,2,0.5506236000001081,['c'],0,right,none,-99,-99,0.4,0,none,40,18,Woman,Right,
3,2,2,0.850157599999875,['c'],1,left,none,-99,-99,0.1,0,none,40,18,Woman,Right,
4,2,2,0.8001566999992065,['c'],0,right,none,-99,-99,0.2,0,none,40,18,Woman,Right,
5,2,2,1.0501775000011548,['c'],1,left,none,-99,-99,0.2,0,none,40,18,Woman,Right,
6,2,2,0.7500858000003063,['c'],1,left,none,-99,-99,0.4,0,none,40,18,Woman,Right,
7,2,2,0.7996041000005789,['c'],1,left,none,-99,-99,0.4,0,none,40,18,Woman,Right,
8,2,2,0.7668195999995078,['c'],0,right,none,-99,-99,0.2,0,none,40,18,Woman,Right,
9,2,2,0.8500021000018023,['c'],1,left,none,-99,-99,0.1,0,none,40,18,Woman,Right,
10,2,2,0.767650899999353,['n'],1,right,none,-99,-99,0.2,0,none,40,18,Woman,Right,
11,2,2,0.5493752000002132,['c'],0,right,none,-99,-99,0.1,0,none,40,18,Woman,Right,
12,2,2,1.3501797000008082,['c'],1,left,none,-99,-99,0.4,0,none,40,18,Woman,Right,
13,2,2,0.8506844999992609,['n'],1,right,none,-99,-99,0.2,0,none,40,18,Woman,Right,
14,2,2,0.8005941999999777,['n'],1,right,none,-99,-99,0.1,0,none,40,18,Woman,Right,
15,2,2,0.8167370000010123,['n'],0,left,none,-99,-99,0.2,0,none,40,18,Woman,Right,
16,2,2,0.6173358999985794,['c'],1,left,none,-99,-99,0.4,0,none,40,18,Woman,Right,
17,2,2,0.6673607000011543,['n'],1,right,none,-99,-99,0.1,0,none,40,18,Woman,Right,
18,2,2,0.6993784999995114,['n'],0,left,none,-99,-99,0.2,0,none,40,18,Woman,Right,
19,2,2,1.0166377999994438,['n'],1,right,none,-99,-99,0.1,0,none,40,18,Woman,Right,
20,2,2,0.9168848000008438,['n'],1,right,none,-99,-99,0.1,0,none,40,18,Woman,Right,
21,2,2,0.7839123000012478,['n'],1,right,none,-99,-99,0.4,0,none,40,18,Woman,Right,
22,2,2,0.5163893999997526,['n'],0,left,none,-99,-99,0.4,0,none,40,18,Woman,Right,
23,2,2,0.9341097999986232,['n'],0,left,none,-99,-99,0.2,0,none,40,18,Woman,Right,
0,3,1,0.9171130999984598,['n'],0,left,['2'],5,4.633859999999913,0.2,0,none,40,18,Woman,Right,
1,3,1,2.183749400001034,['n'],1,right,['9'],2,2.8342398999993748,0.1,0,none,40,18,Woman,Right,
2,3,1,1.4502849999989849,['n'],1,right,['1'],6,2.3842968000008113,0.2,0,none,40,18,Woman,Right,
3,3,1,2.88269500000024,['n'],1,right,none,-99,-99,0.4,1,none,40,18,Woman,Right,
4,3,1,1.950498800000787,['n'],0,left,['2'],5,1.701090499998827,0.1,0,none,40,18,Woman,Right,
5,3,1,1.0497983000004751,['n'],0,left,['2'],5,1.7678364999992482,0.1,0,none,40,18,Woman,Right,
6,3,1,1.417181900000287,['n'],1,right,['8'],3,2.2010439000005135,0.1,0,none,40,18,Woman,Right,
7,3,1,1.8662891999993008,['n'],1,right,['1'],6,1.5009543000014673,0.2,0,none,40,18,Woman,Right,
8,3,1,1.7839327000001504,['n'],1,right,['2'],5,3.3003702000005433,0.4,0,none,40,18,Woman,Right,
9,3,1,1.6986367000008613,['c'],0,right,['1'],6,1.3680145999987872,0.4,0,none,40,18,Woman,Right,
10,3,1,1.3000377999997,['n'],0,left,['3'],4,2.7181350000009843,0.2,0,none,40,18,Woman,Right,
11,3,1,1.5665674000010767,['n'],0,left,['3'],4,2.200574600001346,0.4,0,none,40,18,Woman,Right,
12,3,1,0.8999261999997543,['n'],0,left,['3'],4,1.151310100000046,0.4,0,none,40,18,Woman,Right,
13,3,1,1.5649355000005016,['n'],1,right,['9'],2,2.2518092000009347,0.2,0,none,40,18,Woman,Right,
14,3,1,1.335103399998843,['n'],0,left,['8'],3,2.067713000000367,0.2,0,none,40,18,Woman,Right,
15,3,1,2.9501091000001907,['c'],0,right,['8'],3,1.8171860000002198,0.4,0,none,40,18,Woman,Right,
16,3,1,1.4155780999990384,['n'],0,left,['2'],5,2.0345671999984916,0.1,0,none,40,18,Woman,Right,
17,3,1,0.6010897000014666,['n'],0,left,['3'],4,2.5174829000006866,0.4,0,none,40,18,Woman,Right,
18,3,1,1.4668934999990597,['n'],0,left,['8'],3,2.417013499998575,0.2,0,none,40,18,Woman,Right,
19,3,1,1.1164490000010119,['n'],0,left,['8'],3,1.2016081999991002,0.1,0,none,40,18,Woman,Right,
20,3,1,2.1834553999997297,['n'],0,left,['3'],4,2.1510112000014487,0.2,0,none,40,18,Woman,Right,
21,3,1,2.2327236000000994,['n'],1,right,['9'],2,1.2848675000004732,0.1,0,none,40,18,Woman,Right,
22,3,1,2.8000234000010096,['c'],0,right,['8'],3,1.884321400000772,0.4,0,none,40,18,Woman,Right,
23,3,1,2.283116999999038,['c'],0,right,['8'],3,2.5841112000016437,0.1,0,none,40,18,Woman,Right,
0,4,1,2.233439699999508,['n'],0,left,none,-99,-99,0.2,1,AccFast,40,18,Woman,Right,
1,4,1,1.3002747999998974,['c'],0,right,['8'],3,2.7014376999995875,0.4,0,AccFast,40,18,Woman,Right,
2,4,1,1.0816718000005494,['c'],0,right,['3'],4,1.1519805999996606,0.1,0,AccFast,40,18,Woman,Right,
3,4,1,1.484245399999054,['c'],0,right,['3'],4,1.401214199999231,0.2,0,AccFast,40,18,Woman,Right,
4,4,1,0.9670769000003929,['c'],0,right,['3'],4,0.8178435999998328,0.4,0,AccFast,40,18,Woman,Right,
5,4,1,1.4841026999984024,['n'],1,right,['3'],4,1.3509435999985726,0.2,0,AccFast,40,18,Woman,Right,
6,4,1,2.1665941000010207,['c'],0,right,['8'],3,1.3677059999990888,0.4,0,AccFast,40,18,Woman,Right,
7,4,1,1.1336599999995087,['c'],0,right,['3'],4,0.5844435999988491,0.4,0,AccFast,40,18,Woman,Right,
8,4,1,1.9168238999991445,['c'],1,left,['3'],4,0.9679706000006263,0.1,0,AccFast,40,18,Woman,Right,
9,4,1,1.3169564999989234,['c'],1,left,['3'],4,0.7679109000000608,0.1,0,AccFast,40,18,Woman,Right,
10,4,1,1.5164531999998871,['c'],0,right,['3'],4,2.4679351999984647,0.4,0,AccFast,40,18,Woman,Right,
11,4,1,1.9667546000000584,['c'],1,left,['3'],4,1.418297000000166,0.1,0,AccFast,40,18,Woman,Right,
12,4,1,2.249666100000468,['c'],0,right,['2'],5,1.1177043999996386,0.4,0,AccFast,40,18,Woman,Right,
13,4,1,1.4168706999989809,['c'],0,right,['3'],4,2.7005005000009987,0.1,0,AccFast,40,18,Woman,Right,
14,4,1,0.8832086000002164,['n'],1,right,['0'],1,1.6672376000005897,0.1,0,AccFast,40,18,Woman,Right,
15,4,1,0.8009314999999333,['c'],1,left,['1'],6,1.9178713999990578,0.2,0,AccFast,40,18,Woman,Right,
16,4,1,1.7332180000012158,['c'],1,left,['1'],6,0.9344567000007373,0.4,0,AccFast,40,18,Woman,Right,
17,4,1,1.9328547999994043,['n'],0,left,['3'],4,1.8508783000015683,0.4,0,AccFast,40,18,Woman,Right,
18,4,1,2.400069400000575,['c'],1,left,['9'],2,1.7173247999999148,0.1,0,AccFast,40,18,Woman,Right,
19,4,1,1.3992576999989979,['c'],1,left,['3'],4,1.833264800001416,0.1,0,AccFast,40,18,Woman,Right,
20,4,1,1.2510923000008916,['c'],0,right,['0'],1,2.01758080000036,0.2,0,AccFast,40,18,Woman,Right,
21,4,1,2.033608699999604,['c'],1,left,['8'],3,1.7510239000002912,0.4,0,AccFast,40,18,Woman,Right,
22,4,1,1.3168279999990773,['c'],0,right,['3'],4,1.7344463000008545,0.1,0,AccFast,40,18,Woman,Right,
23,4,1,2.7170335999999224,['c'],0,right,['3'],4,1.784368100001302,0.2,0,AccFast,40,18,Woman,Right,
24,4,1,1.150037199999133,['c'],1,left,['3'],4,1.1002723000001424,0.2,0,AccFast,40,18,Woman,Right,
25,4,1,1.3676090000008116,['c'],1,left,['3'],4,0.5014450999988185,0.1,0,AccFast,40,18,Woman,Right,
26,4,1,3.8998704999994516,['n'],1,right,['8'],3,1.601022599999851,0.4,0,AccFast,40,18,Woman,Right,
27,4,1,1.8503067000001465,['c'],1,left,['3'],4,0.9514589999998861,0.4,0,AccFast,40,18,Woman,Right,
28,4,1,2.216951099999278,['c'],0,right,['8'],3,1.3844914999990579,0.2,0,AccFast,40,18,Woman,Right,
29,4,1,2.333225600001242,['c'],1,left,['8'],3,0.8679441999993287,0.1,0,AccFast,40,18,Woman,Right,
30,4,1,2.365732100000969,['c'],1,left,['3'],4,1.6845192999990104,0.2,0,AccFast,40,18,Woman,Right,
31,4,1,1.8332903999998962,['c'],1,left,['3'],4,0.7845449999986158,0.2,0,AccFast,40,18,Woman,Right,
32,4,1,2.4497792000001937,['c'],1,left,['3'],4,0.667175299999144,0.2,0,AccFast,40,18,Woman,Right,
33,4,1,1.1169035000002623,['c'],0,right,['3'],4,0.8011810999996669,0.2,0,AccFast,40,18,Woman,Right,
34,4,1,2.250404999998864,['n'],1,right,['0'],1,0.9678772999995999,0.4,0,AccFast,40,18,Woman,Right,
35,4,1,1.8672474000013608,['n'],0,left,['0'],1,0.48429810000016005,0.2,0,AccFast,40,18,Woman,Right,
36,4,1,2.466240399999151,['n'],1,right,['0'],1,1.2849280999998882,0.4,0,AccFast,40,18,Woman,Right,
37,4,1,1.5996556999998575,['n'],0,left,['9'],2,2.0508160999997926,0.1,0,AccFast,40,18,Woman,Right,
38,4,1,1.7499700000007579,['n'],1,right,['8'],3,1.567743800000244,0.2,0,AccFast,40,18,Woman,Right,
39,4,1,2.5338963999984117,['c'],1,left,['3'],4,1.0510396000008768,0.4,0,AccFast,40,18,Woman,Right,
40,4,1,2.5156439000002138,['c'],0,right,['3'],4,0.7341806000003999,0.4,0,AccFast,40,18,Woman,Right,
41,4,1,1.4177331999999296,['c'],1,left,['8'],3,1.0016545999988011,0.1,0,AccFast,40,18,Woman,Right,
42,4,1,0.6505803000000014,['c'],1,left,['8'],3,1.4510728000004747,0.1,0,AccFast,40,18,Woman,Right,
43,4,1,1.9169517999998789,['c'],1,left,['3'],4,1.667677100000219,0.2,0,AccFast,40,18,Woman,Right,
44,4,1,1.266659900000377,['n'],0,left,['3'],4,1.1344677000015508,0.1,0,AccFast,40,18,Woman,Right,
45,4,1,3.0335425000012037,['n'],0,left,['3'],4,1.1676788000004308,0.4,0,AccFast,40,18,Woman,Right,
46,4,1,2.967162599999938,['n'],1,right,['3'],4,0.9678131000000576,0.4,0,AccFast,40,18,Woman,Right,
47,4,1,3.4665862999991077,['n'],0,left,['3'],4,0.8840302000007796,0.2,0,AccFast,40,18,Woman,Right,
48,4,1,1.3169686000001093,['n'],0,left,['3'],4,0.7676655999985087,0.1,0,AccFast,40,18,Woman,Right,
49,4,1,1.0164937999998074,['n'],1,right,['3'],4,0.6833588999998028,0.4,0,AccFast,40,18,Woman,Right,
50,4,1,0.800302500001635,['n'],1,right,['2'],5,0.7346316999992268,0.1,0,AccFast,40,18,Woman,Right,
51,4,1,1.2333772000001773,['n'],1,right,['3'],4,0.7682335999998031,0.2,0,AccFast,40,18,Woman,Right,
52,4,1,1.0003560999994079,['n'],1,right,['1'],6,0.5174726000004739,0.1,0,AccFast,40,18,Woman,Right,
53,4,1,1.3172403999997186,['n'],0,left,['3'],4,0.7511322999998811,0.1,0,AccFast,40,18,Woman,Right,
54,4,1,0.9006480000007286,['n'],1,right,['3'],4,1.2014044999996258,0.2,0,AccFast,40,18,Woman,Right,
55,4,1,2.850457099999403,['c'],1,left,['2'],5,2.2839721999989706,0.2,0,AccFast,40,18,Woman,Right,
56,4,1,1.1173471000001882,['n'],0,left,['3'],4,1.601023900000655,0.1,0,AccFast,40,18,Woman,Right,
57,4,1,1.1831001000009564,['n'],1,right,['1'],6,2.167193100000077,0.4,0,AccFast,40,18,Woman,Right,
58,4,1,0.8831623000005493,['n'],1,right,['1'],6,1.0678993000001356,0.4,0,AccFast,40,18,Woman,Right,
59,4,1,0.6668936999994912,['n'],1,right,['1'],6,1.1505969000008918,0.2,0,AccFast,40,18,Woman,Right,
0,5,1,1.0843125999999756,['n'],1,right,['1'],6,1.067997699999978,0.1,0,AccAcc,40,18,Woman,Right,
1,5,1,1.1510056999995868,['n'],1,right,['1'],6,0.7182657000012114,0.1,0,AccAcc,40,18,Woman,Right,
2,5,1,1.1502266000006784,['n'],1,right,['2'],5,1.6343911000003573,0.2,0,AccAcc,40,18,Woman,Right,
3,5,1,1.2335865999993985,['n'],0,left,['2'],5,0.8837634999999864,0.4,0,AccAcc,40,18,Woman,Right,
4,5,1,1.0664665999993304,['n'],1,right,['3'],4,0.7844215000004624,0.4,0,AccAcc,40,18,Woman,Right,
5,5,1,0.8830464000002394,['n'],0,left,['1'],6,0.8677956000010454,0.2,0,AccAcc,40,18,Woman,Right,
6,5,1,1.7002530000008846,['n'],0,left,['1'],6,0.5507976000008057,0.1,0,AccAcc,40,18,Woman,Right,
7,5,1,1.7827715999992506,['n'],0,left,['1'],6,0.9012120999996114,0.2,0,AccAcc,40,18,Woman,Right,
8,5,1,2.417203900000459,['c'],1,left,['3'],4,2.2512736000007862,0.4,0,AccAcc,40,18,Woman,Right,
9,5,1,3.0999231999994663,['n'],1,right,['2'],5,1.8343643000007432,0.4,0,AccAcc,40,18,Woman,Right,
10,5,1,2.0003419000004214,['n'],0,left,['2'],5,2.2008554999993066,0.1,0,AccAcc,40,18,Woman,Right,
11,5,1,1.7997274000008474,['n'],0,left,['3'],4,0.7845922999986215,0.1,0,AccAcc,40,18,Woman,Right,
12,5,1,2.1006078999998863,['n'],0,left,['3'],4,3.200804199999766,0.4,0,AccAcc,40,18,Woman,Right,
13,5,1,5.015434100001585,x,-99,left,none,-99,-99,0.2,1,AccAcc,40,18,Woman,Right,
14,5,1,1.417190300000584,['n'],0,left,['3'],4,1.8504388999990624,0.4,0,AccAcc,40,18,Woman,Right,
15,5,1,1.633798900000329,['c'],1,left,['3'],4,1.4835996000001614,0.4,0,AccAcc,40,18,Woman,Right,
16,5,1,2.766684799998984,['c'],1,left,['2'],5,0.8344618000010087,0.1,0,AccAcc,40,18,Woman,Right,
17,5,1,1.4497372999994695,['c'],0,right,['2'],5,0.9007327999988775,0.4,0,AccAcc,40,18,Woman,Right,
18,5,1,1.300099100000807,['n'],1,right,['1'],6,1.1339782000013656,0.4,0,AccAcc,40,18,Woman,Right,
19,5,1,1.8499014999997598,['c'],0,right,['2'],5,1.1178130999996938,0.4,0,AccAcc,40,18,Woman,Right,
20,5,1,1.2836568000002444,['c'],1,left,['2'],5,0.7344794000000547,0.1,0,AccAcc,40,18,Woman,Right,
21,5,1,1.1997646999989229,['c'],0,right,['1'],6,1.1173027000004367,0.1,0,AccAcc,40,18,Woman,Right,
22,5,1,1.4504242000002705,['c'],0,right,['2'],5,1.06722770000124,0.2,0,AccAcc,40,18,Woman,Right,
23,5,1,1.9004232000006596,['c'],1,left,['1'],6,1.1176061999995,0.1,0,AccAcc,40,18,Woman,Right,
24,5,1,1.716947799999616,['c'],0,right,['3'],4,1.5512170000001788,0.4,0,AccAcc,40,18,Woman,Right,
25,5,1,1.316407899999831,['c'],0,right,['3'],4,0.7677111000011791,0.1,0,AccAcc,40,18,Woman,Right,
26,5,1,1.9503108999997494,['c'],1,left,['3'],4,1.6678062999999383,0.2,0,AccAcc,40,18,Woman,Right,
27,5,1,2.0167903999990813,['n'],0,left,['3'],4,0.8679202999992413,0.4,0,AccAcc,40,18,Woman,Right,
28,5,1,3.1328061999993224,['c'],0,right,['9'],2,1.784067500000674,0.2,0,AccAcc,40,18,Woman,Right,
29,5,1,1.4833148999987316,['c'],0,right,['2'],5,0.9671054999998887,0.2,0,AccAcc,40,18,Woman,Right,
30,5,1,1.0005347999995138,['c'],1,left,['2'],5,0.8677874999993946,0.2,0,AccAcc,40,18,Woman,Right,
31,5,1,2.1161515999992844,['c'],1,left,['2'],5,0.7348868999997649,0.2,0,AccAcc,40,18,Woman,Right,
32,5,1,1.516613599998891,['c'],1,left,['3'],4,0.9181556999992608,0.1,0,AccAcc,40,18,Woman,Right,
33,5,1,1.9001017000009597,['c'],1,left,['1'],6,0.8346355000012409,0.1,0,AccAcc,40,18,Woman,Right,
34,5,1,2.082426499999201,['c'],0,right,['3'],4,0.7348545000004378,0.1,0,AccAcc,40,18,Woman,Right,
35,5,1,2.700171799999225,['n'],0,left,['3'],4,1.3012193000013212,0.1,0,AccAcc,40,18,Woman,Right,
36,5,1,2.01681329999883,['n'],1,right,['9'],2,1.7010986000004777,0.4,0,AccAcc,40,18,Woman,Right,
37,5,1,4.033626700000241,['c'],0,right,['3'],4,0.751095699999496,0.2,0,AccAcc,40,18,Woman,Right,
38,5,1,2.166877600000589,['n'],1,right,['3'],4,2.4676495999992767,0.2,0,AccAcc,40,18,Woman,Right,
39,5,1,1.56576639999912,['n'],0,left,['2'],5,2.7011681999993016,0.2,0,AccAcc,40,18,Woman,Right,
40,5,1,1.3001977000003535,['n'],0,left,['1'],6,1.001152999999249,0.4,0,AccAcc,40,18,Woman,Right,
41,5,1,2.633671999999933,['n'],0,left,['2'],5,0.7845613999998022,0.2,0,AccAcc,40,18,Woman,Right,
42,5,1,2.149323800000275,['n'],1,right,['2'],5,1.3344907999999123,0.2,0,AccAcc,40,18,Woman,Right,
43,5,1,4.250125100001242,['c'],0,right,['9'],2,1.817609399999128,0.1,0,AccAcc,40,18,Woman,Right,
44,5,1,1.8503701999998157,['n'],0,left,['2'],5,1.4343167999995785,0.4,0,AccAcc,40,18,Woman,Right,
45,5,1,1.050224700000399,['n'],1,right,['2'],5,0.7336521999986871,0.2,0,AccAcc,40,18,Woman,Right,
46,5,1,2.0497920000016165,['n'],0,left,['9'],2,0.9678418000003148,0.4,0,AccAcc,40,18,Woman,Right,
47,5,1,2.6002305000001797,['n'],1,right,['1'],6,1.2011289000001852,0.1,0,AccAcc,40,18,Woman,Right,
48,5,1,1.3334211000001233,['n'],1,right,['1'],6,1.6670358999999735,0.1,0,AccAcc,40,18,Woman,Right,
49,5,1,1.9505825000014738,['n'],0,left,['0'],1,1.301110600001266,0.2,0,AccAcc,40,18,Woman,Right,
50,5,1,1.766832000001159,['n'],0,left,['1'],6,1.1007439000004524,0.4,0,AccAcc,40,18,Woman,Right,
51,5,1,2.6500211999991734,['c'],0,right,['1'],6,1.634694699998363,0.2,0,AccAcc,40,18,Woman,Right,
52,5,1,2.5827485999998316,['c'],0,right,['1'],6,1.450600600001053,0.1,0,AccAcc,40,18,Woman,Right,
53,5,1,3.6492980000002717,['c'],0,right,['1'],6,1.28404589999991,0.2,0,AccAcc,40,18,Woman,Right,
54,5,1,1.5671068999999989,['c'],0,right,['3'],4,0.8513502999994671,0.4,0,AccAcc,40,18,Woman,Right,
55,5,1,2.233859500000108,['c'],1,left,['1'],6,0.5678666000003432,0.2,0,AccAcc,40,18,Woman,Right,
56,5,1,2.2825654999996914,['c'],0,right,['8'],3,1.235056600000462,0.1,0,AccAcc,40,18,Woman,Right,
57,5,1,1.2332966000012675,['c'],1,left,['2'],5,1.3011542000003828,0.1,0,AccAcc,40,18,Woman,Right,
58,5,1,2.132921799999167,['c'],0,right,['1'],6,0.5344912999989901,0.4,0,AccAcc,40,18,Woman,Right,
59,5,1,3.199916300000041,['c'],0,right,['1'],6,1.2346190000007482,0.4,0,AccAcc,40,18,Woman,Right,
0,6,1,0.516876499999853,['c'],1,left,['9'],2,2.5347339999989345,0.1,0,FastAcc,40,18,Woman,Right,
1,6,1,1.2335809000014706,['n'],1,right,['9'],2,1.6009952999993402,0.2,0,FastAcc,40,18,Woman,Right,
2,6,1,0.6015630999991117,['c'],1,left,['0'],1,2.601116499999989,0.4,0,FastAcc,40,18,Woman,Right,
3,6,1,0.9996121000003768,['n'],0,left,['0'],1,1.4178257000003214,0.1,0,FastAcc,40,18,Woman,Right,
4,6,1,0.4170503000004828,['c'],0,right,['3'],4,0.8345090999991953,0.2,0,FastAcc,40,18,Woman,Right,
5,6,1,1.1670145999996748,['c'],0,right,['3'],4,0.9180028999999195,0.4,0,FastAcc,40,18,Woman,Right,
6,6,1,0.6834464999992633,['c'],0,right,['3'],4,0.7172420000006241,0.1,0,FastAcc,40,18,Woman,Right,
7,6,1,1.0171613000002253,['n'],1,right,['0'],1,0.9841663999995944,0.4,0,FastAcc,40,18,Woman,Right,
8,6,1,0.7159813000016584,['c'],1,left,['9'],2,1.0190377999988414,0.2,0,FastAcc,40,18,Woman,Right,
9,6,1,0.550199799999973,['c'],1,left,['3'],4,0.9507589000004373,0.1,0,FastAcc,40,18,Woman,Right,
10,6,1,0.7332707999994454,['n'],0,left,['2'],5,2.117839399999866,0.4,0,FastAcc,40,18,Woman,Right,
11,6,1,1.399648900000102,['c'],0,right,['9'],2,1.4180649000008998,0.2,0,FastAcc,40,18,Woman,Right,
12,6,1,0.6670214000005217,['c'],0,right,['3'],4,1.217446699998618,0.4,0,FastAcc,40,18,Woman,Right,
13,6,1,1.267236600000615,['c'],1,left,['9'],2,0.7010123000000021,0.1,0,FastAcc,40,18,Woman,Right,
14,6,1,1.2839191000002756,['c'],0,right,['9'],2,0.8506199000003107,0.4,0,FastAcc,40,18,Woman,Right,
15,6,1,1.0997229999993579,['c'],0,right,['3'],4,0.6683602000011888,0.2,0,FastAcc,40,18,Woman,Right,
16,6,1,0.700416600000608,['n'],1,right,['3'],4,0.651070100000652,0.4,0,FastAcc,40,18,Woman,Right,
17,6,1,0.7996734000007564,['c'],1,left,['3'],4,0.7514124000008451,0.1,0,FastAcc,40,18,Woman,Right,
18,6,1,1.166390300000785,['c'],0,right,['8'],3,1.3513075000009849,0.2,0,FastAcc,40,18,Woman,Right,
19,6,1,1.0668494999990799,['n'],1,right,['3'],4,0.8339083999999275,0.2,0,FastAcc,40,18,Woman,Right,
20,6,1,0.750310499999614,['c'],0,right,['3'],4,0.5172880000009172,0.2,0,FastAcc,40,18,Woman,Right,
21,6,1,0.633644200001072,['n'],1,right,['3'],4,0.4512517000002845,0.1,0,FastAcc,40,18,Woman,Right,
22,6,1,1.4502926000004663,['c'],0,right,['8'],3,1.017919100000654,0.1,0,FastAcc,40,18,Woman,Right,
23,6,1,0.7163624000004347,['n'],1,right,['8'],3,1.301377900001171,0.4,0,FastAcc,40,18,Woman,Right,
24,6,1,0.9332547999983944,['n'],1,right,['9'],2,0.9342811000005895,0.1,0,FastAcc,40,18,Woman,Right,
25,6,1,0.5337700000000041,['c'],1,left,['8'],3,0.6676250999989861,0.2,0,FastAcc,40,18,Woman,Right,
26,6,1,1.0826924000011786,['n'],0,left,['3'],4,0.6177105000006122,0.4,0,FastAcc,40,18,Woman,Right,
27,6,1,0.617249199998696,['c'],1,left,['3'],4,0.7345955000000686,0.2,0,FastAcc,40,18,Woman,Right,
28,6,1,1.5836448999998538,['n'],1,right,['3'],4,2.300992000000406,0.4,0,FastAcc,40,18,Woman,Right,
29,6,1,1.3006686999997328,['n'],1,right,['3'],4,0.634625299999243,0.4,0,FastAcc,40,18,Woman,Right,
30,6,1,0.6169491000000562,['n'],1,right,['3'],4,1.3502994999998919,0.2,0,FastAcc,40,18,Woman,Right,
31,6,1,1.883659399998578,['n'],0,left,['9'],2,0.851147100000162,0.1,0,FastAcc,40,18,Woman,Right,
32,6,1,0.49976760000026843,['n'],0,left,['0'],1,1.4011583000010432,0.1,0,FastAcc,40,18,Woman,Right,
33,6,1,0.6503537999997206,['c'],1,left,['3'],4,0.5679825999995955,0.1,0,FastAcc,40,18,Woman,Right,
34,6,1,0.4497879999998986,['n'],1,right,['8'],3,0.8508213000004616,0.4,0,FastAcc,40,18,Woman,Right,
35,6,1,0.43299110000043584,['n'],1,right,['3'],4,0.7341486999994231,0.2,0,FastAcc,40,18,Woman,Right,
36,6,1,0.38318860000072164,['n'],0,left,['9'],2,1.701239899999564,0.1,0,FastAcc,40,18,Woman,Right,
37,6,1,0.3333806000009645,['c'],1,left,['9'],2,0.8838122999986808,0.1,0,FastAcc,40,18,Woman,Right,
38,6,1,1.0669805999987148,['n'],1,right,['8'],3,0.8676376000003074,0.4,0,FastAcc,40,18,Woman,Right,
39,6,1,0.6172678999992058,['n'],0,left,['8'],3,0.6673224999995,0.4,0,FastAcc,40,18,Woman,Right,
40,6,1,0.7836482999991858,['n'],0,left,['3'],4,1.4176545000009355,0.2,0,FastAcc,40,18,Woman,Right,
41,6,1,0.8166935999997804,['n'],0,left,['3'],4,0.5178680999997596,0.4,0,FastAcc,40,18,Woman,Right,
42,6,1,0.766685000000507,['n'],0,left,['1'],6,0.86731730000065,0.2,0,FastAcc,40,18,Woman,Right,
43,6,1,0.6502808000004734,['n'],0,left,['8'],3,0.9344633999990037,0.4,0,FastAcc,40,18,Woman,Right,
44,6,1,0.8333591999999044,['n'],1,right,['9'],2,0.9012784999995347,0.2,0,FastAcc,40,18,Woman,Right,
45,6,1,0.716425500000696,['n'],0,left,['8'],3,0.7008478000007017,0.1,0,FastAcc,40,18,Woman,Right,
46,6,1,1.3496895999996923,['n'],1,right,['9'],2,0.6183241000017006,0.2,0,FastAcc,40,18,Woman,Right,
47,6,1,0.7834385000005568,['n'],0,left,['8'],3,0.6015600000009727,0.2,0,FastAcc,40,18,Woman,Right,
48,6,1,0.9663170000003447,['n'],1,right,['0'],1,1.7672153000003163,0.1,0,FastAcc,40,18,Woman,Right,
49,6,1,0.53386540000065,['c'],0,right,['0'],1,1.1007616000006237,0.1,0,FastAcc,40,18,Woman,Right,
50,6,1,0.4826438000000053,['n'],1,right,['9'],2,1.5339086999993015,0.1,0,FastAcc,40,18,Woman,Right,
51,6,1,0.6168334000012692,['n'],0,left,['9'],2,0.7011211999997613,0.2,0,FastAcc,40,18,Woman,Right,
52,6,1,0.9002278999996634,['n'],0,left,['8'],3,0.734251799998674,0.4,0,FastAcc,40,18,Woman,Right,
53,6,1,0.8660844999994879,['c'],0,right,['3'],4,1.2016992999997456,0.4,0,FastAcc,40,18,Woman,Right,
54,6,1,0.6502065000004222,['c'],1,left,['3'],4,0.5511738000004698,0.1,0,FastAcc,40,18,Woman,Right,
55,6,1,0.8170730999991065,['c'],1,left,['3'],4,0.685363900000084,0.1,0,FastAcc,40,18,Woman,Right,
56,6,1,0.6991352999993978,['c'],0,right,['3'],4,0.5342110999990837,0.4,0,FastAcc,40,18,Woman,Right,
57,6,1,1.1673651999990398,['c'],1,left,['8'],3,0.684659599999577,0.4,0,FastAcc,40,18,Woman,Right,
58,6,1,1.4337002000011125,['c'],1,left,['3'],4,0.5847601000004943,0.2,0,FastAcc,40,18,Woman,Right,
59,6,1,1.0503063999985898,['c'],1,left,['3'],4,0.7009299999990617,0.2,0,FastAcc,40,18,Woman,Right,
0,7,1,0.7172588000012183,['c'],1,left,['8'],3,0.5511412999985623,0.2,0,FastFast,40,18,Woman,Right,
1,7,1,0.9322709000007308,['c'],0,right,['8'],3,0.8840502999992168,0.4,0,FastFast,40,18,Woman,Right,
2,7,1,0.5168873999991774,['c'],0,right,['8'],3,0.3847724000006565,0.2,0,FastFast,40,18,Woman,Right,
3,7,1,0.5501487000001362,['n'],1,right,['9'],2,0.6012000999999145,0.1,0,FastFast,40,18,Woman,Right,
4,7,1,0.8668865999989066,['c'],0,right,['8'],3,0.6011701000006724,0.2,0,FastFast,40,18,Woman,Right,
5,7,1,1.4165458000006765,['c'],0,right,['8'],3,0.6348889999990206,0.1,0,FastFast,40,18,Woman,Right,
6,7,1,0.567406199999823,['c'],0,right,['9'],2,0.6673528999999689,0.4,0,FastFast,40,18,Woman,Right,
7,7,1,0.5502035999998043,['c'],0,right,['3'],4,0.38464380000004894,0.4,0,FastFast,40,18,Woman,Right,
8,7,1,0.550404300000082,['c'],1,left,['3'],4,0.33456289999958244,0.4,0,FastFast,40,18,Woman,Right,
9,7,1,0.6505858999989869,['c'],0,right,['3'],4,0.38308820000020205,0.4,0,FastFast,40,18,Woman,Right,
10,7,1,0.5666884999991453,['c'],1,left,['8'],3,0.35131900000124006,0.4,0,FastFast,40,18,Woman,Right,
11,7,1,0.5844084000000294,['c'],0,right,['9'],2,0.43488929999875836,0.2,0,FastFast,40,18,Woman,Right,
12,7,1,0.9835015000007843,['c'],0,right,['3'],4,0.5007485000005545,0.2,0,FastFast,40,18,Woman,Right,
13,7,1,0.7344749000003503,['c'],0,right,['8'],3,0.4681739000006928,0.1,0,FastFast,40,18,Woman,Right,
14,7,1,0.5993035999999847,['c'],0,right,['9'],2,0.3170534000000771,0.4,0,FastFast,40,18,Woman,Right,
15,7,1,1.233051000001069,['n'],0,left,['9'],2,0.6349025999988953,0.4,0,FastFast,40,18,Woman,Right,
16,7,1,0.6498420000007172,['c'],0,right,['8'],3,0.5510603999991872,0.4,0,FastFast,40,18,Woman,Right,
17,7,1,0.4837853000008181,['c'],1,left,['9'],2,0.3004861000008532,0.2,0,FastFast,40,18,Woman,Right,
18,7,1,0.4667012000008981,['c'],0,right,['9'],2,0.21819020000111777,0.1,0,FastFast,40,18,Woman,Right,
19,7,1,0.5667936999998346,['c'],1,left,['9'],2,0.26801159999922675,0.4,0,FastFast,40,18,Woman,Right,
20,7,1,1.0656329999983427,['c'],1,left,['3'],4,0.38568320000013046,0.1,0,FastFast,40,18,Woman,Right,
21,7,1,0.6332995000011579,['c'],1,left,['1'],6,0.3346821999984968,0.2,0,FastFast,40,18,Woman,Right,
22,7,1,1.3669362999989971,['c'],1,left,['2'],5,0.6502713999998377,0.2,0,FastFast,40,18,Woman,Right,
23,7,1,0.6672598000004655,['c'],0,right,['3'],4,0.4845432999991317,0.2,0,FastFast,40,18,Woman,Right,
24,7,1,0.6503264999992098,['c'],1,left,['3'],4,0.33458189999873866,0.4,0,FastFast,40,18,Woman,Right,
25,7,1,0.41709129999981087,['c'],1,left,['8'],3,0.2837283999997453,0.1,0,FastFast,40,18,Woman,Right,
26,7,1,0.5667558000004647,['c'],0,right,['8'],3,0.3181782999999996,0.2,0,FastFast,40,18,Woman,Right,
27,7,1,0.8003692000002047,['c'],1,left,['8'],3,0.3005174999998417,0.2,0,FastFast,40,18,Woman,Right,
28,7,1,0.43421289999969304,['c'],0,right,['3'],4,0.38397660000009637,0.4,0,FastFast,40,18,Woman,Right,
29,7,1,0.550287499998376,['c'],0,right,['8'],3,0.8512547999998787,0.1,0,FastFast,40,18,Woman,Right,
30,7,1,1.00088919999871,['c'],0,right,['3'],4,0.45098439999856055,0.4,0,FastFast,40,18,Woman,Right,
31,7,1,0.8170183999991423,['c'],1,left,['3'],4,0.4678088000000571,0.2,0,FastFast,40,18,Woman,Right,
32,7,1,0.8509156000000075,['c'],1,left,['3'],4,0.4336812000001373,0.1,0,FastFast,40,18,Woman,Right,
33,7,1,0.7173670000011043,['c'],1,left,['9'],2,0.2677875999997923,0.1,0,FastFast,40,18,Woman,Right,
34,7,1,0.5169134999996459,['c'],0,right,['9'],2,0.3010297000000719,0.4,0,FastFast,40,18,Woman,Right,
35,7,1,0.7170115999997506,['n'],0,left,['0'],1,1.284408200001053,0.2,0,FastFast,40,18,Woman,Right,
36,7,1,0.6497622999995656,['n'],1,right,['0'],1,0.38465739999992365,0.4,0,FastFast,40,18,Woman,Right,
37,7,1,0.8837539000014658,['c'],1,left,['3'],4,0.7844877000006818,0.1,0,FastFast,40,18,Woman,Right,
38,7,1,0.6491368000006332,['c'],1,left,['0'],1,0.3838290000003326,0.1,0,FastFast,40,18,Woman,Right,
39,7,1,0.4003532000006089,['n'],1,right,['9'],2,0.4010125999993761,0.2,0,FastFast,40,18,Woman,Right,
40,7,1,0.7829094000007899,['c'],1,left,['0'],1,0.5350354000001971,0.2,0,FastFast,40,18,Woman,Right,
41,7,1,1.4344200000014098,['n'],1,right,['0'],1,0.6178111999997782,0.1,0,FastFast,40,18,Woman,Right,
42,7,1,0.3672320000005129,['n'],1,right,['0'],1,0.3189614000002621,0.4,0,FastFast,40,18,Woman,Right,
43,7,1,0.4003069999998843,['c'],1,left,['0'],1,0.45066919999953825,0.1,0,FastFast,40,18,Woman,Right,
44,7,1,0.5667508999995334,['c'],1,left,['9'],2,0.2510796999995364,0.1,0,FastFast,40,18,Woman,Right,
45,7,1,0.7838212999995449,['c'],1,left,['9'],2,0.5511524000012287,0.2,0,FastFast,40,18,Woman,Right,
46,7,1,0.9001028999991831,['c'],1,left,['9'],2,0.46784699999989243,0.4,0,FastFast,40,18,Woman,Right,
47,7,1,0.6336516999999731,['c'],0,right,['9'],2,0.41748590000133845,0.1,0,FastFast,40,18,Woman,Right,
48,7,1,1.399878300000637,['c'],1,left,['9'],2,0.551494499999535,0.4,0,FastFast,40,18,Woman,Right,
49,7,1,0.5670864000003348,['n'],0,left,['9'],2,0.5511729000008927,0.1,0,FastFast,40,18,Woman,Right,
50,7,1,0.350292699999045,['n'],1,right,['9'],2,0.3009801999996853,0.1,0,FastFast,40,18,Woman,Right,
51,7,1,0.5337075000006735,['c'],0,right,['9'],2,0.23467729999902076,0.2,0,FastFast,40,18,Woman,Right,
52,7,1,1.0840860999996949,['c'],0,right,['8'],3,0.38425789999928384,0.2,0,FastFast,40,18,Woman,Right,
53,7,1,0.883187800000087,['c'],0,right,['8'],3,0.4177872000000207,0.1,0,FastFast,40,18,Woman,Right,
54,7,1,1.0165269000008266,['c'],1,left,['8'],3,0.30141489999914484,0.4,0,FastFast,40,18,Woman,Right,
55,7,1,0.9830018000011478,['c'],1,left,['8'],3,0.5180383000006259,0.4,0,FastFast,40,18,Woman,Right,
56,7,1,0.5668802000000142,['c'],0,right,['3'],4,0.4007395999997243,0.2,0,FastFast,40,18,Woman,Right,
57,7,1,0.6334347000010894,['c'],1,left,['3'],4,0.30137959999956365,0.1,0,FastFast,40,18,Woman,Right,
58,7,1,1.0660156000012648,['n'],0,left,['0'],1,1.2182902000004106,0.2,0,FastFast,40,18,Woman,Right,
59,7,1,0.9336426999998366,['n'],0,left,['0'],1,0.4349910999990243,0.1,0,FastFast,40,18,Woman,Right,
0,8,1,1.9673153000003367,['c'],0,right,['3'],4,0.5846337000002677,0.4,0,AccFast,40,18,Woman,Right,
1,8,1,1.7165500999999495,['n'],1,right,['8'],3,0.8176258999992569,0.4,0,AccFast,40,18,Woman,Right,
2,8,1,0.8823627999991004,['c'],0,right,['8'],3,0.3354363000016747,0.4,0,AccFast,40,18,Woman,Right,
3,8,1,0.8169818000005762,['c'],0,right,['8'],3,0.4504586000002746,0.4,0,AccFast,40,18,Woman,Right,
4,8,1,3.1333219000007375,['n'],0,left,['8'],3,0.6178450000006706,0.4,0,AccFast,40,18,Woman,Right,
5,8,1,2.7999721999985923,['n'],1,right,['8'],3,1.2674581999999646,0.1,0,AccFast,40,18,Woman,Right,
6,8,1,1.1830795999994734,['n'],0,left,['8'],3,0.2842591000007815,0.1,0,AccFast,40,18,Woman,Right,
7,8,1,2.933532799999739,['n'],1,right,['8'],3,0.551120300000548,0.1,0,AccFast,40,18,Woman,Right,
8,8,1,1.2669454000006226,['n'],1,right,['3'],4,0.45123229999990144,0.2,0,AccFast,40,18,Woman,Right,
9,8,1,2.2334698000013304,['n'],1,right,['3'],4,0.3011830000014015,0.2,0,AccFast,40,18,Woman,Right,
10,8,1,2.9495275000008405,['c'],1,left,['3'],4,0.20155929999964428,0.4,0,AccFast,40,18,Woman,Right,
11,8,1,1.9498550000007526,['n'],1,right,['3'],4,0.38388060000033875,0.1,0,AccFast,40,18,Woman,Right,
12,8,1,2.883086200001344,['n'],1,right,['3'],4,0.31778359999952954,0.1,0,AccFast,40,18,Woman,Right,
13,8,1,2.6502020999996603,['c'],1,left,['8'],3,0.5845321999986481,0.2,0,AccFast,40,18,Woman,Right,
14,8,1,1.0673487999993085,['c'],0,right,['8'],3,0.3512276000001293,0.4,0,AccFast,40,18,Woman,Right,
15,8,1,2.016923200000747,['c'],0,right,['8'],3,0.267765500000678,0.1,0,AccFast,40,18,Woman,Right,
16,8,1,1.1825293999991118,['c'],0,right,['8'],3,0.3512460000001738,0.1,0,AccFast,40,18,Woman,Right,
17,8,1,2.53366879999885,['c'],1,left,['3'],4,0.43404350000128034,0.4,0,AccFast,40,18,Woman,Right,
18,8,1,2.7336886000011873,['c'],0,right,['9'],2,1.6840850000007777,0.1,0,AccFast,40,18,Woman,Right,
19,8,1,1.6166212999996787,['n'],1,right,['0'],1,0.30140840000058233,0.4,0,AccFast,40,18,Woman,Right,
20,8,1,1.7503924000011466,['n'],0,left,['8'],3,0.7511349000014889,0.1,0,AccFast,40,18,Woman,Right,
21,8,1,2.500226500000281,['n'],0,left,['3'],4,0.30090370000107214,0.4,0,AccFast,40,18,Woman,Right,
22,8,1,1.6664663000010478,['n'],0,left,['3'],4,0.33451200000126846,0.2,0,AccFast,40,18,Woman,Right,
23,8,1,1.2994526000002224,['n'],0,left,['2'],5,0.9512900000008813,0.1,0,AccFast,40,18,Woman,Right,
24,8,1,1.1322302000007767,['n'],0,left,['2'],5,0.18426910000016505,0.4,0,AccFast,40,18,Woman,Right,
25,8,1,1.18429180000021,['n'],1,right,['2'],5,0.2679453000000649,0.2,0,AccFast,40,18,Woman,Right,
26,8,1,1.6500463000011223,['n'],1,right,['3'],4,0.2182570000004489,0.2,0,AccFast,40,18,Woman,Right,
27,8,1,1.5162108999993507,['n'],1,right,['3'],4,0.2517361999998684,0.1,0,AccFast,40,18,Woman,Right,
28,8,1,1.7669956000008824,['n'],0,left,['3'],4,0.3178996000006009,0.2,0,AccFast,40,18,Woman,Right,
29,8,1,2.416785700001128,['c'],0,right,['8'],3,0.667510699999184,0.2,0,AccFast,40,18,Woman,Right,
30,8,1,3.449254600000131,['n'],0,left,['3'],4,0.6176768000004813,0.2,0,AccFast,40,18,Woman,Right,
31,8,1,3.6996832999993785,['n'],0,left,['8'],3,0.8677334000003611,0.2,0,AccFast,40,18,Woman,Right,
32,8,1,1.8169621999986703,['c'],0,right,['3'],4,0.26790749999963737,0.4,0,AccFast,40,18,Woman,Right,
33,8,1,1.5008679999991728,['c'],1,left,['3'],4,0.2670662000000448,0.2,0,AccFast,40,18,Woman,Right,
34,8,1,2.8336583000000246,['c'],0,right,['3'],4,0.3681434000009176,0.2,0,AccFast,40,18,Woman,Right,
35,8,1,1.534239599999637,['n'],1,right,['8'],3,0.4345368000012968,0.2,0,AccFast,40,18,Woman,Right,
36,8,1,4.78306110000085,['n'],0,left,['3'],4,0.8844019000007393,0.2,0,AccFast,40,18,Woman,Right,
37,8,1,3.633434400000624,['n'],0,left,['9'],2,1.650992099999712,0.4,0,AccFast,40,18,Woman,Right,
38,8,1,3.682467499998893,['n'],0,left,['9'],2,1.0012009000001854,0.1,0,AccFast,40,18,Woman,Right,
39,8,1,2.2669299000008323,['c'],1,left,['0'],1,0.2680481999996118,0.1,0,AccFast,40,18,Woman,Right,
40,8,1,2.616683500000363,['n'],1,right,['0'],1,0.6504781000003277,0.4,0,AccFast,40,18,Woman,Right,
41,8,1,3.8655099000006885,['n'],1,right,['3'],4,0.5849768000007316,0.2,0,AccFast,40,18,Woman,Right,
42,8,1,2.2836858999999095,['n'],0,left,['3'],4,0.48472550000042247,0.1,0,AccFast,40,18,Woman,Right,
43,8,1,5.015940400000545,x,-99,left,none,-99,-99,0.2,1,AccFast,40,18,Woman,Right,
44,8,1,2.95065219999924,['n'],0,left,['2'],5,1.034172600000602,0.1,0,AccFast,40,18,Woman,Right,
45,8,1,1.6503902000004018,['n'],0,left,['2'],5,0.367894900000465,0.4,0,AccFast,40,18,Woman,Right,
46,8,1,4.883287200000268,['n'],1,right,['2'],5,0.8179430000000139,0.1,0,AccFast,40,18,Woman,Right,
47,8,1,5.016256099999737,x,-99,right,none,-99,-99,0.2,1,AccFast,40,18,Woman,Right,
48,8,1,1.633534000000509,['n'],1,right,['2'],5,0.9011243999993894,0.4,0,AccFast,40,18,Woman,Right,
49,8,1,1.3335889999998471,['n'],0,left,['1'],6,0.8176855000001524,0.1,0,AccFast,40,18,Woman,Right,
50,8,1,0.8000416000013502,['n'],1,right,['1'],6,0.2677872000003845,0.1,0,AccFast,40,18,Woman,Right,
51,8,1,0.9502081999999064,['n'],0,left,['1'],6,0.351222900000721,0.4,0,AccFast,40,18,Woman,Right,
52,8,1,0.8496654000009585,['c'],1,left,['3'],4,0.8013738999998168,0.4,0,AccFast,40,18,Woman,Right,
53,8,1,0.7836342000009608,['n'],0,left,['3'],4,0.9675913999999466,0.2,0,AccFast,40,18,Woman,Right,
54,8,1,0.750486799999635,['n'],0,left,['3'],4,0.21785540000018955,0.1,0,AccFast,40,18,Woman,Right,
55,8,1,1.083208800000648,['n'],1,right,['3'],4,0.1845582000005379,0.4,0,AccFast,40,18,Woman,Right,
56,8,1,0.9162804000006872,['n'],0,left,['2'],5,0.18532020000020566,0.1,0,AccFast,40,18,Woman,Right,
57,8,1,0.8337144999986776,['n'],0,left,['2'],5,0.20133630000054836,0.4,0,AccFast,40,18,Woman,Right,
58,8,1,0.8836025000000518,['n'],0,left,['2'],5,0.5012409999999363,0.2,0,AccFast,40,18,Woman,Right,
59,8,1,1.0833663000012166,['n'],1,right,['2'],5,0.2857665999999881,0.2,0,AccFast,40,18,Woman,Right,
0,9,1,2.0172371999997267,['n'],1,right,['2'],5,2.8009309000008216,0.1,0,AccAcc,40,18,Woman,Right,
1,9,1,1.6506076999994548,['n'],0,left,['2'],5,1.5012148000005254,0.4,0,AccAcc,40,18,Woman,Right,
2,9,1,1.2674939000007726,['n'],0,left,['1'],6,0.6512624999995751,0.1,0,AccAcc,40,18,Woman,Right,
3,9,1,1.2168412999999418,['n'],0,left,['1'],6,2.017642099999648,0.1,0,AccAcc,40,18,Woman,Right,
4,9,1,1.5503411999998207,['n'],1,right,['1'],6,1.3502038000005996,0.2,0,AccAcc,40,18,Woman,Right,
5,9,1,2.018778099998599,['c'],1,left,['1'],6,0.8678330000002461,0.2,0,AccAcc,40,18,Woman,Right,
6,9,1,1.2837278000006336,['c'],0,right,['2'],5,0.6513400000003458,0.1,0,AccAcc,40,18,Woman,Right,
7,9,1,1.5004257999989932,['c'],1,left,['2'],5,0.6509962000000087,0.1,0,AccAcc,40,18,Woman,Right,
8,9,1,1.8833613000006153,['c'],0,right,['2'],5,1.667346299998826,0.4,0,AccAcc,40,18,Woman,Right,
9,9,1,1.4990472000008594,['c'],0,right,['1'],6,1.618377099999634,0.1,0,AccAcc,40,18,Woman,Right,
10,9,1,1.2500973000005615,['c'],0,right,['1'],6,0.917740099999719,0.4,0,AccAcc,40,18,Woman,Right,
11,9,1,1.399741900000663,['c'],1,left,['1'],6,0.6007755999999063,0.4,0,AccAcc,40,18,Woman,Right,
12,9,1,2.1500490000016725,['c'],1,left,['1'],6,0.500688000000082,0.2,0,AccAcc,40,18,Woman,Right,
13,9,1,0.7508127000000968,['n'],1,right,['3'],4,1.4344807999987097,0.2,0,AccAcc,40,18,Woman,Right,
14,9,1,1.2170750999994198,['n'],1,right,['3'],4,0.9180087999993702,0.4,0,AccAcc,40,18,Woman,Right,
15,9,1,1.9835669999993115,['c'],1,left,['3'],4,0.8838381999994454,0.2,0,AccAcc,40,18,Woman,Right,
16,9,1,4.3503099999998085,['c'],0,right,['3'],4,0.8510910000004515,0.4,0,AccAcc,40,18,Woman,Right,
17,9,1,1.6003330000003189,['c'],0,right,['3'],4,0.8842161000011401,0.1,0,AccAcc,40,18,Woman,Right,
18,9,1,1.1000807999989775,['n'],0,left,['3'],4,1.034244000000399,0.4,0,AccAcc,40,18,Woman,Right,
19,9,1,2.1835477000004175,['n'],1,right,['3'],4,0.6012369000000035,0.4,0,AccAcc,40,18,Woman,Right,
20,9,1,3.850308600000062,['n'],0,left,['2'],5,1.1179799000001367,0.2,0,AccAcc,40,18,Woman,Right,
21,9,1,1.748978100000386,['n'],1,right,['2'],5,0.8692928000000393,0.2,0,AccAcc,40,18,Woman,Right,
22,9,1,2.083432699999321,['n'],1,right,['3'],4,0.5670976000001247,0.1,0,AccAcc,40,18,Woman,Right,
23,9,1,2.567350400000578,['n'],0,left,['3'],4,0.5012233999987075,0.2,0,AccAcc,40,18,Woman,Right,
24,9,1,1.7833346999996138,['n'],1,right,['3'],4,0.900945800000045,0.1,0,AccAcc,40,18,Woman,Right,
25,9,1,3.516799600000013,['c'],1,left,['8'],3,1.4336725000011938,0.1,0,AccAcc,40,18,Woman,Right,
26,9,1,2.700127699999939,['n'],1,right,['3'],4,0.6513882999988709,0.4,0,AccAcc,40,18,Woman,Right,
27,9,1,1.9167226999998093,['c'],0,right,['3'],4,0.9680530999994517,0.2,0,AccAcc,40,18,Woman,Right,
28,9,1,0.9654909999990196,['c'],1,left,['2'],5,0.30107500000121945,0.1,0,AccAcc,40,18,Woman,Right,
29,9,1,1.91707150000002,['c'],0,right,['1'],6,0.5179704000001948,0.1,0,AccAcc,40,18,Woman,Right,
30,9,1,2.850101599999107,['c'],1,left,['1'],6,0.9677948000007746,0.1,0,AccAcc,40,18,Woman,Right,
31,9,1,1.983443900000566,['c'],1,left,['1'],6,1.2510738000000856,0.4,0,AccAcc,40,18,Woman,Right,
32,9,1,1.25068359999932,['n'],1,right,['3'],4,1.0845681999999215,0.4,0,AccAcc,40,18,Woman,Right,
33,9,1,1.0505186000009417,['n'],0,left,['2'],5,0.7835426000001462,0.4,0,AccAcc,40,18,Woman,Right,
34,9,1,2.250522699998328,['c'],1,left,['3'],4,1.63389190000089,0.1,0,AccAcc,40,18,Woman,Right,
35,9,1,1.5001312999993388,['c'],1,left,['1'],6,0.6510247999995045,0.4,0,AccAcc,40,18,Woman,Right,
36,9,1,1.8501633999985643,['c'],1,left,['1'],6,0.8012140999999247,0.2,0,AccAcc,40,18,Woman,Right,
37,9,1,2.599578199999087,['c'],1,left,['1'],6,1.0681911000010587,0.4,0,AccAcc,40,18,Woman,Right,
38,9,1,1.7339298000006238,['c'],1,left,['1'],6,1.1678972999998223,0.2,0,AccAcc,40,18,Woman,Right,
39,9,1,1.5487281000005169,['n'],0,left,['0'],1,1.4682589000003645,0.1,0,AccAcc,40,18,Woman,Right,
40,9,1,2.267424800000299,['n'],0,left,['8'],3,1.4511842000010802,0.2,0,AccAcc,40,18,Woman,Right,
41,9,1,1.899581700001363,['n'],1,right,['3'],4,0.9347746999992523,0.1,0,AccAcc,40,18,Woman,Right,
42,9,1,1.800405399999363,['c'],0,right,['3'],4,0.9845214999986638,0.1,0,AccAcc,40,18,Woman,Right,
43,9,1,2.63225390000116,['c'],0,right,['3'],4,0.8342191000010644,0.2,0,AccAcc,40,18,Woman,Right,
44,9,1,0.9502449000010529,['n'],0,left,['9'],2,1.4841397000000143,0.2,0,AccAcc,40,18,Woman,Right,
45,9,1,2.300407799999448,['c'],0,right,['2'],5,0.7011688000002323,0.2,0,AccAcc,40,18,Woman,Right,
46,9,1,1.3995192000002135,['c'],1,left,['1'],6,0.5845778999992035,0.4,0,AccAcc,40,18,Woman,Right,
47,9,1,1.516970600001514,['c'],0,right,['2'],5,0.7178822000005312,0.4,0,AccAcc,40,18,Woman,Right,
48,9,1,2.0830076999991434,['n'],1,right,['3'],4,0.9341929000001983,0.4,0,AccAcc,40,18,Woman,Right,
49,9,1,1.1836217000000033,['n'],0,left,['1'],6,0.5009573999996064,0.1,0,AccAcc,40,18,Woman,Right,
50,9,1,1.4669484999994893,['n'],1,right,['1'],6,1.651380399998743,0.2,0,AccAcc,40,18,Woman,Right,
51,9,1,2.1829665999994177,['n'],1,right,['1'],6,1.1182685999992827,0.2,0,AccAcc,40,18,Woman,Right,
52,9,1,2.050827900000513,['n'],0,left,['1'],6,0.8172993000007409,0.4,0,AccAcc,40,18,Woman,Right,
53,9,1,4.482994199999666,['n'],0,left,['1'],6,2.4506953000000067,0.1,0,AccAcc,40,18,Woman,Right,
54,9,1,3.8330363999994006,['n'],1,right,['2'],5,1.268312700000024,0.2,0,AccAcc,40,18,Woman,Right,
55,9,1,3.966492499999731,['c'],0,right,['8'],3,1.0013366000002861,0.2,0,AccAcc,40,18,Woman,Right,
56,9,1,2.416882200001055,['c'],0,right,['2'],5,1.2843831999998656,0.4,0,AccAcc,40,18,Woman,Right,
57,9,1,1.41501849999986,['c'],0,right,['3'],4,0.8688410000013391,0.4,0,AccAcc,40,18,Woman,Right,
58,9,1,1.0835059999990335,['c'],1,left,['3'],4,0.7009606000010535,0.1,0,AccAcc,40,18,Woman,Right,
59,9,1,3.9841491999995924,['n'],0,left,['9'],2,1.701154200000019,0.2,0,AccAcc,40,18,Woman,Right,
0,10,1,0.6502568000014435,['c'],0,right,['8'],3,0.9842337999998563,0.2,0,FastAcc,40,18,Woman,Right,
1,10,1,2.333603299999595,['c'],1,left,['0'],1,1.4674509999986185,0.1,0,FastAcc,40,18,Woman,Right,
2,10,1,0.8345379999991565,['c'],1,left,['8'],3,0.9501288999999815,0.4,0,FastAcc,40,18,Woman,Right,
3,10,1,0.567176799999288,['c'],1,left,['3'],4,0.9676288000009663,0.2,0,FastAcc,40,18,Woman,Right,
4,10,1,0.43224540000119305,['c'],0,right,['3'],4,0.668244099999356,0.4,0,FastAcc,40,18,Woman,Right,
5,10,1,0.6343663000006927,['n'],1,right,['8'],3,0.9180848000014521,0.1,0,FastAcc,40,18,Woman,Right,
6,10,1,0.7834550000006857,['n'],0,left,['0'],1,1.134500799998932,0.2,0,FastAcc,40,18,Woman,Right,
7,10,1,0.41697600000043167,['c'],1,left,['9'],2,0.9344609999989189,0.2,0,FastAcc,40,18,Woman,Right,
8,10,1,0.6004486000001634,['c'],0,right,['0'],1,0.9846314999995229,0.4,0,FastAcc,40,18,Woman,Right,
9,10,1,0.6830398000001878,['n'],0,left,['9'],2,0.9183087000001251,0.1,0,FastAcc,40,18,Woman,Right,
10,10,1,0.9667336000002251,['c'],0,right,['0'],1,2.6994771999998193,0.2,0,FastAcc,40,18,Woman,Right,
11,10,1,0.6352611000002071,['c'],0,right,['0'],1,1.7507366000008915,0.4,0,FastAcc,40,18,Woman,Right,
12,10,1,0.7005851000012626,['n'],1,right,['0'],1,2.717381299999033,0.1,0,FastAcc,40,18,Woman,Right,
13,10,1,0.9164595000002009,['c'],0,right,['0'],1,1.6013198999989982,0.1,0,FastAcc,40,18,Woman,Right,
14,10,1,0.4840146000005916,['c'],1,left,['0'],1,1.8843987000000197,0.2,0,FastAcc,40,18,Woman,Right,
15,10,1,0.733306399999492,['n'],0,left,['0'],1,1.3676758000001428,0.2,0,FastAcc,40,18,Woman,Right,
16,10,1,0.4823627999994642,['c'],0,right,['8'],3,1.784409500000038,0.2,0,FastAcc,40,18,Woman,Right,
17,10,1,0.8666855999999825,['n'],0,left,['3'],4,1.1008550000005926,0.1,0,FastAcc,40,18,Woman,Right,
18,10,1,0.5829830000002403,['n'],0,left,['3'],4,0.7510018000011769,0.2,0,FastAcc,40,18,Woman,Right,
19,10,1,0.5329853000002913,['n'],1,right,['2'],5,2.1347598000011203,0.2,0,FastAcc,40,18,Woman,Right,
20,10,1,0.6154887000011513,['n'],1,right,['3'],4,1.2845077000001766,0.4,0,FastAcc,40,18,Woman,Right,
21,10,1,0.7169888000007631,['n'],1,right,['3'],4,1.1510816000009072,0.1,0,FastAcc,40,18,Woman,Right,
22,10,1,0.566860099999758,['n'],0,left,['8'],3,2.684593500000119,0.2,0,FastAcc,40,18,Woman,Right,
23,10,1,0.6326374999989639,['n'],0,left,['3'],4,1.3515105999995285,0.1,0,FastAcc,40,18,Woman,Right,
24,10,1,0.7831356999995478,['n'],1,right,['8'],3,1.0345492999986163,0.4,0,FastAcc,40,18,Woman,Right,
25,10,1,0.9672480000008363,['n'],1,right,['8'],3,1.0846878000011202,0.1,0,FastAcc,40,18,Woman,Right,
26,10,1,0.9496699999999691,['n'],0,left,['9'],2,1.034191099999589,0.1,0,FastAcc,40,18,Woman,Right,
27,10,1,0.7341546999996353,['n'],0,left,['9'],2,1.1008413999988989,0.4,0,FastAcc,40,18,Woman,Right,
28,10,1,0.6664589000010892,['n'],1,right,['9'],2,0.5016109000007418,0.2,0,FastAcc,40,18,Woman,Right,
29,10,1,0.634421900000234,['n'],0,left,['3'],4,2.8346378000005643,0.1,0,FastAcc,40,18,Woman,Right,
30,10,1,0.7339869999996154,['n'],0,left,['0'],1,1.817827799999577,0.4,0,FastAcc,40,18,Woman,Right,
31,10,1,0.6669412000010198,['n'],1,right,['9'],2,1.1682943999985582,0.2,0,FastAcc,40,18,Woman,Right,
32,10,1,0.6673598999987007,['n'],1,right,['3'],4,0.4840857999988657,0.2,0,FastAcc,40,18,Woman,Right,
33,10,1,0.43287019999843324,['n'],1,right,['2'],5,1.1847216999994998,0.1,0,FastAcc,40,18,Woman,Right,
34,10,1,0.6839224000013928,['n'],0,left,['1'],6,3.1674316999997245,0.1,0,FastAcc,40,18,Woman,Right,
35,10,1,0.6497725000008359,['n'],1,right,['2'],5,1.0508890000000974,0.1,0,FastAcc,40,18,Woman,Right,
36,10,1,0.5662315000008675,['n'],1,right,['2'],5,1.2181716000013694,0.4,0,FastAcc,40,18,Woman,Right,
37,10,1,0.6503832999987935,['n'],0,left,['3'],4,0.8010150999998586,0.1,0,FastAcc,40,18,Woman,Right,
38,10,1,0.6998399000003701,['n'],1,right,['2'],5,1.0347143999988475,0.2,0,FastAcc,40,18,Woman,Right,
39,10,1,0.7156866999994236,['n'],0,left,['2'],5,2.119041500000094,0.1,0,FastAcc,40,18,Woman,Right,
40,10,1,0.5007045999991533,['n'],0,left,['2'],5,1.8345742000001337,0.2,0,FastAcc,40,18,Woman,Right,
41,10,1,1.567299299998922,['n'],1,right,['0'],1,1.1009453999995458,0.4,0,FastAcc,40,18,Woman,Right,
42,10,1,0.41748569999981555,['n'],1,right,['8'],3,2.0339789999998175,0.4,0,FastAcc,40,18,Woman,Right,
43,10,1,0.3341000000000349,['c'],1,left,['3'],4,1.6510693000000174,0.4,0,FastAcc,40,18,Woman,Right,
44,10,1,1.3001972999991267,['n'],0,left,['9'],2,3.9342967000011413,0.1,0,FastAcc,40,18,Woman,Right,
45,10,1,0.8002092999995511,['n'],0,left,['3'],4,2.501166199999716,0.2,0,FastAcc,40,18,Woman,Right,
46,10,1,0.8503282000001491,['n'],1,right,['9'],2,2.351083200001085,0.2,0,FastAcc,40,18,Woman,Right,
47,10,1,0.7328804000007949,['n'],0,left,['3'],4,2.1511913999984245,0.4,0,FastAcc,40,18,Woman,Right,
48,10,1,0.8007699999998295,['n'],1,right,['3'],4,0.9182770999996137,0.4,0,FastAcc,40,18,Woman,Right,
49,10,1,0.8826618999992206,['n'],0,left,['3'],4,0.6181834999988496,0.4,0,FastAcc,40,18,Woman,Right,
50,10,1,0.9670385999997961,['n'],1,right,['0'],1,3.234544000000824,0.2,0,FastAcc,40,18,Woman,Right,
51,10,1,1.0331514999998035,['n'],1,right,['2'],5,1.8343740000000253,0.1,0,FastAcc,40,18,Woman,Right,
52,10,1,0.5348201999986486,['n'],1,right,['1'],6,1.250716900000043,0.1,0,FastAcc,40,18,Woman,Right,
53,10,1,0.5342199000006076,['n'],0,left,['1'],6,1.56703860000016,0.1,0,FastAcc,40,18,Woman,Right,
54,10,1,0.6335386999999173,['n'],0,left,['1'],6,2.5351762999998755,0.4,0,FastAcc,40,18,Woman,Right,
55,10,1,0.5170192000005045,['n'],0,left,['1'],6,1.7176734999993641,0.4,0,FastAcc,40,18,Woman,Right,
56,10,1,1.60015630000089,['n'],0,left,['2'],5,1.6162526000007347,0.2,0,FastAcc,40,18,Woman,Right,
57,10,1,1.0175075999995897,['n'],0,left,['2'],5,0.951213700000153,0.4,0,FastAcc,40,18,Woman,Right,
58,10,1,1.9835566999990988,['n'],1,right,['2'],5,0.7848099999991973,0.4,0,FastAcc,40,18,Woman,Right,
59,10,1,0.4334230000004027,['n'],1,right,['0'],1,1.2840926999997464,0.4,0,FastAcc,40,18,Woman,Right,
0,11,1,1.0008097999998427,['c'],0,right,['8'],3,1.6342043000004196,0.2,0,FastFast,40,18,Woman,Right,
1,11,1,0.7666587000003346,['c'],0,right,['8'],3,0.6676169999991544,0.4,0,FastFast,40,18,Woman,Right,
2,11,1,0.4837566999995033,['c'],0,right,['8'],3,0.4012629000008019,0.4,0,FastFast,40,18,Woman,Right,
3,11,1,0.5497338999994099,['c'],0,right,['3'],4,0.26796959999956016,0.1,0,FastFast,40,18,Woman,Right,
4,11,1,0.5006515000004583,['c'],0,right,['3'],4,0.35129629999937606,0.4,0,FastFast,40,18,Woman,Right,
5,11,1,0.39978549999977986,['c'],1,left,['3'],4,0.3011960000003455,0.1,0,FastFast,40,18,Woman,Right,
6,11,1,0.7329773000001296,['c'],1,left,['8'],3,0.6835742000002938,0.1,0,FastFast,40,18,Woman,Right,
7,11,1,0.3172129999984463,['c'],1,left,['3'],4,0.38377589999981865,0.1,0,FastFast,40,18,Woman,Right,
8,11,1,0.366926799999419,['c'],0,right,['8'],3,0.3516027999994549,0.4,0,FastFast,40,18,Woman,Right,
9,11,1,0.31685189999916474,['c'],1,left,['9'],2,0.36793949999992037,0.2,0,FastFast,40,18,Woman,Right,
10,11,1,0.36696070000107284,['c'],1,left,['2'],5,0.38441559999955643,0.2,0,FastFast,40,18,Woman,Right,
11,11,1,0.4504308999985369,['c'],1,left,['3'],4,0.4176251000008051,0.1,0,FastFast,40,18,Woman,Right,
12,11,1,0.4004183999986708,['c'],0,right,['3'],4,0.3345499999995809,0.4,0,FastFast,40,18,Woman,Right,
13,11,1,0.5000985999995464,['c'],1,left,['8'],3,0.20143980000102601,0.2,0,FastFast,40,18,Woman,Right,
14,11,1,0.33248749999984284,['n'],0,left,['0'],1,1.001054700000168,0.1,0,FastFast,40,18,Woman,Right,
15,11,1,0.3667593999998644,['c'],1,left,['9'],2,0.3009370999989187,0.1,0,FastFast,40,18,Woman,Right,
16,11,1,0.5665211000014096,['c'],0,right,['8'],3,0.384612300000299,0.4,0,FastFast,40,18,Woman,Right,
17,11,1,0.5343135000002803,['c'],1,left,['3'],4,0.4679125999991811,0.2,0,FastFast,40,18,Woman,Right,
18,11,1,0.5674120000003313,['c'],0,right,['3'],4,0.4013431999992463,0.1,0,FastFast,40,18,Woman,Right,
19,11,1,0.5665501000003133,['n'],1,right,['8'],3,1.0172915000002831,0.4,0,FastFast,40,18,Woman,Right,
20,11,1,0.633569699999498,['c'],1,left,['3'],4,0.38454280000041763,0.2,0,FastFast,40,18,Woman,Right,
21,11,1,0.9501802000013413,['n'],0,left,['8'],3,0.334737999999561,0.1,0,FastFast,40,18,Woman,Right,
22,11,1,0.6666015000009793,['n'],0,left,['3'],4,0.3680337999994663,0.2,0,FastFast,40,18,Woman,Right,
23,11,1,0.6336413999997603,['n'],1,right,['3'],4,0.30123599999933504,0.4,0,FastFast,40,18,Woman,Right,
24,11,1,0.6003830000008747,['n'],0,left,['3'],4,0.23378090000005614,0.2,0,FastFast,40,18,Woman,Right,
25,11,1,0.43382349999956205,['n'],0,left,['8'],3,0.26780710000093677,0.4,0,FastFast,40,18,Woman,Right,
26,11,1,0.3839931999991677,['n'],1,right,['8'],3,0.28451439999844297,0.4,0,FastFast,40,18,Woman,Right,
27,11,1,0.3841035000004922,['n'],1,right,['8'],3,0.2678328000001784,0.4,0,FastFast,40,18,Woman,Right,
28,11,1,0.3989008999997168,['n'],1,right,['9'],2,0.2680758999995305,0.4,0,FastFast,40,18,Woman,Right,
29,11,1,0.3333870000005845,['n'],1,right,['0'],1,0.2846048999999766,0.1,0,FastFast,40,18,Woman,Right,
30,11,1,0.4334971999996924,['n'],1,right,['8'],3,0.33460440000089875,0.2,0,FastFast,40,18,Woman,Right,
31,11,1,0.8504780999992363,['n'],0,left,['9'],2,1.0505585999999312,0.1,0,FastFast,40,18,Woman,Right,
32,11,1,0.9000269999996817,['n'],1,right,['8'],3,0.3845621000000392,0.2,0,FastFast,40,18,Woman,Right,
33,11,1,0.4501834000002418,['n'],1,right,['9'],2,0.38396539999848756,0.4,0,FastFast,40,18,Woman,Right,
34,11,1,0.6836513000016566,['n'],1,right,['8'],3,0.23380209999959334,0.4,0,FastFast,40,18,Woman,Right,
35,11,1,0.4339682999998331,['n'],0,left,['8'],3,0.3177623000010499,0.2,0,FastFast,40,18,Woman,Right,
36,11,1,0.46721849999994447,['n'],1,right,['9'],2,0.400801899999351,0.1,0,FastFast,40,18,Woman,Right,
37,11,1,0.5499893000014708,['n'],0,left,['3'],4,0.26652760000069975,0.1,0,FastFast,40,18,Woman,Right,
38,11,1,0.5014955999995436,['n'],1,right,['3'],4,0.4671702000014193,0.2,0,FastFast,40,18,Woman,Right,
39,11,1,0.48360259999935806,['n'],1,right,['3'],4,0.28390089999993506,0.1,0,FastFast,40,18,Woman,Right,
40,11,1,0.9662650999998732,['n'],1,right,['3'],4,0.38474830000086513,0.2,0,FastFast,40,18,Woman,Right,
41,11,1,0.5662209000001894,['n'],0,left,['9'],2,0.2848178000003827,0.2,0,FastFast,40,18,Woman,Right,
42,11,1,0.7163545999992493,['n'],0,left,['0'],1,0.302297100000942,0.1,0,FastFast,40,18,Woman,Right,
43,11,1,0.5335766000007425,['n'],0,left,['9'],2,0.3674826000005851,0.1,0,FastFast,40,18,Woman,Right,
44,11,1,0.6658246000006329,['n'],0,left,['9'],2,0.3679548000000068,0.1,0,FastFast,40,18,Woman,Right,
45,11,1,0.9008075000001554,['n'],0,left,['9'],2,0.33463560000018333,0.2,0,FastFast,40,18,Woman,Right,
46,11,1,0.7336047000007966,['n'],1,right,['9'],2,0.2845400000005611,0.2,0,FastFast,40,18,Woman,Right,
47,11,1,0.7332780999986426,['c'],1,left,['9'],2,0.46805719999974826,0.2,0,FastFast,40,18,Woman,Right,
48,11,1,0.6003118999997241,['c'],0,right,['9'],2,0.2847775999998703,0.4,0,FastFast,40,18,Woman,Right,
49,11,1,0.8007120000002033,['n'],1,right,['9'],2,0.4679783999999927,0.4,0,FastFast,40,18,Woman,Right,
50,11,1,1.2170021000001725,['n'],1,right,['9'],2,0.28467640000053507,0.4,0,FastFast,40,18,Woman,Right,
51,11,1,1.8995552999986103,['n'],0,left,['9'],2,0.2677218000007997,0.1,0,FastFast,40,18,Woman,Right,
52,11,1,0.449704999999085,['n'],0,left,['9'],2,0.268164600000091,0.4,0,FastFast,40,18,Woman,Right,
53,11,1,0.549130100000184,['n'],0,left,['9'],2,0.36861900000076275,0.4,0,FastFast,40,18,Woman,Right,
54,11,1,0.6004673999996157,['n'],1,right,['8'],3,0.40133180000157154,0.2,0,FastFast,40,18,Woman,Right,
55,11,1,0.46698149999974703,['n'],0,left,['8'],3,0.3344379999998637,0.1,0,FastFast,40,18,Woman,Right,
56,11,1,0.45068259999970905,['n'],0,left,['3'],4,0.25099629999931494,0.2,0,FastFast,40,18,Woman,Right,
57,11,1,0.4670676999994612,['n'],0,left,['3'],4,0.20037390000106825,0.1,0,FastFast,40,18,Woman,Right,
58,11,1,0.9843612999993638,['n'],1,right,['8'],3,0.31737190000058035,0.4,0,FastFast,40,18,Woman,Right,
59,11,1,0.7164609999999811,['c'],0,right,['9'],2,0.6679275999995298,0.2,0,FastFast,40,18,Woman,Right,
0,12,1,2.2667118000008486,['c'],1,left,['9'],2,1.4014033999992535,0.2,0,AccFast,40,18,Woman,Right,
1,12,1,2.583569799999168,['c'],0,right,['3'],4,0.8843885999995109,0.1,0,AccFast,40,18,Woman,Right,
2,12,1,0.5996922000013001,['n'],1,right,['3'],4,1.06798180000078,0.4,0,AccFast,40,18,Woman,Right,
3,12,1,2.8161510999998427,['n'],1,right,['8'],3,3.5180754000011802,0.4,0,AccFast,40,18,Woman,Right,
4,12,1,2.6493351999997685,['n'],1,right,['9'],2,0.6681946999997308,0.4,0,AccFast,40,18,Woman,Right,
5,12,1,1.4663150000014866,['n'],1,right,['8'],3,0.2680710000004183,0.1,0,AccFast,40,18,Woman,Right,
6,12,1,1.517483400000856,['n'],0,left,['8'],3,0.40126000000054773,0.4,0,AccFast,40,18,Woman,Right,
7,12,1,2.018001500000537,['n'],1,right,['2'],5,0.8830045000013342,0.1,0,AccFast,40,18,Woman,Right,
8,12,1,2.2175662999998167,['n'],0,left,['3'],4,0.7509368000009999,0.2,0,AccFast,40,18,Woman,Right,
9,12,1,1.9337590000013734,['c'],0,right,['2'],5,1.0345245999997132,0.2,0,AccFast,40,18,Woman,Right,
10,12,1,1.5176092999990942,['c'],0,right,['2'],5,0.5010233000011795,0.2,0,AccFast,40,18,Woman,Right,
11,12,1,1.400410500000362,['c'],0,right,['3'],4,0.3847221999985777,0.2,0,AccFast,40,18,Woman,Right,
12,12,1,0.8498321999995824,['c'],1,left,"['3', '2']",4,0.3351638999993156,0.2,0,AccFast,40,18,Woman,Right,
13,12,1,2.5500433999986853,['n'],1,right,['2'],5,0.5846995000010793,0.1,0,AccFast,40,18,Woman,Right,
14,12,1,1.5000111999997898,['n'],0,left,['3'],4,0.5847644999994372,0.4,0,AccFast,40,18,Woman,Right,
15,12,1,3.999572900000203,['n'],0,left,['3'],4,0.3177850000010949,0.2,0,AccFast,40,18,Woman,Right,
16,12,1,2.333277100000487,['n'],0,left,['3'],4,0.3341610999996192,0.1,0,AccFast,40,18,Woman,Right,
17,12,1,5.015682899998865,x,-99,right,none,-99,-99,0.1,1,AccFast,40,18,Woman,Right,
18,12,1,1.8669676999998046,['n'],0,left,['8'],3,2.4681369999998424,0.1,0,AccFast,40,18,Woman,Right,
19,12,1,2.950005599999713,['n'],0,left,['8'],3,0.6345629999996163,0.1,0,AccFast,40,18,Woman,Right,
20,12,1,0.8336279999984981,['n'],0,left,['8'],3,0.2004292000001442,0.2,0,AccFast,40,18,Woman,Right,
21,12,1,2.565900400000828,['n'],1,right,['8'],3,0.23497429999952146,0.2,0,AccFast,40,18,Woman,Right,
22,12,1,3.4166405999985727,['c'],1,left,['2'],5,0.5346425999996427,0.2,0,AccFast,40,18,Woman,Right,
23,12,1,2.632977299999766,['n'],1,right,['3'],4,0.4516665999999532,0.4,0,AccFast,40,18,Woman,Right,
24,12,1,2.048809699999765,['n'],0,left,['8'],3,0.2513051000005362,0.2,0,AccFast,40,18,Woman,Right,
25,12,1,1.1004783999997017,['n'],1,right,['8'],3,0.18447240000023157,0.4,0,AccFast,40,18,Woman,Right,
26,12,1,2.266637799999444,['n'],1,right,['8'],3,0.38466580000022077,0.1,0,AccFast,40,18,Woman,Right,
27,12,1,1.9999896999997873,['n'],0,left,['8'],3,0.21777660000043397,0.1,0,AccFast,40,18,Woman,Right,
28,12,1,1.2501506999997218,['n'],0,left,['8'],3,0.26772990000063146,0.4,0,AccFast,40,18,Woman,Right,
29,12,1,0.9003339000009873,['n'],0,left,['3'],4,0.2011687999984133,0.4,0,AccFast,40,18,Woman,Right,
30,12,1,0.9003874999998516,['n'],0,left,['3'],4,0.6179175000015675,0.2,0,AccFast,40,18,Woman,Right,
31,12,1,1.0170701000006375,['n'],1,right,['3'],4,0.368031100000735,0.4,0,AccFast,40,18,Woman,Right,
32,12,1,0.7672363000001496,['n'],1,right,['3'],4,0.36776600000121107,0.1,0,AccFast,40,18,Woman,Right,
33,12,1,0.6169417000000976,['n'],0,left,['8'],3,0.3506130999994639,0.1,0,AccFast,40,18,Woman,Right,
34,12,1,2.1672311000002082,['n'],0,left,['3'],4,0.151072299999214,0.1,0,AccFast,40,18,Woman,Right,
35,12,1,1.5006274999996094,['n'],0,left,['8'],3,0.38386200000059034,0.2,0,AccFast,40,18,Woman,Right,
36,12,1,1.4499692000008508,['n'],1,right,['3'],4,0.16775980000056734,0.4,0,AccFast,40,18,Woman,Right,
37,12,1,0.9324158999988867,['n'],1,right,['3'],4,0.1506877000010718,0.1,0,AccFast,40,18,Woman,Right,
38,12,1,2.3334350000004633,['n'],0,left,['3'],4,0.13496670000131417,0.4,0,AccFast,40,18,Woman,Right,
39,12,1,1.2996583000003739,['n'],1,right,['2'],5,0.1678855999998632,0.2,0,AccFast,40,18,Woman,Right,
40,12,1,0.9671543000004021,['n'],1,right,['2'],5,0.11810510000032082,0.4,0,AccFast,40,18,Woman,Right,
41,12,1,0.5333989000009751,['c'],1,left,['2'],5,0.20114990000001853,0.1,0,AccFast,40,18,Woman,Right,
42,12,1,0.6670178000003943,['c'],0,right,['2'],5,0.20122249999985797,0.2,0,AccFast,40,18,Woman,Right,
43,12,1,1.1496341000001848,['c'],0,right,['2'],5,0.15151020000121207,0.2,0,AccFast,40,18,Woman,Right,
44,12,1,1.0343247999990126,['c'],1,left,['2'],5,0.18446079999921494,0.4,0,AccFast,40,18,Woman,Right,
45,12,1,0.8834446000000753,['c'],0,right,['2'],5,0.15129530000012892,0.1,0,AccFast,40,18,Woman,Right,
46,12,1,0.9834214999991673,['c'],1,left,['2'],5,0.15129090000118595,0.4,0,AccFast,40,18,Woman,Right,
47,12,1,1.8163425000002462,['c'],0,right,['2'],5,0.5511707000005117,0.4,0,AccFast,40,18,Woman,Right,
48,12,1,0.6837613999996393,['c'],0,right,['2'],5,0.21770010000000184,0.2,0,AccFast,40,18,Woman,Right,
49,12,1,0.7498549000010826,['c'],0,right,['3'],4,0.25133029999960854,0.4,0,AccFast,40,18,Woman,Right,
50,12,1,0.6008158000004187,['c'],1,left,['3'],4,0.18458519999876444,0.4,0,AccFast,40,18,Woman,Right,
51,12,1,0.8830964000007953,['c'],0,right,['3'],4,0.1675926999996591,0.1,0,AccFast,40,18,Woman,Right,
52,12,1,1.6510042999998404,['c'],1,left,['3'],4,0.23428270000113116,0.1,0,AccFast,40,18,Woman,Right,
53,12,1,1.7828800000006595,['c'],0,right,['3'],4,0.18508209999890823,0.2,0,AccFast,40,18,Woman,Right,
54,12,1,1.7002511999999115,['c'],1,left,['3'],4,0.23457910000070115,0.2,0,AccFast,40,18,Woman,Right,
55,12,1,0.8000627000001259,['c'],1,left,['3'],4,0.21684459999960382,0.1,0,AccFast,40,18,Woman,Right,
56,12,1,1.333011599999736,['c'],1,left,['3'],4,0.18442989999857673,0.4,0,AccFast,40,18,Woman,Right,
57,12,1,0.61641839999902,['n'],1,right,['8'],3,0.26826679999976477,0.4,0,AccFast,40,18,Woman,Right,
58,12,1,2.6666069999992033,['c'],1,left,['3'],4,0.2510615000010148,0.2,0,AccFast,40,18,Woman,Right,
59,12,1,1.200393899998744,['n'],0,left,['3'],4,0.7844294999995327,0.1,0,AccFast,40,18,Woman,Right,
0,13,1,2.7840834999988147,['n'],1,right,['1'],6,3.084539199999199,0.4,0,AccAcc,40,18,Woman,Right,
1,13,1,1.833598000001075,['c'],1,left,['1'],6,1.567630999999892,0.2,0,AccAcc,40,18,Woman,Right,
2,13,1,1.099881500000265,['c'],1,left,['2'],5,0.8347272999999404,0.4,0,AccAcc,40,18,Woman,Right,
3,13,1,1.5494304999992892,['c'],1,left,['1'],6,0.9013433000000077,0.1,0,AccAcc,40,18,Woman,Right,
4,13,1,1.8336722999993071,['c'],1,left,['2'],5,1.067731699999058,0.2,0,AccAcc,40,18,Woman,Right,
5,13,1,1.5173816999995324,['c'],0,right,['2'],5,0.5513677000017196,0.1,0,AccAcc,40,18,Woman,Right,
6,13,1,1.7173689999999624,['c'],1,left,['2'],5,0.5677857999999105,0.4,0,AccAcc,40,18,Woman,Right,
7,13,1,1.4002290999997058,['c'],1,left,['2'],5,0.6671858999998221,0.2,0,AccAcc,40,18,Woman,Right,
8,13,1,2.065609299999778,['n'],1,right,['3'],4,1.0516434999990452,0.1,0,AccAcc,40,18,Woman,Right,
9,13,1,1.0327409000001353,['n'],1,right,['1'],6,1.0678804999988643,0.1,0,AccAcc,40,18,Woman,Right,
10,13,1,2.133638899998914,['n'],1,right,['2'],5,0.9510325000010198,0.4,0,AccAcc,40,18,Woman,Right,
11,13,1,1.0000414999994973,['n'],1,right,['1'],6,0.8682602999997471,0.2,0,AccAcc,40,18,Woman,Right,
12,13,1,0.73363849999987,['n'],0,left,['1'],6,0.7512148000005254,0.2,0,AccAcc,40,18,Woman,Right,
13,13,1,3.9159591999996337,['n'],1,right,['1'],6,1.2348084000004746,0.1,0,AccAcc,40,18,Woman,Right,
14,13,1,2.0666421000005357,['n'],0,left,['3'],4,3.3845320000000356,0.2,0,AccAcc,40,18,Woman,Right,
15,13,1,1.2833727999986877,['n'],1,right,['2'],5,2.5510315999999875,0.2,0,AccAcc,40,18,Woman,Right,
16,13,1,2.582845599999928,['n'],0,left,['1'],6,1.1511055999999371,0.4,0,AccAcc,40,18,Woman,Right,
17,13,1,1.3002520999998524,['n'],1,right,['1'],6,1.7509472999990976,0.4,0,AccAcc,40,18,Woman,Right,
18,13,1,1.3161510999998427,['n'],0,left,['2'],5,3.017517600001156,0.4,0,AccAcc,40,18,Woman,Right,
19,13,1,1.6174350999990565,['n'],0,left,['8'],3,1.0674732999996195,0.4,0,AccAcc,40,18,Woman,Right,
20,13,1,1.3494151999984751,['n'],1,right,['2'],5,1.4678420999989612,0.2,0,AccAcc,40,18,Woman,Right,
21,13,1,0.6834667999992234,['c'],0,right,['2'],5,1.1846199000010529,0.4,0,AccAcc,40,18,Woman,Right,
22,13,1,1.1666827000008198,['c'],1,left,['2'],5,0.45128199999999197,0.4,0,AccAcc,40,18,Woman,Right,
23,13,1,0.8668601000008493,['c'],1,left,['2'],5,0.5846029999993334,0.4,0,AccAcc,40,18,Woman,Right,
24,13,1,1.050737499999741,['c'],1,left,['1'],6,0.7666642999993201,0.2,0,AccAcc,40,18,Woman,Right,
25,13,1,0.9508022999998502,['c'],0,right,['1'],6,0.6842528999986826,0.4,0,AccAcc,40,18,Woman,Right,
26,13,1,0.8502320000006875,['c'],1,left,['1'],6,0.8346020000008139,0.4,0,AccAcc,40,18,Woman,Right,
27,13,1,1.683526200000415,['c'],1,left,['8'],3,2.017738599999575,0.4,0,AccAcc,40,18,Woman,Right,
28,13,1,1.7667762000000948,['c'],0,right,['9'],2,1.4343102000002546,0.2,0,AccAcc,40,18,Woman,Right,
29,13,1,2.050286800000322,['c'],1,left,['9'],2,1.2345597000003181,0.4,0,AccAcc,40,18,Woman,Right,
30,13,1,1.883834399999614,['c'],1,left,['2'],5,0.9179762000003393,0.4,0,AccAcc,40,18,Woman,Right,
31,13,1,0.8671408000009251,['c'],1,left,['1'],6,0.6845544999996491,0.2,0,AccAcc,40,18,Woman,Right,
32,13,1,1.4829946000008931,['c'],1,left,['1'],6,0.9679555999991862,0.1,0,AccAcc,40,18,Woman,Right,
33,13,1,1.3670084000004863,['c'],0,right,['1'],6,0.9178801999987627,0.2,0,AccAcc,40,18,Woman,Right,
34,13,1,1.0667995999992854,['c'],0,right,['2'],5,1.4511550999995961,0.1,0,AccAcc,40,18,Woman,Right,
35,13,1,1.1335467000008066,['c'],0,right,['2'],5,0.851666300000943,0.1,0,AccAcc,40,18,Woman,Right,
36,13,1,1.349664199999097,['c'],0,right,['2'],5,0.9838173999996798,0.4,0,AccAcc,40,18,Woman,Right,
37,13,1,1.1336871000003157,['c'],1,left,['2'],5,0.8845725999999559,0.1,0,AccAcc,40,18,Woman,Right,
38,13,1,2.1504512000010436,['c'],0,right,['1'],6,0.7844494999990275,0.1,0,AccAcc,40,18,Woman,Right,
39,13,1,1.3665356999990763,['c'],0,right,['1'],6,0.9181946000007883,0.2,0,AccAcc,40,18,Woman,Right,
40,13,1,0.917322500001319,['c'],1,left,['1'],6,0.5005985999996483,0.1,0,AccAcc,40,18,Woman,Right,
41,13,1,1.500158900000315,['c'],1,left,['2'],5,0.6681722000012087,0.2,0,AccAcc,40,18,Woman,Right,
42,13,1,0.9669225999987248,['c'],1,left,['2'],5,1.2345789000009972,0.1,0,AccAcc,40,18,Woman,Right,
43,13,1,1.4326975000003586,['n'],1,right,['3'],4,1.7688085000008869,0.4,0,AccAcc,40,18,Woman,Right,
44,13,1,1.4337114000009024,['n'],1,right,['2'],5,1.2512170999998489,0.1,0,AccAcc,40,18,Woman,Right,
45,13,1,3.550140499999543,['n'],1,right,['0'],1,1.016991099999359,0.2,0,AccAcc,40,18,Woman,Right,
46,13,1,1.883475599999656,['n'],0,left,['2'],5,0.8176387999992585,0.1,0,AccAcc,40,18,Woman,Right,
47,13,1,1.8175676999999268,['n'],1,right,['2'],5,0.4178812999998627,0.4,0,AccAcc,40,18,Woman,Right,
48,13,1,3.1662395000003016,['n'],1,right,['2'],5,0.5176410999993095,0.1,0,AccAcc,40,18,Woman,Right,
49,13,1,3.4001491999988502,['n'],0,left,['2'],5,2.1168462999994517,0.1,0,AccAcc,40,18,Woman,Right,
50,13,1,1.8828001000001677,['n'],1,right,['2'],5,0.7842078000012407,0.1,0,AccAcc,40,18,Woman,Right,
51,13,1,4.067058200000247,['c'],1,left,['1'],6,1.2680200000013429,0.1,0,AccAcc,40,18,Woman,Right,
52,13,1,3.7491513999993913,['c'],0,right,['2'],5,0.6848028999993403,0.2,0,AccAcc,40,18,Woman,Right,
53,13,1,1.7172477999993134,['c'],1,left,['3'],4,0.7676967000006698,0.2,0,AccAcc,40,18,Woman,Right,
54,13,1,3.0334880000009434,['c'],0,right,['3'],4,1.4844154000002163,0.1,0,AccAcc,40,18,Woman,Right,
55,13,1,1.5834111000003759,['c'],0,right,['2'],5,0.4679214999996475,0.1,0,AccAcc,40,18,Woman,Right,
56,13,1,2.59971140000016,['c'],1,left,['9'],2,1.1339637999990373,0.4,0,AccAcc,40,18,Woman,Right,
57,13,1,1.2496179000008851,['c'],1,left,['2'],5,0.866958300000988,0.2,0,AccAcc,40,18,Woman,Right,
58,13,1,1.0328957000001537,['c'],0,right,['1'],6,0.31799920000048587,0.2,0,AccAcc,40,18,Woman,Right,
59,13,1,1.550290600000153,['c'],0,right,['1'],6,0.6183758999995916,0.2,0,AccAcc,40,18,Woman,Right,
0,14,1,0.6336510999990423,['c'],1,left,['2'],5,1.9344578000000183,0.1,0,FastAcc,40,18,Woman,Right,
1,14,1,1.3335139999999228,['c'],0,right,['2'],5,1.517166300000099,0.2,0,FastAcc,40,18,Woman,Right,
2,14,1,0.4000058000001445,['c'],1,left,['3'],4,2.068005199998879,0.4,0,FastAcc,40,18,Woman,Right,
3,14,1,1.0661975999992137,['c'],1,left,['3'],4,0.7685740000015358,0.4,0,FastAcc,40,18,Woman,Right,
4,14,1,0.949674600000435,['c'],1,left,['3'],4,1.4187056000009761,0.4,0,FastAcc,40,18,Woman,Right,
5,14,1,0.6322384000013699,['c'],1,left,['3'],4,0.7510402000007161,0.1,0,FastAcc,40,18,Woman,Right,
6,14,1,1.3501294999987294,['c'],1,left,['1'],6,3.2175827999999456,0.2,0,FastAcc,40,18,Woman,Right,
7,14,1,1.3340068999987125,['c'],0,right,['2'],5,1.2504950999991706,0.4,0,FastAcc,40,18,Woman,Right,
8,14,1,0.8163996000002953,['c'],1,left,['2'],5,1.6514200000001438,0.2,0,FastAcc,40,18,Woman,Right,
9,14,1,0.9336748000005173,['c'],1,left,['3'],4,1.234017099999619,0.2,0,FastAcc,40,18,Woman,Right,
10,14,1,0.7673856999990676,['c'],0,right,['8'],3,0.6344525999993493,0.1,0,FastAcc,40,18,Woman,Right,
11,14,1,0.48386889999892446,['c'],0,right,['8'],3,0.5015600000006089,0.2,0,FastAcc,40,18,Woman,Right,
12,14,1,1.4501952000009624,['c'],0,right,['3'],4,3.2344145000006392,0.4,0,FastAcc,40,18,Woman,Right,
13,14,1,3.58245800000077,['c'],1,left,['0'],1,1.9009161999983917,0.4,0,FastAcc,40,18,Woman,Right,
14,14,1,0.6998719000002893,['c'],1,left,['8'],3,0.5014442000010604,0.1,0,FastAcc,40,18,Woman,Right,
15,14,1,0.8338210000001709,['c'],0,right,['9'],2,2.0837401999997383,0.1,0,FastAcc,40,18,Woman,Right,
16,14,1,0.5165883999998186,['c'],0,right,['9'],2,1.967702100000679,0.4,0,FastAcc,40,18,Woman,Right,
17,14,1,0.43328760000076727,['n'],0,left,['9'],2,1.0008937000002334,0.2,0,FastAcc,40,18,Woman,Right,
18,14,1,0.450151699998969,['n'],0,left,['0'],1,1.000876199999766,0.1,0,FastAcc,40,18,Woman,Right,
19,14,1,0.36664999999993597,['c'],0,right,['0'],1,1.784345399999438,0.2,0,FastAcc,40,18,Woman,Right,
20,14,1,0.5338487999997596,['c'],0,right,['8'],3,1.9510759999993752,0.4,0,FastAcc,40,18,Woman,Right,
21,14,1,0.8337446000005002,['c'],1,left,['9'],2,1.7174192000002222,0.4,0,FastAcc,40,18,Woman,Right,
22,14,1,1.6169002999995428,['c'],1,left,['9'],2,0.5335405000005267,0.2,0,FastAcc,40,18,Woman,Right,
23,14,1,0.4335958000010578,['c'],1,left,['9'],2,0.9176121000000421,0.1,0,FastAcc,40,18,Woman,Right,
24,14,1,1.2665099000005284,['n'],1,right,['0'],1,1.2510023000013462,0.1,0,FastAcc,40,18,Woman,Right,
25,14,1,0.43400560000009136,['c'],1,left,['0'],1,0.6344522000017605,0.4,0,FastAcc,40,18,Woman,Right,
26,14,1,1.8997675000009622,['c'],0,right,['8'],3,1.284347599999819,0.2,0,FastAcc,40,18,Woman,Right,
27,14,1,1.3003905000005034,['c'],1,left,['9'],2,1.0679659000015818,0.1,0,FastAcc,40,18,Woman,Right,
28,14,1,1.4835036999993463,['n'],1,right,['3'],4,2.000559300000532,0.2,0,FastAcc,40,18,Woman,Right,
29,14,1,1.0333404000011797,['c'],0,right,['2'],5,2.834253400000307,0.2,0,FastAcc,40,18,Woman,Right,
30,14,1,0.46655639999880805,['c'],0,right,['2'],5,2.5507084999990184,0.1,0,FastAcc,40,18,Woman,Right,
31,14,1,0.5504662000003009,['c'],1,left,['2'],5,3.1841512999999395,0.4,0,FastAcc,40,18,Woman,Right,
32,14,1,0.41637640000044485,['c'],0,right,['2'],5,0.734979699998803,0.1,0,FastAcc,40,18,Woman,Right,
33,14,1,0.8499586999987514,['c'],1,left,['3'],4,1.901025799999843,0.4,0,FastAcc,40,18,Woman,Right,
34,14,1,1.250059500000134,['c'],0,right,['3'],4,1.9165147000003344,0.4,0,FastAcc,40,18,Woman,Right,
35,14,1,0.3013857999994798,['n'],1,right,['8'],3,0.7844081999992341,0.4,0,FastAcc,40,18,Woman,Right,
36,14,1,0.7670183999998699,['n'],0,left,['3'],4,2.6010601000016322,0.1,0,FastAcc,40,18,Woman,Right,
37,14,1,0.6000425000001997,['n'],0,left,['9'],2,1.5011869999998453,0.2,0,FastAcc,40,18,Woman,Right,
38,14,1,0.8669468000007328,['n'],1,right,['3'],4,1.084593200001109,0.1,0,FastAcc,40,18,Woman,Right,
39,14,1,0.36752290000003995,['n'],1,right,['3'],4,4.117635000000519,0.1,0,FastAcc,40,18,Woman,Right,
40,14,1,0.34990039999865985,['n'],1,right,['3'],4,0.8006984000003285,0.1,0,FastAcc,40,18,Woman,Right,
41,14,1,0.3842254999999568,['n'],0,left,['8'],3,0.38467280000077153,0.4,0,FastAcc,40,18,Woman,Right,
42,14,1,0.4671825000004901,['n'],1,right,['2'],5,3.184236299999611,0.4,0,FastAcc,40,18,Woman,Right,
43,14,1,0.7838185000000522,['n'],0,left,['3'],4,3.2509666999994806,0.2,0,FastAcc,40,18,Woman,Right,
44,14,1,0.6505595999988145,['n'],0,left,['9'],2,0.8669456999996328,0.4,0,FastAcc,40,18,Woman,Right,
45,14,1,0.36729620000005525,['n'],0,left,['3'],4,0.9344566999989183,0.4,0,FastAcc,40,18,Woman,Right,
46,14,1,0.5837377000007109,['n'],1,right,['3'],4,1.185526999999638,0.2,0,FastAcc,40,18,Woman,Right,
47,14,1,0.7674404000008508,['c'],1,left,['0'],1,1.2844866000014008,0.1,0,FastAcc,40,18,Woman,Right,
48,14,1,0.5839969999997265,['n'],0,left,['8'],3,1.2173925999995845,0.2,0,FastAcc,40,18,Woman,Right,
49,14,1,0.884060699998372,['n'],1,right,['9'],2,1.4012167000000773,0.2,0,FastAcc,40,18,Woman,Right,
50,14,1,0.6336771000005683,['n'],0,left,['3'],4,0.33449929999915184,0.1,0,FastAcc,40,18,Woman,Right,
51,14,1,0.7165894999998272,['n'],1,right,['2'],5,1.5343417999993108,0.1,0,FastAcc,40,18,Woman,Right,
52,14,1,0.6332284999989497,['n'],1,right,['2'],5,0.7845646999994642,0.4,0,FastAcc,40,18,Woman,Right,
53,14,1,0.5996309000001929,['n'],0,left,['3'],4,0.5849108999991586,0.2,0,FastAcc,40,18,Woman,Right,
54,14,1,0.5171688999998878,['n'],1,right,['3'],4,0.6331600000012259,0.4,0,FastAcc,40,18,Woman,Right,
55,14,1,0.6504091000006156,['n'],1,right,['3'],4,0.700746500000605,0.1,0,FastAcc,40,18,Woman,Right,
56,14,1,0.3338487000000896,['n'],1,right,['2'],5,0.3848851000002469,0.1,0,FastAcc,40,18,Woman,Right,
57,14,1,0.40033060000132537,['n'],1,right,['1'],6,2.000288499999442,0.2,0,FastAcc,40,18,Woman,Right,
58,14,1,0.31636019999859855,['n'],1,right,['2'],5,1.001152799999545,0.2,0,FastAcc,40,18,Woman,Right,
59,14,1,0.3994254999997793,['n'],0,left,['3'],4,0.4683222999992722,0.2,0,FastAcc,40,18,Woman,Right,
0,15,1,0.9341010999996797,['n'],1,right,['3'],4,1.3846142000002146,0.4,0,FastFast,40,18,Woman,Right,
1,15,1,0.434206500000073,['n'],1,right,['9'],2,0.4174984000001132,0.4,0,FastFast,40,18,Woman,Right,
2,15,1,0.6172532000000501,['n'],1,right,['3'],4,0.6680290000003879,0.1,0,FastFast,40,18,Woman,Right,
3,15,1,0.4005577000007179,['n'],1,right,['2'],5,0.3510487000003195,0.4,0,FastFast,40,18,Woman,Right,
4,15,1,0.41700780000064697,['n'],1,right,['3'],4,0.38452030000007653,0.2,0,FastFast,40,18,Woman,Right,
5,15,1,0.5002944999996544,['n'],1,right,['3'],4,0.15140679999967688,0.4,0,FastFast,40,18,Woman,Right,
6,15,1,0.45028199999978824,['n'],0,left,['3'],4,0.11791770000127144,0.1,0,FastFast,40,18,Woman,Right,
7,15,1,0.9165960999998788,['n'],1,right,['3'],4,0.16783679999934975,0.1,0,FastFast,40,18,Woman,Right,
8,15,1,0.5004714999995485,['n'],1,right,['8'],3,0.23453729999891948,0.1,0,FastFast,40,18,Woman,Right,
9,15,1,0.5668764999991254,['n'],1,right,['8'],3,0.317604100000608,0.2,0,FastFast,40,18,Woman,Right,
10,15,1,0.46737860000030196,['n'],0,left,['8'],3,0.2346843000013905,0.4,0,FastFast,40,18,Woman,Right,
11,15,1,0.5166024999998626,['n'],0,left,['8'],3,0.2513314000007085,0.4,0,FastFast,40,18,Woman,Right,
12,15,1,0.5003925000000891,['n'],0,left,['8'],3,0.28370059999906516,0.2,0,FastFast,40,18,Woman,Right,
13,15,1,0.5511162000002514,['n'],0,left,['8'],3,0.23366449999957695,0.4,0,FastFast,40,18,Woman,Right,
14,15,1,0.7172050999997737,['n'],1,right,['8'],3,0.21818979999989097,0.2,0,FastFast,40,18,Woman,Right,
15,15,1,0.6504055000004882,['n'],0,left,['3'],4,0.4172484999999142,0.1,0,FastFast,40,18,Woman,Right,
16,15,1,0.4673099000010552,['n'],0,left,['3'],4,0.18391960000008112,0.4,0,FastFast,40,18,Woman,Right,
17,15,1,0.6337010000006558,['n'],0,left,['0'],1,0.3509641999989981,0.2,0,FastFast,40,18,Woman,Right,
18,15,1,0.46638399999937974,['n'],1,right,['0'],1,0.20136339999953634,0.1,0,FastFast,40,18,Woman,Right,
19,15,1,0.5494010999991588,['n'],0,left,['0'],1,0.2183236000000761,0.1,0,FastFast,40,18,Woman,Right,
20,15,1,0.40030639999895357,['c'],1,left,['0'],1,0.3012625000010303,0.2,0,FastFast,40,18,Woman,Right,
21,15,1,0.8003320000007079,['c'],1,left,['0'],1,0.16739049999887357,0.2,0,FastFast,40,18,Woman,Right,
22,15,1,1.0496473999992304,['n'],0,left,['0'],1,0.20072849999996834,0.2,0,FastFast,40,18,Woman,Right,
23,15,1,0.5505262000006041,['n'],1,right,['9'],2,0.23451249999925494,0.2,0,FastFast,40,18,Woman,Right,
24,15,1,0.5846116000011534,['n'],1,right,['9'],2,0.21781039999950735,0.1,0,FastFast,40,18,Woman,Right,
25,15,1,0.4833214999998745,['n'],1,right,['8'],3,0.21756610000011278,0.2,0,FastFast,40,18,Woman,Right,
26,15,1,0.6167977999994037,['n'],0,left,['3'],4,0.11838859999988927,0.4,0,FastFast,40,18,Woman,Right,
27,15,1,0.5676739999998972,['n'],1,right,['3'],4,0.1348076000012952,0.1,0,FastFast,40,18,Woman,Right,
28,15,1,0.8008433000013611,['n'],1,right,['3'],4,0.06784990000051039,0.1,0,FastFast,40,18,Woman,Right,
29,15,1,1.2670729000001302,['c'],1,left,['3'],4,0.21794190000036906,0.4,0,FastFast,40,18,Woman,Right,
30,15,1,1.1662293000008503,['n'],1,right,['8'],3,0.26818049999928917,0.4,0,FastFast,40,18,Woman,Right,
31,15,1,0.46699140000055195,['n'],1,right,['3'],4,0.2349041000015859,0.4,0,FastFast,40,18,Woman,Right,
32,15,1,0.4658763000006729,['n'],0,left,['8'],3,0.21849250000013853,0.1,0,FastFast,40,18,Woman,Right,
33,15,1,0.5836036999990029,['c'],0,right,['8'],3,0.16770969999925,0.4,0,FastFast,40,18,Woman,Right,
34,15,1,1.0005973000006634,['c'],1,left,['8'],3,0.10052379999979166,0.4,0,FastFast,40,18,Woman,Right,
35,15,1,1.050473299999794,['c'],1,left,['9'],2,0.16849899999942863,0.1,0,FastFast,40,18,Woman,Right,
36,15,1,0.5663586999999097,['c'],1,left,['9'],2,0.13454730000012205,0.2,0,FastFast,40,18,Woman,Right,
37,15,1,0.6492894000002707,['c'],1,left,['9'],2,0.1673265999997966,0.4,0,FastFast,40,18,Woman,Right,
38,15,1,0.8165798999998515,['c'],1,left,['3'],4,0.4678706000013335,0.2,0,FastFast,40,18,Woman,Right,
39,15,1,0.7675875000004453,['c'],0,right,['9'],2,0.2181676999989577,0.2,0,FastFast,40,18,Woman,Right,
40,15,1,0.7166796000001341,['c'],0,right,['0'],1,0.849580899999637,0.2,0,FastFast,40,18,Woman,Right,
41,15,1,0.8510366999998951,['c'],0,right,['0'],1,0.16760030000114057,0.4,0,FastFast,40,18,Woman,Right,
42,15,1,0.9341144999998505,['c'],1,left,['0'],1,0.35113900000033027,0.1,0,FastFast,40,18,Woman,Right,
43,15,1,0.9668558000012126,['c'],0,right,['0'],1,0.30153040000004694,0.2,0,FastFast,40,18,Woman,Right,
44,15,1,0.86702090000108,['c'],1,left,['0'],1,0.16785600000002887,0.2,0,FastFast,40,18,Woman,Right,
45,15,1,1.0840313000007882,['c'],0,right,['0'],1,0.15172460000030696,0.1,0,FastFast,40,18,Woman,Right,
46,15,1,1.1330092000007426,['c'],1,left,['0'],1,0.2506045999998605,0.1,0,FastFast,40,18,Woman,Right,
47,15,1,0.6670756000003166,['c'],1,left,['3'],4,0.2672762000001967,0.2,0,FastFast,40,18,Woman,Right,
48,15,1,0.7156885000003967,['c'],0,right,['9'],2,0.4351161000013235,0.2,0,FastFast,40,18,Woman,Right,
49,15,1,0.7828045000005659,['c'],0,right,['8'],3,0.26847970000017085,0.2,0,FastFast,40,18,Woman,Right,
50,15,1,0.4835237999996025,['n'],0,left,['8'],3,0.30106100000011793,0.4,0,FastFast,40,18,Woman,Right,
51,15,1,0.6838069000004907,['c'],1,left,['3'],4,0.3011575000000448,0.2,0,FastFast,40,18,Woman,Right,
52,15,1,0.5335792000005313,['c'],1,left,['3'],4,0.1999329000009311,0.1,0,FastFast,40,18,Woman,Right,
53,15,1,0.6839527000011003,['c'],0,right,['2'],5,0.21774100000038743,0.1,0,FastFast,40,18,Woman,Right,
54,15,1,0.5002600999996503,['c'],0,right,['3'],4,0.2505172000001039,0.4,0,FastFast,40,18,Woman,Right,
55,15,1,0.6508633000012196,['c'],1,left,['3'],4,0.20104820000051404,0.1,0,FastFast,40,18,Woman,Right,
56,15,1,1.8998790000005101,['c'],1,left,['3'],4,0.2175600000009581,0.1,0,FastFast,40,18,Woman,Right,
57,15,1,0.6333412999993016,['c'],0,right,['8'],3,0.25145379999958095,0.4,0,FastFast,40,18,Woman,Right,
58,15,1,0.49954020000041055,['c'],0,right,['8'],3,0.11845759999960137,0.4,0,FastFast,40,18,Woman,Right,
59,15,1,0.5837350000001607,['c'],1,left,['8'],3,0.101327799999126,0.1,0,FastFast,40,18,Woman,Right,
