withinblocktrial,block,block_repetition,rt,resp,cor,cresp,conf_press,cj,rtconf,coherence,slow_trial,manipulation,sub,age,gender,handedness,
0,1,1,1.6664671999997154,['c'],1,left,none,-99,-99,0.5,0,none,15,19,Woman,Right,
1,1,1,0.6170324000004257,['n'],1,right,none,-99,-99,0.5,0,none,15,19,Woman,Right,
2,1,1,0.6503844999997455,['n'],1,right,none,-99,-99,0.5,0,none,15,19,Woman,Right,
3,1,1,0.6326197999997021,['n'],1,right,none,-99,-99,0.5,0,none,15,19,Woman,Right,
4,1,1,0.4831709999998566,['c'],1,left,none,-99,-99,0.5,0,none,15,19,Woman,Right,
5,1,1,0.5993130999995628,['c'],1,left,none,-99,-99,0.5,0,none,15,19,Woman,Right,
6,1,1,0.4323727000000872,['n'],1,right,none,-99,-99,0.5,0,none,15,19,Woman,Right,
7,1,1,0.4653652000006332,['c'],1,left,none,-99,-99,0.5,0,none,15,19,Woman,Right,
8,1,1,0.5830386999996335,['c'],1,left,none,-99,-99,0.5,0,none,15,19,Woman,Right,
9,1,1,0.6171918000000005,['n'],0,left,none,-99,-99,0.5,0,none,15,19,Woman,Right,
10,1,1,0.5160605000000942,['n'],1,right,none,-99,-99,0.5,0,none,15,19,Woman,Right,
11,1,1,0.7496608000001288,['n'],1,right,none,-99,-99,0.5,0,none,15,19,Woman,Right,
12,1,1,0.8328639999999723,['n'],1,right,none,-99,-99,0.5,0,none,15,19,Woman,Right,
13,1,1,0.5501581999997143,['c'],1,left,none,-99,-99,0.5,0,none,15,19,Woman,Right,
14,1,1,0.48300619999918126,['n'],1,right,none,-99,-99,0.5,0,none,15,19,Woman,Right,
15,1,1,0.5328810999999405,['n'],1,right,none,-99,-99,0.5,0,none,15,19,Woman,Right,
16,1,1,0.5835140999997748,['c'],1,left,none,-99,-99,0.5,0,none,15,19,Woman,Right,
17,1,1,0.5998481000005995,['n'],0,left,none,-99,-99,0.5,0,none,15,19,Woman,Right,
18,1,1,1.7171644999998534,['c'],1,left,none,-99,-99,0.5,0,none,15,19,Woman,Right,
19,1,1,1.2337622000004558,['n'],0,left,none,-99,-99,0.5,0,none,15,19,Woman,Right,
20,1,1,0.6165620000001582,['n'],1,right,none,-99,-99,0.5,0,none,15,19,Woman,Right,
21,1,1,0.7172329000004538,['c'],1,left,none,-99,-99,0.5,0,none,15,19,Woman,Right,
22,1,1,0.6672807999993893,['n'],1,right,none,-99,-99,0.5,0,none,15,19,Woman,Right,
23,1,1,0.6338710999998511,['n'],1,right,none,-99,-99,0.5,0,none,15,19,Woman,Right,
0,2,1,0.8995672999999442,['n'],1,right,none,-99,-99,0.2,0,none,15,19,Woman,Right,
1,2,1,0.5491008999997575,['c'],1,left,none,-99,-99,0.4,0,none,15,19,Woman,Right,
2,2,1,0.6161390999996001,['n'],1,right,none,-99,-99,0.2,0,none,15,19,Woman,Right,
3,2,1,0.5498435999998037,['n'],1,right,none,-99,-99,0.1,0,none,15,19,Woman,Right,
4,2,1,0.6329563999997845,['n'],1,right,none,-99,-99,0.2,0,none,15,19,Woman,Right,
5,2,1,0.5331603000004179,['c'],1,left,none,-99,-99,0.4,0,none,15,19,Woman,Right,
6,2,1,0.5334779000004346,['n'],1,right,none,-99,-99,0.1,0,none,15,19,Woman,Right,
7,2,1,0.7825417000003654,['c'],1,left,none,-99,-99,0.2,0,none,15,19,Woman,Right,
8,2,1,0.6983565999998973,['c'],1,left,none,-99,-99,0.2,0,none,15,19,Woman,Right,
9,2,1,0.6338378000000375,['n'],0,left,none,-99,-99,0.2,0,none,15,19,Woman,Right,
10,2,1,0.7167671999995946,['n'],0,left,none,-99,-99,0.1,0,none,15,19,Woman,Right,
11,2,1,0.6834239999998317,['n'],0,left,none,-99,-99,0.1,0,none,15,19,Woman,Right,
12,2,1,1.6506219000002602,['c'],0,right,none,-99,-99,0.1,0,none,15,19,Woman,Right,
13,2,1,2.3821528000007675,['n'],0,left,none,-99,-99,0.4,0,none,15,19,Woman,Right,
14,2,1,1.933718599999338,['n'],1,right,none,-99,-99,0.1,0,none,15,19,Woman,Right,
15,2,1,1.2992057000001296,['n'],1,right,none,-99,-99,0.1,0,none,15,19,Woman,Right,
16,2,1,1.7655518000001393,['n'],0,left,none,-99,-99,0.4,0,none,15,19,Woman,Right,
17,2,1,0.7164027999997415,['n'],1,right,none,-99,-99,0.4,0,none,15,19,Woman,Right,
18,2,1,0.7497049000003244,['c'],0,right,none,-99,-99,0.2,0,none,15,19,Woman,Right,
19,2,1,0.7325284999997166,['c'],1,left,none,-99,-99,0.4,0,none,15,19,Woman,Right,
20,2,1,0.8169559999996636,['n'],0,left,none,-99,-99,0.4,0,none,15,19,Woman,Right,
21,2,1,0.7165165999995224,['c'],0,right,none,-99,-99,0.4,0,none,15,19,Woman,Right,
22,2,1,0.6500639999994746,['n'],1,right,none,-99,-99,0.2,0,none,15,19,Woman,Right,
23,2,1,1.049812899999779,['n'],0,left,none,-99,-99,0.1,0,none,15,19,Woman,Right,
0,2,2,0.9505476999993334,['c'],1,left,none,-99,-99,0.2,0,none,15,19,Woman,Right,
1,2,2,0.6496700999996392,['n'],1,right,none,-99,-99,0.4,0,none,15,19,Woman,Right,
2,2,2,0.6002597999995487,['c'],1,left,none,-99,-99,0.2,0,none,15,19,Woman,Right,
3,2,2,0.6324030999994648,['n'],1,right,none,-99,-99,0.1,0,none,15,19,Woman,Right,
4,2,2,0.632904399999461,['n'],0,left,none,-99,-99,0.2,0,none,15,19,Woman,Right,
5,2,2,0.7161914999996952,['c'],1,left,none,-99,-99,0.4,0,none,15,19,Woman,Right,
6,2,2,0.6323914000004152,['n'],1,right,none,-99,-99,0.1,0,none,15,19,Woman,Right,
7,2,2,0.65045149999969,['n'],1,right,none,-99,-99,0.2,0,none,15,19,Woman,Right,
8,2,2,0.7157338999995773,['n'],1,right,none,-99,-99,0.2,0,none,15,19,Woman,Right,
9,2,2,0.6669123000001491,['n'],0,left,none,-99,-99,0.2,0,none,15,19,Woman,Right,
10,2,2,0.8327382999996189,['n'],1,right,none,-99,-99,0.1,0,none,15,19,Woman,Right,
11,2,2,0.6328631000005771,['n'],1,right,none,-99,-99,0.1,0,none,15,19,Woman,Right,
12,2,2,1.2825812000000951,['n'],0,left,none,-99,-99,0.1,0,none,15,19,Woman,Right,
13,2,2,0.6828374000006079,['c'],1,left,none,-99,-99,0.4,0,none,15,19,Woman,Right,
14,2,2,1.4496970000000147,['c'],0,right,none,-99,-99,0.1,0,none,15,19,Woman,Right,
15,2,2,2.0327564999997776,['n'],0,left,none,-99,-99,0.1,0,none,15,19,Woman,Right,
16,2,2,1.4829868999995597,['c'],1,left,none,-99,-99,0.4,0,none,15,19,Woman,Right,
17,2,2,0.7171385000001465,['n'],1,right,none,-99,-99,0.4,0,none,15,19,Woman,Right,
18,2,2,0.8331322000003638,['c'],1,left,none,-99,-99,0.2,0,none,15,19,Woman,Right,
19,2,2,0.7337201000000277,['n'],1,right,none,-99,-99,0.4,0,none,15,19,Woman,Right,
20,2,2,0.6002837999994881,['n'],1,right,none,-99,-99,0.4,0,none,15,19,Woman,Right,
21,2,2,0.5328245000000607,['c'],1,left,none,-99,-99,0.4,0,none,15,19,Woman,Right,
22,2,2,0.7669870999998238,['c'],1,left,none,-99,-99,0.2,0,none,15,19,Woman,Right,
23,2,2,0.6834345999996003,['n'],1,right,none,-99,-99,0.1,0,none,15,19,Woman,Right,
0,3,1,1.1831548000000112,['c'],0,right,['8'],4,2.417616700000508,0.2,0,none,15,19,Woman,Right,
1,3,1,1.3165271999996548,['n'],1,right,['8'],4,0.8011195999997653,0.2,0,none,15,19,Woman,Right,
2,3,1,2.000303700000586,['c'],0,right,['2'],2,1.1501334000004135,0.4,0,none,15,19,Woman,Right,
3,3,1,4.816939299999831,['c'],0,right,['2'],2,1.9342599000001428,0.1,0,none,15,19,Woman,Right,
4,3,1,1.5668186000002606,['n'],0,left,['9'],5,1.8509695000002466,0.4,0,none,15,19,Woman,Right,
5,3,1,1.4329327000004923,['c'],1,left,['9'],5,2.100942000000032,0.2,0,none,15,19,Woman,Right,
6,3,1,1.700772700000016,['n'],1,right,['3'],3,0.8010326000003261,0.1,0,none,15,19,Woman,Right,
7,3,1,2.567218799999864,['n'],1,right,['3'],3,2.2176540999998906,0.1,0,none,15,19,Woman,Right,
8,3,1,1.4170475999999326,['n'],1,right,['9'],5,0.8171774999991612,0.4,0,none,15,19,Woman,Right,
9,3,1,1.134499599999799,['c'],1,left,['9'],5,1.0677778999997827,0.2,0,none,15,19,Woman,Right,
10,3,1,3.0164638000005652,['n'],0,left,['8'],4,1.0679023000002417,0.4,0,none,15,19,Woman,Right,
11,3,1,2.601111099999798,['c'],1,left,['9'],5,1.3340754000000743,0.2,0,none,15,19,Woman,Right,
12,3,1,1.733708700000534,['c'],0,right,none,-99,-99,0.1,1,none,15,19,Woman,Right,
13,3,1,0.9661383000002388,['n'],0,left,['8'],4,0.7178105000002688,0.2,0,none,15,19,Woman,Right,
14,3,1,1.5990904000000228,['n'],1,right,['9'],5,0.8343973000000915,0.2,0,none,15,19,Woman,Right,
15,3,1,1.3006565999994564,['c'],1,left,['8'],4,0.8336136000007173,0.1,0,none,15,19,Woman,Right,
16,3,1,1.3328105999999025,['n'],1,right,['9'],5,0.8345797000001767,0.4,0,none,15,19,Woman,Right,
17,3,1,1.0830200000000332,['c'],1,left,['9'],5,1.6838960999994015,0.4,0,none,15,19,Woman,Right,
18,3,1,1.0347140999992916,['n'],0,left,['0'],6,0.8834764000002906,0.1,0,none,15,19,Woman,Right,
19,3,1,1.5341009000003396,['n'],0,left,['8'],4,0.8671743000004426,0.1,0,none,15,19,Woman,Right,
20,3,1,0.9334713999996893,['n'],1,right,['0'],6,0.6833179999994172,0.4,0,none,15,19,Woman,Right,
21,3,1,2.0829021999998076,['c'],0,right,['2'],2,0.784242799999447,0.1,0,none,15,19,Woman,Right,
22,3,1,2.0347775999998703,['n'],0,left,['8'],4,0.9837590999995882,0.4,0,none,15,19,Woman,Right,
23,3,1,0.9666396000002351,['c'],1,left,['3'],3,1.1833309000003283,0.2,0,none,15,19,Woman,Right,
0,4,1,0.8165367000001424,['c'],1,left,['3'],3,3.4672076999995625,0.4,0,FastAcc,15,19,Woman,Right,
1,4,1,0.6337742999994589,['n'],1,right,['8'],4,1.0002827999996953,0.2,0,FastAcc,15,19,Woman,Right,
2,4,1,0.5841685000004873,['n'],1,right,['8'],4,0.750499800000398,0.1,0,FastAcc,15,19,Woman,Right,
3,4,1,0.7501381000001857,['c'],1,left,['3'],3,0.8010246000003463,0.1,0,FastAcc,15,19,Woman,Right,
4,4,1,0.9163397000002078,['n'],0,left,['3'],3,0.7339614000002257,0.2,0,FastAcc,15,19,Woman,Right,
5,4,1,0.9497879999998986,['n'],1,right,['3'],3,1.0176329999994778,0.2,0,FastAcc,15,19,Woman,Right,
6,4,1,1.7840761999996175,['n'],1,right,['9'],5,1.083872600000177,0.1,0,FastAcc,15,19,Woman,Right,
7,4,1,2.267658400000073,['n'],0,left,['9'],5,1.0176094999997076,0.2,0,FastAcc,15,19,Woman,Right,
8,4,1,3.5339450999999826,['n'],0,left,['8'],4,0.7506333999999697,0.2,0,FastAcc,15,19,Woman,Right,
9,4,1,1.750246500000685,['c'],1,left,['2'],2,1.8007649000001038,0.4,0,FastAcc,15,19,Woman,Right,
10,4,1,1.817607599999974,['n'],1,right,['8'],4,1.8841933000003337,0.1,0,FastAcc,15,19,Woman,Right,
11,4,1,0.7329683999996632,['n'],1,right,['8'],4,1.2672133999994912,0.4,0,FastAcc,15,19,Woman,Right,
12,4,1,0.6837475000002087,['c'],1,left,['9'],5,0.6841907999996693,0.4,0,FastAcc,15,19,Woman,Right,
13,4,1,0.7835989999994126,['n'],1,right,['9'],5,1.4846526000001177,0.4,0,FastAcc,15,19,Woman,Right,
14,4,1,1.3003450999995039,['c'],1,left,['9'],5,0.8671090999996522,0.2,0,FastAcc,15,19,Woman,Right,
15,4,1,0.567155300000195,['n'],0,left,['3'],3,1.000830799999676,0.1,0,FastAcc,15,19,Woman,Right,
16,4,1,1.4672804000001634,['n'],1,right,['3'],3,0.8010959000002913,0.4,0,FastAcc,15,19,Woman,Right,
17,4,1,0.7842466000001878,['c'],0,right,['2'],2,1.9339138000004823,0.1,0,FastAcc,15,19,Woman,Right,
18,4,1,0.8837492000002385,['c'],0,right,['2'],2,1.8174987000002147,0.1,0,FastAcc,15,19,Woman,Right,
19,4,1,1.1670104000004358,['n'],0,left,['3'],3,1.9005404999998063,0.4,0,FastAcc,15,19,Woman,Right,
20,4,1,0.5671523000000889,['n'],1,right,['2'],2,1.7002604999997857,0.2,0,FastAcc,15,19,Woman,Right,
21,4,1,1.1499132999997528,['n'],1,right,['3'],3,1.2342233999997916,0.4,0,FastAcc,15,19,Woman,Right,
22,4,1,1.433479499999521,['n'],1,right,['3'],3,0.7346643999999287,0.2,0,FastAcc,15,19,Woman,Right,
23,4,1,0.7336749999994936,['n'],1,right,['3'],3,1.9507504999992307,0.1,0,FastAcc,15,19,Woman,Right,
24,4,1,1.583186800000476,['c'],0,right,['8'],4,0.9507008999999016,0.2,0,FastAcc,15,19,Woman,Right,
25,4,1,1.7003124000002572,['n'],0,left,['3'],3,0.7340998999998192,0.2,0,FastAcc,15,19,Woman,Right,
26,4,1,1.0656136999996306,['n'],0,left,['2'],2,1.4840013999992152,0.4,0,FastAcc,15,19,Woman,Right,
27,4,1,1.2324114999992162,['n'],0,left,['2'],2,1.65052199999991,0.2,0,FastAcc,15,19,Woman,Right,
28,4,1,1.1499730999994426,['c'],0,right,['2'],2,0.8679480000000694,0.1,0,FastAcc,15,19,Woman,Right,
29,4,1,2.0011277000003247,['c'],0,right,['3'],3,2.066555000000335,0.1,0,FastAcc,15,19,Woman,Right,
30,4,1,0.7838191999999253,['n'],1,right,['2'],2,2.417248699999618,0.2,0,FastAcc,15,19,Woman,Right,
31,4,1,1.316780999999537,['c'],1,left,['8'],4,2.500730800000383,0.2,0,FastAcc,15,19,Woman,Right,
32,4,1,0.7503065999999308,['n'],1,right,['8'],4,1.6504392999995616,0.4,0,FastAcc,15,19,Woman,Right,
33,4,1,0.7172852000003331,['c'],1,left,['3'],3,4.818180100000063,0.1,0,FastAcc,15,19,Woman,Right,
34,4,1,0.4673195000004853,['n'],0,left,['1'],1,1.8840881000005538,0.4,0,FastAcc,15,19,Woman,Right,
35,4,1,0.9666497000007439,['c'],0,right,['8'],4,1.267724199999975,0.2,0,FastAcc,15,19,Woman,Right,
36,4,1,0.9335701999998491,['c'],1,left,['9'],5,0.9173721999995905,0.4,0,FastAcc,15,19,Woman,Right,
37,4,1,0.5663361000006262,['c'],1,left,['2'],2,1.6671273000001747,0.1,0,FastAcc,15,19,Woman,Right,
38,4,1,0.36631579999993846,['c'],1,left,['2'],2,1.6336521000002904,0.2,0,FastAcc,15,19,Woman,Right,
39,4,1,1.1006288999997196,['c'],1,left,['9'],5,1.0672513999998046,0.4,0,FastAcc,15,19,Woman,Right,
40,4,1,1.5997048999997787,['n'],0,left,['8'],4,1.9503395000001547,0.4,0,FastAcc,15,19,Woman,Right,
41,4,1,0.7495134999999209,['c'],1,left,['9'],5,0.6508541000002879,0.4,0,FastAcc,15,19,Woman,Right,
42,4,1,0.8169872999997096,['n'],0,left,['8'],4,1.3678108000003704,0.4,0,FastAcc,15,19,Woman,Right,
43,4,1,0.7002848000001904,['n'],1,right,['8'],4,1.8174232000001211,0.2,0,FastAcc,15,19,Woman,Right,
44,4,1,0.7845546000007744,['n'],1,right,['3'],3,0.7006952000001547,0.1,0,FastAcc,15,19,Woman,Right,
45,4,1,0.8340926999999283,['n'],1,right,['3'],3,0.3836326000000554,0.1,0,FastAcc,15,19,Woman,Right,
46,4,1,0.9838939000001119,['n'],0,left,['3'],3,1.3508816999992632,0.1,0,FastAcc,15,19,Woman,Right,
47,4,1,2.300480800000514,['c'],1,left,['8'],4,2.4508452999998553,0.2,0,FastAcc,15,19,Woman,Right,
48,4,1,0.9164622999996936,['n'],1,right,['8'],4,0.6174104000001535,0.2,0,FastAcc,15,19,Woman,Right,
49,4,1,1.283107199999904,['c'],1,left,['3'],3,1.2345875999999407,0.2,0,FastAcc,15,19,Woman,Right,
50,4,1,1.116965600000185,['n'],1,right,['3'],3,1.200873199999478,0.2,0,FastAcc,15,19,Woman,Right,
51,4,1,0.7509227000000465,['n'],1,right,['9'],5,2.3343637999996645,0.4,0,FastAcc,15,19,Woman,Right,
52,4,1,1.083079699999871,['n'],1,right,['9'],5,0.8509979999998905,0.4,0,FastAcc,15,19,Woman,Right,
53,4,1,0.6665374999993219,['c'],1,left,['8'],4,2.3175571000001582,0.4,0,FastAcc,15,19,Woman,Right,
54,4,1,0.8993322000005719,['n'],0,left,['8'],4,1.3004367000003185,0.1,0,FastAcc,15,19,Woman,Right,
55,4,1,0.7002146999993784,['n'],1,right,['2'],2,0.98398460000044,0.1,0,FastAcc,15,19,Woman,Right,
56,4,1,0.7830627000003005,['n'],0,left,['1'],1,1.667490099999668,0.1,0,FastAcc,15,19,Woman,Right,
57,4,1,0.7665706999996473,['n'],1,right,['2'],2,0.7841072999999597,0.4,0,FastAcc,15,19,Woman,Right,
58,4,1,1.0671808000006422,['c'],0,right,['3'],3,1.1507784999994328,0.1,0,FastAcc,15,19,Woman,Right,
59,4,1,0.9995721000004778,['c'],1,left,['3'],3,0.6510823000007804,0.1,0,FastAcc,15,19,Woman,Right,
0,5,1,0.41663919999973587,['n'],1,right,['8'],4,0.6505064000002676,0.1,0,FastFast,15,19,Woman,Right,
1,5,1,0.9998617999999624,['c'],1,left,['3'],3,0.2676024000002144,0.1,0,FastFast,15,19,Woman,Right,
2,5,1,0.7671875999994882,['n'],0,left,['3'],3,0.48385249999955704,0.2,0,FastFast,15,19,Woman,Right,
3,5,1,0.6839895000002798,['c'],1,left,['9'],5,0.6507366000005277,0.4,0,FastFast,15,19,Woman,Right,
4,5,1,0.7168768000001364,['n'],1,right,['0'],6,0.8178164000000834,0.4,0,FastFast,15,19,Woman,Right,
5,5,1,0.8335746000002473,['c'],1,left,['9'],5,0.6504953000003297,0.2,0,FastFast,15,19,Woman,Right,
6,5,1,0.6665278000000399,['n'],1,right,['0'],6,0.8000233000002481,0.4,0,FastFast,15,19,Woman,Right,
7,5,1,1.0331487999992532,['c'],0,right,['2'],2,0.6006704000001264,0.1,0,FastFast,15,19,Woman,Right,
8,5,1,0.615880900000775,['n'],0,left,['8'],4,0.6005934000004345,0.2,0,FastFast,15,19,Woman,Right,
9,5,1,1.0665281999999934,['n'],0,left,['3'],3,0.5843776000001526,0.1,0,FastFast,15,19,Woman,Right,
10,5,1,0.7331366999997044,['n'],0,left,['3'],3,0.4344560999998066,0.1,0,FastFast,15,19,Woman,Right,
11,5,1,0.7340093000002526,['n'],1,right,['9'],5,0.6844148999998652,0.4,0,FastFast,15,19,Woman,Right,
12,5,1,0.9506035999993401,['c'],1,left,['9'],5,0.3673034000003099,0.2,0,FastFast,15,19,Woman,Right,
13,5,1,1.0843433999998524,['n'],1,right,['3'],3,0.6841019000003143,0.1,0,FastFast,15,19,Woman,Right,
14,5,1,1.316866399999526,['n'],0,left,['8'],4,0.6340886999996656,0.4,0,FastFast,15,19,Woman,Right,
15,5,1,0.8663462000004074,['n'],1,right,['0'],6,0.733926199999587,0.2,0,FastFast,15,19,Woman,Right,
16,5,1,1.1672825000005105,['n'],1,right,['9'],5,0.4510798999999679,0.4,0,FastFast,15,19,Woman,Right,
17,5,1,0.9173111000000063,['n'],1,right,['8'],4,0.5004791999999725,0.1,0,FastFast,15,19,Woman,Right,
18,5,1,0.9004022999997687,['c'],1,left,['9'],5,0.8177313000005597,0.2,0,FastFast,15,19,Woman,Right,
19,5,1,1.633130700000038,['c'],0,right,['3'],3,0.8174958999998125,0.2,0,FastFast,15,19,Woman,Right,
20,5,1,0.6676815999999235,['c'],1,left,['3'],3,0.3008452000003672,0.1,0,FastFast,15,19,Woman,Right,
21,5,1,1.9167051000003994,['n'],1,right,['8'],4,0.7008621000004496,0.1,0,FastFast,15,19,Woman,Right,
22,5,1,1.1162782999999763,['c'],1,left,['3'],3,0.8840079999999944,0.2,0,FastFast,15,19,Woman,Right,
23,5,1,0.78463229999943,['n'],1,right,['2'],2,0.5671697999996468,0.4,0,FastFast,15,19,Woman,Right,
24,5,1,1.0500709999996616,['c'],1,left,['8'],4,0.9173688999999285,0.2,0,FastFast,15,19,Woman,Right,
25,5,1,0.899145899999894,['n'],1,right,['9'],5,0.8344747000001007,0.4,0,FastFast,15,19,Woman,Right,
26,5,1,0.8337627999999313,['c'],1,left,['8'],4,0.26738210000075924,0.4,0,FastFast,15,19,Woman,Right,
27,5,1,0.7661954000004698,['c'],1,left,['8'],4,0.2841957000000548,0.4,0,FastFast,15,19,Woman,Right,
28,5,1,0.9169169999995574,['n'],1,right,['8'],4,0.30119699999977456,0.1,0,FastFast,15,19,Woman,Right,
29,5,1,2.3669761000001017,['c'],0,right,['2'],2,0.4674232999996093,0.4,0,FastFast,15,19,Woman,Right,
30,5,1,0.8673455999996804,['c'],0,right,['1'],1,1.0838766000006217,0.2,0,FastFast,15,19,Woman,Right,
31,5,1,1.1667160999995758,['c'],0,right,['3'],3,0.5172760999994352,0.2,0,FastFast,15,19,Woman,Right,
32,5,1,1.0334419999999227,['n'],1,right,['8'],4,0.334487099999933,0.4,0,FastFast,15,19,Woman,Right,
33,5,1,0.866878099999667,['c'],1,left,['9'],5,0.8337946999999986,0.2,0,FastFast,15,19,Woman,Right,
34,5,1,0.816655499999797,['n'],0,left,['9'],5,0.5509763000000021,0.4,0,FastFast,15,19,Woman,Right,
35,5,1,0.9833816000000297,['n'],0,left,['8'],4,0.9009493000003204,0.1,0,FastFast,15,19,Woman,Right,
36,5,1,0.9002467000000252,['n'],0,left,['9'],5,0.7506919999996171,0.2,0,FastFast,15,19,Woman,Right,
37,5,1,1.2337544000001799,['n'],0,left,['2'],2,0.7180215999997017,0.2,0,FastFast,15,19,Woman,Right,
38,5,1,1.1347287999997206,['c'],1,left,['9'],5,1.2838506000007328,0.4,0,FastFast,15,19,Woman,Right,
39,5,1,0.8333959999999934,['n'],1,right,['9'],5,0.6010477999998329,0.1,0,FastFast,15,19,Woman,Right,
40,5,1,0.8337170000004335,['n'],1,right,['9'],5,0.7844616000002134,0.4,0,FastFast,15,19,Woman,Right,
41,5,1,0.7332539999997607,['c'],0,right,['2'],2,0.9676398000001427,0.1,0,FastFast,15,19,Woman,Right,
42,5,1,1.016441400000076,['c'],1,left,['3'],3,1.0508098000000246,0.4,0,FastFast,15,19,Woman,Right,
43,5,1,1.0664377000002787,['c'],0,right,['1'],1,0.984425800000281,0.2,0,FastFast,15,19,Woman,Right,
44,5,1,0.5674767000000429,['n'],1,right,['8'],4,0.4338889000000563,0.2,0,FastFast,15,19,Woman,Right,
45,5,1,0.6833278000003702,['c'],0,right,['3'],3,0.45125689999986207,0.1,0,FastFast,15,19,Woman,Right,
46,5,1,1.6491627000004883,['n'],0,left,['3'],3,0.9508161000003383,0.1,0,FastFast,15,19,Woman,Right,
47,5,1,0.8335133999999016,['c'],1,left,['2'],2,0.5677986999999121,0.2,0,FastFast,15,19,Woman,Right,
48,5,1,0.8990812000001824,['n'],1,right,['8'],4,0.6004899999998088,0.2,0,FastFast,15,19,Woman,Right,
49,5,1,0.8660095999994155,['c'],0,right,['8'],4,0.4004150999999183,0.2,0,FastFast,15,19,Woman,Right,
50,5,1,1.1832815999996456,['c'],1,left,['3'],3,0.5177723000006154,0.1,0,FastFast,15,19,Woman,Right,
51,5,1,0.6670183999995061,['n'],1,right,['8'],4,0.5346779000001334,0.4,0,FastFast,15,19,Woman,Right,
52,5,1,0.9666803000000073,['c'],1,left,['8'],4,0.16766120000011142,0.1,0,FastFast,15,19,Woman,Right,
53,5,1,1.1664037000000462,['c'],1,left,['8'],4,0.1675225999997565,0.4,0,FastFast,15,19,Woman,Right,
54,5,1,2.649799300000268,['c'],0,right,['2'],2,0.600492900000063,0.1,0,FastFast,15,19,Woman,Right,
55,5,1,1.0338271999999051,['c'],0,right,['3'],3,0.4673218999996607,0.2,0,FastFast,15,19,Woman,Right,
56,5,1,1.5490310000004683,['c'],1,left,['8'],4,0.8509088999999221,0.1,0,FastFast,15,19,Woman,Right,
57,5,1,1.4335311000004367,['n'],1,right,['8'],4,0.7672952000002624,0.4,0,FastFast,15,19,Woman,Right,
58,5,1,1.1327644000002692,['n'],0,left,['2'],2,0.6673412999998618,0.1,0,FastFast,15,19,Woman,Right,
59,5,1,1.0496963999994477,['n'],0,left,['2'],2,0.5678618000001734,0.4,0,FastFast,15,19,Woman,Right,
0,6,1,1.5333563999993203,['c'],1,left,['1'],1,0.9338283000006413,0.4,0,AccFast,15,19,Woman,Right,
1,6,1,1.5508416000002399,['n'],0,left,['9'],5,0.9182132999994792,0.2,0,AccFast,15,19,Woman,Right,
2,6,1,1.3504923000000417,['n'],1,right,['0'],6,1.0673990000004778,0.2,0,AccFast,15,19,Woman,Right,
3,6,1,0.9334105999996609,['n'],1,right,['0'],6,0.4843570000002728,0.2,0,AccFast,15,19,Woman,Right,
4,6,1,0.650314200000139,['n'],1,right,['9'],5,0.23415720000048168,0.4,0,AccFast,15,19,Woman,Right,
5,6,1,1.1667618999999831,['c'],1,left,['9'],5,0.20081470000059198,0.4,0,AccFast,15,19,Woman,Right,
6,6,1,1.7175237999999808,['n'],1,right,['9'],5,0.18376939999961905,0.4,0,AccFast,15,19,Woman,Right,
7,6,1,1.2845820000002277,['c'],1,left,['8'],4,0.8007918000002974,0.1,0,AccFast,15,19,Woman,Right,
8,6,1,1.0334185000001526,['n'],1,right,['8'],4,0.3676015000000916,0.4,0,AccFast,15,19,Woman,Right,
9,6,1,1.616518200000428,['c'],0,right,['9'],5,0.25107759999991686,0.1,0,AccFast,15,19,Woman,Right,
10,6,1,3.800125599999774,['n'],0,left,['9'],5,0.38428320000002714,0.4,0,AccFast,15,19,Woman,Right,
11,6,1,1.3333424000002196,['c'],0,right,['9'],5,0.2007010999996055,0.2,0,AccFast,15,19,Woman,Right,
12,6,1,0.9332259000002523,['n'],1,right,['9'],5,0.33351700000002893,0.2,0,AccFast,15,19,Woman,Right,
13,6,1,0.9339030000001003,['c'],0,right,['0'],6,0.21732859999974607,0.1,0,AccFast,15,19,Woman,Right,
14,6,1,1.6164294000000154,['n'],1,right,['8'],4,0.4012613999993846,0.2,0,AccFast,15,19,Woman,Right,
15,6,1,1.0497855000003256,['n'],1,right,['9'],5,0.33393290000003617,0.4,0,AccFast,15,19,Woman,Right,
16,6,1,0.8504095999996935,['c'],1,left,['3'],3,0.45085390000076586,0.4,0,AccFast,15,19,Woman,Right,
17,6,1,1.0498477999999523,['n'],0,left,['8'],4,0.23407029999998485,0.2,0,AccFast,15,19,Woman,Right,
18,6,1,0.9836112000002686,['c'],1,left,['9'],5,0.2835777999998754,0.2,0,AccFast,15,19,Woman,Right,
19,6,1,1.300902799999676,['n'],0,left,['8'],4,0.2171426999993855,0.2,0,AccFast,15,19,Woman,Right,
20,6,1,1.5503537999993569,['c'],1,left,['9'],5,1.2008662999996886,0.4,0,AccFast,15,19,Woman,Right,
21,6,1,2.982881500000076,['n'],1,right,['9'],5,0.3676143000002412,0.4,0,AccFast,15,19,Woman,Right,
22,6,1,1.9838875999994343,['n'],0,left,['0'],6,0.2007064999997965,0.1,0,AccFast,15,19,Woman,Right,
23,6,1,1.05072250000012,['n'],1,right,['2'],2,1.11699950000002,0.2,0,AccFast,15,19,Woman,Right,
24,6,1,1.0177131000000372,['c'],1,left,['9'],5,0.30076869999993505,0.1,0,AccFast,15,19,Woman,Right,
25,6,1,1.7333408000004056,['c'],1,left,['1'],1,0.46795270000075107,0.2,0,AccFast,15,19,Woman,Right,
26,6,1,1.5002801000000545,['c'],0,right,['1'],1,0.3011027999991711,0.1,0,AccFast,15,19,Woman,Right,
27,6,1,2.617349099999956,['c'],1,left,['2'],2,0.11763389999941865,0.4,0,AccFast,15,19,Woman,Right,
28,6,1,2.3339694000005693,['n'],1,right,['3'],3,0.25020580000000336,0.1,0,AccFast,15,19,Woman,Right,
29,6,1,0.8500521999994817,['n'],1,right,['8'],4,0.21810849999928905,0.1,0,AccFast,15,19,Woman,Right,
30,6,1,1.4164481000007072,['n'],1,right,['8'],4,0.25054719999934605,0.2,0,AccFast,15,19,Woman,Right,
31,6,1,1.3331680000001143,['n'],1,right,['9'],5,0.16761889999997948,0.2,0,AccFast,15,19,Woman,Right,
32,6,1,1.4502598999997645,['c'],1,left,['3'],3,0.2505939999991824,0.2,0,AccFast,15,19,Woman,Right,
33,6,1,0.9008843000001434,['n'],1,right,['8'],4,0.21713360000012472,0.4,0,AccFast,15,19,Woman,Right,
34,6,1,1.7996186999998827,['c'],0,right,['2'],2,0.2343831999996837,0.1,0,AccFast,15,19,Woman,Right,
35,6,1,1.2995517000008476,['n'],0,left,['2'],2,0.2671325000001161,0.2,0,AccFast,15,19,Woman,Right,
36,6,1,1.7165703000000576,['c'],1,left,['2'],2,0.2170458000000508,0.1,0,AccFast,15,19,Woman,Right,
37,6,1,2.4334662999999637,['c'],1,left,['8'],4,2.783985600000051,0.1,0,AccFast,15,19,Woman,Right,
38,6,1,1.6007171000001108,['n'],1,right,['8'],4,0.2678022999998575,0.4,0,AccFast,15,19,Woman,Right,
39,6,1,1.7841704999991634,['c'],1,left,['9'],5,0.31758260000060545,0.1,0,AccFast,15,19,Woman,Right,
40,6,1,1.1500679999999193,['c'],1,left,['9'],5,0.6175905000000057,0.2,0,AccFast,15,19,Woman,Right,
41,6,1,0.8337646999998469,['n'],1,right,['0'],6,0.8508809000004476,0.1,0,AccFast,15,19,Woman,Right,
42,6,1,0.9833251999998538,['n'],1,right,['0'],6,0.33448430000044027,0.2,0,AccFast,15,19,Woman,Right,
43,6,1,1.0326642999998512,['n'],1,right,['9'],5,0.766726199999539,0.1,0,AccFast,15,19,Woman,Right,
44,6,1,1.233496899999409,['n'],1,right,['9'],5,0.48385070000040287,0.2,0,AccFast,15,19,Woman,Right,
45,6,1,0.8169470000002548,['c'],1,left,['9'],5,0.8845097999992504,0.4,0,AccFast,15,19,Woman,Right,
46,6,1,0.7673546000005445,['n'],1,right,['0'],6,0.4010048000000097,0.4,0,AccFast,15,19,Woman,Right,
47,6,1,1.3342929000000368,['c'],1,left,['8'],4,1.2837316999994073,0.1,0,AccFast,15,19,Woman,Right,
48,6,1,0.8337590000001001,['n'],1,right,['9'],5,0.2673516999993808,0.1,0,AccFast,15,19,Woman,Right,
49,6,1,0.8000035999993997,['c'],1,left,['3'],3,0.8505547999993723,0.4,0,AccFast,15,19,Woman,Right,
50,6,1,1.1835495000004812,['c'],1,left,['8'],4,0.4173751000007542,0.1,0,AccFast,15,19,Woman,Right,
51,6,1,0.9837940999996135,['c'],0,right,['8'],4,0.20079920000080165,0.2,0,AccFast,15,19,Woman,Right,
52,6,1,1.4662203999996564,['n'],0,left,['3'],3,1.8174988999999186,0.4,0,AccFast,15,19,Woman,Right,
53,6,1,0.8660899999995308,['c'],1,left,['3'],3,1.083855599999879,0.4,0,AccFast,15,19,Woman,Right,
54,6,1,1.2671115999992253,['c'],1,left,['8'],4,0.21802089999982854,0.1,0,AccFast,15,19,Woman,Right,
55,6,1,0.8170301000000109,['c'],1,left,['8'],4,0.11766179999995074,0.4,0,AccFast,15,19,Woman,Right,
56,6,1,0.8502459000001181,['n'],1,right,['9'],5,0.3171183000004021,0.4,0,AccFast,15,19,Woman,Right,
57,6,1,1.8507486000007702,['c'],1,left,['9'],5,0.10072279999985767,0.2,0,AccFast,15,19,Woman,Right,
58,6,1,1.2167171999999482,['n'],0,left,['8'],4,0.26774589999968157,0.1,0,AccFast,15,19,Woman,Right,
59,6,1,0.8341391999992993,['n'],1,right,['8'],4,0.250116799999887,0.1,0,AccFast,15,19,Woman,Right,
0,7,1,3.4491438000004564,['c'],0,right,['8'],4,1.6502821999993103,0.1,0,AccAcc,15,19,Woman,Right,
1,7,1,1.0160765000000538,['n'],1,right,['9'],5,0.7178238999995301,0.1,0,AccAcc,15,19,Woman,Right,
2,7,1,3.9999243000002025,['n'],1,right,['9'],5,0.8341528000000835,0.1,0,AccAcc,15,19,Woman,Right,
3,7,1,0.917199200000141,['n'],1,right,['9'],5,0.7174355999995896,0.2,0,AccAcc,15,19,Woman,Right,
4,7,1,0.9336073000004035,['n'],1,right,['0'],6,0.5341779000000315,0.4,0,AccAcc,15,19,Woman,Right,
5,7,1,2.666056000000026,['n'],0,left,['9'],5,0.9008324999995239,0.2,0,AccAcc,15,19,Woman,Right,
6,7,1,3.0505324999994627,['n'],0,left,['0'],6,0.6336821999993845,0.4,0,AccAcc,15,19,Woman,Right,
7,7,1,2.866841299999578,['n'],1,right,['8'],4,0.7675005000000965,0.1,0,AccAcc,15,19,Woman,Right,
8,7,1,1.4669418000003134,['n'],0,left,['9'],5,0.41777710000042134,0.2,0,AccAcc,15,19,Woman,Right,
9,7,1,5.000270900000032,x,-99,right,none,-99,-99,0.4,1,AccAcc,15,19,Woman,Right,
10,7,1,1.0334696999998414,['n'],0,left,['9'],5,0.7011886999998751,0.1,0,AccAcc,15,19,Woman,Right,
11,7,1,0.9343048000000636,['c'],0,right,['9'],5,0.9841096999998626,0.1,0,AccAcc,15,19,Woman,Right,
12,7,1,1.3002672999991773,['c'],0,right,['8'],4,0.5508086999998341,0.2,0,AccAcc,15,19,Woman,Right,
13,7,1,1.3999680000006265,['n'],0,left,['8'],4,0.46737949999987904,0.1,0,AccAcc,15,19,Woman,Right,
14,7,1,0.9001112000005378,['c'],0,right,['8'],4,0.3675135000003138,0.2,0,AccAcc,15,19,Woman,Right,
15,7,1,1.133484399999361,['c'],0,right,['8'],4,0.634176400000797,0.2,0,AccAcc,15,19,Woman,Right,
16,7,1,2.667037899999741,['c'],0,right,['8'],4,0.6175153000003775,0.1,0,AccAcc,15,19,Woman,Right,
17,7,1,1.5826617000002443,['n'],0,left,['3'],3,0.7172144000005574,0.1,0,AccAcc,15,19,Woman,Right,
18,7,1,0.750735600000553,['n'],1,right,['8'],4,0.6343221000006452,0.4,0,AccAcc,15,19,Woman,Right,
19,7,1,1.3991508999997677,['c'],1,left,['8'],4,0.5837468999998237,0.2,0,AccAcc,15,19,Woman,Right,
20,7,1,0.9840634000001955,['c'],0,right,['9'],5,0.6675760999996783,0.4,0,AccAcc,15,19,Woman,Right,
21,7,1,1.3173479999995834,['n'],1,right,['9'],5,1.2674300999997286,0.2,0,AccAcc,15,19,Woman,Right,
22,7,1,0.9503600999996706,['c'],1,left,['0'],6,1.0176508000004105,0.4,0,AccAcc,15,19,Woman,Right,
23,7,1,0.8161786000000575,['n'],1,right,['0'],6,0.45105839999996533,0.4,0,AccAcc,15,19,Woman,Right,
24,7,1,1.0827751000006174,['c'],1,left,['9'],5,0.7833675000001676,0.4,0,AccAcc,15,19,Woman,Right,
25,7,1,1.9656980999998268,['c'],0,right,['8'],4,1.034393199999613,0.1,0,AccAcc,15,19,Woman,Right,
26,7,1,2.0165257999997266,['c'],1,left,['8'],4,0.5176860000001398,0.4,0,AccAcc,15,19,Woman,Right,
27,7,1,0.8168613999996523,['c'],1,left,['0'],6,0.5679517999997188,0.4,0,AccAcc,15,19,Woman,Right,
28,7,1,0.8843054999997548,['c'],1,left,['0'],6,0.7843514999995023,0.2,0,AccAcc,15,19,Woman,Right,
29,7,1,1.083577299999888,['c'],0,right,['0'],6,0.35113170000022365,0.1,0,AccAcc,15,19,Woman,Right,
30,7,1,1.2171635999993669,['c'],1,left,['9'],5,0.3509537999998429,0.4,0,AccAcc,15,19,Woman,Right,
31,7,1,1.2499401000004582,['c'],0,right,['9'],5,0.6173202999998466,0.2,0,AccAcc,15,19,Woman,Right,
32,7,1,2.4663282999999865,['c'],1,left,['8'],4,0.5835154999995211,0.1,0,AccAcc,15,19,Woman,Right,
33,7,1,2.899681299999429,['n'],1,right,['3'],3,0.7007333000001381,0.1,0,AccAcc,15,19,Woman,Right,
34,7,1,1.0163794000000053,['n'],0,left,['3'],3,0.4172445999993215,0.1,0,AccAcc,15,19,Woman,Right,
35,7,1,0.9677104000002146,['n'],1,right,['3'],3,0.31757249999918713,0.1,0,AccAcc,15,19,Woman,Right,
36,7,1,1.2172042000001966,['n'],0,left,['9'],5,0.650677600000563,0.4,0,AccAcc,15,19,Woman,Right,
37,7,1,1.7004074000005858,['c'],1,left,['2'],2,0.5672412000003533,0.2,0,AccAcc,15,19,Woman,Right,
38,7,1,1.5505331000003935,['n'],0,left,['3'],3,0.8672550000001138,0.1,0,AccAcc,15,19,Woman,Right,
39,7,1,1.1177004000001034,['n'],0,left,['8'],4,0.6842349999997168,0.4,0,AccAcc,15,19,Woman,Right,
40,7,1,1.7505049000001236,['c'],1,left,['8'],4,0.3670994000003702,0.2,0,AccAcc,15,19,Woman,Right,
41,7,1,0.7841480000006413,['c'],0,right,['8'],4,0.3835191999996823,0.1,0,AccAcc,15,19,Woman,Right,
42,7,1,1.0508896000001187,['c'],0,right,['8'],4,0.38411530000030325,0.4,0,AccAcc,15,19,Woman,Right,
43,7,1,1.034306700000343,['c'],1,left,['8'],4,0.5338910999998916,0.2,0,AccAcc,15,19,Woman,Right,
44,7,1,1.2163278000007267,['n'],0,left,['8'],4,0.5513897000000725,0.2,0,AccAcc,15,19,Woman,Right,
45,7,1,1.0502056000004814,['c'],1,left,['8'],4,0.21753630000057456,0.2,0,AccAcc,15,19,Woman,Right,
46,7,1,1.683017800000016,['c'],1,left,['9'],5,0.7339935999998488,0.4,0,AccAcc,15,19,Woman,Right,
47,7,1,0.8661036999992575,['n'],1,right,['0'],6,0.48421220000000176,0.4,0,AccAcc,15,19,Woman,Right,
48,7,1,1.9991632999999638,['n'],1,right,['8'],4,0.86795230000007,0.1,0,AccAcc,15,19,Woman,Right,
49,7,1,0.6174043000000893,['c'],1,left,['9'],5,0.45079030000033526,0.4,0,AccAcc,15,19,Woman,Right,
50,7,1,0.7837682999997924,['n'],1,right,['9'],5,0.6677915999998731,0.2,0,AccAcc,15,19,Woman,Right,
51,7,1,0.9165343000004214,['c'],1,left,['0'],6,0.5678648000002795,0.2,0,AccAcc,15,19,Woman,Right,
52,7,1,1.6342603000002782,['n'],0,left,['8'],4,1.2845989999996164,0.4,0,AccAcc,15,19,Woman,Right,
53,7,1,0.849975699999959,['c'],1,left,['9'],5,0.600803199999973,0.4,0,AccAcc,15,19,Woman,Right,
54,7,1,1.300049699999363,['n'],0,left,['2'],2,0.7672132999996393,0.2,0,AccAcc,15,19,Woman,Right,
55,7,1,0.9168418999997812,['n'],1,right,['3'],3,0.633637699999781,0.1,0,AccAcc,15,19,Woman,Right,
56,7,1,1.3838830000004236,['n'],1,right,['9'],5,0.7168277999999191,0.4,0,AccAcc,15,19,Woman,Right,
57,7,1,1.066999699999542,['c'],0,right,['9'],5,0.4505005999999412,0.2,0,AccAcc,15,19,Woman,Right,
58,7,1,1.0005932999993092,['c'],0,right,['9'],5,0.6010455000005095,0.1,0,AccAcc,15,19,Woman,Right,
59,7,1,1.033673699999781,['c'],1,left,['8'],4,0.5504344999999375,0.2,0,AccAcc,15,19,Woman,Right,
0,8,1,0.6162079999994603,['c'],0,right,['8'],4,1.1506023000001733,0.1,0,FastAcc,15,19,Woman,Right,
1,8,1,0.9503276000004917,['c'],1,left,['8'],4,1.1175248999998075,0.2,0,FastAcc,15,19,Woman,Right,
2,8,1,1.2167371000005005,['n'],0,left,['3'],3,1.1341466000003493,0.1,0,FastAcc,15,19,Woman,Right,
3,8,1,0.9004639999993742,['n'],1,right,['8'],4,0.8177753999998458,0.1,0,FastAcc,15,19,Woman,Right,
4,8,1,0.8342344000002413,['c'],1,left,['9'],5,1.4676135999998223,0.4,0,FastAcc,15,19,Woman,Right,
5,8,1,1.1664013999998133,['c'],1,left,['8'],4,1.1510056000006443,0.2,0,FastAcc,15,19,Woman,Right,
6,8,1,0.950460899999598,['c'],0,right,['9'],5,1.250257600000623,0.1,0,FastAcc,15,19,Woman,Right,
7,8,1,0.9164293999992879,['c'],0,right,['3'],3,1.3505475000001752,0.2,0,FastAcc,15,19,Woman,Right,
8,8,1,0.8341829000000871,['n'],1,right,['8'],4,1.1671888000000763,0.4,0,FastAcc,15,19,Woman,Right,
9,8,1,0.9666179000005286,['c'],1,left,['8'],4,0.8011274999998932,0.4,0,FastAcc,15,19,Woman,Right,
10,8,1,1.0178322000001572,['n'],1,right,['9'],5,0.917511800000284,0.2,0,FastAcc,15,19,Woman,Right,
11,8,1,1.067167100000006,['c'],1,left,['9'],5,0.6005015999999159,0.2,0,FastAcc,15,19,Woman,Right,
12,8,1,1.0665447999999742,['n'],0,left,['8'],4,0.46667749999960506,0.1,0,FastAcc,15,19,Woman,Right,
13,8,1,0.6996773000000758,['n'],1,right,['9'],5,1.1846907999997711,0.2,0,FastAcc,15,19,Woman,Right,
14,8,1,0.6336710000005041,['c'],1,left,['0'],6,0.7337903999996342,0.4,0,FastAcc,15,19,Woman,Right,
15,8,1,0.9492750999997952,['n'],0,left,['9'],5,0.8339961000001495,0.2,0,FastAcc,15,19,Woman,Right,
16,8,1,0.5164002000001346,['c'],0,right,['9'],5,1.2340296000002127,0.2,0,FastAcc,15,19,Woman,Right,
17,8,1,0.7171241999994891,['n'],1,right,['8'],4,0.9839555999997174,0.1,0,FastAcc,15,19,Woman,Right,
18,8,1,1.06660169999941,['c'],1,left,['3'],3,1.1337811000003057,0.2,0,FastAcc,15,19,Woman,Right,
19,8,1,1.6329883999997037,['n'],0,left,['2'],2,1.1007510999997976,0.1,0,FastAcc,15,19,Woman,Right,
20,8,1,0.85112670000035,['n'],1,right,['8'],4,1.8841164000004937,0.2,0,FastAcc,15,19,Woman,Right,
21,8,1,1.7660986000000776,['n'],0,left,['2'],2,0.9008592000000135,0.2,0,FastAcc,15,19,Woman,Right,
22,8,1,0.9169644000003245,['c'],1,left,['8'],4,1.301275199999509,0.4,0,FastAcc,15,19,Woman,Right,
23,8,1,0.6338605000000825,['n'],0,left,['8'],4,1.3671790999997029,0.2,0,FastAcc,15,19,Woman,Right,
24,8,1,0.5670019999997749,['c'],0,right,['8'],4,1.0674349000000802,0.1,0,FastAcc,15,19,Woman,Right,
25,8,1,0.6659172999998191,['c'],1,left,['8'],4,1.100402799999756,0.4,0,FastAcc,15,19,Woman,Right,
26,8,1,0.80060659999981,['c'],1,left,['8'],4,1.1511096000003818,0.4,0,FastAcc,15,19,Woman,Right,
27,8,1,1.033789799999795,['c'],0,right,['8'],4,0.9170773000005283,0.1,0,FastAcc,15,19,Woman,Right,
28,8,1,0.982674799999586,['c'],0,right,['9'],5,0.5511444000003394,0.1,0,FastAcc,15,19,Woman,Right,
29,8,1,1.1345891999999367,['c'],1,left,['9'],5,1.0172664000001532,0.1,0,FastAcc,15,19,Woman,Right,
30,8,1,2.21665320000011,['n'],0,left,['8'],4,1.0340833999998722,0.4,0,FastAcc,15,19,Woman,Right,
31,8,1,1.0168077999996967,['n'],0,left,['8'],4,1.3674707999998645,0.4,0,FastAcc,15,19,Woman,Right,
32,8,1,1.1335971999997128,['n'],1,right,['3'],3,1.2510498999999982,0.1,0,FastAcc,15,19,Woman,Right,
33,8,1,1.2663317999995343,['n'],1,right,['2'],2,0.6674416000005294,0.1,0,FastAcc,15,19,Woman,Right,
34,8,1,1.5832893000006152,['n'],0,left,['2'],2,0.5339592999998786,0.4,0,FastAcc,15,19,Woman,Right,
35,8,1,0.699882200000502,['n'],0,left,['3'],3,1.1005055000005086,0.4,0,FastAcc,15,19,Woman,Right,
36,8,1,0.6507863999995607,['n'],1,right,['9'],5,1.2838721999996778,0.2,0,FastAcc,15,19,Woman,Right,
37,8,1,0.8170522999998866,['n'],0,left,['3'],3,1.1840728999995918,0.1,0,FastAcc,15,19,Woman,Right,
38,8,1,0.5839943000000858,['n'],1,right,['9'],5,0.9671900000003006,0.4,0,FastAcc,15,19,Woman,Right,
39,8,1,1.1171691999998075,['c'],1,left,['8'],4,0.6507848999999624,0.1,0,FastAcc,15,19,Woman,Right,
40,8,1,0.5336059000001114,['n'],1,right,['8'],4,1.5008935000005295,0.1,0,FastAcc,15,19,Woman,Right,
41,8,1,0.7347007000007579,['n'],1,right,['9'],5,1.1177668000000267,0.2,0,FastAcc,15,19,Woman,Right,
42,8,1,1.033653200000117,['c'],0,right,['8'],4,1.2673474000002898,0.1,0,FastAcc,15,19,Woman,Right,
43,8,1,0.86792080000032,['n'],1,right,['9'],5,1.5340753999998924,0.2,0,FastAcc,15,19,Woman,Right,
44,8,1,1.0326538999997865,['n'],1,right,['8'],4,0.8835656000001109,0.4,0,FastAcc,15,19,Woman,Right,
45,8,1,1.1663852000001498,['n'],1,right,['8'],4,0.7177087999998548,0.1,0,FastAcc,15,19,Woman,Right,
46,8,1,0.8488564999997834,['n'],1,right,['8'],4,0.7175976999997147,0.4,0,FastAcc,15,19,Woman,Right,
47,8,1,0.7827659000004132,['c'],1,left,['9'],5,0.7174551999996766,0.4,0,FastAcc,15,19,Woman,Right,
48,8,1,0.5001257000003534,['n'],1,right,['2'],2,0.9676928999997472,0.2,0,FastAcc,15,19,Woman,Right,
49,8,1,0.7163883000002897,['n'],0,left,['1'],1,1.5170628000005308,0.2,0,FastAcc,15,19,Woman,Right,
50,8,1,1.0005714999997508,['n'],1,right,['2'],2,0.6505135000006703,0.4,0,FastAcc,15,19,Woman,Right,
51,8,1,1.1001507000000856,['n'],1,right,['8'],4,0.667178700000477,0.4,0,FastAcc,15,19,Woman,Right,
52,8,1,1.1672695999995994,['c'],1,left,['8'],4,1.4679464000000735,0.4,0,FastAcc,15,19,Woman,Right,
53,8,1,0.6502222999997684,['n'],1,right,['8'],4,1.4007117999999537,0.2,0,FastAcc,15,19,Woman,Right,
54,8,1,0.6331841000001077,['n'],0,left,['8'],4,2.399892500000533,0.1,0,FastAcc,15,19,Woman,Right,
55,8,1,0.6832308999992165,['n'],1,right,['3'],3,0.8507558999999674,0.4,0,FastAcc,15,19,Woman,Right,
56,8,1,0.3999869999997827,['n'],0,left,['1'],1,1.3666214999993826,0.4,0,FastAcc,15,19,Woman,Right,
57,8,1,0.5505232999994405,['n'],1,right,['2'],2,1.850475400000505,0.1,0,FastAcc,15,19,Woman,Right,
58,8,1,1.1166604000000007,['n'],0,left,['3'],3,0.8346867000000202,0.2,0,FastAcc,15,19,Woman,Right,
59,8,1,1.1994986999998218,['c'],1,left,['8'],4,0.9839958000002298,0.2,0,FastAcc,15,19,Woman,Right,
0,9,1,0.7669923000003109,['c'],1,left,['8'],4,0.18377569999938714,0.2,0,FastFast,15,19,Woman,Right,
1,9,1,0.6158039000001736,['n'],0,left,['3'],3,0.2007437000002028,0.2,0,FastFast,15,19,Woman,Right,
2,9,1,1.0672346000001198,['n'],0,left,['2'],2,0.16716769999948156,0.4,0,FastFast,15,19,Woman,Right,
3,9,1,0.6168674000000465,['n'],0,left,['2'],2,0.45086519999949815,0.2,0,FastFast,15,19,Woman,Right,
4,9,1,0.9664804999993066,['c'],1,left,['8'],4,0.15078940000057628,0.4,0,FastFast,15,19,Woman,Right,
5,9,1,0.5673327999993489,['c'],1,left,['8'],4,0.2006628000008277,0.2,0,FastFast,15,19,Woman,Right,
6,9,1,0.6670934000003399,['n'],1,right,['3'],3,0.3341981000003216,0.4,0,FastFast,15,19,Woman,Right,
7,9,1,0.5658853000004456,['c'],1,left,['8'],4,0.35067459999936546,0.1,0,FastFast,15,19,Woman,Right,
8,9,1,0.9835942999998224,['c'],1,left,['9'],5,0.5340657000006104,0.4,0,FastFast,15,19,Woman,Right,
9,9,1,0.7829343999992489,['n'],0,left,['8'],4,0.5680228999999599,0.4,0,FastFast,15,19,Woman,Right,
10,9,1,0.7006587000005311,['n'],1,right,['9'],5,0.28372069999932137,0.4,0,FastFast,15,19,Woman,Right,
11,9,1,0.7833583999999973,['c'],0,right,['9'],5,0.16745969999919907,0.1,0,FastFast,15,19,Woman,Right,
12,9,1,0.7668152000005648,['c'],1,left,['9'],5,0.3178680999999415,0.2,0,FastFast,15,19,Woman,Right,
13,9,1,0.8835065000002942,['c'],1,left,['8'],4,0.26658279999992374,0.1,0,FastFast,15,19,Woman,Right,
14,9,1,1.1833373999998003,['n'],0,left,['2'],2,0.3840774999998757,0.2,0,FastFast,15,19,Woman,Right,
15,9,1,0.6673533000002863,['n'],1,right,['3'],3,0.3172801000000618,0.4,0,FastFast,15,19,Woman,Right,
16,9,1,0.7833197999998447,['n'],1,right,['9'],5,0.3838968999998542,0.4,0,FastFast,15,19,Woman,Right,
17,9,1,0.6008837999997922,['c'],1,left,['8'],4,0.33379469999999856,0.1,0,FastFast,15,19,Woman,Right,
18,9,1,0.45021450000058394,['n'],1,right,['8'],4,0.43377810000038153,0.1,0,FastFast,15,19,Woman,Right,
19,9,1,0.6834339000006366,['c'],1,left,['8'],4,0.351050899999791,0.1,0,FastFast,15,19,Woman,Right,
20,9,1,0.7163259999997535,['c'],1,left,['2'],2,0.901071199999933,0.4,0,FastFast,15,19,Woman,Right,
21,9,1,0.9511003000006895,['c'],1,left,['2'],2,0.33357640000031097,0.2,0,FastFast,15,19,Woman,Right,
22,9,1,0.8495467000002463,['c'],1,left,['8'],4,0.23378630000024714,0.4,0,FastFast,15,19,Woman,Right,
23,9,1,0.9324782000003324,['n'],1,right,['8'],4,0.4674302000003081,0.2,0,FastFast,15,19,Woman,Right,
24,9,1,0.5001785999993444,['n'],1,right,['8'],4,0.2510930999997072,0.2,0,FastFast,15,19,Woman,Right,
25,9,1,0.683711200000289,['c'],0,right,['3'],3,0.700588599999719,0.1,0,FastFast,15,19,Woman,Right,
26,9,1,0.6668504999997822,['c'],0,right,['2'],2,0.33405450000009296,0.1,0,FastFast,15,19,Woman,Right,
27,9,1,0.49945819999993546,['n'],1,right,['2'],2,0.28349860000071203,0.2,0,FastFast,15,19,Woman,Right,
28,9,1,0.9337213999997402,['n'],1,right,['2'],2,0.6008969000004072,0.1,0,FastFast,15,19,Woman,Right,
29,9,1,0.7336059999997815,['n'],0,left,['1'],1,1.5671094999997877,0.2,0,FastFast,15,19,Woman,Right,
30,9,1,0.6671148000004905,['n'],1,right,['9'],5,0.40078900000025897,0.2,0,FastFast,15,19,Woman,Right,
31,9,1,0.7999298999993698,['n'],1,right,['9'],5,0.43408759999965696,0.2,0,FastFast,15,19,Woman,Right,
32,9,1,0.6669013000000632,['n'],1,right,['8'],4,0.23357920000034937,0.4,0,FastFast,15,19,Woman,Right,
33,9,1,0.9339834000002156,['c'],0,right,['3'],3,0.6336675000002288,0.2,0,FastFast,15,19,Woman,Right,
34,9,1,0.933364900000015,['c'],1,left,['9'],5,0.9507850999998482,0.1,0,FastFast,15,19,Woman,Right,
35,9,1,0.7829814000006081,['n'],1,right,['8'],4,0.36775370000032126,0.1,0,FastFast,15,19,Woman,Right,
36,9,1,0.633357700000488,['c'],0,right,['8'],4,0.26749390000077256,0.2,0,FastFast,15,19,Woman,Right,
37,9,1,0.5329241999997976,['n'],1,right,['8'],4,0.43437119999998686,0.4,0,FastFast,15,19,Woman,Right,
38,9,1,0.583340600000156,['n'],1,right,['9'],5,0.3339054000007309,0.4,0,FastFast,15,19,Woman,Right,
39,9,1,0.783338599999297,['n'],0,left,['9'],5,0.2841773000000103,0.4,0,FastFast,15,19,Woman,Right,
40,9,1,0.6674452000006568,['c'],1,left,['8'],4,0.2172565000000759,0.1,0,FastFast,15,19,Woman,Right,
41,9,1,0.49961870000061026,['n'],1,right,['3'],3,0.3175326999999015,0.2,0,FastFast,15,19,Woman,Right,
42,9,1,0.883389999999963,['n'],0,left,['8'],4,0.150718599999891,0.1,0,FastFast,15,19,Woman,Right,
43,9,1,0.449351299999762,['n'],1,right,['8'],4,0.1674817000002804,0.4,0,FastFast,15,19,Woman,Right,
44,9,1,0.5336146999998164,['n'],0,left,['9'],5,0.4172598000004655,0.1,0,FastFast,15,19,Woman,Right,
45,9,1,0.7329849999996441,['n'],0,left,['2'],2,0.21794450000015786,0.1,0,FastFast,15,19,Woman,Right,
46,9,1,0.6002000999997108,['n'],0,left,['3'],3,0.25108449999970617,0.2,0,FastFast,15,19,Woman,Right,
47,9,1,0.6677415000003748,['c'],0,right,['3'],3,0.5345709000002898,0.1,0,FastFast,15,19,Woman,Right,
48,9,1,0.6840916000001016,['c'],0,right,['3'],3,0.1677743999998711,0.2,0,FastFast,15,19,Woman,Right,
49,9,1,0.8836846000003789,['c'],1,left,['2'],2,0.13398580000011862,0.2,0,FastFast,15,19,Woman,Right,
50,9,1,0.7998445000002903,['n'],0,left,['8'],4,0.28410019999955693,0.4,0,FastFast,15,19,Woman,Right,
51,9,1,0.5831385000001319,['n'],1,right,['8'],4,0.1836817000003066,0.1,0,FastFast,15,19,Woman,Right,
52,9,1,0.5989357000007658,['n'],0,left,['8'],4,0.2003740000000107,0.4,0,FastFast,15,19,Woman,Right,
53,9,1,0.45075309999992896,['c'],1,left,['8'],4,0.1834445999993477,0.4,0,FastFast,15,19,Woman,Right,
54,9,1,0.46777710000060324,['n'],1,right,['8'],4,0.1676737999996476,0.1,0,FastFast,15,19,Woman,Right,
55,9,1,0.43342110000048706,['c'],0,right,['8'],4,0.2006440000004659,0.2,0,FastFast,15,19,Woman,Right,
56,9,1,0.3831384999994043,['c'],0,right,['3'],3,0.9004863000000114,0.1,0,FastFast,15,19,Woman,Right,
57,9,1,1.083787200000188,['c'],1,left,['8'],4,0.6341572000001179,0.4,0,FastFast,15,19,Woman,Right,
58,9,1,0.567107799999576,['c'],0,right,['8'],4,0.21682650000002468,0.1,0,FastFast,15,19,Woman,Right,
59,9,1,0.5177642999997261,['n'],1,right,['9'],5,0.7344519999996919,0.4,0,FastFast,15,19,Woman,Right,
0,10,1,1.7499251999997796,['n'],1,right,['8'],4,0.48345160000008036,0.2,0,AccFast,15,19,Woman,Right,
1,10,1,1.5171459999992294,['n'],1,right,['9'],5,0.13434740000047896,0.1,0,AccFast,15,19,Woman,Right,
2,10,1,1.666707200000019,['n'],1,right,['8'],4,0.13429079999968963,0.1,0,AccFast,15,19,Woman,Right,
3,10,1,1.1506919000003109,['n'],1,right,['9'],5,0.1835676999999123,0.2,0,AccFast,15,19,Woman,Right,
4,10,1,1.68347840000024,['c'],1,left,['3'],3,0.6009039000000485,0.2,0,AccFast,15,19,Woman,Right,
5,10,1,1.2331505000001926,['n'],1,right,['9'],5,0.1506020000006174,0.2,0,AccFast,15,19,Woman,Right,
6,10,1,0.7338328000005276,['n'],0,left,['9'],5,0.200796299999638,0.2,0,AccFast,15,19,Woman,Right,
7,10,1,0.9338731000007101,['n'],1,right,['0'],6,0.18411459999970248,0.4,0,AccFast,15,19,Woman,Right,
8,10,1,0.7834852000005412,['n'],1,right,['9'],5,0.21742619999986346,0.2,0,AccFast,15,19,Woman,Right,
9,10,1,1.0164150999999038,['c'],1,left,['8'],4,0.3509158999995634,0.1,0,AccFast,15,19,Woman,Right,
10,10,1,0.9664033999997628,['c'],1,left,['8'],4,0.31753779999962717,0.4,0,AccFast,15,19,Woman,Right,
11,10,1,1.5167303999996875,['c'],0,right,['2'],2,0.26697520000016084,0.1,0,AccFast,15,19,Woman,Right,
12,10,1,1.4850242000002254,['c'],1,left,['8'],4,0.20098239999970247,0.1,0,AccFast,15,19,Woman,Right,
13,10,1,2.3000251999992543,['c'],0,right,['8'],4,0.4338428999999451,0.4,0,AccFast,15,19,Woman,Right,
14,10,1,1.4997771999996985,['c'],1,left,['8'],4,0.40073389999997744,0.4,0,AccFast,15,19,Woman,Right,
15,10,1,0.7669529000004331,['n'],1,right,['3'],3,0.21775419999994483,0.4,0,AccFast,15,19,Woman,Right,
16,10,1,1.3168550000000323,['n'],1,right,['2'],2,0.21717549999993935,0.1,0,AccFast,15,19,Woman,Right,
17,10,1,1.649529999999686,['n'],1,right,['9'],5,0.35092789999998786,0.4,0,AccFast,15,19,Woman,Right,
18,10,1,1.3331574999992881,['n'],1,right,['9'],5,0.25084849999984726,0.1,0,AccFast,15,19,Woman,Right,
19,10,1,2.850704499999665,['c'],1,left,['9'],5,0.05104840000058175,0.1,0,AccFast,15,19,Woman,Right,
20,10,1,1.2663376000000426,['n'],1,right,['8'],4,0.16700760000003356,0.1,0,AccFast,15,19,Woman,Right,
21,10,1,1.1167648000000554,['c'],1,left,['8'],4,0.11754589999964082,0.2,0,AccFast,15,19,Woman,Right,
22,10,1,1.4666682999995828,['c'],0,right,['8'],4,0.1010891999994783,0.1,0,AccFast,15,19,Woman,Right,
23,10,1,1.149947400000201,['c'],1,left,['3'],3,0.0504823999999644,0.2,0,AccFast,15,19,Woman,Right,
24,10,1,2.583496300000661,['c'],1,left,['8'],4,0.11735370000042167,0.2,0,AccFast,15,19,Woman,Right,
25,10,1,1.8997608999998192,['n'],1,right,['9'],5,0.06801220000033936,0.2,0,AccFast,15,19,Woman,Right,
26,10,1,1.8665369000000283,['n'],0,left,['8'],4,0.05077590000018972,0.4,0,AccFast,15,19,Woman,Right,
27,10,1,1.815807599999971,['c'],0,right,['0'],6,0.11767220000001544,0.1,0,AccFast,15,19,Woman,Right,
28,10,1,1.700673000000279,['c'],0,right,['9'],5,0.10063009999976202,0.2,0,AccFast,15,19,Woman,Right,
29,10,1,1.2337256000000707,['c'],1,left,['9'],5,0.016965100000561506,0.1,0,AccFast,15,19,Woman,Right,
30,10,1,1.8002435000007608,['c'],1,left,['9'],5,0.051064499999483814,0.2,0,AccFast,15,19,Woman,Right,
31,10,1,1.0661000999998578,['c'],0,right,['8'],4,0.05063960000006773,0.1,0,AccFast,15,19,Woman,Right,
32,10,1,2.2336509000006117,['c'],1,left,['8'],4,0.11738119999972696,0.4,0,AccFast,15,19,Woman,Right,
33,10,1,2.5834145999997418,['n'],1,right,['9'],5,0.1678033999996842,0.4,0,AccFast,15,19,Woman,Right,
34,10,1,1.3840001999997185,['n'],1,right,['9'],5,0.16767590000017663,0.2,0,AccFast,15,19,Woman,Right,
35,10,1,1.232887699999992,['c'],1,left,['9'],5,0.11704569999983505,0.4,0,AccFast,15,19,Woman,Right,
36,10,1,1.549926400000004,['c'],1,left,['8'],4,0.10048559999995632,0.4,0,AccFast,15,19,Woman,Right,
37,10,1,1.4833737999997538,['n'],0,left,['8'],4,0.7508134999998219,0.1,0,AccFast,15,19,Woman,Right,
38,10,1,2.349363799999992,['n'],0,left,['3'],3,0.3174038000006476,0.1,0,AccFast,15,19,Woman,Right,
39,10,1,1.0173416999996334,['n'],1,right,['2'],2,0.20069789999979548,0.4,0,AccFast,15,19,Woman,Right,
40,10,1,0.9830242000007274,['n'],1,right,['9'],5,0.18427819999942585,0.1,0,AccFast,15,19,Woman,Right,
41,10,1,0.8831631000002744,['n'],0,left,['8'],4,0.18405719999918801,0.2,0,AccFast,15,19,Woman,Right,
42,10,1,0.8005797000005259,['c'],0,right,['8'],4,0.0677032000003237,0.1,0,AccFast,15,19,Woman,Right,
43,10,1,2.34930439999971,['c'],1,left,['3'],3,0.15111780000006547,0.4,0,AccFast,15,19,Woman,Right,
44,10,1,0.9006457000004957,['n'],1,right,['8'],4,0.10109649999958492,0.2,0,AccFast,15,19,Woman,Right,
45,10,1,0.8503074000000197,['c'],1,left,['8'],4,0.10130200000003242,0.4,0,AccFast,15,19,Woman,Right,
46,10,1,0.8165976999998747,['n'],0,left,['8'],4,0.10115000000041618,0.2,0,AccFast,15,19,Woman,Right,
47,10,1,0.9169423000003007,['c'],1,left,['8'],4,0.08340140000018437,0.2,0,AccFast,15,19,Woman,Right,
48,10,1,0.9168050999996922,['n'],0,left,['8'],4,0.16790190000028815,0.2,0,AccFast,15,19,Woman,Right,
49,10,1,0.8326302000004944,['n'],0,left,['8'],4,0.11724950000007084,0.4,0,AccFast,15,19,Woman,Right,
50,10,1,0.7659421999996994,['c'],0,right,['8'],4,0.13457059999927878,0.1,0,AccFast,15,19,Woman,Right,
51,10,1,0.6834609000006822,['c'],0,right,['8'],4,0.08347240000057354,0.2,0,AccFast,15,19,Woman,Right,
52,10,1,0.5836028000003353,['n'],1,right,['8'],4,0.3346057999997356,0.1,0,AccFast,15,19,Woman,Right,
53,10,1,1.0003458999999566,['n'],1,right,['9'],5,0.13387590000002092,0.4,0,AccFast,15,19,Woman,Right,
54,10,1,0.7669822999996541,['c'],1,left,['9'],5,0.6839314999997441,0.4,0,AccFast,15,19,Woman,Right,
55,10,1,1.4498418000002857,['n'],1,right,['9'],5,0.100714500000322,0.4,0,AccFast,15,19,Woman,Right,
56,10,1,0.8663551999998163,['c'],1,left,['9'],5,0.11754099999961909,0.2,0,AccFast,15,19,Woman,Right,
57,10,1,1.5332382999995389,['c'],1,left,['8'],4,0.6175327000000834,0.4,0,AccFast,15,19,Woman,Right,
58,10,1,0.9161659000001237,['c'],1,left,['0'],6,0.38423120000061317,0.1,0,AccFast,15,19,Woman,Right,
59,10,1,0.6332934999991267,['c'],1,left,['8'],4,0.8178188000001683,0.4,0,AccFast,15,19,Woman,Right,
0,11,1,1.8500369000003047,['n'],1,right,['8'],4,0.43412309999985155,0.1,0,AccAcc,15,19,Woman,Right,
1,11,1,1.9835283000002164,['c'],0,right,['9'],5,0.5343507999996291,0.1,0,AccAcc,15,19,Woman,Right,
2,11,1,1.2334889000003386,['c'],1,left,['0'],6,0.36728949999996985,0.4,0,AccAcc,15,19,Woman,Right,
3,11,1,1.2331928000003245,['c'],1,left,['9'],5,0.38404020000052697,0.2,0,AccAcc,15,19,Woman,Right,
4,11,1,1.349363500000436,['c'],1,left,['9'],5,0.4673934000002191,0.1,0,AccAcc,15,19,Woman,Right,
5,11,1,1.450021000000561,['c'],1,left,['0'],6,0.3177896999995937,0.4,0,AccAcc,15,19,Woman,Right,
6,11,1,1.7508441999998468,['n'],0,left,['8'],4,1.3842240000003585,0.4,0,AccAcc,15,19,Woman,Right,
7,11,1,3.0843071999997846,['n'],0,left,['3'],3,0.4507641000000149,0.2,0,AccAcc,15,19,Woman,Right,
8,11,1,0.7845957999998063,['n'],1,right,['8'],4,0.7840828999997029,0.1,0,AccAcc,15,19,Woman,Right,
9,11,1,0.9839425000000119,['n'],1,right,['9'],5,0.2840979000002335,0.4,0,AccAcc,15,19,Woman,Right,
10,11,1,1.3661810000003243,['c'],0,right,['9'],5,1.5008285000003525,0.2,0,AccAcc,15,19,Woman,Right,
11,11,1,1.016259699999864,['c'],1,left,['9'],5,0.8340935999995054,0.2,0,AccAcc,15,19,Woman,Right,
12,11,1,0.9000071000000389,['n'],1,right,['8'],4,0.7674098000006779,0.2,0,AccAcc,15,19,Woman,Right,
13,11,1,1.2335290999999415,['c'],1,left,['2'],2,1.3677342000000863,0.1,0,AccAcc,15,19,Woman,Right,
14,11,1,0.9669227000003957,['n'],1,right,['3'],3,1.4507257000004756,0.4,0,AccAcc,15,19,Woman,Right,
15,11,1,1.3668533000000025,['n'],0,left,['3'],3,1.1008727999997063,0.2,0,AccAcc,15,19,Woman,Right,
16,11,1,1.6501641000004383,['c'],1,left,['2'],2,0.9671469000004436,0.1,0,AccAcc,15,19,Woman,Right,
17,11,1,0.8675493000000642,['n'],1,right,['8'],4,0.4169982000003074,0.4,0,AccAcc,15,19,Woman,Right,
18,11,1,1.0998794000006455,['n'],1,right,['8'],4,0.3510077999999339,0.2,0,AccAcc,15,19,Woman,Right,
19,11,1,1.1483189000000493,['n'],1,right,['9'],5,0.36748979999993026,0.2,0,AccAcc,15,19,Woman,Right,
20,11,1,0.8002110999996148,['n'],1,right,['9'],5,0.34999819999939064,0.4,0,AccAcc,15,19,Woman,Right,
21,11,1,2.8840280000003986,['c'],0,right,['8'],4,1.0844600000000355,0.2,0,AccAcc,15,19,Woman,Right,
22,11,1,2.8837580999997954,['n'],1,right,['9'],5,0.9337109999996756,0.4,0,AccAcc,15,19,Woman,Right,
23,11,1,0.9484984999999142,['c'],0,right,['8'],4,0.6178038000007291,0.4,0,AccAcc,15,19,Woman,Right,
24,11,1,0.9997229999999035,['c'],1,left,['9'],5,0.7671410000002652,0.4,0,AccAcc,15,19,Woman,Right,
25,11,1,1.2172589000001608,['n'],1,right,['8'],4,0.7674865999997564,0.2,0,AccAcc,15,19,Woman,Right,
26,11,1,2.1668265000007523,['n'],1,right,['8'],4,0.7671958000000814,0.2,0,AccAcc,15,19,Woman,Right,
27,11,1,0.9665203000004112,['c'],1,left,['9'],5,0.9673961999997118,0.2,0,AccAcc,15,19,Woman,Right,
28,11,1,2.0173904999992374,['c'],1,left,['9'],5,0.46761610000066867,0.4,0,AccAcc,15,19,Woman,Right,
29,11,1,1.5169946999994863,['n'],1,right,['2'],2,0.9674762000013288,0.1,0,AccAcc,15,19,Woman,Right,
30,11,1,1.0495515999991767,['c'],1,left,['3'],3,0.40093530000012834,0.1,0,AccAcc,15,19,Woman,Right,
31,11,1,1.2013821999989887,['c'],1,left,['8'],4,0.18395570000029693,0.2,0,AccAcc,15,19,Woman,Right,
32,11,1,1.133404000000155,['n'],1,right,['8'],4,1.0008780999996816,0.1,0,AccAcc,15,19,Woman,Right,
33,11,1,1.4342692000009265,['c'],1,left,['3'],3,1.2679155999994691,0.1,0,AccAcc,15,19,Woman,Right,
34,11,1,2.349400799999785,['n'],1,right,['3'],3,0.5839095999999699,0.1,0,AccAcc,15,19,Woman,Right,
35,11,1,1.499288199998773,['n'],0,left,['9'],5,0.6178431999996974,0.4,0,AccAcc,15,19,Woman,Right,
36,11,1,1.4335604999996576,['c'],0,right,['9'],5,0.6340359999994689,0.1,0,AccAcc,15,19,Woman,Right,
37,11,1,1.017139399998996,['c'],1,left,['0'],6,0.684175000000323,0.2,0,AccAcc,15,19,Woman,Right,
38,11,1,1.3510012999995524,['n'],1,right,['3'],3,1.8505779000006441,0.1,0,AccAcc,15,19,Woman,Right,
39,11,1,0.8675482999988162,['n'],1,right,['3'],3,1.050516699999207,0.4,0,AccAcc,15,19,Woman,Right,
40,11,1,0.9169942999997147,['n'],0,left,['9'],5,1.067539099998612,0.1,0,AccAcc,15,19,Woman,Right,
41,11,1,0.8668787000005977,['n'],1,right,['8'],4,0.8008408999994572,0.4,0,AccAcc,15,19,Woman,Right,
42,11,1,1.7675326999997196,['c'],1,left,['8'],4,0.7337827000010293,0.4,0,AccAcc,15,19,Woman,Right,
43,11,1,1.2159343000002991,['n'],1,right,['8'],4,1.3172598000001017,0.4,0,AccAcc,15,19,Woman,Right,
44,11,1,1.06750269999975,['n'],1,right,['9'],5,0.8336945999999443,0.1,0,AccAcc,15,19,Woman,Right,
45,11,1,0.9337954000002355,['n'],1,right,['8'],4,0.834110600000713,0.2,0,AccAcc,15,19,Woman,Right,
46,11,1,0.8661965999999666,['c'],0,right,['8'],4,0.8339213999988715,0.1,0,AccAcc,15,19,Woman,Right,
47,11,1,1.150189499998305,['n'],1,right,['9'],5,0.26761009999972885,0.2,0,AccAcc,15,19,Woman,Right,
48,11,1,1.3830620000007912,['n'],0,left,['9'],5,0.5506964999985939,0.1,0,AccAcc,15,19,Woman,Right,
49,11,1,0.951022400000511,['c'],1,left,['9'],5,0.7339525999996113,0.4,0,AccAcc,15,19,Woman,Right,
50,11,1,0.9995608999997785,['c'],1,left,['8'],4,0.7846090999992157,0.4,0,AccAcc,15,19,Woman,Right,
51,11,1,1.0333697000005486,['c'],1,left,['8'],4,1.7342102999991766,0.2,0,AccAcc,15,19,Woman,Right,
52,11,1,3.4672932000012224,['c'],1,left,['9'],5,0.9345813999989332,0.1,0,AccAcc,15,19,Woman,Right,
53,11,1,1.9331512999997358,['n'],1,right,['0'],6,0.5338148999999248,0.4,0,AccAcc,15,19,Woman,Right,
54,11,1,2.0991531999989093,['n'],0,left,['9'],5,0.9008892000001651,0.4,0,AccAcc,15,19,Woman,Right,
55,11,1,0.9508709000001545,['n'],0,left,['9'],5,0.5171597999997175,0.2,0,AccAcc,15,19,Woman,Right,
56,11,1,1.6831695000000764,['n'],1,right,['8'],4,1.2180062000006728,0.2,0,AccAcc,15,19,Woman,Right,
57,11,1,1.1839211999995314,['n'],0,left,['8'],4,0.5501936000000569,0.1,0,AccAcc,15,19,Woman,Right,
58,11,1,0.9169937999995454,['n'],0,left,['8'],4,1.3674604999996518,0.1,0,AccAcc,15,19,Woman,Right,
59,11,1,1.3007910999986052,['n'],0,left,['9'],5,0.5507042999997793,0.2,0,AccAcc,15,19,Woman,Right,
0,12,1,1.0669643999990512,['n'],1,right,['8'],4,1.4008768000003329,0.4,0,FastAcc,15,19,Woman,Right,
1,12,1,0.5987280000008468,['n'],1,right,['9'],5,1.367577799999708,0.4,0,FastAcc,15,19,Woman,Right,
2,12,1,0.41647419999935664,['n'],1,right,['9'],5,1.6839991999986523,0.4,0,FastAcc,15,19,Woman,Right,
3,12,1,0.6507635999987542,['c'],0,right,['8'],4,1.3832475999988674,0.1,0,FastAcc,15,19,Woman,Right,
4,12,1,0.732629399999496,['c'],1,left,['8'],4,1.9675046000011207,0.4,0,FastAcc,15,19,Woman,Right,
5,12,1,0.7000995999987936,['n'],1,right,['3'],3,1.8666582999994716,0.2,0,FastAcc,15,19,Woman,Right,
6,12,1,0.8998866000001726,['n'],1,right,['3'],3,2.0341850000004342,0.4,0,FastAcc,15,19,Woman,Right,
7,12,1,0.7163037999998778,['n'],0,left,['3'],3,1.7008949999999459,0.1,0,FastAcc,15,19,Woman,Right,
8,12,1,0.7838722999986203,['n'],0,left,['8'],4,2.084148699999787,0.2,0,FastAcc,15,19,Woman,Right,
9,12,1,0.7316317000004346,['c'],1,left,['8'],4,1.5509413999989192,0.1,0,FastAcc,15,19,Woman,Right,
10,12,1,0.5835583999996743,['c'],1,left,['8'],4,1.6840532000005624,0.4,0,FastAcc,15,19,Woman,Right,
11,12,1,0.617382299999008,['c'],1,left,['9'],5,1.7010501999993721,0.2,0,FastAcc,15,19,Woman,Right,
12,12,1,0.6166678000008687,['c'],0,right,['9'],5,1.7676882999985537,0.1,0,FastAcc,15,19,Woman,Right,
13,12,1,2.8005383999989135,['c'],1,left,['2'],2,0.684038800000053,0.1,0,FastAcc,15,19,Woman,Right,
14,12,1,0.7339924000007159,['c'],1,left,['3'],3,1.4675498000015068,0.1,0,FastAcc,15,19,Woman,Right,
15,12,1,0.4001329999991867,['c'],1,left,['8'],4,1.7342714999995223,0.2,0,FastAcc,15,19,Woman,Right,
16,12,1,0.4495619999997871,['c'],0,right,['8'],4,0.93449210000108,0.1,0,FastAcc,15,19,Woman,Right,
17,12,1,1.0990537999987282,['n'],0,left,['9'],5,0.9673965000001772,0.1,0,FastAcc,15,19,Woman,Right,
18,12,1,1.050022400000671,['n'],1,right,['9'],5,1.267812900001445,0.1,0,FastAcc,15,19,Woman,Right,
19,12,1,1.316951999999219,['c'],1,left,['0'],6,0.48362099999940256,0.4,0,FastAcc,15,19,Woman,Right,
20,12,1,2.0664840000008553,['n'],1,right,['8'],4,0.11658910000005562,0.1,0,FastAcc,15,19,Woman,Right,
21,12,1,0.7330134999992879,['c'],1,left,['8'],4,1.8668002000013075,0.1,0,FastAcc,15,19,Woman,Right,
22,12,1,0.9334345000006579,['n'],0,left,['8'],4,1.4840973999998823,0.2,0,FastAcc,15,19,Woman,Right,
23,12,1,0.9665544999988924,['n'],1,right,['8'],4,1.5336635999992723,0.4,0,FastAcc,15,19,Woman,Right,
24,12,1,0.9168884000009712,['c'],0,right,['8'],4,0.20097870000063267,0.2,0,FastAcc,15,19,Woman,Right,
25,12,1,1.151381699999547,['n'],1,right,['8'],4,1.4173737000000983,0.4,0,FastAcc,15,19,Woman,Right,
26,12,1,1.81651039999997,['c'],1,left,['2'],2,0.2176392000001215,0.1,0,FastAcc,15,19,Woman,Right,
27,12,1,0.8988705000010668,['c'],1,left,['3'],3,0.5499507999993511,0.2,0,FastAcc,15,19,Woman,Right,
28,12,1,0.9174129999992147,['c'],1,left,['9'],5,1.084175599999071,0.2,0,FastAcc,15,19,Woman,Right,
29,12,1,1.4004044999983307,['n'],1,right,['8'],4,0.21760339999855205,0.2,0,FastAcc,15,19,Woman,Right,
30,12,1,0.6505409000001237,['c'],1,left,['9'],5,1.266977199999019,0.4,0,FastAcc,15,19,Woman,Right,
31,12,1,1.0175894999993034,['c'],1,left,['8'],4,1.2508921999997256,0.2,0,FastAcc,15,19,Woman,Right,
32,12,1,0.49959709999893676,['c'],1,left,['9'],5,1.03391720000036,0.4,0,FastAcc,15,19,Woman,Right,
33,12,1,0.5506660000010015,['n'],1,right,['0'],6,0.700456700000359,0.2,0,FastAcc,15,19,Woman,Right,
34,12,1,0.666818499999863,['n'],1,right,['8'],4,1.5512145000011515,0.2,0,FastAcc,15,19,Woman,Right,
35,12,1,0.9008209000003262,['c'],0,right,['8'],4,2.2173420999988593,0.4,0,FastAcc,15,19,Woman,Right,
36,12,1,1.1331243000004179,['c'],1,left,['3'],3,0.4177055999989534,0.2,0,FastAcc,15,19,Woman,Right,
37,12,1,0.5002019999992626,['n'],1,right,['3'],3,1.2006771999986086,0.4,0,FastAcc,15,19,Woman,Right,
38,12,1,0.532704700000977,['n'],1,right,['3'],3,1.6342416999996203,0.4,0,FastAcc,15,19,Woman,Right,
39,12,1,1.1494770999997854,['c'],1,left,['8'],4,0.9004236000000674,0.2,0,FastAcc,15,19,Woman,Right,
40,12,1,0.7169625000005908,['n'],1,right,['8'],4,0.7343725000009727,0.1,0,FastAcc,15,19,Woman,Right,
41,12,1,0.8336079999990034,['n'],0,left,['8'],4,1.1509420000002137,0.4,0,FastAcc,15,19,Woman,Right,
42,12,1,0.800753600000462,['c'],0,right,['8'],4,0.28372549999949115,0.2,0,FastAcc,15,19,Woman,Right,
43,12,1,1.6320941999983916,['n'],1,right,['9'],5,0.7671716999993805,0.2,0,FastAcc,15,19,Woman,Right,
44,12,1,1.167477399998461,['c'],1,left,['8'],4,0.8165821999991749,0.2,0,FastAcc,15,19,Woman,Right,
45,12,1,0.5507299000000785,['c'],1,left,['3'],3,1.5670482000004995,0.4,0,FastAcc,15,19,Woman,Right,
46,12,1,0.550009599999612,['n'],0,left,['8'],4,1.2168634000008751,0.1,0,FastAcc,15,19,Woman,Right,
47,12,1,1.1177568999992218,['n'],1,right,['3'],3,1.2009897000007186,0.1,0,FastAcc,15,19,Woman,Right,
48,12,1,2.500618800000666,['n'],1,right,['8'],4,1.1011598999994021,0.2,0,FastAcc,15,19,Woman,Right,
49,12,1,0.43329869999979564,['c'],1,left,['2'],2,0.9177250000011554,0.4,0,FastAcc,15,19,Woman,Right,
50,12,1,0.350783700001557,['c'],1,left,['3'],3,1.000895799999853,0.2,0,FastAcc,15,19,Woman,Right,
51,12,1,0.4337591000003158,['n'],1,right,['8'],4,1.7010945000001811,0.1,0,FastAcc,15,19,Woman,Right,
52,12,1,0.39955510000072536,['n'],0,left,['1'],1,1.1508513999997376,0.4,0,FastAcc,15,19,Woman,Right,
53,12,1,1.2175136000005296,['n'],1,right,['8'],4,1.20090429999982,0.4,0,FastAcc,15,19,Woman,Right,
54,12,1,1.6502990999997564,['n'],1,right,['8'],4,0.6674499000000651,0.1,0,FastAcc,15,19,Woman,Right,
55,12,1,0.6336321000017051,['n'],0,left,['8'],4,0.8677056999986235,0.1,0,FastAcc,15,19,Woman,Right,
56,12,1,0.3340723999990587,['c'],0,right,['8'],4,0.25065859999995155,0.1,0,FastAcc,15,19,Woman,Right,
57,12,1,0.5500597999998718,['c'],1,left,['3'],3,0.917113800000152,0.2,0,FastAcc,15,19,Woman,Right,
58,12,1,0.599265099999684,['n'],1,right,['9'],5,0.5340477999998257,0.4,0,FastAcc,15,19,Woman,Right,
59,12,1,0.39966159999858064,['n'],1,right,['2'],2,0.9179263000005449,0.1,0,FastAcc,15,19,Woman,Right,
0,13,1,0.549576800000068,['n'],0,left,['2'],2,0.4338056000015058,0.2,0,FastFast,15,19,Woman,Right,
1,13,1,0.45016409999880125,['n'],1,right,['8'],4,0.40064320000055886,0.4,0,FastFast,15,19,Woman,Right,
2,13,1,0.45024499999999534,['c'],1,left,['9'],5,0.5009307000000263,0.4,0,FastFast,15,19,Woman,Right,
3,13,1,0.4341274999987945,['c'],1,left,['9'],5,0.4179495999997016,0.2,0,FastFast,15,19,Woman,Right,
4,13,1,0.45097639999949024,['n'],1,right,['9'],5,0.5667805000011867,0.4,0,FastFast,15,19,Woman,Right,
5,13,1,0.5329249999995227,['c'],1,left,['0'],6,0.43388039999990724,0.4,0,FastFast,15,19,Woman,Right,
6,13,1,0.5165943000010884,['n'],1,right,['8'],4,0.5335477999997238,0.2,0,FastFast,15,19,Woman,Right,
7,13,1,0.6330517000005784,['n'],0,left,['2'],2,0.6350301999991643,0.2,0,FastFast,15,19,Woman,Right,
8,13,1,0.533508399999846,['n'],1,right,['8'],4,0.5171984000007797,0.2,0,FastFast,15,19,Woman,Right,
9,13,1,0.434167500001422,['n'],1,right,['3'],3,0.5505360000006476,0.1,0,FastFast,15,19,Woman,Right,
10,13,1,0.5996545999987575,['c'],1,left,['9'],5,0.48467710000113584,0.2,0,FastFast,15,19,Woman,Right,
11,13,1,0.4171184999995603,['n'],0,left,['9'],5,0.4674642000009044,0.1,0,FastFast,15,19,Woman,Right,
12,13,1,0.48317409999981464,['c'],1,left,['9'],5,0.4508028000000195,0.4,0,FastFast,15,19,Woman,Right,
13,13,1,0.41644450000057986,['c'],0,right,['0'],6,0.23406009999962407,0.1,0,FastFast,15,19,Woman,Right,
14,13,1,0.5506750000004104,['c'],1,left,['9'],5,0.2340777999997954,0.2,0,FastFast,15,19,Woman,Right,
15,13,1,0.733819000000949,['n'],1,right,['8'],4,0.18350100000134262,0.2,0,FastFast,15,19,Woman,Right,
16,13,1,0.5348494999998366,['c'],1,left,['9'],5,0.30062770000040473,0.2,0,FastFast,15,19,Woman,Right,
17,13,1,0.3829026999992493,['n'],1,right,['2'],2,0.6507259999998496,0.1,0,FastFast,15,19,Woman,Right,
18,13,1,0.4166521000006469,['n'],1,right,['2'],2,0.25069799999982934,0.1,0,FastFast,15,19,Woman,Right,
19,13,1,0.5663757000002079,['n'],1,right,['8'],4,0.3841582000004564,0.1,0,FastFast,15,19,Woman,Right,
20,13,1,0.5168273999988742,['n'],1,right,['8'],4,0.3175198000008095,0.4,0,FastFast,15,19,Woman,Right,
21,13,1,0.9006733000005624,['c'],1,left,['9'],5,0.1832364999991114,0.4,0,FastFast,15,19,Woman,Right,
22,13,1,0.566417600000932,['c'],1,left,['9'],5,0.451145600000018,0.4,0,FastFast,15,19,Woman,Right,
23,13,1,1.1334588999998232,['c'],1,left,['3'],3,0.2844394999992801,0.2,0,FastFast,15,19,Woman,Right,
24,13,1,1.1002671999995073,['n'],1,right,['2'],2,0.2842112999987876,0.2,0,FastFast,15,19,Woman,Right,
25,13,1,1.0002096999996866,['c'],1,left,['9'],5,0.33464810000077705,0.2,0,FastFast,15,19,Woman,Right,
26,13,1,0.9663431999997556,['c'],0,right,['3'],3,0.8509114999997109,0.4,0,FastFast,15,19,Woman,Right,
27,13,1,1.01607150000018,['n'],1,right,['9'],5,0.5841442000000825,0.4,0,FastFast,15,19,Woman,Right,
28,13,1,0.9501634000007471,['c'],0,right,['9'],5,0.3507337999999436,0.4,0,FastFast,15,19,Woman,Right,
29,13,1,0.5672046999989107,['n'],1,right,['1'],1,0.950886000000537,0.1,0,FastFast,15,19,Woman,Right,
30,13,1,0.6331842999989021,['c'],1,left,['8'],4,0.46746749999874737,0.1,0,FastFast,15,19,Woman,Right,
31,13,1,0.5332658999996056,['n'],0,left,['8'],4,0.7008490000007441,0.4,0,FastFast,15,19,Woman,Right,
32,13,1,0.7998751999984961,['c'],0,right,['8'],4,0.6174487000007503,0.1,0,FastFast,15,19,Woman,Right,
33,13,1,0.8827889000003779,['c'],0,right,['8'],4,0.5173610000001645,0.1,0,FastFast,15,19,Woman,Right,
34,13,1,0.7835029999987455,['n'],1,right,['3'],3,2.26722030000019,0.4,0,FastFast,15,19,Woman,Right,
35,13,1,0.9825848000000406,['c'],0,right,['8'],4,0.3506554000014148,0.2,0,FastFast,15,19,Woman,Right,
36,13,1,0.8004593000005116,['c'],1,left,['9'],5,0.3341386000010971,0.2,0,FastFast,15,19,Woman,Right,
37,13,1,0.7494150999991689,['c'],1,left,['9'],5,0.18420490000062273,0.1,0,FastFast,15,19,Woman,Right,
38,13,1,1.2830006999993202,['c'],1,left,['8'],4,0.2507377000001725,0.2,0,FastFast,15,19,Woman,Right,
39,13,1,0.5006535000011354,['c'],1,left,['8'],4,0.21752759999981208,0.2,0,FastFast,15,19,Woman,Right,
40,13,1,0.8333724000003713,['n'],1,right,['9'],5,0.2838044000000082,0.4,0,FastFast,15,19,Woman,Right,
41,13,1,0.4497674000012921,['c'],1,left,['0'],6,0.3344964000007167,0.4,0,FastFast,15,19,Woman,Right,
42,13,1,0.6827312000004895,['n'],1,right,['8'],4,0.41753479999897536,0.1,0,FastFast,15,19,Woman,Right,
43,13,1,0.6003505000007863,['c'],1,left,['9'],5,0.2673002000010456,0.1,0,FastFast,15,19,Woman,Right,
44,13,1,0.6505345000005036,['n'],1,right,['8'],4,0.28367619999880844,0.1,0,FastFast,15,19,Woman,Right,
45,13,1,0.616414199999781,['c'],1,left,['9'],5,0.30105619999994815,0.4,0,FastFast,15,19,Woman,Right,
46,13,1,0.7340390999997908,['n'],0,left,['8'],4,0.33350849999987986,0.1,0,FastFast,15,19,Woman,Right,
47,13,1,1.0337028000012651,['n'],1,right,['8'],4,0.3008692000003066,0.4,0,FastFast,15,19,Woman,Right,
48,13,1,0.600587999999334,['c'],0,right,['9'],5,0.3343279000000621,0.2,0,FastFast,15,19,Woman,Right,
49,13,1,0.5667805000011867,['n'],0,left,['8'],4,0.2341918000001897,0.1,0,FastFast,15,19,Woman,Right,
50,13,1,0.5663906999998289,['n'],0,left,['2'],2,0.8670581000005768,0.4,0,FastFast,15,19,Woman,Right,
51,13,1,0.6170351000000664,['c'],1,left,['9'],5,0.33406680000007327,0.1,0,FastFast,15,19,Woman,Right,
52,13,1,1.0669307000007393,['c'],0,right,['3'],3,0.31698689999939234,0.1,0,FastFast,15,19,Woman,Right,
53,13,1,0.8335994999997638,['c'],1,left,['2'],2,0.5508136999997078,0.2,0,FastFast,15,19,Woman,Right,
54,13,1,0.5663956999997026,['n'],1,right,['9'],5,0.5671910999990359,0.4,0,FastFast,15,19,Woman,Right,
55,13,1,0.8996174000003521,['c'],0,right,['3'],3,0.3845467000010103,0.1,0,FastFast,15,19,Woman,Right,
56,13,1,0.7176556000013079,['n'],0,left,['8'],4,0.20013529999960156,0.2,0,FastFast,15,19,Woman,Right,
57,13,1,0.8007911000004242,['n'],1,right,['9'],5,0.4506019999989803,0.4,0,FastFast,15,19,Woman,Right,
58,13,1,0.6330657000016799,['n'],1,right,['0'],6,0.5341810000008991,0.2,0,FastFast,15,19,Woman,Right,
59,13,1,0.8835082999994484,['c'],1,left,['8'],4,0.6006749000007403,0.1,0,FastFast,15,19,Woman,Right,
0,14,1,2.166553600000043,['n'],1,right,['3'],3,0.10058220000064466,0.4,0,AccFast,15,19,Woman,Right,
1,14,1,1.567499400000088,['c'],1,left,['8'],4,0.10102790000019013,0.2,0,AccFast,15,19,Woman,Right,
2,14,1,3.116815100000167,['c'],1,left,['2'],2,0.08422710000013467,0.2,0,AccFast,15,19,Woman,Right,
3,14,1,2.183784000000742,['c'],1,left,['3'],3,0.06749019999915618,0.1,0,AccFast,15,19,Woman,Right,
4,14,1,1.8334629999990284,['n'],1,right,['9'],5,0.10022199999912118,0.4,0,AccFast,15,19,Woman,Right,
5,14,1,1.0833461999991414,['n'],1,right,['0'],6,0.4838267999984964,0.4,0,AccFast,15,19,Woman,Right,
6,14,1,1.233077000000776,['c'],1,left,['0'],6,0.11741799999981595,0.2,0,AccFast,15,19,Woman,Right,
7,14,1,1.6168139000001247,['c'],1,left,['9'],5,0.11647900000025402,0.4,0,AccFast,15,19,Woman,Right,
8,14,1,1.3827511999988928,['n'],0,left,['8'],4,0.10099389999959385,0.1,0,AccFast,15,19,Woman,Right,
9,14,1,1.533024000000296,['c'],0,right,['3'],3,0.31771049999952083,0.2,0,AccFast,15,19,Woman,Right,
10,14,1,3.017101700001149,['n'],1,right,['2'],2,0.10074040000108653,0.2,0,AccFast,15,19,Woman,Right,
11,14,1,1.7661850999993476,['n'],1,right,['8'],4,0.1342666000000463,0.4,0,AccFast,15,19,Woman,Right,
12,14,1,1.0500356999982614,['c'],1,left,['9'],5,0.1340318999991723,0.1,0,AccFast,15,19,Woman,Right,
13,14,1,0.983897899999647,['n'],1,right,['8'],4,0.08432989999892015,0.2,0,AccFast,15,19,Woman,Right,
14,14,1,1.416215799999918,['c'],1,left,['3'],3,0.05074109999986831,0.4,0,AccFast,15,19,Woman,Right,
15,14,1,1.1832081000011385,['n'],1,right,['2'],2,0.0840981000001193,0.2,0,AccFast,15,19,Woman,Right,
16,14,1,2.465554799999154,['c'],1,left,['1'],1,0.0844254000003275,0.1,0,AccFast,15,19,Woman,Right,
17,14,1,1.9504397000000608,['c'],0,right,['3'],3,0.18402510000123584,0.1,0,AccFast,15,19,Woman,Right,
18,14,1,1.0002039999999397,['n'],0,left,['8'],4,0.15098020000004908,0.2,0,AccFast,15,19,Woman,Right,
19,14,1,1.399392400000579,['n'],1,right,['3'],3,0.1343338999995467,0.4,0,AccFast,15,19,Woman,Right,
20,14,1,1.7162294999998267,['n'],1,right,['2'],2,0.1346542999999656,0.1,0,AccFast,15,19,Woman,Right,
21,14,1,2.2339891999999963,['n'],1,right,['9'],5,0.15081199999985984,0.4,0,AccFast,15,19,Woman,Right,
22,14,1,0.9497155000008206,['n'],1,right,['8'],4,0.08399790000112262,0.2,0,AccFast,15,19,Woman,Right,
23,14,1,1.184069000000818,['c'],0,right,['8'],4,0.10038359999998647,0.2,0,AccFast,15,19,Woman,Right,
24,14,1,1.7839602000003651,['n'],1,right,['2'],2,0.11746490000041376,0.1,0,AccFast,15,19,Woman,Right,
25,14,1,1.9829843999996228,['c'],1,left,['3'],3,0.11736030000065512,0.2,0,AccFast,15,19,Woman,Right,
26,14,1,0.8836640999998053,['n'],1,right,['8'],4,0.1005525000000489,0.4,0,AccFast,15,19,Woman,Right,
27,14,1,0.8996770000012475,['c'],0,right,['8'],4,0.05076499999995576,0.1,0,AccFast,15,19,Woman,Right,
28,14,1,1.333628200000021,['n'],1,right,['8'],4,0.10038229999918258,0.2,0,AccFast,15,19,Woman,Right,
29,14,1,0.8837071000016294,['c'],0,right,['8'],4,0.050754300000335206,0.2,0,AccFast,15,19,Woman,Right,
30,14,1,1.432830699999613,['c'],1,left,['8'],4,0.2508689999995113,0.1,0,AccFast,15,19,Woman,Right,
31,14,1,0.9345181999997294,['c'],1,left,['9'],5,0.10082629999851633,0.2,0,AccFast,15,19,Woman,Right,
32,14,1,0.9496299999991606,['c'],1,left,['8'],4,0.18403140000009444,0.1,0,AccFast,15,19,Woman,Right,
33,14,1,1.332473200000095,['c'],1,left,['8'],4,0.1340741000003618,0.4,0,AccFast,15,19,Woman,Right,
34,14,1,1.5499547999988863,['c'],1,left,['8'],4,0.20014619999892602,0.1,0,AccFast,15,19,Woman,Right,
35,14,1,1.749997799999619,['c'],1,left,['9'],5,0.15103570000064792,0.2,0,AccFast,15,19,Woman,Right,
36,14,1,3.4168448000000353,['c'],1,left,['9'],5,0.9004041000007419,0.2,0,AccFast,15,19,Woman,Right,
37,14,1,2.316035899999406,['c'],1,left,['8'],4,0.31683329999941634,0.4,0,AccFast,15,19,Woman,Right,
38,14,1,1.2669043999994756,['n'],1,right,['8'],4,0.23407030000089435,0.4,0,AccFast,15,19,Woman,Right,
39,14,1,1.4838541000008263,['c'],0,right,['2'],2,0.2340215000003809,0.2,0,AccFast,15,19,Woman,Right,
40,14,1,0.8338691999997536,['c'],0,right,['3'],3,0.8008454000009806,0.1,0,AccFast,15,19,Woman,Right,
41,14,1,2.216764199998579,['n'],0,left,['3'],3,0.1341506999997364,0.1,0,AccFast,15,19,Woman,Right,
42,14,1,1.949663600000349,['n'],0,left,['9'],5,0.06658790000074077,0.4,0,AccFast,15,19,Woman,Right,
43,14,1,2.6172545999997965,['n'],1,right,['0'],6,0.10029010000107519,0.4,0,AccFast,15,19,Woman,Right,
44,14,1,2.582524099998409,['c'],1,left,['2'],2,0.08391649999975925,0.1,0,AccFast,15,19,Woman,Right,
45,14,1,1.566747700000633,['n'],1,right,['8'],4,0.10031919999892125,0.4,0,AccFast,15,19,Woman,Right,
46,14,1,1.5668702000002668,['c'],1,left,['9'],5,0.08435259999896516,0.1,0,AccFast,15,19,Woman,Right,
47,14,1,1.5165199000002758,['c'],1,left,['8'],4,0.11747729999842704,0.2,0,AccFast,15,19,Woman,Right,
48,14,1,2.4841347000001406,['n'],0,left,['3'],3,0.0838858999995864,0.1,0,AccFast,15,19,Woman,Right,
49,14,1,1.4002570000011474,['c'],1,left,['8'],4,0.08326429999942775,0.4,0,AccFast,15,19,Woman,Right,
50,14,1,1.366527700000006,['n'],1,right,['8'],4,0.10073709999960556,0.1,0,AccFast,15,19,Woman,Right,
51,14,1,1.4001047000001563,['c'],1,left,['9'],5,0.10096700000030978,0.2,0,AccFast,15,19,Woman,Right,
52,14,1,0.9831141000013304,['c'],1,left,['9'],5,0.06773149999935413,0.1,0,AccFast,15,19,Woman,Right,
53,14,1,1.133425800000623,['n'],1,right,['8'],4,0.2011067000003095,0.4,0,AccFast,15,19,Woman,Right,
54,14,1,1.1991032999994786,['n'],1,right,['9'],5,0.0673571000006632,0.4,0,AccFast,15,19,Woman,Right,
55,14,1,2.2502725000013015,['c'],1,left,['3'],3,0.0173304999989341,0.2,0,AccFast,15,19,Woman,Right,
56,14,1,1.2161664000013843,['n'],1,right,['3'],3,0.0675158999983978,0.4,0,AccFast,15,19,Woman,Right,
57,14,1,1.2676107000006596,['n'],0,left,['8'],4,0.151038799998787,0.4,0,AccFast,15,19,Woman,Right,
58,14,1,1.5499667999993108,['c'],0,right,['8'],4,0.06765739999900688,0.1,0,AccFast,15,19,Woman,Right,
59,14,1,1.8335420000003069,['n'],1,right,['8'],4,0.017341400000077556,0.1,0,AccFast,15,19,Woman,Right,
0,15,1,3.066952900000615,['c'],0,right,['8'],4,1.0509422000013728,0.2,0,AccAcc,15,19,Woman,Right,
1,15,1,1.7833749000001262,['c'],1,left,['9'],5,0.5678630999991583,0.4,0,AccAcc,15,19,Woman,Right,
2,15,1,2.0000646999997116,['n'],1,right,['8'],4,0.6836399999992864,0.2,0,AccAcc,15,19,Woman,Right,
3,15,1,1.83362599999964,['c'],0,right,['9'],5,0.7673930999990262,0.1,0,AccAcc,15,19,Woman,Right,
4,15,1,1.7827999000001,['n'],1,right,['8'],4,1.0176907000004576,0.1,0,AccAcc,15,19,Woman,Right,
5,15,1,1.3653958000013517,['c'],0,right,['9'],5,0.9671983000007458,0.1,0,AccAcc,15,19,Woman,Right,
6,15,1,2.2836456000004546,['c'],1,left,['3'],3,1.1679820000008476,0.2,0,AccAcc,15,19,Woman,Right,
7,15,1,1.7163620999999694,['c'],1,left,['3'],3,1.2834898000000976,0.4,0,AccAcc,15,19,Woman,Right,
8,15,1,1.149269200001072,['n'],0,left,['8'],4,0.7510055999991891,0.2,0,AccAcc,15,19,Woman,Right,
9,15,1,1.3830349999989267,['c'],0,right,['8'],4,0.6174661000004562,0.2,0,AccAcc,15,19,Woman,Right,
10,15,1,1.0325623000007909,['n'],1,right,['8'],4,0.8507967999994435,0.4,0,AccAcc,15,19,Woman,Right,
11,15,1,0.9002944000003481,['c'],1,left,['9'],5,0.6177917000004527,0.4,0,AccAcc,15,19,Woman,Right,
12,15,1,1.0841522999999142,['c'],0,right,['3'],3,0.6508030999993935,0.2,0,AccAcc,15,19,Woman,Right,
13,15,1,1.9338026000004902,['c'],1,left,['8'],4,0.6008688000001712,0.2,0,AccAcc,15,19,Woman,Right,
14,15,1,2.4995727999994415,['c'],1,left,['1'],1,1.884178599999359,0.1,0,AccAcc,15,19,Woman,Right,
15,15,1,0.8667244000007486,['n'],1,right,['9'],5,0.5177257999985159,0.4,0,AccAcc,15,19,Woman,Right,
16,15,1,2.433699900000647,['c'],0,right,['8'],4,0.9179268000007141,0.1,0,AccAcc,15,19,Woman,Right,
17,15,1,0.933758700000908,['c'],1,left,['3'],3,1.2344396999997116,0.1,0,AccAcc,15,19,Woman,Right,
18,15,1,0.8335784999999305,['c'],0,right,['8'],4,0.7675963000001502,0.4,0,AccAcc,15,19,Woman,Right,
19,15,1,2.200478500000827,['c'],0,right,['1'],1,0.33348879999903147,0.1,0,AccAcc,15,19,Woman,Right,
20,15,1,2.383540800001356,['c'],0,right,['1'],1,1.8509813000000577,0.2,0,AccAcc,15,19,Woman,Right,
21,15,1,3.182857599998897,['n'],0,left,['8'],4,0.9667878000000201,0.2,0,AccAcc,15,19,Woman,Right,
22,15,1,0.8824519999998302,['c'],0,right,['9'],5,0.7677733000000444,0.1,0,AccAcc,15,19,Woman,Right,
23,15,1,1.7010747999993328,['c'],1,left,['3'],3,0.7837622000006377,0.2,0,AccAcc,15,19,Woman,Right,
24,15,1,1.1830231999992975,['n'],0,left,['8'],4,0.4509037999996508,0.1,0,AccAcc,15,19,Woman,Right,
25,15,1,1.2334965000009106,['c'],1,left,['9'],5,0.5343952000002901,0.1,0,AccAcc,15,19,Woman,Right,
26,15,1,1.1838136000005761,['c'],0,right,['9'],5,0.667548600000373,0.2,0,AccAcc,15,19,Woman,Right,
27,15,1,1.1008507999995345,['n'],1,right,['9'],5,1.1674181999987923,0.2,0,AccAcc,15,19,Woman,Right,
28,15,1,0.8337953999998717,['c'],1,left,['8'],4,0.4671868000004906,0.1,0,AccAcc,15,19,Woman,Right,
29,15,1,1.15055509999911,['n'],1,right,['9'],5,1.000824400000056,0.4,0,AccAcc,15,19,Woman,Right,
30,15,1,1.8837421000007453,['n'],1,right,['3'],3,1.2341649000009056,0.2,0,AccAcc,15,19,Woman,Right,
31,15,1,1.6675596999994013,['n'],0,left,['8'],4,0.40090979999877163,0.2,0,AccAcc,15,19,Woman,Right,
32,15,1,1.9671130000006087,['n'],0,left,['8'],4,0.6503396999996767,0.4,0,AccAcc,15,19,Woman,Right,
33,15,1,1.5662670000001526,['c'],1,left,['8'],4,0.6843535999996675,0.4,0,AccAcc,15,19,Woman,Right,
34,15,1,1.5168499999999767,['n'],1,right,['8'],4,0.5340935999993235,0.2,0,AccAcc,15,19,Woman,Right,
35,15,1,2.133327100000315,['c'],1,left,['8'],4,0.5507544999982201,0.1,0,AccAcc,15,19,Woman,Right,
36,15,1,1.2170444000003044,['c'],1,left,['9'],5,0.6503749000003154,0.2,0,AccAcc,15,19,Woman,Right,
37,15,1,1.5006307999992714,['n'],1,right,['9'],5,0.36744550000003073,0.2,0,AccAcc,15,19,Woman,Right,
38,15,1,0.9670076999991579,['c'],0,right,['9'],5,0.5508570000001782,0.1,0,AccAcc,15,19,Woman,Right,
39,15,1,0.966715500000646,['n'],1,right,['0'],6,0.8342357000001357,0.4,0,AccAcc,15,19,Woman,Right,
40,15,1,1.0661331999999675,['n'],1,right,['9'],5,0.567380200000116,0.4,0,AccAcc,15,19,Woman,Right,
41,15,1,0.9838627000008273,['c'],1,left,['9'],5,1.0510259999991831,0.1,0,AccAcc,15,19,Woman,Right,
42,15,1,1.5503276999988884,['c'],1,left,['8'],4,0.5674209999997402,0.1,0,AccAcc,15,19,Woman,Right,
43,15,1,1.3997791000001598,['c'],1,left,['9'],5,1.517543600000863,0.2,0,AccAcc,15,19,Woman,Right,
44,15,1,0.9831032000001869,['n'],0,left,['8'],4,0.8174433000003773,0.1,0,AccAcc,15,19,Woman,Right,
45,15,1,1.0839228999993793,['c'],1,left,['8'],4,0.9509637999999541,0.4,0,AccAcc,15,19,Woman,Right,
46,15,1,1.5339253000001918,['c'],1,left,['2'],2,0.9839201000013418,0.4,0,AccAcc,15,19,Woman,Right,
47,15,1,0.8336195000010775,['c'],0,right,['3'],3,0.6839431000007608,0.4,0,AccAcc,15,19,Woman,Right,
48,15,1,1.1339380000008532,['n'],1,right,['3'],3,0.38390810000055353,0.2,0,AccAcc,15,19,Woman,Right,
49,15,1,1.3338936000000103,['c'],1,left,['8'],4,1.1505966999993689,0.1,0,AccAcc,15,19,Woman,Right,
50,15,1,1.399685700000191,['n'],0,left,['8'],4,1.0678437999995367,0.4,0,AccAcc,15,19,Woman,Right,
51,15,1,0.9500630999991699,['n'],1,right,['9'],5,0.48444019999988086,0.4,0,AccAcc,15,19,Woman,Right,
52,15,1,1.2993640000004234,['c'],1,left,['9'],5,0.5509378999995533,0.1,0,AccAcc,15,19,Woman,Right,
53,15,1,1.5658239999993384,['n'],0,left,['9'],5,1.117536799998561,0.1,0,AccAcc,15,19,Woman,Right,
54,15,1,1.2167908000010357,['n'],1,right,['8'],4,1.1507996000000276,0.1,0,AccAcc,15,19,Woman,Right,
55,15,1,1.3838133999997808,['n'],1,right,['0'],6,1.2172019999998156,0.2,0,AccAcc,15,19,Woman,Right,
56,15,1,1.884305300000051,['n'],1,right,['8'],4,0.5508207000002585,0.4,0,AccAcc,15,19,Woman,Right,
57,15,1,1.783202099999471,['c'],1,left,['9'],5,0.9342500000002474,0.4,0,AccAcc,15,19,Woman,Right,
58,15,1,1.4993842000003497,['n'],1,right,['8'],4,1.8010729000016,0.4,0,AccAcc,15,19,Woman,Right,
59,15,1,1.3666646000001492,['c'],1,left,['9'],5,0.8175465000003896,0.4,0,AccAcc,15,19,Woman,Right,
