withinblocktrial,block,block_repetition,rt,resp,cor,cresp,conf_press,cj,rtconf,coherence,slow_trial,manipulation,sub,age,gender,handedness,
0,1,1,2.300299599999903,['c'],1,left,none,-99,-99,0.5,0,none,1,18,Woman,Right,
1,1,1,1.7658176999999569,['c'],1,left,none,-99,-99,0.5,0,none,1,18,Woman,Right,
2,1,1,0.9660066000000143,['n'],1,right,none,-99,-99,0.5,0,none,1,18,Woman,Right,
3,1,1,0.7498530999999957,['n'],1,right,none,-99,-99,0.5,0,none,1,18,Woman,Right,
4,1,1,1.465829699999972,['n'],1,right,none,-99,-99,0.5,0,none,1,18,Woman,Right,
5,1,1,0.6999498000000131,['c'],1,left,none,-99,-99,0.5,0,none,1,18,Woman,Right,
6,1,1,0.7833521000000019,['c'],1,left,none,-99,-99,0.5,0,none,1,18,Woman,Right,
7,1,1,0.8001838999999791,['n'],1,right,none,-99,-99,0.5,0,none,1,18,Woman,Right,
8,1,1,0.5504885000000286,['c'],1,left,none,-99,-99,0.5,0,none,1,18,Woman,Right,
9,1,1,0.8330404000000726,['n'],1,right,none,-99,-99,0.5,0,none,1,18,Woman,Right,
10,1,1,0.6000674999999092,['c'],1,left,none,-99,-99,0.5,0,none,1,18,Woman,Right,
11,1,1,0.45003829999996015,['n'],1,right,none,-99,-99,0.5,0,none,1,18,Woman,Right,
12,1,1,0.4998976000000539,['c'],1,left,none,-99,-99,0.5,0,none,1,18,Woman,Right,
13,1,1,0.599553300000025,['c'],1,left,none,-99,-99,0.5,0,none,1,18,Woman,Right,
14,1,1,0.6168363999998974,['n'],1,right,none,-99,-99,0.5,0,none,1,18,Woman,Right,
15,1,1,0.46551130000000285,['c'],1,left,none,-99,-99,0.5,0,none,1,18,Woman,Right,
16,1,1,0.4665185000000065,['n'],1,right,none,-99,-99,0.5,0,none,1,18,Woman,Right,
17,1,1,0.5332924000000503,['n'],1,right,none,-99,-99,0.5,0,none,1,18,Woman,Right,
18,1,1,0.5006693000000269,['c'],1,left,none,-99,-99,0.5,0,none,1,18,Woman,Right,
19,1,1,0.4333328000000165,['n'],1,right,none,-99,-99,0.5,0,none,1,18,Woman,Right,
20,1,1,0.5504420999999411,['n'],1,right,none,-99,-99,0.5,0,none,1,18,Woman,Right,
21,1,1,0.5664686000000074,['n'],1,right,none,-99,-99,0.5,0,none,1,18,Woman,Right,
22,1,1,0.49996630000009645,['c'],1,left,none,-99,-99,0.5,0,none,1,18,Woman,Right,
23,1,1,0.7490652999999838,['c'],1,left,none,-99,-99,0.5,0,none,1,18,Woman,Right,
0,2,1,0.7006235000000061,['n'],1,right,none,-99,-99,0.4,0,none,1,18,Woman,Right,
1,2,1,0.45032020000007833,['c'],1,left,none,-99,-99,0.2,0,none,1,18,Woman,Right,
2,2,1,0.48220279999998183,['c'],1,left,none,-99,-99,0.4,0,none,1,18,Woman,Right,
3,2,1,0.6332992000000104,['c'],1,left,none,-99,-99,0.4,0,none,1,18,Woman,Right,
4,2,1,0.516719500000022,['c'],1,left,none,-99,-99,0.2,0,none,1,18,Woman,Right,
5,2,1,0.5667815000000473,['n'],1,right,none,-99,-99,0.2,0,none,1,18,Woman,Right,
6,2,1,0.4838817999999492,['c'],1,left,none,-99,-99,0.1,0,none,1,18,Woman,Right,
7,2,1,1.717537200000038,['n'],1,right,none,-99,-99,0.1,0,none,1,18,Woman,Right,
8,2,1,0.9658182000000579,['n'],1,right,none,-99,-99,0.1,0,none,1,18,Woman,Right,
9,2,1,0.899676999999997,['c'],0,right,none,-99,-99,0.4,0,none,1,18,Woman,Right,
10,2,1,0.7158986000000596,['n'],1,right,none,-99,-99,0.2,0,none,1,18,Woman,Right,
11,2,1,0.7326199000001452,['c'],1,left,none,-99,-99,0.4,0,none,1,18,Woman,Right,
12,2,1,0.4828537000000779,['n'],1,right,none,-99,-99,0.4,0,none,1,18,Woman,Right,
13,2,1,0.5172780999998849,['n'],1,right,none,-99,-99,0.4,0,none,1,18,Woman,Right,
14,2,1,0.4500293999999485,['c'],1,left,none,-99,-99,0.1,0,none,1,18,Woman,Right,
15,2,1,0.8499188999999205,['n'],0,left,none,-99,-99,0.2,0,none,1,18,Woman,Right,
16,2,1,0.6331026000000293,['n'],1,right,none,-99,-99,0.2,0,none,1,18,Woman,Right,
17,2,1,0.4831623000000036,['c'],1,left,none,-99,-99,0.1,0,none,1,18,Woman,Right,
18,2,1,0.5671420999999555,['c'],1,left,none,-99,-99,0.2,0,none,1,18,Woman,Right,
19,2,1,0.6832191000000876,['c'],1,left,none,-99,-99,0.4,0,none,1,18,Woman,Right,
20,2,1,0.6834659999999531,['n'],1,right,none,-99,-99,0.1,0,none,1,18,Woman,Right,
21,2,1,0.6000182000000223,['c'],0,right,none,-99,-99,0.1,0,none,1,18,Woman,Right,
22,2,1,0.7167459000002054,['n'],1,right,none,-99,-99,0.1,0,none,1,18,Woman,Right,
23,2,1,0.6501590000000306,['c'],1,left,none,-99,-99,0.2,0,none,1,18,Woman,Right,
0,3,1,2.4997490999999172,['n'],1,right,none,-99,-99,0.4,1,none,1,18,Woman,Right,
1,3,1,1.7166394000000764,['n'],1,right,['9'],5,1.067265199999838,0.2,0,none,1,18,Woman,Right,
2,3,1,1.2663910999999644,['c'],1,left,['0'],6,0.9172234999998636,0.2,0,none,1,18,Woman,Right,
3,3,1,3.3168071000000054,['c'],1,left,['8'],4,1.3506780000000163,0.1,0,none,1,18,Woman,Right,
4,3,1,1.4002273000000969,['n'],1,right,['0'],6,1.3006288999999924,0.4,0,none,1,18,Woman,Right,
5,3,1,0.6335159999998723,['c'],1,left,['0'],6,1.5840032000000974,0.2,0,none,1,18,Woman,Right,
6,3,1,1.0175916999999117,['n'],1,right,['0'],6,0.8173349999999573,0.4,0,none,1,18,Woman,Right,
7,3,1,1.1671908999999232,['c'],1,left,['0'],6,0.8171409999999923,0.2,0,none,1,18,Woman,Right,
8,3,1,3.3995993999999428,['n'],1,right,['2'],2,2.0504431999997905,0.1,0,none,1,18,Woman,Right,
9,3,1,0.8837204999999813,['n'],1,right,['0'],6,1.0340281000001141,0.4,0,none,1,18,Woman,Right,
10,3,1,0.81701709999993,['c'],1,left,['0'],6,0.5835329999999885,0.2,0,none,1,18,Woman,Right,
11,3,1,1.2338938999998845,['n'],1,right,['0'],6,0.5341501000000335,0.2,0,none,1,18,Woman,Right,
12,3,1,0.9002468999999564,['n'],1,right,['0'],6,0.5337827999999263,0.4,0,none,1,18,Woman,Right,
13,3,1,0.8837111000000277,['c'],1,left,['0'],6,0.4336508000001231,0.4,0,none,1,18,Woman,Right,
14,3,1,1.233169500000031,['c'],1,left,['0'],6,0.3670647999999801,0.2,0,none,1,18,Woman,Right,
15,3,1,0.9832496999999876,['n'],1,right,['0'],6,0.6005089000000225,0.4,0,none,1,18,Woman,Right,
16,3,1,0.7664620000000468,['c'],1,left,['0'],6,0.7172304999999142,0.1,0,none,1,18,Woman,Right,
17,3,1,2.4171041999998124,['n'],1,right,['2'],2,1.3006096999999954,0.1,0,none,1,18,Woman,Right,
18,3,1,1.0996605000000272,['c'],1,left,['9'],5,0.8004240000000209,0.1,0,none,1,18,Woman,Right,
19,3,1,1.849699899999905,['c'],1,left,['9'],5,1.0004883999999947,0.1,0,none,1,18,Woman,Right,
20,3,1,0.9174511999999595,['c'],1,left,['0'],6,0.4339979999999741,0.4,0,none,1,18,Woman,Right,
21,3,1,1.1495699999998124,['n'],1,right,['0'],6,1.1173651999999947,0.2,0,none,1,18,Woman,Right,
22,3,1,1.40025229999992,['c'],1,left,['9'],5,0.5505674999999428,0.1,0,none,1,18,Woman,Right,
23,3,1,1.732992299999978,['c'],0,right,['8'],4,1.1673750999998447,0.1,0,none,1,18,Woman,Right,
0,4,1,1.2001414999999724,['n'],1,right,['0'],6,0.6174240000000282,0.4,0,FastFast,1,18,Woman,Right,
1,4,1,1.1660117000001264,['c'],0,right,['9'],5,0.584120399999847,0.1,0,FastFast,1,18,Woman,Right,
2,4,1,1.166776599999821,['c'],1,left,['0'],6,0.28377930000010565,0.1,0,FastFast,1,18,Woman,Right,
3,4,1,1.5840341000000535,['n'],0,left,['0'],6,0.33365519999983917,0.1,0,FastFast,1,18,Woman,Right,
4,4,1,1.0001314999999522,['n'],1,right,['0'],6,0.4338655999999901,0.2,0,FastFast,1,18,Woman,Right,
5,4,1,0.9509218000000601,['c'],1,left,['0'],6,0.30043240000009064,0.1,0,FastFast,1,18,Woman,Right,
6,4,1,0.7508045000001857,['c'],1,left,['0'],6,0.2500369000001683,0.4,0,FastFast,1,18,Woman,Right,
7,4,1,1.2163282000001345,['n'],1,right,['9'],5,0.6338413000000855,0.1,0,FastFast,1,18,Woman,Right,
8,4,1,0.9502102999999806,['n'],1,right,['0'],6,0.28394639999987703,0.2,0,FastFast,1,18,Woman,Right,
9,4,1,0.8670565999998416,['c'],0,right,['0'],6,0.26773500000012973,0.1,0,FastFast,1,18,Woman,Right,
10,4,1,0.6502348999999867,['c'],1,left,['0'],6,0.28372990000002574,0.4,0,FastFast,1,18,Woman,Right,
11,4,1,1.2493829999998525,['n'],1,right,['9'],5,0.4003136999999697,0.1,0,FastFast,1,18,Woman,Right,
12,4,1,1.166961300000139,['n'],1,right,['0'],6,0.5335781000001134,0.4,0,FastFast,1,18,Woman,Right,
13,4,1,1.1836843999999473,['c'],0,right,['9'],5,0.5671374000000924,0.1,0,FastFast,1,18,Woman,Right,
14,4,1,0.8671192000001611,['c'],1,left,['0'],6,0.2170477000001938,0.2,0,FastFast,1,18,Woman,Right,
15,4,1,0.7177533000001404,['c'],1,left,['0'],6,0.2006347999999889,0.2,0,FastFast,1,18,Woman,Right,
16,4,1,0.7166907999999239,['c'],1,left,['0'],6,0.3170423999999912,0.1,0,FastFast,1,18,Woman,Right,
17,4,1,1.083532200000036,['n'],1,right,['0'],6,0.26698850000002494,0.2,0,FastFast,1,18,Woman,Right,
18,4,1,0.8665580000001682,['c'],1,left,['0'],6,0.21729279999999562,0.2,0,FastFast,1,18,Woman,Right,
19,4,1,1.0671582999998463,['n'],1,right,['0'],6,0.3170890999999756,0.2,0,FastFast,1,18,Woman,Right,
20,4,1,0.9669652000000042,['c'],1,left,['0'],6,0.1837836999998217,0.1,0,FastFast,1,18,Woman,Right,
21,4,1,1.5672445000000153,['n'],1,right,['1'],1,0.8168926999999258,0.1,0,FastFast,1,18,Woman,Right,
22,4,1,1.0000881999999365,['c'],0,right,['0'],6,0.2670874000000367,0.1,0,FastFast,1,18,Woman,Right,
23,4,1,0.767213399999946,['c'],1,left,['0'],6,0.2503844000000299,0.1,0,FastFast,1,18,Woman,Right,
24,4,1,0.43309690000000955,['n'],1,right,['0'],6,0.23391799999990326,0.4,0,FastFast,1,18,Woman,Right,
25,4,1,0.6668328000000656,['c'],1,left,['0'],6,0.1671257999998943,0.4,0,FastFast,1,18,Woman,Right,
26,4,1,0.5164486000001034,['c'],1,left,['0'],6,0.18380400000000918,0.2,0,FastFast,1,18,Woman,Right,
27,4,1,0.633905200000072,['c'],1,left,['0'],6,0.167198899999903,0.2,0,FastFast,1,18,Woman,Right,
28,4,1,0.76691320000009,['c'],1,left,['0'],6,0.13411740000015016,0.2,0,FastFast,1,18,Woman,Right,
29,4,1,0.9502257000001464,['n'],1,right,['0'],6,0.2172269000000142,0.2,0,FastFast,1,18,Woman,Right,
30,4,1,2.283783699999958,['c'],0,right,['2'],2,0.4836351999999806,0.1,0,FastFast,1,18,Woman,Right,
31,4,1,0.7333982999998625,['c'],1,left,['0'],6,0.5005327999999736,0.2,0,FastFast,1,18,Woman,Right,
32,4,1,0.8666141000001062,['c'],1,left,['0'],6,0.21701570000004722,0.4,0,FastFast,1,18,Woman,Right,
33,4,1,0.9157400999999936,['n'],1,right,['0'],6,0.28374269999994794,0.4,0,FastFast,1,18,Woman,Right,
34,4,1,0.5491131999999652,['c'],1,left,['0'],6,0.25069220000000314,0.1,0,FastFast,1,18,Woman,Right,
35,4,1,0.8666254999998273,['n'],1,right,['0'],6,0.2838701000000583,0.4,0,FastFast,1,18,Woman,Right,
36,4,1,0.6665981999999531,['c'],1,left,['0'],6,0.20046750000005886,0.2,0,FastFast,1,18,Woman,Right,
37,4,1,0.6333809999998721,['c'],1,left,['0'],6,0.2504441000000952,0.2,0,FastFast,1,18,Woman,Right,
38,4,1,0.583935399999973,['c'],1,left,['0'],6,0.20030270000006567,0.4,0,FastFast,1,18,Woman,Right,
39,4,1,0.6172692000000097,['c'],1,left,['0'],6,0.20097549999991315,0.2,0,FastFast,1,18,Woman,Right,
40,4,1,0.8333880000000136,['n'],1,right,['0'],6,0.23393499999997402,0.2,0,FastFast,1,18,Woman,Right,
41,4,1,1.2840645999999651,['n'],1,right,['0'],6,0.2168859999999313,0.4,0,FastFast,1,18,Woman,Right,
42,4,1,1.3663500000000113,['c'],0,right,['2'],2,0.9505799999999454,0.4,0,FastFast,1,18,Woman,Right,
43,4,1,1.2159930999998778,['n'],1,right,['2'],2,0.5839719000000514,0.1,0,FastFast,1,18,Woman,Right,
44,4,1,1.6343896000000768,['n'],1,right,['3'],3,0.9504067000000305,0.2,0,FastFast,1,18,Woman,Right,
45,4,1,0.7833786999999575,['n'],1,right,['0'],6,0.317245800000137,0.4,0,FastFast,1,18,Woman,Right,
46,4,1,0.5829002000000401,['c'],1,left,['0'],6,0.2336171000001741,0.1,0,FastFast,1,18,Woman,Right,
47,4,1,0.7675705999999991,['c'],1,left,['0'],6,0.2169999000000189,0.2,0,FastFast,1,18,Woman,Right,
48,4,1,0.5341762000000472,['c'],1,left,['0'],6,0.21717929999999797,0.4,0,FastFast,1,18,Woman,Right,
49,4,1,0.8169350999999097,['c'],1,left,['0'],6,0.3338750999998865,0.4,0,FastFast,1,18,Woman,Right,
50,4,1,0.8171232000001964,['n'],1,right,['0'],6,0.20036320000008345,0.4,0,FastFast,1,18,Woman,Right,
51,4,1,0.6510556000000634,['c'],0,right,['0'],6,0.16727679999985412,0.1,0,FastFast,1,18,Woman,Right,
52,4,1,0.6846074000000044,['n'],1,right,['0'],6,0.20036230000005162,0.4,0,FastFast,1,18,Woman,Right,
53,4,1,0.5670153999999457,['c'],0,right,['0'],6,0.20060709999984283,0.2,0,FastFast,1,18,Woman,Right,
54,4,1,0.5002538999999615,['c'],1,left,['0'],6,0.20042390000003252,0.4,0,FastFast,1,18,Woman,Right,
55,4,1,0.6002849000001333,['c'],1,left,['0'],6,0.1504115999998703,0.4,0,FastFast,1,18,Woman,Right,
56,4,1,0.8505981000000702,['n'],1,right,['0'],6,0.21726289999992332,0.2,0,FastFast,1,18,Woman,Right,
57,4,1,0.634441200000083,['c'],1,left,['0'],6,0.20054029999982959,0.1,0,FastFast,1,18,Woman,Right,
58,4,1,0.5168394999998327,['c'],0,right,['0'],6,0.15072800000007192,0.1,0,FastFast,1,18,Woman,Right,
59,4,1,0.4494634000000133,['c'],1,left,['0'],6,0.15063009999994392,0.4,0,FastFast,1,18,Woman,Right,
0,5,1,2.5675476000001254,['c'],1,left,['0'],6,0.25035479999996824,0.1,0,AccFast,1,18,Woman,Right,
1,5,1,1.7001547999998365,['c'],1,left,['0'],6,0.10054140000011103,0.4,0,AccFast,1,18,Woman,Right,
2,5,1,1.8000379999998586,['c'],1,left,['9'],5,0.5672667999999703,0.1,0,AccFast,1,18,Woman,Right,
3,5,1,2.7174509999999827,['n'],1,right,['8'],4,0.6173764000000119,0.2,0,AccFast,1,18,Woman,Right,
4,5,1,1.71686190000014,['c'],0,right,['3'],3,0.9838839000001371,0.1,0,AccFast,1,18,Woman,Right,
5,5,1,1.4011121000000912,['n'],1,right,['8'],4,0.5669259000001148,0.1,0,AccFast,1,18,Woman,Right,
6,5,1,1.0498281000000134,['c'],1,left,['0'],6,0.1838502000000517,0.2,0,AccFast,1,18,Woman,Right,
7,5,1,1.483779499999855,['c'],1,left,['0'],6,0.267532699999947,0.4,0,AccFast,1,18,Woman,Right,
8,5,1,4.000269899999921,['c'],0,right,['1'],1,0.4174311999997826,0.1,0,AccFast,1,18,Woman,Right,
9,5,1,2.616606000000047,['c'],0,right,['3'],3,0.8339089000000968,0.2,0,AccFast,1,18,Woman,Right,
10,5,1,3.184210699999994,['c'],1,left,['3'],3,0.5838625999999749,0.1,0,AccFast,1,18,Woman,Right,
11,5,1,1.5839411000001746,['n'],1,right,['8'],4,0.4842559999999594,0.2,0,AccFast,1,18,Woman,Right,
12,5,1,1.3837429999998676,['c'],1,left,['0'],6,0.8339002000000164,0.4,0,AccFast,1,18,Woman,Right,
13,5,1,2.0162836999998035,['n'],1,right,['9'],5,0.28383819999999105,0.2,0,AccFast,1,18,Woman,Right,
14,5,1,1.2336291999999958,['n'],1,right,['0'],6,0.6335851000001185,0.4,0,AccFast,1,18,Woman,Right,
15,5,1,1.1008125000000746,['c'],1,left,['0'],6,0.28383519999988494,0.4,0,AccFast,1,18,Woman,Right,
16,5,1,4.182718199999954,['n'],0,left,['8'],4,0.40057069999988926,0.1,0,AccFast,1,18,Woman,Right,
17,5,1,1.4337967999999819,['n'],1,right,['0'],6,0.21721530000013445,0.4,0,AccFast,1,18,Woman,Right,
18,5,1,1.4838246999997864,['c'],1,left,['0'],6,0.21702979999986383,0.4,0,AccFast,1,18,Woman,Right,
19,5,1,2.250491199999942,['c'],1,left,['8'],4,0.6003611000001001,0.2,0,AccFast,1,18,Woman,Right,
20,5,1,2.7832837999999356,['n'],1,right,['1'],1,0.3173185000000558,0.2,0,AccFast,1,18,Woman,Right,
21,5,1,1.4833823999999822,['c'],1,left,['0'],6,0.36715209999988474,0.4,0,AccFast,1,18,Woman,Right,
22,5,1,5.016278700000157,x,-99,right,none,-99,-99,0.1,1,AccFast,1,18,Woman,Right,
23,5,1,1.6507501999999477,['n'],1,right,['3'],3,1.5672080000001642,0.1,0,AccFast,1,18,Woman,Right,
24,5,1,1.6668277999999646,['n'],1,right,['9'],5,0.6839572000001226,0.4,0,AccFast,1,18,Woman,Right,
25,5,1,1.6170093999999153,['c'],1,left,['0'],6,0.4003095000000485,0.2,0,AccFast,1,18,Woman,Right,
26,5,1,4.2509207999999035,['c'],1,left,['2'],2,0.7339518999999655,0.1,0,AccFast,1,18,Woman,Right,
27,5,1,0.9672046999999111,['n'],1,right,['0'],6,0.30063079999990805,0.4,0,AccFast,1,18,Woman,Right,
28,5,1,0.9001105999998344,['c'],1,left,['0'],6,0.1671549000000141,0.4,0,AccFast,1,18,Woman,Right,
29,5,1,1.1833599000001414,['n'],1,right,['0'],6,0.16734610000003158,0.2,0,AccFast,1,18,Woman,Right,
30,5,1,2.3660489000001235,['n'],1,right,['8'],4,0.6504883000000063,0.2,0,AccFast,1,18,Woman,Right,
31,5,1,2.583506899999975,['c'],1,left,['2'],2,0.6007101999998667,0.1,0,AccFast,1,18,Woman,Right,
32,5,1,0.7499770000001718,['n'],1,right,['0'],6,0.2342826999999943,0.4,0,AccFast,1,18,Woman,Right,
33,5,1,2.4665651000000253,['c'],0,right,['8'],4,1.1504225000001043,0.2,0,AccFast,1,18,Woman,Right,
34,5,1,0.7493110000000343,['n'],1,right,['0'],6,0.36721030000012433,0.4,0,AccFast,1,18,Woman,Right,
35,5,1,0.9171771000001172,['c'],1,left,['0'],6,0.55072210000003,0.2,0,AccFast,1,18,Woman,Right,
36,5,1,2.0827382999998463,['n'],0,left,['8'],4,1.3505342000000837,0.1,0,AccFast,1,18,Woman,Right,
37,5,1,1.0159899000000223,['n'],1,right,['0'],6,0.18379609999988133,0.2,0,AccFast,1,18,Woman,Right,
38,5,1,0.7666890999998941,['n'],1,right,['0'],6,0.21719520000010561,0.4,0,AccFast,1,18,Woman,Right,
39,5,1,0.8501677000001564,['c'],1,left,['0'],6,0.1507277000000613,0.2,0,AccFast,1,18,Woman,Right,
40,5,1,1.266153499999973,['c'],1,left,['0'],6,0.1671440000000075,0.2,0,AccFast,1,18,Woman,Right,
41,5,1,1.2337466000001314,['c'],1,left,['3'],3,2.1671069999999872,0.1,0,AccFast,1,18,Woman,Right,
42,5,1,0.8011139000000185,['c'],1,left,['0'],6,0.13364610000007815,0.4,0,AccFast,1,18,Woman,Right,
43,5,1,1.3002066000001378,['c'],0,right,['0'],6,0.20045150000009926,0.1,0,AccFast,1,18,Woman,Right,
44,5,1,0.8011945000000651,['c'],1,left,['0'],6,0.16724920000001475,0.2,0,AccFast,1,18,Woman,Right,
45,5,1,0.9002861999999823,['n'],1,right,['0'],6,0.20060490000014397,0.4,0,AccFast,1,18,Woman,Right,
46,5,1,0.5834343999999874,['c'],1,left,['0'],6,0.20020180000005894,0.1,0,AccFast,1,18,Woman,Right,
47,5,1,0.9666614999998728,['n'],1,right,['0'],6,0.20018950000007862,0.2,0,AccFast,1,18,Woman,Right,
48,5,1,0.46589590000007775,['c'],1,left,['0'],6,0.21748889999980747,0.4,0,AccFast,1,18,Woman,Right,
49,5,1,0.8169864999999845,['n'],1,right,['0'],6,0.21703869999987546,0.4,0,AccFast,1,18,Woman,Right,
50,5,1,1.2335415000000012,['c'],0,right,['9'],5,0.6170905999999832,0.1,0,AccFast,1,18,Woman,Right,
51,5,1,0.633142300000145,['c'],1,left,['0'],6,0.21718299999997726,0.4,0,AccFast,1,18,Woman,Right,
52,5,1,0.7166303999999855,['c'],1,left,['0'],6,0.16724269999986063,0.2,0,AccFast,1,18,Woman,Right,
53,5,1,1.650746300000037,['c'],1,left,['8'],4,0.9840722000001279,0.1,0,AccFast,1,18,Woman,Right,
54,5,1,1.7836733999999979,['c'],0,right,['3'],3,0.45050130000004174,0.1,0,AccFast,1,18,Woman,Right,
55,5,1,1.1497701999999208,['c'],1,left,['0'],6,0.3505740999999034,0.4,0,AccFast,1,18,Woman,Right,
56,5,1,0.8334970000000794,['c'],0,right,['0'],6,0.183815199999799,0.1,0,AccFast,1,18,Woman,Right,
57,5,1,2.115706600000067,['n'],1,right,['8'],4,1.1503632999999809,0.2,0,AccFast,1,18,Woman,Right,
58,5,1,2.333557199999859,['n'],1,right,['3'],3,0.6175058000001172,0.2,0,AccFast,1,18,Woman,Right,
59,5,1,0.9994202999998834,['c'],1,left,['0'],6,0.20051680000005945,0.1,0,AccFast,1,18,Woman,Right,
0,6,1,1.8162316000000374,['c'],1,left,['0'],6,0.3671675000000505,0.2,0,AccAcc,1,18,Woman,Right,
1,6,1,1.566348299999845,['c'],0,right,['0'],6,0.4338396000000557,0.1,0,AccAcc,1,18,Woman,Right,
2,6,1,2.9994530000001305,['n'],1,right,['0'],6,0.4005067999999028,0.4,0,AccAcc,1,18,Woman,Right,
3,6,1,1.5330830000000333,['n'],1,right,['9'],5,1.1005189999998493,0.2,0,AccAcc,1,18,Woman,Right,
4,6,1,1.0493160999999418,['c'],1,left,['0'],6,0.7338555999999699,0.1,0,AccAcc,1,18,Woman,Right,
5,6,1,1.4329387999998744,['c'],1,left,['0'],6,0.2838953999998921,0.2,0,AccAcc,1,18,Woman,Right,
6,6,1,1.0991441000001032,['n'],1,right,['0'],6,0.38378529999999955,0.4,0,AccAcc,1,18,Woman,Right,
7,6,1,1.3162434999999277,['n'],1,right,['0'],6,0.4506185000000187,0.2,0,AccAcc,1,18,Woman,Right,
8,6,1,0.9323010999999042,['c'],1,left,['0'],6,0.46715949999997974,0.2,0,AccAcc,1,18,Woman,Right,
9,6,1,0.9822133000000122,['n'],1,right,['0'],6,0.30054649999988214,0.4,0,AccAcc,1,18,Woman,Right,
10,6,1,1.199796100000185,['c'],1,left,['0'],6,0.5171388000001116,0.4,0,AccAcc,1,18,Woman,Right,
11,6,1,1.6334979000000658,['n'],1,right,['0'],6,0.33441759999982423,0.2,0,AccAcc,1,18,Woman,Right,
12,6,1,0.8323857000000316,['n'],1,right,['0'],6,0.31717550000007577,0.4,0,AccAcc,1,18,Woman,Right,
13,6,1,0.9502662000002147,['n'],1,right,['0'],6,0.3672328000000107,0.4,0,AccAcc,1,18,Woman,Right,
14,6,1,1.4332555000000866,['n'],1,right,['0'],6,0.8504903999998987,0.2,0,AccAcc,1,18,Woman,Right,
15,6,1,1.2827583000000686,['c'],1,left,['0'],6,0.2504265000000032,0.4,0,AccAcc,1,18,Woman,Right,
16,6,1,1.1820039000001543,['n'],1,right,['0'],6,0.35057129999995595,0.1,0,AccAcc,1,18,Woman,Right,
17,6,1,0.9995019000000411,['n'],1,right,['0'],6,0.33383519999983946,0.2,0,AccAcc,1,18,Woman,Right,
18,6,1,1.1164496000001236,['n'],1,right,['0'],6,0.40051450000009936,0.1,0,AccAcc,1,18,Woman,Right,
19,6,1,1.4830858000000262,['n'],0,left,['8'],4,1.133873499999936,0.1,0,AccAcc,1,18,Woman,Right,
20,6,1,1.4663803999999345,['c'],1,left,['0'],6,0.4004938000000493,0.4,0,AccAcc,1,18,Woman,Right,
21,6,1,1.2329328000000714,['n'],1,right,['9'],5,0.4671022999998513,0.1,0,AccAcc,1,18,Woman,Right,
22,6,1,0.7326642000000447,['n'],1,right,['0'],6,0.45045970000001034,0.4,0,AccAcc,1,18,Woman,Right,
23,6,1,1.6822469999999612,['c'],1,left,['0'],6,0.28384009999990667,0.1,0,AccAcc,1,18,Woman,Right,
24,6,1,0.9659821000000193,['n'],1,right,['0'],6,0.8839184000000841,0.1,0,AccAcc,1,18,Woman,Right,
25,6,1,1.0995598999998037,['n'],1,right,['9'],5,0.4671166999999059,0.2,0,AccAcc,1,18,Woman,Right,
26,6,1,0.7325221000000965,['c'],1,left,['0'],6,1.650545799999918,0.4,0,AccAcc,1,18,Woman,Right,
27,6,1,1.1159788999998455,['n'],1,right,['0'],6,0.7671910999999909,0.1,0,AccAcc,1,18,Woman,Right,
28,6,1,3.9831991000000926,['c'],1,left,['3'],3,1.3671845999999732,0.1,0,AccAcc,1,18,Woman,Right,
29,6,1,1.0154313000000457,['n'],1,right,['0'],6,0.7338952000000063,0.2,0,AccAcc,1,18,Woman,Right,
30,6,1,0.6988845999999285,['c'],1,left,['0'],6,0.23373470000001362,0.4,0,AccAcc,1,18,Woman,Right,
31,6,1,2.015004799999815,['c'],1,left,['3'],3,1.0672226000001501,0.1,0,AccAcc,1,18,Woman,Right,
32,6,1,1.8336040000001503,['n'],1,right,['0'],6,0.5838685999999598,0.1,0,AccAcc,1,18,Woman,Right,
33,6,1,2.1500977000000603,['n'],1,right,['3'],3,1.283905300000015,0.1,0,AccAcc,1,18,Woman,Right,
34,6,1,3.1163127999998324,['c'],0,right,['2'],2,1.0839042000000063,0.1,0,AccAcc,1,18,Woman,Right,
35,6,1,1.132814499999995,['c'],1,left,['0'],6,0.23386039999991226,0.4,0,AccAcc,1,18,Woman,Right,
36,6,1,2.549543999999969,['n'],1,right,['0'],6,0.7671938999999384,0.4,0,AccAcc,1,18,Woman,Right,
37,6,1,2.5485113000002,['c'],1,left,['2'],2,0.7172683000001143,0.2,0,AccAcc,1,18,Woman,Right,
38,6,1,1.2997906000000512,['n'],1,right,['0'],6,0.5005194999998821,0.4,0,AccAcc,1,18,Woman,Right,
39,6,1,3.7661052999999356,['c'],0,right,['2'],2,0.700546900000063,0.2,0,AccAcc,1,18,Woman,Right,
40,6,1,3.0996207000000595,['n'],0,left,['2'],2,0.5838140999999268,0.1,0,AccAcc,1,18,Woman,Right,
41,6,1,3.632916199999954,['n'],0,left,['1'],1,0.5008017999998629,0.2,0,AccAcc,1,18,Woman,Right,
42,6,1,1.0990958999998384,['n'],1,right,['0'],6,0.2672888000001876,0.4,0,AccAcc,1,18,Woman,Right,
43,6,1,1.150020799999993,['c'],1,left,['0'],6,0.75047840000002,0.4,0,AccAcc,1,18,Woman,Right,
44,6,1,2.0827610999999706,['n'],1,right,['3'],3,1.2338953999999376,0.1,0,AccAcc,1,18,Woman,Right,
45,6,1,3.582867399999941,['c'],1,left,['2'],2,0.7003649999999197,0.1,0,AccAcc,1,18,Woman,Right,
46,6,1,3.050558499999852,['c'],0,right,['2'],2,0.7672071000001779,0.1,0,AccAcc,1,18,Woman,Right,
47,6,1,1.6661728000001403,['c'],1,left,['2'],2,0.6006116999999449,0.2,0,AccAcc,1,18,Woman,Right,
48,6,1,1.098745000000008,['c'],0,right,['1'],1,0.31721379999999044,0.2,0,AccAcc,1,18,Woman,Right,
49,6,1,1.216298199999983,['c'],1,left,['0'],6,0.28351390000011634,0.2,0,AccAcc,1,18,Woman,Right,
50,6,1,1.6330425999999534,['c'],1,left,['0'],6,0.28412299999990864,0.4,0,AccAcc,1,18,Woman,Right,
51,6,1,4.71627239999998,['c'],0,right,['3'],3,0.7005728000001454,0.1,0,AccAcc,1,18,Woman,Right,
52,6,1,1.2988256999999521,['c'],1,left,['0'],6,0.2338847999999416,0.4,0,AccAcc,1,18,Woman,Right,
53,6,1,2.466195599999992,['c'],1,left,['0'],6,0.1504299999999148,0.4,0,AccAcc,1,18,Woman,Right,
54,6,1,3.0993246999998973,['n'],0,left,['2'],2,0.6342145999999502,0.1,0,AccAcc,1,18,Woman,Right,
55,6,1,1.550058300000046,['c'],1,left,['8'],4,1.2837111999999706,0.2,0,AccAcc,1,18,Woman,Right,
56,6,1,0.9163973999998234,['c'],1,left,['0'],6,0.28392250000001695,0.4,0,AccAcc,1,18,Woman,Right,
57,6,1,1.3662031000001207,['c'],1,left,['0'],6,0.4171728000001167,0.2,0,AccAcc,1,18,Woman,Right,
58,6,1,1.0825800999998592,['c'],1,left,['0'],6,0.28383020000001125,0.2,0,AccAcc,1,18,Woman,Right,
59,6,1,3.3995436000000154,['c'],1,left,['8'],4,1.0837758999998641,0.2,0,AccAcc,1,18,Woman,Right,
0,7,1,0.8331243999998605,['c'],1,left,['0'],6,2.3005880999999135,0.4,0,FastAcc,1,18,Woman,Right,
1,7,1,0.5999851999999919,['c'],1,left,['0'],6,0.2839772999998331,0.1,0,FastAcc,1,18,Woman,Right,
2,7,1,0.915551300000061,['n'],1,right,['0'],6,0.4006329999999707,0.4,0,FastAcc,1,18,Woman,Right,
3,7,1,2.483466099999987,['c'],0,right,['2'],2,0.6838446000001568,0.1,0,FastAcc,1,18,Woman,Right,
4,7,1,0.8653574999998455,['n'],1,right,['2'],2,1.2011000999998487,0.1,0,FastAcc,1,18,Woman,Right,
5,7,1,0.9487727000000632,['c'],1,left,['0'],6,0.2507021999999779,0.4,0,FastAcc,1,18,Woman,Right,
6,7,1,0.6820741999999882,['n'],1,right,['8'],4,0.8838272000000416,0.2,0,FastAcc,1,18,Woman,Right,
7,7,1,0.6829755000001114,['c'],1,left,['9'],5,0.8505456000000322,0.4,0,FastAcc,1,18,Woman,Right,
8,7,1,0.6654991000000336,['c'],1,left,['0'],6,1.2004644000001008,0.4,0,FastAcc,1,18,Woman,Right,
9,7,1,0.9833479999999781,['n'],1,right,['0'],6,0.3171138999998675,0.1,0,FastAcc,1,18,Woman,Right,
10,7,1,0.5995460999999978,['c'],1,left,['0'],6,0.4841736000000765,0.4,0,FastAcc,1,18,Woman,Right,
11,7,1,1.3817891000001055,['n'],0,left,['8'],4,1.3339003999999477,0.1,0,FastAcc,1,18,Woman,Right,
12,7,1,0.816334500000039,['n'],1,right,['9'],5,0.8005305000001499,0.2,0,FastAcc,1,18,Woman,Right,
13,7,1,0.8663236999998389,['c'],1,left,['0'],6,0.9505593999999746,0.2,0,FastAcc,1,18,Woman,Right,
14,7,1,0.5502582000001439,['n'],1,right,['0'],6,0.38400339999998323,0.1,0,FastAcc,1,18,Woman,Right,
15,7,1,0.7334547999998904,['n'],1,right,['0'],6,0.800486600000113,0.4,0,FastAcc,1,18,Woman,Right,
16,7,1,1.6998426000000109,['n'],1,right,['0'],6,0.40041360000009263,0.2,0,FastAcc,1,18,Woman,Right,
17,7,1,0.6495943999998417,['n'],1,right,['0'],6,0.2838517000000138,0.2,0,FastAcc,1,18,Woman,Right,
18,7,1,0.5987460999999712,['n'],1,right,['0'],6,0.30054820000009386,0.2,0,FastAcc,1,18,Woman,Right,
19,7,1,0.7831633000000693,['n'],1,right,['0'],6,0.4506882000000587,0.2,0,FastAcc,1,18,Woman,Right,
20,7,1,0.7171605000000909,['n'],1,right,['0'],6,0.5671233999999004,0.4,0,FastAcc,1,18,Woman,Right,
21,7,1,0.7666349999999511,['n'],1,right,['0'],6,0.35050539999997454,0.4,0,FastAcc,1,18,Woman,Right,
22,7,1,0.5997994000001654,['c'],1,left,['0'],6,0.48391960000003564,0.4,0,FastAcc,1,18,Woman,Right,
23,7,1,1.232978699999876,['n'],1,right,['9'],5,0.7838200999999572,0.1,0,FastAcc,1,18,Woman,Right,
24,7,1,1.9664394999999786,['n'],0,left,['8'],4,0.9505887999998777,0.1,0,FastAcc,1,18,Woman,Right,
25,7,1,2.200596599999926,['n'],0,left,['3'],3,1.016995599999973,0.2,0,FastAcc,1,18,Woman,Right,
26,7,1,0.8330139000001964,['n'],1,right,['3'],3,0.7004603000000316,0.2,0,FastAcc,1,18,Woman,Right,
27,7,1,0.8654275999999754,['n'],1,right,['0'],6,0.23393209999994724,0.2,0,FastAcc,1,18,Woman,Right,
28,7,1,1.6326175000001513,['n'],1,right,['0'],6,0.867232999999942,0.1,0,FastAcc,1,18,Woman,Right,
29,7,1,0.9339128999999957,['n'],1,right,['0'],6,0.550495200000114,0.4,0,FastAcc,1,18,Woman,Right,
30,7,1,1.299998100000039,['n'],1,right,['0'],6,1.0169554999999946,0.1,0,FastAcc,1,18,Woman,Right,
31,7,1,0.9322508999998718,['n'],0,left,['0'],6,0.750577599999815,0.1,0,FastAcc,1,18,Woman,Right,
32,7,1,1.5663916000000881,['c'],1,left,['8'],4,1.8503921999999875,0.2,0,FastAcc,1,18,Woman,Right,
33,7,1,1.9490198999999393,['c'],1,left,['8'],4,1.1673844999997982,0.4,0,FastAcc,1,18,Woman,Right,
34,7,1,1.099407299999939,['n'],1,right,['9'],5,1.3838083999999071,0.1,0,FastAcc,1,18,Woman,Right,
35,7,1,3.2154957999998715,['c'],1,left,['3'],3,2.6838895000000775,0.2,0,FastAcc,1,18,Woman,Right,
36,7,1,1.0653861000000688,['n'],1,right,['0'],6,0.7339180999999826,0.4,0,FastAcc,1,18,Woman,Right,
37,7,1,1.600202400000171,['c'],1,left,['8'],4,1.066977199999883,0.1,0,FastAcc,1,18,Woman,Right,
38,7,1,1.599556800000073,['c'],1,left,['8'],4,2.6005847999999787,0.1,0,FastAcc,1,18,Woman,Right,
39,7,1,0.749601900000016,['n'],0,left,['9'],5,0.9005664000001161,0.1,0,FastAcc,1,18,Woman,Right,
40,7,1,2.299424100000124,['n'],1,right,['8'],4,1.5838097999999263,0.1,0,FastAcc,1,18,Woman,Right,
41,7,1,0.5672383000000991,['c'],1,left,['0'],6,0.6338689999997769,0.4,0,FastAcc,1,18,Woman,Right,
42,7,1,0.6321302000001197,['n'],1,right,['0'],6,0.33384550000027957,0.4,0,FastAcc,1,18,Woman,Right,
43,7,1,0.5662576999998237,['c'],1,left,['0'],6,0.28386349999982485,0.4,0,FastAcc,1,18,Woman,Right,
44,7,1,1.1496093999999175,['n'],1,right,['0'],6,0.2840030000002116,0.2,0,FastAcc,1,18,Woman,Right,
45,7,1,2.9152705999999853,['n'],1,right,['8'],4,2.1003743000001123,0.2,0,FastAcc,1,18,Woman,Right,
46,7,1,0.5161707000002025,['c'],1,left,['0'],6,0.3171265000000858,0.2,0,FastAcc,1,18,Woman,Right,
47,7,1,0.5322608999999829,['c'],1,left,['0'],6,0.21720379999987927,0.4,0,FastAcc,1,18,Woman,Right,
48,7,1,1.8820080000000416,['c'],1,left,['0'],6,0.16701119999970615,0.2,0,FastAcc,1,18,Woman,Right,
49,7,1,1.932527200000095,['c'],1,left,['3'],3,1.3506572000001142,0.4,0,FastAcc,1,18,Woman,Right,
50,7,1,0.6328412000002572,['c'],1,left,['9'],5,1.8337726000004295,0.4,0,FastAcc,1,18,Woman,Right,
51,7,1,0.6489460000002509,['c'],1,left,['0'],6,0.36706039999990026,0.2,0,FastAcc,1,18,Woman,Right,
52,7,1,1.1495496000002277,['n'],1,right,['0'],6,0.36718840000003183,0.2,0,FastAcc,1,18,Woman,Right,
53,7,1,0.8498739999999998,['c'],1,left,['0'],6,0.35042650000013964,0.2,0,FastAcc,1,18,Woman,Right,
54,7,1,1.432818899999802,['c'],1,left,['0'],6,0.3337527999997292,0.1,0,FastAcc,1,18,Woman,Right,
55,7,1,1.2654718000003413,['c'],0,right,['9'],5,0.8338327999999819,0.1,0,FastAcc,1,18,Woman,Right,
56,7,1,1.6663573000000724,['n'],1,right,['2'],2,0.6340468999997029,0.1,0,FastAcc,1,18,Woman,Right,
57,7,1,1.7153917000000547,['n'],1,right,['3'],3,0.9339144999999007,0.2,0,FastAcc,1,18,Woman,Right,
58,7,1,2.383509700000104,['c'],1,left,['3'],3,1.30052330000035,0.1,0,FastAcc,1,18,Woman,Right,
59,7,1,2.032897200000207,['c'],1,left,['9'],5,0.4505047000002378,0.4,0,FastAcc,1,18,Woman,Right,
0,8,1,0.9989989000000605,['n'],1,right,['9'],5,0.53401520000034,0.2,0,FastFast,1,18,Woman,Right,
1,8,1,0.8995288999999502,['n'],1,right,['9'],5,0.35066850000021077,0.2,0,FastFast,1,18,Woman,Right,
2,8,1,1.616305800000191,['c'],0,right,['1'],1,1.1004699000000073,0.1,0,FastFast,1,18,Woman,Right,
3,8,1,2.099385099999836,['n'],0,left,['2'],2,0.3672093000000132,0.1,0,FastFast,1,18,Woman,Right,
4,8,1,1.2332311000000118,['n'],1,right,['0'],6,0.9839074999999866,0.2,0,FastFast,1,18,Woman,Right,
5,8,1,1.2993525000001682,['n'],1,right,['8'],4,0.4337595000001784,0.1,0,FastFast,1,18,Woman,Right,
6,8,1,1.0994082000001981,['n'],1,right,['2'],2,0.9505496000001585,0.1,0,FastFast,1,18,Woman,Right,
7,8,1,1.3334340999999768,['c'],0,right,['2'],2,0.48349320000033913,0.1,0,FastFast,1,18,Woman,Right,
8,8,1,1.067046399999981,['n'],0,left,['9'],5,0.48405430000002525,0.1,0,FastFast,1,18,Woman,Right,
9,8,1,1.2330658000000767,['c'],1,left,['0'],6,0.33392890000004627,0.4,0,FastFast,1,18,Woman,Right,
10,8,1,1.032646300000124,['n'],1,right,['2'],2,0.450445899999977,0.1,0,FastFast,1,18,Woman,Right,
11,8,1,0.7828236000000288,['c'],1,left,['9'],5,0.30037069999980304,0.2,0,FastFast,1,18,Woman,Right,
12,8,1,1.7162953000001835,['n'],0,left,['9'],5,0.36708969999972396,0.2,0,FastFast,1,18,Woman,Right,
13,8,1,1.1492917999999008,['n'],1,right,['0'],6,0.250399600000037,0.2,0,FastFast,1,18,Woman,Right,
14,8,1,1.682524899999862,['n'],1,right,['0'],6,0.9173174000002291,0.4,0,FastFast,1,18,Woman,Right,
15,8,1,1.1157897000002777,['n'],1,right,['0'],6,0.2172896000001856,0.4,0,FastFast,1,18,Woman,Right,
16,8,1,1.116330299999845,['c'],1,left,['0'],6,1.3007924000003186,0.4,0,FastFast,1,18,Woman,Right,
17,8,1,0.9827921999999489,['n'],1,right,['0'],6,0.18376350000016828,0.4,0,FastFast,1,18,Woman,Right,
18,8,1,1.049703099999988,['n'],1,right,['0'],6,0.2671760000002905,0.2,0,FastFast,1,18,Woman,Right,
19,8,1,0.6830330999996477,['c'],1,left,['0'],6,0.31726819999994404,0.2,0,FastFast,1,18,Woman,Right,
20,8,1,0.966702400000031,['c'],0,right,['1'],1,0.9839261000001898,0.2,0,FastFast,1,18,Woman,Right,
21,8,1,0.8995300999999927,['c'],1,left,['0'],6,0.23374139999987165,0.4,0,FastFast,1,18,Woman,Right,
22,8,1,0.6494345999999496,['c'],1,left,['0'],6,0.21708979999993971,0.4,0,FastFast,1,18,Woman,Right,
23,8,1,0.5330553999997392,['c'],1,left,['0'],6,0.23378709999997227,0.4,0,FastFast,1,18,Woman,Right,
24,8,1,0.6163458000000901,['n'],1,right,['0'],6,0.38380499999993845,0.4,0,FastFast,1,18,Woman,Right,
25,8,1,0.7338026000002174,['c'],1,left,['0'],6,0.33392630000025747,0.2,0,FastFast,1,18,Woman,Right,
26,8,1,0.6488248999999087,['c'],1,left,['0'],6,0.20044569999981832,0.2,0,FastFast,1,18,Woman,Right,
27,8,1,0.616173599999911,['c'],1,left,['0'],6,0.15051769999990938,0.4,0,FastFast,1,18,Woman,Right,
28,8,1,0.8662338000003729,['n'],1,right,['0'],6,0.2004547999999886,0.2,0,FastFast,1,18,Woman,Right,
29,8,1,0.6652414999998655,['c'],0,right,['0'],6,0.25050999999984924,0.1,0,FastFast,1,18,Woman,Right,
30,8,1,2.3836432000002787,['c'],0,right,['2'],2,0.6172185000000354,0.2,0,FastFast,1,18,Woman,Right,
31,8,1,0.9162885000000642,['c'],1,left,['0'],6,0.15063259999988077,0.2,0,FastFast,1,18,Woman,Right,
32,8,1,0.5335200000004079,['c'],1,left,['0'],6,0.16700020000007498,0.4,0,FastFast,1,18,Woman,Right,
33,8,1,0.7338090000002921,['c'],0,right,['0'],6,0.15041570000039428,0.1,0,FastFast,1,18,Woman,Right,
34,8,1,1.0494924000004175,['n'],1,right,['2'],2,0.6340141000000585,0.1,0,FastFast,1,18,Woman,Right,
35,8,1,1.2159352999997282,['c'],0,right,['3'],3,0.7837359000000106,0.4,0,FastFast,1,18,Woman,Right,
36,8,1,0.8155483999998978,['c'],1,left,['8'],4,0.6172577000002093,0.1,0,FastFast,1,18,Woman,Right,
37,8,1,0.8499418000001242,['c'],1,left,['0'],6,0.284044399999857,0.2,0,FastFast,1,18,Woman,Right,
38,8,1,0.6661647000000812,['c'],1,left,['0'],6,0.2338817999998355,0.4,0,FastFast,1,18,Woman,Right,
39,8,1,0.8163486999997076,['c'],1,left,['0'],6,0.5672171000001072,0.2,0,FastFast,1,18,Woman,Right,
40,8,1,0.7990281000002142,['n'],1,right,['0'],6,0.3172612000003028,0.2,0,FastFast,1,18,Woman,Right,
41,8,1,0.6495202000000972,['c'],1,left,['0'],6,0.20049010000002454,0.4,0,FastFast,1,18,Woman,Right,
42,8,1,0.7329296000002614,['n'],1,right,['0'],6,0.2837795999998889,0.4,0,FastFast,1,18,Woman,Right,
43,8,1,0.6497034000003623,['c'],1,left,['0'],6,0.6341249000001881,0.1,0,FastFast,1,18,Woman,Right,
44,8,1,2.1492957999998907,['n'],1,right,['3'],3,0.5505467000002682,0.1,0,FastFast,1,18,Woman,Right,
45,8,1,0.8162655000000996,['c'],1,left,['0'],6,0.3839623999997457,0.4,0,FastFast,1,18,Woman,Right,
46,8,1,1.366132799999832,['n'],1,right,['2'],2,0.4669883999999911,0.1,0,FastFast,1,18,Woman,Right,
47,8,1,0.7822582999997394,['c'],1,left,['9'],5,0.46718430000009903,0.1,0,FastFast,1,18,Woman,Right,
48,8,1,0.6995040000001609,['n'],1,right,['0'],6,0.300582200000008,0.4,0,FastFast,1,18,Woman,Right,
49,8,1,0.6322387000000163,['c'],1,left,['0'],6,0.18383740000035687,0.2,0,FastFast,1,18,Woman,Right,
50,8,1,1.1497725999997783,['n'],1,right,['3'],3,1.0838052999997672,0.2,0,FastFast,1,18,Woman,Right,
51,8,1,0.6822962999999618,['c'],1,left,['9'],5,0.5171876999997949,0.1,0,FastFast,1,18,Woman,Right,
52,8,1,2.2834210000000894,['n'],0,left,['1'],1,0.3838326000000052,0.1,0,FastFast,1,18,Woman,Right,
53,8,1,1.0165381000001616,['c'],1,left,['2'],2,0.3172709999998915,0.1,0,FastFast,1,18,Woman,Right,
54,8,1,1.482308600000124,['c'],1,left,['0'],6,0.5004865999999311,0.1,0,FastFast,1,18,Woman,Right,
55,8,1,0.9328267999999298,['n'],1,right,['0'],6,0.3170428999997057,0.4,0,FastFast,1,18,Woman,Right,
56,8,1,0.6832723999996233,['c'],1,left,['0'],6,0.23388759999988906,0.4,0,FastFast,1,18,Woman,Right,
57,8,1,1.5159684999998717,['n'],1,right,['8'],4,0.6336905999996816,0.2,0,FastFast,1,18,Woman,Right,
58,8,1,0.8654427000001306,['c'],1,left,['9'],5,1.2833977000000232,0.1,0,FastFast,1,18,Woman,Right,
59,8,1,0.8655030999998417,['n'],1,right,['0'],6,0.21655039999996006,0.4,0,FastFast,1,18,Woman,Right,
0,9,1,0.932919800000036,['n'],1,right,['0'],6,1.684218200000032,0.1,0,AccFast,1,18,Woman,Right,
1,9,1,2.232919800000218,['c'],0,right,['3'],3,1.0172471999999289,0.1,0,AccFast,1,18,Woman,Right,
2,9,1,2.2154888999998548,['n'],0,left,['1'],1,0.2505231999998614,0.1,0,AccFast,1,18,Woman,Right,
3,9,1,0.9491011999998591,['c'],1,left,['8'],4,0.5840542000000823,0.2,0,AccFast,1,18,Woman,Right,
4,9,1,0.832820200000242,['n'],1,right,['0'],6,0.41716489999998885,0.4,0,AccFast,1,18,Woman,Right,
5,9,1,1.2164240000001882,['c'],0,right,['3'],3,0.5837644999996883,0.1,0,AccFast,1,18,Woman,Right,
6,9,1,2.3994722000002184,['n'],1,right,['0'],6,0.8003551000001607,0.1,0,AccFast,1,18,Woman,Right,
7,9,1,0.633400800000345,['c'],1,left,['0'],6,0.28385260000004564,0.4,0,AccFast,1,18,Woman,Right,
8,9,1,0.7154974000000038,['n'],1,right,['9'],5,0.4837694999996529,0.2,0,AccFast,1,18,Woman,Right,
9,9,1,0.7326253000001088,['c'],1,left,['9'],5,0.36717859999998836,0.1,0,AccFast,1,18,Woman,Right,
10,9,1,1.365595199999916,['c'],1,left,['0'],6,0.23385189999999056,0.1,0,AccFast,1,18,Woman,Right,
11,9,1,1.9657923999998275,['n'],1,right,['2'],2,0.8332193000001098,0.1,0,AccFast,1,18,Woman,Right,
12,9,1,0.648252500000126,['c'],1,left,['9'],5,0.7005116000000271,0.4,0,AccFast,1,18,Woman,Right,
13,9,1,2.4672184000000925,['c'],0,right,['2'],2,0.584027800000058,0.1,0,AccFast,1,18,Woman,Right,
14,9,1,1.0823093999997582,['c'],1,left,['0'],6,0.5999953999998979,0.2,0,AccFast,1,18,Woman,Right,
15,9,1,1.7661895999999615,['n'],1,right,['0'],6,0.433953400000064,0.4,0,AccFast,1,18,Woman,Right,
16,9,1,0.8991901999997935,['c'],0,right,['8'],4,0.583845100000417,0.2,0,AccFast,1,18,Woman,Right,
17,9,1,0.8663695000000189,['n'],1,right,['0'],6,0.48389999999972133,0.4,0,AccFast,1,18,Woman,Right,
18,9,1,0.599347299999863,['c'],1,left,['0'],6,0.26696069999979954,0.1,0,AccFast,1,18,Woman,Right,
19,9,1,1.0496021999997538,['c'],0,right,['0'],6,0.2671230999999352,0.2,0,AccFast,1,18,Woman,Right,
20,9,1,0.8995724000001246,['n'],1,right,['0'],6,0.38381610000033106,0.2,0,AccFast,1,18,Woman,Right,
21,9,1,0.54947250000032,['c'],1,left,['0'],6,0.20046000000002095,0.4,0,AccFast,1,18,Woman,Right,
22,9,1,1.199783699999898,['n'],1,right,['0'],6,0.2337902999997823,0.4,0,AccFast,1,18,Woman,Right,
23,9,1,0.9663559999999052,['c'],1,left,['0'],6,0.26719239999965794,0.4,0,AccFast,1,18,Woman,Right,
24,9,1,0.8156292000003305,['n'],1,right,['0'],6,0.20059100000025865,0.4,0,AccFast,1,18,Woman,Right,
25,9,1,0.8669511000002785,['n'],1,right,['0'],6,0.20052009999972142,0.4,0,AccFast,1,18,Woman,Right,
26,9,1,0.6162060999999994,['n'],1,right,['0'],6,0.2671537000001081,0.4,0,AccFast,1,18,Woman,Right,
27,9,1,0.6665619999998853,['c'],1,left,['0'],6,0.30082820000006905,0.2,0,AccFast,1,18,Woman,Right,
28,9,1,1.5662397000000965,['c'],0,right,['2'],2,0.7668816000000334,0.1,0,AccFast,1,18,Woman,Right,
29,9,1,0.6827610000000277,['c'],1,left,['0'],6,0.9838998999998694,0.2,0,AccFast,1,18,Woman,Right,
30,9,1,0.8665406999998595,['n'],1,right,['0'],6,0.3335913000000801,0.4,0,AccFast,1,18,Woman,Right,
31,9,1,1.0173782000001665,['c'],1,left,['0'],6,0.33394270000007964,0.4,0,AccFast,1,18,Woman,Right,
32,9,1,1.7168432999997094,['n'],1,right,['0'],6,0.36713400000007823,0.4,0,AccFast,1,18,Woman,Right,
33,9,1,1.5995132999996713,['c'],0,right,['3'],3,0.9171891000000869,0.1,0,AccFast,1,18,Woman,Right,
34,9,1,0.6327748000003339,['c'],1,left,['9'],5,0.9005489999999554,0.2,0,AccFast,1,18,Woman,Right,
35,9,1,1.3165260000000671,['n'],1,right,['3'],3,1.083880599999702,0.1,0,AccFast,1,18,Woman,Right,
36,9,1,1.6831111999999848,['c'],1,left,['0'],6,0.21727809999993042,0.4,0,AccFast,1,18,Woman,Right,
37,9,1,1.1993764000003466,['c'],1,left,['0'],6,0.1671371000002182,0.2,0,AccFast,1,18,Woman,Right,
38,9,1,0.9328464000000167,['n'],1,right,['0'],6,0.15049369999996998,0.2,0,AccFast,1,18,Woman,Right,
39,9,1,0.7331859000000804,['c'],1,left,['0'],6,0.10048659999984011,0.2,0,AccFast,1,18,Woman,Right,
40,9,1,0.7992229999999836,['c'],1,left,['0'],6,0.15050010000004477,0.2,0,AccFast,1,18,Woman,Right,
41,9,1,0.9322051999997711,['c'],1,left,['0'],6,0.1171689000002516,0.2,0,AccFast,1,18,Woman,Right,
42,9,1,1.4156372000002193,['c'],1,left,['0'],6,0.13387609999972483,0.1,0,AccFast,1,18,Woman,Right,
43,9,1,0.632611900000029,['c'],1,left,['0'],6,0.15053609999995388,0.2,0,AccFast,1,18,Woman,Right,
44,9,1,0.5663842999997541,['c'],1,left,['0'],6,0.13375930000029257,0.1,0,AccFast,1,18,Woman,Right,
45,9,1,0.6328723999999966,['c'],0,right,['0'],6,0.15050669999982347,0.1,0,AccFast,1,18,Woman,Right,
46,9,1,0.6328631000001224,['c'],1,left,['0'],6,0.18385609999995722,0.2,0,AccFast,1,18,Woman,Right,
47,9,1,0.8162085999997544,['n'],1,right,['0'],6,0.20046319999983098,0.4,0,AccFast,1,18,Woman,Right,
48,9,1,0.6489862999997058,['c'],1,left,['0'],6,0.150495299999875,0.2,0,AccFast,1,18,Woman,Right,
49,9,1,1.9818798999999672,['n'],0,left,['2'],2,0.6008176000000276,0.1,0,AccFast,1,18,Woman,Right,
50,9,1,1.66635210000004,['n'],1,right,['8'],4,0.9005351000000701,0.2,0,AccFast,1,18,Woman,Right,
51,9,1,0.598584899999878,['c'],1,left,['8'],4,0.7006600999998227,0.2,0,AccFast,1,18,Woman,Right,
52,9,1,1.0324741999997968,['c'],1,left,['0'],6,0.45038750000003347,0.4,0,AccFast,1,18,Woman,Right,
53,9,1,1.2336043000000245,['c'],1,left,['0'],6,0.2504355000000942,0.4,0,AccFast,1,18,Woman,Right,
54,9,1,1.799285399999917,['n'],1,right,['2'],2,0.7672806000000492,0.1,0,AccFast,1,18,Woman,Right,
55,9,1,0.8996299999998882,['n'],1,right,['9'],5,1.0170815999999832,0.2,0,AccFast,1,18,Woman,Right,
56,9,1,0.8658801000001404,['c'],1,left,['0'],6,0.6672131000000263,0.1,0,AccFast,1,18,Woman,Right,
57,9,1,1.0162921000001006,['c'],1,left,['0'],6,0.5172004000000925,0.4,0,AccFast,1,18,Woman,Right,
58,9,1,1.132807700000285,['n'],1,right,['0'],6,0.30047930000000633,0.4,0,AccFast,1,18,Woman,Right,
59,9,1,1.4992707999999766,['c'],0,right,['2'],2,1.2338838999999098,0.1,0,AccFast,1,18,Woman,Right,
0,10,1,1.1326627999997072,['c'],1,left,['0'],6,1.0004648999997698,0.4,0,AccAcc,1,18,Woman,Right,
1,10,1,1.1495099999997365,['c'],1,left,['9'],5,1.1340107000000899,0.4,0,AccAcc,1,18,Woman,Right,
2,10,1,1.1993861000000834,['n'],1,right,['0'],6,0.7672059999999874,0.4,0,AccAcc,1,18,Woman,Right,
3,10,1,1.882961300000261,['n'],1,right,['9'],5,0.8672050000000127,0.4,0,AccAcc,1,18,Woman,Right,
4,10,1,1.5828671999997823,['c'],1,left,['0'],6,1.3509202000000187,0.1,0,AccAcc,1,18,Woman,Right,
5,10,1,1.1658815999999206,['n'],1,right,['0'],6,0.7504079999998794,0.4,0,AccAcc,1,18,Woman,Right,
6,10,1,2.049536199999693,['c'],0,right,['2'],2,1.6172296999998252,0.1,0,AccAcc,1,18,Woman,Right,
7,10,1,3.0992339999997967,['c'],0,right,['2'],2,1.3672920999997586,0.1,0,AccAcc,1,18,Woman,Right,
8,10,1,0.982359500000257,['c'],1,left,['0'],6,0.8672142000000349,0.4,0,AccAcc,1,18,Woman,Right,
9,10,1,3.0657618000000184,['n'],0,left,['8'],4,0.633836799999699,0.2,0,AccAcc,1,18,Woman,Right,
10,10,1,2.7993946999999935,['c'],1,left,['2'],2,0.5172318999998424,0.1,0,AccAcc,1,18,Woman,Right,
11,10,1,0.8829255000000558,['n'],1,right,['0'],6,0.30055210000000443,0.4,0,AccAcc,1,18,Woman,Right,
12,10,1,1.0505186000000322,['n'],1,right,['0'],6,0.4004586000000927,0.4,0,AccAcc,1,18,Woman,Right,
13,10,1,1.5159653000000617,['c'],1,left,['8'],4,0.8504738999999972,0.2,0,AccAcc,1,18,Woman,Right,
14,10,1,0.9498612999996112,['n'],1,right,['0'],6,0.43378270000039265,0.1,0,AccAcc,1,18,Woman,Right,
15,10,1,0.7835829999999078,['c'],1,left,['0'],6,0.6837893000001714,0.4,0,AccAcc,1,18,Woman,Right,
16,10,1,0.7499663000003238,['n'],1,right,['0'],6,0.4505093999996461,0.4,0,AccAcc,1,18,Woman,Right,
17,10,1,1.5164012000000184,['c'],1,left,['0'],6,0.8337852999998177,0.2,0,AccAcc,1,18,Woman,Right,
18,10,1,1.0996130000003177,['c'],1,left,['9'],5,0.8504844999997658,0.2,0,AccAcc,1,18,Woman,Right,
19,10,1,0.7995286999998825,['n'],0,left,['9'],5,0.8006133999997473,0.1,0,AccAcc,1,18,Woman,Right,
20,10,1,0.7162631000001056,['c'],1,left,['0'],6,1.0172035999999025,0.4,0,AccAcc,1,18,Woman,Right,
21,10,1,0.9661888999999064,['n'],1,right,['0'],6,1.067244600000322,0.1,0,AccAcc,1,18,Woman,Right,
22,10,1,1.4662671999999475,['n'],1,right,['9'],5,1.1336169000001064,0.1,0,AccAcc,1,18,Woman,Right,
23,10,1,2.083106300000054,['n'],0,left,['9'],5,0.43349540000008346,0.1,0,AccAcc,1,18,Woman,Right,
24,10,1,1.1825017000001026,['c'],0,right,['3'],3,1.5674552000000403,0.4,0,AccAcc,1,18,Woman,Right,
25,10,1,0.9837158999998792,['c'],1,left,['8'],4,1.1839174000001549,0.1,0,AccAcc,1,18,Woman,Right,
26,10,1,1.4997704000002159,['n'],1,right,['0'],6,0.4670043999999507,0.4,0,AccAcc,1,18,Woman,Right,
27,10,1,1.2494860000001609,['n'],1,right,['0'],6,0.4339199999999437,0.1,0,AccAcc,1,18,Woman,Right,
28,10,1,0.6492773999998462,['c'],1,left,['0'],6,0.33379889999969237,0.4,0,AccAcc,1,18,Woman,Right,
29,10,1,1.215668000000278,['c'],1,left,['0'],6,0.46723279999969236,0.2,0,AccAcc,1,18,Woman,Right,
30,10,1,1.3987028999999893,['c'],0,right,['3'],3,1.0505444999998872,0.1,0,AccAcc,1,18,Woman,Right,
31,10,1,0.9161056000002645,['n'],1,right,['8'],4,0.9672645999999077,0.2,0,AccAcc,1,18,Woman,Right,
32,10,1,1.6163580999996157,['c'],1,left,['8'],4,0.43321130000003905,0.2,0,AccAcc,1,18,Woman,Right,
33,10,1,1.0495504999998957,['n'],1,right,['9'],5,0.667280799999844,0.1,0,AccAcc,1,18,Woman,Right,
34,10,1,1.0662302999999156,['c'],1,left,['9'],5,0.5171727000001738,0.2,0,AccAcc,1,18,Woman,Right,
35,10,1,1.7997052999999141,['n'],0,left,['8'],4,1.6338494999999966,0.1,0,AccAcc,1,18,Woman,Right,
36,10,1,1.6496647000003577,['n'],1,right,['0'],6,0.48376310000003286,0.2,0,AccAcc,1,18,Woman,Right,
37,10,1,0.849735000000237,['c'],1,left,['0'],6,1.0672220999999809,0.4,0,AccAcc,1,18,Woman,Right,
38,10,1,0.9825039999996079,['n'],1,right,['0'],6,0.48383079999985057,0.2,0,AccAcc,1,18,Woman,Right,
39,10,1,0.7496529999998529,['n'],1,right,['0'],6,0.450510199999826,0.2,0,AccAcc,1,18,Woman,Right,
40,10,1,1.233410300000287,['n'],0,left,['0'],6,0.41705739999997604,0.1,0,AccAcc,1,18,Woman,Right,
41,10,1,2.999645899999905,['n'],1,right,['3'],3,0.9838158000002295,0.1,0,AccAcc,1,18,Woman,Right,
42,10,1,1.065821700000015,['n'],0,left,['3'],3,0.533809200000178,0.1,0,AccAcc,1,18,Woman,Right,
43,10,1,1.182499900000039,['c'],1,left,['9'],5,1.900409899999886,0.2,0,AccAcc,1,18,Woman,Right,
44,10,1,1.0173237999997582,['c'],1,left,['9'],5,0.46681100000023434,0.2,0,AccAcc,1,18,Woman,Right,
45,10,1,1.000005500000043,['n'],1,right,['0'],6,0.29985260000012204,0.4,0,AccAcc,1,18,Woman,Right,
46,10,1,0.9827963999996427,['c'],1,left,['9'],5,1.117152299999816,0.1,0,AccAcc,1,18,Woman,Right,
47,10,1,0.6161601999997401,['c'],1,left,['9'],5,0.4338671999998951,0.2,0,AccAcc,1,18,Woman,Right,
48,10,1,1.082515400000375,['n'],0,left,['0'],6,0.41691090000040276,0.1,0,AccAcc,1,18,Woman,Right,
49,10,1,0.7332773999996789,['n'],1,right,['0'],6,0.3838399000001118,0.4,0,AccAcc,1,18,Woman,Right,
50,10,1,0.7170270999999957,['c'],1,left,['9'],5,0.7339183000003686,0.1,0,AccAcc,1,18,Woman,Right,
51,10,1,0.8169938999999431,['n'],1,right,['0'],6,0.3337946000001466,0.2,0,AccAcc,1,18,Woman,Right,
52,10,1,0.5829392000000553,['c'],1,left,['0'],6,0.6337632999998277,0.4,0,AccAcc,1,18,Woman,Right,
53,10,1,0.6659606000002896,['n'],1,right,['0'],6,0.3171716000001652,0.2,0,AccAcc,1,18,Woman,Right,
54,10,1,0.8162560000000667,['n'],1,right,['0'],6,0.25010429999974804,0.2,0,AccAcc,1,18,Woman,Right,
55,10,1,0.5994800999997096,['c'],1,left,['0'],6,0.3504441999998562,0.2,0,AccAcc,1,18,Woman,Right,
56,10,1,0.7505679999999302,['n'],1,right,['0'],6,0.3169907000001331,0.4,0,AccAcc,1,18,Woman,Right,
57,10,1,0.7832481000000371,['n'],1,right,['0'],6,0.2673045000001366,0.2,0,AccAcc,1,18,Woman,Right,
58,10,1,0.7328730999997788,['n'],1,right,['0'],6,0.4171311999998579,0.2,0,AccAcc,1,18,Woman,Right,
59,10,1,0.9164178999999422,['n'],1,right,['0'],6,1.283850099999654,0.4,0,AccAcc,1,18,Woman,Right,
0,11,1,0.6492912999997316,['n'],1,right,['0'],6,1.15052199999991,0.1,0,FastAcc,1,18,Woman,Right,
1,11,1,0.8504721999997855,['n'],1,right,['0'],6,0.8172735000002831,0.2,0,FastAcc,1,18,Woman,Right,
2,11,1,0.6162764999999126,['n'],1,right,['0'],6,0.500720900000033,0.4,0,FastAcc,1,18,Woman,Right,
3,11,1,0.6828540999999859,['n'],1,right,['0'],6,0.5001542999998492,0.4,0,FastAcc,1,18,Woman,Right,
4,11,1,0.6337229999999181,['n'],1,right,['0'],6,0.5176295000001119,0.4,0,FastAcc,1,18,Woman,Right,
5,11,1,0.6166456000000835,['n'],1,right,['0'],6,0.46720790000017587,0.4,0,FastAcc,1,18,Woman,Right,
6,11,1,0.6325474000000213,['n'],1,right,['0'],6,0.46711770000001707,0.4,0,FastAcc,1,18,Woman,Right,
7,11,1,0.6825181999997767,['c'],1,left,['0'],6,0.4837720000000445,0.4,0,FastAcc,1,18,Woman,Right,
8,11,1,0.6331468000003042,['n'],1,right,['0'],6,0.41734020000012606,0.4,0,FastAcc,1,18,Woman,Right,
9,11,1,0.7335363999995934,['n'],1,right,['0'],6,0.48402749999968364,0.2,0,FastAcc,1,18,Woman,Right,
10,11,1,0.7995679999999084,['c'],1,left,['0'],6,0.5505181000003176,0.2,0,FastAcc,1,18,Woman,Right,
11,11,1,0.8996680999998716,['n'],1,right,['0'],6,0.45079589999977543,0.2,0,FastAcc,1,18,Woman,Right,
12,11,1,2.5669324000000415,['n'],1,right,['0'],6,0.38416259999985414,0.2,0,FastAcc,1,18,Woman,Right,
13,11,1,2.5321884999998474,['n'],0,left,['8'],4,1.0674463999998807,0.1,0,FastAcc,1,18,Woman,Right,
14,11,1,0.6996828000001187,['c'],1,left,['0'],6,0.3667801999999938,0.4,0,FastAcc,1,18,Woman,Right,
15,11,1,0.8495014999998602,['c'],1,left,['9'],5,0.5673064999996313,0.1,0,FastAcc,1,18,Woman,Right,
16,11,1,1.4495372999999745,['c'],1,left,['8'],4,0.7340644000000793,0.2,0,FastAcc,1,18,Woman,Right,
17,11,1,1.9656153999999333,['c'],1,left,['3'],3,1.0672177999999803,0.1,0,FastAcc,1,18,Woman,Right,
18,11,1,0.6662184000001616,['c'],1,left,['9'],5,0.7005463999998938,0.4,0,FastAcc,1,18,Woman,Right,
19,11,1,0.4991722999998274,['c'],1,left,['9'],5,0.6006107000002885,0.4,0,FastAcc,1,18,Woman,Right,
20,11,1,0.89922979999983,['n'],1,right,['0'],6,0.517267400000037,0.1,0,FastAcc,1,18,Woman,Right,
21,11,1,0.7163276999999653,['c'],1,left,['0'],6,0.46717979999993986,0.2,0,FastAcc,1,18,Woman,Right,
22,11,1,0.7326441000000159,['n'],1,right,['0'],6,0.48375579999992624,0.4,0,FastAcc,1,18,Woman,Right,
23,11,1,0.8333433000002515,['n'],1,right,['0'],6,0.5670964999999342,0.2,0,FastAcc,1,18,Woman,Right,
24,11,1,0.9993334999999206,['c'],1,left,['0'],6,0.6172973000002457,0.2,0,FastAcc,1,18,Woman,Right,
25,11,1,0.699117500000284,['n'],1,right,['0'],6,0.5172118999998929,0.4,0,FastAcc,1,18,Woman,Right,
26,11,1,1.1992291999999907,['c'],1,left,['9'],5,0.6670156000000134,0.1,0,FastAcc,1,18,Woman,Right,
27,11,1,0.5326422999996794,['c'],1,left,['9'],5,0.4671451000003799,0.2,0,FastAcc,1,18,Woman,Right,
28,11,1,1.0501414999998815,['n'],1,right,['0'],6,0.45039120000001276,0.1,0,FastAcc,1,18,Woman,Right,
29,11,1,1.8162603000000672,['n'],1,right,['0'],6,0.46711590000040815,0.1,0,FastAcc,1,18,Woman,Right,
30,11,1,1.0674168000000464,['c'],1,left,['0'],6,0.6669913999999153,0.4,0,FastAcc,1,18,Woman,Right,
31,11,1,0.882564800000182,['n'],1,right,['3'],3,0.6838383000003887,0.1,0,FastAcc,1,18,Woman,Right,
32,11,1,1.8824618000003284,['n'],0,left,['9'],5,0.6174031999998988,0.1,0,FastAcc,1,18,Woman,Right,
33,11,1,0.7158083999997871,['c'],1,left,['9'],5,0.41704710000021805,0.2,0,FastAcc,1,18,Woman,Right,
34,11,1,1.1662750999998934,['c'],0,right,['3'],3,1.5672429999999622,0.1,0,FastAcc,1,18,Woman,Right,
35,11,1,0.8831716999998207,['n'],1,right,['9'],5,0.5671873999999661,0.2,0,FastAcc,1,18,Woman,Right,
36,11,1,0.6826464999999189,['c'],1,left,['9'],5,0.5335782000001927,0.1,0,FastAcc,1,18,Woman,Right,
37,11,1,0.6497801000000436,['c'],1,left,['0'],6,0.2837899999999536,0.4,0,FastAcc,1,18,Woman,Right,
38,11,1,1.1833345000000008,['c'],1,left,['0'],6,0.25045929999987493,0.4,0,FastAcc,1,18,Woman,Right,
39,11,1,1.015892100000201,['c'],1,left,['0'],6,0.2338543999999274,0.2,0,FastAcc,1,18,Woman,Right,
40,11,1,1.4161892000001899,['c'],1,left,['8'],4,1.7672469999997702,0.2,0,FastAcc,1,18,Woman,Right,
41,11,1,1.2491906999998719,['n'],1,right,['9'],5,1.5338109999997869,0.1,0,FastAcc,1,18,Woman,Right,
42,11,1,1.649719400000322,['c'],0,right,['9'],5,0.6838394999999764,0.2,0,FastAcc,1,18,Woman,Right,
43,11,1,2.0827434999996512,['c'],1,left,['0'],6,0.43388939999977083,0.2,0,FastAcc,1,18,Woman,Right,
44,11,1,0.9826708999999028,['n'],1,right,['9'],5,0.41701279999961116,0.2,0,FastAcc,1,18,Woman,Right,
45,11,1,0.5669855000001007,['c'],1,left,['0'],6,0.2838451999996323,0.4,0,FastAcc,1,18,Woman,Right,
46,11,1,1.9499949999999444,['n'],1,right,['0'],6,0.31644790000018475,0.1,0,FastAcc,1,18,Woman,Right,
47,11,1,1.4162713999999141,['n'],1,right,['0'],6,0.5672091999999793,0.2,0,FastAcc,1,18,Woman,Right,
48,11,1,1.6164585000001352,['n'],1,right,['9'],5,0.683745799999997,0.2,0,FastAcc,1,18,Woman,Right,
49,11,1,0.5164309000001595,['c'],1,left,['9'],5,0.4505215999997745,0.1,0,FastAcc,1,18,Woman,Right,
50,11,1,0.5158197999999174,['c'],1,left,['9'],5,0.46731590000035794,0.4,0,FastAcc,1,18,Woman,Right,
51,11,1,0.7002810999997564,['n'],1,right,['0'],6,0.33386490000020785,0.4,0,FastAcc,1,18,Woman,Right,
52,11,1,1.2330712000002677,['n'],1,right,['8'],4,0.5505971999996291,0.1,0,FastAcc,1,18,Woman,Right,
53,11,1,0.9493655999999646,['c'],1,left,['3'],3,0.8838998999999603,0.2,0,FastAcc,1,18,Woman,Right,
54,11,1,1.0166181999998116,['n'],1,right,['8'],4,0.6510920999999144,0.4,0,FastAcc,1,18,Woman,Right,
55,11,1,1.2991495999999643,['c'],1,left,['9'],5,0.41709099999980026,0.1,0,FastAcc,1,18,Woman,Right,
56,11,1,0.5994215000000622,['c'],1,left,['0'],6,0.267044100000021,0.1,0,FastAcc,1,18,Woman,Right,
57,11,1,1.5162082000001647,['n'],0,left,['8'],4,0.6504548000002615,0.1,0,FastAcc,1,18,Woman,Right,
58,11,1,0.582715300000018,['c'],1,left,['0'],6,0.40066079999996873,0.4,0,FastAcc,1,18,Woman,Right,
59,11,1,1.2663626999997177,['n'],1,right,['9'],5,0.5006463999998232,0.1,0,FastAcc,1,18,Woman,Right,
0,12,1,1.1328047000001789,['c'],1,left,['0'],6,0.16719469999998182,0.4,0,FastFast,1,18,Woman,Right,
1,12,1,0.7326262000001407,['n'],1,right,['0'],6,0.2506594999999834,0.2,0,FastFast,1,18,Woman,Right,
2,12,1,0.6998859999998785,['n'],1,right,['0'],6,0.23382530000026236,0.2,0,FastFast,1,18,Woman,Right,
3,12,1,0.48288970000021436,['c'],1,left,['0'],6,0.2172974999998587,0.4,0,FastFast,1,18,Woman,Right,
4,12,1,0.7829320999999254,['c'],1,left,['0'],6,0.3671395000001212,0.1,0,FastFast,1,18,Woman,Right,
5,12,1,0.6999816999996256,['n'],1,right,['0'],6,0.3000056000000768,0.2,0,FastFast,1,18,Woman,Right,
6,12,1,0.6661388999996234,['n'],1,right,['0'],6,0.31712070000003223,0.2,0,FastFast,1,18,Woman,Right,
7,12,1,1.4659560000000056,['n'],1,right,['3'],3,0.48380319999978383,0.1,0,FastFast,1,18,Woman,Right,
8,12,1,0.9826273999997284,['n'],1,right,['3'],3,0.3506315999998151,0.1,0,FastFast,1,18,Woman,Right,
9,12,1,0.9162292999999408,['n'],0,left,['8'],4,0.2171647000000121,0.1,0,FastFast,1,18,Woman,Right,
10,12,1,1.4663507000000209,['c'],1,left,['1'],1,0.21715009999979884,0.1,0,FastFast,1,18,Woman,Right,
11,12,1,1.783065500000248,['c'],1,left,['2'],2,0.3670124999998734,0.2,0,FastFast,1,18,Woman,Right,
12,12,1,0.8827830999998696,['c'],1,left,['9'],5,0.5506086999998843,0.4,0,FastFast,1,18,Woman,Right,
13,12,1,0.7660981999997603,['n'],1,right,['9'],5,0.33377329999984795,0.2,0,FastFast,1,18,Woman,Right,
14,12,1,3.049593800000366,['n'],1,right,['1'],1,1.0672240999997484,0.1,0,FastFast,1,18,Woman,Right,
15,12,1,0.8995141000000331,['n'],1,right,['0'],6,0.3171247999998741,0.4,0,FastFast,1,18,Woman,Right,
16,12,1,0.8162098999996488,['n'],1,right,['0'],6,0.55048110000007,0.2,0,FastFast,1,18,Woman,Right,
17,12,1,0.699557399999776,['n'],1,right,['0'],6,0.3005748999999014,0.4,0,FastFast,1,18,Woman,Right,
18,12,1,1.3495993999999882,['c'],1,left,['8'],4,0.7671267000000626,0.1,0,FastFast,1,18,Woman,Right,
19,12,1,0.5660158000000592,['c'],1,left,['8'],4,0.31722250000029817,0.2,0,FastFast,1,18,Woman,Right,
20,12,1,1.265679099999943,['n'],1,right,['0'],6,0.26718090000031225,0.1,0,FastFast,1,18,Woman,Right,
21,12,1,0.6161441999997805,['c'],1,left,['3'],3,0.9505930000000262,0.4,0,FastFast,1,18,Woman,Right,
22,12,1,1.0830395000002682,['n'],1,right,['0'],6,0.16720160000022588,0.4,0,FastFast,1,18,Woman,Right,
23,12,1,1.366035600000032,['c'],1,left,['3'],3,0.7005515000000742,0.1,0,FastFast,1,18,Woman,Right,
24,12,1,0.7664451000000554,['c'],1,left,['3'],3,0.7672959999999875,0.2,0,FastFast,1,18,Woman,Right,
25,12,1,1.1823958999998467,['c'],1,left,['0'],6,0.20057199999973818,0.4,0,FastFast,1,18,Woman,Right,
26,12,1,2.0329643000000033,['n'],1,right,['2'],2,1.3840915000000678,0.1,0,FastFast,1,18,Woman,Right,
27,12,1,0.7659269000000677,['n'],1,right,['0'],6,0.2837939000000915,0.2,0,FastFast,1,18,Woman,Right,
28,12,1,0.984204200000022,['n'],1,right,['9'],5,0.5503423999998631,0.2,0,FastFast,1,18,Woman,Right,
29,12,1,2.1997670999999173,['n'],1,right,['2'],2,0.3339003999999477,0.1,0,FastFast,1,18,Woman,Right,
30,12,1,1.7662071999998261,['c'],1,left,['1'],1,0.6338937000000442,0.1,0,FastFast,1,18,Woman,Right,
31,12,1,2.016063799999756,['n'],1,right,['1'],1,0.3004233999999997,0.1,0,FastFast,1,18,Woman,Right,
32,12,1,1.082991100000072,['n'],1,right,['9'],5,0.667160800000147,0.4,0,FastFast,1,18,Woman,Right,
33,12,1,1.583041299999877,['c'],0,right,['2'],2,0.4172640000001593,0.2,0,FastFast,1,18,Woman,Right,
34,12,1,0.8327672000000348,['n'],1,right,['9'],5,0.48383049999983996,0.2,0,FastFast,1,18,Woman,Right,
35,12,1,1.2164384000002428,['c'],1,left,['0'],6,0.23387319999983447,0.4,0,FastFast,1,18,Woman,Right,
36,12,1,2.5996930000001157,['c'],1,left,['2'],2,0.40049660000022413,0.1,0,FastFast,1,18,Woman,Right,
37,12,1,1.2495500999998512,['c'],1,left,['9'],5,0.38385550000020885,0.1,0,FastFast,1,18,Woman,Right,
38,12,1,0.8995123999998214,['n'],1,right,['0'],6,0.21708289999969566,0.4,0,FastFast,1,18,Woman,Right,
39,12,1,0.6825691000003644,['c'],1,left,['0'],6,0.26709070000015345,0.4,0,FastFast,1,18,Woman,Right,
40,12,1,1.3161284000002524,['c'],1,left,['2'],2,0.5505103000000418,0.1,0,FastFast,1,18,Woman,Right,
41,12,1,0.6993032000000312,['c'],1,left,['8'],4,1.3332120000000032,0.2,0,FastFast,1,18,Woman,Right,
42,12,1,0.7161668999997346,['n'],1,right,['0'],6,0.23401550000016869,0.4,0,FastFast,1,18,Woman,Right,
43,12,1,0.9830429000003278,['c'],1,left,['0'],6,0.8506026999998539,0.1,0,FastFast,1,18,Woman,Right,
44,12,1,1.5662010999999438,['c'],1,left,['8'],4,0.7006016999998792,0.2,0,FastFast,1,18,Woman,Right,
45,12,1,0.6991340999998101,['n'],1,right,['0'],6,0.6505113999996865,0.4,0,FastFast,1,18,Woman,Right,
46,12,1,1.3171581000001424,['n'],1,right,['8'],4,0.7509350000000268,0.2,0,FastFast,1,18,Woman,Right,
47,12,1,0.9155433999999332,['c'],1,left,['9'],5,0.2837446999997155,0.2,0,FastFast,1,18,Woman,Right,
48,12,1,1.3662755000000288,['c'],0,right,['8'],4,0.38380340000003343,0.1,0,FastFast,1,18,Woman,Right,
49,12,1,1.249523599999975,['c'],1,left,['8'],4,0.8339019000000008,0.2,0,FastFast,1,18,Woman,Right,
50,12,1,0.8162812999999005,['c'],1,left,['9'],5,0.550625399999717,0.4,0,FastFast,1,18,Woman,Right,
51,12,1,0.6663702999999259,['c'],1,left,['0'],6,0.1838210999999319,0.4,0,FastFast,1,18,Woman,Right,
52,12,1,1.4667879000003268,['c'],1,left,['9'],5,0.250729500000034,0.1,0,FastFast,1,18,Woman,Right,
53,12,1,0.4994685000001482,['n'],1,right,['9'],5,0.3005809000001136,0.2,0,FastFast,1,18,Woman,Right,
54,12,1,0.8993359999999484,['c'],0,right,['9'],5,0.16712179999967702,0.1,0,FastFast,1,18,Woman,Right,
55,12,1,1.1995553000001564,['c'],1,left,['0'],6,0.18387299999994866,0.4,0,FastFast,1,18,Woman,Right,
56,12,1,0.7503618999999162,['n'],1,right,['0'],6,0.26649200000019846,0.4,0,FastFast,1,18,Woman,Right,
57,12,1,0.6330523999999969,['c'],1,left,['0'],6,0.23376189999999042,0.2,0,FastFast,1,18,Woman,Right,
58,12,1,0.5993800999999621,['n'],1,right,['0'],6,0.23375800000030722,0.4,0,FastFast,1,18,Woman,Right,
59,12,1,0.8834588999998232,['c'],1,left,['0'],6,0.21719729999995252,0.4,0,FastFast,1,18,Woman,Right,
0,13,1,0.8995594000002711,['n'],1,right,['0'],6,0.6005457000001115,0.4,0,AccFast,1,18,Woman,Right,
1,13,1,0.7837628000002042,['c'],1,left,['0'],6,0.33382620000020324,0.1,0,AccFast,1,18,Woman,Right,
2,13,1,0.8661201999998411,['c'],1,left,['0'],6,0.18382500000006985,0.1,0,AccFast,1,18,Woman,Right,
3,13,1,0.6335401000001184,['c'],1,left,['0'],6,0.3505181000000448,0.4,0,AccFast,1,18,Woman,Right,
4,13,1,0.7503514999998515,['c'],1,left,['0'],6,0.150503899999876,0.1,0,AccFast,1,18,Woman,Right,
5,13,1,0.8159364000002824,['n'],1,right,['0'],6,0.16720020000002478,0.4,0,AccFast,1,18,Woman,Right,
6,13,1,0.5503103999999439,['c'],1,left,['0'],6,0.18378789999997025,0.4,0,AccFast,1,18,Woman,Right,
7,13,1,0.7169232000001102,['n'],1,right,['0'],6,0.20058380000000398,0.4,0,AccFast,1,18,Woman,Right,
8,13,1,0.516071600000032,['c'],1,left,['0'],6,0.1672352000000501,0.2,0,AccFast,1,18,Woman,Right,
9,13,1,0.6661696999999549,['n'],1,right,['0'],6,0.16716839999980948,0.2,0,AccFast,1,18,Woman,Right,
10,13,1,0.8495303000004242,['c'],1,left,['0'],6,0.15049480000016047,0.4,0,AccFast,1,18,Woman,Right,
11,13,1,0.48296320000008564,['n'],1,right,['0'],6,0.18383110000013403,0.4,0,AccFast,1,18,Woman,Right,
12,13,1,0.4164264999999432,['c'],0,right,['1'],1,0.21709229999987656,0.1,0,AccFast,1,18,Woman,Right,
13,13,1,1.0829178999997566,['c'],1,left,['0'],6,0.45049950000020544,0.1,0,AccFast,1,18,Woman,Right,
14,13,1,0.5166027000000213,['c'],1,left,['0'],6,0.13399600000002465,0.1,0,AccFast,1,18,Woman,Right,
15,13,1,0.982718599999771,['n'],1,right,['8'],4,0.517101299999922,0.1,0,AccFast,1,18,Woman,Right,
16,13,1,1.9828256999999212,['c'],1,left,['3'],3,0.9838452999997571,0.1,0,AccFast,1,18,Woman,Right,
17,13,1,0.8830493999998907,['c'],1,left,['9'],5,0.28382730000021184,0.2,0,AccFast,1,18,Woman,Right,
18,13,1,1.8494198000003053,['c'],0,right,['2'],2,0.4173348000003898,0.1,0,AccFast,1,18,Woman,Right,
19,13,1,0.9165533000000323,['n'],1,right,['9'],5,0.4340626000002885,0.2,0,AccFast,1,18,Woman,Right,
20,13,1,1.016167299999779,['n'],1,right,['0'],6,0.1839350000000195,0.4,0,AccFast,1,18,Woman,Right,
21,13,1,1.499389600000086,['n'],1,right,['0'],6,0.1506358999999975,0.4,0,AccFast,1,18,Woman,Right,
22,13,1,1.1162825000001249,['n'],1,right,['9'],5,0.4005309999997735,0.2,0,AccFast,1,18,Woman,Right,
23,13,1,1.0496707000002061,['n'],1,right,['9'],5,0.23389319999978397,0.1,0,AccFast,1,18,Woman,Right,
24,13,1,0.9168294999999489,['n'],1,right,['8'],4,0.6671642999999676,0.2,0,AccFast,1,18,Woman,Right,
25,13,1,1.2161089000001084,['c'],1,left,['0'],6,0.5170493000000533,0.2,0,AccFast,1,18,Woman,Right,
26,13,1,0.6836060000000543,['c'],1,left,['0'],6,0.13398439999991751,0.2,0,AccFast,1,18,Woman,Right,
27,13,1,0.7996132999996917,['n'],1,right,['0'],6,0.18375719999994544,0.4,0,AccFast,1,18,Woman,Right,
28,13,1,0.6989851000003,['n'],1,right,['0'],6,0.15049069999986386,0.4,0,AccFast,1,18,Woman,Right,
29,13,1,0.9330638999999792,['n'],1,right,['0'],6,0.20051920000014434,0.2,0,AccFast,1,18,Woman,Right,
30,13,1,0.8329914999999346,['n'],1,right,['0'],6,0.18391450000035547,0.2,0,AccFast,1,18,Woman,Right,
31,13,1,0.6503182999999808,['c'],1,left,['0'],6,0.20054909999998927,0.4,0,AccFast,1,18,Woman,Right,
32,13,1,0.9995057999999517,['n'],1,right,['0'],6,0.16715900000008332,0.4,0,AccFast,1,18,Woman,Right,
33,13,1,0.5496156999997766,['c'],1,left,['0'],6,0.1671547000000828,0.2,0,AccFast,1,18,Woman,Right,
34,13,1,0.7162793000002239,['n'],1,right,['0'],6,0.20065730000033,0.2,0,AccFast,1,18,Woman,Right,
35,13,1,1.5996135999998842,['c'],1,left,['0'],6,0.1338596000000507,0.1,0,AccFast,1,18,Woman,Right,
36,13,1,0.7995147000001452,['n'],1,right,['0'],6,0.23379130000012083,0.4,0,AccFast,1,18,Woman,Right,
37,13,1,0.7663639000002149,['n'],1,right,['0'],6,0.15050950000022567,0.2,0,AccFast,1,18,Woman,Right,
38,13,1,1.1493279999999686,['n'],1,right,['9'],5,0.2670599999996739,0.1,0,AccFast,1,18,Woman,Right,
39,13,1,0.9826747000001887,['c'],1,left,['9'],5,0.3172161000002234,0.2,0,AccFast,1,18,Woman,Right,
40,13,1,0.9329227999996874,['n'],1,right,['0'],6,0.216866900000241,0.1,0,AccFast,1,18,Woman,Right,
41,13,1,2.016140799999903,['n'],0,left,['2'],2,0.433759800000189,0.1,0,AccFast,1,18,Woman,Right,
42,13,1,1.4827003999998851,['n'],1,right,['9'],5,0.3672489000000496,0.1,0,AccFast,1,18,Woman,Right,
43,13,1,0.7333999000002223,['c'],1,left,['0'],6,0.2004679000001488,0.4,0,AccFast,1,18,Woman,Right,
44,13,1,1.0662984000000506,['n'],0,left,['0'],6,0.15067180000005465,0.1,0,AccFast,1,18,Woman,Right,
45,13,1,0.6499274000002515,['c'],1,left,['0'],6,0.18388210000011895,0.4,0,AccFast,1,18,Woman,Right,
46,13,1,1.316295699999955,['c'],1,left,['0'],6,0.3339037000000644,0.4,0,AccFast,1,18,Woman,Right,
47,13,1,1.8496009000000413,['n'],0,left,['3'],3,1.1005906999998842,0.2,0,AccFast,1,18,Woman,Right,
48,13,1,0.7501588000000083,['c'],1,left,['8'],4,0.6504490000002079,0.2,0,AccFast,1,18,Woman,Right,
49,13,1,0.6661557000002176,['c'],1,left,['0'],6,0.533836600000086,0.4,0,AccFast,1,18,Woman,Right,
50,13,1,0.7997737999999117,['n'],1,right,['0'],6,0.15046540000003006,0.2,0,AccFast,1,18,Woman,Right,
51,13,1,1.3162576999998237,['c'],1,left,['9'],5,0.8339153000001716,0.2,0,AccFast,1,18,Woman,Right,
52,13,1,0.7495271000002504,['c'],1,left,['0'],6,0.1837722999998732,0.4,0,AccFast,1,18,Woman,Right,
53,13,1,0.7503025000000889,['n'],1,right,['9'],5,0.8338801999998395,0.1,0,AccFast,1,18,Woman,Right,
54,13,1,0.8494074999998702,['n'],1,right,['9'],5,0.3340214999998352,0.2,0,AccFast,1,18,Woman,Right,
55,13,1,0.7328654999996616,['c'],1,left,['0'],6,0.16717449999987366,0.1,0,AccFast,1,18,Woman,Right,
56,13,1,0.6828894000000219,['c'],1,left,['0'],6,0.1672380999998495,0.4,0,AccFast,1,18,Woman,Right,
57,13,1,1.4500545000000784,['n'],1,right,['8'],4,0.5837940000001254,0.1,0,AccFast,1,18,Woman,Right,
58,13,1,1.2995263000002524,['c'],1,left,['9'],5,0.28373240000018995,0.2,0,AccFast,1,18,Woman,Right,
59,13,1,1.6662697000001572,['n'],1,right,['9'],5,0.7838467000001401,0.1,0,AccFast,1,18,Woman,Right,
0,14,1,1.2497462999999698,['c'],1,left,['3'],3,1.2340190999998413,0.1,0,AccAcc,1,18,Woman,Right,
1,14,1,1.1836130000001504,['n'],1,right,['9'],5,0.5509261999995942,0.1,0,AccAcc,1,18,Woman,Right,
2,14,1,1.166481300000214,['c'],1,left,['9'],5,0.45054430000027423,0.2,0,AccAcc,1,18,Woman,Right,
3,14,1,2.132925400000204,['c'],1,left,['2'],2,0.5836716000003435,0.2,0,AccAcc,1,18,Woman,Right,
4,14,1,1.0825855999996747,['n'],1,right,['0'],6,0.6340501999998196,0.1,0,AccAcc,1,18,Woman,Right,
5,14,1,2.8336700999998357,['n'],1,right,['0'],6,0.7673827999997229,0.2,0,AccAcc,1,18,Woman,Right,
6,14,1,2.9662820999997166,['c'],1,left,['1'],1,0.4836830999997801,0.1,0,AccAcc,1,18,Woman,Right,
7,14,1,1.115694799999801,['c'],1,left,['0'],6,0.5671459000000141,0.4,0,AccAcc,1,18,Woman,Right,
8,14,1,1.1657390999998825,['c'],1,left,['9'],5,0.5505615000001853,0.2,0,AccAcc,1,18,Woman,Right,
9,14,1,1.282759199999873,['n'],1,right,['0'],6,0.3671257999999398,0.1,0,AccAcc,1,18,Woman,Right,
10,14,1,1.4337028999998438,['c'],1,left,['0'],6,0.4838137000001552,0.2,0,AccAcc,1,18,Woman,Right,
11,14,1,0.8840970000001107,['c'],1,left,['0'],6,0.250534300000254,0.2,0,AccAcc,1,18,Woman,Right,
12,14,1,1.316364799999974,['n'],1,right,['0'],6,0.2504334000000199,0.1,0,AccAcc,1,18,Woman,Right,
13,14,1,0.7494719000001169,['n'],1,right,['0'],6,0.23375930000020162,0.4,0,AccAcc,1,18,Woman,Right,
14,14,1,0.6496285000002899,['c'],1,left,['0'],6,0.20059330000003683,0.4,0,AccAcc,1,18,Woman,Right,
15,14,1,1.266367199999877,['c'],1,left,['0'],6,0.45052369999984876,0.2,0,AccAcc,1,18,Woman,Right,
16,14,1,0.8328702999997404,['c'],1,left,['0'],6,0.2671400999997786,0.1,0,AccAcc,1,18,Woman,Right,
17,14,1,0.699547100000018,['c'],1,left,['0'],6,0.2501618999999664,0.2,0,AccAcc,1,18,Woman,Right,
18,14,1,0.6663729000001695,['c'],1,left,['0'],6,0.33383299999968585,0.1,0,AccAcc,1,18,Woman,Right,
19,14,1,0.7324588999999833,['n'],1,right,['0'],6,0.2506554999999935,0.4,0,AccAcc,1,18,Woman,Right,
20,14,1,0.7163667999998324,['c'],1,left,['0'],6,0.3837796000002527,0.2,0,AccAcc,1,18,Woman,Right,
21,14,1,0.4996464000000742,['c'],1,left,['0'],6,0.25045490000002246,0.4,0,AccAcc,1,18,Woman,Right,
22,14,1,0.8665073000001939,['n'],1,right,['0'],6,0.26709530000016457,0.4,0,AccAcc,1,18,Woman,Right,
23,14,1,1.0661967000000914,['n'],1,right,['0'],6,0.4337103000002571,0.2,0,AccAcc,1,18,Woman,Right,
24,14,1,1.1994325999999091,['c'],1,left,['0'],6,0.4339791999996123,0.1,0,AccAcc,1,18,Woman,Right,
25,14,1,0.8161081999996895,['c'],1,left,['0'],6,0.4673035000000709,0.4,0,AccAcc,1,18,Woman,Right,
26,14,1,1.1667933000003359,['n'],1,right,['0'],6,0.4338631999999052,0.2,0,AccAcc,1,18,Woman,Right,
27,14,1,1.7496860999999626,['c'],1,left,['2'],2,0.9005588999998508,0.1,0,AccAcc,1,18,Woman,Right,
28,14,1,0.9163499999999658,['n'],1,right,['9'],5,0.9330779000001712,0.4,0,AccAcc,1,18,Woman,Right,
29,14,1,0.6338571999999658,['c'],1,left,['0'],6,0.2672355999998217,0.4,0,AccAcc,1,18,Woman,Right,
30,14,1,0.9332002999999531,['n'],1,right,['0'],6,0.38392179999982545,0.2,0,AccAcc,1,18,Woman,Right,
31,14,1,1.8996384000001854,['n'],1,right,['8'],4,0.5006130000001576,0.1,0,AccAcc,1,18,Woman,Right,
32,14,1,1.3325423999999657,['n'],1,right,['8'],4,0.6837113000001409,0.2,0,AccAcc,1,18,Woman,Right,
33,14,1,1.1346959999996216,['c'],1,left,['8'],4,0.5336288000003151,0.1,0,AccAcc,1,18,Woman,Right,
34,14,1,1.216367199999695,['n'],1,right,['0'],6,0.28379899999981717,0.2,0,AccAcc,1,18,Woman,Right,
35,14,1,1.8162663000002794,['c'],0,right,['2'],2,0.4837952000002588,0.1,0,AccAcc,1,18,Woman,Right,
36,14,1,2.0665147999998226,['c'],1,left,['2'],2,0.5671194999999898,0.1,0,AccAcc,1,18,Woman,Right,
37,14,1,1.0828761000002487,['c'],1,left,['0'],6,0.3670942999997351,0.4,0,AccAcc,1,18,Woman,Right,
38,14,1,0.5664222000000336,['c'],1,left,['0'],6,0.1837270000000899,0.4,0,AccAcc,1,18,Woman,Right,
39,14,1,1.9999105000001691,['n'],0,left,['2'],2,0.41736539999965316,0.1,0,AccAcc,1,18,Woman,Right,
40,14,1,1.5332005999998728,['c'],1,left,['0'],6,0.3005209000002651,0.4,0,AccAcc,1,18,Woman,Right,
41,14,1,2.3501295999999456,['n'],1,right,['0'],6,0.30042879999973593,0.2,0,AccAcc,1,18,Woman,Right,
42,14,1,1.0660907999999836,['n'],1,right,['0'],6,0.35045199999967735,0.4,0,AccAcc,1,18,Woman,Right,
43,14,1,1.2332115000003796,['n'],1,right,['9'],5,0.4505908000001,0.2,0,AccAcc,1,18,Woman,Right,
44,14,1,2.132995899999969,['n'],1,right,['9'],5,0.8171647999997731,0.4,0,AccAcc,1,18,Woman,Right,
45,14,1,0.9496110999998564,['c'],1,left,['0'],6,0.6839528000000428,0.4,0,AccAcc,1,18,Woman,Right,
46,14,1,0.8496261999998751,['n'],1,right,['0'],6,0.48405830000001515,0.2,0,AccAcc,1,18,Woman,Right,
47,14,1,0.7991801999996824,['n'],1,right,['0'],6,0.5504889999997431,0.2,0,AccAcc,1,18,Woman,Right,
48,14,1,1.29963940000016,['c'],1,left,['0'],6,0.26710400000001755,0.1,0,AccAcc,1,18,Woman,Right,
49,14,1,0.8662288999998964,['n'],1,right,['0'],6,0.41723289999981716,0.4,0,AccAcc,1,18,Woman,Right,
50,14,1,0.7500187000000551,['n'],1,right,['0'],6,0.3837379999999939,0.4,0,AccAcc,1,18,Woman,Right,
51,14,1,1.6998045999998794,['c'],0,right,['2'],2,0.3339843000003384,0.1,0,AccAcc,1,18,Woman,Right,
52,14,1,1.2160483999996359,['n'],1,right,['0'],6,0.7341495000000577,0.4,0,AccAcc,1,18,Woman,Right,
53,14,1,1.7998995999996623,['c'],1,left,['0'],6,0.5171888999998373,0.2,0,AccAcc,1,18,Woman,Right,
54,14,1,1.566272200000185,['c'],1,left,['8'],4,0.8171992000002319,0.4,0,AccAcc,1,18,Woman,Right,
55,14,1,1.6662010999998529,['n'],1,right,['8'],4,0.4837977000001956,0.1,0,AccAcc,1,18,Woman,Right,
56,14,1,0.7495816000000559,['c'],1,left,['9'],5,0.4172397999996065,0.2,0,AccAcc,1,18,Woman,Right,
57,14,1,1.0496068000002197,['n'],1,right,['0'],6,0.484069399999953,0.4,0,AccAcc,1,18,Woman,Right,
58,14,1,1.1161099000000831,['c'],0,right,['8'],4,0.9004338999998254,0.1,0,AccAcc,1,18,Woman,Right,
59,14,1,0.9660549999998693,['n'],1,right,['8'],4,0.6171573000001445,0.1,0,AccAcc,1,18,Woman,Right,
0,15,1,2.216153200000008,['c'],1,left,['0'],6,1.0840994000000137,0.2,0,FastAcc,1,18,Woman,Right,
1,15,1,1.0000018000000637,['c'],0,right,['2'],2,0.5339552000000367,0.1,0,FastAcc,1,18,Woman,Right,
2,15,1,1.2992684000000736,['c'],0,right,['2'],2,0.483657299999777,0.1,0,FastAcc,1,18,Woman,Right,
3,15,1,0.5994342000003599,['c'],1,left,['2'],2,0.7838787999999113,0.1,0,FastAcc,1,18,Woman,Right,
4,15,1,0.5826354999999239,['n'],1,right,['9'],5,1.600740699999733,0.2,0,FastAcc,1,18,Woman,Right,
5,15,1,0.9998440999997911,['n'],1,right,['0'],6,0.2837529000003087,0.1,0,FastAcc,1,18,Woman,Right,
6,15,1,1.7329444000001786,['n'],1,right,['9'],5,0.3671255999997811,0.2,0,FastAcc,1,18,Woman,Right,
7,15,1,0.7995693999996547,['n'],1,right,['9'],5,0.2838944999998603,0.4,0,FastAcc,1,18,Woman,Right,
8,15,1,0.7164512000003924,['c'],1,left,['9'],5,0.25042839999969146,0.1,0,FastAcc,1,18,Woman,Right,
9,15,1,0.9667348000002676,['n'],1,right,['9'],5,0.26739150000003065,0.1,0,FastAcc,1,18,Woman,Right,
10,15,1,1.5491142000000764,['n'],1,right,['0'],6,0.40053500000021813,0.2,0,FastAcc,1,18,Woman,Right,
11,15,1,0.7992675000000418,['c'],1,left,['0'],6,0.2506039999998393,0.2,0,FastAcc,1,18,Woman,Right,
12,15,1,0.899616899999728,['c'],1,left,['0'],6,0.15060670000002574,0.2,0,FastAcc,1,18,Woman,Right,
13,15,1,0.7995812999997725,['c'],1,left,['0'],6,0.08414620000030482,0.4,0,FastAcc,1,18,Woman,Right,
14,15,1,0.6833299999998417,['c'],1,left,['0'],6,0.1504955999998856,0.1,0,FastAcc,1,18,Woman,Right,
15,15,1,0.766237700000147,['n'],1,right,['0'],6,0.1836490999999114,0.2,0,FastAcc,1,18,Woman,Right,
16,15,1,0.5317893000001277,['c'],1,left,['0'],6,0.15055389999997715,0.2,0,FastAcc,1,18,Woman,Right,
17,15,1,1.6494409000001724,['c'],0,right,['9'],5,0.21714700000029552,0.2,0,FastAcc,1,18,Woman,Right,
18,15,1,0.732716800000162,['c'],1,left,['0'],6,0.26717210000015257,0.4,0,FastAcc,1,18,Woman,Right,
19,15,1,1.4498397000002115,['n'],1,right,['2'],2,0.7171638999998322,0.1,0,FastAcc,1,18,Woman,Right,
20,15,1,1.133197900000141,['n'],1,right,['9'],5,0.650516400000015,0.2,0,FastAcc,1,18,Woman,Right,
21,15,1,1.133036600000196,['c'],0,right,['3'],3,0.7003697000000102,0.1,0,FastAcc,1,18,Woman,Right,
22,15,1,1.0164218999998411,['c'],1,left,['9'],5,0.5838601000000381,0.1,0,FastAcc,1,18,Woman,Right,
23,15,1,1.1828811000000314,['n'],1,right,['0'],6,0.23382989999981874,0.4,0,FastAcc,1,18,Woman,Right,
24,15,1,0.8162972000000082,['n'],1,right,['0'],6,0.20043679999980668,0.4,0,FastAcc,1,18,Woman,Right,
25,15,1,0.9830096000000594,['c'],1,left,['0'],6,0.23401009999997768,0.1,0,FastAcc,1,18,Woman,Right,
26,15,1,1.4163171999998667,['c'],1,left,['9'],5,0.48401709999961895,0.2,0,FastAcc,1,18,Woman,Right,
27,15,1,1.0660600000001068,['n'],1,right,['0'],6,1.1505474999999024,0.4,0,FastAcc,1,18,Woman,Right,
28,15,1,1.0666636999999355,['c'],1,left,['0'],6,0.23358820000021296,0.1,0,FastAcc,1,18,Woman,Right,
29,15,1,1.1160039000001234,['n'],1,right,['0'],6,0.20067489999973986,0.2,0,FastAcc,1,18,Woman,Right,
30,15,1,0.5996189999996204,['c'],1,left,['0'],6,0.23374109999986104,0.2,0,FastAcc,1,18,Woman,Right,
31,15,1,0.7830672999998569,['c'],1,left,['0'],6,0.20049810000000434,0.4,0,FastAcc,1,18,Woman,Right,
32,15,1,0.6827503999998044,['c'],1,left,['0'],6,0.25050999999984924,0.4,0,FastAcc,1,18,Woman,Right,
33,15,1,0.8835386000000653,['c'],1,left,['0'],6,0.1505025999999816,0.4,0,FastAcc,1,18,Woman,Right,
34,15,1,1.0158009000001584,['n'],1,right,['0'],6,0.9337321999996675,0.4,0,FastAcc,1,18,Woman,Right,
35,15,1,1.4495644000003267,['c'],0,right,['2'],2,0.3671417000000474,0.2,0,FastAcc,1,18,Woman,Right,
36,15,1,0.749679400000332,['c'],1,left,['0'],6,0.4672609999997803,0.2,0,FastAcc,1,18,Woman,Right,
37,15,1,0.6658278999998402,['c'],1,left,['0'],6,0.3839167000000998,0.4,0,FastAcc,1,18,Woman,Right,
38,15,1,0.5496110999997654,['n'],1,right,['0'],6,0.4671828999998979,0.4,0,FastAcc,1,18,Woman,Right,
39,15,1,0.4842495999996572,['c'],1,left,['0'],6,0.5506787999997869,0.4,0,FastAcc,1,18,Woman,Right,
40,15,1,0.516504299999724,['c'],1,left,['0'],6,0.16703770000003715,0.2,0,FastAcc,1,18,Woman,Right,
41,15,1,0.5666496000003463,['n'],1,right,['0'],6,0.45039600000018254,0.4,0,FastAcc,1,18,Woman,Right,
42,15,1,0.8670944000000418,['n'],1,right,['0'],6,0.30029730000023847,0.4,0,FastAcc,1,18,Woman,Right,
43,15,1,0.7835709999999381,['c'],1,left,['0'],6,0.4168595000001005,0.2,0,FastAcc,1,18,Woman,Right,
44,15,1,0.6662347999999838,['c'],1,left,['0'],6,0.28382090000013704,0.4,0,FastAcc,1,18,Woman,Right,
45,15,1,1.350003700000343,['n'],1,right,['2'],2,0.5172698999999739,0.1,0,FastAcc,1,18,Woman,Right,
46,15,1,0.5668174000002182,['n'],1,right,['0'],6,0.4840492999996968,0.4,0,FastAcc,1,18,Woman,Right,
47,15,1,1.2998748999998497,['n'],1,right,['9'],5,0.6006424000001971,0.4,0,FastAcc,1,18,Woman,Right,
48,15,1,1.2499431999999615,['c'],0,right,['3'],3,1.033831199999895,0.1,0,FastAcc,1,18,Woman,Right,
49,15,1,0.9662266999998792,['c'],1,left,['0'],6,0.21732959999962986,0.4,0,FastAcc,1,18,Woman,Right,
50,15,1,1.4172836999996434,['n'],0,left,['2'],2,0.900502299999971,0.1,0,FastAcc,1,18,Woman,Right,
51,15,1,1.183694000000287,['c'],1,left,['8'],4,0.8005499000000782,0.1,0,FastAcc,1,18,Woman,Right,
52,15,1,1.1172256999998353,['n'],1,right,['0'],6,0.4504382000000078,0.4,0,FastAcc,1,18,Woman,Right,
53,15,1,1.0834743000000344,['c'],1,left,['9'],5,0.7339635999996972,0.1,0,FastAcc,1,18,Woman,Right,
54,15,1,0.866768399999728,['n'],1,right,['9'],5,0.5839921000001596,0.2,0,FastAcc,1,18,Woman,Right,
55,15,1,1.2333575000002384,['c'],1,left,['9'],5,0.7005288999998811,0.1,0,FastAcc,1,18,Woman,Right,
56,15,1,1.365939199999957,['n'],1,right,['0'],6,0.6171487000001434,0.2,0,FastAcc,1,18,Woman,Right,
57,15,1,1.6326027000000067,['c'],1,left,['1'],1,0.4505058999998255,0.1,0,FastAcc,1,18,Woman,Right,
58,15,1,2.1498787000000448,['n'],0,left,['2'],2,0.7171110999997836,0.1,0,FastAcc,1,18,Woman,Right,
59,15,1,2.0831646000001456,['c'],0,right,['1'],1,0.5672533000001749,0.2,0,FastAcc,1,18,Woman,Right,
