withinblocktrial,block,block_repetition,rt,resp,cor,cresp,conf_press,cj,rtconf,coherence,slow_trial,manipulation,sub,age,gender,handedness,
0,1,1,1.6676250000000437,['c'],1,left,none,-99,-99,0.5,0,none,17,18,Woman,Left,
1,1,1,1.2172780000000785,['n'],1,right,none,-99,-99,0.5,0,none,17,18,Woman,Left,
2,1,1,2.133965199999693,['n'],1,right,none,-99,-99,0.5,0,none,17,18,Woman,Left,
3,1,1,3.234392000000298,['n'],1,right,none,-99,-99,0.5,0,none,17,18,Woman,Left,
4,1,1,0.8158244000005652,['c'],1,left,none,-99,-99,0.5,0,none,17,18,Woman,Left,
5,1,1,0.9004542000002402,['c'],1,left,none,-99,-99,0.5,0,none,17,18,Woman,Left,
6,1,1,2.8504612999995516,['c'],1,left,none,-99,-99,0.5,0,none,17,18,Woman,Left,
7,1,1,0.850644299999658,['n'],1,right,none,-99,-99,0.5,0,none,17,18,Woman,Left,
8,1,1,0.9005397000000812,['n'],1,right,none,-99,-99,0.5,0,none,17,18,Woman,Left,
9,1,1,0.950754099999358,['c'],1,left,none,-99,-99,0.5,0,none,17,18,Woman,Left,
10,1,1,0.6013659000000189,['n'],1,right,none,-99,-99,0.5,0,none,17,18,Woman,Left,
11,1,1,1.0503668999999718,['n'],1,right,none,-99,-99,0.5,0,none,17,18,Woman,Left,
12,1,1,0.6007204000006823,['c'],1,left,none,-99,-99,0.5,0,none,17,18,Woman,Left,
13,1,1,0.5664664000005359,['n'],0,left,none,-99,-99,0.5,0,none,17,18,Woman,Left,
14,1,1,1.3339277000004586,['c'],1,left,none,-99,-99,0.5,0,none,17,18,Woman,Left,
15,1,1,1.767177200000333,['c'],1,left,none,-99,-99,0.5,0,none,17,18,Woman,Left,
16,1,1,0.6012090999993234,['n'],1,right,none,-99,-99,0.5,0,none,17,18,Woman,Left,
17,1,1,0.818304999999782,['c'],1,left,none,-99,-99,0.5,0,none,17,18,Woman,Left,
18,1,1,0.6505155999993804,['n'],1,right,none,-99,-99,0.5,0,none,17,18,Woman,Left,
19,1,1,1.1339854999996533,['n'],1,right,none,-99,-99,0.5,0,none,17,18,Woman,Left,
20,1,1,0.7338086000008843,['n'],1,right,none,-99,-99,0.5,0,none,17,18,Woman,Left,
21,1,1,0.8173044000004666,['n'],1,right,none,-99,-99,0.5,0,none,17,18,Woman,Left,
22,1,1,0.5505303000009008,['c'],1,left,none,-99,-99,0.5,0,none,17,18,Woman,Left,
23,1,1,1.5497014999991734,['c'],1,left,none,-99,-99,0.5,0,none,17,18,Woman,Left,
0,2,1,5.01675940000041,x,-99,right,none,-99,-99,0.2,1,none,17,18,Woman,Left,
1,2,1,0.9833926999999676,['n'],1,right,none,-99,-99,0.4,0,none,17,18,Woman,Left,
2,2,1,1.2335816999993767,['c'],1,left,none,-99,-99,0.1,0,none,17,18,Woman,Left,
3,2,1,1.0504287000003387,['c'],1,left,none,-99,-99,0.2,0,none,17,18,Woman,Left,
4,2,1,0.8672238999997717,['n'],1,right,none,-99,-99,0.2,0,none,17,18,Woman,Left,
5,2,1,0.6006624000001466,['c'],1,left,none,-99,-99,0.4,0,none,17,18,Woman,Left,
6,2,1,1.4165815999995175,['n'],0,left,none,-99,-99,0.1,0,none,17,18,Woman,Left,
7,2,1,0.5846217999996952,['n'],0,left,none,-99,-99,0.4,0,none,17,18,Woman,Left,
8,2,1,0.9842762000007497,['c'],1,left,none,-99,-99,0.4,0,none,17,18,Woman,Left,
9,2,1,0.6191423999998733,['n'],1,right,none,-99,-99,0.2,0,none,17,18,Woman,Left,
10,2,1,0.7678009000001111,['n'],1,right,none,-99,-99,0.2,0,none,17,18,Woman,Left,
11,2,1,0.7346066000000064,['n'],1,right,none,-99,-99,0.1,0,none,17,18,Woman,Left,
12,2,1,1.3679038999998738,['n'],1,right,none,-99,-99,0.1,0,none,17,18,Woman,Left,
13,2,1,0.8330159999995885,['n'],1,right,none,-99,-99,0.2,0,none,17,18,Woman,Left,
14,2,1,0.9503966000002038,['c'],1,left,none,-99,-99,0.4,0,none,17,18,Woman,Left,
15,2,1,0.650590000000193,['n'],1,right,none,-99,-99,0.2,0,none,17,18,Woman,Left,
16,2,1,0.6000168999999005,['n'],1,right,none,-99,-99,0.4,0,none,17,18,Woman,Left,
17,2,1,1.3318006999998033,['c'],1,left,none,-99,-99,0.1,0,none,17,18,Woman,Left,
18,2,1,0.6016972999996142,['n'],0,left,none,-99,-99,0.1,0,none,17,18,Woman,Left,
19,2,1,2.0013885999997,['n'],0,left,none,-99,-99,0.1,0,none,17,18,Woman,Left,
20,2,1,1.4178437000000486,['n'],1,right,none,-99,-99,0.2,0,none,17,18,Woman,Left,
21,2,1,1.0673409000000902,['c'],1,left,none,-99,-99,0.1,0,none,17,18,Woman,Left,
22,2,1,1.3167639000002964,['c'],1,left,none,-99,-99,0.4,0,none,17,18,Woman,Left,
23,2,1,0.7665492999994967,['n'],1,right,none,-99,-99,0.4,0,none,17,18,Woman,Left,
0,3,1,3.882895099999587,['n'],0,left,['2'],2,4.0184189000001425,0.2,0,none,17,18,Woman,Left,
1,3,1,2.316260099999454,['c'],1,left,['2'],2,2.949805600000218,0.2,0,none,17,18,Woman,Left,
2,3,1,1.7007695000002059,['c'],1,left,['0'],6,2.1678711000004114,0.4,0,none,17,18,Woman,Left,
3,3,1,1.5503149999995003,['c'],1,left,['0'],6,1.1178939000001265,0.2,0,none,17,18,Woman,Left,
4,3,1,3.2999049000000014,['n'],0,left,['3'],3,3.3179937999993854,0.2,0,none,17,18,Woman,Left,
5,3,1,1.7998764000003575,['n'],1,right,['9'],5,1.1997396999995544,0.1,0,none,17,18,Woman,Left,
6,3,1,1.151312500000131,['n'],1,right,['0'],6,0.6347618999998303,0.4,0,none,17,18,Woman,Left,
7,3,1,1.4833181000003606,['c'],1,left,['1'],1,1.0182698999997228,0.4,0,none,17,18,Woman,Left,
8,3,1,1.4668817000001582,['n'],1,right,['0'],6,0.9015214999999444,0.2,0,none,17,18,Woman,Left,
9,3,1,1.533934500000214,['n'],1,right,['0'],6,0.718027599999914,0.4,0,none,17,18,Woman,Left,
10,3,1,2.133546099999876,['n'],1,right,['0'],6,0.7514821000004304,0.1,0,none,17,18,Woman,Left,
11,3,1,2.351113499999883,['c'],1,left,['9'],5,2.8529636999992363,0.1,0,none,17,18,Woman,Left,
12,3,1,1.5676028000007136,['n'],1,right,['0'],6,0.4694863999993686,0.4,0,none,17,18,Woman,Left,
13,3,1,1.2668217000000368,['n'],1,right,['9'],5,0.7998512000003757,0.1,0,none,17,18,Woman,Left,
14,3,1,2.8327689000007013,['c'],0,right,['2'],2,0.6851324999997814,0.1,0,none,17,18,Woman,Left,
15,3,1,1.2345396999999139,['n'],1,right,['0'],6,0.8681808000001183,0.4,0,none,17,18,Woman,Left,
16,3,1,1.3836068000000523,['c'],1,left,['0'],6,0.9334143000005497,0.4,0,none,17,18,Woman,Left,
17,3,1,2.3007812999994712,['n'],0,left,['9'],5,0.7506561000000147,0.1,0,none,17,18,Woman,Left,
18,3,1,1.4495058000002246,['c'],1,left,['0'],6,0.9849659999999858,0.4,0,none,17,18,Woman,Left,
19,3,1,1.5817675999996936,['n'],1,right,['0'],6,0.8502230000003692,0.1,0,none,17,18,Woman,Left,
20,3,1,2.416856399999233,['n'],1,right,['0'],6,0.36706620000040857,0.2,0,none,17,18,Woman,Left,
21,3,1,3.215422299999773,['c'],1,left,['0'],6,0.8671514000006937,0.2,0,none,17,18,Woman,Left,
22,3,1,2.0161457999993218,['n'],1,right,['0'],6,0.25098139999954583,0.1,0,none,17,18,Woman,Left,
23,3,1,0.8338011000005281,['c'],1,left,['0'],6,0.43575909999981377,0.2,0,none,17,18,Woman,Left,
0,4,1,2.184260600000016,['n'],0,left,['9'],5,4.900358699999742,0.1,0,FastAcc,17,18,Woman,Left,
1,4,1,1.9506529000000228,['c'],1,left,['2'],2,1.5672241000002032,0.1,0,FastAcc,17,18,Woman,Left,
2,4,1,0.7179128999996465,['c'],1,left,['0'],6,1.9517196999995576,0.4,0,FastAcc,17,18,Woman,Left,
3,4,1,0.833813299999747,['n'],1,right,['0'],6,0.6180761000005077,0.4,0,FastAcc,17,18,Woman,Left,
4,4,1,3.568150600000081,['c'],0,right,['8'],4,2.867936599999666,0.1,0,FastAcc,17,18,Woman,Left,
5,4,1,2.299518900000294,['n'],1,right,['3'],3,1.1852432000005138,0.1,0,FastAcc,17,18,Woman,Left,
6,4,1,0.7993699999997261,['n'],1,right,['0'],6,0.6345318999992742,0.4,0,FastAcc,17,18,Woman,Left,
7,4,1,1.1335422000001927,['c'],1,left,['9'],5,0.7681042000003799,0.1,0,FastAcc,17,18,Woman,Left,
8,4,1,1.3318621000007624,['n'],1,right,['9'],5,0.7520612999996956,0.2,0,FastAcc,17,18,Woman,Left,
9,4,1,1.2007512999998653,['n'],1,right,['0'],6,0.6015628000004654,0.4,0,FastAcc,17,18,Woman,Left,
10,4,1,1.0166336000002048,['c'],1,left,['0'],6,0.6007315999995626,0.4,0,FastAcc,17,18,Woman,Left,
11,4,1,1.3509235999999873,['n'],1,right,['0'],6,0.4512291000000914,0.4,0,FastAcc,17,18,Woman,Left,
12,4,1,0.9009941000003892,['c'],1,left,['0'],6,0.31823870000062016,0.4,0,FastAcc,17,18,Woman,Left,
13,4,1,1.5838057000000845,['n'],1,right,['0'],6,0.2179601999996521,0.1,0,FastAcc,17,18,Woman,Left,
14,4,1,2.3331678000004104,['n'],1,right,['0'],6,0.1851940000005925,0.1,0,FastAcc,17,18,Woman,Left,
15,4,1,1.2842281000002913,['c'],1,left,['0'],6,0.4346140999996351,0.2,0,FastAcc,17,18,Woman,Left,
16,4,1,2.5837727999996787,['n'],1,right,['0'],6,0.2834007000001293,0.1,0,FastAcc,17,18,Woman,Left,
17,4,1,1.0332058000003599,['n'],1,right,['0'],6,0.3188715999995111,0.2,0,FastAcc,17,18,Woman,Left,
18,4,1,1.6505269999997836,['n'],1,right,['9'],5,0.36808949999976903,0.2,0,FastAcc,17,18,Woman,Left,
19,4,1,1.248725899999954,['c'],1,left,['0'],6,0.20173040000008768,0.4,0,FastAcc,17,18,Woman,Left,
20,4,1,1.5333690000006754,['n'],1,right,['9'],5,0.2014656000001196,0.2,0,FastAcc,17,18,Woman,Left,
21,4,1,1.2836523999994824,['n'],1,right,['0'],6,0.20134999999936554,0.2,0,FastAcc,17,18,Woman,Left,
22,4,1,1.3671074999992925,['n'],1,right,['9'],5,1.4680097999998907,0.1,0,FastAcc,17,18,Woman,Left,
23,4,1,1.1325059000000692,['c'],1,left,['0'],6,0.6021652999997968,0.4,0,FastAcc,17,18,Woman,Left,
24,4,1,0.8005640000001222,['c'],1,left,['0'],6,0.28465390000019397,0.4,0,FastAcc,17,18,Woman,Left,
25,4,1,0.9331773000003523,['c'],1,left,['0'],6,0.21840609999981098,0.4,0,FastAcc,17,18,Woman,Left,
26,4,1,0.8836614000001646,['n'],1,right,['0'],6,0.5017447999998694,0.2,0,FastAcc,17,18,Woman,Left,
27,4,1,2.0663715999999113,['n'],0,left,['8'],4,0.5515615000003891,0.1,0,FastAcc,17,18,Woman,Left,
28,4,1,2.28317319999951,['n'],0,left,['8'],4,0.5680410000004485,0.2,0,FastAcc,17,18,Woman,Left,
29,4,1,0.884498700000222,['c'],1,left,['0'],6,0.2849938999997903,0.4,0,FastAcc,17,18,Woman,Left,
30,4,1,0.8000566000000617,['n'],1,right,['0'],6,0.25171899999986636,0.4,0,FastAcc,17,18,Woman,Left,
31,4,1,1.016073000000688,['n'],1,right,['0'],6,0.31763859999955457,0.1,0,FastAcc,17,18,Woman,Left,
32,4,1,0.7186842999999499,['n'],1,right,['0'],6,0.21745860000009998,0.4,0,FastAcc,17,18,Woman,Left,
33,4,1,1.7159775000000081,['c'],1,left,['9'],5,0.7007957000005263,0.2,0,FastAcc,17,18,Woman,Left,
34,4,1,0.7509620000000723,['n'],1,right,['0'],6,0.368014900000162,0.4,0,FastAcc,17,18,Woman,Left,
35,4,1,1.2338162000005468,['n'],1,right,['0'],6,0.33484969999972236,0.4,0,FastAcc,17,18,Woman,Left,
36,4,1,1.767462699999669,['n'],1,right,['0'],6,0.30162579999978334,0.2,0,FastAcc,17,18,Woman,Left,
37,4,1,1.2504768999997395,['n'],1,right,['0'],6,0.30139970000072935,0.1,0,FastAcc,17,18,Woman,Left,
38,4,1,1.1836323999996239,['n'],1,right,['0'],6,0.2502567999999883,0.2,0,FastAcc,17,18,Woman,Left,
39,4,1,1.1178058000004967,['c'],1,left,['0'],6,0.26804859999992914,0.2,0,FastAcc,17,18,Woman,Left,
40,4,1,2.566465600000811,['c'],1,left,['8'],4,1.0666844000006677,0.1,0,FastAcc,17,18,Woman,Left,
41,4,1,3.2342548999995415,['c'],1,left,['8'],4,0.9346649000008256,0.2,0,FastAcc,17,18,Woman,Left,
42,4,1,1.8823638000003484,['c'],1,left,['0'],6,0.2178740999997899,0.4,0,FastAcc,17,18,Woman,Left,
43,4,1,3.3170291999995243,['c'],1,left,['3'],3,0.3013842999998815,0.2,0,FastAcc,17,18,Woman,Left,
44,4,1,1.8327001999996355,['c'],0,right,['8'],4,0.26694989999941754,0.1,0,FastAcc,17,18,Woman,Left,
45,4,1,2.800501799999438,['n'],1,right,['0'],6,0.2346547000006467,0.1,0,FastAcc,17,18,Woman,Left,
46,4,1,0.9004035000007207,['n'],0,left,['9'],5,0.45104859999992186,0.1,0,FastAcc,17,18,Woman,Left,
47,4,1,2.3834295999995447,['n'],0,left,['8'],4,0.584863399999449,0.2,0,FastAcc,17,18,Woman,Left,
48,4,1,3.0161372000002302,['c'],1,left,['9'],5,1.1180143999999927,0.2,0,FastAcc,17,18,Woman,Left,
49,4,1,0.600382499999796,['n'],1,right,['8'],4,2.0679942999995546,0.1,0,FastAcc,17,18,Woman,Left,
50,4,1,0.9843320999998468,['c'],1,left,['3'],3,2.117424399999436,0.2,0,FastAcc,17,18,Woman,Left,
51,4,1,1.1668630999993184,['n'],1,right,['0'],6,0.36873100000048,0.4,0,FastAcc,17,18,Woman,Left,
52,4,1,2.1823919000007663,['c'],1,left,['9'],5,0.884135199999946,0.1,0,FastAcc,17,18,Woman,Left,
53,4,1,1.7490163000002212,['c'],1,left,['0'],6,1.3002480999994077,0.4,0,FastAcc,17,18,Woman,Left,
54,4,1,0.7850089999992633,['c'],1,left,['9'],5,0.8513394000001426,0.2,0,FastAcc,17,18,Woman,Left,
55,4,1,0.6831379999994169,['n'],1,right,['0'],6,0.4180740000001606,0.2,0,FastAcc,17,18,Woman,Left,
56,4,1,1.117733600000065,['c'],1,left,['8'],4,0.684934400000202,0.1,0,FastAcc,17,18,Woman,Left,
57,4,1,1.633901600000172,['c'],1,left,['8'],4,1.184467200000654,0.1,0,FastAcc,17,18,Woman,Left,
58,4,1,1.0999221000001853,['n'],1,right,['0'],6,0.18471210000006977,0.2,0,FastAcc,17,18,Woman,Left,
59,4,1,0.9342483999998876,['c'],1,left,['0'],6,0.3347817000003488,0.4,0,FastAcc,17,18,Woman,Left,
0,5,1,0.9843264999999519,['c'],1,left,['0'],6,0.28485640000053536,0.4,0,FastFast,17,18,Woman,Left,
1,5,1,0.8663593000001129,['c'],1,left,['0'],6,0.20145319999937783,0.4,0,FastFast,17,18,Woman,Left,
2,5,1,0.733377699999437,['n'],1,right,['0'],6,0.20116159999997762,0.4,0,FastFast,17,18,Woman,Left,
3,5,1,0.6996060000001307,['c'],1,left,['0'],6,0.2682612999997218,0.4,0,FastFast,17,18,Woman,Left,
4,5,1,0.7676911999997174,['n'],1,right,['0'],6,0.4012557000005472,0.2,0,FastFast,17,18,Woman,Left,
5,5,1,0.7673901999996815,['n'],1,right,['0'],6,0.15131769999970857,0.2,0,FastFast,17,18,Woman,Left,
6,5,1,0.6845719000002646,['n'],1,right,['0'],6,0.18355030000020633,0.2,0,FastFast,17,18,Woman,Left,
7,5,1,1.117995399999927,['c'],0,right,['9'],5,1.0345442999996521,0.1,0,FastFast,17,18,Woman,Left,
8,5,1,0.7329027000005226,['n'],1,right,['0'],6,0.16854719999992085,0.2,0,FastFast,17,18,Woman,Left,
9,5,1,0.6506300999999439,['n'],1,right,['0'],6,0.15110249999997905,0.4,0,FastFast,17,18,Woman,Left,
10,5,1,1.733547599999838,['c'],1,left,['0'],6,0.5348766000006435,0.1,0,FastFast,17,18,Woman,Left,
11,5,1,1.2492208999992727,['c'],1,left,['0'],6,0.1345526000004611,0.4,0,FastFast,17,18,Woman,Left,
12,5,1,1.884248800000023,['c'],1,left,['8'],4,0.1350598999997601,0.2,0,FastFast,17,18,Woman,Left,
13,5,1,2.184289400000125,['c'],1,left,['8'],4,0.168329499999345,0.4,0,FastFast,17,18,Woman,Left,
14,5,1,0.865529300000162,['n'],1,right,['0'],6,0.1525376999998116,0.4,0,FastFast,17,18,Woman,Left,
15,5,1,1.7175960000004125,['n'],1,right,['0'],6,0.15026320000015403,0.2,0,FastFast,17,18,Woman,Left,
16,5,1,1.4171548000003895,['c'],1,left,['0'],6,0.13506580000012036,0.4,0,FastFast,17,18,Woman,Left,
17,5,1,2.267544100000123,['n'],0,left,['0'],6,0.15182430000004388,0.1,0,FastFast,17,18,Woman,Left,
18,5,1,1.7834460999993098,['n'],1,right,['0'],6,0.41825109999990673,0.2,0,FastFast,17,18,Woman,Left,
19,5,1,1.9170462999991287,['n'],1,right,['0'],6,0.1516234999999142,0.2,0,FastFast,17,18,Woman,Left,
20,5,1,1.7338479999998526,['c'],1,left,['0'],6,0.11854820000007749,0.1,0,FastFast,17,18,Woman,Left,
21,5,1,2.1167873000003965,['c'],0,right,['8'],4,0.1519532000002073,0.1,0,FastFast,17,18,Woman,Left,
22,5,1,1.8837070999998105,['c'],1,left,['0'],6,0.18475209999996878,0.2,0,FastFast,17,18,Woman,Left,
23,5,1,1.2342361000000892,['c'],1,left,['0'],6,0.11793800000032206,0.1,0,FastFast,17,18,Woman,Left,
24,5,1,0.8842097999995531,['c'],1,left,['0'],6,0.08449270000073739,0.2,0,FastFast,17,18,Woman,Left,
25,5,1,1.1671881000002031,['n'],0,left,['0'],6,0.13473610000073677,0.1,0,FastFast,17,18,Woman,Left,
26,5,1,0.8177231999998185,['n'],1,right,['0'],6,0.1337084999995568,0.4,0,FastFast,17,18,Woman,Left,
27,5,1,0.5333777999994709,['n'],1,right,['0'],6,0.13507829999980459,0.4,0,FastFast,17,18,Woman,Left,
28,5,1,0.7843874000000142,['n'],1,right,['0'],6,0.13505040000018198,0.1,0,FastFast,17,18,Woman,Left,
29,5,1,0.6837390000000596,['c'],1,left,['0'],6,0.06830159999935859,0.4,0,FastFast,17,18,Woman,Left,
30,5,1,0.7162390000003143,['c'],1,left,['0'],6,0.08468710000033752,0.1,0,FastFast,17,18,Woman,Left,
31,5,1,0.6170293999994101,['n'],1,right,['0'],6,0.13399110000045766,0.4,0,FastFast,17,18,Woman,Left,
32,5,1,0.6498131999996986,['c'],1,left,['0'],6,0.03482169999915641,0.1,0,FastFast,17,18,Woman,Left,
33,5,1,0.5837177000003066,['c'],1,left,['0'],6,0.06800490000023274,0.4,0,FastFast,17,18,Woman,Left,
34,5,1,0.9667011999999886,['n'],1,right,['0'],6,0.08554410000033386,0.1,0,FastFast,17,18,Woman,Left,
35,5,1,0.516279499999655,['n'],1,right,['0'],6,0.15082099999926868,0.2,0,FastFast,17,18,Woman,Left,
36,5,1,0.7171121000001222,['c'],1,left,['0'],6,0.11670150000009016,0.4,0,FastFast,17,18,Woman,Left,
37,5,1,0.6178079000001162,['n'],0,left,['0'],6,0.10206250000010186,0.4,0,FastFast,17,18,Woman,Left,
38,5,1,1.0672995999993873,['n'],1,right,['0'],6,0.08463959999971848,0.2,0,FastFast,17,18,Woman,Left,
39,5,1,0.6322685999994064,['c'],1,left,['0'],6,0.03592800000023999,0.4,0,FastFast,17,18,Woman,Left,
40,5,1,0.883287399999972,['n'],0,left,['0'],6,0.1348333999994793,0.1,0,FastFast,17,18,Woman,Left,
41,5,1,0.5828611999995701,['n'],1,right,['0'],6,0.06873080000059417,0.2,0,FastFast,17,18,Woman,Left,
42,5,1,0.6831744000000981,['n'],1,right,['0'],6,0.10214619999987917,0.4,0,FastFast,17,18,Woman,Left,
43,5,1,0.717762600000242,['n'],1,right,['0'],6,0.10155220000069676,0.1,0,FastFast,17,18,Woman,Left,
44,5,1,0.5500027999996746,['n'],1,right,['0'],6,0.10080459999971936,0.1,0,FastFast,17,18,Woman,Left,
45,5,1,0.7174046999998609,['n'],1,right,['0'],6,0.10160139999970852,0.1,0,FastFast,17,18,Woman,Left,
46,5,1,0.6673837999996977,['c'],1,left,['0'],6,0.06868200000008073,0.4,0,FastFast,17,18,Woman,Left,
47,5,1,0.6337487000000692,['n'],1,right,['0'],6,0.08492500000011205,0.2,0,FastFast,17,18,Woman,Left,
48,5,1,0.8491546000004746,['n'],0,left,['0'],6,0.13436600000022736,0.1,0,FastFast,17,18,Woman,Left,
49,5,1,1.2665979000003063,['n'],0,left,['0'],6,1.7190716000004613,0.2,0,FastFast,17,18,Woman,Left,
50,5,1,2.450477100000171,['c'],1,left,['0'],6,0.08495309999943856,0.1,0,FastFast,17,18,Woman,Left,
51,5,1,0.6829948000004151,['n'],1,right,['0'],6,0.018040400000245427,0.2,0,FastFast,17,18,Woman,Left,
52,5,1,0.6168843999994351,['n'],1,right,['0'],6,0.10007229999973788,0.2,0,FastFast,17,18,Woman,Left,
53,5,1,0.6177849000005153,['n'],1,right,['0'],6,0.01792380000006233,0.2,0,FastFast,17,18,Woman,Left,
54,5,1,0.5509910000000673,['n'],1,right,['0'],6,0.11784869999974035,0.1,0,FastFast,17,18,Woman,Left,
55,5,1,0.8167412000002514,['c'],1,left,['0'],6,0.06812520000039513,0.2,0,FastFast,17,18,Woman,Left,
56,5,1,1.433186299999761,['n'],0,left,['0'],6,0.13543070000014268,0.2,0,FastFast,17,18,Woman,Left,
57,5,1,1.4497086000001218,['n'],0,left,['0'],6,0.16735269999935554,0.1,0,FastFast,17,18,Woman,Left,
58,5,1,1.2651327999992645,['n'],1,right,['0'],6,0.136601399999563,0.1,0,FastFast,17,18,Woman,Left,
59,5,1,0.6513594000007288,['c'],1,left,['0'],6,0.0686031000004732,0.4,0,FastFast,17,18,Woman,Left,
0,6,1,1.6850981999996293,['n'],0,left,['0'],6,0.6011951000000408,0.2,0,AccFast,17,18,Woman,Left,
1,6,1,2.06623910000053,['c'],1,left,['0'],6,0.10202300000037212,0.2,0,AccFast,17,18,Woman,Left,
2,6,1,1.3667611000000761,['n'],1,right,['0'],6,0.11811369999941235,0.2,0,AccFast,17,18,Woman,Left,
3,6,1,1.3994288999992932,['c'],1,left,['0'],6,0.0685273999997662,0.2,0,AccFast,17,18,Woman,Left,
4,6,1,1.1159069999994244,['c'],1,left,['0'],6,0.06910040000002482,0.4,0,AccFast,17,18,Woman,Left,
5,6,1,1.350504600000022,['n'],1,right,['0'],6,0.10037869999996474,0.2,0,AccFast,17,18,Woman,Left,
6,6,1,1.565830300000016,['n'],1,right,['0'],6,0.10193849999996019,0.1,0,AccFast,17,18,Woman,Left,
7,6,1,0.8662747999997009,['n'],1,right,['0'],6,0.1014431000003242,0.1,0,AccFast,17,18,Woman,Left,
8,6,1,0.9991405000000668,['n'],1,right,['0'],6,0.13481599999977334,0.4,0,AccFast,17,18,Woman,Left,
9,6,1,1.1676508000000467,['c'],1,left,['0'],6,0.10213969999949768,0.4,0,AccFast,17,18,Woman,Left,
10,6,1,2.2832831999994596,['n'],1,right,['0'],6,0.1172177999997075,0.1,0,AccFast,17,18,Woman,Left,
11,6,1,0.9493832000007387,['c'],1,left,['0'],6,0.11806189999970229,0.4,0,AccFast,17,18,Woman,Left,
12,6,1,1.350978500000565,['n'],1,right,['0'],6,0.1506907000002684,0.1,0,AccFast,17,18,Woman,Left,
13,6,1,0.8006556999998793,['n'],0,left,['0'],6,0.08470159999978932,0.1,0,AccFast,17,18,Woman,Left,
14,6,1,0.6665775000001304,['n'],1,right,['0'],6,0.150792200000069,0.1,0,AccFast,17,18,Woman,Left,
15,6,1,1.1825792999998157,['c'],1,left,['0'],6,0.06896909999977652,0.2,0,AccFast,17,18,Woman,Left,
16,6,1,0.8836472000002686,['n'],0,left,['0'],6,0.06681040000057692,0.1,0,AccFast,17,18,Woman,Left,
17,6,1,0.6003756000000067,['n'],1,right,['0'],6,0.03471559999979945,0.4,0,AccFast,17,18,Woman,Left,
18,6,1,0.7338003000004392,['c'],1,left,['0'],6,0.08477020000009361,0.4,0,AccFast,17,18,Woman,Left,
19,6,1,1.00076799999988,['n'],0,left,['0'],6,1.2847457000007125,0.1,0,AccFast,17,18,Woman,Left,
20,6,1,1.0163563000005524,['n'],0,left,['0'],6,0.018023199999333883,0.2,0,AccFast,17,18,Woman,Left,
21,6,1,1.4331247000000076,['c'],1,left,['0'],6,0.1013215000002674,0.1,0,AccFast,17,18,Woman,Left,
22,6,1,0.7663958000002822,['n'],1,right,['0'],6,0.0682158999998137,0.4,0,AccFast,17,18,Woman,Left,
23,6,1,1.949629200000345,['n'],1,right,['0'],6,0.01795940000010887,0.1,0,AccFast,17,18,Woman,Left,
24,6,1,5.016080499999589,x,-99,left,none,-99,-99,0.1,1,AccFast,17,18,Woman,Left,
25,6,1,1.1848492999997688,['n'],0,left,['0'],6,0.01792269999987184,0.2,0,AccFast,17,18,Woman,Left,
26,6,1,1.0340370000003531,['n'],0,left,['0'],6,0.03458839999984775,0.2,0,AccFast,17,18,Woman,Left,
27,6,1,1.1841738000002806,['n'],1,right,['0'],6,0.08553100000062841,0.2,0,AccFast,17,18,Woman,Left,
28,6,1,0.6672633999996833,['c'],1,left,['0'],6,0.10140839999985474,0.4,0,AccFast,17,18,Woman,Left,
29,6,1,0.9488935999997921,['n'],1,right,['0'],6,0.05148099999951228,0.1,0,AccFast,17,18,Woman,Left,
30,6,1,1.5669387999996616,['c'],1,left,['0'],6,0.10109019999981683,0.1,0,AccFast,17,18,Woman,Left,
31,6,1,0.9831506999998965,['n'],0,left,['0'],6,0.11812760000066191,0.2,0,AccFast,17,18,Woman,Left,
32,6,1,1.0509008999997604,['c'],1,left,['0'],6,0.084760699999606,0.2,0,AccFast,17,18,Woman,Left,
33,6,1,0.9335093999998207,['n'],0,left,['0'],6,0.018047999999907915,0.1,0,AccFast,17,18,Woman,Left,
34,6,1,0.6000662999995257,['n'],1,right,['0'],6,0.018038500000329805,0.4,0,AccFast,17,18,Woman,Left,
35,6,1,0.6494158000004973,['c'],1,left,['0'],6,0.13584290000017063,0.4,0,AccFast,17,18,Woman,Left,
36,6,1,0.6830761000001075,['n'],1,right,['0'],6,0.11816720000024361,0.4,0,AccFast,17,18,Woman,Left,
37,6,1,1.3837499000001117,['n'],0,left,['8'],4,0.1683258000002752,0.2,0,AccFast,17,18,Woman,Left,
38,6,1,0.649873800000023,['n'],0,left,['0'],6,0.017306000000644417,0.1,0,AccFast,17,18,Woman,Left,
39,6,1,1.0513590999998996,['n'],0,left,['0'],6,0.13399639999988722,0.2,0,AccFast,17,18,Woman,Left,
40,6,1,0.4996436999999787,['n'],1,right,['0'],6,0.01810899999964022,0.4,0,AccFast,17,18,Woman,Left,
41,6,1,0.733951100000013,['n'],1,right,['0'],6,0.15155910000066797,0.2,0,AccFast,17,18,Woman,Left,
42,6,1,1.3840136999997412,['n'],1,right,['8'],4,0.10131729999920935,0.1,0,AccFast,17,18,Woman,Left,
43,6,1,0.7838918000006743,['c'],1,left,['8'],4,0.16816130000006524,0.4,0,AccFast,17,18,Woman,Left,
44,6,1,1.5010979000007865,['n'],1,right,['0'],6,0.08482989999993151,0.2,0,AccFast,17,18,Woman,Left,
45,6,1,0.9999336999999286,['n'],1,right,['0'],6,0.034479799999644456,0.1,0,AccFast,17,18,Woman,Left,
46,6,1,1.2843856999998025,['n'],1,right,['0'],6,0.06818899999962014,0.1,0,AccFast,17,18,Woman,Left,
47,6,1,0.8172001000002638,['c'],1,left,['0'],6,0.1181259000004502,0.4,0,AccFast,17,18,Woman,Left,
48,6,1,0.7168603999998595,['n'],1,right,['0'],6,1.1836790999996083,0.4,0,AccFast,17,18,Woman,Left,
49,6,1,0.8164267000001928,['n'],1,right,['0'],6,0.06879000000026281,0.2,0,AccFast,17,18,Woman,Left,
50,6,1,0.8172325000005003,['n'],1,right,['0'],6,0.08416190000025381,0.4,0,AccFast,17,18,Woman,Left,
51,6,1,1.63282640000034,['n'],1,right,['0'],6,0.15206880000005185,0.4,0,AccFast,17,18,Woman,Left,
52,6,1,1.5327849999994214,['n'],0,left,['0'],6,1.6010998000001564,0.2,0,AccFast,17,18,Woman,Left,
53,6,1,0.9004627000003893,['n'],1,right,['0'],6,0.08490179999989778,0.1,0,AccFast,17,18,Woman,Left,
54,6,1,0.6670850000000428,['n'],1,right,['0'],6,0.08409409999967465,0.4,0,AccFast,17,18,Woman,Left,
55,6,1,1.8831399000000602,['c'],0,right,['8'],4,0.3013719000000492,0.1,0,AccFast,17,18,Woman,Left,
56,6,1,1.1326954999994996,['n'],1,right,['0'],6,0.01802719999977853,0.2,0,AccFast,17,18,Woman,Left,
57,6,1,0.7654779000004055,['c'],1,left,['0'],6,0.08490640000036365,0.4,0,AccFast,17,18,Woman,Left,
58,6,1,1.3173490000008314,['n'],1,right,['0'],6,0.1011716000002707,0.2,0,AccFast,17,18,Woman,Left,
59,6,1,0.8510145000000193,['c'],1,left,['0'],6,0.11842770000021119,0.4,0,AccFast,17,18,Woman,Left,
0,7,1,1.6679180000000997,['n'],0,left,['9'],5,2.1166347999997015,0.1,0,AccAcc,17,18,Woman,Left,
1,7,1,1.4662302999995518,['n'],1,right,['9'],5,0.3180361000004268,0.1,0,AccAcc,17,18,Woman,Left,
2,7,1,1.4993100000001505,['n'],1,right,['9'],5,0.15065919999960897,0.1,0,AccAcc,17,18,Woman,Left,
3,7,1,1.1335674000001745,['n'],1,right,['9'],5,0.2674028999999791,0.1,0,AccAcc,17,18,Woman,Left,
4,7,1,0.766455699999824,['n'],1,right,['0'],6,0.6015299999999115,0.4,0,AccAcc,17,18,Woman,Left,
5,7,1,0.9841120999999475,['c'],1,left,['0'],6,0.3015019000004031,0.4,0,AccAcc,17,18,Woman,Left,
6,7,1,0.9507370999999694,['n'],1,right,['0'],6,0.151754799999253,0.4,0,AccAcc,17,18,Woman,Left,
7,7,1,1.999519999999393,['c'],1,left,['8'],4,0.684502799999791,0.1,0,AccAcc,17,18,Woman,Left,
8,7,1,1.5167240999999194,['c'],0,right,['8'],4,0.25148730000000796,0.2,0,AccAcc,17,18,Woman,Left,
9,7,1,1.3005450999999084,['n'],1,right,['0'],6,0.1013347000007343,0.2,0,AccAcc,17,18,Woman,Left,
10,7,1,2.050321300000178,['n'],1,right,['9'],5,0.18465019999985088,0.2,0,AccAcc,17,18,Woman,Left,
11,7,1,2.3004445000005944,['c'],0,right,['3'],3,0.2013872999996238,0.1,0,AccAcc,17,18,Woman,Left,
12,7,1,1.550390100000186,['c'],0,right,['8'],4,0.600632300000143,0.1,0,AccAcc,17,18,Woman,Left,
13,7,1,1.150422499999877,['c'],1,left,['0'],6,0.15223620000051596,0.4,0,AccAcc,17,18,Woman,Left,
14,7,1,1.650650499999756,['n'],0,left,['9'],5,0.3347265000002153,0.1,0,AccAcc,17,18,Woman,Left,
15,7,1,1.317121500000212,['n'],0,left,['8'],4,0.1848178000000189,0.1,0,AccAcc,17,18,Woman,Left,
16,7,1,1.4824816000000283,['n'],1,right,['8'],4,0.15180210000016814,0.2,0,AccAcc,17,18,Woman,Left,
17,7,1,2.2332615000004807,['n'],1,right,['8'],4,0.5351199999995515,0.1,0,AccAcc,17,18,Woman,Left,
18,7,1,1.6996069999995598,['n'],1,right,['0'],6,0.03450460000021849,0.4,0,AccAcc,17,18,Woman,Left,
19,7,1,1.0010737000002337,['c'],1,left,['0'],6,0.1183019999998578,0.4,0,AccAcc,17,18,Woman,Left,
20,7,1,0.9839626000002681,['c'],1,left,['0'],6,0.11859949999961827,0.4,0,AccAcc,17,18,Woman,Left,
21,7,1,0.8651838000005228,['n'],1,right,['0'],6,0.10185730000011972,0.4,0,AccAcc,17,18,Woman,Left,
22,7,1,0.8001494999998613,['c'],1,left,['0'],6,0.10167689999980212,0.4,0,AccAcc,17,18,Woman,Left,
23,7,1,1.0161967999993067,['n'],1,right,['0'],6,0.08473400000002584,0.2,0,AccAcc,17,18,Woman,Left,
24,7,1,0.8999048999994557,['c'],1,left,['0'],6,0.034071400000357244,0.2,0,AccAcc,17,18,Woman,Left,
25,7,1,2.8498733000005814,['c'],1,left,['8'],4,0.9013891000004151,0.1,0,AccAcc,17,18,Woman,Left,
26,7,1,0.7340049000004001,['n'],1,right,['0'],6,0.10171989999980724,0.4,0,AccAcc,17,18,Woman,Left,
27,7,1,2.5170518999993874,['n'],1,right,['8'],4,2.0010312999993403,0.1,0,AccAcc,17,18,Woman,Left,
28,7,1,2.8501493000003393,['n'],1,right,['3'],3,1.634641499999816,0.1,0,AccAcc,17,18,Woman,Left,
29,7,1,1.2173129000002518,['n'],1,right,['8'],4,0.8681560000004538,0.1,0,AccAcc,17,18,Woman,Left,
30,7,1,0.9657261000002109,['n'],1,right,['0'],6,0.13466689999950177,0.1,0,AccAcc,17,18,Woman,Left,
31,7,1,1.131725500000357,['c'],1,left,['8'],4,0.7342305000001943,0.1,0,AccAcc,17,18,Woman,Left,
32,7,1,2.3010598999999274,['c'],1,left,['9'],5,0.7014847999998892,0.2,0,AccAcc,17,18,Woman,Left,
33,7,1,0.7670402000003378,['n'],1,right,['0'],6,0.15077089999977034,0.4,0,AccAcc,17,18,Woman,Left,
34,7,1,1.366923399999905,['c'],1,left,['8'],4,0.4846856999993179,0.2,0,AccAcc,17,18,Woman,Left,
35,7,1,1.0008388999995077,['c'],1,left,['8'],4,0.26805289999992965,0.2,0,AccAcc,17,18,Woman,Left,
36,7,1,0.8503453000002992,['n'],1,right,['0'],6,0.13558499999999185,0.2,0,AccAcc,17,18,Woman,Left,
37,7,1,0.9344287999992957,['n'],1,right,['0'],6,0.08456360000036511,0.1,0,AccAcc,17,18,Woman,Left,
38,7,1,1.484204200000022,['c'],1,left,['8'],4,0.5848078999997597,0.2,0,AccAcc,17,18,Woman,Left,
39,7,1,1.5324886999997034,['c'],1,left,['0'],6,0.06907680000040273,0.4,0,AccAcc,17,18,Woman,Left,
40,7,1,0.7175321999993685,['n'],1,right,['0'],6,0.035017400000469934,0.2,0,AccAcc,17,18,Woman,Left,
41,7,1,0.7497990000001664,['n'],1,right,['0'],6,0.08464869999988878,0.4,0,AccAcc,17,18,Woman,Left,
42,7,1,1.0657832999995662,['c'],1,left,['0'],6,0.06853630000023259,0.4,0,AccAcc,17,18,Woman,Left,
43,7,1,0.8168506000001798,['n'],1,right,['0'],6,2.1013874999998734,0.1,0,AccAcc,17,18,Woman,Left,
44,7,1,0.7835697999998956,['n'],1,right,['0'],6,0.051207399999839254,0.4,0,AccAcc,17,18,Woman,Left,
45,7,1,0.8847141000005649,['c'],1,left,['0'],6,0.15064849999998842,0.4,0,AccAcc,17,18,Woman,Left,
46,7,1,1.0493185000004814,['n'],0,left,['0'],6,0.0680277000001297,0.2,0,AccAcc,17,18,Woman,Left,
47,7,1,0.7838983000001463,['c'],1,left,['0'],6,0.15267089999997552,0.4,0,AccAcc,17,18,Woman,Left,
48,7,1,0.9168965999997454,['n'],0,left,['0'],6,0.08354090000011638,0.2,0,AccAcc,17,18,Woman,Left,
49,7,1,0.950045699999464,['n'],1,right,['0'],6,0.08564949999981764,0.4,0,AccAcc,17,18,Woman,Left,
50,7,1,1.5676009999997405,['c'],1,left,['8'],4,0.8663418999994974,0.1,0,AccAcc,17,18,Woman,Left,
51,7,1,1.83298140000079,['n'],0,left,['9'],5,0.4522710000001098,0.2,0,AccAcc,17,18,Woman,Left,
52,7,1,0.8657929999999396,['n'],1,right,['0'],6,0.01753259999986767,0.2,0,AccAcc,17,18,Woman,Left,
53,7,1,2.0834021999999095,['n'],0,left,['8'],4,0.08410000000003492,0.2,0,AccAcc,17,18,Woman,Left,
54,7,1,1.5336362999996709,['n'],0,left,['9'],5,0.8013467000000674,0.2,0,AccAcc,17,18,Woman,Left,
55,7,1,1.617068300000028,['n'],0,left,['9'],5,0.051559399999860034,0.1,0,AccAcc,17,18,Woman,Left,
56,7,1,1.3339342999997825,['c'],1,left,['0'],6,0.30139839999992546,0.4,0,AccAcc,17,18,Woman,Left,
57,7,1,0.717917099999795,['n'],1,right,['0'],6,0.08475559999988036,0.2,0,AccAcc,17,18,Woman,Left,
58,7,1,0.9677701999999044,['c'],1,left,['0'],6,0.08406320000085543,0.4,0,AccAcc,17,18,Woman,Left,
59,7,1,2.315998299999592,['c'],1,left,['8'],4,1.6852569999991829,0.2,0,AccAcc,17,18,Woman,Left,
0,8,1,0.9174340999998094,['n'],1,right,['0'],6,0.4681950999993205,0.2,0,FastAcc,17,18,Woman,Left,
1,8,1,0.6679603000002317,['n'],1,right,['0'],6,0.06804439999996248,0.2,0,FastAcc,17,18,Woman,Left,
2,8,1,0.8833293000006961,['c'],1,left,['0'],6,0.13509849999991275,0.1,0,FastAcc,17,18,Woman,Left,
3,8,1,0.6504506000001129,['n'],1,right,['0'],6,0.10127529999954277,0.2,0,FastAcc,17,18,Woman,Left,
4,8,1,0.801183000000492,['c'],1,left,['0'],6,0.11835270000028686,0.2,0,FastAcc,17,18,Woman,Left,
5,8,1,0.6174055999999837,['n'],1,right,['0'],6,1.1014437000003454,0.4,0,FastAcc,17,18,Woman,Left,
6,8,1,0.9337930000001506,['n'],0,left,['0'],6,0.08484800000042014,0.2,0,FastAcc,17,18,Woman,Left,
7,8,1,0.7006776999996873,['c'],1,left,['0'],6,0.08557250000012573,0.2,0,FastAcc,17,18,Woman,Left,
8,8,1,0.533906399999978,['n'],1,right,['0'],6,0.03463560000000143,0.4,0,FastAcc,17,18,Woman,Left,
9,8,1,0.7832148999996207,['n'],1,right,['0'],6,0.1014407000002393,0.1,0,FastAcc,17,18,Woman,Left,
10,8,1,0.6006418999995731,['n'],0,left,['0'],6,0.08521900000050664,0.1,0,FastAcc,17,18,Woman,Left,
11,8,1,1.1171995000004245,['n'],0,left,['0'],6,0.08346160000019154,0.1,0,FastAcc,17,18,Woman,Left,
12,8,1,0.684357799999816,['n'],1,right,['0'],6,0.06807089999983873,0.4,0,FastAcc,17,18,Woman,Left,
13,8,1,0.6169345999996949,['n'],1,right,['0'],6,0.0848721000002115,0.4,0,FastAcc,17,18,Woman,Left,
14,8,1,0.9506169999995109,['n'],1,right,['0'],6,0.10150659999999334,0.1,0,FastAcc,17,18,Woman,Left,
15,8,1,0.5988490999998248,['n'],0,left,['0'],6,0.01765990000058082,0.2,0,FastAcc,17,18,Woman,Left,
16,8,1,0.5827403999992384,['c'],1,left,['0'],6,0.13608209999983956,0.4,0,FastAcc,17,18,Woman,Left,
17,8,1,0.6002423999998427,['n'],1,right,['0'],6,0.06791410000005271,0.4,0,FastAcc,17,18,Woman,Left,
18,8,1,1.283525799999552,['n'],0,left,['0'],6,0.13469379999969533,0.4,0,FastAcc,17,18,Woman,Left,
19,8,1,0.683922100000018,['n'],1,right,['0'],6,0.11822359999951004,0.4,0,FastAcc,17,18,Woman,Left,
20,8,1,1.2338950000003024,['n'],0,left,['0'],6,0.10257080000064889,0.1,0,FastAcc,17,18,Woman,Left,
21,8,1,0.7670265999995536,['n'],1,right,['0'],6,0.03464139999960025,0.1,0,FastAcc,17,18,Woman,Left,
22,8,1,0.716984699999557,['c'],1,left,['0'],6,0.11849830000028305,0.4,0,FastAcc,17,18,Woman,Left,
23,8,1,0.5341966000005414,['n'],0,left,['0'],6,0.234833599999547,0.1,0,FastAcc,17,18,Woman,Left,
24,8,1,0.6498904000000039,['c'],1,left,['8'],4,0.668305600000167,0.1,0,FastAcc,17,18,Woman,Left,
25,8,1,0.650451399999838,['n'],0,left,['8'],4,0.7013649000000441,0.2,0,FastAcc,17,18,Woman,Left,
26,8,1,1.0838307999993049,['c'],1,left,['0'],6,0.2340109000006123,0.4,0,FastAcc,17,18,Woman,Left,
27,8,1,1.2677507999997033,['c'],1,left,['0'],6,0.2683403000000908,0.4,0,FastAcc,17,18,Woman,Left,
28,8,1,0.6159687999997914,['n'],1,right,['0'],6,0.13452669999969658,0.4,0,FastAcc,17,18,Woman,Left,
29,8,1,1.2336857000000236,['n'],1,right,['0'],6,0.10152710000056686,0.1,0,FastAcc,17,18,Woman,Left,
30,8,1,0.7187253000001874,['n'],1,right,['0'],6,0.018183800000770134,0.4,0,FastAcc,17,18,Woman,Left,
31,8,1,0.8167905000000246,['n'],1,right,['0'],6,0.08347799999955896,0.2,0,FastAcc,17,18,Woman,Left,
32,8,1,0.5512306999999055,['n'],1,right,['0'],6,0.08497069999975793,0.2,0,FastAcc,17,18,Woman,Left,
33,8,1,0.733282600000166,['c'],1,left,['0'],6,0.08514659999946161,0.2,0,FastAcc,17,18,Woman,Left,
34,8,1,0.6172827000000325,['n'],1,right,['0'],6,0.05190929999935179,0.2,0,FastAcc,17,18,Woman,Left,
35,8,1,1.1838132000002588,['n'],1,right,['0'],6,0.05156829999941692,0.2,0,FastAcc,17,18,Woman,Left,
36,8,1,1.166417200000069,['n'],1,right,['0'],6,0.034829899999749614,0.2,0,FastAcc,17,18,Woman,Left,
37,8,1,0.7338712999999188,['c'],1,left,['0'],6,0.06821170000057464,0.4,0,FastAcc,17,18,Woman,Left,
38,8,1,1.5504958000001352,['c'],1,left,['0'],6,0.017881700000543788,0.4,0,FastAcc,17,18,Woman,Left,
39,8,1,0.6838099000005968,['n'],0,left,['0'],6,0.06760140000005777,0.1,0,FastAcc,17,18,Woman,Left,
40,8,1,0.532220099999904,['c'],1,left,['0'],6,0.10209299999951327,0.1,0,FastAcc,17,18,Woman,Left,
41,8,1,0.7180130000006102,['n'],1,right,['0'],6,0.1348348999999871,0.1,0,FastAcc,17,18,Woman,Left,
42,8,1,1.0669426000004023,['c'],0,right,['0'],6,0.1681336999999985,0.1,0,FastAcc,17,18,Woman,Left,
43,8,1,0.8498522000008961,['n'],1,right,['0'],6,0.051434599999993225,0.2,0,FastAcc,17,18,Woman,Left,
44,8,1,0.7501301999991483,['c'],1,left,['0'],6,0.11820560000069236,0.4,0,FastAcc,17,18,Woman,Left,
45,8,1,0.8500185000002602,['n'],1,right,['0'],6,0.06827750000047672,0.1,0,FastAcc,17,18,Woman,Left,
46,8,1,0.8336549000005107,['n'],1,right,['0'],6,0.06814880000001722,0.2,0,FastAcc,17,18,Woman,Left,
47,8,1,0.6510761000008642,['c'],1,left,['0'],6,0.1348374999997759,0.4,0,FastAcc,17,18,Woman,Left,
48,8,1,0.6844382999997833,['n'],1,right,['0'],6,0.03331290000005538,0.4,0,FastAcc,17,18,Woman,Left,
49,8,1,2.3004368000001705,['c'],1,left,['0'],6,0.0850708999996641,0.1,0,FastAcc,17,18,Woman,Left,
50,8,1,0.7494950000000244,['n'],1,right,['0'],6,0.05180430000018532,0.4,0,FastAcc,17,18,Woman,Left,
51,8,1,0.5836168999994698,['c'],1,left,['0'],6,0.13610460000018065,0.2,0,FastAcc,17,18,Woman,Left,
52,8,1,0.43319939999946655,['n'],1,right,['0'],6,0.1014050000003408,0.2,0,FastAcc,17,18,Woman,Left,
53,8,1,0.48389790000055655,['n'],1,right,['0'],6,0.13490069999988918,0.4,0,FastAcc,17,18,Woman,Left,
54,8,1,0.5666648999995232,['c'],1,left,['0'],6,0.11892939999961527,0.1,0,FastAcc,17,18,Woman,Left,
55,8,1,0.6007779000001392,['c'],1,left,['0'],6,0.11837999999988824,0.2,0,FastAcc,17,18,Woman,Left,
56,8,1,1.2330306000003475,['n'],0,left,['0'],6,0.08538459999999759,0.1,0,FastAcc,17,18,Woman,Left,
57,8,1,0.6339064000003418,['n'],0,left,['0'],6,0.03494749999936175,0.2,0,FastAcc,17,18,Woman,Left,
58,8,1,0.7501577000002726,['n'],1,right,['0'],6,0.10122679999949469,0.1,0,FastAcc,17,18,Woman,Left,
59,8,1,1.0823104000000967,['n'],0,left,['0'],6,0.03520750000006956,0.1,0,FastAcc,17,18,Woman,Left,
0,9,1,1.7679371000003812,['n'],0,left,['0'],6,1.0186690000000453,0.2,0,FastFast,17,18,Woman,Left,
1,9,1,0.9162506000002395,['n'],1,right,['0'],6,0.6352108999999473,0.1,0,FastFast,17,18,Woman,Left,
2,9,1,0.7005976999998893,['n'],1,right,['0'],6,0.018377999999756867,0.4,0,FastFast,17,18,Woman,Left,
3,9,1,0.850234300000011,['n'],1,right,['0'],6,0.9016918999996051,0.1,0,FastFast,17,18,Woman,Left,
4,9,1,0.7339124999998603,['n'],1,right,['0'],6,0.10151399999995192,0.2,0,FastFast,17,18,Woman,Left,
5,9,1,0.6994641000001138,['c'],1,left,['0'],6,0.08548220000011497,0.4,0,FastFast,17,18,Woman,Left,
6,9,1,1.217152299999725,['n'],1,right,['0'],6,0.1015335000001869,0.4,0,FastFast,17,18,Woman,Left,
7,9,1,0.5848347999999532,['c'],1,left,['0'],6,0.08556059999955323,0.2,0,FastFast,17,18,Woman,Left,
8,9,1,0.5666866000001392,['n'],0,left,['0'],6,0.03530460000001767,0.2,0,FastFast,17,18,Woman,Left,
9,9,1,0.5819235999997545,['c'],1,left,['0'],6,0.06820040000002336,0.2,0,FastFast,17,18,Woman,Left,
10,9,1,0.5822338999996646,['n'],0,left,['0'],6,0.03482799999983399,0.1,0,FastFast,17,18,Woman,Left,
11,9,1,0.6171481999999742,['c'],1,left,['0'],6,0.06813009999950737,0.4,0,FastFast,17,18,Woman,Left,
12,9,1,0.53335160000006,['n'],1,right,['0'],6,0.035491100000399456,0.4,0,FastFast,17,18,Woman,Left,
13,9,1,0.7007217999998829,['n'],0,left,['0'],6,0.7847572999999102,0.2,0,FastFast,17,18,Woman,Left,
14,9,1,0.7508167999994839,['c'],1,left,['0'],6,0.13533140000072308,0.4,0,FastFast,17,18,Woman,Left,
15,9,1,0.8176890999993702,['c'],1,left,['0'],6,0.09989539999969566,0.4,0,FastFast,17,18,Woman,Left,
16,9,1,0.4846212000002197,['n'],0,left,['0'],6,0.018381200000476383,0.2,0,FastFast,17,18,Woman,Left,
17,9,1,0.6005064999999377,['n'],1,right,['0'],6,0.08363470000040252,0.1,0,FastFast,17,18,Woman,Left,
18,9,1,0.5335606999997253,['n'],0,left,['0'],6,0.7335376999999426,0.1,0,FastFast,17,18,Woman,Left,
19,9,1,0.8492765000000873,['c'],1,left,['0'],6,0.051018500000282074,0.1,0,FastFast,17,18,Woman,Left,
20,9,1,0.502213099999608,['n'],1,right,['0'],6,0.018052999999781605,0.4,0,FastFast,17,18,Woman,Left,
21,9,1,0.8995040999998309,['c'],1,left,['0'],6,0.08464420000018436,0.2,0,FastFast,17,18,Woman,Left,
22,9,1,0.6158613999996305,['c'],0,right,['0'],6,0.03539329999966867,0.1,0,FastFast,17,18,Woman,Left,
23,9,1,1.6665487000000212,['c'],1,left,['0'],6,0.05126060000020516,0.1,0,FastFast,17,18,Woman,Left,
24,9,1,0.7177596999999878,['n'],1,right,['0'],6,0.06820340000012948,0.1,0,FastFast,17,18,Woman,Left,
25,9,1,0.6165190000010625,['n'],1,right,['0'],6,0.083537399999841,0.2,0,FastFast,17,18,Woman,Left,
26,9,1,1.399731299999985,['c'],0,right,['0'],6,0.0847676000012143,0.1,0,FastFast,17,18,Woman,Left,
27,9,1,1.566866700000901,['n'],1,right,['0'],6,0.017813899999964633,0.1,0,FastFast,17,18,Woman,Left,
28,9,1,0.7676701000000321,['c'],1,left,['0'],6,0.11845249999896623,0.2,0,FastFast,17,18,Woman,Left,
29,9,1,0.5672799999993003,['n'],0,left,['0'],6,0.050713100001303246,0.1,0,FastFast,17,18,Woman,Left,
30,9,1,0.8507335000012972,['c'],1,left,['0'],6,0.1519572999986849,0.2,0,FastFast,17,18,Woman,Left,
31,9,1,0.516117099999974,['n'],1,right,['0'],6,0.017100200000641053,0.4,0,FastFast,17,18,Woman,Left,
32,9,1,0.7844716999989032,['n'],1,right,['0'],6,0.051478299999871524,0.2,0,FastFast,17,18,Woman,Left,
33,9,1,0.735128899999836,['c'],1,left,['0'],6,0.16830540000046312,0.2,0,FastFast,17,18,Woman,Left,
34,9,1,0.6507189000003564,['c'],1,left,['0'],6,0.13513489999968442,0.4,0,FastFast,17,18,Woman,Left,
35,9,1,1.2341984000013326,['n'],0,left,['0'],6,0.7348359999996319,0.4,0,FastFast,17,18,Woman,Left,
36,9,1,0.6346691999988252,['n'],1,right,['0'],6,0.03472359999977925,0.4,0,FastFast,17,18,Woman,Left,
37,9,1,0.6002750999996351,['n'],1,right,['0'],6,0.018205099999249796,0.2,0,FastFast,17,18,Woman,Left,
38,9,1,0.6831672999996954,['c'],1,left,['0'],6,0.15150610000091547,0.4,0,FastFast,17,18,Woman,Left,
39,9,1,0.7829095999986748,['n'],1,right,['0'],6,0.08415930000046501,0.2,0,FastFast,17,18,Woman,Left,
40,9,1,0.8020392999987962,['c'],1,left,['0'],6,0.1182174000005034,0.2,0,FastFast,17,18,Woman,Left,
41,9,1,0.8340336999990541,['c'],1,left,['0'],6,0.11738549999972747,0.2,0,FastFast,17,18,Woman,Left,
42,9,1,1.5004740000003949,['c'],1,left,['0'],6,0.15084890000071027,0.1,0,FastFast,17,18,Woman,Left,
43,9,1,0.766901400000279,['n'],0,left,['0'],6,0.050191000000268104,0.1,0,FastFast,17,18,Woman,Left,
44,9,1,0.6833905000003142,['n'],1,right,['0'],6,0.051567499998782296,0.1,0,FastFast,17,18,Woman,Left,
45,9,1,0.6670797999995557,['n'],1,right,['0'],6,0.051298800000949996,0.1,0,FastFast,17,18,Woman,Left,
46,9,1,0.5666476000005787,['n'],1,right,['0'],6,0.01727539999956207,0.2,0,FastFast,17,18,Woman,Left,
47,9,1,1.2827823000006902,['n'],1,right,['0'],6,0.018355300000621355,0.1,0,FastFast,17,18,Woman,Left,
48,9,1,0.9005971999995381,['n'],1,right,['0'],6,0.18511620000026596,0.4,0,FastFast,17,18,Woman,Left,
49,9,1,1.6653012999995553,['c'],1,left,['0'],6,0.06877239999994345,0.2,0,FastFast,17,18,Woman,Left,
50,9,1,0.6995053999999072,['c'],1,left,['0'],6,0.1516603000000032,0.4,0,FastFast,17,18,Woman,Left,
51,9,1,0.9832354000009218,['c'],1,left,['0'],6,0.11849880000045232,0.2,0,FastFast,17,18,Woman,Left,
52,9,1,1.0332650000000285,['c'],1,left,['0'],6,0.11829620000025898,0.4,0,FastFast,17,18,Woman,Left,
53,9,1,0.6345352000007551,['n'],1,right,['0'],6,0.05107099999986531,0.1,0,FastFast,17,18,Woman,Left,
54,9,1,0.9337597000012465,['n'],1,right,['0'],6,0.01754579999942507,0.1,0,FastFast,17,18,Woman,Left,
55,9,1,0.9675850000003265,['n'],1,right,['0'],6,0.0516607000008662,0.4,0,FastFast,17,18,Woman,Left,
56,9,1,0.5993851000002905,['n'],1,right,['0'],6,0.017605799999728333,0.4,0,FastFast,17,18,Woman,Left,
57,9,1,0.5680844000016805,['n'],1,right,['0'],6,0.9346730999986903,0.4,0,FastFast,17,18,Woman,Left,
58,9,1,0.5178224999999657,['n'],1,right,['0'],6,0.5515911000002234,0.4,0,FastFast,17,18,Woman,Left,
59,9,1,0.6177290000014182,['n'],1,right,['0'],6,0.10141660000044794,0.1,0,FastFast,17,18,Woman,Left,
0,10,1,1.0180147000010038,['n'],1,right,['0'],6,0.6680599999999686,0.1,0,AccFast,17,18,Woman,Left,
1,10,1,1.0503929999995307,['n'],1,right,['0'],6,0.01767889999973704,0.1,0,AccFast,17,18,Woman,Left,
2,10,1,0.6665976000003866,['n'],1,right,['0'],6,0.05156679999890912,0.4,0,AccFast,17,18,Woman,Left,
3,10,1,1.0670528999999078,['n'],1,right,['0'],6,0.051471099999616854,0.2,0,AccFast,17,18,Woman,Left,
4,10,1,0.8012746999993396,['n'],1,right,['0'],6,0.018024599999989732,0.1,0,AccFast,17,18,Woman,Left,
5,10,1,0.8005745000009483,['n'],1,right,['0'],6,0.05153769999924407,0.2,0,AccFast,17,18,Woman,Left,
6,10,1,0.7663699999993696,['n'],1,right,['0'],6,0.050713799999357434,0.4,0,AccFast,17,18,Woman,Left,
7,10,1,0.9172077000002901,['n'],1,right,['0'],6,0.06889240000054997,0.2,0,AccFast,17,18,Woman,Left,
8,10,1,1.8009278000008635,['n'],0,left,['8'],4,1.3834093000004941,0.1,0,AccFast,17,18,Woman,Left,
9,10,1,0.9010971000006975,['n'],1,right,['0'],6,0.08471250000002328,0.1,0,AccFast,17,18,Woman,Left,
10,10,1,0.8658015999990312,['n'],0,left,['0'],6,0.05231329999878653,0.1,0,AccFast,17,18,Woman,Left,
11,10,1,0.9008955999997852,['n'],0,left,['0'],6,0.06689960000039719,0.1,0,AccFast,17,18,Woman,Left,
12,10,1,1.1003407000007428,['c'],1,left,['0'],6,0.21792599999935192,0.4,0,AccFast,17,18,Woman,Left,
13,10,1,0.7829256999993959,['c'],1,left,['0'],6,0.16689469999982975,0.4,0,AccFast,17,18,Woman,Left,
14,10,1,0.9175075999992259,['n'],1,right,['0'],6,0.11800509999920905,0.1,0,AccFast,17,18,Woman,Left,
15,10,1,1.1826264999999694,['n'],0,left,['0'],6,0.1018631999995705,0.2,0,AccFast,17,18,Woman,Left,
16,10,1,0.733028500000728,['n'],1,right,['0'],6,0.01746640000055777,0.4,0,AccFast,17,18,Woman,Left,
17,10,1,1.2483675000003132,['n'],1,right,['0'],6,0.05081809999865072,0.1,0,AccFast,17,18,Woman,Left,
18,10,1,1.1026330000004236,['c'],1,left,['0'],6,0.13504370000009658,0.4,0,AccFast,17,18,Woman,Left,
19,10,1,0.7344353999997111,['c'],1,left,['0'],6,0.08396060000086436,0.4,0,AccFast,17,18,Woman,Left,
20,10,1,0.7836209000015515,['n'],1,right,['0'],6,0.03470759999981965,0.4,0,AccFast,17,18,Woman,Left,
21,10,1,0.6505650999988575,['c'],1,left,['0'],6,0.1682597999988502,0.2,0,AccFast,17,18,Woman,Left,
22,10,1,1.3180288000003202,['c'],1,left,['0'],6,0.11840879999908793,0.1,0,AccFast,17,18,Woman,Left,
23,10,1,0.5826008999993064,['n'],1,right,['0'],6,0.017796699999962584,0.4,0,AccFast,17,18,Woman,Left,
24,10,1,1.0002960000001622,['c'],1,left,['0'],6,0.11832540000068548,0.2,0,AccFast,17,18,Woman,Left,
25,10,1,0.616985200000272,['c'],1,left,['0'],6,0.10172830000010435,0.2,0,AccFast,17,18,Woman,Left,
26,10,1,0.55064560000028,['c'],1,left,['0'],6,0.11835989999963203,0.4,0,AccFast,17,18,Woman,Left,
27,10,1,0.6832472999994934,['n'],1,right,['0'],6,0.13468699999975797,0.1,0,AccFast,17,18,Woman,Left,
28,10,1,2.050263299999642,['n'],1,right,['0'],6,0.03325550000045041,0.1,0,AccFast,17,18,Woman,Left,
29,10,1,0.7341500999991695,['c'],1,left,['0'],6,0.11844960000053106,0.4,0,AccFast,17,18,Woman,Left,
30,10,1,0.9674739000001864,['n'],0,left,['0'],6,0.01860859999942477,0.2,0,AccFast,17,18,Woman,Left,
31,10,1,0.683607300001313,['n'],1,right,['0'],6,0.10217609999926935,0.2,0,AccFast,17,18,Woman,Left,
32,10,1,0.6170812000000296,['c'],1,left,['0'],6,0.13516850000087288,0.2,0,AccFast,17,18,Woman,Left,
33,10,1,0.7506753999987268,['c'],1,left,['0'],6,0.11730890000035288,0.4,0,AccFast,17,18,Woman,Left,
34,10,1,0.6179799000001367,['n'],1,right,['0'],6,0.9016659999997501,0.1,0,AccFast,17,18,Woman,Left,
35,10,1,0.6320018000005803,['n'],1,right,['0'],6,0.06823719999920286,0.4,0,AccFast,17,18,Woman,Left,
36,10,1,0.6664533000002848,['c'],1,left,['0'],6,0.11893549999876996,0.2,0,AccFast,17,18,Woman,Left,
37,10,1,0.7840009999999893,['c'],1,left,['0'],6,0.11847149999994144,0.1,0,AccFast,17,18,Woman,Left,
38,10,1,0.5672995000004448,['n'],1,right,['0'],6,0.03497799999968265,0.2,0,AccFast,17,18,Woman,Left,
39,10,1,2.399680399999852,['n'],1,right,['0'],6,0.018033899999863934,0.2,0,AccFast,17,18,Woman,Left,
40,10,1,0.8839652000006026,['n'],0,left,['0'],6,0.018178399999669637,0.1,0,AccFast,17,18,Woman,Left,
41,10,1,0.8677303000004031,['c'],1,left,['0'],6,0.08445749999918917,0.4,0,AccFast,17,18,Woman,Left,
42,10,1,1.5671896999992896,['c'],0,right,['0'],6,0.08502620000035677,0.1,0,AccFast,17,18,Woman,Left,
43,10,1,1.0172125000008236,['c'],1,left,['0'],6,0.05143730000054347,0.4,0,AccFast,17,18,Woman,Left,
44,10,1,0.7003021000000444,['n'],1,right,['0'],6,0.018438199998854543,0.4,0,AccFast,17,18,Woman,Left,
45,10,1,0.9826221999992413,['n'],1,right,['0'],6,0.035276999999041436,0.1,0,AccFast,17,18,Woman,Left,
46,10,1,1.1505601999997452,['n'],1,right,['0'],6,0.08438420000129554,0.1,0,AccFast,17,18,Woman,Left,
47,10,1,1.000483699999677,['c'],1,left,['0'],6,0.06808449999880395,0.1,0,AccFast,17,18,Woman,Left,
48,10,1,0.7005389999994804,['n'],1,right,['0'],6,0.03479280000101426,0.4,0,AccFast,17,18,Woman,Left,
49,10,1,1.133094799999526,['c'],1,left,['0'],6,0.051403200001004734,0.2,0,AccFast,17,18,Woman,Left,
50,10,1,0.4663679000004777,['n'],1,right,['0'],6,0.017484100000729086,0.2,0,AccFast,17,18,Woman,Left,
51,10,1,1.3487888999989082,['n'],1,right,['0'],6,0.01949649999914982,0.1,0,AccFast,17,18,Woman,Left,
52,10,1,0.6827363000011246,['c'],1,left,['0'],6,0.0691077999999834,0.2,0,AccFast,17,18,Woman,Left,
53,10,1,0.7337659999993775,['c'],1,left,['0'],6,0.08386900000004971,0.4,0,AccFast,17,18,Woman,Left,
54,10,1,0.6675446999997803,['n'],1,right,['0'],6,0.034348499999396154,0.2,0,AccFast,17,18,Woman,Left,
55,10,1,0.6839774000000034,['c'],1,left,['0'],6,0.032591200000751996,0.2,0,AccFast,17,18,Woman,Left,
56,10,1,0.48451010000098904,['n'],1,right,['0'],6,0.801281399999425,0.2,0,AccFast,17,18,Woman,Left,
57,10,1,1.2335127999995166,['n'],0,left,['0'],6,0.03494779999891762,0.2,0,AccFast,17,18,Woman,Left,
58,10,1,0.733333500000299,['c'],1,left,['0'],6,0.10260199999902397,0.4,0,AccFast,17,18,Woman,Left,
59,10,1,0.8503733999987162,['c'],1,left,['0'],6,0.11839689999942493,0.4,0,AccFast,17,18,Woman,Left,
0,11,1,0.8859283999991021,['n'],1,right,['0'],6,0.03490290000081586,0.4,0,AccAcc,17,18,Woman,Left,
1,11,1,0.649554799998441,['c'],1,left,['0'],6,0.035327899999174406,0.2,0,AccAcc,17,18,Woman,Left,
2,11,1,0.6666353000000527,['c'],1,left,['0'],6,0.08574829999997746,0.4,0,AccAcc,17,18,Woman,Left,
3,11,1,0.5832064999995055,['n'],1,right,['0'],6,0.017910200000187615,0.2,0,AccAcc,17,18,Woman,Left,
4,11,1,0.7839851999997336,['c'],1,left,['0'],6,0.08375840000007884,0.2,0,AccAcc,17,18,Woman,Left,
5,11,1,0.5013904000006733,['n'],1,right,['0'],6,0.018034000000625383,0.1,0,AccAcc,17,18,Woman,Left,
6,11,1,1.150785599998926,['c'],0,right,['0'],6,0.05165419999866572,0.1,0,AccAcc,17,18,Woman,Left,
7,11,1,1.1836289999992005,['c'],1,left,['0'],6,0.018024500001047272,0.2,0,AccAcc,17,18,Woman,Left,
8,11,1,0.4660650000005262,['n'],0,left,['0'],6,0.017675999999482883,0.2,0,AccAcc,17,18,Woman,Left,
9,11,1,0.6521914999993896,['c'],1,left,['0'],6,0.05136579999998503,0.2,0,AccAcc,17,18,Woman,Left,
10,11,1,1.1834328999993886,['c'],1,left,['0'],6,0.03367009999965376,0.2,0,AccAcc,17,18,Woman,Left,
11,11,1,0.7327820000009524,['c'],1,left,['0'],6,0.017617700001210324,0.2,0,AccAcc,17,18,Woman,Left,
12,11,1,0.5833230999996886,['c'],1,left,['0'],6,0.017563800000061747,0.4,0,AccAcc,17,18,Woman,Left,
13,11,1,0.5515708000002633,['n'],1,right,['0'],6,0.017571099999258877,0.1,0,AccAcc,17,18,Woman,Left,
14,11,1,0.68522860000121,['c'],0,right,['0'],6,0.06659079999917594,0.1,0,AccAcc,17,18,Woman,Left,
15,11,1,0.6680235999992874,['n'],1,right,['0'],6,0.13518180000028224,0.1,0,AccAcc,17,18,Woman,Left,
16,11,1,0.8993160999998508,['c'],1,left,['0'],6,0.10279950000040117,0.4,0,AccAcc,17,18,Woman,Left,
17,11,1,0.6498548999988998,['c'],1,left,['0'],6,0.11962969999876805,0.2,0,AccAcc,17,18,Woman,Left,
18,11,1,0.5816319000005024,['n'],1,right,['0'],6,0.050711199999568635,0.4,0,AccAcc,17,18,Woman,Left,
19,11,1,0.6826102000013634,['c'],0,right,['0'],6,0.05111120000037772,0.2,0,AccAcc,17,18,Woman,Left,
20,11,1,0.7663209999991523,['c'],1,left,['0'],6,0.06952040000032866,0.1,0,AccAcc,17,18,Woman,Left,
21,11,1,0.6827639000002819,['c'],1,left,['0'],6,0.06916020000062417,0.4,0,AccAcc,17,18,Woman,Left,
22,11,1,0.6337682000012137,['n'],0,left,['0'],6,0.06595700000070792,0.1,0,AccAcc,17,18,Woman,Left,
23,11,1,0.7026368999995611,['c'],1,left,['0'],6,0.08470630000010715,0.1,0,AccAcc,17,18,Woman,Left,
24,11,1,0.6506000999997923,['n'],1,right,['0'],6,0.01810459999978775,0.4,0,AccAcc,17,18,Woman,Left,
25,11,1,0.5818100000014965,['n'],1,right,['0'],6,0.017946199999641976,0.4,0,AccAcc,17,18,Woman,Left,
26,11,1,0.7823592999993707,['n'],1,right,['0'],6,0.03466839999964577,0.4,0,AccAcc,17,18,Woman,Left,
27,11,1,0.6994209999993473,['c'],1,left,['0'],6,0.10164780000013707,0.1,0,AccAcc,17,18,Woman,Left,
28,11,1,0.983579900001132,['c'],1,left,['0'],6,0.06731810000019323,0.2,0,AccAcc,17,18,Woman,Left,
29,11,1,0.49930959999983315,['n'],1,right,['0'],6,0.01805640000020503,0.1,0,AccAcc,17,18,Woman,Left,
30,11,1,0.6323393000002397,['n'],1,right,['0'],6,0.034415799998896546,0.4,0,AccAcc,17,18,Woman,Left,
31,11,1,0.5680895999994391,['n'],1,right,['0'],6,0.03481579999970563,0.2,0,AccAcc,17,18,Woman,Left,
32,11,1,0.6665322000008018,['n'],1,right,['0'],6,0.10004090000074939,0.4,0,AccAcc,17,18,Woman,Left,
33,11,1,1.2162348000001657,['n'],1,right,['0'],6,0.017569199999343255,0.1,0,AccAcc,17,18,Woman,Left,
34,11,1,0.8513507000006939,['n'],1,right,['0'],6,0.7182424000002356,0.2,0,AccAcc,17,18,Woman,Left,
35,11,1,0.9658550999993167,['n'],1,right,['0'],6,0.10282039999947301,0.1,0,AccAcc,17,18,Woman,Left,
36,11,1,0.8157606999993732,['n'],1,right,['0'],6,0.05245370000011462,0.1,0,AccAcc,17,18,Woman,Left,
37,11,1,0.534198400000605,['n'],1,right,['0'],6,0.05140980000032869,0.4,0,AccAcc,17,18,Woman,Left,
38,11,1,0.6845382999999856,['c'],1,left,['0'],6,0.08398730000044452,0.2,0,AccAcc,17,18,Woman,Left,
39,11,1,1.0523694999992586,['c'],1,left,['0'],6,0.10171860000082233,0.2,0,AccAcc,17,18,Woman,Left,
40,11,1,0.5646157999999559,['n'],1,right,['0'],6,0.035889200000383426,0.1,0,AccAcc,17,18,Woman,Left,
41,11,1,2.2016686999995727,['n'],0,left,['0'],6,0.01823780000086117,0.1,0,AccAcc,17,18,Woman,Left,
42,11,1,0.7175391000000673,['c'],1,left,['0'],6,0.051321099999768194,0.4,0,AccAcc,17,18,Woman,Left,
43,11,1,1.4183622000000469,['n'],1,right,['0'],6,0.767661700001554,0.2,0,AccAcc,17,18,Woman,Left,
44,11,1,0.7832478000000265,['c'],1,left,['0'],6,0.01783859999886772,0.4,0,AccAcc,17,18,Woman,Left,
45,11,1,1.4820982000001095,['c'],1,left,['0'],6,0.06866880000052333,0.2,0,AccAcc,17,18,Woman,Left,
46,11,1,1.748405799999091,['c'],1,left,['0'],6,0.11872159999984433,0.2,0,AccAcc,17,18,Woman,Left,
47,11,1,0.6513466000014887,['n'],1,right,['0'],6,0.13499019999835582,0.4,0,AccAcc,17,18,Woman,Left,
48,11,1,0.8662862000001041,['c'],1,left,['0'],6,0.10279690000061237,0.1,0,AccAcc,17,18,Woman,Left,
49,11,1,1.0831555999993725,['n'],1,right,['0'],6,0.01735019999978249,0.2,0,AccAcc,17,18,Woman,Left,
50,11,1,1.7009025999996084,['c'],1,left,['0'],6,0.05122490000030666,0.1,0,AccAcc,17,18,Woman,Left,
51,11,1,0.8815642000008665,['c'],1,left,['0'],6,0.033991899999819,0.2,0,AccAcc,17,18,Woman,Left,
52,11,1,0.8333683000000747,['c'],1,left,['0'],6,0.08433049999985087,0.4,0,AccAcc,17,18,Woman,Left,
53,11,1,0.6162686000006943,['n'],1,right,['0'],6,0.11690049999924668,0.4,0,AccAcc,17,18,Woman,Left,
54,11,1,1.9846995000007155,['n'],1,right,['0'],6,0.03477099999872735,0.1,0,AccAcc,17,18,Woman,Left,
55,11,1,0.6510120000002644,['c'],1,left,['0'],6,0.0687367999998969,0.4,0,AccAcc,17,18,Woman,Left,
56,11,1,0.7163486000008561,['n'],1,right,['0'],6,0.018108700000084355,0.1,0,AccAcc,17,18,Woman,Left,
57,11,1,0.5836873000007472,['c'],1,left,['0'],6,0.06801610000002256,0.4,0,AccAcc,17,18,Woman,Left,
58,11,1,0.5497003000000404,['n'],1,right,['0'],6,0.017832400000770576,0.4,0,AccAcc,17,18,Woman,Left,
59,11,1,1.5169148999993922,['c'],0,right,['0'],6,0.049997199999779696,0.1,0,AccAcc,17,18,Woman,Left,
0,12,1,2.435770499998398,['c'],0,right,['0'],6,1.1167712999995274,0.2,0,FastAcc,17,18,Woman,Left,
1,12,1,1.5173085000005813,['n'],1,right,['0'],6,0.11795680000068387,0.1,0,FastAcc,17,18,Woman,Left,
2,12,1,0.6337753999996494,['c'],1,left,['0'],6,0.050933599999552825,0.4,0,FastAcc,17,18,Woman,Left,
3,12,1,0.5008041000000958,['n'],1,right,['0'],6,0.018154699999286095,0.4,0,FastAcc,17,18,Woman,Left,
4,12,1,0.5166001999987202,['n'],1,right,['0'],6,0.6164664999996603,0.4,0,FastAcc,17,18,Woman,Left,
5,12,1,1.2173595000003843,['n'],1,right,['0'],6,0.017308000000411994,0.4,0,FastAcc,17,18,Woman,Left,
6,12,1,1.0165577000007033,['c'],1,left,['0'],6,0.06683840000005148,0.2,0,FastAcc,17,18,Woman,Left,
7,12,1,0.8193057999997109,['c'],1,left,['0'],6,0.051398300000073505,0.4,0,FastAcc,17,18,Woman,Left,
8,12,1,0.5993740000012622,['n'],1,right,['0'],6,0.017939999999725842,0.2,0,FastAcc,17,18,Woman,Left,
9,12,1,0.6346868999989965,['c'],1,left,['0'],6,0.08297959999981686,0.4,0,FastAcc,17,18,Woman,Left,
10,12,1,0.5006866000003356,['n'],1,right,['0'],6,0.017932700000528712,0.1,0,FastAcc,17,18,Woman,Left,
11,12,1,0.8179493999996339,['c'],1,left,['0'],6,0.03462519999993674,0.4,0,FastAcc,17,18,Woman,Left,
12,12,1,0.616087399999742,['c'],1,left,['0'],6,0.06795919999967737,0.4,0,FastAcc,17,18,Woman,Left,
13,12,1,0.5501071999988199,['n'],1,right,['0'],6,0.6013908000004449,0.2,0,FastAcc,17,18,Woman,Left,
14,12,1,0.6498443000000407,['c'],1,left,['0'],6,0.10195919999932812,0.4,0,FastAcc,17,18,Woman,Left,
15,12,1,0.6855372999998508,['n'],0,left,['0'],6,0.16805360000034852,0.2,0,FastAcc,17,18,Woman,Left,
16,12,1,0.5993093000015506,['n'],1,right,['0'],6,0.5517882999993162,0.1,0,FastAcc,17,18,Woman,Left,
17,12,1,1.5842228000001342,['n'],1,right,['0'],6,0.01805450000028941,0.1,0,FastAcc,17,18,Woman,Left,
18,12,1,1.7667406000000483,['n'],0,left,['8'],4,0.13495249999868975,0.1,0,FastAcc,17,18,Woman,Left,
19,12,1,0.6839258999989397,['n'],0,left,['8'],4,0.13343359999998938,0.1,0,FastAcc,17,18,Woman,Left,
20,12,1,0.8160566999995353,['n'],1,right,['0'],6,0.03430819999994128,0.4,0,FastAcc,17,18,Woman,Left,
21,12,1,0.749520900000789,['n'],1,right,['0'],6,0.08552609999969718,0.2,0,FastAcc,17,18,Woman,Left,
22,12,1,0.6005573000002187,['n'],1,right,['0'],6,0.0679402999994636,0.1,0,FastAcc,17,18,Woman,Left,
23,12,1,1.9523589000000356,['c'],1,left,['0'],6,0.0848268999998254,0.2,0,FastAcc,17,18,Woman,Left,
24,12,1,0.500060599999415,['n'],1,right,['0'],6,0.1188970999992307,0.1,0,FastAcc,17,18,Woman,Left,
25,12,1,0.5673572000014246,['n'],1,right,['0'],6,0.017386899999110028,0.2,0,FastAcc,17,18,Woman,Left,
26,12,1,1.250228299999435,['c'],1,left,['0'],6,0.08328729999993811,0.1,0,FastAcc,17,18,Woman,Left,
27,12,1,0.7346837000004598,['n'],1,right,['0'],6,0.050193100001706625,0.4,0,FastAcc,17,18,Woman,Left,
28,12,1,1.2676855999998224,['c'],0,right,['0'],6,0.05044330000055197,0.2,0,FastAcc,17,18,Woman,Left,
29,12,1,0.6171111999992718,['n'],1,right,['0'],6,0.03498580000086804,0.1,0,FastAcc,17,18,Woman,Left,
30,12,1,0.951137000000017,['c'],1,left,['0'],6,0.08434410000154458,0.2,0,FastAcc,17,18,Woman,Left,
31,12,1,0.5835057000003872,['c'],1,left,['0'],6,0.06819960000029823,0.4,0,FastAcc,17,18,Woman,Left,
32,12,1,0.6509030999986862,['n'],1,right,['0'],6,0.08427640000081738,0.2,0,FastAcc,17,18,Woman,Left,
33,12,1,0.6344375999997283,['c'],1,left,['0'],6,0.03481950000059442,0.4,0,FastAcc,17,18,Woman,Left,
34,12,1,1.1338259000003745,['n'],0,left,['0'],6,0.018065199999909964,0.2,0,FastAcc,17,18,Woman,Left,
35,12,1,0.8327984999996261,['c'],1,left,['0'],6,0.11912889999985055,0.2,0,FastAcc,17,18,Woman,Left,
36,12,1,0.7650353000008181,['n'],1,right,['0'],6,2.835841000000073,0.2,0,FastAcc,17,18,Woman,Left,
37,12,1,0.9159880999995949,['c'],1,left,['0'],6,0.1008166000010533,0.2,0,FastAcc,17,18,Woman,Left,
38,12,1,0.7326782000000094,['c'],1,left,['0'],6,0.5691111000014644,0.4,0,FastAcc,17,18,Woman,Left,
39,12,1,0.6669713999999658,['n'],0,left,['0'],6,0.10151779999978316,0.1,0,FastAcc,17,18,Woman,Left,
40,12,1,0.5825511000002734,['n'],1,right,['0'],6,0.11917080000057467,0.4,0,FastAcc,17,18,Woman,Left,
41,12,1,0.61594789999981,['c'],1,left,['0'],6,0.10205649999988964,0.4,0,FastAcc,17,18,Woman,Left,
42,12,1,1.3338719000003039,['n'],1,right,['0'],6,0.03396190000057686,0.1,0,FastAcc,17,18,Woman,Left,
43,12,1,1.4331878000011784,['c'],1,left,['0'],6,0.03501470000082918,0.1,0,FastAcc,17,18,Woman,Left,
44,12,1,0.7008155000003171,['n'],1,right,['0'],6,0.03431240000099933,0.1,0,FastAcc,17,18,Woman,Left,
45,12,1,0.6827792999993108,['n'],1,right,['0'],6,0.017622400000618654,0.1,0,FastAcc,17,18,Woman,Left,
46,12,1,2.1671054999987973,['n'],0,left,['9'],5,0.583936499999254,0.1,0,FastAcc,17,18,Woman,Left,
47,12,1,0.85049059999983,['n'],1,right,['0'],6,0.01794320000044536,0.1,0,FastAcc,17,18,Woman,Left,
48,12,1,1.9981339999994816,['c'],1,left,['0'],6,0.06809790000079374,0.1,0,FastAcc,17,18,Woman,Left,
49,12,1,0.7843529000001581,['n'],1,right,['0'],6,0.03480010000021139,0.2,0,FastAcc,17,18,Woman,Left,
50,12,1,0.7171385000001465,['c'],1,left,['0'],6,0.09989569999925152,0.2,0,FastAcc,17,18,Woman,Left,
51,12,1,1.5856377000000066,['n'],1,right,['0'],6,0.734251600000789,0.1,0,FastAcc,17,18,Woman,Left,
52,12,1,0.7005860999997822,['n'],1,right,['0'],6,0.5511357000013959,0.4,0,FastAcc,17,18,Woman,Left,
53,12,1,1.2998563999990438,['n'],0,left,['0'],6,0.6195685000002413,0.1,0,FastAcc,17,18,Woman,Left,
54,12,1,0.5343849000000773,['n'],1,right,['0'],6,0.03480929999932414,0.4,0,FastAcc,17,18,Woman,Left,
55,12,1,0.7011129999991681,['c'],1,left,['0'],6,0.0666947000008804,0.4,0,FastAcc,17,18,Woman,Left,
56,12,1,0.701882299999852,['n'],1,right,['0'],6,0.7514415999994526,0.2,0,FastAcc,17,18,Woman,Left,
57,12,1,1.3519082000002527,['c'],1,left,['0'],6,0.13371209999968414,0.2,0,FastAcc,17,18,Woman,Left,
58,12,1,1.00094320000062,['c'],1,left,['0'],6,0.05135530000006838,0.2,0,FastAcc,17,18,Woman,Left,
59,12,1,0.7999092999998538,['c'],1,left,['0'],6,0.018057900000712834,0.4,0,FastAcc,17,18,Woman,Left,
0,13,1,1.3178898000005574,['c'],1,left,['0'],6,0.06820949999928416,0.1,0,FastFast,17,18,Woman,Left,
1,13,1,0.751858199999333,['n'],1,right,['0'],6,0.05167319999964093,0.4,0,FastFast,17,18,Woman,Left,
2,13,1,0.5997796999999991,['c'],1,left,['0'],6,0.0686853000006522,0.4,0,FastFast,17,18,Woman,Left,
3,13,1,1.0676566000001912,['c'],1,left,['0'],6,0.06744120000075782,0.4,0,FastFast,17,18,Woman,Left,
4,13,1,0.716277400000763,['n'],1,right,['0'],6,0.03420980000009877,0.1,0,FastFast,17,18,Woman,Left,
5,13,1,0.6855469000001904,['n'],1,right,['0'],6,0.017979799999011448,0.1,0,FastFast,17,18,Woman,Left,
6,13,1,1.0675522000001365,['n'],1,right,['0'],6,0.018119200000001,0.1,0,FastFast,17,18,Woman,Left,
7,13,1,0.7175209999986691,['c'],1,left,['0'],6,0.03470790000028501,0.2,0,FastFast,17,18,Woman,Left,
8,13,1,0.6834127000001899,['n'],0,left,['0'],6,0.05037310000079742,0.1,0,FastFast,17,18,Woman,Left,
9,13,1,0.5666731999990589,['c'],1,left,['0'],6,0.06826470000123663,0.4,0,FastFast,17,18,Woman,Left,
10,13,1,0.7173403999986476,['n'],1,right,['0'],6,0.034585400000651134,0.4,0,FastFast,17,18,Woman,Left,
11,13,1,0.7671841999999742,['c'],0,right,['0'],6,0.018132799999875715,0.1,0,FastFast,17,18,Woman,Left,
12,13,1,0.5165526000000682,['n'],1,right,['0'],6,0.6345296999988932,0.4,0,FastFast,17,18,Woman,Left,
13,13,1,0.783210900000995,['n'],0,left,['0'],6,0.03496359999917331,0.1,0,FastFast,17,18,Woman,Left,
14,13,1,0.7496258999999554,['c'],1,left,['0'],6,0.08367349999934959,0.1,0,FastFast,17,18,Woman,Left,
15,13,1,0.7180829000008089,['c'],1,left,['0'],6,0.05027890000019397,0.2,0,FastFast,17,18,Woman,Left,
16,13,1,1.9006649000002653,['n'],0,left,['0'],6,0.05141879999973753,0.1,0,FastFast,17,18,Woman,Left,
17,13,1,0.716884100000243,['n'],1,right,['0'],6,0.7351743999988685,0.2,0,FastFast,17,18,Woman,Left,
18,13,1,0.7840491000006296,['c'],1,left,['0'],6,0.06743009999991045,0.2,0,FastFast,17,18,Woman,Left,
19,13,1,0.7316801999986637,['n'],1,right,['0'],6,0.034287899999981164,0.1,0,FastFast,17,18,Woman,Left,
20,13,1,1.0358477999998286,['n'],0,left,['0'],6,0.0183446000010008,0.2,0,FastFast,17,18,Woman,Left,
21,13,1,0.6496919999990496,['n'],1,right,['0'],6,0.018576100001155282,0.2,0,FastFast,17,18,Woman,Left,
22,13,1,0.5667978999990737,['n'],1,right,['0'],6,0.06827640000119573,0.4,0,FastFast,17,18,Woman,Left,
23,13,1,0.5678083999991941,['n'],1,right,['0'],6,0.018111700001099962,0.2,0,FastFast,17,18,Woman,Left,
24,13,1,0.6322381000009045,['c'],1,left,['0'],6,0.08503870000095048,0.4,0,FastFast,17,18,Woman,Left,
25,13,1,0.5832020999987435,['n'],1,right,['0'],6,0.017066499998691143,0.1,0,FastFast,17,18,Woman,Left,
26,13,1,0.983530299999984,['c'],1,left,['0'],6,0.06843709999884595,0.1,0,FastFast,17,18,Woman,Left,
27,13,1,0.717945200000031,['c'],1,left,['0'],6,0.08397779999904742,0.4,0,FastFast,17,18,Woman,Left,
28,13,1,0.6507957999983773,['n'],0,left,['0'],6,0.017945700001291698,0.1,0,FastFast,17,18,Woman,Left,
29,13,1,0.7510609000000841,['c'],1,left,['0'],6,0.05017980000047828,0.4,0,FastFast,17,18,Woman,Left,
30,13,1,0.7505904999998165,['n'],0,left,['0'],6,0.0667888000007224,0.2,0,FastFast,17,18,Woman,Left,
31,13,1,0.6180844999998953,['n'],1,right,['0'],6,0.0174152999989019,0.4,0,FastFast,17,18,Woman,Left,
32,13,1,0.768971599998622,['c'],1,left,['0'],6,0.09995939999862458,0.1,0,FastFast,17,18,Woman,Left,
33,13,1,0.7497285999997985,['c'],0,right,['0'],6,0.06828990000030899,0.4,0,FastFast,17,18,Woman,Left,
34,13,1,0.7829094999997324,['c'],0,right,['0'],6,0.0514352999998664,0.4,0,FastFast,17,18,Woman,Left,
35,13,1,1.4343552999998792,['c'],1,left,['0'],6,0.05139130000134173,0.1,0,FastFast,17,18,Woman,Left,
36,13,1,0.6494979999988573,['c'],1,left,['0'],6,0.11920570000074804,0.4,0,FastFast,17,18,Woman,Left,
37,13,1,0.5330916000002617,['n'],1,right,['0'],6,0.6014538999988872,0.2,0,FastFast,17,18,Woman,Left,
38,13,1,0.9834292000014102,['n'],1,right,['0'],6,0.5179031999996369,0.1,0,FastFast,17,18,Woman,Left,
39,13,1,1.2333569000002171,['n'],1,right,['0'],6,0.04947589999937918,0.1,0,FastFast,17,18,Woman,Left,
40,13,1,1.0840146999998979,['c'],1,left,['0'],6,0.10181750000083412,0.1,0,FastFast,17,18,Woman,Left,
41,13,1,0.7172888999994029,['c'],1,left,['0'],6,0.08565640000051644,0.4,0,FastFast,17,18,Woman,Left,
42,13,1,0.9333415000000969,['n'],1,right,['0'],6,0.06811890000062704,0.2,0,FastFast,17,18,Woman,Left,
43,13,1,0.5841319999999541,['n'],1,right,['0'],6,0.5513726000008319,0.4,0,FastFast,17,18,Woman,Left,
44,13,1,0.8662738000002719,['n'],1,right,['0'],6,0.03519909999886295,0.2,0,FastFast,17,18,Woman,Left,
45,13,1,0.6839391000012256,['c'],1,left,['0'],6,0.1181629000002431,0.2,0,FastFast,17,18,Woman,Left,
46,13,1,0.7834462999999232,['n'],1,right,['0'],6,0.051449299999148934,0.4,0,FastFast,17,18,Woman,Left,
47,13,1,0.7835921999994753,['n'],1,right,['0'],6,0.6029498000007152,0.4,0,FastFast,17,18,Woman,Left,
48,13,1,0.8989892000008695,['c'],1,left,['0'],6,0.13602860000173678,0.2,0,FastFast,17,18,Woman,Left,
49,13,1,0.6836385000005976,['n'],1,right,['0'],6,0.5016517999993084,0.2,0,FastFast,17,18,Woman,Left,
50,13,1,0.6498745999997482,['c'],1,left,['0'],6,0.08480539999982284,0.2,0,FastFast,17,18,Woman,Left,
51,13,1,0.8505451000000903,['n'],1,right,['0'],6,0.08392060000005586,0.2,0,FastFast,17,18,Woman,Left,
52,13,1,1.0845040000003792,['n'],1,right,['0'],6,0.03419430000030843,0.1,0,FastFast,17,18,Woman,Left,
53,13,1,0.8333313999992242,['n'],1,right,['0'],6,0.051601099999970756,0.4,0,FastFast,17,18,Woman,Left,
54,13,1,0.8845172999990609,['n'],1,right,['0'],6,0.06624939999892376,0.2,0,FastFast,17,18,Woman,Left,
55,13,1,0.8165174000005209,['c'],1,left,['0'],6,0.11857930000041961,0.2,0,FastFast,17,18,Woman,Left,
56,13,1,0.6830871000001935,['n'],1,right,['0'],6,0.017910399999891524,0.2,0,FastFast,17,18,Woman,Left,
57,13,1,0.950282400001015,['c'],1,left,['0'],6,0.10100249999959487,0.2,0,FastFast,17,18,Woman,Left,
58,13,1,0.7004375999986223,['n'],0,left,['0'],6,0.03488900000047579,0.1,0,FastFast,17,18,Woman,Left,
59,13,1,0.6513487000011082,['c'],1,left,['0'],6,0.08475910000015574,0.4,0,FastFast,17,18,Woman,Left,
0,14,1,1.7674136999994516,['n'],1,right,['0'],6,0.5176040000005742,0.1,0,AccFast,17,18,Woman,Left,
1,14,1,0.9328067999995255,['n'],1,right,['0'],6,0.7515430999992532,0.2,0,AccFast,17,18,Woman,Left,
2,14,1,1.2338789999994333,['c'],1,left,['0'],6,0.06803129999934754,0.2,0,AccFast,17,18,Woman,Left,
3,14,1,0.7339707000010094,['n'],1,right,['0'],6,0.4849551999996038,0.2,0,AccFast,17,18,Woman,Left,
4,14,1,1.066291099999944,['c'],0,right,['0'],6,0.08528730000034557,0.2,0,AccFast,17,18,Woman,Left,
5,14,1,0.7010685000004742,['c'],1,left,['0'],6,0.0837413999997807,0.4,0,AccFast,17,18,Woman,Left,
6,14,1,0.7171478000000207,['n'],1,right,['0'],6,0.033121200000095996,0.1,0,AccFast,17,18,Woman,Left,
7,14,1,0.6511895000003278,['n'],1,right,['0'],6,0.03456639999967592,0.4,0,AccFast,17,18,Woman,Left,
8,14,1,0.783982200000537,['n'],1,right,['0'],6,0.06801880000057281,0.1,0,AccFast,17,18,Woman,Left,
9,14,1,0.7336400000003778,['n'],1,right,['0'],6,0.033752999999705935,0.4,0,AccFast,17,18,Woman,Left,
10,14,1,0.6494631999994454,['c'],1,left,['0'],6,0.06826949999958742,0.4,0,AccFast,17,18,Woman,Left,
11,14,1,0.8658980000000156,['c'],1,left,['0'],6,0.08437400000002526,0.1,0,AccFast,17,18,Woman,Left,
12,14,1,0.6675420999999915,['n'],1,right,['0'],6,0.6167261999999027,0.2,0,AccFast,17,18,Woman,Left,
13,14,1,1.16800719999992,['n'],1,right,['0'],6,0.03483270000106131,0.1,0,AccFast,17,18,Woman,Left,
14,14,1,0.9671061999997619,['c'],1,left,['0'],6,0.06826919999912207,0.1,0,AccFast,17,18,Woman,Left,
15,14,1,0.7328916000005847,['n'],1,right,['0'],6,0.017818799999076873,0.2,0,AccFast,17,18,Woman,Left,
16,14,1,0.8679744000000937,['c'],1,left,['0'],6,0.05196249999971769,0.2,0,AccFast,17,18,Woman,Left,
17,14,1,0.7504688000008173,['n'],0,left,['0'],6,0.01805899999999383,0.2,0,AccFast,17,18,Woman,Left,
18,14,1,0.817106500000591,['n'],1,right,['0'],6,0.0666365000015503,0.2,0,AccFast,17,18,Woman,Left,
19,14,1,0.6661668999986432,['c'],1,left,['0'],6,0.0846942999996827,0.4,0,AccFast,17,18,Woman,Left,
20,14,1,0.7177683999998408,['c'],1,left,['0'],6,0.05107299999872339,0.4,0,AccFast,17,18,Woman,Left,
21,14,1,0.8494814000005135,['n'],1,right,['0'],6,0.03449010000076669,0.4,0,AccFast,17,18,Woman,Left,
22,14,1,1.4826847000003909,['c'],1,left,['0'],6,0.06826999999975669,0.1,0,AccFast,17,18,Woman,Left,
23,14,1,0.9514301999988675,['c'],1,left,['0'],6,0.05125469999984489,0.2,0,AccFast,17,18,Woman,Left,
24,14,1,0.7666031999997358,['c'],1,left,['0'],6,0.034260999998878106,0.4,0,AccFast,17,18,Woman,Left,
25,14,1,0.7505278999997245,['n'],0,left,['0'],6,0.08506870000019262,0.1,0,AccFast,17,18,Woman,Left,
26,14,1,0.8004039999996166,['n'],1,right,['0'],6,0.05154640000000654,0.1,0,AccFast,17,18,Woman,Left,
27,14,1,0.5840169999992213,['n'],1,right,['0'],6,0.0178992000001017,0.4,0,AccFast,17,18,Woman,Left,
28,14,1,1.0838334999989456,['c'],0,right,['0'],6,0.06611309999971127,0.1,0,AccFast,17,18,Woman,Left,
29,14,1,0.6853843000008055,['c'],1,left,['0'],6,0.08467709999968065,0.1,0,AccFast,17,18,Woman,Left,
30,14,1,1.3841228999990562,['n'],0,left,['0'],6,0.051538800000344054,0.1,0,AccFast,17,18,Woman,Left,
31,14,1,0.8170324000002438,['c'],1,left,['0'],6,0.08324910000010277,0.2,0,AccFast,17,18,Woman,Left,
32,14,1,0.6847615000006044,['n'],1,right,['0'],6,0.01713010000094073,0.2,0,AccFast,17,18,Woman,Left,
33,14,1,0.8505697999989934,['n'],1,right,['0'],6,0.03472409999994852,0.2,0,AccFast,17,18,Woman,Left,
34,14,1,0.6659161000006861,['c'],1,left,['0'],6,0.06883670000024722,0.4,0,AccFast,17,18,Woman,Left,
35,14,1,0.5507268000001204,['n'],1,right,['0'],6,0.5682741000000533,0.2,0,AccFast,17,18,Woman,Left,
36,14,1,1.266483600000356,['c'],1,left,['0'],6,0.10152150000067195,0.1,0,AccFast,17,18,Woman,Left,
37,14,1,0.8511923999994906,['c'],1,left,['0'],6,0.06818240000029618,0.2,0,AccFast,17,18,Woman,Left,
38,14,1,0.7326569999986532,['c'],1,left,['0'],6,0.035330700000486104,0.4,0,AccFast,17,18,Woman,Left,
39,14,1,0.6680673999999271,['n'],1,right,['0'],6,0.13483170000108657,0.1,0,AccFast,17,18,Woman,Left,
40,14,1,0.6831361000004108,['c'],1,left,['0'],6,0.06765739999900688,0.1,0,AccFast,17,18,Woman,Left,
41,14,1,0.6003054000011616,['n'],1,right,['0'],6,0.49945819999993546,0.4,0,AccFast,17,18,Woman,Left,
42,14,1,1.3347897000003286,['c'],1,left,['0'],6,0.0848335999999108,0.2,0,AccFast,17,18,Woman,Left,
43,14,1,0.6180032000011124,['n'],1,right,['0'],6,0.018149100000300677,0.1,0,AccFast,17,18,Woman,Left,
44,14,1,0.7334510000000591,['c'],1,left,['0'],6,0.035188099998777034,0.2,0,AccFast,17,18,Woman,Left,
45,14,1,0.6506915999998455,['n'],1,right,['0'],6,0.01879170000029262,0.2,0,AccFast,17,18,Woman,Left,
46,14,1,0.7500956000003498,['c'],1,left,['0'],6,0.05057029999989027,0.4,0,AccFast,17,18,Woman,Left,
47,14,1,0.6176270999985718,['n'],1,right,['0'],6,0.5509911999997712,0.4,0,AccFast,17,18,Woman,Left,
48,14,1,0.7328148000015062,['n'],1,right,['0'],6,0.05133960000057414,0.4,0,AccFast,17,18,Woman,Left,
49,14,1,0.6342348999987735,['c'],1,left,['0'],6,0.10170010000001639,0.4,0,AccFast,17,18,Woman,Left,
50,14,1,1.1335073000009288,['n'],1,right,['0'],6,0.5844963999988977,0.1,0,AccFast,17,18,Woman,Left,
51,14,1,0.6522769999992306,['c'],1,left,['0'],6,0.0676543000008678,0.4,0,AccFast,17,18,Woman,Left,
52,14,1,0.7991335000006075,['n'],1,right,['0'],6,0.06882150000092224,0.4,0,AccFast,17,18,Woman,Left,
53,14,1,0.6490665999990597,['c'],1,left,['0'],6,0.06743479999931878,0.2,0,AccFast,17,18,Woman,Left,
54,14,1,1.0997102000001178,['n'],1,right,['0'],6,0.6183182000004308,0.1,0,AccFast,17,18,Woman,Left,
55,14,1,0.6676871999989089,['n'],1,right,['0'],6,0.034716000000116765,0.4,0,AccFast,17,18,Woman,Left,
56,14,1,1.1330620999997336,['c'],1,left,['0'],6,0.08315309999852616,0.2,0,AccFast,17,18,Woman,Left,
57,14,1,1.0347958999991533,['n'],0,left,['0'],6,0.03485900000123365,0.1,0,AccFast,17,18,Woman,Left,
58,14,1,0.750420700000177,['c'],1,left,['0'],6,0.06668449999961013,0.4,0,AccFast,17,18,Woman,Left,
59,14,1,1.0164932999996381,['n'],1,right,['0'],6,0.5525041000000783,0.1,0,AccFast,17,18,Woman,Left,
0,15,1,1.1511211000015464,['c'],1,left,['0'],6,0.10100620000048366,0.2,0,AccAcc,17,18,Woman,Left,
1,15,1,1.4834993000004033,['c'],1,left,['0'],6,0.06672280000020692,0.2,0,AccAcc,17,18,Woman,Left,
2,15,1,0.6665780999992421,['n'],1,right,['0'],6,0.03422059999866178,0.4,0,AccAcc,17,18,Woman,Left,
3,15,1,0.8348408999991079,['n'],1,right,['0'],6,0.05094660000031581,0.4,0,AccAcc,17,18,Woman,Left,
4,15,1,0.9830712000002677,['c'],1,left,['0'],6,0.08548680000058084,0.1,0,AccAcc,17,18,Woman,Left,
5,15,1,1.0816310000009253,['c'],1,left,['0'],6,0.05138660000011441,0.1,0,AccAcc,17,18,Woman,Left,
6,15,1,0.884141800001089,['n'],1,right,['0'],6,0.017946199999641976,0.1,0,AccAcc,17,18,Woman,Left,
7,15,1,1.102351899999121,['c'],1,left,['0'],6,0.05133810000006633,0.2,0,AccAcc,17,18,Woman,Left,
8,15,1,0.7504170000011072,['c'],1,left,['0'],6,0.05141890000049898,0.4,0,AccAcc,17,18,Woman,Left,
9,15,1,0.8826346999994712,['n'],1,right,['0'],6,0.018536100000346778,0.4,0,AccAcc,17,18,Woman,Left,
10,15,1,0.7833467000000383,['c'],1,left,['0'],6,0.06713109999873268,0.2,0,AccAcc,17,18,Woman,Left,
11,15,1,0.7503545999989001,['n'],1,right,['0'],6,0.018060799999148003,0.4,0,AccAcc,17,18,Woman,Left,
12,15,1,1.7508032999994612,['c'],0,right,['0'],6,0.03462549999858311,0.1,0,AccAcc,17,18,Woman,Left,
13,15,1,1.2177026999997906,['c'],1,left,['0'],6,0.051618699999380624,0.1,0,AccAcc,17,18,Woman,Left,
14,15,1,0.7670870999991166,['c'],1,left,['0'],6,0.06666199999926903,0.2,0,AccAcc,17,18,Woman,Left,
15,15,1,0.8505963999996311,['c'],1,left,['0'],6,0.050943199999892386,0.1,0,AccAcc,17,18,Woman,Left,
16,15,1,0.9998861000003672,['c'],0,right,['0'],6,0.05191529999865452,0.1,0,AccAcc,17,18,Woman,Left,
17,15,1,0.832671099999061,['c'],1,left,['0'],6,0.03487899999890942,0.4,0,AccAcc,17,18,Woman,Left,
18,15,1,0.7326646999990771,['n'],1,right,['0'],6,0.11899300000004587,0.4,0,AccAcc,17,18,Woman,Left,
19,15,1,0.8492378999999346,['c'],1,left,['0'],6,0.08519619999970018,0.1,0,AccAcc,17,18,Woman,Left,
20,15,1,1.0503499000005831,['n'],1,right,['0'],6,0.033991899999819,0.2,0,AccAcc,17,18,Woman,Left,
21,15,1,0.6166589000004024,['n'],1,right,['0'],6,0.017609499998798128,0.1,0,AccAcc,17,18,Woman,Left,
22,15,1,0.6180043999993359,['n'],1,right,['0'],6,0.6000884000004589,0.4,0,AccAcc,17,18,Woman,Left,
23,15,1,1.051051099999313,['c'],0,right,['0'],6,0.08390200000030745,0.2,0,AccAcc,17,18,Woman,Left,
24,15,1,1.0173470999998244,['c'],1,left,['0'],6,0.06826539999929082,0.1,0,AccAcc,17,18,Woman,Left,
25,15,1,0.7003903000004357,['n'],1,right,['0'],6,0.03310630000123638,0.2,0,AccAcc,17,18,Woman,Left,
26,15,1,0.7184300000008079,['n'],1,right,['0'],6,0.034399199999825214,0.2,0,AccAcc,17,18,Woman,Left,
27,15,1,0.6679183000014746,['c'],1,left,['0'],6,0.05127050000010058,0.4,0,AccAcc,17,18,Woman,Left,
28,15,1,0.7992787000002863,['c'],1,left,['0'],6,0.05175779999990482,0.4,0,AccAcc,17,18,Woman,Left,
29,15,1,1.9513090000000375,['c'],0,right,['0'],6,0.05128030000014405,0.1,0,AccAcc,17,18,Woman,Left,
30,15,1,0.6165416999992885,['n'],1,right,['0'],6,0.06809250000151224,0.4,0,AccAcc,17,18,Woman,Left,
31,15,1,0.66822030000003,['n'],1,right,['0'],6,0.033390300000974094,0.4,0,AccAcc,17,18,Woman,Left,
32,15,1,0.732478899999478,['c'],0,right,['0'],6,0.10155269999995653,0.1,0,AccAcc,17,18,Woman,Left,
33,15,1,1.2693251999990025,['c'],1,left,['0'],6,0.05155139999988023,0.1,0,AccAcc,17,18,Woman,Left,
34,15,1,0.7338067999990017,['c'],1,left,['0'],6,0.08487580000110029,0.1,0,AccAcc,17,18,Woman,Left,
35,15,1,0.6993354000005638,['n'],1,right,['0'],6,0.01853330000085407,0.4,0,AccAcc,17,18,Woman,Left,
36,15,1,0.9009044000013091,['c'],0,right,['0'],6,0.08472140000048967,0.2,0,AccAcc,17,18,Woman,Left,
37,15,1,0.7334172999999282,['c'],1,left,['0'],6,0.08398400000078254,0.2,0,AccAcc,17,18,Woman,Left,
38,15,1,0.6660045999997237,['n'],1,right,['0'],6,0.018803799999659532,0.2,0,AccAcc,17,18,Woman,Left,
39,15,1,0.9823270000015327,['c'],1,left,['0'],6,0.06815400000050431,0.2,0,AccAcc,17,18,Woman,Left,
40,15,1,1.017159699998956,['c'],1,left,['0'],6,0.08484700000008161,0.2,0,AccAcc,17,18,Woman,Left,
41,15,1,0.8510776999992231,['c'],1,left,['0'],6,0.06799609999870881,0.1,0,AccAcc,17,18,Woman,Left,
42,15,1,0.7150442000001931,['c'],1,left,['0'],6,0.050476399999752175,0.2,0,AccAcc,17,18,Woman,Left,
43,15,1,0.9015239000000292,['c'],1,left,['0'],6,0.08353400000123656,0.2,0,AccAcc,17,18,Woman,Left,
44,15,1,0.7190035000003263,['c'],1,left,['0'],6,0.06675039999936416,0.1,0,AccAcc,17,18,Woman,Left,
45,15,1,0.9174320000001899,['n'],1,right,['0'],6,0.1189239000013913,0.1,0,AccAcc,17,18,Woman,Left,
46,15,1,1.2839064999989205,['n'],1,right,['0'],6,0.03480429999945045,0.4,0,AccAcc,17,18,Woman,Left,
47,15,1,0.7333078000010573,['n'],1,right,['0'],6,0.5671122999992804,0.4,0,AccAcc,17,18,Woman,Left,
48,15,1,0.8669582000002265,['c'],1,left,['0'],6,0.11807909999879485,0.1,0,AccAcc,17,18,Woman,Left,
49,15,1,0.7006403000013961,['c'],1,left,['0'],6,0.08321539999997185,0.4,0,AccAcc,17,18,Woman,Left,
50,15,1,0.8845971999999165,['c'],1,left,['0'],6,0.0503642999992735,0.2,0,AccAcc,17,18,Woman,Left,
51,15,1,1.0322873999994044,['n'],1,right,['0'],6,0.6358478999991348,0.1,0,AccAcc,17,18,Woman,Left,
52,15,1,0.7330742000012833,['n'],1,right,['0'],6,0.5189515000001848,0.4,0,AccAcc,17,18,Woman,Left,
53,15,1,1.0169662999996945,['c'],0,right,['0'],6,0.06676180000067689,0.1,0,AccAcc,17,18,Woman,Left,
54,15,1,0.8830108000001928,['c'],0,right,['0'],6,0.08369750000019849,0.2,0,AccAcc,17,18,Woman,Left,
55,15,1,0.8838519000000815,['n'],1,right,['0'],6,0.05124480000085896,0.2,0,AccAcc,17,18,Woman,Left,
56,15,1,0.6838597000005393,['c'],1,left,['0'],6,0.05165740000120422,0.4,0,AccAcc,17,18,Woman,Left,
57,15,1,0.7670151999991504,['c'],1,left,['0'],6,0.11809270000048855,0.4,0,AccAcc,17,18,Woman,Left,
58,15,1,0.6993930999997247,['c'],1,left,['0'],6,0.11829829999987851,0.4,0,AccAcc,17,18,Woman,Left,
59,15,1,0.9493366000006063,['n'],1,right,['0'],6,0.06908149999981106,0.2,0,AccAcc,17,18,Woman,Left,
