withinblocktrial,block,block_repetition,rt,resp,cor,cresp,conf_press,cj,rtconf,coherence,metacognition,slow_trial,manipulation,sub,age,gender,handedness,
0,1,1,1.3841675000001032,['c'],1,left,none,-99,-99,0.5,-99,0,none,40,18,Woman,Right,
1,1,1,0.6652630999999474,['n'],1,right,none,-99,-99,0.5,-99,0,none,40,18,Woman,Right,
2,1,1,0.6667144000000462,['n'],1,right,none,-99,-99,0.5,-99,0,none,40,18,Woman,Right,
3,1,1,0.6168890000001284,['n'],1,right,none,-99,-99,0.5,-99,0,none,40,18,Woman,Right,
4,1,1,0.6663862000000336,['c'],1,left,none,-99,-99,0.5,-99,0,none,40,18,Woman,Right,
5,1,1,0.7169095000001562,['c'],1,left,none,-99,-99,0.5,-99,0,none,40,18,Woman,Right,
6,1,1,0.8164632999998958,['n'],0,left,none,-99,-99,0.5,-99,0,none,40,18,Woman,Right,
7,1,1,0.5998583999999028,['n'],1,right,none,-99,-99,0.5,-99,0,none,40,18,Woman,Right,
8,1,1,0.5496508999999605,['c'],1,left,none,-99,-99,0.5,-99,0,none,40,18,Woman,Right,
9,1,1,0.7163440000001629,['c'],1,left,none,-99,-99,0.5,-99,0,none,40,18,Woman,Right,
10,1,1,0.9492669000001115,['c'],1,left,none,-99,-99,0.5,-99,0,none,40,18,Woman,Right,
11,1,1,0.7332239999998365,['n'],1,right,none,-99,-99,0.5,-99,0,none,40,18,Woman,Right,
12,1,1,0.6996764000000439,['n'],1,right,none,-99,-99,0.5,-99,0,none,40,18,Woman,Right,
13,1,1,0.7835116999999627,['c'],1,left,none,-99,-99,0.5,-99,0,none,40,18,Woman,Right,
14,1,1,1.0165690999999697,['c'],1,left,none,-99,-99,0.5,-99,0,none,40,18,Woman,Right,
15,1,1,0.6829751000000215,['c'],1,left,none,-99,-99,0.5,-99,0,none,40,18,Woman,Right,
16,1,1,0.7336020999998709,['n'],1,right,none,-99,-99,0.5,-99,0,none,40,18,Woman,Right,
17,1,1,0.6165112999999565,['c'],1,left,none,-99,-99,0.5,-99,0,none,40,18,Woman,Right,
18,1,1,0.7664021000000503,['n'],1,right,none,-99,-99,0.5,-99,0,none,40,18,Woman,Right,
19,1,1,0.8996086000001924,['c'],1,left,none,-99,-99,0.5,-99,0,none,40,18,Woman,Right,
20,1,1,0.6161197999999786,['n'],1,right,none,-99,-99,0.5,-99,0,none,40,18,Woman,Right,
21,1,1,0.7334384000000682,['n'],1,right,none,-99,-99,0.5,-99,0,none,40,18,Woman,Right,
22,1,1,0.8660326000001533,['n'],1,right,none,-99,-99,0.5,-99,0,none,40,18,Woman,Right,
23,1,1,1.2666016999999101,['n'],1,right,none,-99,-99,0.5,-99,0,none,40,18,Woman,Right,
0,2,1,0.7668919000000187,['n'],1,right,none,-99,-99,0.1,-99,0,none,40,18,Woman,Right,
1,2,1,0.9496810000000551,['n'],1,right,none,-99,-99,0.1,-99,0,none,40,18,Woman,Right,
2,2,1,0.8504594999999426,['c'],1,left,none,-99,-99,0.2,-99,0,none,40,18,Woman,Right,
3,2,1,0.5832663000001048,['n'],1,right,none,-99,-99,0.4,-99,0,none,40,18,Woman,Right,
4,2,1,0.7004562999998143,['n'],1,right,none,-99,-99,0.2,-99,0,none,40,18,Woman,Right,
5,2,1,0.8503391000001557,['n'],0,left,none,-99,-99,0.1,-99,0,none,40,18,Woman,Right,
6,2,1,0.7334990000001653,['n'],0,left,none,-99,-99,0.1,-99,0,none,40,18,Woman,Right,
7,2,1,0.6000914000001103,['n'],1,right,none,-99,-99,0.2,-99,0,none,40,18,Woman,Right,
8,2,1,1.2502120999999988,['c'],0,right,none,-99,-99,0.2,-99,0,none,40,18,Woman,Right,
9,2,1,0.8994588000000476,['n'],1,right,none,-99,-99,0.4,-99,0,none,40,18,Woman,Right,
10,2,1,0.7332294999998794,['c'],1,left,none,-99,-99,0.1,-99,0,none,40,18,Woman,Right,
11,2,1,0.6836524000000281,['c'],1,left,none,-99,-99,0.1,-99,0,none,40,18,Woman,Right,
12,2,1,0.7499887999999828,['c'],1,left,none,-99,-99,0.4,-99,0,none,40,18,Woman,Right,
13,2,1,0.8332780999999159,['c'],1,left,none,-99,-99,0.4,-99,0,none,40,18,Woman,Right,
14,2,1,0.8502275000000736,['n'],1,right,none,-99,-99,0.2,-99,0,none,40,18,Woman,Right,
15,2,1,1.433282599999984,['c'],0,right,none,-99,-99,0.2,-99,0,none,40,18,Woman,Right,
16,2,1,0.8491328000000067,['c'],1,left,none,-99,-99,0.1,-99,0,none,40,18,Woman,Right,
17,2,1,0.8499188999999205,['n'],1,right,none,-99,-99,0.4,-99,0,none,40,18,Woman,Right,
18,2,1,2.299455600000101,['n'],1,right,none,-99,-99,0.2,-99,0,none,40,18,Woman,Right,
19,2,1,0.8332872000000862,['c'],1,left,none,-99,-99,0.4,-99,0,none,40,18,Woman,Right,
20,2,1,0.8506069999998545,['c'],1,left,none,-99,-99,0.4,-99,0,none,40,18,Woman,Right,
21,2,1,0.7808585999998741,['n'],1,right,none,-99,-99,0.1,-99,0,none,40,18,Woman,Right,
22,2,1,0.84812090000014,['c'],1,left,none,-99,-99,0.4,-99,0,none,40,18,Woman,Right,
23,2,1,1.0640786999999818,['n'],0,left,none,-99,-99,0.2,-99,0,none,40,18,Woman,Right,
0,3,1,0.8326162999999269,['c'],0,right,['e'],1,1.440853500000003,0.2,0,0,none,40,18,Woman,Right,
1,3,1,1.5988497000000734,['c'],1,left,['u'],0,3.021799500000043,0.1,0,0,none,40,18,Woman,Right,
2,3,1,0.9165440000001581,['c'],1,left,['e'],1,1.0784298999999464,0.2,1,0,none,40,18,Woman,Right,
3,3,1,2.4322168999999576,['c'],0,right,['e'],1,1.1524975999998333,0.2,0,0,none,40,18,Woman,Right,
4,3,1,1.6493705000000318,['n'],1,right,['u'],0,1.0144341000000168,0.2,0,0,none,40,18,Woman,Right,
5,3,1,3.8158781999998155,['c'],1,left,['u'],0,1.003305199999886,0.1,0,0,none,40,18,Woman,Right,
6,3,1,0.8835940000001301,['c'],1,left,['e'],1,0.653790699999945,0.4,1,0,none,40,18,Woman,Right,
7,3,1,2.5651530999998613,['n'],1,right,['u'],0,1.2835219000000961,0.1,0,0,none,40,18,Woman,Right,
8,3,1,0.8166830999998638,['c'],1,left,['e'],1,0.8054050999999163,0.2,1,0,none,40,18,Woman,Right,
9,3,1,0.8334604000001491,['c'],1,left,['e'],1,0.9458514999998897,0.4,1,0,none,40,18,Woman,Right,
10,3,1,0.8329096999998455,['n'],1,right,['e'],1,0.6729944000001069,0.4,1,0,none,40,18,Woman,Right,
11,3,1,1.9994285000000218,['n'],1,right,['u'],0,1.1084404000000632,0.1,0,0,none,40,18,Woman,Right,
12,3,1,0.899671299999909,['n'],1,right,['e'],1,0.554575499999828,0.2,1,0,none,40,18,Woman,Right,
13,3,1,5.016056700000036,x,-99,left,none,-99,-99,0.1,-99,1,none,40,18,Woman,Right,
14,3,1,0.7314449999998942,['n'],1,right,['e'],1,0.8831073999999717,0.4,1,0,none,40,18,Woman,Right,
15,3,1,0.7824762000000192,['c'],1,left,['e'],1,0.8140921000001526,0.2,1,0,none,40,18,Woman,Right,
16,3,1,1.098740800000087,['n'],1,right,['u'],0,0.9598664000000099,0.2,0,0,none,40,18,Woman,Right,
17,3,1,0.965433399999938,['n'],1,right,['e'],1,0.5211584000001039,0.1,1,0,none,40,18,Woman,Right,
18,3,1,1.449474999999893,['n'],0,left,['u'],0,0.9124493000001621,0.1,1,0,none,40,18,Woman,Right,
19,3,1,0.8495797000000493,['n'],1,right,['e'],1,1.0486349000000246,0.4,1,0,none,40,18,Woman,Right,
20,3,1,0.7498855999999705,['c'],1,left,['e'],1,0.5425404999998591,0.4,1,0,none,40,18,Woman,Right,
21,3,1,0.7161257000000205,['n'],1,right,['e'],1,0.4024790999999368,0.4,1,0,none,40,18,Woman,Right,
22,3,1,0.9660718000000088,['c'],1,left,['e'],1,0.40196319999995467,0.4,1,0,none,40,18,Woman,Right,
23,3,1,1.2495483999998669,['c'],1,left,['u'],0,1.597965400000021,0.1,0,0,none,40,18,Woman,Right,
0,4,1,0.8495107000001099,['c'],1,left,['e'],1,1.1997097999999369,0.4,1,0,AccFast,40,18,Woman,Right,
1,4,1,0.8161536000000069,['n'],1,right,['e'],1,0.7446853000001283,0.2,1,0,AccFast,40,18,Woman,Right,
2,4,1,1.4329084999999395,['c'],1,left,['u'],0,2.2441286999999193,0.2,0,0,AccFast,40,18,Woman,Right,
3,4,1,1.1160621999999876,['n'],1,right,['u'],0,1.6160749999999098,0.2,0,0,AccFast,40,18,Woman,Right,
4,4,1,1.632351299999982,['c'],0,right,['u'],0,0.9200521000000208,0.1,1,0,AccFast,40,18,Woman,Right,
5,4,1,0.8327975999998216,['c'],1,left,['e'],1,0.3799119000000246,0.4,1,0,AccFast,40,18,Woman,Right,
6,4,1,1.5164600999999038,['n'],1,right,['e'],1,0.5226846000000478,0.4,1,0,AccFast,40,18,Woman,Right,
7,4,1,2.048225400000092,['c'],1,left,['u'],0,0.7902776000000813,0.1,0,0,AccFast,40,18,Woman,Right,
8,4,1,1.5830737999999656,['n'],0,left,['u'],0,0.44124089999991156,0.1,1,0,AccFast,40,18,Woman,Right,
9,4,1,1.166939000000184,['c'],1,left,['e'],1,0.3235930000000735,0.2,1,0,AccFast,40,18,Woman,Right,
10,4,1,1.0667488999999932,['n'],1,right,['e'],1,0.2541949999999815,0.2,1,0,AccFast,40,18,Woman,Right,
11,4,1,1.3818708000001152,['c'],0,right,['u'],0,0.2310359000000517,0.1,1,0,AccFast,40,18,Woman,Right,
12,4,1,1.2661734999999226,['n'],0,left,['u'],0,0.3086170999999922,0.2,1,0,AccFast,40,18,Woman,Right,
13,4,1,1.3163337000000865,['n'],1,right,['u'],0,0.3582954000000882,0.1,0,0,AccFast,40,18,Woman,Right,
14,4,1,1.2815670999998474,['n'],1,right,['e'],1,0.5430257999998958,0.1,1,0,AccFast,40,18,Woman,Right,
15,4,1,1.0497279000001072,['n'],1,right,['e'],1,0.32969839999987016,0.4,1,0,AccFast,40,18,Woman,Right,
16,4,1,2.9157374999999774,['n'],1,right,['e'],1,0.3621729999999843,0.2,1,0,AccFast,40,18,Woman,Right,
17,4,1,1.3335071000001335,['c'],1,left,['u'],0,0.40149859999996806,0.2,0,0,AccFast,40,18,Woman,Right,
18,4,1,1.016324299999951,['n'],1,right,['e'],1,0.241993599999887,0.4,1,0,AccFast,40,18,Woman,Right,
19,4,1,0.8997302000000218,['c'],1,left,['e'],1,0.7746890000000803,0.4,1,0,AccFast,40,18,Woman,Right,
20,4,1,1.2169369000000643,['c'],1,left,['e'],1,0.26540870000008,0.1,1,0,AccFast,40,18,Woman,Right,
21,4,1,0.8160029999999097,['n'],1,right,['e'],1,0.23204919999989215,0.2,1,0,AccFast,40,18,Woman,Right,
22,4,1,1.5168179999998301,['c'],1,left,['u'],0,0.3479807000001074,0.1,0,0,AccFast,40,18,Woman,Right,
23,4,1,1.0670479000000341,['c'],1,left,['e'],1,0.30129699999997683,0.4,1,0,AccFast,40,18,Woman,Right,
24,4,1,0.9159286999999949,['n'],1,right,['e'],1,0.15873819999978878,0.4,1,0,AccFast,40,18,Woman,Right,
25,4,1,0.8991060000000743,['n'],1,right,['e'],1,0.26280960000008236,0.4,1,0,AccFast,40,18,Woman,Right,
26,4,1,1.183005200000025,['n'],1,right,['e'],1,0.21544599999992897,0.4,1,0,AccFast,40,18,Woman,Right,
27,4,1,1.5837992000001577,['c'],1,left,['u'],0,0.2412773000000925,0.1,0,0,AccFast,40,18,Woman,Right,
28,4,1,2.299290400000018,['c'],0,right,['u'],0,0.28639380000004167,0.1,1,0,AccFast,40,18,Woman,Right,
29,4,1,0.8001275999999962,['n'],1,right,['e'],1,0.21288149999986672,0.4,1,0,AccFast,40,18,Woman,Right,
30,4,1,2.04974900000002,['n'],0,left,['u'],0,0.3009302000000389,0.1,1,0,AccFast,40,18,Woman,Right,
31,4,1,0.9667457000000468,['n'],1,right,['u'],0,0.30801259999998365,0.2,0,0,AccFast,40,18,Woman,Right,
32,4,1,1.066926599999988,['c'],1,left,['e'],1,0.29589020000003075,0.4,1,0,AccFast,40,18,Woman,Right,
33,4,1,1.3336242000000311,['c'],0,right,['u'],0,0.2968116000001828,0.1,1,0,AccFast,40,18,Woman,Right,
34,4,1,3.132085499999903,['c'],1,left,['u'],0,0.36951969999995526,0.2,0,0,AccFast,40,18,Woman,Right,
35,4,1,2.534436800000094,['n'],1,right,['u'],0,0.6795125000001008,0.1,0,0,AccFast,40,18,Woman,Right,
36,4,1,2.3826293000001897,['c'],1,left,['u'],0,0.48677599999996346,0.1,0,0,AccFast,40,18,Woman,Right,
37,4,1,2.649642599999879,['n'],1,right,['u'],0,0.5074906999998348,0.2,0,0,AccFast,40,18,Woman,Right,
38,4,1,0.7830119000000195,['n'],1,right,['e'],1,0.29806459999986146,0.4,1,0,AccFast,40,18,Woman,Right,
39,4,1,0.9836450000000241,['c'],1,left,['e'],1,0.31273159999977906,0.1,1,0,AccFast,40,18,Woman,Right,
40,4,1,1.2662407000000258,['c'],1,left,['u'],0,0.260142599999881,0.1,0,0,AccFast,40,18,Woman,Right,
41,4,1,1.0158088999999109,['n'],1,right,['u'],0,0.31573630000002595,0.2,0,0,AccFast,40,18,Woman,Right,
42,4,1,1.932850900000176,['n'],1,right,['e'],1,0.30741679999982807,0.2,1,0,AccFast,40,18,Woman,Right,
43,4,1,0.9163085000000137,['c'],1,left,['e'],1,0.30890240000007907,0.4,1,0,AccFast,40,18,Woman,Right,
44,4,1,1.7663522000000285,['n'],1,right,['u'],0,0.5321564999999282,0.1,0,0,AccFast,40,18,Woman,Right,
45,4,1,1.2164469000001645,['c'],1,left,['e'],1,0.336232500000051,0.2,1,0,AccFast,40,18,Woman,Right,
46,4,1,0.7833405000001221,['n'],1,right,['e'],1,0.24549679999995533,0.2,1,0,AccFast,40,18,Woman,Right,
47,4,1,3.983082700000068,['n'],0,left,['u'],0,0.5749459000001025,0.2,1,0,AccFast,40,18,Woman,Right,
48,4,1,1.8833773000001202,['c'],1,left,['u'],0,0.2632280999998784,0.2,0,0,AccFast,40,18,Woman,Right,
49,4,1,1.6172394999998687,['n'],1,right,['e'],1,0.4218439999999646,0.4,1,0,AccFast,40,18,Woman,Right,
50,4,1,1.2333644000000277,['c'],1,left,['u'],0,0.27727329999993344,0.2,0,0,AccFast,40,18,Woman,Right,
51,4,1,4.299195099999906,['n'],0,left,['u'],0,0.40112699999986035,0.1,1,0,AccFast,40,18,Woman,Right,
52,4,1,3.8496853999999985,['c'],1,left,['e'],1,0.4250465999998596,0.1,1,0,AccFast,40,18,Woman,Right,
53,4,1,1.1164135999999871,['n'],1,right,['e'],1,0.34167379999985314,0.4,1,0,AccFast,40,18,Woman,Right,
54,4,1,1.4326512000000093,['c'],1,left,['e'],1,0.34510850000015125,0.4,1,0,AccFast,40,18,Woman,Right,
55,4,1,2.5168605999999727,['c'],1,left,['u'],0,0.2570393000000877,0.2,0,0,AccFast,40,18,Woman,Right,
56,4,1,0.8496869000000515,['n'],1,right,['e'],1,0.16699969999990572,0.1,1,0,AccFast,40,18,Woman,Right,
57,4,1,1.4334847000000082,['n'],0,left,['e'],1,0.6250168999999914,0.4,0,0,AccFast,40,18,Woman,Right,
58,4,1,0.8333213999999316,['c'],1,left,['e'],1,0.3607646000000386,0.4,1,0,AccFast,40,18,Woman,Right,
59,4,1,0.7003299999998944,['n'],1,right,['e'],1,0.2408952999999201,0.4,1,0,AccFast,40,18,Woman,Right,
0,5,1,1.5168350999999802,['n'],1,right,['e'],1,1.0195117000000664,0.2,1,0,AccAcc,40,18,Woman,Right,
1,5,1,0.9830236000000241,['n'],1,right,['e'],1,0.42161609999993743,0.2,1,0,AccAcc,40,18,Woman,Right,
2,5,1,2.216446200000064,['c'],1,left,['e'],1,1.5184664000000794,0.4,1,0,AccAcc,40,18,Woman,Right,
3,5,1,1.1824980999999752,['n'],1,right,['e'],1,1.076346699999931,0.4,1,0,AccAcc,40,18,Woman,Right,
4,5,1,0.816074700000172,['n'],1,right,['e'],1,0.62693030000014,0.4,1,0,AccAcc,40,18,Woman,Right,
5,5,1,1.6816452000000481,['c'],1,left,['u'],0,1.4729331000000911,0.2,0,0,AccAcc,40,18,Woman,Right,
6,5,1,2.3495433000000503,['n'],1,right,['u'],0,0.8751525000000129,0.1,0,0,AccAcc,40,18,Woman,Right,
7,5,1,5.016174899999896,x,-99,left,none,-99,-99,0.1,-99,1,AccAcc,40,18,Woman,Right,
8,5,1,1.2476630999999543,['c'],1,left,['e'],1,1.137018800000078,0.1,1,0,AccAcc,40,18,Woman,Right,
9,5,1,1.3827504999999292,['n'],1,right,['e'],1,0.5183142999999291,0.2,1,0,AccAcc,40,18,Woman,Right,
10,5,1,0.9829429999999775,['n'],1,right,['e'],1,0.6204726999999366,0.4,1,0,AccAcc,40,18,Woman,Right,
11,5,1,2.3330901999997877,['c'],0,right,['u'],0,1.080576999999721,0.2,1,0,AccAcc,40,18,Woman,Right,
12,5,1,1.850060200000371,['c'],1,left,['e'],1,1.4129511999999522,0.2,1,0,AccAcc,40,18,Woman,Right,
13,5,1,1.7992166999997607,['c'],1,left,['e'],1,1.4150509000000966,0.1,1,0,AccAcc,40,18,Woman,Right,
14,5,1,2.2317846000000827,['c'],1,left,['u'],0,1.007084500000019,0.2,0,0,AccAcc,40,18,Woman,Right,
15,5,1,1.7502281000001858,['n'],1,right,['e'],1,1.027040500000112,0.4,1,0,AccAcc,40,18,Woman,Right,
16,5,1,1.3171261000002232,['n'],1,right,['e'],1,1.176131599999735,0.4,1,0,AccAcc,40,18,Woman,Right,
17,5,1,2.199524399999973,['n'],1,right,['e'],1,0.8751431999999113,0.2,1,0,AccAcc,40,18,Woman,Right,
18,5,1,2.8991462999997566,['n'],1,right,['u'],0,0.7183445999999094,0.2,0,0,AccAcc,40,18,Woman,Right,
19,5,1,1.6832848999997623,['c'],1,left,['e'],1,0.7602956999999151,0.4,1,0,AccAcc,40,18,Woman,Right,
20,5,1,2.7165171000001465,['c'],1,left,['u'],0,1.503658799999812,0.2,0,0,AccAcc,40,18,Woman,Right,
21,5,1,1.7664792000000489,['n'],1,right,['u'],0,0.6150876000001517,0.1,0,0,AccAcc,40,18,Woman,Right,
22,5,1,1.0999124999998457,['c'],1,left,['e'],1,0.9325435999999172,0.4,1,0,AccAcc,40,18,Woman,Right,
23,5,1,3.3328584000000774,['n'],1,right,['u'],0,0.932220099999995,0.1,0,0,AccAcc,40,18,Woman,Right,
24,5,1,1.3647690000002513,['c'],1,left,['u'],0,1.2819908000001305,0.2,0,0,AccAcc,40,18,Woman,Right,
25,5,1,1.0821333000003506,['n'],1,right,['e'],1,0.7891435999999885,0.4,1,0,AccAcc,40,18,Woman,Right,
26,5,1,2.133273200000076,['n'],1,right,['e'],1,0.7066265000003114,0.2,1,0,AccAcc,40,18,Woman,Right,
27,5,1,1.8498084000002564,['c'],1,left,['e'],1,1.6545568999999887,0.1,1,0,AccAcc,40,18,Woman,Right,
28,5,1,1.3500403999996706,['n'],1,right,['e'],1,1.048346600000059,0.4,1,0,AccAcc,40,18,Woman,Right,
29,5,1,3.316218800000115,['c'],1,left,['u'],0,2.1077728000000207,0.4,0,0,AccAcc,40,18,Woman,Right,
30,5,1,1.6492310999997244,['n'],1,right,['e'],1,1.9758132000001751,0.2,1,0,AccAcc,40,18,Woman,Right,
31,5,1,2.832982500000071,['n'],1,right,['u'],0,0.8260660000000826,0.1,0,0,AccAcc,40,18,Woman,Right,
32,5,1,3.1167586999999912,['n'],1,right,['e'],1,1.534512900000209,0.4,1,0,AccAcc,40,18,Woman,Right,
33,5,1,2.1326663999998345,['n'],1,right,['u'],0,1.629754299999604,0.1,0,0,AccAcc,40,18,Woman,Right,
34,5,1,1.2661200000002282,['c'],1,left,['e'],1,1.028398500000094,0.1,1,0,AccAcc,40,18,Woman,Right,
35,5,1,3.6661416000001736,['n'],0,left,['e'],1,0.9312119000001076,0.1,0,0,AccAcc,40,18,Woman,Right,
36,5,1,2.98329270000022,['c'],1,left,['e'],1,1.2325215999999273,0.4,1,0,AccAcc,40,18,Woman,Right,
37,5,1,3.2826734000000215,['c'],1,left,['e'],1,1.3419401999999536,0.4,1,0,AccAcc,40,18,Woman,Right,
38,5,1,3.5665495999996892,['c'],1,left,['e'],1,1.0119048000001385,0.1,1,0,AccAcc,40,18,Woman,Right,
39,5,1,5.016013100000237,x,-99,right,none,-99,-99,0.2,-99,1,AccAcc,40,18,Woman,Right,
40,5,1,2.1973791999998866,['c'],1,left,['u'],0,0.6390826000001653,0.2,0,0,AccAcc,40,18,Woman,Right,
41,5,1,1.1994040999998106,['n'],1,right,['e'],1,0.5600333000002138,0.4,1,0,AccAcc,40,18,Woman,Right,
42,5,1,0.9998608000000786,['n'],1,right,['e'],1,0.6278329000001577,0.4,1,0,AccAcc,40,18,Woman,Right,
43,5,1,0.982970000000023,['c'],1,left,['e'],1,0.7499011999998402,0.4,1,0,AccAcc,40,18,Woman,Right,
44,5,1,1.4323131000001013,['c'],0,right,['u'],0,0.5528448000000026,0.1,1,0,AccAcc,40,18,Woman,Right,
45,5,1,2.182300899999973,['c'],1,left,['e'],1,1.0852541999997811,0.4,1,0,AccAcc,40,18,Woman,Right,
46,5,1,2.5325614999997015,['n'],0,left,['u'],0,0.5505133000001479,0.1,1,0,AccAcc,40,18,Woman,Right,
47,5,1,2.3494675000001735,['n'],0,left,['u'],0,0.7728209000001698,0.2,1,0,AccAcc,40,18,Woman,Right,
48,5,1,1.1499416999999994,['n'],1,right,['e'],1,1.2100270999999339,0.4,1,0,AccAcc,40,18,Woman,Right,
49,5,1,1.5158335999999508,['c'],1,left,['e'],1,0.9913173999998435,0.2,1,0,AccAcc,40,18,Woman,Right,
50,5,1,1.4491671999999198,['c'],1,left,['e'],1,1.112089300000207,0.4,1,0,AccAcc,40,18,Woman,Right,
51,5,1,3.3662936000000627,['n'],0,left,['u'],0,1.2391763000000537,0.2,1,0,AccAcc,40,18,Woman,Right,
52,5,1,1.9162750000000415,['n'],1,right,['u'],0,1.067167000000154,0.2,0,0,AccAcc,40,18,Woman,Right,
53,5,1,2.8833810000000994,['c'],1,left,['u'],0,1.8392177999999149,0.1,0,0,AccAcc,40,18,Woman,Right,
54,5,1,2.4659394999998767,['n'],0,left,['u'],0,0.6052494000000479,0.2,1,0,AccAcc,40,18,Woman,Right,
55,5,1,2.5828824999998687,['c'],1,left,['u'],0,0.6711719999998422,0.1,0,0,AccAcc,40,18,Woman,Right,
56,5,1,1.7487025999998878,['c'],1,left,['u'],0,0.5451183000000128,0.1,0,0,AccAcc,40,18,Woman,Right,
57,5,1,1.8331286999996337,['n'],1,right,['u'],0,1.436537000000044,0.1,0,0,AccAcc,40,18,Woman,Right,
58,5,1,3.648567500000354,['n'],1,right,['u'],0,0.6913630999997622,0.1,0,0,AccAcc,40,18,Woman,Right,
59,5,1,3.482995700000174,['c'],0,right,['u'],0,1.198518199999853,0.1,1,0,AccAcc,40,18,Woman,Right,
0,6,1,0.7666098999998212,['n'],1,right,['e'],1,2.584270999999717,0.1,1,0,FastAcc,40,18,Woman,Right,
1,6,1,0.6656650999998419,['c'],1,left,['e'],1,1.9604094999999688,0.1,1,0,FastAcc,40,18,Woman,Right,
2,6,1,0.7495877000001201,['c'],0,right,['u'],0,1.84620810000024,0.1,1,0,FastAcc,40,18,Woman,Right,
3,6,1,0.6499838999998246,['c'],1,left,['e'],1,0.9966500999998971,0.4,1,0,FastAcc,40,18,Woman,Right,
4,6,1,0.8161859000001641,['n'],1,right,['e'],1,1.0861220000001595,0.4,1,0,FastAcc,40,18,Woman,Right,
5,6,1,1.3502302000001691,['n'],1,right,['e'],1,2.118804600000203,0.4,1,0,FastAcc,40,18,Woman,Right,
6,6,1,0.8497218000002249,['c'],1,left,['e'],1,3.0501569000002746,0.1,1,0,FastAcc,40,18,Woman,Right,
7,6,1,0.8828622000000905,['n'],1,right,['u'],0,2.070809300000292,0.2,0,0,FastAcc,40,18,Woman,Right,
8,6,1,0.9655699999998433,['c'],1,left,['e'],1,0.8632761999997456,0.1,1,0,FastAcc,40,18,Woman,Right,
9,6,1,0.9990421999996215,['c'],1,left,['e'],1,1.1276578999995763,0.4,1,0,FastAcc,40,18,Woman,Right,
10,6,1,1.3337309000003188,['n'],1,right,['u'],0,2.351389200000085,0.1,0,0,FastAcc,40,18,Woman,Right,
11,6,1,1.0331146999997145,['c'],1,left,['u'],0,1.354004100000111,0.2,0,0,FastAcc,40,18,Woman,Right,
12,6,1,0.6995787999999266,['c'],1,left,['e'],1,1.186015899999802,0.4,1,0,FastAcc,40,18,Woman,Right,
13,6,1,0.6832928999997421,['n'],1,right,['u'],0,1.3932451999999103,0.1,0,0,FastAcc,40,18,Woman,Right,
14,6,1,0.6159959999999955,['n'],1,right,['e'],1,0.9953755999999885,0.4,1,0,FastAcc,40,18,Woman,Right,
15,6,1,0.7162060000000565,['c'],1,left,['e'],1,0.9532540000000154,0.2,1,0,FastAcc,40,18,Woman,Right,
16,6,1,0.7662582000002658,['n'],1,right,['e'],1,1.6871894000000793,0.2,1,0,FastAcc,40,18,Woman,Right,
17,6,1,1.3828906000003371,['n'],1,right,['u'],0,1.2304290999995828,0.2,0,0,FastAcc,40,18,Woman,Right,
18,6,1,0.8479268999999476,['n'],1,right,['e'],1,1.1407535000003008,0.4,1,0,FastAcc,40,18,Woman,Right,
19,6,1,0.566265200000089,['c'],1,left,['e'],1,1.3945871000000807,0.4,1,0,FastAcc,40,18,Woman,Right,
20,6,1,1.0161739000000125,['c'],1,left,['u'],0,1.492642700000033,0.2,0,0,FastAcc,40,18,Woman,Right,
21,6,1,0.6833424999999806,['n'],1,right,['e'],1,1.4399984000001496,0.4,1,0,FastAcc,40,18,Woman,Right,
22,6,1,1.1001157999999123,['c'],1,left,['u'],0,3.101024300000063,0.4,0,0,FastAcc,40,18,Woman,Right,
23,6,1,0.6832627000003413,['n'],0,left,['u'],0,2.079499499999656,0.1,1,0,FastAcc,40,18,Woman,Right,
24,6,1,0.582226399999854,['c'],1,left,['e'],1,1.7267558000003191,0.4,1,0,FastAcc,40,18,Woman,Right,
25,6,1,1.065956500000084,['c'],1,left,['e'],1,1.2813138999999865,0.4,1,0,FastAcc,40,18,Woman,Right,
26,6,1,1.700868299999911,['n'],0,left,['u'],0,1.0525449000001572,0.2,1,0,FastAcc,40,18,Woman,Right,
27,6,1,1.315787900000032,['n'],1,right,['u'],0,0.9836244000002807,0.1,0,0,FastAcc,40,18,Woman,Right,
28,6,1,0.6500790999998571,['n'],1,right,['e'],1,1.3520391000001837,0.4,1,0,FastAcc,40,18,Woman,Right,
29,6,1,0.8166786000001593,['n'],1,right,['e'],1,1.6595024999996895,0.4,1,0,FastAcc,40,18,Woman,Right,
30,6,1,1.766081100000065,['n'],1,right,['u'],0,1.644892400000117,0.2,0,0,FastAcc,40,18,Woman,Right,
31,6,1,2.7657953000002635,['n'],0,left,['u'],0,1.2146794000000227,0.1,1,0,FastAcc,40,18,Woman,Right,
32,6,1,0.599420900000041,['c'],1,left,['e'],1,1.3362200999999914,0.4,1,0,FastAcc,40,18,Woman,Right,
33,6,1,0.9497995000001538,['n'],1,right,['u'],0,1.1188434999999117,0.1,0,0,FastAcc,40,18,Woman,Right,
34,6,1,1.2995614000001297,['n'],1,right,['u'],0,0.6801617000000988,0.1,0,0,FastAcc,40,18,Woman,Right,
35,6,1,1.667111499999919,['c'],1,left,['u'],0,1.3080315999995946,0.1,0,0,FastAcc,40,18,Woman,Right,
36,6,1,1.3828520000001845,['c'],1,left,['u'],0,0.7544768000002477,0.2,0,0,FastAcc,40,18,Woman,Right,
37,6,1,2.1995696999997563,['n'],0,left,['u'],0,0.6067396999997072,0.1,1,0,FastAcc,40,18,Woman,Right,
38,6,1,1.9163204999999834,['n'],0,left,['u'],0,1.2122355000001335,0.1,1,0,FastAcc,40,18,Woman,Right,
39,6,1,1.0329228000000512,['c'],1,left,['e'],1,0.9173011999996561,0.4,1,0,FastAcc,40,18,Woman,Right,
40,6,1,1.049158499999976,['c'],1,left,['e'],1,1.4401554999999462,0.2,1,0,FastAcc,40,18,Woman,Right,
41,6,1,1.1659616000001733,['n'],1,right,['e'],1,1.2821226000000934,0.2,1,0,FastAcc,40,18,Woman,Right,
42,6,1,1.2005847999998878,['c'],1,left,['u'],0,3.4171829000001708,0.2,0,0,FastAcc,40,18,Woman,Right,
43,6,1,0.9327736000000186,['n'],1,right,['e'],1,0.580873999999767,0.4,1,0,FastAcc,40,18,Woman,Right,
44,6,1,0.699674700000287,['c'],1,left,['e'],1,1.2595753000000514,0.4,1,0,FastAcc,40,18,Woman,Right,
45,6,1,0.7830236999998306,['n'],1,right,['e'],1,0.9324507000001176,0.2,1,0,FastAcc,40,18,Woman,Right,
46,6,1,1.8832069000000047,['c'],1,left,['u'],0,0.6294935000000805,0.2,0,0,FastAcc,40,18,Woman,Right,
47,6,1,2.14872349999996,['n'],1,right,['u'],0,0.6568670999999995,0.1,0,0,FastAcc,40,18,Woman,Right,
48,6,1,0.7331386000000748,['n'],1,right,['e'],1,1.307611199999883,0.2,1,0,FastAcc,40,18,Woman,Right,
49,6,1,1.0494129999997313,['n'],1,right,['u'],0,1.7516850000001796,0.1,0,0,FastAcc,40,18,Woman,Right,
50,6,1,0.7330840999998145,['n'],1,right,['e'],1,1.4061257000003025,0.2,1,0,FastAcc,40,18,Woman,Right,
51,6,1,1.5665015999998104,['n'],1,right,['u'],0,1.0336559000002126,0.1,0,0,FastAcc,40,18,Woman,Right,
52,6,1,0.616192299999966,['c'],1,left,['e'],1,1.2174571999998989,0.4,1,0,FastAcc,40,18,Woman,Right,
53,6,1,0.7320028000003731,['n'],0,left,['u'],0,1.4698584000002484,0.4,1,0,FastAcc,40,18,Woman,Right,
54,6,1,0.8331702999998924,['c'],1,left,['u'],0,0.6033980000001975,0.2,0,0,FastAcc,40,18,Woman,Right,
55,6,1,0.5999544999999671,['n'],1,right,['e'],1,0.6854324999999335,0.2,1,0,FastAcc,40,18,Woman,Right,
56,6,1,0.8504167000000962,['n'],1,right,['e'],1,0.7222037999999884,0.2,1,0,FastAcc,40,18,Woman,Right,
57,6,1,1.4825513000000683,['c'],1,left,['u'],0,0.5085282999998526,0.1,0,0,FastAcc,40,18,Woman,Right,
58,6,1,1.3494332999998733,['n'],1,right,['u'],0,1.6362272000001212,0.1,0,0,FastAcc,40,18,Woman,Right,
59,6,1,1.2828194999997322,['n'],1,right,['u'],0,0.4817331999997805,0.2,0,0,FastAcc,40,18,Woman,Right,
0,7,1,0.5161108000002059,['n'],1,right,['e'],1,0.45492160000003423,0.4,1,0,FastFast,40,18,Woman,Right,
1,7,1,0.8169189000000188,['n'],1,right,['u'],0,0.5425639000000047,0.1,0,0,FastFast,40,18,Woman,Right,
2,7,1,0.8830752999997458,['n'],0,left,['u'],0,0.35159539999995104,0.1,1,0,FastFast,40,18,Woman,Right,
3,7,1,0.5161583000003702,['n'],0,left,['u'],0,0.3989372999999432,0.1,1,0,FastFast,40,18,Woman,Right,
4,7,1,1.0831936000004134,['n'],0,left,['u'],0,0.3494838000001437,0.1,1,0,FastFast,40,18,Woman,Right,
5,7,1,0.532112700000198,['n'],1,right,['u'],0,0.4123580000000402,0.2,0,0,FastFast,40,18,Woman,Right,
6,7,1,1.0165640000000167,['n'],1,right,['e'],1,0.44556580000016766,0.2,1,0,FastFast,40,18,Woman,Right,
7,7,1,0.732927699999891,['c'],1,left,['u'],0,0.5128305999996883,0.2,0,0,FastFast,40,18,Woman,Right,
8,7,1,1.8167374999998174,['c'],1,left,['u'],0,0.2303924000002553,0.1,0,0,FastFast,40,18,Woman,Right,
9,7,1,1.132959800000208,['n'],1,right,['u'],0,0.39428640000005544,0.2,0,0,FastFast,40,18,Woman,Right,
10,7,1,1.033264700000018,['n'],0,left,['u'],0,0.3954653999999209,0.1,1,0,FastFast,40,18,Woman,Right,
11,7,1,0.999537700000019,['c'],1,left,['u'],0,0.4623767000002772,0.1,0,0,FastFast,40,18,Woman,Right,
12,7,1,1.1495467999998255,['n'],1,right,['e'],1,0.5209045000001424,0.1,1,0,FastFast,40,18,Woman,Right,
13,7,1,1.1658809999998994,['c'],1,left,['u'],0,0.38316030000032697,0.1,0,0,FastFast,40,18,Woman,Right,
14,7,1,1.5004008999999314,['n'],0,left,['u'],0,0.41352520000009463,0.1,1,0,FastFast,40,18,Woman,Right,
15,7,1,0.6996005000000878,['n'],1,right,['e'],1,0.4672112000002926,0.1,1,0,FastFast,40,18,Woman,Right,
16,7,1,0.7666242999998758,['c'],1,left,['e'],1,0.5084010999999009,0.4,1,0,FastFast,40,18,Woman,Right,
17,7,1,0.949393500000042,['n'],1,right,['e'],1,0.7167170000002443,0.2,1,0,FastFast,40,18,Woman,Right,
18,7,1,0.6498665999997684,['c'],1,left,['e'],1,0.41554550000000745,0.4,1,0,FastFast,40,18,Woman,Right,
19,7,1,0.8497990999999274,['c'],1,left,['e'],1,0.5270215000000462,0.1,1,0,FastFast,40,18,Woman,Right,
20,7,1,0.7326592999997956,['n'],1,right,['e'],1,0.31892740000012054,0.2,1,0,FastFast,40,18,Woman,Right,
21,7,1,1.316311499999756,['n'],1,right,['e'],1,0.5356372999999621,0.2,1,0,FastFast,40,18,Woman,Right,
22,7,1,1.0154583999997158,['c'],1,left,['u'],0,0.29189139999971303,0.2,0,0,FastFast,40,18,Woman,Right,
23,7,1,0.6662080999999489,['n'],1,right,['u'],0,0.26370829999996204,0.4,0,0,FastFast,40,18,Woman,Right,
24,7,1,1.883294300000216,['c'],1,left,['u'],0,0.4356895999999324,0.1,0,0,FastFast,40,18,Woman,Right,
25,7,1,0.8994269999998323,['n'],1,right,['e'],1,0.30474960000037754,0.4,1,0,FastFast,40,18,Woman,Right,
26,7,1,1.1659952999998495,['n'],1,right,['e'],1,0.3598956000000726,0.1,1,0,FastFast,40,18,Woman,Right,
27,7,1,0.7340716999997312,['c'],1,left,['e'],1,0.3826304000003802,0.4,1,0,FastFast,40,18,Woman,Right,
28,7,1,1.0497463000001517,['n'],1,right,['e'],1,0.9430580999996891,0.2,1,0,FastFast,40,18,Woman,Right,
29,7,1,0.6990045000002283,['c'],1,left,['e'],1,0.311763400000018,0.4,1,0,FastFast,40,18,Woman,Right,
30,7,1,0.9999917000000096,['n'],1,right,['e'],1,0.25371949999998833,0.2,1,0,FastFast,40,18,Woman,Right,
31,7,1,0.9495928000001186,['c'],1,left,['u'],0,0.2794877000001179,0.2,0,0,FastFast,40,18,Woman,Right,
32,7,1,0.6664476000000832,['n'],1,right,['e'],1,0.5562396000000263,0.2,1,0,FastFast,40,18,Woman,Right,
33,7,1,1.4826282999997602,['n'],1,right,['e'],1,1.0693545999997696,0.1,1,0,FastFast,40,18,Woman,Right,
34,7,1,0.5497490000002472,['n'],1,right,['e'],1,0.2942657000003237,0.4,1,0,FastFast,40,18,Woman,Right,
35,7,1,0.6499987000001965,['c'],1,left,['e'],1,0.22685459999956947,0.4,1,0,FastFast,40,18,Woman,Right,
36,7,1,0.6326054999999542,['c'],1,left,['e'],1,0.26719409999986965,0.4,1,0,FastFast,40,18,Woman,Right,
37,7,1,1.3161881000000903,['c'],1,left,['u'],0,0.5016820000000735,0.1,0,0,FastFast,40,18,Woman,Right,
38,7,1,0.73311109999986,['c'],1,left,['e'],1,0.27064030000019557,0.2,1,0,FastFast,40,18,Woman,Right,
39,7,1,0.6336655999998584,['n'],1,right,['e'],1,0.29246280000006664,0.1,1,0,FastFast,40,18,Woman,Right,
40,7,1,1.2338638999999603,['c'],1,left,['u'],0,0.5534443000001374,0.2,0,0,FastFast,40,18,Woman,Right,
41,7,1,1.0325902999998107,['c'],1,left,['e'],1,0.7323793000000478,0.4,1,0,FastFast,40,18,Woman,Right,
42,7,1,0.6165009999999711,['c'],1,left,['e'],1,0.36835459999974773,0.2,1,0,FastFast,40,18,Woman,Right,
43,7,1,0.849361300000055,['n'],1,right,['e'],1,0.2898002000001725,0.1,1,0,FastFast,40,18,Woman,Right,
44,7,1,0.7156862000001638,['n'],1,right,['e'],1,0.36362340000005133,0.4,1,0,FastFast,40,18,Woman,Right,
45,7,1,0.8324554999999236,['n'],1,right,['e'],1,0.3266887999998289,0.1,1,0,FastFast,40,18,Woman,Right,
46,7,1,0.7161747999998624,['n'],1,right,['e'],1,0.2951568000003135,0.2,1,0,FastFast,40,18,Woman,Right,
47,7,1,0.6167414999999892,['n'],1,right,['e'],1,0.31710270000030505,0.4,1,0,FastFast,40,18,Woman,Right,
48,7,1,2.282690399999865,['c'],0,right,['u'],0,0.7111562000000049,0.4,1,0,FastFast,40,18,Woman,Right,
49,7,1,0.6164248000000043,['c'],1,left,['e'],1,0.48437749999993684,0.4,1,0,FastFast,40,18,Woman,Right,
50,7,1,0.5831018999997468,['n'],1,right,['e'],1,0.29202989999976126,0.4,1,0,FastFast,40,18,Woman,Right,
51,7,1,1.3822314999997616,['c'],0,right,['u'],0,0.3629439999999704,0.2,1,0,FastFast,40,18,Woman,Right,
52,7,1,0.7825389000004179,['n'],1,right,['u'],0,0.5121303999999327,0.2,0,0,FastFast,40,18,Woman,Right,
53,7,1,0.7159252999999808,['n'],0,left,['u'],0,0.34503780000022743,0.1,1,0,FastFast,40,18,Woman,Right,
54,7,1,0.7328221000002486,['n'],1,right,['e'],1,0.29660409999996773,0.4,1,0,FastFast,40,18,Woman,Right,
55,7,1,1.4995866999997816,['c'],0,right,['u'],0,0.3543901000002734,0.4,1,0,FastFast,40,18,Woman,Right,
56,7,1,0.8331119000004037,['c'],1,left,['e'],1,0.35691750000023603,0.4,1,0,FastFast,40,18,Woman,Right,
57,7,1,0.8661415000001398,['c'],1,left,['e'],1,0.7347819000001437,0.4,1,0,FastFast,40,18,Woman,Right,
58,7,1,1.3496617999999216,['c'],1,left,['u'],0,0.18103190000010727,0.2,0,0,FastFast,40,18,Woman,Right,
59,7,1,2.149115800000345,['c'],1,left,['u'],0,0.32193409999990763,0.2,0,0,FastFast,40,18,Woman,Right,
0,8,1,1.1501033999998072,['n'],1,right,['e'],1,0.6656728000002659,0.4,1,0,AccFast,40,18,Woman,Right,
1,8,1,0.8659714000000349,['c'],1,left,['e'],1,0.36668839999992997,0.4,1,0,AccFast,40,18,Woman,Right,
2,8,1,1.6997203999999329,['c'],0,right,['u'],0,0.3181438999999955,0.2,1,0,AccFast,40,18,Woman,Right,
3,8,1,1.7828047000002698,['c'],1,left,['e'],1,0.5557057999999415,0.1,1,0,AccFast,40,18,Woman,Right,
4,8,1,1.7669456000003265,['n'],0,left,['u'],0,0.1771838000004209,0.2,1,0,AccFast,40,18,Woman,Right,
5,8,1,1.3498023000001922,['c'],0,right,['u'],0,0.3503685000000587,0.2,1,0,AccFast,40,18,Woman,Right,
6,8,1,1.5995331999997688,['c'],1,left,['u'],0,0.23456540000006498,0.2,0,0,AccFast,40,18,Woman,Right,
7,8,1,0.8500506999998834,['c'],1,left,['e'],1,0.2170866000001297,0.4,1,0,AccFast,40,18,Woman,Right,
8,8,1,1.2834928000002037,['c'],0,right,['u'],0,0.1990086999999221,0.1,1,0,AccFast,40,18,Woman,Right,
9,8,1,1.53336870000021,['c'],1,left,['u'],0,0.2997546000001421,0.1,0,0,AccFast,40,18,Woman,Right,
10,8,1,0.7498624999998356,['c'],1,left,['e'],1,0.2516803000003165,0.4,1,0,AccFast,40,18,Woman,Right,
11,8,1,1.0161987000001318,['n'],0,left,['u'],0,0.29107509999994363,0.1,1,0,AccFast,40,18,Woman,Right,
12,8,1,1.1992811999998594,['n'],1,right,['e'],1,0.25803940000014336,0.1,1,0,AccFast,40,18,Woman,Right,
13,8,1,0.7329523999997036,['n'],1,right,['e'],1,0.3084123999997246,0.2,1,0,AccFast,40,18,Woman,Right,
14,8,1,1.0833866000002672,['c'],1,left,['e'],1,0.2393165999997109,0.4,1,0,AccFast,40,18,Woman,Right,
15,8,1,1.6321713000002092,['n'],1,right,['u'],0,0.7664907999997013,0.1,0,0,AccFast,40,18,Woman,Right,
16,8,1,1.5667201999999634,['n'],1,right,['u'],0,0.3393940000000839,0.1,0,0,AccFast,40,18,Woman,Right,
17,8,1,0.7505565999999817,['n'],1,right,['u'],0,0.3537700000001678,0.4,0,0,AccFast,40,18,Woman,Right,
18,8,1,0.7829244999998082,['n'],1,right,['e'],1,0.2783492999997179,0.4,1,0,AccFast,40,18,Woman,Right,
19,8,1,0.9495731000001797,['n'],1,right,['e'],1,0.27967149999994945,0.2,1,0,AccFast,40,18,Woman,Right,
20,8,1,1.616649999999936,['n'],1,right,['e'],1,0.6543657000001986,0.2,1,0,AccFast,40,18,Woman,Right,
21,8,1,0.9660994999999275,['c'],1,left,['e'],1,0.2476738000000296,0.2,1,0,AccFast,40,18,Woman,Right,
22,8,1,1.0996119000001272,['n'],1,right,['u'],0,0.22011720000000423,0.2,0,0,AccFast,40,18,Woman,Right,
23,8,1,1.1831099000000904,['c'],0,right,['e'],1,0.3020822000003136,0.1,0,0,AccFast,40,18,Woman,Right,
24,8,1,1.7997043000000303,['n'],0,left,['u'],0,0.4517921000001479,0.1,1,0,AccFast,40,18,Woman,Right,
25,8,1,0.9160624000001008,['c'],1,left,['e'],1,0.21562579999999798,0.2,1,0,AccFast,40,18,Woman,Right,
26,8,1,1.3826919000002817,['n'],1,right,['u'],0,0.19356150000021444,0.1,0,0,AccFast,40,18,Woman,Right,
27,8,1,1.8663195000003725,['n'],0,left,['u'],0,0.1294253999999455,0.2,1,0,AccFast,40,18,Woman,Right,
28,8,1,2.383041300000059,['n'],1,right,['u'],0,0.21503459999985353,0.2,0,0,AccFast,40,18,Woman,Right,
29,8,1,0.9995828000000984,['n'],1,right,['u'],0,0.1363734999999906,0.1,0,0,AccFast,40,18,Woman,Right,
30,8,1,0.5831095000003188,['c'],1,left,['e'],1,0.1742423000000599,0.4,1,0,AccFast,40,18,Woman,Right,
31,8,1,1.0165403999999398,['c'],1,left,['u'],0,0.12871399999994537,0.1,0,0,AccFast,40,18,Woman,Right,
32,8,1,0.9663735000003726,['n'],1,right,['e'],1,0.19923090000020238,0.2,1,0,AccFast,40,18,Woman,Right,
33,8,1,1.700308799999675,['n'],0,left,['u'],0,0.14902219999976296,0.1,1,0,AccFast,40,18,Woman,Right,
34,8,1,1.1166337999998177,['n'],1,right,['e'],1,0.14049549999981537,0.4,1,0,AccFast,40,18,Woman,Right,
35,8,1,1.0166558999999324,['c'],1,left,['e'],1,0.13657459999967614,0.1,1,0,AccFast,40,18,Woman,Right,
36,8,1,0.7834439999996903,['c'],1,left,['e'],1,0.11769850000018778,0.2,1,0,AccFast,40,18,Woman,Right,
37,8,1,1.800186599999961,['n'],0,left,['u'],0,0.043336899999758316,0.2,1,0,AccFast,40,18,Woman,Right,
38,8,1,0.8669254999999794,['c'],1,left,['e'],1,0.05732299999999668,0.4,1,0,AccFast,40,18,Woman,Right,
39,8,1,1.2662202999999863,['n'],1,right,['e'],1,0.10265100000015082,0.4,1,0,AccFast,40,18,Woman,Right,
40,8,1,0.8819031999996696,['n'],1,right,['e'],1,0.12907229999973424,0.4,1,0,AccFast,40,18,Woman,Right,
41,8,1,0.8997288999999,['n'],1,right,['e'],1,0.10676039999998466,0.4,1,0,AccFast,40,18,Woman,Right,
42,8,1,1.831886299999951,['c'],0,right,['u'],0,0.111539300000004,0.1,1,0,AccFast,40,18,Woman,Right,
43,8,1,0.7832260000000133,['n'],0,left,['e'],1,0.13433069999973668,0.4,0,0,AccFast,40,18,Woman,Right,
44,8,1,1.5335221999998794,['c'],1,left,['u'],0,0.19758210000009058,0.1,0,0,AccFast,40,18,Woman,Right,
45,8,1,0.9665152000002308,['c'],1,left,['e'],1,0.04062079999994239,0.4,1,0,AccFast,40,18,Woman,Right,
46,8,1,1.9325966000001245,['n'],1,right,['u'],0,0.09169440000005125,0.1,0,0,AccFast,40,18,Woman,Right,
47,8,1,0.9826619999998911,['n'],1,right,['u'],0,0.195352499999899,0.4,0,0,AccFast,40,18,Woman,Right,
48,8,1,1.5164989000004425,['c'],1,left,['u'],0,0.11371499999995649,0.2,0,0,AccFast,40,18,Woman,Right,
49,8,1,1.8665788999996948,['c'],1,left,['u'],0,0.30842840000013894,0.2,0,0,AccFast,40,18,Woman,Right,
50,8,1,0.8830448000003344,['c'],1,left,['e'],1,0.12722020000001066,0.4,1,0,AccFast,40,18,Woman,Right,
51,8,1,0.9328621999998177,['n'],1,right,['e'],1,0.09542289999990317,0.2,1,0,AccFast,40,18,Woman,Right,
52,8,1,0.7321384000001672,['n'],1,right,['e'],1,0.12891399999989517,0.4,1,0,AccFast,40,18,Woman,Right,
53,8,1,0.7331466000000546,['c'],1,left,['e'],1,0.15243240000017977,0.4,1,0,AccFast,40,18,Woman,Right,
54,8,1,0.882742700000108,['n'],0,left,['u'],0,0.22513969999999972,0.1,1,0,AccFast,40,18,Woman,Right,
55,8,1,1.016169699999864,['n'],1,right,['u'],0,1.049770399999943,0.1,0,0,AccFast,40,18,Woman,Right,
56,8,1,1.3492584000000534,['n'],0,left,['u'],0,0.17205009999997856,0.2,1,0,AccFast,40,18,Woman,Right,
57,8,1,1.6168092000002616,['n'],1,right,['u'],0,0.4228536999999051,0.1,0,0,AccFast,40,18,Woman,Right,
58,8,1,1.166003400000136,['c'],1,left,['u'],0,0.16965469999968263,0.2,0,0,AccFast,40,18,Woman,Right,
59,8,1,0.9331132000002071,['n'],1,right,['e'],1,0.15129990000014004,0.4,1,0,AccFast,40,18,Woman,Right,
0,9,1,0.9501768999998603,['n'],1,right,['e'],1,1.4699784999997974,0.1,1,0,AccAcc,40,18,Woman,Right,
1,9,1,1.0838168000000223,['c'],1,left,['e'],1,0.6259226000001945,0.4,1,0,AccAcc,40,18,Woman,Right,
2,9,1,0.9164409999998497,['c'],1,left,['e'],1,0.6787441999999828,0.2,1,0,AccAcc,40,18,Woman,Right,
3,9,1,0.9329965000001721,['c'],1,left,['e'],1,0.9289778000002116,0.4,1,0,AccAcc,40,18,Woman,Right,
4,9,1,0.9494758999999249,['n'],1,right,['e'],1,0.4956022999999732,0.4,1,0,AccAcc,40,18,Woman,Right,
5,9,1,1.0168405999997958,['n'],1,right,['e'],1,0.6777070000002823,0.4,1,0,AccAcc,40,18,Woman,Right,
6,9,1,1.5997059000001173,['n'],1,right,['u'],0,0.6774216999997407,0.2,0,0,AccAcc,40,18,Woman,Right,
7,9,1,1.1328699000000597,['c'],1,left,['e'],1,0.6471313000001828,0.1,1,0,AccAcc,40,18,Woman,Right,
8,9,1,1.54972269999962,['n'],1,right,['e'],1,0.6339124000000993,0.4,1,0,AccAcc,40,18,Woman,Right,
9,9,1,2.0985798000001523,['n'],0,left,['u'],0,0.6066493000002993,0.2,1,0,AccAcc,40,18,Woman,Right,
10,9,1,1.3832351000000926,['c'],1,left,['u'],0,0.4892688999998427,0.2,0,0,AccAcc,40,18,Woman,Right,
11,9,1,1.0998211000000992,['c'],1,left,['e'],1,0.8992531999997482,0.4,1,0,AccAcc,40,18,Woman,Right,
12,9,1,1.3490010000000439,['n'],0,left,['u'],0,0.3077242999997907,0.1,1,0,AccAcc,40,18,Woman,Right,
13,9,1,1.2331255999997666,['c'],1,left,['u'],0,0.6246150000001762,0.2,0,0,AccAcc,40,18,Woman,Right,
14,9,1,1.1830020999996123,['n'],1,right,['e'],1,1.3145601999999599,0.4,1,0,AccAcc,40,18,Woman,Right,
15,9,1,0.9997892999999749,['c'],1,left,['e'],1,0.3758416999999099,0.2,1,0,AccAcc,40,18,Woman,Right,
16,9,1,2.832710799999859,['n'],1,right,['e'],1,1.0822527000000264,0.4,1,0,AccAcc,40,18,Woman,Right,
17,9,1,3.733052999999927,['n'],1,right,['e'],1,0.8114623999999822,0.2,1,0,AccAcc,40,18,Woman,Right,
18,9,1,1.0175131000000874,['c'],1,left,['e'],1,0.7405779000000621,0.4,1,0,AccAcc,40,18,Woman,Right,
19,9,1,1.74970360000043,['c'],1,left,['u'],0,0.5395972000001166,0.1,0,0,AccAcc,40,18,Woman,Right,
20,9,1,1.5496226000000206,['c'],1,left,['e'],1,0.44995939999989787,0.2,1,0,AccAcc,40,18,Woman,Right,
21,9,1,1.2164355999998406,['c'],1,left,['e'],1,1.0093415000001187,0.1,1,0,AccAcc,40,18,Woman,Right,
22,9,1,1.3494752999999946,['c'],1,left,['e'],1,0.7973359999996319,0.2,1,0,AccAcc,40,18,Woman,Right,
23,9,1,1.5495191999998497,['n'],1,right,['u'],0,0.7052582999999686,0.2,0,0,AccAcc,40,18,Woman,Right,
24,9,1,1.033038999999917,['c'],1,left,['e'],1,0.8139964000001783,0.1,1,0,AccAcc,40,18,Woman,Right,
25,9,1,1.349844000000303,['n'],1,right,['u'],0,0.9773723999996946,0.2,0,0,AccAcc,40,18,Woman,Right,
26,9,1,3.549368200000117,['n'],1,right,['u'],0,0.7587327000001096,0.2,0,0,AccAcc,40,18,Woman,Right,
27,9,1,2.482985699999972,['n'],1,right,['u'],0,0.4232331999996859,0.2,0,0,AccAcc,40,18,Woman,Right,
28,9,1,2.4001954999998816,['n'],1,right,['e'],1,0.5932211000003917,0.4,1,0,AccAcc,40,18,Woman,Right,
29,9,1,2.2666227999998227,['c'],0,right,['u'],0,0.48043260000031296,0.1,1,0,AccAcc,40,18,Woman,Right,
30,9,1,1.149786999999833,['c'],1,left,['e'],1,0.5536056999999346,0.2,1,0,AccAcc,40,18,Woman,Right,
31,9,1,0.9664313000002949,['n'],1,right,['e'],1,0.3349296000001232,0.4,1,0,AccAcc,40,18,Woman,Right,
32,9,1,1.5167524999997113,['c'],0,right,['u'],0,0.5746921999998449,0.1,1,0,AccAcc,40,18,Woman,Right,
33,9,1,1.499865199999931,['n'],1,right,['u'],0,0.5419118999998318,0.1,0,0,AccAcc,40,18,Woman,Right,
34,9,1,1.0835151999999653,['c'],1,left,['e'],1,0.27968330000021524,0.4,1,0,AccAcc,40,18,Woman,Right,
35,9,1,1.2663954999998168,['n'],1,right,['e'],1,0.3233331999999791,0.4,1,0,AccAcc,40,18,Woman,Right,
36,9,1,1.4993979000000763,['c'],1,left,['u'],0,0.2844872000000578,0.1,0,0,AccAcc,40,18,Woman,Right,
37,9,1,1.2998807999997553,['c'],1,left,['u'],0,1.031402000000071,0.2,0,0,AccAcc,40,18,Woman,Right,
38,9,1,3.099320400000124,['c'],0,right,['u'],0,0.6360175999998319,0.1,1,0,AccAcc,40,18,Woman,Right,
39,9,1,0.8662171000000853,['c'],1,left,['e'],1,1.0500024000002668,0.4,1,0,AccAcc,40,18,Woman,Right,
40,9,1,0.8496186000002126,['c'],1,left,['e'],1,0.6319231000002219,0.4,1,0,AccAcc,40,18,Woman,Right,
41,9,1,1.633388300000206,['n'],1,right,['u'],0,0.3111899000000449,0.1,0,0,AccAcc,40,18,Woman,Right,
42,9,1,2.467291599999953,['n'],1,right,['u'],0,0.6828619000002618,0.4,0,0,AccAcc,40,18,Woman,Right,
43,9,1,0.9164813000002141,['c'],0,right,['u'],0,0.4766788000001725,0.2,1,0,AccAcc,40,18,Woman,Right,
44,9,1,2.5500082999997176,['n'],0,left,['u'],0,0.7020732999999382,0.2,1,0,AccAcc,40,18,Woman,Right,
45,9,1,1.382582100000036,['c'],1,left,['u'],0,0.5809438999999657,0.1,0,0,AccAcc,40,18,Woman,Right,
46,9,1,1.5654733999999735,['n'],1,right,['u'],0,0.5047476999998253,0.1,0,0,AccAcc,40,18,Woman,Right,
47,9,1,2.1830190999999104,['c'],1,left,['u'],0,0.5919009999997797,0.1,0,0,AccAcc,40,18,Woman,Right,
48,9,1,3.8668558999997913,['c'],1,left,['u'],0,0.6555248999998184,0.1,0,0,AccAcc,40,18,Woman,Right,
49,9,1,1.1830039999999826,['n'],1,right,['e'],1,0.4163306000000375,0.4,1,0,AccAcc,40,18,Woman,Right,
50,9,1,2.6831889999998566,['n'],1,right,['u'],0,0.5979796000001443,0.1,0,0,AccAcc,40,18,Woman,Right,
51,9,1,3.666479999999865,['n'],1,right,['u'],0,0.6053741999999147,0.4,0,0,AccAcc,40,18,Woman,Right,
52,9,1,1.2162481000000298,['c'],1,left,['e'],1,0.678741600000194,0.1,1,0,AccAcc,40,18,Woman,Right,
53,9,1,3.7003098000000136,['c'],0,right,['u'],0,0.3858901000003243,0.2,1,0,AccAcc,40,18,Woman,Right,
54,9,1,2.449295500000062,['n'],0,left,['u'],0,0.49071749999984604,0.1,1,0,AccAcc,40,18,Woman,Right,
55,9,1,0.9663941000003433,['n'],1,right,['e'],1,0.394909799999823,0.4,1,0,AccAcc,40,18,Woman,Right,
56,9,1,1.4837657999996736,['c'],1,left,['e'],1,0.5541783000003306,0.4,1,0,AccAcc,40,18,Woman,Right,
57,9,1,1.2331450000001496,['n'],1,right,['e'],1,0.4048221000002741,0.2,1,0,AccAcc,40,18,Woman,Right,
58,9,1,1.6996957999999722,['c'],1,left,['u'],0,0.2506865000000289,0.2,0,0,AccAcc,40,18,Woman,Right,
59,9,1,1.132912099999885,['n'],1,right,['u'],0,0.5256049000004168,0.1,0,0,AccAcc,40,18,Woman,Right,
0,10,1,0.5335039000001416,['n'],1,right,['e'],1,1.2277450000001409,0.2,1,0,FastAcc,40,18,Woman,Right,
1,10,1,0.6171148999997058,['c'],0,right,['u'],0,1.4444123000002946,0.1,1,0,FastAcc,40,18,Woman,Right,
2,10,1,0.38268760000028124,['n'],1,right,['e'],1,1.277270000000044,0.4,1,0,FastAcc,40,18,Woman,Right,
3,10,1,0.5824244999998882,['c'],1,left,['e'],1,1.1655643999997665,0.1,1,0,FastAcc,40,18,Woman,Right,
4,10,1,0.4829789999998866,['n'],1,right,['u'],0,2.7415555000002314,0.2,0,0,FastAcc,40,18,Woman,Right,
5,10,1,0.5996147999999266,['n'],1,right,['e'],1,0.6019295000000966,0.1,1,0,FastAcc,40,18,Woman,Right,
6,10,1,0.5494419999999991,['c'],1,left,['e'],1,0.6459939999999733,0.4,1,0,FastAcc,40,18,Woman,Right,
7,10,1,0.5830582000003233,['n'],1,right,['e'],1,1.1757861999999477,0.2,1,0,FastAcc,40,18,Woman,Right,
8,10,1,0.4991405000000668,['c'],1,left,['u'],0,1.6630411999999524,0.2,0,0,FastAcc,40,18,Woman,Right,
9,10,1,0.5161594999999579,['c'],1,left,['e'],1,0.9062158000001546,0.1,1,0,FastAcc,40,18,Woman,Right,
10,10,1,0.4829451999999037,['c'],1,left,['e'],1,1.1249087000001055,0.2,1,0,FastAcc,40,18,Woman,Right,
11,10,1,0.6664135000000897,['n'],1,right,['u'],0,1.463390999999774,0.2,0,0,FastAcc,40,18,Woman,Right,
12,10,1,0.44980130000021745,['c'],1,left,['e'],1,1.7175133000000642,0.4,1,0,FastAcc,40,18,Woman,Right,
13,10,1,0.4494894999997996,['n'],1,right,['e'],1,0.6328647999998793,0.4,1,0,FastAcc,40,18,Woman,Right,
14,10,1,0.6670192999999927,['c'],1,left,['u'],0,1.1828875999999582,0.2,0,0,FastAcc,40,18,Woman,Right,
15,10,1,0.5660613999998532,['n'],1,right,['u'],0,1.2590423999999985,0.2,0,0,FastAcc,40,18,Woman,Right,
16,10,1,0.5992728999999599,['c'],1,left,['u'],0,2.506812699999955,0.1,0,0,FastAcc,40,18,Woman,Right,
17,10,1,0.6158918999999514,['c'],1,left,['e'],1,1.0961850000003324,0.1,1,0,FastAcc,40,18,Woman,Right,
18,10,1,0.49967049999986557,['n'],1,right,['u'],0,0.8261898000000656,0.2,0,0,FastAcc,40,18,Woman,Right,
19,10,1,0.5327900000002046,['n'],1,right,['e'],1,1.4864447999998447,0.4,1,0,FastAcc,40,18,Woman,Right,
20,10,1,0.5162060000002384,['c'],1,left,['e'],1,1.1283871000000545,0.4,1,0,FastAcc,40,18,Woman,Right,
21,10,1,0.8164101999996092,['c'],1,left,['e'],1,1.5492607999999564,0.1,1,0,FastAcc,40,18,Woman,Right,
22,10,1,0.48259460000008403,['c'],1,left,['u'],0,0.8215462000002844,0.4,0,0,FastAcc,40,18,Woman,Right,
23,10,1,0.4659855999998399,['n'],1,right,['e'],1,1.2203303999999662,0.2,1,0,FastAcc,40,18,Woman,Right,
24,10,1,0.43306219999976747,['c'],0,right,['u'],0,1.2681830000001355,0.1,1,0,FastAcc,40,18,Woman,Right,
25,10,1,1.2664972000002308,['n'],1,right,['u'],0,0.7127507000000151,0.1,0,0,FastAcc,40,18,Woman,Right,
26,10,1,0.6162233999998534,['c'],0,right,['u'],0,2.062256300000172,0.2,1,0,FastAcc,40,18,Woman,Right,
27,10,1,0.4831336000002011,['n'],1,right,['e'],1,0.8107392999995682,0.4,1,0,FastAcc,40,18,Woman,Right,
28,10,1,0.6829250999999203,['n'],0,left,['u'],0,1.6337765000002946,0.1,1,0,FastAcc,40,18,Woman,Right,
29,10,1,0.46616930000027423,['n'],1,right,['e'],1,1.4635607000000164,0.4,1,0,FastAcc,40,18,Woman,Right,
30,10,1,0.46651410000004034,['n'],0,left,['u'],0,1.7890422000000399,0.2,1,0,FastAcc,40,18,Woman,Right,
31,10,1,0.6667454999997062,['n'],1,right,['e'],1,2.4128418999998757,0.4,1,0,FastAcc,40,18,Woman,Right,
32,10,1,0.6494547000002058,['n'],0,left,['u'],0,1.1329299999997602,0.4,1,0,FastAcc,40,18,Woman,Right,
33,10,1,0.5162768000000142,['n'],1,right,['e'],1,1.453015300000061,0.1,1,0,FastAcc,40,18,Woman,Right,
34,10,1,0.5838308000002144,['c'],1,left,['e'],1,1.4863618999997925,0.1,1,0,FastAcc,40,18,Woman,Right,
35,10,1,0.7493853999999374,['n'],1,right,['e'],1,0.6382384999997157,0.4,1,0,FastAcc,40,18,Woman,Right,
36,10,1,0.7828936000000795,['n'],1,right,['u'],0,1.391503300000295,0.1,0,0,FastAcc,40,18,Woman,Right,
37,10,1,0.48342790000015157,['c'],1,left,['e'],1,0.8795577999999296,0.1,1,0,FastAcc,40,18,Woman,Right,
38,10,1,0.4824676999996882,['n'],1,right,['e'],1,0.9385262999999213,0.2,1,0,FastAcc,40,18,Woman,Right,
39,10,1,1.4674395000001823,['n'],0,left,['u'],0,0.8124844000003577,0.1,1,0,FastAcc,40,18,Woman,Right,
40,10,1,0.5335237999997844,['n'],1,right,['e'],1,0.7607778999999937,0.4,1,0,FastAcc,40,18,Woman,Right,
41,10,1,1.1165172999999413,['c'],1,left,['e'],1,0.8643112999998266,0.2,1,0,FastAcc,40,18,Woman,Right,
42,10,1,0.5331083999999464,['n'],1,right,['e'],1,0.7061836000002586,0.4,1,0,FastAcc,40,18,Woman,Right,
43,10,1,0.7993801999996322,['n'],1,right,['u'],0,1.32028820000005,0.1,0,0,FastAcc,40,18,Woman,Right,
44,10,1,0.7839974000003167,['n'],0,left,['u'],0,1.2384010000000671,0.1,1,0,FastAcc,40,18,Woman,Right,
45,10,1,0.5160708000003069,['n'],1,right,['u'],0,1.130659999999807,0.2,0,0,FastAcc,40,18,Woman,Right,
46,10,1,0.6482545999997456,['c'],1,left,['e'],1,2.0530180999999175,0.4,1,0,FastAcc,40,18,Woman,Right,
47,10,1,0.7493225999996866,['n'],1,right,['e'],1,1.047456599999805,0.2,1,0,FastAcc,40,18,Woman,Right,
48,10,1,0.6488561000001027,['c'],1,left,['e'],1,1.884950900000149,0.2,1,0,FastAcc,40,18,Woman,Right,
49,10,1,0.5321288999998615,['c'],1,left,['e'],1,0.46210470000005444,0.4,1,0,FastAcc,40,18,Woman,Right,
50,10,1,1.2998429999997825,['n'],0,left,['u'],0,0.5383263000003353,0.1,1,0,FastAcc,40,18,Woman,Right,
51,10,1,0.7327500000001237,['n'],1,right,['e'],1,0.20152490000009493,0.4,1,0,FastAcc,40,18,Woman,Right,
52,10,1,0.8831829000000653,['c'],1,left,['u'],0,0.7842688000000635,0.1,0,0,FastAcc,40,18,Woman,Right,
53,10,1,0.6160700000000361,['n'],1,right,['e'],1,0.5621526999998423,0.4,1,0,FastAcc,40,18,Woman,Right,
54,10,1,0.6492778000001636,['c'],1,left,['e'],1,0.9964719000004152,0.4,1,0,FastAcc,40,18,Woman,Right,
55,10,1,0.516204099999868,['c'],1,left,['e'],1,1.0182836999997562,0.2,1,0,FastAcc,40,18,Woman,Right,
56,10,1,0.48331439999992654,['n'],1,right,['e'],1,0.8643004000000474,0.4,1,0,FastAcc,40,18,Woman,Right,
57,10,1,0.8501332999999249,['n'],0,left,['u'],0,1.1177385999999387,0.1,1,0,FastAcc,40,18,Woman,Right,
58,10,1,0.7152657999999974,['c'],1,left,['u'],0,1.206321399999979,0.2,0,0,FastAcc,40,18,Woman,Right,
59,10,1,1.3497286000001623,['c'],1,left,['u'],0,0.9144114999999147,0.2,0,0,FastAcc,40,18,Woman,Right,
0,11,1,0.7325752000001557,['n'],1,right,['e'],1,0.5082845000001726,0.4,1,0,FastFast,40,18,Woman,Right,
1,11,1,0.6329835999999887,['n'],1,right,['e'],1,0.2329226000001654,0.4,1,0,FastFast,40,18,Woman,Right,
2,11,1,0.517176500000005,['c'],1,left,['e'],1,0.32513090000020384,0.4,1,0,FastFast,40,18,Woman,Right,
3,11,1,0.4496006999997917,['c'],1,left,['u'],0,0.32867050000004383,0.2,0,0,FastFast,40,18,Woman,Right,
4,11,1,0.531999100000121,['n'],1,right,['u'],0,0.32020939999983966,0.1,0,0,FastFast,40,18,Woman,Right,
5,11,1,0.4831227999998191,['n'],1,right,['e'],1,0.22621810000009646,0.2,1,0,FastFast,40,18,Woman,Right,
6,11,1,0.5504421999999067,['n'],0,left,['u'],0,0.3255752999998549,0.2,1,0,FastFast,40,18,Woman,Right,
7,11,1,0.4333560000000034,['n'],0,left,['u'],0,0.4018621999998686,0.2,1,0,FastFast,40,18,Woman,Right,
8,11,1,0.566650700000082,['c'],1,left,['u'],0,0.3488099000001057,0.1,0,0,FastFast,40,18,Woman,Right,
9,11,1,0.3661720999998579,['n'],1,right,['e'],1,0.4983102000001054,0.4,1,0,FastFast,40,18,Woman,Right,
10,11,1,0.7831272999997054,['c'],1,left,['e'],1,0.29733429999987493,0.1,1,0,FastFast,40,18,Woman,Right,
11,11,1,0.599934200000007,['c'],1,left,['e'],1,0.2549417000000176,0.4,1,0,FastFast,40,18,Woman,Right,
12,11,1,0.49972870000010516,['n'],1,right,['e'],1,0.3148691000001236,0.4,1,0,FastFast,40,18,Woman,Right,
13,11,1,0.6829732999999578,['c'],1,left,['u'],0,0.2371939999998176,0.2,0,0,FastFast,40,18,Woman,Right,
14,11,1,0.5330602999997609,['n'],1,right,['e'],1,0.24027449999994133,0.2,1,0,FastFast,40,18,Woman,Right,
15,11,1,0.5662585000000036,['c'],1,left,['e'],1,0.12221599999975297,0.4,1,0,FastFast,40,18,Woman,Right,
16,11,1,0.6836758000004011,['c'],1,left,['u'],0,0.12440019999985452,0.2,0,0,FastFast,40,18,Woman,Right,
17,11,1,0.7164073999997527,['n'],1,right,['u'],0,0.2532930000002125,0.1,0,0,FastFast,40,18,Woman,Right,
18,11,1,0.5664071000001059,['c'],1,left,['u'],0,0.15825379999978395,0.1,0,0,FastFast,40,18,Woman,Right,
19,11,1,0.7833096999997906,['n'],1,right,['e'],1,0.15485519999992903,0.4,1,0,FastFast,40,18,Woman,Right,
20,11,1,0.6484700000000885,['n'],1,right,['e'],1,0.17285949999995864,0.2,1,0,FastFast,40,18,Woman,Right,
21,11,1,0.5993978999999854,['n'],1,right,['e'],1,0.20024170000033337,0.2,1,0,FastFast,40,18,Woman,Right,
22,11,1,0.532016300000123,['c'],1,left,['u'],0,0.28532940000013696,0.4,0,0,FastFast,40,18,Woman,Right,
23,11,1,0.6662575000000288,['n'],0,left,['u'],0,0.48902140000018335,0.1,1,0,FastFast,40,18,Woman,Right,
24,11,1,0.8664883999999802,['c'],0,right,['u'],0,0.07712380000020858,0.1,1,0,FastFast,40,18,Woman,Right,
25,11,1,0.6663982000000033,['c'],1,left,['u'],0,0.19372419999990598,0.1,0,0,FastFast,40,18,Woman,Right,
26,11,1,1.13290730000017,['n'],1,right,['u'],0,0.20722200000000157,0.2,0,0,FastFast,40,18,Woman,Right,
27,11,1,1.5829607000000578,['n'],0,left,['u'],0,0.49772500000017317,0.1,1,0,FastFast,40,18,Woman,Right,
28,11,1,0.6002174000000196,['c'],1,left,['e'],1,0.22368439999991097,0.4,1,0,FastFast,40,18,Woman,Right,
29,11,1,0.9995398000000932,['n'],0,left,['u'],0,0.11308159999998679,0.2,1,0,FastFast,40,18,Woman,Right,
30,11,1,0.550571299999774,['n'],1,right,['u'],0,0.1609957000000577,0.1,0,0,FastFast,40,18,Woman,Right,
31,11,1,0.7661900000002788,['n'],1,right,['u'],0,0.150242199999866,0.1,0,0,FastFast,40,18,Woman,Right,
32,11,1,1.0155776000001424,['c'],1,left,['u'],0,0.16190210000013394,0.2,0,0,FastFast,40,18,Woman,Right,
33,11,1,0.5666111999998975,['n'],1,right,['e'],1,0.17511869999998453,0.4,1,0,FastFast,40,18,Woman,Right,
34,11,1,0.6490881999998237,['n'],1,right,['u'],0,0.18430890000036015,0.4,0,0,FastFast,40,18,Woman,Right,
35,11,1,0.7158866999998281,['c'],1,left,['e'],1,0.23051789999999528,0.2,1,0,FastFast,40,18,Woman,Right,
36,11,1,0.8334024000000682,['n'],1,right,['u'],0,0.17418670000006387,0.1,0,0,FastFast,40,18,Woman,Right,
37,11,1,0.6493273000000954,['n'],0,left,['u'],0,0.19970469999998386,0.1,1,0,FastFast,40,18,Woman,Right,
38,11,1,0.6005315000002156,['n'],1,right,['u'],0,0.15372179999985747,0.1,0,0,FastFast,40,18,Woman,Right,
39,11,1,1.3001274999996895,['c'],0,right,['u'],0,0.7218493999998827,0.2,1,0,FastFast,40,18,Woman,Right,
40,11,1,0.7492282000002888,['c'],1,left,['e'],1,0.1609097999998994,0.1,1,0,FastFast,40,18,Woman,Right,
41,11,1,1.916407000000163,['c'],1,left,['e'],1,0.12855390000004263,0.4,1,0,FastFast,40,18,Woman,Right,
42,11,1,1.0330869999997958,['n'],1,right,['e'],1,0.21256309999989753,0.1,1,0,FastFast,40,18,Woman,Right,
43,11,1,0.9329175000002579,['n'],1,right,['e'],1,0.13704460000008112,0.2,1,0,FastFast,40,18,Woman,Right,
44,11,1,0.7163087000003543,['c'],1,left,['e'],1,0.6811009000002741,0.2,1,0,FastFast,40,18,Woman,Right,
45,11,1,1.282771700000012,['n'],0,left,['e'],1,0.9330392000001666,0.4,0,0,FastFast,40,18,Woman,Right,
46,11,1,0.5829905000000508,['c'],1,left,['e'],1,0.17798290000018824,0.2,1,0,FastFast,40,18,Woman,Right,
47,11,1,1.1330066000000443,['c'],1,left,['e'],1,0.09608200000002398,0.2,1,0,FastFast,40,18,Woman,Right,
48,11,1,0.5998515000001134,['n'],1,right,['e'],1,0.12653699999964374,0.4,1,0,FastFast,40,18,Woman,Right,
49,11,1,0.750348799999756,['c'],1,left,['e'],1,0.04585820000011154,0.4,1,0,FastFast,40,18,Woman,Right,
50,11,1,0.8163497999998981,['n'],1,right,['e'],1,0.26178970000000845,0.1,1,0,FastFast,40,18,Woman,Right,
51,11,1,0.5331759000000602,['n'],1,right,['u'],0,0.2083026999998765,0.1,0,0,FastFast,40,18,Woman,Right,
52,11,1,0.6994518999999855,['n'],1,right,['u'],0,0.286406100000022,0.1,0,0,FastFast,40,18,Woman,Right,
53,11,1,0.783299100000022,['c'],0,right,['u'],0,1.2377259000004415,0.4,1,0,FastFast,40,18,Woman,Right,
54,11,1,0.7327915999999277,['n'],1,right,['e'],1,0.16932070000029853,0.4,1,0,FastFast,40,18,Woman,Right,
55,11,1,0.8164740000001984,['n'],1,right,['u'],0,0.131919100000232,0.1,0,0,FastFast,40,18,Woman,Right,
56,11,1,0.7495398000000932,['c'],1,left,['u'],0,0.6825463000000127,0.2,0,0,FastFast,40,18,Woman,Right,
57,11,1,0.5660978999999315,['c'],1,left,['u'],0,0.30639179999980115,0.2,0,0,FastFast,40,18,Woman,Right,
58,11,1,0.8830923000000439,['c'],1,left,['e'],1,0.16526969999995345,0.4,1,0,FastFast,40,18,Woman,Right,
59,11,1,0.6829001999999491,['n'],1,right,['e'],1,0.5971639999997933,0.4,1,0,FastFast,40,18,Woman,Right,
0,12,1,1.1494388000000981,['n'],1,right,['e'],1,0.13450190000003204,0.4,1,0,AccFast,40,18,Woman,Right,
1,12,1,0.6168706999997084,['c'],1,left,['e'],1,0.1382952999997542,0.4,1,0,AccFast,40,18,Woman,Right,
2,12,1,0.6494348999999602,['c'],1,left,['e'],1,0.18100249999997686,0.2,1,0,AccFast,40,18,Woman,Right,
3,12,1,0.682869600000231,['n'],1,right,['e'],1,0.1486048000001574,0.4,1,0,AccFast,40,18,Woman,Right,
4,12,1,0.667117099999814,['n'],1,right,['e'],1,0.10986320000029082,0.4,1,0,AccFast,40,18,Woman,Right,
5,12,1,0.84924140000021,['c'],1,left,['e'],1,0.22601380000014615,0.2,1,0,AccFast,40,18,Woman,Right,
6,12,1,1.1994926000002124,['n'],0,left,['u'],0,0.1710016000001815,0.1,1,0,AccFast,40,18,Woman,Right,
7,12,1,0.6827232000000549,['c'],1,left,['e'],1,0.1633531999996194,0.4,1,0,AccFast,40,18,Woman,Right,
8,12,1,0.8998266000003241,['n'],1,right,['e'],1,0.11524430000008579,0.4,1,0,AccFast,40,18,Woman,Right,
9,12,1,0.8160496999998941,['c'],1,left,['e'],1,0.16800859999966633,0.2,1,0,AccFast,40,18,Woman,Right,
10,12,1,0.6838748000000123,['n'],1,right,['e'],1,0.11228140000002895,0.2,1,0,AccFast,40,18,Woman,Right,
11,12,1,1.5336212000001979,['n'],0,left,['u'],0,0.20069939999984854,0.2,1,0,AccFast,40,18,Woman,Right,
12,12,1,0.7169097000000875,['n'],1,right,['e'],1,0.24586539999972956,0.1,1,0,AccFast,40,18,Woman,Right,
13,12,1,0.767112300000008,['c'],1,left,['e'],1,0.12003490000006423,0.4,1,0,AccFast,40,18,Woman,Right,
14,12,1,0.7336024999999609,['n'],1,right,['e'],1,0.12803889999986495,0.4,1,0,AccFast,40,18,Woman,Right,
15,12,1,0.6500567999996747,['n'],1,right,['e'],1,0.5554145999999491,0.4,1,0,AccFast,40,18,Woman,Right,
16,12,1,0.6164847000000009,['c'],1,left,['e'],1,0.1107254999997167,0.4,1,0,AccFast,40,18,Woman,Right,
17,12,1,0.6002124999999978,['n'],1,right,['u'],0,0.28461590000006254,0.1,0,0,AccFast,40,18,Woman,Right,
18,12,1,1.3163837000001877,['n'],1,right,['u'],0,0.43868209999982355,0.2,0,0,AccFast,40,18,Woman,Right,
19,12,1,0.73319870000023,['n'],1,right,['u'],0,0.1538741000003938,0.1,0,0,AccFast,40,18,Woman,Right,
20,12,1,0.633466899999803,['n'],1,right,['e'],1,0.396702600000026,0.4,1,0,AccFast,40,18,Woman,Right,
21,12,1,0.7504296000001887,['n'],1,right,['e'],1,0.20930959999986953,0.1,1,0,AccFast,40,18,Woman,Right,
22,12,1,1.3501840999997512,['c'],1,left,['u'],0,0.28529359999993176,0.2,0,0,AccFast,40,18,Woman,Right,
23,12,1,0.6834029999999984,['n'],1,right,['u'],0,0.16072929999972985,0.1,0,0,AccFast,40,18,Woman,Right,
24,12,1,0.9168018000000302,['n'],0,left,['u'],0,0.18408180000005814,0.2,1,0,AccFast,40,18,Woman,Right,
25,12,1,1.0997757999998612,['n'],0,left,['u'],0,0.1587881999998899,0.1,1,0,AccFast,40,18,Woman,Right,
26,12,1,1.266208000000006,['c'],1,left,['u'],0,0.1522066999996241,0.2,0,0,AccFast,40,18,Woman,Right,
27,12,1,1.7509165999999823,['c'],0,right,['u'],0,0.18946599999981117,0.1,1,0,AccFast,40,18,Woman,Right,
28,12,1,1.2484300999999505,['n'],1,right,['u'],0,0.19920779999984006,0.1,0,0,AccFast,40,18,Woman,Right,
29,12,1,0.9334023000001253,['n'],1,right,['e'],1,0.21115139999983512,0.4,1,0,AccFast,40,18,Woman,Right,
30,12,1,0.8997521000001143,['c'],1,left,['e'],1,0.33680699999968056,0.2,1,0,AccFast,40,18,Woman,Right,
31,12,1,1.8328150000002097,['c'],1,left,['u'],0,0.316624199999751,0.1,0,0,AccFast,40,18,Woman,Right,
32,12,1,0.7166090000000622,['c'],1,left,['u'],0,0.29344270000001416,0.2,0,0,AccFast,40,18,Woman,Right,
33,12,1,0.8992677999999614,['n'],1,right,['u'],0,0.3518575000002784,0.1,0,0,AccFast,40,18,Woman,Right,
34,12,1,0.7166373000000021,['n'],1,right,['e'],1,0.4869886999999835,0.2,1,0,AccFast,40,18,Woman,Right,
35,12,1,0.84981020000032,['c'],1,left,['e'],1,0.12415999999984706,0.2,1,0,AccFast,40,18,Woman,Right,
36,12,1,1.4990536000000247,['c'],1,left,['u'],0,0.7894319000001815,0.2,0,0,AccFast,40,18,Woman,Right,
37,12,1,0.8328169000001253,['c'],1,left,['e'],1,0.014549900000019989,0.4,1,0,AccFast,40,18,Woman,Right,
38,12,1,1.0331962999998723,['n'],1,right,['e'],1,0.11038910000024771,0.1,1,0,AccFast,40,18,Woman,Right,
39,12,1,1.3664051000000654,['c'],1,left,['e'],1,1.3265959000000294,0.2,1,0,AccFast,40,18,Woman,Right,
40,12,1,0.9335065000000213,['c'],1,left,['e'],1,0.11041039999963687,0.1,1,0,AccFast,40,18,Woman,Right,
41,12,1,1.133369700000003,['n'],1,right,['u'],0,0.10266390000015235,0.1,0,0,AccFast,40,18,Woman,Right,
42,12,1,1.8329341999997268,['c'],1,left,['e'],1,0.33115670000006503,0.4,1,0,AccFast,40,18,Woman,Right,
43,12,1,1.1501186000000416,['n'],1,right,['e'],1,0.0741146000000299,0.2,1,0,AccFast,40,18,Woman,Right,
44,12,1,0.9996049999999741,['c'],1,left,['e'],1,0.02509120000013354,0.4,1,0,AccFast,40,18,Woman,Right,
45,12,1,0.9497910999998567,['c'],1,left,['u'],0,0.17230499999959648,0.1,0,0,AccFast,40,18,Woman,Right,
46,12,1,0.7499041999999463,['c'],1,left,['u'],0,0.1541975000000093,0.2,0,0,AccFast,40,18,Woman,Right,
47,12,1,0.9332061999998587,['n'],0,left,['u'],0,0.208426000000145,0.1,1,0,AccFast,40,18,Woman,Right,
48,12,1,0.7496848999999202,['c'],0,right,['u'],0,0.22843979999970543,0.2,1,0,AccFast,40,18,Woman,Right,
49,12,1,0.6331430000000182,['n'],1,right,['e'],1,0.31643320000011954,0.4,1,0,AccFast,40,18,Woman,Right,
50,12,1,0.8998625999997785,['n'],1,right,['e'],1,0.13409609999962413,0.4,1,0,AccFast,40,18,Woman,Right,
51,12,1,0.9660746999998082,['n'],1,right,['u'],0,0.03591409999989992,0.1,0,0,AccFast,40,18,Woman,Right,
52,12,1,1.1337091999998847,['c'],1,left,['u'],0,0.20734260000017457,0.2,0,0,AccFast,40,18,Woman,Right,
53,12,1,0.7330089000001863,['c'],1,left,['e'],1,0.08419839999987744,0.4,1,0,AccFast,40,18,Woman,Right,
54,12,1,1.6818888000002516,['n'],1,right,['u'],0,0.1513862000001609,0.1,0,0,AccFast,40,18,Woman,Right,
55,12,1,0.9831889000001865,['n'],1,right,['u'],0,0.17986059999975623,0.1,0,0,AccFast,40,18,Woman,Right,
56,12,1,1.1998876999996355,['c'],1,left,['u'],0,0.31905600000027334,0.1,0,0,AccFast,40,18,Woman,Right,
57,12,1,0.8495907999999872,['c'],1,left,['e'],1,0.03444390000004205,0.4,1,0,AccFast,40,18,Woman,Right,
58,12,1,1.4161557999996148,['n'],1,right,['e'],1,0.13063770000007935,0.2,1,0,AccFast,40,18,Woman,Right,
59,12,1,0.9501605999998901,['n'],1,right,['e'],1,0.1374828000002708,0.4,1,0,AccFast,40,18,Woman,Right,
0,13,1,0.782750699999724,['n'],1,right,['e'],1,0.4552872000003845,0.2,1,0,AccAcc,40,18,Woman,Right,
1,13,1,0.8495887000003677,['c'],1,left,['e'],1,0.549278299999969,0.4,1,0,AccAcc,40,18,Woman,Right,
2,13,1,0.7161833000000115,['c'],1,left,['e'],1,1.9566233000000466,0.4,1,0,AccAcc,40,18,Woman,Right,
3,13,1,1.0837000999999873,['n'],1,right,['u'],0,0.3336618999996972,0.1,0,0,AccAcc,40,18,Woman,Right,
4,13,1,1.2006062000000384,['c'],1,left,['u'],0,0.6983943000000181,0.1,0,0,AccAcc,40,18,Woman,Right,
5,13,1,1.2163246999998591,['c'],1,left,['u'],0,0.38312439999981507,0.1,0,0,AccAcc,40,18,Woman,Right,
6,13,1,1.2825947000001179,['n'],1,right,['e'],1,0.3989235999997618,0.1,1,0,AccAcc,40,18,Woman,Right,
7,13,1,1.3330567999996674,['n'],1,right,['u'],0,0.3071058999998968,0.1,0,0,AccAcc,40,18,Woman,Right,
8,13,1,1.5327188000001115,['c'],1,left,['u'],0,0.3243419999998878,0.2,0,0,AccAcc,40,18,Woman,Right,
9,13,1,1.2829478999997264,['n'],0,left,['u'],0,0.5659665999996832,0.4,1,0,AccAcc,40,18,Woman,Right,
10,13,1,1.0496405999997478,['c'],1,left,['u'],0,0.4394084999998995,0.1,0,0,AccAcc,40,18,Woman,Right,
11,13,1,0.8336919000003036,['n'],1,right,['e'],1,0.20677699999987453,0.4,1,0,AccAcc,40,18,Woman,Right,
12,13,1,2.2496146000003137,['c'],1,left,['u'],0,0.6464884000001803,0.2,0,0,AccAcc,40,18,Woman,Right,
13,13,1,1.1663352000000486,['c'],1,left,['u'],0,1.343999100000019,0.1,0,0,AccAcc,40,18,Woman,Right,
14,13,1,2.5499446999997417,['n'],0,left,['u'],0,0.5665987000002133,0.2,1,0,AccAcc,40,18,Woman,Right,
15,13,1,1.3829541000000063,['c'],1,left,['u'],0,0.5785938999997597,0.2,0,0,AccAcc,40,18,Woman,Right,
16,13,1,0.9498106999999436,['c'],1,left,['e'],1,0.5922461000000112,0.4,1,0,AccAcc,40,18,Woman,Right,
17,13,1,1.2499749000003249,['n'],0,left,['u'],0,0.41658719999986715,0.2,1,0,AccAcc,40,18,Woman,Right,
18,13,1,0.9165500999997676,['c'],1,left,['e'],1,0.4611955999998827,0.4,1,0,AccAcc,40,18,Woman,Right,
19,13,1,0.9159626999999091,['n'],1,right,['e'],1,0.4729435000003832,0.4,1,0,AccAcc,40,18,Woman,Right,
20,13,1,0.9831784000002699,['n'],1,right,['e'],1,0.5765601999996761,0.4,1,0,AccAcc,40,18,Woman,Right,
21,13,1,1.1663755999998102,['n'],1,right,['u'],0,0.677268500000082,0.1,0,0,AccAcc,40,18,Woman,Right,
22,13,1,1.2326748000000407,['c'],1,left,['u'],0,0.3953393000001597,0.1,0,0,AccAcc,40,18,Woman,Right,
23,13,1,0.6665573999998742,['n'],1,right,['e'],1,0.3792521000000306,0.2,1,0,AccAcc,40,18,Woman,Right,
24,13,1,0.8994816999997965,['n'],1,right,['e'],1,0.2742079999998168,0.4,1,0,AccAcc,40,18,Woman,Right,
25,13,1,0.7661851000002571,['c'],1,left,['e'],1,0.4993890000000647,0.2,1,0,AccAcc,40,18,Woman,Right,
26,13,1,0.5999517999998716,['n'],1,right,['e'],1,1.537320699999782,0.4,1,0,AccAcc,40,18,Woman,Right,
27,13,1,0.9829217000001336,['c'],0,right,['u'],0,0.46309889999974985,0.1,1,0,AccAcc,40,18,Woman,Right,
28,13,1,1.4162351999998464,['n'],0,left,['u'],0,0.41410750000022745,0.2,1,0,AccAcc,40,18,Woman,Right,
29,13,1,0.6165381999999227,['n'],1,right,['e'],1,0.3665531000001465,0.4,1,0,AccAcc,40,18,Woman,Right,
30,13,1,0.933165899999949,['c'],0,right,['u'],0,0.3886081999999078,0.1,1,0,AccAcc,40,18,Woman,Right,
31,13,1,0.9823412999999164,['c'],1,left,['u'],0,0.33621339999990596,0.1,0,0,AccAcc,40,18,Woman,Right,
32,13,1,0.6660788000003777,['n'],1,right,['e'],1,0.36990090000017517,0.2,1,0,AccAcc,40,18,Woman,Right,
33,13,1,1.333109499999864,['c'],1,left,['u'],0,0.5198755999999776,0.1,0,0,AccAcc,40,18,Woman,Right,
34,13,1,1.716487600000164,['n'],0,left,['u'],0,1.4646325999997316,0.1,1,0,AccAcc,40,18,Woman,Right,
35,13,1,0.8155062000000726,['n'],1,right,['e'],1,1.023403099999996,0.4,1,0,AccAcc,40,18,Woman,Right,
36,13,1,1.2329236999999011,['n'],1,right,['e'],1,0.6796353999998246,0.2,1,0,AccAcc,40,18,Woman,Right,
37,13,1,0.9995073000000048,['n'],1,right,['e'],1,0.5665817000003699,0.4,1,0,AccAcc,40,18,Woman,Right,
38,13,1,1.5498892000000524,['n'],0,left,['u'],0,0.6121935000001031,0.1,1,0,AccAcc,40,18,Woman,Right,
39,13,1,1.3824423999999453,['c'],1,left,['e'],1,1.1827796000002309,0.4,1,0,AccAcc,40,18,Woman,Right,
40,13,1,1.2661229000000276,['c'],1,left,['u'],0,0.5506765000000087,0.2,0,0,AccAcc,40,18,Woman,Right,
41,13,1,1.4830682000001616,['n'],0,left,['u'],0,0.5673415999999634,0.2,1,0,AccAcc,40,18,Woman,Right,
42,13,1,1.9162731999999778,['n'],0,left,['u'],0,1.4702269999997952,0.2,1,0,AccAcc,40,18,Woman,Right,
43,13,1,1.1160534000000553,['c'],0,right,['u'],0,1.584792799999832,0.1,1,0,AccAcc,40,18,Woman,Right,
44,13,1,0.832940800000415,['c'],1,left,['u'],0,0.506313500000033,0.2,0,0,AccAcc,40,18,Woman,Right,
45,13,1,0.8330626000001757,['n'],1,right,['e'],1,0.5429478999999446,0.4,1,0,AccAcc,40,18,Woman,Right,
46,13,1,1.216797300000053,['n'],1,right,['u'],0,0.9387127000004512,0.1,0,0,AccAcc,40,18,Woman,Right,
47,13,1,1.0668347999999241,['c'],0,right,['u'],0,0.6448369999998249,0.1,1,0,AccAcc,40,18,Woman,Right,
48,13,1,2.9161761000000297,['c'],1,left,['u'],0,0.9209487999996782,0.4,0,0,AccAcc,40,18,Woman,Right,
49,13,1,0.8165156999998544,['c'],1,left,['e'],1,0.5654148000003261,0.4,1,0,AccAcc,40,18,Woman,Right,
50,13,1,1.4161662999999862,['n'],1,right,['u'],0,0.4961259000001519,0.1,0,0,AccAcc,40,18,Woman,Right,
51,13,1,1.2663520999999491,['n'],1,right,['u'],0,0.540233299999727,0.2,0,0,AccAcc,40,18,Woman,Right,
52,13,1,2.5996015999999145,['n'],1,right,['u'],0,0.6166269999998804,0.4,0,0,AccAcc,40,18,Woman,Right,
53,13,1,1.0998688999998194,['n'],1,right,['e'],1,0.7500972000002548,0.4,1,0,AccAcc,40,18,Woman,Right,
54,13,1,1.3494986999999128,['c'],1,left,['u'],0,0.572166500000094,0.1,0,0,AccAcc,40,18,Woman,Right,
55,13,1,1.0497206999998525,['n'],1,right,['u'],0,0.6615791999997782,0.2,0,0,AccAcc,40,18,Woman,Right,
56,13,1,1.2495428000001993,['c'],0,right,['u'],0,0.49936310000020967,0.2,1,0,AccAcc,40,18,Woman,Right,
57,13,1,2.799047099999825,['c'],0,right,['u'],0,0.36935360000006767,0.2,1,0,AccAcc,40,18,Woman,Right,
58,13,1,0.8991937999999209,['c'],0,right,['u'],0,0.4407342999998036,0.2,1,0,AccAcc,40,18,Woman,Right,
59,13,1,0.8335673999999926,['c'],1,left,['e'],1,0.5688136000003396,0.4,1,0,AccAcc,40,18,Woman,Right,
0,14,1,0.6833315999997467,['n'],0,left,['u'],0,1.3081482999996297,0.1,1,0,FastAcc,40,18,Woman,Right,
1,14,1,0.7663202999997338,['n'],1,right,['u'],0,0.7714796999998725,0.1,0,0,FastAcc,40,18,Woman,Right,
2,14,1,0.6998861000001853,['n'],1,right,['u'],0,0.8347764999998617,0.2,0,0,FastAcc,40,18,Woman,Right,
3,14,1,0.48273269999981494,['c'],1,left,['e'],1,0.7522143999999571,0.4,1,0,FastAcc,40,18,Woman,Right,
4,14,1,0.6001667000000452,['c'],1,left,['e'],1,1.2041024000000107,0.2,1,0,FastAcc,40,18,Woman,Right,
5,14,1,0.48279320000028747,['n'],1,right,['u'],0,1.1388482000002114,0.2,0,0,FastAcc,40,18,Woman,Right,
6,14,1,0.566430500000024,['c'],1,left,['e'],1,0.904930499999864,0.1,1,0,FastAcc,40,18,Woman,Right,
7,14,1,0.683270800000173,['n'],1,right,['u'],0,0.8117424000001847,0.1,0,0,FastAcc,40,18,Woman,Right,
8,14,1,0.766640699999698,['c'],1,left,['e'],1,0.8229384000001119,0.4,1,0,FastAcc,40,18,Woman,Right,
9,14,1,0.7829982999996901,['c'],1,left,['e'],1,0.5686295000000428,0.1,1,0,FastAcc,40,18,Woman,Right,
10,14,1,0.9331732000000557,['c'],0,right,['u'],0,0.390650999999707,0.1,1,0,FastAcc,40,18,Woman,Right,
11,14,1,0.7834215000002587,['c'],1,left,['u'],0,0.9063802000000578,0.4,0,0,FastAcc,40,18,Woman,Right,
12,14,1,0.5337409999997362,['c'],1,left,['u'],0,1.026762200000121,0.4,0,0,FastAcc,40,18,Woman,Right,
13,14,1,0.5326921000000766,['n'],1,right,['e'],1,1.3587109000000055,0.4,1,0,FastAcc,40,18,Woman,Right,
14,14,1,1.1495644999999968,['n'],1,right,['u'],0,1.3567983000002641,0.2,0,0,FastAcc,40,18,Woman,Right,
15,14,1,1.1836358999998993,['c'],1,left,['u'],0,0.27343470000005254,0.1,0,0,FastAcc,40,18,Woman,Right,
16,14,1,0.5498915999996825,['c'],1,left,['u'],0,0.4348115000002508,0.2,0,0,FastAcc,40,18,Woman,Right,
17,14,1,0.5834223000001657,['c'],1,left,['u'],0,0.8684923000000708,0.2,0,0,FastAcc,40,18,Woman,Right,
18,14,1,0.5165910999999141,['c'],1,left,['u'],0,0.702725300000111,0.2,0,0,FastAcc,40,18,Woman,Right,
19,14,1,0.44885019999992437,['n'],1,right,['e'],1,0.9232187000002341,0.1,1,0,FastAcc,40,18,Woman,Right,
20,14,1,0.4330542000002424,['n'],1,right,['e'],1,0.7188496999997369,0.4,1,0,FastAcc,40,18,Woman,Right,
21,14,1,0.7164112000000387,['n'],0,left,['u'],0,0.7350776999996924,0.1,1,0,FastAcc,40,18,Woman,Right,
22,14,1,0.48288559999991776,['n'],0,left,['u'],0,0.7448610000001281,0.1,1,0,FastAcc,40,18,Woman,Right,
23,14,1,0.4490236999999979,['n'],1,right,['e'],1,0.619528199999877,0.4,1,0,FastAcc,40,18,Woman,Right,
24,14,1,0.5828440999998747,['c'],0,right,['u'],0,0.8774180999998862,0.2,1,0,FastAcc,40,18,Woman,Right,
25,14,1,0.3995765999998184,['c'],1,left,['e'],1,0.8449111999998422,0.4,1,0,FastAcc,40,18,Woman,Right,
26,14,1,0.5998138999998446,['c'],1,left,['e'],1,0.8294444000002841,0.4,1,0,FastAcc,40,18,Woman,Right,
27,14,1,0.4329953999999816,['n'],1,right,['e'],1,1.2210421999998289,0.4,1,0,FastAcc,40,18,Woman,Right,
28,14,1,0.4664490999998634,['n'],1,right,['u'],0,1.1156459999997423,0.1,0,0,FastAcc,40,18,Woman,Right,
29,14,1,0.3667672000001403,['n'],1,right,['u'],0,0.9544949999999517,0.1,0,0,FastAcc,40,18,Woman,Right,
30,14,1,0.3830788999998731,['n'],1,right,['e'],1,1.2309305000003405,0.4,1,0,FastAcc,40,18,Woman,Right,
31,14,1,0.3829310000000987,['c'],1,left,['e'],1,1.0966655000001992,0.2,1,0,FastAcc,40,18,Woman,Right,
32,14,1,0.41652239999984886,['c'],1,left,['e'],1,1.7263427999996566,0.4,1,0,FastAcc,40,18,Woman,Right,
33,14,1,0.5497644999995828,['n'],1,right,['u'],0,1.7655453999996098,0.1,0,0,FastAcc,40,18,Woman,Right,
34,14,1,0.6494958000002953,['n'],1,right,['e'],1,0.6147602999999435,0.2,1,0,FastAcc,40,18,Woman,Right,
35,14,1,0.617366999999831,['n'],1,right,['e'],1,0.8236437000005026,0.2,1,0,FastAcc,40,18,Woman,Right,
36,14,1,0.4490291000001889,['n'],1,right,['e'],1,0.95913660000042,0.4,1,0,FastAcc,40,18,Woman,Right,
37,14,1,0.3995252000004257,['n'],1,right,['u'],0,0.7628586999999243,0.2,0,0,FastAcc,40,18,Woman,Right,
38,14,1,0.599153699999988,['c'],1,left,['e'],1,0.5348629000000074,0.4,1,0,FastAcc,40,18,Woman,Right,
39,14,1,0.44946989999971265,['n'],1,right,['e'],1,0.6896716999999626,0.4,1,0,FastAcc,40,18,Woman,Right,
40,14,1,0.5330645000003642,['n'],0,left,['u'],0,0.8028045999999449,0.1,1,0,FastAcc,40,18,Woman,Right,
41,14,1,0.5828276000002006,['c'],1,left,['u'],0,0.701597799999945,0.2,0,0,FastAcc,40,18,Woman,Right,
42,14,1,0.5992520999998305,['n'],0,left,['u'],0,0.44366939999963506,0.1,1,0,FastAcc,40,18,Woman,Right,
43,14,1,1.7833000999999058,['n'],1,right,['u'],0,1.9653577999997651,0.2,0,0,FastAcc,40,18,Woman,Right,
44,14,1,0.5829916000002413,['n'],1,right,['e'],1,0.8482925999996951,0.4,1,0,FastAcc,40,18,Woman,Right,
45,14,1,0.5165740000002188,['c'],1,left,['e'],1,1.0122225000004619,0.2,1,0,FastAcc,40,18,Woman,Right,
46,14,1,0.7002519999996366,['c'],1,left,['u'],0,2.4100384000003032,0.2,0,0,FastAcc,40,18,Woman,Right,
47,14,1,0.3997359000004508,['n'],1,right,['e'],1,0.4522735999998986,0.2,1,0,FastAcc,40,18,Woman,Right,
48,14,1,0.5163130999999339,['n'],1,right,['e'],1,0.5114613000005193,0.2,1,0,FastAcc,40,18,Woman,Right,
49,14,1,0.5323472000000038,['n'],1,right,['e'],1,0.3443478999997751,0.4,1,0,FastAcc,40,18,Woman,Right,
50,14,1,0.7161992000001192,['c'],1,left,['e'],1,0.46430859999964014,0.2,1,0,FastAcc,40,18,Woman,Right,
51,14,1,0.616470300000401,['n'],1,right,['e'],1,0.8148132999995141,0.1,1,0,FastAcc,40,18,Woman,Right,
52,14,1,0.43374149999999645,['c'],1,left,['u'],0,1.1988258000001224,0.1,0,0,FastAcc,40,18,Woman,Right,
53,14,1,0.6493153000001257,['c'],1,left,['u'],0,0.8789316000002145,0.2,0,0,FastAcc,40,18,Woman,Right,
54,14,1,0.4662140999998883,['n'],1,right,['e'],1,0.5561941999994815,0.4,1,0,FastAcc,40,18,Woman,Right,
55,14,1,0.6158039000001736,['n'],1,right,['u'],0,0.8310797000003731,0.1,0,0,FastAcc,40,18,Woman,Right,
56,14,1,0.5999205999996775,['c'],1,left,['u'],0,0.5198915999999372,0.1,0,0,FastAcc,40,18,Woman,Right,
57,14,1,0.6825151000002734,['n'],1,right,['e'],1,0.43353299999944284,0.1,1,0,FastAcc,40,18,Woman,Right,
58,14,1,0.48275350000039907,['c'],1,left,['e'],1,0.6708339999995587,0.4,1,0,FastAcc,40,18,Woman,Right,
59,14,1,0.5999961999996231,['c'],1,left,['u'],0,1.2863955000002534,0.4,0,0,FastAcc,40,18,Woman,Right,
0,15,1,0.5660791999998764,['n'],1,right,['e'],1,0.5567620000001625,0.1,1,0,FastFast,40,18,Woman,Right,
1,15,1,0.6164691000003586,['n'],1,right,['e'],1,0.15954640000018117,0.1,1,0,FastFast,40,18,Woman,Right,
2,15,1,0.7159257999992406,['n'],0,left,['u'],0,0.2550610999996934,0.2,1,0,FastFast,40,18,Woman,Right,
3,15,1,0.4333275999997568,['c'],1,left,['e'],1,0.2457606999996642,0.4,1,0,FastFast,40,18,Woman,Right,
4,15,1,0.7498287999997046,['c'],1,left,['e'],1,0.2323197000005166,0.4,1,0,FastFast,40,18,Woman,Right,
5,15,1,0.5163221000002522,['n'],0,left,['u'],0,0.21238979999998264,0.1,1,0,FastFast,40,18,Woman,Right,
6,15,1,0.46639760000016395,['c'],0,right,['u'],0,0.2434428000005937,0.1,1,0,FastFast,40,18,Woman,Right,
7,15,1,0.7327608000005057,['c'],0,right,['e'],1,0.15889189999961673,0.4,0,0,FastFast,40,18,Woman,Right,
8,15,1,0.7336313999994672,['n'],0,left,['u'],0,0.18148350000046776,0.1,1,0,FastFast,40,18,Woman,Right,
9,15,1,0.8997464000003674,['n'],1,right,['u'],0,0.22044180000011693,0.1,0,0,FastFast,40,18,Woman,Right,
10,15,1,0.682332100000167,['n'],1,right,['e'],1,0.26634589999957825,0.2,1,0,FastFast,40,18,Woman,Right,
11,15,1,0.583614099999977,['c'],1,left,['u'],0,0.20272130000012112,0.1,0,0,FastFast,40,18,Woman,Right,
12,15,1,0.5830950999998095,['c'],1,left,['e'],1,0.18880040000021836,0.4,1,0,FastFast,40,18,Woman,Right,
13,15,1,0.5660413999994489,['n'],1,right,['e'],1,0.3288333000000421,0.2,1,0,FastFast,40,18,Woman,Right,
14,15,1,0.6826902000002519,['n'],0,left,['u'],0,0.28319099999953323,0.2,1,0,FastFast,40,18,Woman,Right,
15,15,1,0.5326160000004165,['n'],1,right,['e'],1,0.3083766999998261,0.2,1,0,FastFast,40,18,Woman,Right,
16,15,1,0.7333245999998326,['n'],1,right,['u'],0,0.16490760000033333,0.1,0,0,FastFast,40,18,Woman,Right,
17,15,1,0.5997430999996141,['c'],1,left,['u'],0,0.5287459999999555,0.4,0,0,FastFast,40,18,Woman,Right,
18,15,1,0.799079299999903,['n'],1,right,['e'],1,0.18955060000007506,0.4,1,0,FastFast,40,18,Woman,Right,
19,15,1,0.6330237000001944,['c'],1,left,['e'],1,0.28695779999998194,0.2,1,0,FastFast,40,18,Woman,Right,
20,15,1,1.182453400000668,['n'],1,right,['u'],0,0.4543315999999322,0.2,0,0,FastFast,40,18,Woman,Right,
21,15,1,0.7999276000000464,['c'],1,left,['u'],0,0.9105759999993097,0.2,0,0,FastFast,40,18,Woman,Right,
22,15,1,0.6665027999997619,['c'],0,right,['u'],0,1.0898621000005733,0.4,1,0,FastFast,40,18,Woman,Right,
23,15,1,0.5667765999996845,['c'],1,left,['e'],1,0.5297323000004326,0.2,1,0,FastFast,40,18,Woman,Right,
24,15,1,0.8666299999995317,['n'],1,right,['e'],1,0.5483316999998351,0.1,1,0,FastFast,40,18,Woman,Right,
25,15,1,0.5991426999999021,['n'],1,right,['e'],1,0.20835490000081336,0.2,1,0,FastFast,40,18,Woman,Right,
26,15,1,0.4994280999999319,['n'],1,right,['e'],1,0.24668080000083137,0.4,1,0,FastFast,40,18,Woman,Right,
27,15,1,0.5160715000001801,['c'],1,left,['e'],1,0.2906574999997247,0.1,1,0,FastFast,40,18,Woman,Right,
28,15,1,0.5329454000002443,['c'],1,left,['u'],0,0.2195716000005632,0.1,0,0,FastFast,40,18,Woman,Right,
29,15,1,0.8162208000003375,['c'],1,left,['u'],0,0.25233099999968545,0.1,0,0,FastFast,40,18,Woman,Right,
30,15,1,0.5996963999996296,['c'],0,right,['u'],0,0.30828120000023773,0.1,1,0,FastFast,40,18,Woman,Right,
31,15,1,0.5998907000002873,['n'],1,right,['e'],1,0.23427189999983966,0.4,1,0,FastFast,40,18,Woman,Right,
32,15,1,1.0666723000003913,['n'],1,right,['u'],0,0.3283320000000458,0.2,0,0,FastFast,40,18,Woman,Right,
33,15,1,0.7500949999994191,['n'],1,right,['e'],1,0.38360019999981887,0.2,1,0,FastFast,40,18,Woman,Right,
34,15,1,0.5170404000000417,['n'],0,left,['e'],1,0.2294701000000714,0.1,0,0,FastFast,40,18,Woman,Right,
35,15,1,0.6166125999998258,['n'],1,right,['e'],1,0.23871670000062295,0.4,1,0,FastFast,40,18,Woman,Right,
36,15,1,0.4829170000002705,['n'],1,right,['e'],1,0.21161359999950946,0.4,1,0,FastFast,40,18,Woman,Right,
37,15,1,0.932876099999703,['n'],1,right,['u'],0,0.15247360000012122,0.2,0,0,FastFast,40,18,Woman,Right,
38,15,1,0.9997339000001375,['c'],1,left,['u'],0,0.6365428999997675,0.2,0,0,FastFast,40,18,Woman,Right,
39,15,1,0.7330145999994784,['c'],1,left,['e'],1,0.24732999999923777,0.4,1,0,FastFast,40,18,Woman,Right,
40,15,1,0.5318780000006882,['c'],1,left,['e'],1,0.28278409999984433,0.1,1,0,FastFast,40,18,Woman,Right,
41,15,1,0.46631039999920176,['c'],1,left,['e'],1,0.28643470000042726,0.1,1,0,FastFast,40,18,Woman,Right,
42,15,1,0.5660153999997419,['c'],1,left,['u'],0,0.2704366999996637,0.2,0,0,FastFast,40,18,Woman,Right,
43,15,1,0.7329993999992439,['c'],1,left,['u'],0,0.2166789000002609,0.2,0,0,FastFast,40,18,Woman,Right,
44,15,1,0.6828363999993599,['c'],0,right,['u'],0,1.2784652000000278,0.1,1,0,FastFast,40,18,Woman,Right,
45,15,1,0.5828684999996767,['c'],1,left,['e'],1,0.5104301000001215,0.4,1,0,FastFast,40,18,Woman,Right,
46,15,1,0.41685059999963414,['n'],1,right,['e'],1,0.34764089999953285,0.4,1,0,FastFast,40,18,Woman,Right,
47,15,1,0.4494234999992841,['n'],1,right,['u'],0,0.40577919999941514,0.1,0,0,FastFast,40,18,Woman,Right,
48,15,1,0.6832747999997082,['c'],1,left,['u'],0,0.15720609999971202,0.4,0,0,FastFast,40,18,Woman,Right,
49,15,1,0.5998888000003717,['n'],1,right,['e'],1,0.24038839999957418,0.4,1,0,FastFast,40,18,Woman,Right,
50,15,1,0.5496210999999676,['n'],0,left,['u'],0,0.2669710000000123,0.2,1,0,FastFast,40,18,Woman,Right,
51,15,1,0.8332827000003817,['n'],1,right,['e'],1,0.13711400000011054,0.4,1,0,FastFast,40,18,Woman,Right,
52,15,1,0.6495169999998325,['c'],1,left,['e'],1,0.523799799999324,0.4,1,0,FastFast,40,18,Woman,Right,
53,15,1,0.549615700000686,['c'],1,left,['e'],1,0.2829359999996086,0.4,1,0,FastFast,40,18,Woman,Right,
54,15,1,0.6329159000006257,['n'],0,left,['e'],1,0.14431899999999587,0.1,0,0,FastFast,40,18,Woman,Right,
55,15,1,0.6999580000001515,['n'],1,right,['u'],0,0.21700980000059644,0.1,0,0,FastFast,40,18,Woman,Right,
56,15,1,0.56645429999935,['c'],1,left,['e'],1,0.17166140000063024,0.4,1,0,FastFast,40,18,Woman,Right,
57,15,1,0.5663766999996369,['c'],1,left,['u'],0,0.16069530000004306,0.2,0,0,FastFast,40,18,Woman,Right,
58,15,1,0.5997666000002937,['n'],1,right,['e'],1,0.46068490000016027,0.2,1,0,FastFast,40,18,Woman,Right,
59,15,1,0.5827970000000278,['n'],1,right,['e'],1,0.15719179999996413,0.2,1,0,FastFast,40,18,Woman,Right,
