withinblocktrial,block,block_repetition,rt,resp,cor,cresp,conf_press,cj,rtconf,coherence,metacognition,slow_trial,manipulation,sub,age,gender,handedness,
0,1,1,1.0503457999998318,['c'],1,left,none,-99,-99,0.5,-99,0,none,22,18,Woman,Right,
1,1,1,0.7836222000000816,['c'],1,left,none,-99,-99,0.5,-99,0,none,22,18,Woman,Right,
2,1,1,1.083161200000177,['c'],1,left,none,-99,-99,0.5,-99,0,none,22,18,Woman,Right,
3,1,1,0.8835095000001729,['c'],1,left,none,-99,-99,0.5,-99,0,none,22,18,Woman,Right,
4,1,1,0.6168052999998963,['n'],1,right,none,-99,-99,0.5,-99,0,none,22,18,Woman,Right,
5,1,1,0.5333050000001549,['n'],1,right,none,-99,-99,0.5,-99,0,none,22,18,Woman,Right,
6,1,1,0.5824804999999742,['n'],1,right,none,-99,-99,0.5,-99,0,none,22,18,Woman,Right,
7,1,1,0.6006766000000425,['c'],1,left,none,-99,-99,0.5,-99,0,none,22,18,Woman,Right,
8,1,1,0.5505255000000489,['n'],1,right,none,-99,-99,0.5,-99,0,none,22,18,Woman,Right,
9,1,1,0.533892700000024,['c'],1,left,none,-99,-99,0.5,-99,0,none,22,18,Woman,Right,
10,1,1,0.5004159000000072,['n'],1,right,none,-99,-99,0.5,-99,0,none,22,18,Woman,Right,
11,1,1,0.9499247999999625,['c'],1,left,none,-99,-99,0.5,-99,0,none,22,18,Woman,Right,
12,1,1,0.5002822999999808,['n'],1,right,none,-99,-99,0.5,-99,0,none,22,18,Woman,Right,
13,1,1,0.3999879000000419,['c'],1,left,none,-99,-99,0.5,-99,0,none,22,18,Woman,Right,
14,1,1,0.483249300000125,['n'],1,right,none,-99,-99,0.5,-99,0,none,22,18,Woman,Right,
15,1,1,0.5328379000000041,['n'],1,right,none,-99,-99,0.5,-99,0,none,22,18,Woman,Right,
16,1,1,0.515898800000059,['c'],1,left,none,-99,-99,0.5,-99,0,none,22,18,Woman,Right,
17,1,1,0.533178399999997,['c'],1,left,none,-99,-99,0.5,-99,0,none,22,18,Woman,Right,
18,1,1,0.484067800000048,['c'],1,left,none,-99,-99,0.5,-99,0,none,22,18,Woman,Right,
19,1,1,0.49961050000001705,['n'],1,right,none,-99,-99,0.5,-99,0,none,22,18,Woman,Right,
20,1,1,0.41579430000001594,['c'],1,left,none,-99,-99,0.5,-99,0,none,22,18,Woman,Right,
21,1,1,0.5660179999999855,['n'],1,right,none,-99,-99,0.5,-99,0,none,22,18,Woman,Right,
22,1,1,0.5506231999997908,['n'],1,right,none,-99,-99,0.5,-99,0,none,22,18,Woman,Right,
23,1,1,0.5665046999999959,['n'],1,right,none,-99,-99,0.5,-99,0,none,22,18,Woman,Right,
0,2,1,0.5331304000001182,['n'],0,left,none,-99,-99,0.2,-99,0,none,22,18,Woman,Right,
1,2,1,0.8492266999999174,['n'],1,right,none,-99,-99,0.2,-99,0,none,22,18,Woman,Right,
2,2,1,0.7502251000000797,['c'],1,left,none,-99,-99,0.1,-99,0,none,22,18,Woman,Right,
3,2,1,0.8334956000001057,['c'],1,left,none,-99,-99,0.4,-99,0,none,22,18,Woman,Right,
4,2,1,0.5162390999998934,['n'],0,left,none,-99,-99,0.1,-99,0,none,22,18,Woman,Right,
5,2,1,0.7499098999999205,['n'],0,left,none,-99,-99,0.4,-99,0,none,22,18,Woman,Right,
6,2,1,0.5660630999998375,['n'],1,right,none,-99,-99,0.4,-99,0,none,22,18,Woman,Right,
7,2,1,0.7672370000000228,['c'],0,right,none,-99,-99,0.1,-99,0,none,22,18,Woman,Right,
8,2,1,0.8495421000000078,['c'],1,left,none,-99,-99,0.2,-99,0,none,22,18,Woman,Right,
9,2,1,1.1995816999999533,['n'],1,right,none,-99,-99,0.2,-99,0,none,22,18,Woman,Right,
10,2,1,1.0333691000000726,['c'],0,right,none,-99,-99,0.4,-99,0,none,22,18,Woman,Right,
11,2,1,0.6168466999999964,['n'],1,right,none,-99,-99,0.4,-99,0,none,22,18,Woman,Right,
12,2,1,1.7838196000000153,['n'],1,right,none,-99,-99,0.1,-99,0,none,22,18,Woman,Right,
13,2,1,1.466416499999923,['n'],1,right,none,-99,-99,0.1,-99,0,none,22,18,Woman,Right,
14,2,1,0.6667210999999043,['n'],1,right,none,-99,-99,0.4,-99,0,none,22,18,Woman,Right,
15,2,1,0.7166340000001128,['c'],1,left,none,-99,-99,0.1,-99,0,none,22,18,Woman,Right,
16,2,1,0.7828044000000318,['n'],0,left,none,-99,-99,0.2,-99,0,none,22,18,Woman,Right,
17,2,1,0.600311099999999,['c'],1,left,none,-99,-99,0.1,-99,0,none,22,18,Woman,Right,
18,2,1,0.7165489999999863,['c'],1,left,none,-99,-99,0.2,-99,0,none,22,18,Woman,Right,
19,2,1,1.0007935999999518,['c'],1,left,none,-99,-99,0.2,-99,0,none,22,18,Woman,Right,
20,2,1,1.4662799000000177,['c'],0,right,none,-99,-99,0.2,-99,0,none,22,18,Woman,Right,
21,2,1,0.9500310000000809,['c'],1,left,none,-99,-99,0.4,-99,0,none,22,18,Woman,Right,
22,2,1,0.6002381999999216,['n'],1,right,none,-99,-99,0.4,-99,0,none,22,18,Woman,Right,
23,2,1,1.1502448000001095,['c'],0,right,none,-99,-99,0.1,-99,0,none,22,18,Woman,Right,
0,3,1,1.3322301999999127,['n'],1,right,['e'],1,2.0541107999999895,0.4,1,0,none,22,18,Woman,Right,
1,3,1,0.7010043000000223,['c'],1,left,['e'],1,0.5345316000000366,0.2,1,0,none,22,18,Woman,Right,
2,3,1,2.449435499999936,['n'],0,left,['u'],0,0.4851860999999644,0.1,1,0,none,22,18,Woman,Right,
3,3,1,0.6993988000001536,['c'],1,left,['e'],1,0.5236692999999377,0.4,1,0,none,22,18,Woman,Right,
4,3,1,0.7827470000001995,['c'],1,left,['e'],1,0.48560539999994035,0.1,1,0,none,22,18,Woman,Right,
5,3,1,2.3001478999999563,['n'],1,right,['u'],0,0.43630559999996876,0.2,0,0,none,22,18,Woman,Right,
6,3,1,1.6335963000001357,['n'],1,right,['u'],0,0.4875948999999764,0.1,0,0,none,22,18,Woman,Right,
7,3,1,0.8840056999999888,['n'],1,right,['e'],1,0.47931180000000495,0.4,1,0,none,22,18,Woman,Right,
8,3,1,1.1994082999999591,['c'],1,left,['e'],1,1.0749736000000212,0.2,1,0,none,22,18,Woman,Right,
9,3,1,0.9998248000001695,['c'],1,left,['e'],1,0.4779075000001285,0.1,1,0,none,22,18,Woman,Right,
10,3,1,0.8000406999999541,['n'],1,right,['u'],0,0.43325789999994413,0.4,0,0,none,22,18,Woman,Right,
11,3,1,1.1168537000000924,['c'],0,right,['u'],0,1.2330140999999912,0.4,1,0,none,22,18,Woman,Right,
12,3,1,0.5829653999999209,['c'],0,right,['e'],1,0.35856829999988804,0.2,0,0,none,22,18,Woman,Right,
13,3,1,1.1163890999998785,['n'],1,right,['u'],0,0.4258972999998605,0.1,0,0,none,22,18,Woman,Right,
14,3,1,1.5507164000000557,['n'],1,right,['u'],0,0.41709819999982756,0.2,0,0,none,22,18,Woman,Right,
15,3,1,0.6496146000001772,['c'],1,left,['e'],1,0.5086859000000459,0.2,1,0,none,22,18,Woman,Right,
16,3,1,1.099714499999891,['n'],1,right,['e'],1,0.38648379999995086,0.4,1,0,none,22,18,Woman,Right,
17,3,1,3.8999851000000945,['n'],1,right,['e'],1,0.9812582999998085,0.4,1,0,none,22,18,Woman,Right,
18,3,1,4.116028299999925,['n'],1,right,['e'],1,0.711227000000008,0.4,1,0,none,22,18,Woman,Right,
19,3,1,0.9336953999998059,['c'],1,left,['e'],1,0.3640442000000803,0.2,1,0,none,22,18,Woman,Right,
20,3,1,0.8832596000002013,['n'],0,left,['u'],0,0.7202689000000646,0.1,1,0,none,22,18,Woman,Right,
21,3,1,1.4504397000000608,['c'],1,left,['u'],0,0.5593714999999975,0.2,0,0,none,22,18,Woman,Right,
22,3,1,1.1166270999999597,['c'],1,left,['e'],1,0.7068371000000297,0.1,1,0,none,22,18,Woman,Right,
23,3,1,0.9507942000000185,['c'],1,left,['e'],1,0.3909408000001804,0.1,1,0,none,22,18,Woman,Right,
0,4,1,1.0825589999999465,['c'],1,left,['e'],1,0.666923400000087,0.2,1,0,AccAcc,22,18,Woman,Right,
1,4,1,4.733408599999848,['n'],1,right,['u'],0,0.46888339999986783,0.1,0,0,AccAcc,22,18,Woman,Right,
2,4,1,2.000397000000021,['c'],0,right,['u'],0,0.7961358999998538,0.2,1,0,AccAcc,22,18,Woman,Right,
3,4,1,1.3341715000001386,['c'],1,left,['e'],1,0.8416316000000279,0.4,1,0,AccAcc,22,18,Woman,Right,
4,4,1,2.866077500000074,['c'],1,left,['u'],0,0.38363470000012967,0.2,0,0,AccAcc,22,18,Woman,Right,
5,4,1,1.0171634000000722,['c'],1,left,['u'],0,0.33003260000009504,0.4,0,0,AccAcc,22,18,Woman,Right,
6,4,1,1.2334223999998812,['n'],0,left,['u'],0,0.3898161000001892,0.2,1,0,AccAcc,22,18,Woman,Right,
7,4,1,0.6331473999998707,['c'],1,left,['e'],1,0.4229491999999482,0.4,1,0,AccAcc,22,18,Woman,Right,
8,4,1,1.9335077999999157,['n'],1,right,['e'],1,0.8271947000000637,0.4,1,0,AccAcc,22,18,Woman,Right,
9,4,1,0.8499659999999949,['c'],1,left,['e'],1,0.3305747000001702,0.4,1,0,AccAcc,22,18,Woman,Right,
10,4,1,1.0002701999999317,['c'],1,left,['e'],1,0.35204720000001544,0.2,1,0,AccAcc,22,18,Woman,Right,
11,4,1,0.9337050999999974,['n'],1,right,['u'],0,0.886374700000033,0.1,0,0,AccAcc,22,18,Woman,Right,
12,4,1,0.8342623999999432,['n'],1,right,['e'],1,0.38788799999997536,0.4,1,0,AccAcc,22,18,Woman,Right,
13,4,1,1.8490403000000697,['n'],1,right,['u'],0,0.6845714000000953,0.1,0,0,AccAcc,22,18,Woman,Right,
14,4,1,1.050448200000119,['c'],1,left,['e'],1,0.3452462000000196,0.1,1,0,AccAcc,22,18,Woman,Right,
15,4,1,0.9493204000000333,['n'],0,left,['u'],0,0.47167229999990923,0.1,1,0,AccAcc,22,18,Woman,Right,
16,4,1,0.6839486999999735,['n'],1,right,['e'],1,0.3798936999999114,0.4,1,0,AccAcc,22,18,Woman,Right,
17,4,1,1.1005417999999736,['n'],1,right,['e'],1,0.31468420000010155,0.2,1,0,AccAcc,22,18,Woman,Right,
18,4,1,5.000035000000025,x,-99,right,none,-99,-99,0.1,-99,1,AccAcc,22,18,Woman,Right,
19,4,1,0.6998051000000487,['n'],1,right,['e'],1,0.8781714000001557,0.4,1,0,AccAcc,22,18,Woman,Right,
20,4,1,0.6007038999998713,['c'],1,left,['e'],1,0.40545429999997395,0.4,1,0,AccAcc,22,18,Woman,Right,
21,4,1,0.5838616999999431,['c'],1,left,['e'],1,0.36815610000007837,0.4,1,0,AccAcc,22,18,Woman,Right,
22,4,1,0.583504400000038,['n'],1,right,['u'],0,0.45218960000011066,0.2,0,0,AccAcc,22,18,Woman,Right,
23,4,1,0.8334408000000622,['c'],1,left,['e'],1,0.4265832999999475,0.2,1,0,AccAcc,22,18,Woman,Right,
24,4,1,0.749731600000132,['n'],1,right,['u'],0,0.8299795000000358,0.2,0,0,AccAcc,22,18,Woman,Right,
25,4,1,0.6497349999999642,['c'],1,left,['e'],1,0.8770870999999261,0.4,1,0,AccAcc,22,18,Woman,Right,
26,4,1,0.6673476000000846,['n'],1,right,['u'],0,0.873176199999989,0.4,0,0,AccAcc,22,18,Woman,Right,
27,4,1,0.550376099999994,['c'],1,left,['u'],0,0.666660100000172,0.1,0,0,AccAcc,22,18,Woman,Right,
28,4,1,2.516730599999846,['c'],1,left,['u'],0,0.6136137000000872,0.1,0,0,AccAcc,22,18,Woman,Right,
29,4,1,1.16640110000003,['n'],1,right,['e'],1,0.8489478999999847,0.2,1,0,AccAcc,22,18,Woman,Right,
30,4,1,0.6834489000000303,['c'],1,left,['e'],1,0.3657190999999784,0.4,1,0,AccAcc,22,18,Woman,Right,
31,4,1,0.9175866000000497,['n'],0,left,['u'],0,0.5643185999999787,0.1,1,0,AccAcc,22,18,Woman,Right,
32,4,1,0.7669610000000375,['c'],1,left,['e'],1,0.4169064000000162,0.4,1,0,AccAcc,22,18,Woman,Right,
33,4,1,0.6339932000000772,['c'],1,left,['e'],1,0.4009204999999838,0.1,1,0,AccAcc,22,18,Woman,Right,
34,4,1,1.3170058999999128,['n'],0,left,['u'],0,0.3499085999999352,0.2,1,0,AccAcc,22,18,Woman,Right,
35,4,1,2.9673079999997753,['c'],0,right,['e'],1,0.595762700000023,0.1,0,0,AccAcc,22,18,Woman,Right,
36,4,1,0.7827551000000312,['n'],1,right,['e'],1,0.5751192999998693,0.4,1,0,AccAcc,22,18,Woman,Right,
37,4,1,0.666445000000067,['n'],1,right,['e'],1,0.5675756000000547,0.4,1,0,AccAcc,22,18,Woman,Right,
38,4,1,0.7823201000001063,['n'],1,right,['u'],0,0.9075906999999006,0.1,0,0,AccAcc,22,18,Woman,Right,
39,4,1,1.033499299999903,['n'],1,right,['e'],1,0.49606489999996484,0.1,1,0,AccAcc,22,18,Woman,Right,
40,4,1,0.5993641000000025,['c'],1,left,['u'],0,0.40708089999998265,0.1,0,0,AccAcc,22,18,Woman,Right,
41,4,1,2.3160009000000628,['c'],1,left,['u'],0,0.8843110999998771,0.2,0,0,AccAcc,22,18,Woman,Right,
42,4,1,0.8829031000000214,['n'],1,right,['e'],1,0.40764500000000226,0.2,1,0,AccAcc,22,18,Woman,Right,
43,4,1,2.5833470000000034,['n'],1,right,['u'],0,0.6743728000001283,0.1,0,0,AccAcc,22,18,Woman,Right,
44,4,1,1.6820588000000498,['c'],1,left,['u'],0,0.5506803000000673,0.2,0,0,AccAcc,22,18,Woman,Right,
45,4,1,0.6831697000000077,['c'],1,left,['e'],1,0.40740059999984624,0.4,1,0,AccAcc,22,18,Woman,Right,
46,4,1,2.3494849999999587,['n'],1,right,['u'],0,0.419223699999975,0.1,0,0,AccAcc,22,18,Woman,Right,
47,4,1,1.5497459000000617,['c'],1,left,['e'],1,0.3744286999999531,0.2,1,0,AccAcc,22,18,Woman,Right,
48,4,1,1.149650900000097,['c'],1,left,['u'],0,1.148109599999998,0.2,0,0,AccAcc,22,18,Woman,Right,
49,4,1,1.0661017999998421,['n'],1,right,['e'],1,0.5651315000000068,0.2,1,0,AccAcc,22,18,Woman,Right,
50,4,1,2.5160637000001316,['n'],1,right,['u'],0,0.3799334000000272,0.1,0,0,AccAcc,22,18,Woman,Right,
51,4,1,0.6663755999998102,['c'],1,left,['u'],0,0.4037396000001081,0.2,0,0,AccAcc,22,18,Woman,Right,
52,4,1,0.8831857000000127,['n'],1,right,['e'],1,0.32235949999994773,0.1,1,0,AccAcc,22,18,Woman,Right,
53,4,1,1.1164479000001393,['n'],1,right,['u'],0,0.4911819999999807,0.1,0,0,AccAcc,22,18,Woman,Right,
54,4,1,0.767281199999843,['n'],1,right,['u'],0,0.4431021000000328,0.4,0,0,AccAcc,22,18,Woman,Right,
55,4,1,0.6497156999998879,['n'],1,right,['e'],1,0.5538884999998572,0.2,1,0,AccAcc,22,18,Woman,Right,
56,4,1,0.9503111999999874,['n'],1,right,['u'],0,0.45605969999996887,0.4,0,0,AccAcc,22,18,Woman,Right,
57,4,1,0.983891500000027,['c'],1,left,['e'],1,0.3283288000000084,0.4,1,0,AccAcc,22,18,Woman,Right,
58,4,1,1.366687200000115,['n'],1,right,['e'],1,0.9512322999999014,0.2,1,0,AccAcc,22,18,Woman,Right,
59,4,1,0.8160288999999921,['n'],0,left,['u'],0,0.37067849999993996,0.1,1,0,AccAcc,22,18,Woman,Right,
0,5,1,0.9495186000001468,['c'],1,left,['e'],1,0.8387063000000126,0.2,1,0,FastAcc,22,18,Woman,Right,
1,5,1,0.31554800000003524,['n'],0,left,['u'],0,0.41084330000012415,0.2,1,0,FastAcc,22,18,Woman,Right,
2,5,1,0.3670488000000205,['c'],1,left,['u'],0,0.6142385999999078,0.1,0,0,FastAcc,22,18,Woman,Right,
3,5,1,0.7331087000000025,['n'],0,left,['u'],0,0.5219405000000279,0.1,1,0,FastAcc,22,18,Woman,Right,
4,5,1,0.7336483999999928,['n'],0,left,['u'],0,0.9781207999999424,0.1,1,0,FastAcc,22,18,Woman,Right,
5,5,1,0.5658049000001029,['c'],1,left,['e'],1,0.5830148000000008,0.4,1,0,FastAcc,22,18,Woman,Right,
6,5,1,0.5994844999997895,['n'],1,right,['e'],1,0.5213532000000214,0.2,1,0,FastAcc,22,18,Woman,Right,
7,5,1,0.6995635000000675,['c'],1,left,['e'],1,0.29878529999996317,0.1,1,0,FastAcc,22,18,Woman,Right,
8,5,1,0.6830939000001308,['n'],1,right,['e'],1,0.30141580000008616,0.2,1,0,FastAcc,22,18,Woman,Right,
9,5,1,0.6494102999999996,['n'],1,right,['e'],1,0.2973544999999831,0.1,1,0,FastAcc,22,18,Woman,Right,
10,5,1,0.5000578000001497,['c'],1,left,['e'],1,0.4596177999999327,0.4,1,0,FastAcc,22,18,Woman,Right,
11,5,1,0.5829191000000264,['c'],1,left,['e'],1,0.2601734999998371,0.4,1,0,FastAcc,22,18,Woman,Right,
12,5,1,0.6497233000000051,['c'],1,left,['u'],0,1.169963700000153,0.2,0,0,FastAcc,22,18,Woman,Right,
13,5,1,0.9659550000001218,['n'],0,left,['u'],0,0.2710048999999799,0.1,1,0,FastAcc,22,18,Woman,Right,
14,5,1,0.8674783999999818,['n'],1,right,['e'],1,0.29159649999996873,0.4,1,0,FastAcc,22,18,Woman,Right,
15,5,1,0.516450500000019,['n'],1,right,['e'],1,0.32551970000008623,0.4,1,0,FastAcc,22,18,Woman,Right,
16,5,1,0.6663447000000815,['n'],1,right,['u'],0,0.352304199999935,0.1,0,0,FastAcc,22,18,Woman,Right,
17,5,1,0.6998739999999088,['c'],1,left,['e'],1,0.4642413999999917,0.1,1,0,FastAcc,22,18,Woman,Right,
18,5,1,0.649762199999941,['n'],1,right,['e'],1,0.28566989999990255,0.4,1,0,FastAcc,22,18,Woman,Right,
19,5,1,0.4503958000000239,['n'],1,right,['e'],1,0.30628630000001067,0.1,1,0,FastAcc,22,18,Woman,Right,
20,5,1,0.5330390999999963,['n'],1,right,['e'],1,0.32288610000000517,0.4,1,0,FastAcc,22,18,Woman,Right,
21,5,1,0.431609200000139,['c'],0,right,['u'],0,0.23887889999991785,0.2,1,0,FastAcc,22,18,Woman,Right,
22,5,1,0.5330631000001631,['n'],0,left,['u'],0,0.38629979999996067,0.1,1,0,FastAcc,22,18,Woman,Right,
23,5,1,0.6329565000000912,['c'],1,left,['e'],1,0.2516355999998723,0.1,1,0,FastAcc,22,18,Woman,Right,
24,5,1,0.5166042000000743,['c'],1,left,['e'],1,0.28700479999997697,0.2,1,0,FastAcc,22,18,Woman,Right,
25,5,1,1.0161568000000898,['c'],1,left,['e'],1,0.23690629999987323,0.2,1,0,FastAcc,22,18,Woman,Right,
26,5,1,0.5158445000001848,['c'],1,left,['e'],1,0.2810880999998062,0.4,1,0,FastAcc,22,18,Woman,Right,
27,5,1,0.599860499999977,['n'],1,right,['u'],0,0.37582960000008825,0.4,0,0,FastAcc,22,18,Woman,Right,
28,5,1,0.8005293000001075,['n'],1,right,['u'],0,0.37096999999994296,0.1,0,0,FastAcc,22,18,Woman,Right,
29,5,1,0.7498619999998937,['n'],0,left,['u'],0,0.4563828000000285,0.2,1,0,FastAcc,22,18,Woman,Right,
30,5,1,0.5830300999998599,['c'],1,left,['e'],1,0.256824700000152,0.2,1,0,FastAcc,22,18,Woman,Right,
31,5,1,0.5830740999999762,['n'],1,right,['e'],1,0.29760510000005524,0.2,1,0,FastAcc,22,18,Woman,Right,
32,5,1,0.5830005000000256,['c'],1,left,['e'],1,0.2883762999999817,0.4,1,0,FastAcc,22,18,Woman,Right,
33,5,1,0.5508818000000701,['c'],1,left,['e'],1,0.2971040999998422,0.4,1,0,FastAcc,22,18,Woman,Right,
34,5,1,0.532910099999981,['c'],0,right,['u'],0,0.5462406999999985,0.4,1,0,FastAcc,22,18,Woman,Right,
35,5,1,0.6497471000000132,['n'],1,right,['e'],1,0.5084845999999743,0.2,1,0,FastAcc,22,18,Woman,Right,
36,5,1,0.5663520000000517,['c'],1,left,['e'],1,0.2760728000000654,0.1,1,0,FastAcc,22,18,Woman,Right,
37,5,1,0.6167222999999922,['n'],0,left,['u'],0,0.33848280000006525,0.2,1,0,FastAcc,22,18,Woman,Right,
38,5,1,1.6496772999998939,['n'],1,right,['u'],0,0.31705239999996593,0.1,0,0,FastAcc,22,18,Woman,Right,
39,5,1,1.9496257000000696,['c'],0,right,['e'],1,0.4125237000000652,0.1,0,0,FastAcc,22,18,Woman,Right,
40,5,1,0.6831975000000057,['n'],1,right,['e'],1,0.5791666000000077,0.4,1,0,FastAcc,22,18,Woman,Right,
41,5,1,1.5327455000001464,['n'],0,left,['u'],0,0.6735071000000517,0.1,1,0,FastAcc,22,18,Woman,Right,
42,5,1,0.4994821000000229,['n'],1,right,['u'],0,0.4046077000000423,0.4,0,0,FastAcc,22,18,Woman,Right,
43,5,1,0.4998161999999411,['n'],1,right,['e'],1,0.37844270000005054,0.1,1,0,FastAcc,22,18,Woman,Right,
44,5,1,0.4164418000000296,['c'],0,right,['u'],0,0.6932503000000452,0.1,1,0,FastAcc,22,18,Woman,Right,
45,5,1,1.3164354999998977,['c'],1,left,['u'],0,0.20705540000017209,0.2,0,0,FastAcc,22,18,Woman,Right,
46,5,1,0.8494666999999936,['n'],1,right,['u'],0,0.39938070000016523,0.2,0,0,FastAcc,22,18,Woman,Right,
47,5,1,0.6661741000000347,['n'],1,right,['u'],0,0.24656419999996615,0.4,0,0,FastAcc,22,18,Woman,Right,
48,5,1,0.5165166000001591,['c'],1,left,['e'],1,0.2665119999999206,0.4,1,0,FastAcc,22,18,Woman,Right,
49,5,1,0.4667642999997952,['n'],1,right,['e'],1,0.31122990000017126,0.4,1,0,FastAcc,22,18,Woman,Right,
50,5,1,0.549474200000077,['n'],1,right,['e'],1,0.2393750999999611,0.2,1,0,FastAcc,22,18,Woman,Right,
51,5,1,0.4656463999999687,['n'],1,right,['e'],1,0.2453605000000607,0.2,1,0,FastAcc,22,18,Woman,Right,
52,5,1,0.4331323000001248,['n'],1,right,['e'],1,0.26085349999993923,0.4,1,0,FastAcc,22,18,Woman,Right,
53,5,1,0.5331287999999859,['n'],1,right,['e'],1,0.2793087000000014,0.2,1,0,FastAcc,22,18,Woman,Right,
54,5,1,0.6330958999999439,['c'],1,left,['u'],0,0.26922530000001643,0.1,0,0,FastAcc,22,18,Woman,Right,
55,5,1,0.5497439000000668,['n'],1,right,['e'],1,0.25466549999987365,0.4,1,0,FastAcc,22,18,Woman,Right,
56,5,1,0.44943289999991975,['n'],1,right,['e'],1,0.2607203000000027,0.4,1,0,FastAcc,22,18,Woman,Right,
57,5,1,0.7825187000000824,['c'],1,left,['e'],1,1.0452735999999732,0.2,1,0,FastAcc,22,18,Woman,Right,
58,5,1,0.6001220999999077,['n'],0,left,['e'],1,0.302063999999973,0.2,0,0,FastAcc,22,18,Woman,Right,
59,5,1,1.0496931000000131,['n'],0,left,['e'],1,1.018040800000108,0.1,0,0,FastAcc,22,18,Woman,Right,
0,6,1,0.7652539000000615,['n'],0,left,['u'],0,0.3748233999999684,0.1,1,0,FastFast,22,18,Woman,Right,
1,6,1,0.4503187000000253,['c'],0,right,['e'],1,0.26400519999992866,0.2,0,0,FastFast,22,18,Woman,Right,
2,6,1,0.6651245999998991,['n'],1,right,['u'],0,0.2848645999999917,0.2,0,0,FastFast,22,18,Woman,Right,
3,6,1,0.7166251000001012,['n'],0,left,['u'],0,0.39871729999981653,0.2,1,0,FastFast,22,18,Woman,Right,
4,6,1,0.6663567000000512,['c'],1,left,['u'],0,0.27816440000015064,0.1,0,0,FastFast,22,18,Woman,Right,
5,6,1,0.6663774000001013,['c'],1,left,['u'],0,0.37906229999998686,0.4,0,0,FastFast,22,18,Woman,Right,
6,6,1,0.8827410999999756,['c'],1,left,['u'],0,0.29897769999979573,0.4,0,0,FastFast,22,18,Woman,Right,
7,6,1,0.7330987000000277,['c'],0,right,['u'],0,0.4514666000000034,0.1,1,0,FastFast,22,18,Woman,Right,
8,6,1,0.8992404000000533,['n'],1,right,['u'],0,0.2393449999999575,0.2,0,0,FastFast,22,18,Woman,Right,
9,6,1,0.6662707999998929,['c'],0,right,['u'],0,0.2694538000000648,0.1,1,0,FastFast,22,18,Woman,Right,
10,6,1,0.5331269999999222,['n'],1,right,['u'],0,0.31958899999995083,0.1,0,0,FastFast,22,18,Woman,Right,
11,6,1,0.38378689999990456,['c'],0,right,['u'],0,0.6695419000000129,0.4,1,0,FastFast,22,18,Woman,Right,
12,6,1,0.7493693999999778,['n'],1,right,['u'],0,0.3749920000000202,0.2,0,0,FastFast,22,18,Woman,Right,
13,6,1,0.7332896000000346,['c'],1,left,['u'],0,0.213358400000061,0.1,0,0,FastFast,22,18,Woman,Right,
14,6,1,0.5834557999999106,['n'],1,right,['u'],0,0.2389501999998629,0.4,0,0,FastFast,22,18,Woman,Right,
15,6,1,0.6833822999999484,['n'],1,right,['u'],0,0.21219589999986965,0.2,0,0,FastFast,22,18,Woman,Right,
16,6,1,0.6833572999998978,['c'],1,left,['e'],1,0.29895910000004733,0.2,1,0,FastFast,22,18,Woman,Right,
17,6,1,0.6825526000000082,['n'],0,left,['u'],0,0.22959700000001249,0.4,1,0,FastFast,22,18,Woman,Right,
18,6,1,0.7164763999999195,['n'],1,right,['e'],1,0.15431029999990642,0.2,1,0,FastFast,22,18,Woman,Right,
19,6,1,0.5489804999999706,['n'],1,right,['e'],1,0.23222959999998238,0.1,1,0,FastFast,22,18,Woman,Right,
20,6,1,0.4996155999999701,['n'],1,right,['e'],1,0.221169300000156,0.2,1,0,FastFast,22,18,Woman,Right,
21,6,1,0.4164250000001175,['c'],1,left,['u'],0,0.16577540000002955,0.4,0,0,FastFast,22,18,Woman,Right,
22,6,1,0.49976749999996173,['n'],1,right,['e'],1,0.14095659999998134,0.2,1,0,FastFast,22,18,Woman,Right,
23,6,1,0.39998930000001565,['n'],1,right,['e'],1,0.16960930000004737,0.4,1,0,FastFast,22,18,Woman,Right,
24,6,1,0.5160645000000841,['n'],0,left,['u'],0,0.37655370000015864,0.1,1,0,FastFast,22,18,Woman,Right,
25,6,1,0.7325838000001568,['c'],1,left,['e'],1,0.30225980000000163,0.1,1,0,FastFast,22,18,Woman,Right,
26,6,1,1.0164320999999745,['n'],0,left,['u'],0,0.2675578000000769,0.1,1,0,FastFast,22,18,Woman,Right,
27,6,1,0.6996888000001036,['c'],1,left,['e'],1,0.1990714000000935,0.4,1,0,FastFast,22,18,Woman,Right,
28,6,1,0.900600200000099,['n'],0,left,['u'],0,0.6049772999999732,0.2,1,0,FastFast,22,18,Woman,Right,
29,6,1,0.6494427000000087,['n'],1,right,['u'],0,0.3732603000000836,0.1,0,0,FastFast,22,18,Woman,Right,
30,6,1,0.5321427999999742,['n'],1,right,['u'],0,0.21911470000009103,0.4,0,0,FastFast,22,18,Woman,Right,
31,6,1,0.4651597000001857,['c'],1,left,['e'],1,0.18562960000008388,0.1,1,0,FastFast,22,18,Woman,Right,
32,6,1,0.6330457999999908,['c'],1,left,['e'],1,0.22716739999987112,0.1,1,0,FastFast,22,18,Woman,Right,
33,6,1,0.4329789000000801,['n'],0,left,['u'],0,0.4511608000000251,0.4,1,0,FastFast,22,18,Woman,Right,
34,6,1,0.6490433999999823,['n'],1,right,['e'],1,0.2893756000000849,0.4,1,0,FastFast,22,18,Woman,Right,
35,6,1,0.5835015000000112,['n'],1,right,['e'],1,0.20844419999980346,0.2,1,0,FastFast,22,18,Woman,Right,
36,6,1,0.5996322999999393,['n'],1,right,['e'],1,0.22635999999988599,0.4,1,0,FastFast,22,18,Woman,Right,
37,6,1,0.9320615999999973,['n'],0,left,['e'],1,0.1584215000000313,0.4,0,0,FastFast,22,18,Woman,Right,
38,6,1,0.8326448999998775,['n'],0,left,['e'],1,0.48938670000006823,0.1,0,0,FastFast,22,18,Woman,Right,
39,6,1,1.0998807000000852,['n'],0,left,['u'],0,0.2039486000001034,0.2,1,0,FastFast,22,18,Woman,Right,
40,6,1,0.5667241000001013,['n'],1,right,['e'],1,0.3751979000001029,0.4,1,0,FastFast,22,18,Woman,Right,
41,6,1,1.0153272999998535,['n'],1,right,['e'],1,0.27378090000001976,0.2,1,0,FastFast,22,18,Woman,Right,
42,6,1,0.5161754000000656,['n'],1,right,['u'],0,0.6045344000001478,0.2,0,0,FastFast,22,18,Woman,Right,
43,6,1,0.5662155999998504,['c'],1,left,['e'],1,0.3841295000001992,0.2,1,0,FastFast,22,18,Woman,Right,
44,6,1,1.1828395,['n'],1,right,['u'],0,0.29117390000010346,0.1,0,0,FastFast,22,18,Woman,Right,
45,6,1,0.6832902999999533,['c'],1,left,['e'],1,0.28647929999988264,0.4,1,0,FastFast,22,18,Woman,Right,
46,6,1,1.1332764999999654,['n'],0,left,['u'],0,0.2398269000000255,0.1,1,0,FastFast,22,18,Woman,Right,
47,6,1,0.5486039999998411,['n'],1,right,['e'],1,0.3866765000000214,0.1,1,0,FastFast,22,18,Woman,Right,
48,6,1,1.3662371999998868,['n'],1,right,['e'],1,0.526603699999896,0.1,1,0,FastFast,22,18,Woman,Right,
49,6,1,1.0331381999999394,['n'],1,right,['e'],1,0.3150333999999475,0.4,1,0,FastFast,22,18,Woman,Right,
50,6,1,0.9494004000000587,['n'],1,right,['e'],1,0.2342595000000074,0.1,1,0,FastFast,22,18,Woman,Right,
51,6,1,1.0830768999999236,['n'],0,left,['u'],0,0.455344999999852,0.2,1,0,FastFast,22,18,Woman,Right,
52,6,1,0.7826244999998835,['c'],1,left,['e'],1,0.2322548999998162,0.4,1,0,FastFast,22,18,Woman,Right,
53,6,1,0.7821149000001242,['c'],1,left,['e'],1,0.25724830000012844,0.4,1,0,FastFast,22,18,Woman,Right,
54,6,1,0.8162426000001233,['n'],1,right,['e'],1,0.2806876000001921,0.2,1,0,FastFast,22,18,Woman,Right,
55,6,1,0.6161736999999903,['n'],0,left,['e'],1,0.32656280000014704,0.4,0,0,FastFast,22,18,Woman,Right,
56,6,1,0.6830202999999528,['c'],1,left,['e'],1,0.12070310000012796,0.2,1,0,FastFast,22,18,Woman,Right,
57,6,1,0.5667132000000947,['c'],1,left,['e'],1,0.16749929999991764,0.1,1,0,FastFast,22,18,Woman,Right,
58,6,1,0.8328750000000582,['n'],0,left,['e'],1,0.19348520000016833,0.2,0,0,FastFast,22,18,Woman,Right,
59,6,1,0.5996212000000014,['n'],1,right,['e'],1,0.25211349999995036,0.4,1,0,FastFast,22,18,Woman,Right,
0,7,1,2.749062300000105,['c'],0,right,['u'],0,1.4123758000000635,0.1,1,0,AccFast,22,18,Woman,Right,
1,7,1,2.4330437999999504,['n'],1,right,['e'],1,0.7651086999999279,0.1,1,0,AccFast,22,18,Woman,Right,
2,7,1,0.6993222999999489,['c'],1,left,['u'],0,0.7961234999997941,0.4,0,0,AccFast,22,18,Woman,Right,
3,7,1,3.08279860000016,['c'],1,left,['u'],0,0.7556448999998793,0.1,0,0,AccFast,22,18,Woman,Right,
4,7,1,1.1663565000003473,['n'],1,right,['u'],0,0.8967489000001478,0.4,0,0,AccFast,22,18,Woman,Right,
5,7,1,0.8825913999999102,['n'],1,right,['e'],1,1.3316383999999744,0.4,1,0,AccFast,22,18,Woman,Right,
6,7,1,0.849469499999941,['c'],1,left,['u'],0,0.2700454999999238,0.2,0,0,AccFast,22,18,Woman,Right,
7,7,1,0.7327840000002652,['c'],1,left,['e'],1,0.24017730000014126,0.2,1,0,AccFast,22,18,Woman,Right,
8,7,1,1.0329496000003928,['c'],1,left,['u'],0,0.5360574999999699,0.2,0,0,AccFast,22,18,Woman,Right,
9,7,1,0.5832208000001629,['c'],1,left,['u'],0,0.5089895999999499,0.4,0,0,AccFast,22,18,Woman,Right,
10,7,1,0.6828337000001738,['c'],1,left,['u'],0,0.26371539999991,0.1,0,0,AccFast,22,18,Woman,Right,
11,7,1,2.1993333999998868,['n'],1,right,['u'],0,0.5349322000001848,0.2,0,0,AccFast,22,18,Woman,Right,
12,7,1,1.1164364000001115,['n'],1,right,['e'],1,0.29498030000013387,0.1,1,0,AccFast,22,18,Woman,Right,
13,7,1,2.7495990000002166,['n'],1,right,['u'],0,0.5756930000002285,0.1,0,0,AccFast,22,18,Woman,Right,
14,7,1,1.4657933999997113,['n'],1,right,['e'],1,0.352340699999786,0.2,1,0,AccFast,22,18,Woman,Right,
15,7,1,1.0329242000002523,['n'],0,left,['u'],0,0.7391907000001083,0.1,1,0,AccFast,22,18,Woman,Right,
16,7,1,0.4658254000000852,['n'],1,right,['u'],0,0.4448595999997451,0.2,0,0,AccFast,22,18,Woman,Right,
17,7,1,0.8003871999999319,['c'],1,left,['e'],1,0.4459372000001167,0.4,1,0,AccFast,22,18,Woman,Right,
18,7,1,0.5495617999999922,['c'],1,left,['e'],1,0.5684234000000288,0.4,1,0,AccFast,22,18,Woman,Right,
19,7,1,1.600133200000073,['n'],1,right,['u'],0,0.32390780000014274,0.1,0,0,AccFast,22,18,Woman,Right,
20,7,1,0.8333055999996759,['c'],1,left,['e'],1,0.4397876000002725,0.4,1,0,AccFast,22,18,Woman,Right,
21,7,1,0.8495662000000266,['c'],1,left,['e'],1,0.1904034000003776,0.2,1,0,AccFast,22,18,Woman,Right,
22,7,1,0.5830946999999469,['c'],1,left,['u'],0,0.7938005000000885,0.4,0,0,AccFast,22,18,Woman,Right,
23,7,1,0.7997482000000673,['c'],1,left,['e'],1,0.3164033000002746,0.4,1,0,AccFast,22,18,Woman,Right,
24,7,1,0.982704399999875,['n'],1,right,['u'],0,0.37840649999998277,0.1,0,0,AccFast,22,18,Woman,Right,
25,7,1,1.383034000000407,['c'],1,left,['u'],0,0.22237589999986085,0.2,0,0,AccFast,22,18,Woman,Right,
26,7,1,1.36649959999977,['n'],0,left,['u'],0,0.13709200000039345,0.1,1,0,AccFast,22,18,Woman,Right,
27,7,1,0.716386600000078,['c'],0,right,['e'],1,0.2333097999999154,0.1,0,0,AccFast,22,18,Woman,Right,
28,7,1,0.8827440000000024,['n'],1,right,['e'],1,0.7427285999997366,0.2,1,0,AccFast,22,18,Woman,Right,
29,7,1,0.7829878000002282,['c'],0,right,['u'],0,0.3402989000001071,0.2,1,0,AccFast,22,18,Woman,Right,
30,7,1,1.7496636999999282,['n'],1,right,['e'],1,0.530562700000246,0.1,1,0,AccFast,22,18,Woman,Right,
31,7,1,0.5831367999999202,['c'],1,left,['e'],1,0.22447090000014214,0.4,1,0,AccFast,22,18,Woman,Right,
32,7,1,0.9002643999997417,['n'],1,right,['e'],1,0.1899038000001383,0.2,1,0,AccFast,22,18,Woman,Right,
33,7,1,0.8663191999999071,['n'],1,right,['e'],1,0.19801860000006855,0.4,1,0,AccFast,22,18,Woman,Right,
34,7,1,0.7830474000002141,['c'],1,left,['e'],1,0.13667460000033316,0.1,1,0,AccFast,22,18,Woman,Right,
35,7,1,0.7826427999998486,['n'],1,right,['e'],1,0.10204620000013165,0.1,1,0,AccFast,22,18,Woman,Right,
36,7,1,0.49960029999965627,['n'],1,right,['e'],1,0.1758946999998443,0.4,1,0,AccFast,22,18,Woman,Right,
37,7,1,0.9492252000000008,['c'],1,left,['u'],0,0.2930687999996735,0.2,0,0,AccFast,22,18,Woman,Right,
38,7,1,0.9662214999998469,['n'],0,left,['u'],0,0.38118250000025,0.2,1,0,AccFast,22,18,Woman,Right,
39,7,1,0.5659813999996004,['n'],1,right,['e'],1,0.32874779999974635,0.2,1,0,AccFast,22,18,Woman,Right,
40,7,1,0.5837053000000196,['n'],0,left,['e'],1,0.19113900000002104,0.2,0,0,AccFast,22,18,Woman,Right,
41,7,1,0.615555299999869,['n'],1,right,['e'],1,0.21720649999997477,0.4,1,0,AccFast,22,18,Woman,Right,
42,7,1,1.1827550000002702,['n'],1,right,['u'],0,0.2833810000001904,0.2,0,0,AccFast,22,18,Woman,Right,
43,7,1,0.6504252999998243,['n'],1,right,['u'],0,0.36026570000012725,0.1,0,0,AccFast,22,18,Woman,Right,
44,7,1,0.4329521999998178,['n'],0,left,['u'],0,0.33855350000021645,0.1,1,0,AccFast,22,18,Woman,Right,
45,7,1,1.1836521000000175,['c'],1,left,['e'],1,0.21601550000013958,0.1,1,0,AccFast,22,18,Woman,Right,
46,7,1,0.8995530000001963,['c'],1,left,['e'],1,0.1732649999999012,0.2,1,0,AccFast,22,18,Woman,Right,
47,7,1,0.6331190999999308,['c'],1,left,['e'],1,0.16718779999973776,0.4,1,0,AccFast,22,18,Woman,Right,
48,7,1,0.7996186999998827,['n'],0,left,['u'],0,0.322722899999917,0.2,1,0,AccFast,22,18,Woman,Right,
49,7,1,1.0659992000000784,['n'],1,right,['u'],0,0.301495100000011,0.1,0,0,AccFast,22,18,Woman,Right,
50,7,1,0.6992166999998517,['n'],1,right,['e'],1,0.31141459999980725,0.2,1,0,AccFast,22,18,Woman,Right,
51,7,1,0.5830061000001479,['n'],1,right,['e'],1,0.2141953000000285,0.4,1,0,AccFast,22,18,Woman,Right,
52,7,1,0.7497841999997945,['c'],1,left,['e'],1,0.14533679999976812,0.4,1,0,AccFast,22,18,Woman,Right,
53,7,1,0.9996193000001767,['n'],1,right,['u'],0,0.29400729999997566,0.1,0,0,AccFast,22,18,Woman,Right,
54,7,1,0.5994823999999426,['n'],1,right,['e'],1,0.30867620000026363,0.4,1,0,AccFast,22,18,Woman,Right,
55,7,1,0.6496503999997003,['n'],1,right,['e'],1,0.14465709999967657,0.4,1,0,AccFast,22,18,Woman,Right,
56,7,1,0.7328287000000273,['n'],1,right,['e'],1,0.14408460000004197,0.4,1,0,AccFast,22,18,Woman,Right,
57,7,1,0.733318899999631,['c'],1,left,['e'],1,0.19140500000003158,0.2,1,0,AccFast,22,18,Woman,Right,
58,7,1,0.7497127999999975,['c'],1,left,['e'],1,0.32417179999993095,0.4,1,0,AccFast,22,18,Woman,Right,
59,7,1,1.016141599999628,['n'],0,left,['e'],1,0.17664939999986018,0.1,0,0,AccFast,22,18,Woman,Right,
0,8,1,1.1486265000003186,['c'],1,left,['u'],0,1.3361626000000797,0.1,0,0,AccAcc,22,18,Woman,Right,
1,8,1,2.149393300000156,['n'],1,right,['e'],1,0.566582599999947,0.2,1,0,AccAcc,22,18,Woman,Right,
2,8,1,0.7002594999999019,['n'],1,right,['e'],1,0.3742478000003757,0.4,1,0,AccAcc,22,18,Woman,Right,
3,8,1,0.982940299999882,['c'],1,left,['e'],1,0.41824459999998,0.1,1,0,AccAcc,22,18,Woman,Right,
4,8,1,0.78332730000011,['c'],1,left,['e'],1,0.3004805000000488,0.4,1,0,AccAcc,22,18,Woman,Right,
5,8,1,0.6160347000000002,['n'],1,right,['e'],1,0.3296448999999484,0.4,1,0,AccAcc,22,18,Woman,Right,
6,8,1,2.6165246999999,['n'],0,left,['u'],0,0.3983194000002186,0.1,1,0,AccAcc,22,18,Woman,Right,
7,8,1,0.699272899999869,['n'],1,right,['e'],1,0.28425400000014633,0.2,1,0,AccAcc,22,18,Woman,Right,
8,8,1,0.599525800000265,['c'],1,left,['e'],1,0.15501710000035018,0.4,1,0,AccAcc,22,18,Woman,Right,
9,8,1,0.6991388999999799,['c'],1,left,['e'],1,0.34707669999988866,0.4,1,0,AccAcc,22,18,Woman,Right,
10,8,1,0.6164229000000887,['c'],1,left,['e'],1,0.2707797000002756,0.4,1,0,AccAcc,22,18,Woman,Right,
11,8,1,0.6829995999996754,['c'],1,left,['e'],1,0.32301289999986693,0.4,1,0,AccAcc,22,18,Woman,Right,
12,8,1,0.8494607000002361,['n'],1,right,['e'],1,1.3344014999997853,0.1,1,0,AccAcc,22,18,Woman,Right,
13,8,1,2.6663955000003625,['n'],0,left,['u'],0,0.44040270000004966,0.2,1,0,AccAcc,22,18,Woman,Right,
14,8,1,0.6663812000001599,['n'],1,right,['u'],0,0.52640109999993,0.1,0,0,AccAcc,22,18,Woman,Right,
15,8,1,1.049383499999749,['n'],1,right,['u'],0,0.3458122000001822,0.1,0,0,AccAcc,22,18,Woman,Right,
16,8,1,3.249284400000306,['n'],1,right,['u'],0,0.380402100000083,0.1,0,0,AccAcc,22,18,Woman,Right,
17,8,1,0.9163965999996435,['n'],1,right,['u'],0,0.4909732000000986,0.2,0,0,AccAcc,22,18,Woman,Right,
18,8,1,0.8840266000001975,['c'],1,left,['e'],1,0.4624138000003768,0.4,1,0,AccAcc,22,18,Woman,Right,
19,8,1,0.716849700000239,['c'],1,left,['u'],0,0.3378443999999945,0.2,0,0,AccAcc,22,18,Woman,Right,
20,8,1,1.182761600000049,['n'],0,left,['u'],0,0.5511108000000604,0.4,1,0,AccAcc,22,18,Woman,Right,
21,8,1,0.6995656000003692,['n'],1,right,['u'],0,0.3990039999998771,0.1,0,0,AccAcc,22,18,Woman,Right,
22,8,1,0.9496237999996993,['n'],0,left,['u'],0,0.3630997000000207,0.1,1,0,AccAcc,22,18,Woman,Right,
23,8,1,2.149355800000194,['n'],0,left,['u'],0,0.5290433000000121,0.1,1,0,AccAcc,22,18,Woman,Right,
24,8,1,0.8664315999999417,['c'],1,left,['e'],1,0.1717677999999978,0.2,1,0,AccAcc,22,18,Woman,Right,
25,8,1,0.7000938999999562,['n'],1,right,['e'],1,1.9553940000000694,0.4,1,0,AccAcc,22,18,Woman,Right,
26,8,1,1.7163217000002078,['c'],1,left,['e'],1,0.26661449999983233,0.4,1,0,AccAcc,22,18,Woman,Right,
27,8,1,0.5833143999998356,['n'],1,right,['u'],0,0.41053510000028837,0.4,0,0,AccAcc,22,18,Woman,Right,
28,8,1,0.8498483999997006,['n'],1,right,['u'],0,0.21871809999993275,0.4,0,0,AccAcc,22,18,Woman,Right,
29,8,1,0.8328053999998701,['n'],1,right,['e'],1,1.0346260000001166,0.2,1,0,AccAcc,22,18,Woman,Right,
30,8,1,0.8327134999999544,['n'],1,right,['u'],0,0.2737722000001668,0.4,0,0,AccAcc,22,18,Woman,Right,
31,8,1,1.5503839999996671,['n'],1,right,['u'],0,0.37113399999998364,0.4,0,0,AccAcc,22,18,Woman,Right,
32,8,1,1.099382500000047,['c'],1,left,['e'],1,0.21052760000020498,0.4,1,0,AccAcc,22,18,Woman,Right,
33,8,1,0.7982942000003277,['n'],1,right,['e'],1,0.34060790000012275,0.2,1,0,AccAcc,22,18,Woman,Right,
34,8,1,0.6161486999999397,['n'],1,right,['u'],0,0.432832800000142,0.4,0,0,AccAcc,22,18,Woman,Right,
35,8,1,0.7664138000000094,['n'],0,left,['u'],0,0.17870140000013635,0.1,1,0,AccAcc,22,18,Woman,Right,
36,8,1,0.8163302999996631,['c'],1,left,['e'],1,0.20499560000007477,0.1,1,0,AccAcc,22,18,Woman,Right,
37,8,1,0.7160207000001719,['n'],1,right,['e'],1,0.26647319999983665,0.1,1,0,AccAcc,22,18,Woman,Right,
38,8,1,1.2492176999999174,['n'],0,left,['e'],1,0.3438093999998273,0.2,0,0,AccAcc,22,18,Woman,Right,
39,8,1,0.6329141000001073,['n'],1,right,['u'],0,0.2830484000000979,0.2,0,0,AccAcc,22,18,Woman,Right,
40,8,1,0.9325604000000567,['c'],1,left,['e'],1,0.33240710000018225,0.1,1,0,AccAcc,22,18,Woman,Right,
41,8,1,0.6002521000000343,['n'],1,right,['u'],0,0.27342970000017885,0.2,0,0,AccAcc,22,18,Woman,Right,
42,8,1,0.7330174000003353,['n'],1,right,['u'],0,0.2752787999997963,0.2,0,0,AccAcc,22,18,Woman,Right,
43,8,1,1.2327731999998832,['n'],1,right,['u'],0,0.4657251999997243,0.1,0,0,AccAcc,22,18,Woman,Right,
44,8,1,1.2161160000000564,['n'],0,left,['u'],0,0.2880265000003419,0.1,1,0,AccAcc,22,18,Woman,Right,
45,8,1,1.199630900000102,['n'],0,left,['u'],0,0.2785786999997981,0.1,1,0,AccAcc,22,18,Woman,Right,
46,8,1,1.1329838999999993,['n'],0,left,['u'],0,0.3767390000002706,0.1,1,0,AccAcc,22,18,Woman,Right,
47,8,1,0.7322699000001194,['n'],1,right,['e'],1,0.33468779999975595,0.4,1,0,AccAcc,22,18,Woman,Right,
48,8,1,1.5660075999999208,['c'],0,right,['u'],0,0.3569612999999663,0.2,1,0,AccAcc,22,18,Woman,Right,
49,8,1,1.2332210000004125,['c'],1,left,['u'],0,0.3035918999999012,0.2,0,0,AccAcc,22,18,Woman,Right,
50,8,1,0.832611999999699,['n'],1,right,['u'],0,0.3881620000001931,0.2,0,0,AccAcc,22,18,Woman,Right,
51,8,1,0.9494623000000502,['c'],1,left,['e'],1,0.29664679999996224,0.2,1,0,AccAcc,22,18,Woman,Right,
52,8,1,1.500062600000092,['n'],0,left,['u'],0,0.41865180000013424,0.2,1,0,AccAcc,22,18,Woman,Right,
53,8,1,1.1995146999997814,['c'],1,left,['e'],1,0.2361399999999776,0.4,1,0,AccAcc,22,18,Woman,Right,
54,8,1,0.5828863000001547,['c'],1,left,['e'],1,0.4617530999998962,0.2,1,0,AccAcc,22,18,Woman,Right,
55,8,1,0.983535600000323,['n'],1,right,['u'],0,0.27019990000007965,0.1,0,0,AccAcc,22,18,Woman,Right,
56,8,1,0.7498630000000048,['c'],1,left,['e'],1,0.27143149999983507,0.2,1,0,AccAcc,22,18,Woman,Right,
57,8,1,0.7166341999995893,['n'],1,right,['u'],0,0.8661973000002945,0.4,0,0,AccAcc,22,18,Woman,Right,
58,8,1,1.849445100000139,['c'],0,right,['u'],0,0.5035170000001017,0.1,1,0,AccAcc,22,18,Woman,Right,
59,8,1,1.2825918000003185,['n'],1,right,['u'],0,0.3220974999999271,0.2,0,0,AccAcc,22,18,Woman,Right,
0,9,1,0.5822501000002376,['n'],1,right,['u'],0,0.7373207999999067,0.1,0,0,FastAcc,22,18,Woman,Right,
1,9,1,0.5667738000001918,['n'],1,right,['e'],1,0.27118620000010196,0.4,1,0,FastAcc,22,18,Woman,Right,
2,9,1,1.0495588000003409,['c'],1,left,['u'],0,0.39641800000026706,0.2,0,0,FastAcc,22,18,Woman,Right,
3,9,1,0.3173375000001215,['n'],1,right,['e'],1,0.45814089999976204,0.4,1,0,FastAcc,22,18,Woman,Right,
4,9,1,0.48256590000028154,['c'],1,left,['u'],0,0.46276350000016464,0.1,0,0,FastAcc,22,18,Woman,Right,
5,9,1,0.4834094999996523,['c'],1,left,['e'],1,0.5476229999999305,0.2,1,0,FastAcc,22,18,Woman,Right,
6,9,1,0.5827411000000211,['n'],1,right,['u'],0,0.9203489999999874,0.1,0,0,FastAcc,22,18,Woman,Right,
7,9,1,0.44912479999993593,['c'],1,left,['e'],1,0.6999097999996593,0.4,1,0,FastAcc,22,18,Woman,Right,
8,9,1,0.5672442000000046,['n'],1,right,['u'],0,0.6587443000003077,0.1,0,0,FastAcc,22,18,Woman,Right,
9,9,1,0.5496414999997796,['n'],1,right,['e'],1,0.4851005999998961,0.2,1,0,FastAcc,22,18,Woman,Right,
10,9,1,0.7326150000003508,['c'],1,left,['u'],0,0.6302670999998554,0.2,0,0,FastAcc,22,18,Woman,Right,
11,9,1,0.7496015000001535,['c'],1,left,['e'],1,0.7218877999998767,0.2,1,0,FastAcc,22,18,Woman,Right,
12,9,1,0.6658877999998367,['n'],0,left,['u'],0,0.4844935999999507,0.1,1,0,FastAcc,22,18,Woman,Right,
13,9,1,0.5828538000000663,['n'],1,right,['e'],1,0.4278116999998929,0.2,1,0,FastAcc,22,18,Woman,Right,
14,9,1,0.5993588999999702,['c'],1,left,['u'],0,0.6690742999999202,0.2,0,0,FastAcc,22,18,Woman,Right,
15,9,1,1.0162966000002598,['n'],1,right,['u'],0,0.5317672000001039,0.1,0,0,FastAcc,22,18,Woman,Right,
16,9,1,0.9164381000000503,['n'],0,left,['u'],0,0.5237660000002506,0.1,1,0,FastAcc,22,18,Woman,Right,
17,9,1,0.5836269000001266,['n'],1,right,['e'],1,0.8339241999997284,0.2,1,0,FastAcc,22,18,Woman,Right,
18,9,1,0.7502398999999969,['n'],0,left,['u'],0,0.396505199999865,0.2,1,0,FastAcc,22,18,Woman,Right,
19,9,1,0.6493614999999409,['n'],1,right,['e'],1,0.9252142000000276,0.4,1,0,FastAcc,22,18,Woman,Right,
20,9,1,0.36561989999972866,['n'],0,left,['u'],0,0.899880899999971,0.1,1,0,FastAcc,22,18,Woman,Right,
21,9,1,0.799363699999958,['n'],0,left,['u'],0,0.8418652000000293,0.2,1,0,FastAcc,22,18,Woman,Right,
22,9,1,0.5663190000000213,['n'],1,right,['e'],1,0.3556729000001724,0.4,1,0,FastAcc,22,18,Woman,Right,
23,9,1,1.6990022999998473,['n'],1,right,['u'],0,1.2119071000001895,0.2,0,0,FastAcc,22,18,Woman,Right,
24,9,1,0.6665044999999736,['n'],1,right,['u'],0,0.45147610000003624,0.1,0,0,FastAcc,22,18,Woman,Right,
25,9,1,0.5156503000002886,['n'],1,right,['e'],1,0.6784521999998105,0.4,1,0,FastAcc,22,18,Woman,Right,
26,9,1,0.43253530000038154,['n'],1,right,['e'],1,0.43653020000010656,0.4,1,0,FastAcc,22,18,Woman,Right,
27,9,1,0.6163979000002655,['n'],1,right,['e'],1,0.5645398000001478,0.4,1,0,FastAcc,22,18,Woman,Right,
28,9,1,0.915773000000172,['c'],0,right,['u'],0,0.47523369999998977,0.1,1,0,FastAcc,22,18,Woman,Right,
29,9,1,0.8160625000000437,['c'],0,right,['u'],0,0.5540006999999605,0.1,1,0,FastAcc,22,18,Woman,Right,
30,9,1,0.6496501000001444,['c'],1,left,['e'],1,0.6038993000001938,0.4,1,0,FastAcc,22,18,Woman,Right,
31,9,1,0.7657651999998052,['c'],0,right,['u'],0,0.5672767000000931,0.2,1,0,FastAcc,22,18,Woman,Right,
32,9,1,0.965429999999742,['n'],0,left,['u'],0,0.5879681000001256,0.1,1,0,FastAcc,22,18,Woman,Right,
33,9,1,1.2497621999996227,['n'],1,right,['e'],1,0.5088365000001431,0.1,1,0,FastAcc,22,18,Woman,Right,
34,9,1,0.9830391000000418,['c'],0,right,['u'],0,0.43535439999959635,0.1,1,0,FastAcc,22,18,Woman,Right,
35,9,1,1.449454699999933,['n'],1,right,['u'],0,0.8581623000000036,0.2,0,0,FastAcc,22,18,Woman,Right,
36,9,1,1.8326029999998354,['n'],1,right,['u'],0,0.5685969000001023,0.1,0,0,FastAcc,22,18,Woman,Right,
37,9,1,1.0988989999996193,['n'],1,right,['u'],0,0.3200243000001137,0.2,0,0,FastAcc,22,18,Woman,Right,
38,9,1,0.5497387000000344,['n'],0,left,['u'],0,0.41535949999979493,0.2,1,0,FastAcc,22,18,Woman,Right,
39,9,1,1.0486853000002156,['c'],1,left,['e'],1,0.5270320999998148,0.1,1,0,FastAcc,22,18,Woman,Right,
40,9,1,0.649081699999897,['c'],1,left,['e'],1,0.6740466999999626,0.4,1,0,FastAcc,22,18,Woman,Right,
41,9,1,0.44849669999985053,['c'],1,left,['e'],1,0.9834392000002481,0.2,1,0,FastAcc,22,18,Woman,Right,
42,9,1,1.250251500000104,['n'],1,right,['u'],0,0.7040518999997403,0.1,0,0,FastAcc,22,18,Woman,Right,
43,9,1,0.6326570999999603,['n'],1,right,['e'],1,0.42870159999984025,0.4,1,0,FastAcc,22,18,Woman,Right,
44,9,1,1.1813634999998612,['c'],1,left,['e'],1,0.5988588000000163,0.2,1,0,FastAcc,22,18,Woman,Right,
45,9,1,0.6162317999996958,['n'],1,right,['e'],1,0.9041136999999253,0.4,1,0,FastAcc,22,18,Woman,Right,
46,9,1,0.6997787999998764,['c'],1,left,['e'],1,0.6268340999999964,0.2,1,0,FastAcc,22,18,Woman,Right,
47,9,1,0.6831806000000142,['n'],0,left,['e'],1,0.9604307999998127,0.1,0,0,FastAcc,22,18,Woman,Right,
48,9,1,0.6332632999997259,['n'],1,right,['u'],0,0.3709046999997554,0.1,0,0,FastAcc,22,18,Woman,Right,
49,9,1,1.0503435000000536,['c'],1,left,['e'],1,0.46051489999990736,0.2,1,0,FastAcc,22,18,Woman,Right,
50,9,1,0.5490010000003167,['c'],1,left,['e'],1,0.5740178000000924,0.4,1,0,FastAcc,22,18,Woman,Right,
51,9,1,0.6661004000002322,['c'],1,left,['e'],1,0.3588827000003221,0.4,1,0,FastAcc,22,18,Woman,Right,
52,9,1,0.6318872000001647,['c'],1,left,['e'],1,0.4015693999999712,0.4,1,0,FastAcc,22,18,Woman,Right,
53,9,1,0.849481900000228,['n'],0,left,['u'],0,0.41738900000018475,0.2,1,0,FastAcc,22,18,Woman,Right,
54,9,1,0.7168452000000798,['c'],1,left,['e'],1,0.6217596000001322,0.1,1,0,FastAcc,22,18,Woman,Right,
55,9,1,1.2497152000000824,['c'],1,left,['e'],1,0.341524599999957,0.4,1,0,FastAcc,22,18,Woman,Right,
56,9,1,0.5990161999998236,['n'],1,right,['e'],1,1.0180866999999125,0.4,1,0,FastAcc,22,18,Woman,Right,
57,9,1,0.5492953999996644,['n'],1,right,['e'],1,0.245828199999778,0.4,1,0,FastAcc,22,18,Woman,Right,
58,9,1,0.41600319999997737,['c'],1,left,['e'],1,1.1736697999999706,0.4,1,0,FastAcc,22,18,Woman,Right,
59,9,1,0.5328740999998445,['c'],1,left,['e'],1,0.7075489999997444,0.4,1,0,FastAcc,22,18,Woman,Right,
0,10,1,0.5161742000000231,['n'],0,left,['u'],0,0.5323158999999578,0.1,1,0,FastFast,22,18,Woman,Right,
1,10,1,0.3333032999998977,['c'],0,right,['u'],0,0.4438836999997875,0.1,1,0,FastFast,22,18,Woman,Right,
2,10,1,0.34876130000020567,['c'],0,right,['u'],0,0.43834000000015294,0.1,1,0,FastFast,22,18,Woman,Right,
3,10,1,0.5495475999996415,['n'],1,right,['e'],1,0.38481899999987945,0.4,1,0,FastFast,22,18,Woman,Right,
4,10,1,0.43292790000032255,['n'],1,right,['u'],0,0.4584024999999201,0.1,0,0,FastFast,22,18,Woman,Right,
5,10,1,0.615239400000064,['n'],0,left,['e'],1,0.49772870000015246,0.2,0,0,FastFast,22,18,Woman,Right,
6,10,1,0.4826098000003185,['n'],1,right,['u'],0,0.42836860000033994,0.2,0,0,FastFast,22,18,Woman,Right,
7,10,1,0.3830054000000018,['c'],1,left,['e'],1,0.430281300000388,0.2,1,0,FastFast,22,18,Woman,Right,
8,10,1,0.5494730999998865,['n'],1,right,['e'],1,0.36176000000023123,0.2,1,0,FastFast,22,18,Woman,Right,
9,10,1,0.6493208000001687,['c'],1,left,['e'],1,0.235932000000048,0.2,1,0,FastFast,22,18,Woman,Right,
10,10,1,0.48423019999972894,['n'],1,right,['e'],1,0.2811754999997902,0.2,1,0,FastFast,22,18,Woman,Right,
11,10,1,0.5665837000001375,['n'],1,right,['e'],1,0.273049699999774,0.4,1,0,FastFast,22,18,Woman,Right,
12,10,1,0.9491047000001345,['c'],1,left,['u'],0,0.3304192000000512,0.4,0,0,FastFast,22,18,Woman,Right,
13,10,1,0.416371799999979,['n'],0,left,['e'],1,0.22232230000008713,0.1,0,0,FastFast,22,18,Woman,Right,
14,10,1,0.6499358999999458,['c'],1,left,['e'],1,0.3017863000000034,0.1,1,0,FastFast,22,18,Woman,Right,
15,10,1,0.4502911999998105,['n'],1,right,['e'],1,0.2257145999997192,0.2,1,0,FastFast,22,18,Woman,Right,
16,10,1,0.5827960999999959,['c'],1,left,['e'],1,0.18012359999966066,0.2,1,0,FastFast,22,18,Woman,Right,
17,10,1,0.5488122000001567,['n'],1,right,['e'],1,0.20837800000026618,0.1,1,0,FastFast,22,18,Woman,Right,
18,10,1,0.4989397999997891,['c'],1,left,['u'],0,0.35046799999963696,0.1,0,0,FastFast,22,18,Woman,Right,
19,10,1,0.682204300000194,['c'],1,left,['u'],0,0.15931189999992057,0.2,0,0,FastFast,22,18,Woman,Right,
20,10,1,1.0162451000001056,['c'],0,right,['u'],0,0.5304478999996718,0.1,1,0,FastFast,22,18,Woman,Right,
21,10,1,0.7334940000000643,['c'],1,left,['e'],1,0.24258750000035434,0.4,1,0,FastFast,22,18,Woman,Right,
22,10,1,0.4663524000002326,['c'],1,left,['e'],1,0.25648439999986294,0.2,1,0,FastFast,22,18,Woman,Right,
23,10,1,0.48197020000043267,['c'],1,left,['e'],1,0.33306249999986903,0.2,1,0,FastFast,22,18,Woman,Right,
24,10,1,0.4827587999998286,['c'],1,left,['e'],1,0.20647250000001804,0.2,1,0,FastFast,22,18,Woman,Right,
25,10,1,0.44879749999972773,['n'],1,right,['e'],1,0.2945479999998497,0.1,1,0,FastFast,22,18,Woman,Right,
26,10,1,0.41726650000009613,['c'],1,left,['e'],1,0.27665840000008757,0.4,1,0,FastFast,22,18,Woman,Right,
27,10,1,0.5829650000000584,['c'],1,left,['u'],0,0.5567347000001064,0.1,0,0,FastFast,22,18,Woman,Right,
28,10,1,0.5158956000000217,['c'],1,left,['e'],1,0.21187359999976252,0.4,1,0,FastFast,22,18,Woman,Right,
29,10,1,0.46600569999964137,['n'],1,right,['e'],1,0.1872948999998698,0.4,1,0,FastFast,22,18,Woman,Right,
30,10,1,0.6159820000002583,['c'],1,left,['e'],1,0.301242000000002,0.1,1,0,FastFast,22,18,Woman,Right,
31,10,1,0.5495858999997836,['n'],1,right,['e'],1,0.17313770000009754,0.2,1,0,FastFast,22,18,Woman,Right,
32,10,1,0.4989583000001403,['n'],1,right,['e'],1,0.17252689999986615,0.4,1,0,FastFast,22,18,Woman,Right,
33,10,1,0.44958330000008573,['n'],1,right,['e'],1,0.18261699999993652,0.4,1,0,FastFast,22,18,Woman,Right,
34,10,1,0.9654958000000988,['c'],1,left,['e'],1,0.19399750000002314,0.4,1,0,FastFast,22,18,Woman,Right,
35,10,1,0.4819945000003827,['c'],1,left,['e'],1,0.16128119999984847,0.4,1,0,FastFast,22,18,Woman,Right,
36,10,1,0.5320639000001393,['n'],1,right,['e'],1,0.20824649999985922,0.2,1,0,FastFast,22,18,Woman,Right,
37,10,1,0.53283139999985,['c'],0,right,['e'],1,0.20527820000006614,0.1,0,0,FastFast,22,18,Woman,Right,
38,10,1,0.5825754000002235,['n'],1,right,['e'],1,0.2235686000003625,0.2,1,0,FastFast,22,18,Woman,Right,
39,10,1,0.4651600000001963,['c'],1,left,['e'],1,0.19806419999986247,0.4,1,0,FastFast,22,18,Woman,Right,
40,10,1,0.7993884000002254,['n'],1,right,['u'],0,0.3600012000001698,0.1,0,0,FastFast,22,18,Woman,Right,
41,10,1,0.5329498000000967,['c'],0,right,['u'],0,0.33462399999962145,0.1,1,0,FastFast,22,18,Woman,Right,
42,10,1,0.9492926000002626,['n'],1,right,['u'],0,0.38159029999997074,0.1,0,0,FastFast,22,18,Woman,Right,
43,10,1,0.6499623999998221,['n'],1,right,['e'],1,0.26201799999989817,0.4,1,0,FastFast,22,18,Woman,Right,
44,10,1,1.0670838000000913,['n'],0,left,['u'],0,0.4513227999996161,0.1,1,0,FastFast,22,18,Woman,Right,
45,10,1,1.5495372999998835,['n'],0,left,['u'],0,0.3813964000000851,0.2,1,0,FastFast,22,18,Woman,Right,
46,10,1,1.049726499999906,['n'],1,right,['u'],0,0.2620428999998694,0.1,0,0,FastFast,22,18,Woman,Right,
47,10,1,1.5996657000000596,['c'],1,left,['u'],0,1.294169199999942,0.2,0,0,FastFast,22,18,Woman,Right,
48,10,1,0.948145299999851,['n'],1,right,['e'],1,0.24729950000028111,0.4,1,0,FastFast,22,18,Woman,Right,
49,10,1,0.6004445999997188,['c'],1,left,['e'],1,0.1910667000001922,0.4,1,0,FastFast,22,18,Woman,Right,
50,10,1,0.4827588999996806,['n'],0,left,['e'],1,0.17409779999979946,0.2,0,0,FastFast,22,18,Woman,Right,
51,10,1,0.15098970000008194,['n'],0,left,['e'],1,0.23544369999990522,0.2,0,0,FastFast,22,18,Woman,Right,
52,10,1,0.5333462000003237,['n'],1,right,['e'],1,0.23075210000024526,0.4,1,0,FastFast,22,18,Woman,Right,
53,10,1,0.5993936999998368,['n'],1,right,['e'],1,0.21554889999970328,0.1,1,0,FastFast,22,18,Woman,Right,
54,10,1,0.4504987999998775,['n'],1,right,['e'],1,0.18277820000002976,0.4,1,0,FastFast,22,18,Woman,Right,
55,10,1,0.4829432999999881,['c'],1,left,['e'],1,0.15817879999985962,0.4,1,0,FastFast,22,18,Woman,Right,
56,10,1,0.6160374000000957,['c'],0,right,['u'],0,0.16940310000018144,0.2,1,0,FastFast,22,18,Woman,Right,
57,10,1,0.3325019999997494,['n'],1,right,['e'],1,0.3593501999998807,0.4,1,0,FastFast,22,18,Woman,Right,
58,10,1,0.6830232999996042,['c'],1,left,['e'],1,0.12814560000015263,0.4,1,0,FastFast,22,18,Woman,Right,
59,10,1,0.6160327000002326,['n'],0,left,['u'],0,0.32491769999978715,0.1,1,0,FastFast,22,18,Woman,Right,
0,11,1,1.3660101000000395,['n'],1,right,['e'],1,0.779019199999766,0.2,1,0,AccFast,22,18,Woman,Right,
1,11,1,0.7833033000001706,['c'],1,left,['u'],0,0.5669629999997596,0.1,0,0,AccFast,22,18,Woman,Right,
2,11,1,0.8493919999996251,['c'],1,left,['u'],0,0.46422190000021146,0.2,0,0,AccFast,22,18,Woman,Right,
3,11,1,0.599532800000361,['n'],1,right,['e'],1,0.23975049999990006,0.4,1,0,AccFast,22,18,Woman,Right,
4,11,1,0.7326579000000493,['c'],1,left,['e'],1,0.3549895999999535,0.1,1,0,AccFast,22,18,Woman,Right,
5,11,1,0.6165993999998136,['n'],1,right,['e'],1,0.32654409999986456,0.4,1,0,AccFast,22,18,Woman,Right,
6,11,1,0.899605000000065,['n'],1,right,['e'],1,0.11962610000000495,0.2,1,0,AccFast,22,18,Woman,Right,
7,11,1,0.6983755000001111,['n'],1,right,['u'],0,0.2732224999999744,0.2,0,0,AccFast,22,18,Woman,Right,
8,11,1,0.49971549999963827,['c'],1,left,['e'],1,0.3403785999998945,0.2,1,0,AccFast,22,18,Woman,Right,
9,11,1,0.7669098000001213,['c'],1,left,['e'],1,0.3945867000002181,0.1,1,0,AccFast,22,18,Woman,Right,
10,11,1,0.6001178999999865,['c'],0,right,['u'],0,0.2450461000003088,0.2,1,0,AccFast,22,18,Woman,Right,
11,11,1,0.850007199999709,['n'],1,right,['u'],0,0.21173499999986234,0.1,0,0,AccFast,22,18,Woman,Right,
12,11,1,0.9168017999995755,['n'],0,left,['u'],0,0.3691273000004003,0.1,1,0,AccFast,22,18,Woman,Right,
13,11,1,0.6496601999997438,['c'],1,left,['e'],1,0.1944061999997757,0.1,1,0,AccFast,22,18,Woman,Right,
14,11,1,0.7838792000002286,['n'],1,right,['u'],0,0.2937016999999287,0.2,0,0,AccFast,22,18,Woman,Right,
15,11,1,0.549467000000277,['n'],1,right,['e'],1,0.19838309999977355,0.4,1,0,AccFast,22,18,Woman,Right,
16,11,1,0.5829592000000048,['c'],1,left,['e'],1,0.18514390000018466,0.4,1,0,AccFast,22,18,Woman,Right,
17,11,1,2.516665699999976,['c'],1,left,['u'],0,0.5670161999996708,0.2,0,0,AccFast,22,18,Woman,Right,
18,11,1,1.0164207000002534,['n'],1,right,['e'],1,0.3217328999999154,0.4,1,0,AccFast,22,18,Woman,Right,
19,11,1,0.7499017999998614,['n'],1,right,['e'],1,0.31293749999986176,0.2,1,0,AccFast,22,18,Woman,Right,
20,11,1,0.6163781000000199,['c'],1,left,['e'],1,0.1269721999997273,0.2,1,0,AccFast,22,18,Woman,Right,
21,11,1,3.499604300000101,['n'],0,left,['u'],0,0.6638101999997161,0.4,1,0,AccFast,22,18,Woman,Right,
22,11,1,0.9830019000000902,['n'],1,right,['e'],1,0.19237259999999878,0.4,1,0,AccFast,22,18,Woman,Right,
23,11,1,0.665509700000257,['n'],1,right,['e'],1,0.16055760000017472,0.4,1,0,AccFast,22,18,Woman,Right,
24,11,1,1.8160780000002887,['c'],1,left,['u'],0,0.3798772000000099,0.2,0,0,AccFast,22,18,Woman,Right,
25,11,1,1.249558700000307,['n'],0,left,['u'],0,0.3965653000000202,0.2,1,0,AccFast,22,18,Woman,Right,
26,11,1,0.8161956999997528,['n'],0,left,['e'],1,0.19011249999994106,0.4,0,0,AccFast,22,18,Woman,Right,
27,11,1,0.7330197999999655,['n'],1,right,['e'],1,0.18715560000009646,0.1,1,0,AccFast,22,18,Woman,Right,
28,11,1,0.766363100000035,['n'],0,left,['e'],1,0.18313450000005105,0.1,0,0,AccFast,22,18,Woman,Right,
29,11,1,1.1323864999999387,['n'],1,right,['e'],1,0.22074509999993097,0.2,1,0,AccFast,22,18,Woman,Right,
30,11,1,1.0656597000001966,['n'],0,left,['u'],0,0.283468399999947,0.1,1,0,AccFast,22,18,Woman,Right,
31,11,1,0.6328631000001224,['n'],1,right,['e'],1,0.8806261999998242,0.1,1,0,AccFast,22,18,Woman,Right,
32,11,1,2.1829947000001084,['n'],1,right,['e'],1,0.48053939999999784,0.1,1,0,AccFast,22,18,Woman,Right,
33,11,1,0.6999123000000509,['n'],1,right,['u'],0,0.4986739999999372,0.4,0,0,AccFast,22,18,Woman,Right,
34,11,1,2.2338184000000183,['n'],0,left,['u'],0,0.2793994999997267,0.1,1,0,AccFast,22,18,Woman,Right,
35,11,1,1.4330018999999083,['n'],1,right,['u'],0,0.3014027999997779,0.2,0,0,AccFast,22,18,Woman,Right,
36,11,1,0.8330826000001252,['n'],1,right,['u'],0,0.38601250000010623,0.1,0,0,AccFast,22,18,Woman,Right,
37,11,1,0.6660967000002529,['c'],1,left,['e'],1,0.7301448000002893,0.4,1,0,AccFast,22,18,Woman,Right,
38,11,1,0.84957600000007,['n'],1,right,['u'],0,0.4132246000003761,0.2,0,0,AccFast,22,18,Woman,Right,
39,11,1,0.683054600000105,['n'],1,right,['u'],0,0.27539370000022245,0.2,0,0,AccFast,22,18,Woman,Right,
40,11,1,0.7330449000000954,['n'],1,right,['e'],1,0.13354930000014065,0.4,1,0,AccFast,22,18,Woman,Right,
41,11,1,0.9162325999996028,['c'],1,left,['e'],1,0.32602440000027855,0.2,1,0,AccFast,22,18,Woman,Right,
42,11,1,0.8500271000002613,['n'],1,right,['e'],1,0.2804931000000579,0.2,1,0,AccFast,22,18,Woman,Right,
43,11,1,0.9989888999998584,['n'],1,right,['e'],1,0.28733480000028067,0.1,1,0,AccFast,22,18,Woman,Right,
44,11,1,0.8992753000002267,['c'],1,left,['e'],1,0.37008019999984754,0.1,1,0,AccFast,22,18,Woman,Right,
45,11,1,0.6339160000002266,['c'],1,left,['e'],1,0.260160199999973,0.4,1,0,AccFast,22,18,Woman,Right,
46,11,1,0.6661665999999968,['n'],0,left,['e'],1,0.2894399000001613,0.1,0,0,AccFast,22,18,Woman,Right,
47,11,1,2.233221799999683,['n'],0,left,['u'],0,0.41460230000029696,0.1,1,0,AccFast,22,18,Woman,Right,
48,11,1,1.9167324999998527,['n'],1,right,['u'],0,0.33956739999985075,0.1,0,0,AccFast,22,18,Woman,Right,
49,11,1,0.682979400000022,['n'],1,right,['e'],1,0.42074159999992844,0.4,1,0,AccFast,22,18,Woman,Right,
50,11,1,0.6495159000000967,['c'],1,left,['e'],1,0.14824619999990318,0.4,1,0,AccFast,22,18,Woman,Right,
51,11,1,0.6163790999999037,['c'],1,left,['e'],1,0.1835268999998334,0.4,1,0,AccFast,22,18,Woman,Right,
52,11,1,0.6824090000000069,['n'],1,right,['e'],1,0.2068224000004193,0.4,1,0,AccFast,22,18,Woman,Right,
53,11,1,0.8991981999997734,['n'],1,right,['e'],1,0.5649124000001393,0.4,1,0,AccFast,22,18,Woman,Right,
54,11,1,0.4495600000000195,['c'],1,left,['e'],1,0.15814330000011978,0.4,1,0,AccFast,22,18,Woman,Right,
55,11,1,0.8994895999999244,['n'],1,right,['e'],1,0.16621679999980188,0.1,1,0,AccFast,22,18,Woman,Right,
56,11,1,0.5984991999998783,['c'],1,left,['e'],1,0.20164740000018355,0.4,1,0,AccFast,22,18,Woman,Right,
57,11,1,1.016502500000115,['c'],1,left,['e'],1,0.23495699999966746,0.2,1,0,AccFast,22,18,Woman,Right,
58,11,1,0.783222300000034,['n'],0,left,['e'],1,0.44427440000026763,0.2,0,0,AccFast,22,18,Woman,Right,
59,11,1,0.7493393999998261,['n'],0,left,['u'],0,0.6148473999996895,0.1,1,0,AccFast,22,18,Woman,Right,
0,12,1,2.4326476999999613,['c'],1,left,['e'],1,1.2177596999999878,0.2,1,0,AccAcc,22,18,Woman,Right,
1,12,1,2.3498607999999876,['c'],1,left,['u'],0,0.5810985000002802,0.1,0,0,AccAcc,22,18,Woman,Right,
2,12,1,1.25053059999982,['n'],1,right,['u'],0,0.7097780999997667,0.1,0,0,AccAcc,22,18,Woman,Right,
3,12,1,0.78359219999993,['n'],1,right,['e'],1,0.6925642999999582,0.2,1,0,AccAcc,22,18,Woman,Right,
4,12,1,0.7156857999998465,['c'],1,left,['e'],1,0.5824543000003359,0.4,1,0,AccAcc,22,18,Woman,Right,
5,12,1,3.3818006999999852,['c'],0,right,['u'],0,0.6498088000003008,0.1,1,0,AccAcc,22,18,Woman,Right,
6,12,1,1.400191199999881,['n'],0,left,['u'],0,0.5619056000000455,0.1,1,0,AccAcc,22,18,Woman,Right,
7,12,1,1.7666378999997505,['c'],1,left,['u'],0,0.7590872000000672,0.1,0,0,AccAcc,22,18,Woman,Right,
8,12,1,0.8165167000001929,['n'],1,right,['e'],1,0.5144551000003048,0.4,1,0,AccAcc,22,18,Woman,Right,
9,12,1,0.6664680999997472,['c'],1,left,['e'],1,0.6372806000003948,0.4,1,0,AccAcc,22,18,Woman,Right,
10,12,1,0.6497912999998334,['c'],1,left,['e'],1,0.6519761999998082,0.2,1,0,AccAcc,22,18,Woman,Right,
11,12,1,0.649633300000005,['n'],1,right,['e'],1,0.4097759000001133,0.4,1,0,AccAcc,22,18,Woman,Right,
12,12,1,0.9172426999998606,['c'],1,left,['e'],1,0.48729250000042157,0.2,1,0,AccAcc,22,18,Woman,Right,
13,12,1,0.6484567000002244,['n'],1,right,['e'],1,0.45172050000019226,0.4,1,0,AccAcc,22,18,Woman,Right,
14,12,1,0.6500288000002001,['c'],1,left,['e'],1,0.6899468999999954,0.2,1,0,AccAcc,22,18,Woman,Right,
15,12,1,1.3334200000003875,['c'],1,left,['e'],1,0.5714384999996582,0.2,1,0,AccAcc,22,18,Woman,Right,
16,12,1,0.6324584000003597,['n'],1,right,['e'],1,0.4775547999997798,0.2,1,0,AccAcc,22,18,Woman,Right,
17,12,1,1.2660163999998986,['n'],1,right,['u'],0,0.39429680000012013,0.1,0,0,AccAcc,22,18,Woman,Right,
18,12,1,0.7160764000000199,['c'],1,left,['e'],1,0.6079019000003427,0.4,1,0,AccAcc,22,18,Woman,Right,
19,12,1,0.9336876999996093,['n'],1,right,['u'],0,0.548592699999972,0.1,0,0,AccAcc,22,18,Woman,Right,
20,12,1,1.2497862000000168,['n'],1,right,['u'],0,0.6307084000000032,0.2,0,0,AccAcc,22,18,Woman,Right,
21,12,1,0.9326451000001725,['n'],1,right,['u'],0,0.458078199999818,0.4,0,0,AccAcc,22,18,Woman,Right,
22,12,1,0.8996634999998605,['n'],1,right,['e'],1,0.47799760000043534,0.4,1,0,AccAcc,22,18,Woman,Right,
23,12,1,0.7990924999999152,['n'],0,left,['e'],1,0.39733620000015435,0.1,0,0,AccAcc,22,18,Woman,Right,
24,12,1,0.7819438000001355,['n'],0,left,['e'],1,0.33603309999989506,0.1,0,0,AccAcc,22,18,Woman,Right,
25,12,1,0.9163869000003615,['n'],1,right,['e'],1,0.6401401999996779,0.1,1,0,AccAcc,22,18,Woman,Right,
26,12,1,0.7662781000003633,['n'],1,right,['e'],1,0.37834509999993315,0.2,1,0,AccAcc,22,18,Woman,Right,
27,12,1,1.0663594000002377,['c'],1,left,['e'],1,0.3867811000000074,0.4,1,0,AccAcc,22,18,Woman,Right,
28,12,1,0.7498899000001984,['n'],1,right,['e'],1,0.3913169000002199,0.2,1,0,AccAcc,22,18,Woman,Right,
29,12,1,1.2330644000003304,['c'],1,left,['u'],0,0.528748700000051,0.1,0,0,AccAcc,22,18,Woman,Right,
30,12,1,1.2667398999997204,['n'],1,right,['u'],0,0.5157598000000689,0.1,0,0,AccAcc,22,18,Woman,Right,
31,12,1,0.8828520000001845,['n'],0,left,['u'],0,0.28540250000014566,0.1,1,0,AccAcc,22,18,Woman,Right,
32,12,1,1.9831309999999576,['n'],1,right,['u'],0,0.6926794000000882,0.2,0,0,AccAcc,22,18,Woman,Right,
33,12,1,0.7166514999998981,['n'],1,right,['e'],1,0.6867667000001347,0.2,1,0,AccAcc,22,18,Woman,Right,
34,12,1,0.8496660999999222,['c'],1,left,['e'],1,0.31538510000018505,0.2,1,0,AccAcc,22,18,Woman,Right,
35,12,1,0.8495119999997769,['n'],1,right,['u'],0,0.6227946999997584,0.1,0,0,AccAcc,22,18,Woman,Right,
36,12,1,1.3831466999999975,['n'],1,right,['e'],1,0.5289373999999043,0.1,1,0,AccAcc,22,18,Woman,Right,
37,12,1,0.7163203999998586,['c'],1,left,['e'],1,0.7137970000003406,0.2,1,0,AccAcc,22,18,Woman,Right,
38,12,1,0.9829009999998561,['n'],1,right,['e'],1,0.6964089999996759,0.4,1,0,AccAcc,22,18,Woman,Right,
39,12,1,0.833168999999998,['n'],1,right,['u'],0,0.7575599000001603,0.2,0,0,AccAcc,22,18,Woman,Right,
40,12,1,1.2829837000003863,['n'],1,right,['e'],1,1.054356199999802,0.1,1,0,AccAcc,22,18,Woman,Right,
41,12,1,1.266541899999993,['n'],1,right,['e'],1,0.5075689000000239,0.1,1,0,AccAcc,22,18,Woman,Right,
42,12,1,0.8328412999999273,['c'],1,left,['e'],1,0.7043065999996543,0.1,1,0,AccAcc,22,18,Woman,Right,
43,12,1,0.8327641999999287,['c'],1,left,['e'],1,0.7249787999999171,0.4,1,0,AccAcc,22,18,Woman,Right,
44,12,1,0.8996586000002935,['n'],0,left,['u'],0,0.7262633999998798,0.4,1,0,AccAcc,22,18,Woman,Right,
45,12,1,2.3827146000003268,['c'],1,left,['u'],0,0.7323888999999326,0.2,0,0,AccAcc,22,18,Woman,Right,
46,12,1,0.632944899999984,['c'],1,left,['e'],1,0.36794430000009015,0.4,1,0,AccAcc,22,18,Woman,Right,
47,12,1,0.9497781000000032,['n'],0,left,['u'],0,0.7728322000002663,0.2,1,0,AccAcc,22,18,Woman,Right,
48,12,1,0.8496486999997614,['c'],1,left,['e'],1,0.6062984000000142,0.4,1,0,AccAcc,22,18,Woman,Right,
49,12,1,0.5999569999999039,['n'],1,right,['e'],1,1.0724427999998625,0.4,1,0,AccAcc,22,18,Woman,Right,
50,12,1,1.0496573000000353,['n'],1,right,['u'],0,0.7497660999997606,0.1,0,0,AccAcc,22,18,Woman,Right,
51,12,1,0.6831148999999641,['c'],1,left,['e'],1,0.5823817000000417,0.4,1,0,AccAcc,22,18,Woman,Right,
52,12,1,0.9667438999999831,['n'],0,left,['u'],0,0.5703152000000955,0.4,1,0,AccAcc,22,18,Woman,Right,
53,12,1,1.9990631999999096,['n'],1,right,['u'],0,0.5577676999996584,0.2,0,0,AccAcc,22,18,Woman,Right,
54,12,1,1.1165618999998514,['n'],1,right,['e'],1,0.6139118000000963,0.4,1,0,AccAcc,22,18,Woman,Right,
55,12,1,0.7994309000000612,['n'],1,right,['e'],1,0.5264004999999088,0.4,1,0,AccAcc,22,18,Woman,Right,
56,12,1,1.0161729999999807,['n'],1,right,['u'],0,0.4350629000000481,0.1,0,0,AccAcc,22,18,Woman,Right,
57,12,1,1.199927800000296,['c'],1,left,['e'],1,0.5239675000002535,0.2,1,0,AccAcc,22,18,Woman,Right,
58,12,1,2.0333621999998286,['c'],1,left,['e'],1,0.575757799999792,0.2,1,0,AccAcc,22,18,Woman,Right,
59,12,1,1.1497889000002033,['c'],1,left,['e'],1,0.3412095999997291,0.4,1,0,AccAcc,22,18,Woman,Right,
0,13,1,0.46589510000012524,['n'],0,left,['u'],0,0.9266277000001537,0.2,1,0,FastAcc,22,18,Woman,Right,
1,13,1,0.5322583000001941,['n'],0,left,['u'],0,0.7746655000000828,0.1,1,0,FastAcc,22,18,Woman,Right,
2,13,1,0.5494681000000128,['c'],1,left,['e'],1,0.6198533000001589,0.4,1,0,FastAcc,22,18,Woman,Right,
3,13,1,0.5829672999998365,['n'],1,right,['e'],1,0.4298495000002731,0.4,1,0,FastAcc,22,18,Woman,Right,
4,13,1,0.9329801999997471,['n'],0,left,['u'],0,0.6339499999999134,0.1,1,0,FastAcc,22,18,Woman,Right,
5,13,1,0.6163416000003963,['n'],1,right,['e'],1,0.346172800000204,0.2,1,0,FastAcc,22,18,Woman,Right,
6,13,1,0.7996765999996569,['n'],0,left,['u'],0,0.8779083999997965,0.1,1,0,FastAcc,22,18,Woman,Right,
7,13,1,0.7494704000000638,['c'],0,right,['u'],0,0.6553165000000263,0.1,1,0,FastAcc,22,18,Woman,Right,
8,13,1,0.7330360000000837,['n'],1,right,['e'],1,0.6660929000004217,0.4,1,0,FastAcc,22,18,Woman,Right,
9,13,1,0.7660611000001154,['c'],1,left,['e'],1,0.78676889999997,0.4,1,0,FastAcc,22,18,Woman,Right,
10,13,1,0.6998450999999477,['n'],1,right,['e'],1,0.9851714000001266,0.1,1,0,FastAcc,22,18,Woman,Right,
11,13,1,0.3491519999997763,['n'],0,left,['u'],0,0.5744184999998652,0.2,1,0,FastAcc,22,18,Woman,Right,
12,13,1,0.6492554000001292,['n'],0,left,['u'],0,0.7515023999999357,0.1,1,0,FastAcc,22,18,Woman,Right,
13,13,1,0.5329851000001327,['c'],0,right,['u'],0,0.8219693999999436,0.1,1,0,FastAcc,22,18,Woman,Right,
14,13,1,0.7663093000001027,['n'],0,left,['u'],0,0.44071020000001226,0.2,1,0,FastAcc,22,18,Woman,Right,
15,13,1,0.9648730000003525,['c'],0,right,['u'],0,1.251056300000073,0.1,1,0,FastAcc,22,18,Woman,Right,
16,13,1,0.43360960000018167,['n'],1,right,['e'],1,0.7056923000000097,0.2,1,0,FastAcc,22,18,Woman,Right,
17,13,1,0.41635649999989255,['c'],0,right,['u'],0,1.135100500000135,0.2,1,0,FastAcc,22,18,Woman,Right,
18,13,1,0.6329134999996313,['n'],1,right,['u'],0,0.7463812999999391,0.2,0,0,FastAcc,22,18,Woman,Right,
19,13,1,0.7997212999998737,['n'],1,right,['e'],1,0.686070600000221,0.2,1,0,FastAcc,22,18,Woman,Right,
20,13,1,0.5495347000000947,['c'],1,left,['e'],1,0.5667642999997042,0.4,1,0,FastAcc,22,18,Woman,Right,
21,13,1,0.5825395000001663,['c'],1,left,['e'],1,0.6986422999998467,0.4,1,0,FastAcc,22,18,Woman,Right,
22,13,1,0.5833188999999948,['c'],1,left,['e'],1,0.6896495000000868,0.2,1,0,FastAcc,22,18,Woman,Right,
23,13,1,2.0317541999997957,['c'],1,left,['u'],0,0.68695549999984,0.2,0,0,FastAcc,22,18,Woman,Right,
24,13,1,0.5663023000001886,['c'],0,right,['u'],0,0.41489069999988715,0.1,1,0,FastAcc,22,18,Woman,Right,
25,13,1,0.599757899999986,['n'],1,right,['e'],1,0.3440768999998909,0.1,1,0,FastAcc,22,18,Woman,Right,
26,13,1,0.48355910000009317,['n'],0,left,['u'],0,0.5854782000001251,0.1,1,0,FastAcc,22,18,Woman,Right,
27,13,1,0.43285370000012335,['n'],0,left,['u'],0,0.7150176999998621,0.1,1,0,FastAcc,22,18,Woman,Right,
28,13,1,0.5500554000000193,['n'],1,right,['e'],1,0.5943488999996589,0.4,1,0,FastAcc,22,18,Woman,Right,
29,13,1,0.43238419999988764,['n'],1,right,['e'],1,0.7235396000000947,0.4,1,0,FastAcc,22,18,Woman,Right,
30,13,1,0.6161420999997063,['c'],1,left,['e'],1,0.7846188999997139,0.2,1,0,FastAcc,22,18,Woman,Right,
31,13,1,0.7000954999998612,['n'],0,left,['u'],0,0.9268873999999414,0.1,1,0,FastAcc,22,18,Woman,Right,
32,13,1,1.0334216000001106,['n'],1,right,['e'],1,0.5149886000003789,0.4,1,0,FastAcc,22,18,Woman,Right,
33,13,1,0.5160452999998597,['n'],1,right,['e'],1,0.4995790999996643,0.4,1,0,FastAcc,22,18,Woman,Right,
34,13,1,0.48294229999964955,['c'],1,left,['e'],1,0.5586178999997173,0.4,1,0,FastAcc,22,18,Woman,Right,
35,13,1,0.5159558000000288,['c'],1,left,['e'],1,0.621446399999968,0.4,1,0,FastAcc,22,18,Woman,Right,
36,13,1,0.5829005000000507,['n'],1,right,['e'],1,0.703732900000432,0.4,1,0,FastAcc,22,18,Woman,Right,
37,13,1,0.6165106999997079,['n'],0,left,['e'],1,0.5729676999999356,0.2,0,0,FastAcc,22,18,Woman,Right,
38,13,1,0.566066100000171,['c'],1,left,['e'],1,0.5779592000003504,0.2,1,0,FastAcc,22,18,Woman,Right,
39,13,1,0.6167773000001944,['c'],1,left,['e'],1,0.46911999999974796,0.1,1,0,FastAcc,22,18,Woman,Right,
40,13,1,0.5662364999998317,['c'],1,left,['e'],1,0.5971121000002313,0.4,1,0,FastAcc,22,18,Woman,Right,
41,13,1,0.5665361999999732,['n'],1,right,['e'],1,0.8162047999999231,0.1,1,0,FastAcc,22,18,Woman,Right,
42,13,1,0.6835369000000355,['n'],1,right,['u'],0,0.6702564000001985,0.1,0,0,FastAcc,22,18,Woman,Right,
43,13,1,0.5821977000000516,['c'],1,left,['e'],1,0.5023329000000558,0.2,1,0,FastAcc,22,18,Woman,Right,
44,13,1,0.7498673000000053,['n'],0,left,['u'],0,0.8304438000000118,0.2,1,0,FastAcc,22,18,Woman,Right,
45,13,1,0.6162949999998091,['n'],1,right,['e'],1,0.7750639000000774,0.4,1,0,FastAcc,22,18,Woman,Right,
46,13,1,0.4666333999998642,['n'],1,right,['u'],0,0.7844490999996196,0.1,0,0,FastAcc,22,18,Woman,Right,
47,13,1,0.41645100000005186,['n'],1,right,['u'],0,0.6977164999998422,0.2,0,0,FastAcc,22,18,Woman,Right,
48,13,1,0.39961799999991854,['c'],1,left,['u'],0,1.1598472000000584,0.4,0,0,FastAcc,22,18,Woman,Right,
49,13,1,0.5825356000000284,['n'],1,right,['u'],0,1.0925661999999647,0.1,0,0,FastAcc,22,18,Woman,Right,
50,13,1,0.38270360000024084,['n'],1,right,['e'],1,0.40366210000001956,0.4,1,0,FastAcc,22,18,Woman,Right,
51,13,1,0.532944800000223,['c'],1,left,['e'],1,0.5444657000002735,0.2,1,0,FastAcc,22,18,Woman,Right,
52,13,1,0.5664879999999357,['n'],1,right,['e'],1,0.630456200000026,0.4,1,0,FastAcc,22,18,Woman,Right,
53,13,1,0.8161254000001463,['c'],1,left,['e'],1,0.8543976000000839,0.1,1,0,FastAcc,22,18,Woman,Right,
54,13,1,0.7995744999998351,['n'],1,right,['u'],0,0.37436090000028344,0.2,0,0,FastAcc,22,18,Woman,Right,
55,13,1,0.549974900000052,['c'],1,left,['e'],1,0.37981500000023516,0.4,1,0,FastAcc,22,18,Woman,Right,
56,13,1,0.5498170999999274,['c'],1,left,['e'],1,0.4012367999998787,0.2,1,0,FastAcc,22,18,Woman,Right,
57,13,1,0.6830156999999417,['n'],1,right,['e'],1,0.40780990000030215,0.4,1,0,FastAcc,22,18,Woman,Right,
58,13,1,0.6495806000002631,['c'],0,right,['e'],1,0.6398678999998992,0.1,0,0,FastAcc,22,18,Woman,Right,
59,13,1,0.6499345000001995,['n'],1,right,['u'],0,1.0949132999999165,0.2,0,0,FastAcc,22,18,Woman,Right,
0,14,1,0.44956660000025295,['c'],1,left,['e'],1,0.2521603000000141,0.2,1,0,FastFast,22,18,Woman,Right,
1,14,1,0.43307229999982155,['n'],1,right,['e'],1,0.27444659999991927,0.2,1,0,FastFast,22,18,Woman,Right,
2,14,1,0.3995762999998078,['c'],1,left,['u'],0,0.3139629999996032,0.2,0,0,FastFast,22,18,Woman,Right,
3,14,1,0.5497312000002239,['n'],1,right,['u'],0,0.2894175000001269,0.1,0,0,FastFast,22,18,Woman,Right,
4,14,1,0.38381889999982377,['c'],1,left,['e'],1,0.2407333999999537,0.4,1,0,FastFast,22,18,Woman,Right,
5,14,1,0.44953209999994215,['n'],1,right,['e'],1,0.2794463000000178,0.2,1,0,FastFast,22,18,Woman,Right,
6,14,1,0.4994706000002225,['c'],1,left,['e'],1,0.6107073000002856,0.4,1,0,FastFast,22,18,Woman,Right,
7,14,1,0.6835621000000174,['n'],0,left,['u'],0,0.2739255999999841,0.2,1,0,FastFast,22,18,Woman,Right,
8,14,1,0.5828353000001698,['n'],1,right,['e'],1,0.2173797000000377,0.2,1,0,FastFast,22,18,Woman,Right,
9,14,1,0.7837448999998742,['c'],1,left,['e'],1,0.15542839999989155,0.4,1,0,FastFast,22,18,Woman,Right,
10,14,1,0.3830998000003092,['c'],1,left,['e'],1,0.1281023000001369,0.2,1,0,FastFast,22,18,Woman,Right,
11,14,1,0.4000247000003583,['c'],1,left,['e'],1,0.2612835999998424,0.4,1,0,FastFast,22,18,Woman,Right,
12,14,1,0.2998177999998006,['c'],1,left,['e'],1,0.16135170000006838,0.1,1,0,FastFast,22,18,Woman,Right,
13,14,1,0.4489021999997931,['c'],1,left,['e'],1,0.13149550000025556,0.1,1,0,FastFast,22,18,Woman,Right,
14,14,1,0.36577319999969404,['c'],1,left,['e'],1,0.16940109999995911,0.4,1,0,FastFast,22,18,Woman,Right,
15,14,1,0.3492615999998634,['c'],0,right,['u'],0,0.743152800000189,0.4,1,0,FastFast,22,18,Woman,Right,
16,14,1,0.6996543999998721,['n'],0,left,['u'],0,0.2874885000001086,0.1,1,0,FastFast,22,18,Woman,Right,
17,14,1,0.7496136000004299,['n'],1,right,['u'],0,0.5041802000000644,0.1,0,0,FastFast,22,18,Woman,Right,
18,14,1,0.4825691999999435,['c'],1,left,['e'],1,0.12267919999976584,0.4,1,0,FastFast,22,18,Woman,Right,
19,14,1,0.46617520000017976,['n'],1,right,['u'],0,0.4776408000002448,0.1,0,0,FastFast,22,18,Woman,Right,
20,14,1,0.566353700000036,['n'],1,right,['e'],1,0.2704325000004246,0.4,1,0,FastFast,22,18,Woman,Right,
21,14,1,0.6500008000002708,['c'],1,left,['e'],1,0.46763860000010027,0.1,1,0,FastFast,22,18,Woman,Right,
22,14,1,0.44951339999988704,['n'],0,left,['u'],0,0.41694989999996324,0.2,1,0,FastFast,22,18,Woman,Right,
23,14,1,0.6329633999998805,['n'],1,right,['e'],1,0.4653875000003609,0.2,1,0,FastFast,22,18,Woman,Right,
24,14,1,0.533145599999898,['n'],0,left,['e'],1,0.21123080000006667,0.1,0,0,FastFast,22,18,Woman,Right,
25,14,1,0.500181800000064,['n'],1,right,['e'],1,0.2007696999999098,0.4,1,0,FastFast,22,18,Woman,Right,
26,14,1,0.46600790000002235,['c'],1,left,['e'],1,0.1285358999998607,0.4,1,0,FastFast,22,18,Woman,Right,
27,14,1,0.46633750000000873,['n'],1,right,['e'],1,0.19519370000034542,0.4,1,0,FastFast,22,18,Woman,Right,
28,14,1,0.7165549999999712,['n'],1,right,['e'],1,0.16102690000025177,0.1,1,0,FastFast,22,18,Woman,Right,
29,14,1,0.5833769000000757,['c'],1,left,['e'],1,0.1736338999999134,0.2,1,0,FastFast,22,18,Woman,Right,
30,14,1,0.5830518000002485,['n'],1,right,['e'],1,0.161606699999993,0.1,1,0,FastFast,22,18,Woman,Right,
31,14,1,0.8162595000003421,['c'],1,left,['e'],1,0.14092729999993026,0.1,1,0,FastFast,22,18,Woman,Right,
32,14,1,0.7160639000003357,['n'],1,right,['e'],1,0.164980800000194,0.1,1,0,FastFast,22,18,Woman,Right,
33,14,1,0.5330791000001227,['n'],1,right,['e'],1,0.18712429999959568,0.2,1,0,FastFast,22,18,Woman,Right,
34,14,1,0.6830367000002298,['n'],1,right,['e'],1,0.32217290000016874,0.4,1,0,FastFast,22,18,Woman,Right,
35,14,1,0.6829397999999856,['n'],1,right,['e'],1,0.1801980000000185,0.2,1,0,FastFast,22,18,Woman,Right,
36,14,1,0.6331558000001678,['c'],0,right,['e'],1,0.1736030000001847,0.1,0,0,FastFast,22,18,Woman,Right,
37,14,1,0.5829851000003146,['n'],1,right,['e'],1,0.16964270000016768,0.2,1,0,FastFast,22,18,Woman,Right,
38,14,1,0.6832885999997416,['c'],1,left,['e'],1,0.121617800000422,0.4,1,0,FastFast,22,18,Woman,Right,
39,14,1,0.6159493000000111,['c'],1,left,['e'],1,0.15027349999991202,0.4,1,0,FastFast,22,18,Woman,Right,
40,14,1,0.7329322999999022,['n'],0,left,['e'],1,0.19707519999974465,0.1,0,0,FastFast,22,18,Woman,Right,
41,14,1,0.6328754999999546,['c'],1,left,['e'],1,0.14229419999992388,0.2,1,0,FastFast,22,18,Woman,Right,
42,14,1,0.3994350999996641,['c'],1,left,['e'],1,0.14689739999994345,0.4,1,0,FastFast,22,18,Woman,Right,
43,14,1,0.5161036999998032,['n'],1,right,['e'],1,0.27508979999993244,0.2,1,0,FastFast,22,18,Woman,Right,
44,14,1,0.4996478000002753,['n'],1,right,['e'],1,0.1341792000002897,0.1,1,0,FastFast,22,18,Woman,Right,
45,14,1,0.5828857999999855,['c'],0,right,['e'],1,0.25171629999977085,0.1,0,0,FastFast,22,18,Woman,Right,
46,14,1,0.4831435999999485,['n'],1,right,['e'],1,0.26436539999986053,0.2,1,0,FastFast,22,18,Woman,Right,
47,14,1,0.5492609000002631,['n'],1,right,['e'],1,0.22696369999994204,0.1,1,0,FastFast,22,18,Woman,Right,
48,14,1,0.5999243999999635,['n'],1,right,['e'],1,0.25938380000025063,0.4,1,0,FastFast,22,18,Woman,Right,
49,14,1,0.5150236999998015,['c'],1,left,['e'],1,0.1582789999997658,0.4,1,0,FastFast,22,18,Woman,Right,
50,14,1,0.9655793000001722,['n'],1,right,['u'],0,0.26786390000006577,0.1,0,0,FastFast,22,18,Woman,Right,
51,14,1,0.46632290000025023,['c'],1,left,['e'],1,0.13635100000010425,0.4,1,0,FastFast,22,18,Woman,Right,
52,14,1,0.4989639000000352,['c'],1,left,['e'],1,0.1610790999998244,0.4,1,0,FastFast,22,18,Woman,Right,
53,14,1,0.5502796000000671,['n'],1,right,['e'],1,0.1673571000001175,0.2,1,0,FastFast,22,18,Woman,Right,
54,14,1,0.5831951000000117,['c'],1,left,['e'],1,0.14710230000036972,0.1,1,0,FastFast,22,18,Woman,Right,
55,14,1,0.7160820000003696,['n'],1,right,['u'],0,0.45131110000011176,0.1,0,0,FastFast,22,18,Woman,Right,
56,14,1,0.7329531999998835,['c'],1,left,['u'],0,0.2299011000000064,0.2,0,0,FastFast,22,18,Woman,Right,
57,14,1,0.9163077999996858,['n'],0,left,['u'],0,0.32986620000019684,0.2,1,0,FastFast,22,18,Woman,Right,
58,14,1,0.6169307000000117,['n'],1,right,['u'],0,0.6219131999996534,0.2,0,0,FastFast,22,18,Woman,Right,
59,14,1,0.8994235000000117,['n'],1,right,['e'],1,0.17152089999990494,0.4,1,0,FastFast,22,18,Woman,Right,
0,15,1,0.8166489999998703,['c'],1,left,['u'],0,0.8065958000001956,0.2,0,0,AccFast,22,18,Woman,Right,
1,15,1,0.7330125999997108,['n'],1,right,['u'],0,0.39566469999999754,0.4,0,0,AccFast,22,18,Woman,Right,
2,15,1,1.2823538999996345,['n'],1,right,['e'],1,0.4344420000002174,0.2,1,0,AccFast,22,18,Woman,Right,
3,15,1,0.6160174999999981,['n'],1,right,['e'],1,0.3626174999999421,0.4,1,0,AccFast,22,18,Woman,Right,
4,15,1,0.8495527000000038,['n'],1,right,['u'],0,0.6046516999999767,0.1,0,0,AccFast,22,18,Woman,Right,
5,15,1,0.7829557000000023,['c'],1,left,['u'],0,1.0474659999999858,0.1,0,0,AccFast,22,18,Woman,Right,
6,15,1,1.2166040000001885,['n'],1,right,['e'],1,0.23863329999994676,0.2,1,0,AccFast,22,18,Woman,Right,
7,15,1,0.6163342999998349,['c'],1,left,['e'],1,0.1425985999999284,0.4,1,0,AccFast,22,18,Woman,Right,
8,15,1,0.8994606999999633,['c'],1,left,['e'],1,0.11133280000012746,0.4,1,0,AccFast,22,18,Woman,Right,
9,15,1,1.0998651999998401,['n'],0,left,['u'],0,0.13724369999999908,0.2,1,0,AccFast,22,18,Woman,Right,
10,15,1,0.6660354000000552,['n'],0,left,['u'],0,0.15566730000000462,0.1,1,0,AccFast,22,18,Woman,Right,
11,15,1,0.5831708000000617,['n'],1,right,['u'],0,0.22479020000037053,0.2,0,0,AccFast,22,18,Woman,Right,
12,15,1,0.5328170999996473,['n'],1,right,['e'],1,0.21210040000005392,0.2,1,0,AccFast,22,18,Woman,Right,
13,15,1,0.5829929000001357,['c'],1,left,['e'],1,0.14265490000025238,0.1,1,0,AccFast,22,18,Woman,Right,
14,15,1,0.549775800000134,['c'],1,left,['e'],1,0.14141280000012557,0.4,1,0,AccFast,22,18,Woman,Right,
15,15,1,0.6323498000001564,['c'],1,left,['e'],1,0.1606552000002921,0.2,1,0,AccFast,22,18,Woman,Right,
16,15,1,0.5501417000000401,['n'],1,right,['e'],1,0.15064940000002025,0.2,1,0,AccFast,22,18,Woman,Right,
17,15,1,0.43357739999964906,['c'],1,left,['e'],1,0.13737140000012005,0.4,1,0,AccFast,22,18,Woman,Right,
18,15,1,0.49951610000016444,['n'],1,right,['e'],1,0.15417139999999563,0.1,1,0,AccFast,22,18,Woman,Right,
19,15,1,0.533489500000087,['n'],1,right,['e'],1,0.16873050000003786,0.4,1,0,AccFast,22,18,Woman,Right,
20,15,1,0.4496172999997725,['c'],1,left,['e'],1,0.17019940000000133,0.4,1,0,AccFast,22,18,Woman,Right,
21,15,1,0.7494887999996536,['n'],1,right,['e'],1,0.16739099999995233,0.4,1,0,AccFast,22,18,Woman,Right,
22,15,1,1.0998976999999286,['c'],0,right,['u'],0,0.118657400000302,0.1,1,0,AccFast,22,18,Woman,Right,
23,15,1,0.6162882000003265,['c'],1,left,['e'],1,0.13944050000009156,0.4,1,0,AccFast,22,18,Woman,Right,
24,15,1,0.8321347999999489,['n'],0,left,['u'],0,0.19076869999980772,0.1,1,0,AccFast,22,18,Woman,Right,
25,15,1,0.6333746999998766,['c'],0,right,['u'],0,0.22419870000021547,0.1,1,0,AccFast,22,18,Woman,Right,
26,15,1,0.5988949000002322,['n'],0,left,['u'],0,0.2815519000000677,0.2,1,0,AccFast,22,18,Woman,Right,
27,15,1,0.7317778999999973,['n'],1,right,['u'],0,0.2588607999996384,0.1,0,0,AccFast,22,18,Woman,Right,
28,15,1,1.3333074000001943,['n'],1,right,['u'],0,0.2295020999999906,0.1,0,0,AccFast,22,18,Woman,Right,
29,15,1,0.783419800000047,['n'],1,right,['u'],0,0.1595634999998765,0.1,0,0,AccFast,22,18,Woman,Right,
30,15,1,0.49935430000005,['n'],1,right,['e'],1,0.2477262000002156,0.4,1,0,AccFast,22,18,Woman,Right,
31,15,1,0.7669698999998218,['n'],1,right,['e'],1,0.7928161999998338,0.2,1,0,AccFast,22,18,Woman,Right,
32,15,1,0.49960760000021764,['n'],1,right,['e'],1,0.1194258999998965,0.4,1,0,AccFast,22,18,Woman,Right,
33,15,1,0.39959859999999026,['c'],1,left,['e'],1,0.13281289999986257,0.2,1,0,AccFast,22,18,Woman,Right,
34,15,1,1.099626900000203,['n'],0,left,['u'],0,0.1334538999999495,0.1,1,0,AccFast,22,18,Woman,Right,
35,15,1,0.6321719000002304,['n'],1,right,['u'],0,0.13685120000036477,0.1,0,0,AccFast,22,18,Woman,Right,
36,15,1,0.5828518000002987,['c'],1,left,['e'],1,0.0784310999997615,0.4,1,0,AccFast,22,18,Woman,Right,
37,15,1,0.6827875999997559,['c'],1,left,['e'],1,0.0824640000000727,0.1,1,0,AccFast,22,18,Woman,Right,
38,15,1,0.7002028000001701,['c'],0,right,['u'],0,0.18914959999983694,0.1,1,0,AccFast,22,18,Woman,Right,
39,15,1,0.4330482000000302,['c'],0,right,['e'],1,0.23841929999980493,0.2,0,0,AccFast,22,18,Woman,Right,
40,15,1,0.6506812000002355,['c'],0,right,['u'],0,0.11714400000028036,0.1,1,0,AccFast,22,18,Woman,Right,
41,15,1,0.333197200000086,['c'],0,right,['u'],0,0.16463519999979326,0.4,1,0,AccFast,22,18,Woman,Right,
42,15,1,1.0840413999999328,['c'],0,right,['u'],0,0.10923560000037469,0.4,1,0,AccFast,22,18,Woman,Right,
43,15,1,0.7673700000000281,['c'],0,right,['e'],1,0.14053939999985232,0.2,0,0,AccFast,22,18,Woman,Right,
44,15,1,1.4162487000003239,['c'],1,left,['u'],0,0.20068810000020676,0.4,0,0,AccFast,22,18,Woman,Right,
45,15,1,1.3665595000002213,['c'],1,left,['u'],0,0.2839991999999256,0.2,0,0,AccFast,22,18,Woman,Right,
46,15,1,0.9003213000000869,['c'],0,right,['u'],0,0.2707623000001149,0.2,1,0,AccFast,22,18,Woman,Right,
47,15,1,0.5330490999999711,['c'],1,left,['e'],1,0.19249140000010811,0.4,1,0,AccFast,22,18,Woman,Right,
48,15,1,1.317071500000111,['n'],0,left,['u'],0,0.14247440000008282,0.1,1,0,AccFast,22,18,Woman,Right,
49,15,1,1.2993287999997847,['c'],0,right,['u'],0,0.26320899999973335,0.1,1,0,AccFast,22,18,Woman,Right,
50,15,1,0.5993685999997069,['c'],1,left,['e'],1,0.18331050000006144,0.4,1,0,AccFast,22,18,Woman,Right,
51,15,1,1.0156944000000294,['c'],1,left,['u'],0,0.2653045000001839,0.1,0,0,AccFast,22,18,Woman,Right,
52,15,1,1.033516200000122,['c'],1,left,['u'],0,0.3111877999999706,0.2,0,0,AccFast,22,18,Woman,Right,
53,15,1,0.8499675999996725,['c'],1,left,['u'],0,0.11515929999995933,0.2,0,0,AccFast,22,18,Woman,Right,
54,15,1,0.7995442000001276,['c'],1,left,['e'],1,0.120638400000189,0.2,1,0,AccFast,22,18,Woman,Right,
55,15,1,0.5333049000000756,['c'],1,left,['e'],1,0.128602299999784,0.4,1,0,AccFast,22,18,Woman,Right,
56,15,1,0.7667007999998532,['c'],0,right,['u'],0,0.29534160000002885,0.2,1,0,AccFast,22,18,Woman,Right,
57,15,1,0.5996673000004193,['c'],1,left,['e'],1,0.12591650000013033,0.1,1,0,AccFast,22,18,Woman,Right,
58,15,1,0.5335377000001245,['c'],1,left,['e'],1,0.15008250000028056,0.4,1,0,AccFast,22,18,Woman,Right,
59,15,1,0.6003419999997277,['c'],0,right,['u'],0,0.266012700000374,0.2,1,0,AccFast,22,18,Woman,Right,
