withinblocktrial,block,block_repetition,rt,resp,cor,cresp,conf_press,cj,rtconf,coherence,metacognition,slow_trial,manipulation,sub,age,gender,handedness,
0,1,1,0.8829529999998158,['n'],1,right,none,-99,-99,0.5,-99,0,none,34,18,Woman,Right,
1,1,1,0.5830739000000449,['c'],1,left,none,-99,-99,0.5,-99,0,none,34,18,Woman,Right,
2,1,1,0.6668737999998484,['c'],1,left,none,-99,-99,0.5,-99,0,none,34,18,Woman,Right,
3,1,1,0.5668923000000632,['c'],1,left,none,-99,-99,0.5,-99,0,none,34,18,Woman,Right,
4,1,1,0.6161841999999069,['n'],1,right,none,-99,-99,0.5,-99,0,none,34,18,Woman,Right,
5,1,1,0.5831699000000299,['n'],1,right,none,-99,-99,0.5,-99,0,none,34,18,Woman,Right,
6,1,1,1.500347099999999,['n'],1,right,none,-99,-99,0.5,-99,0,none,34,18,Woman,Right,
7,1,1,0.8835878999998386,['n'],1,right,none,-99,-99,0.5,-99,0,none,34,18,Woman,Right,
8,1,1,0.5501600000000053,['c'],1,left,none,-99,-99,0.5,-99,0,none,34,18,Woman,Right,
9,1,1,0.6334648000001835,['c'],1,left,none,-99,-99,0.5,-99,0,none,34,18,Woman,Right,
10,1,1,0.6503727000001618,['n'],1,right,none,-99,-99,0.5,-99,0,none,34,18,Woman,Right,
11,1,1,0.6321878999999626,['c'],1,left,none,-99,-99,0.5,-99,0,none,34,18,Woman,Right,
12,1,1,0.5506745000000137,['n'],1,right,none,-99,-99,0.5,-99,0,none,34,18,Woman,Right,
13,1,1,0.48263279999991937,['n'],1,right,none,-99,-99,0.5,-99,0,none,34,18,Woman,Right,
14,1,1,0.6165742999999111,['c'],1,left,none,-99,-99,0.5,-99,0,none,34,18,Woman,Right,
15,1,1,0.5506179999999858,['c'],1,left,none,-99,-99,0.5,-99,0,none,34,18,Woman,Right,
16,1,1,0.5333757000000787,['n'],1,right,none,-99,-99,0.5,-99,0,none,34,18,Woman,Right,
17,1,1,0.516097899999977,['c'],1,left,none,-99,-99,0.5,-99,0,none,34,18,Woman,Right,
18,1,1,0.5661838999999418,['c'],1,left,none,-99,-99,0.5,-99,0,none,34,18,Woman,Right,
19,1,1,0.4827067999999599,['c'],1,left,none,-99,-99,0.5,-99,0,none,34,18,Woman,Right,
20,1,1,0.4995861000002151,['n'],1,right,none,-99,-99,0.5,-99,0,none,34,18,Woman,Right,
21,1,1,0.48282289999997374,['n'],1,right,none,-99,-99,0.5,-99,0,none,34,18,Woman,Right,
22,1,1,0.5493991999999253,['c'],1,left,none,-99,-99,0.5,-99,0,none,34,18,Woman,Right,
23,1,1,0.8832148999999845,['n'],1,right,none,-99,-99,0.5,-99,0,none,34,18,Woman,Right,
0,2,1,0.5833672999999635,['n'],1,right,none,-99,-99,0.4,-99,0,none,34,18,Woman,Right,
1,2,1,0.6491290999999819,['c'],1,left,none,-99,-99,0.4,-99,0,none,34,18,Woman,Right,
2,2,1,0.4831861000000117,['n'],0,left,none,-99,-99,0.2,-99,0,none,34,18,Woman,Right,
3,2,1,0.7670874999998887,['n'],0,left,none,-99,-99,0.2,-99,0,none,34,18,Woman,Right,
4,2,1,1.4824338999999327,['n'],1,right,none,-99,-99,0.1,-99,0,none,34,18,Woman,Right,
5,2,1,0.5665312999999514,['c'],1,left,none,-99,-99,0.4,-99,0,none,34,18,Woman,Right,
6,2,1,0.6172266000000945,['n'],0,left,none,-99,-99,0.1,-99,0,none,34,18,Woman,Right,
7,2,1,0.5665311000000202,['n'],1,right,none,-99,-99,0.4,-99,0,none,34,18,Woman,Right,
8,2,1,1.2176444000001538,['c'],0,right,none,-99,-99,0.4,-99,0,none,34,18,Woman,Right,
9,2,1,2.316270900000063,['c'],0,right,none,-99,-99,0.2,-99,0,none,34,18,Woman,Right,
10,2,1,0.6671787000000222,['c'],1,left,none,-99,-99,0.1,-99,0,none,34,18,Woman,Right,
11,2,1,0.36642589999996744,['n'],0,left,none,-99,-99,0.1,-99,0,none,34,18,Woman,Right,
12,2,1,0.4172353999999814,['n'],0,left,none,-99,-99,0.1,-99,0,none,34,18,Woman,Right,
13,2,1,0.516656199999943,['n'],1,right,none,-99,-99,0.2,-99,0,none,34,18,Woman,Right,
14,2,1,0.5502834999999777,['c'],0,right,none,-99,-99,0.1,-99,0,none,34,18,Woman,Right,
15,2,1,1.1666777000000366,['c'],0,right,none,-99,-99,0.4,-99,0,none,34,18,Woman,Right,
16,2,1,0.4821644999999535,['c'],1,left,none,-99,-99,0.2,-99,0,none,34,18,Woman,Right,
17,2,1,0.8994737000000441,['n'],0,left,none,-99,-99,0.2,-99,0,none,34,18,Woman,Right,
18,2,1,0.6164765999999418,['n'],0,left,none,-99,-99,0.1,-99,0,none,34,18,Woman,Right,
19,2,1,0.5340347999999722,['n'],1,right,none,-99,-99,0.2,-99,0,none,34,18,Woman,Right,
20,2,1,1.6329717999999502,['c'],0,right,none,-99,-99,0.4,-99,0,none,34,18,Woman,Right,
21,2,1,0.6667829000000438,['c'],1,left,none,-99,-99,0.1,-99,0,none,34,18,Woman,Right,
22,2,1,0.6492322999999942,['n'],1,right,none,-99,-99,0.4,-99,0,none,34,18,Woman,Right,
23,2,1,0.7998451999999361,['c'],0,right,none,-99,-99,0.2,-99,0,none,34,18,Woman,Right,
0,2,2,0.5663107999998829,['n'],1,right,none,-99,-99,0.4,-99,0,none,34,18,Woman,Right,
1,2,2,0.6496119000000817,['n'],0,left,none,-99,-99,0.4,-99,0,none,34,18,Woman,Right,
2,2,2,0.4339516000000003,['n'],1,right,none,-99,-99,0.2,-99,0,none,34,18,Woman,Right,
3,2,2,0.3995405999999093,['c'],1,left,none,-99,-99,0.2,-99,0,none,34,18,Woman,Right,
4,2,2,0.5499402000000373,['c'],1,left,none,-99,-99,0.1,-99,0,none,34,18,Woman,Right,
5,2,2,0.3499343000000863,['n'],1,right,none,-99,-99,0.4,-99,0,none,34,18,Woman,Right,
6,2,2,0.383124799999905,['c'],1,left,none,-99,-99,0.1,-99,0,none,34,18,Woman,Right,
7,2,2,0.33256260000007387,['n'],1,right,none,-99,-99,0.4,-99,0,none,34,18,Woman,Right,
8,2,2,0.4004543000000922,['c'],0,right,none,-99,-99,0.4,-99,0,none,34,18,Woman,Right,
9,2,2,0.6996672999998736,['c'],1,left,none,-99,-99,0.2,-99,0,none,34,18,Woman,Right,
10,2,2,1.2336537999999564,['c'],1,left,none,-99,-99,0.1,-99,0,none,34,18,Woman,Right,
11,2,2,0.5659759000000122,['c'],0,right,none,-99,-99,0.1,-99,0,none,34,18,Woman,Right,
12,2,2,0.6656563999999889,['n'],1,right,none,-99,-99,0.1,-99,0,none,34,18,Woman,Right,
13,2,2,0.6331798999999592,['n'],1,right,none,-99,-99,0.2,-99,0,none,34,18,Woman,Right,
14,2,2,0.9493626999999378,['n'],1,right,none,-99,-99,0.1,-99,0,none,34,18,Woman,Right,
15,2,2,0.567113099999915,['c'],1,left,none,-99,-99,0.4,-99,0,none,34,18,Woman,Right,
16,2,2,0.5324686000001293,['c'],1,left,none,-99,-99,0.2,-99,0,none,34,18,Woman,Right,
17,2,2,0.599403600000187,['n'],1,right,none,-99,-99,0.2,-99,0,none,34,18,Woman,Right,
18,2,2,0.5139349000000948,['c'],0,right,none,-99,-99,0.1,-99,0,none,34,18,Woman,Right,
19,2,2,0.5299135000000206,['c'],1,left,none,-99,-99,0.2,-99,0,none,34,18,Woman,Right,
20,2,2,0.7461994000000232,['c'],1,left,none,-99,-99,0.4,-99,0,none,34,18,Woman,Right,
21,2,2,0.3997055999998338,['n'],0,left,none,-99,-99,0.1,-99,0,none,34,18,Woman,Right,
22,2,2,1.0637911999999687,['c'],0,right,none,-99,-99,0.4,-99,0,none,34,18,Woman,Right,
23,2,2,0.4311608000000433,['c'],1,left,none,-99,-99,0.2,-99,0,none,34,18,Woman,Right,
0,3,1,0.5833230999999159,['c'],1,left,['e'],1,0.6199470000001384,0.1,1,0,none,34,18,Woman,Right,
1,3,1,1.4832192000001214,['c'],1,left,['e'],1,0.5101790999999594,0.1,1,0,none,34,18,Woman,Right,
2,3,1,0.5997006000000056,['c'],1,left,['e'],1,0.5361830999997892,0.4,1,0,none,34,18,Woman,Right,
3,3,1,0.8162836999999854,['n'],1,right,['e'],1,1.3440810000001875,0.2,1,0,none,34,18,Woman,Right,
4,3,1,0.6487727000001087,['c'],1,left,['e'],1,0.7588504999998804,0.4,1,0,none,34,18,Woman,Right,
5,3,1,1.0995216999999684,['n'],1,right,['e'],1,1.083105899999964,0.2,1,0,none,34,18,Woman,Right,
6,3,1,0.7328923000000032,['c'],1,left,['u'],0,0.4723585000001549,0.4,0,0,none,34,18,Woman,Right,
7,3,1,0.7329621000001225,['c'],1,left,['e'],1,0.5342810000001919,0.2,1,0,none,34,18,Woman,Right,
8,3,1,0.6495061000000533,['n'],1,right,['e'],1,0.6208401999999751,0.2,1,0,none,34,18,Woman,Right,
9,3,1,0.7996141999999509,['n'],1,right,['e'],1,0.6260696000001644,0.2,1,0,none,34,18,Woman,Right,
10,3,1,0.7995791000000736,['n'],1,right,['e'],1,1.6477786999998898,0.1,1,0,none,34,18,Woman,Right,
11,3,1,0.6662942000000385,['n'],0,left,['u'],0,0.4168847000000824,0.1,1,0,none,34,18,Woman,Right,
12,3,1,0.7818947000000662,['n'],1,right,['e'],1,0.49511039999993045,0.1,1,0,none,34,18,Woman,Right,
13,3,1,0.6164413999999852,['c'],1,left,['e'],1,1.36888399999998,0.2,1,0,none,34,18,Woman,Right,
14,3,1,1.5836868999999751,['n'],0,left,['u'],0,0.4008252999999513,0.1,1,0,none,34,18,Woman,Right,
15,3,1,0.7662573000000066,['n'],1,right,['e'],1,0.4803392999999687,0.4,1,0,none,34,18,Woman,Right,
16,3,1,0.7162766999999803,['n'],1,right,['e'],1,0.42275309999990895,0.4,1,0,none,34,18,Woman,Right,
17,3,1,0.4670239000001857,['c'],0,right,['e'],1,0.7854495999999926,0.1,0,0,none,34,18,Woman,Right,
18,3,1,0.6834827000000132,['c'],0,right,['e'],1,0.5729433000001336,0.1,0,0,none,34,18,Woman,Right,
19,3,1,1.6996749999998428,['c'],1,left,['u'],0,0.40822129999992285,0.2,0,0,none,34,18,Woman,Right,
20,3,1,1.9827838999999585,['n'],1,right,['u'],0,0.31088230000000294,0.2,0,0,none,34,18,Woman,Right,
21,3,1,1.6503746999999294,['n'],0,left,['u'],0,0.3747649999997975,0.4,1,0,none,34,18,Woman,Right,
22,3,1,1.1491388000001734,['c'],1,left,['u'],0,0.8884929000000739,0.4,0,0,none,34,18,Woman,Right,
23,3,1,0.6826670000000377,['c'],0,right,['e'],1,0.4551206999999522,0.4,0,0,none,34,18,Woman,Right,
0,4,1,2.283262299999933,['c'],1,left,['u'],0,0.8881333000001632,0.4,0,0,AccFast,34,18,Woman,Right,
1,4,1,0.6496587999999974,['c'],0,right,['u'],0,0.7328509999999824,0.4,1,0,AccFast,34,18,Woman,Right,
2,4,1,0.6498333000001821,['c'],0,right,['u'],0,1.0394718000000012,0.1,1,0,AccFast,34,18,Woman,Right,
3,4,1,5.015723699999853,x,-99,right,none,-99,-99,0.1,-99,1,AccFast,34,18,Woman,Right,
4,4,1,0.7475842999999713,['c'],0,right,['e'],1,1.0435737000000245,0.4,0,0,AccFast,34,18,Woman,Right,
5,4,1,1.032920200000035,['n'],1,right,['u'],0,0.9392669999999725,0.1,0,0,AccFast,34,18,Woman,Right,
6,4,1,0.599452200000087,['c'],0,right,['u'],0,1.199393500000042,0.1,1,0,AccFast,34,18,Woman,Right,
7,4,1,0.7484295999997812,['c'],0,right,['e'],1,0.48357609999993656,0.2,0,0,AccFast,34,18,Woman,Right,
8,4,1,0.7171444999999039,['c'],1,left,['e'],1,0.3496574000000692,0.4,1,0,AccFast,34,18,Woman,Right,
9,4,1,0.5501984999998513,['c'],1,left,['u'],0,0.2997413000000506,0.4,0,0,AccFast,34,18,Woman,Right,
10,4,1,1.1993640000000596,['n'],0,left,['u'],0,0.6494652999999744,0.4,1,0,AccFast,34,18,Woman,Right,
11,4,1,0.7828865000001315,['c'],1,left,['u'],0,0.5221415000000889,0.2,0,0,AccFast,34,18,Woman,Right,
12,4,1,0.8007093999999597,['c'],0,right,['u'],0,1.0878443999999945,0.2,1,0,AccFast,34,18,Woman,Right,
13,4,1,1.2161882999998852,['n'],0,left,['u'],0,0.3816305000000284,0.2,1,0,AccFast,34,18,Woman,Right,
14,4,1,0.849962000000005,['c'],1,left,['u'],0,0.39827119999995375,0.2,0,0,AccFast,34,18,Woman,Right,
15,4,1,0.8158760000001166,['n'],1,right,['u'],0,0.4715083000000959,0.2,0,0,AccFast,34,18,Woman,Right,
16,4,1,1.1829348999999638,['n'],0,left,['u'],0,0.32737619999988965,0.1,1,0,AccFast,34,18,Woman,Right,
17,4,1,1.2827603999999155,['n'],0,left,['u'],0,0.41783669999995254,0.1,1,0,AccFast,34,18,Woman,Right,
18,4,1,0.7821718000000146,['n'],1,right,['u'],0,0.5074062999999569,0.4,0,0,AccFast,34,18,Woman,Right,
19,4,1,1.066090400000121,['n'],1,right,['u'],0,0.4944089000000531,0.2,0,0,AccFast,34,18,Woman,Right,
20,4,1,0.716390199999978,['n'],0,left,['u'],0,0.4568243999999595,0.1,1,0,AccFast,34,18,Woman,Right,
21,4,1,1.0162611000000652,['c'],0,right,['u'],0,0.448051100000157,0.4,1,0,AccFast,34,18,Woman,Right,
22,4,1,0.9495425999998588,['n'],0,left,['u'],0,0.5300401000001784,0.4,1,0,AccFast,34,18,Woman,Right,
23,4,1,1.1334483000000546,['c'],1,left,['u'],0,0.3462460999999166,0.2,0,0,AccFast,34,18,Woman,Right,
24,4,1,0.7994694000001346,['n'],1,right,['u'],0,0.3987555999999586,0.4,0,0,AccFast,34,18,Woman,Right,
25,4,1,0.7670841999999993,['c'],1,left,['u'],0,0.37828109999986737,0.2,0,0,AccFast,34,18,Woman,Right,
26,4,1,0.8163237999999637,['n'],1,right,['u'],0,0.3967635000001337,0.1,0,0,AccFast,34,18,Woman,Right,
27,4,1,0.7658687999999074,['n'],0,left,['u'],0,0.37602499999979955,0.2,1,0,AccFast,34,18,Woman,Right,
28,4,1,1.6662191000000348,['c'],0,right,['u'],0,0.43309099999987666,0.2,1,0,AccFast,34,18,Woman,Right,
29,4,1,1.3331383999998252,['c'],0,right,['u'],0,0.24405810000007477,0.2,1,0,AccFast,34,18,Woman,Right,
30,4,1,0.6661927999998625,['n'],0,left,['u'],0,0.3943154000000959,0.4,1,0,AccFast,34,18,Woman,Right,
31,4,1,0.8995611000000281,['n'],1,right,['u'],0,0.2889450999998644,0.4,0,0,AccFast,34,18,Woman,Right,
32,4,1,0.7664093000000776,['c'],0,right,['u'],0,0.3527730999999221,0.2,1,0,AccFast,34,18,Woman,Right,
33,4,1,0.4660670000000664,['n'],0,left,['u'],0,0.21807880000005753,0.1,1,0,AccFast,34,18,Woman,Right,
34,4,1,1.0995733999998265,['c'],0,right,['u'],0,0.39956280000001243,0.4,1,0,AccFast,34,18,Woman,Right,
35,4,1,1.4324017999999796,['c'],1,left,['u'],0,0.4080282999998417,0.4,0,0,AccFast,34,18,Woman,Right,
36,4,1,0.8325062999999773,['n'],1,right,['u'],0,0.35282600000005004,0.2,0,0,AccFast,34,18,Woman,Right,
37,4,1,1.2993417000000136,['n'],1,right,['u'],0,0.3688125000001037,0.1,0,0,AccFast,34,18,Woman,Right,
38,4,1,0.7830936999998812,['c'],0,right,['u'],0,0.39684220000003734,0.1,1,0,AccFast,34,18,Woman,Right,
39,4,1,1.0326239000000896,['c'],0,right,['u'],0,0.3652313000000049,0.2,1,0,AccFast,34,18,Woman,Right,
40,4,1,0.9818158000000494,['c'],1,left,['u'],0,0.4494170000000395,0.2,0,0,AccFast,34,18,Woman,Right,
41,4,1,1.3494931000000179,['c'],0,right,['u'],0,0.29929330000004484,0.1,1,0,AccFast,34,18,Woman,Right,
42,4,1,1.4665686000000733,['n'],1,right,['u'],0,0.39874699999995755,0.2,0,0,AccFast,34,18,Woman,Right,
43,4,1,0.7994822000000568,['c'],1,left,['u'],0,0.4566603999999188,0.4,0,0,AccFast,34,18,Woman,Right,
44,4,1,0.882817599999953,['c'],1,left,['u'],0,0.45328300000005584,0.1,0,0,AccFast,34,18,Woman,Right,
45,4,1,0.5327887000000828,['c'],1,left,['u'],0,0.6000022999999146,0.4,0,0,AccFast,34,18,Woman,Right,
46,4,1,0.38328980000005686,['n'],1,right,['u'],0,0.3790036999998847,0.1,0,0,AccFast,34,18,Woman,Right,
47,4,1,1.016288300000042,['c'],1,left,['u'],0,0.6851678000000447,0.1,0,0,AccFast,34,18,Woman,Right,
48,4,1,2.099620499999901,['n'],0,left,['u'],0,0.4799517999999807,0.2,1,0,AccFast,34,18,Woman,Right,
49,4,1,1.19949500000007,['n'],1,right,['u'],0,0.5347108000000844,0.4,0,0,AccFast,34,18,Woman,Right,
50,4,1,1.5326116000001093,['c'],1,left,['e'],1,0.9179263999999421,0.4,1,0,AccFast,34,18,Woman,Right,
51,4,1,1.2164048999998158,['c'],1,left,['e'],1,0.4026789000001827,0.2,1,0,AccFast,34,18,Woman,Right,
52,4,1,1.1834109999999782,['n'],0,left,['u'],0,0.3335657000000083,0.1,1,0,AccFast,34,18,Woman,Right,
53,4,1,1.2496856000000207,['n'],0,left,['u'],0,0.6883390000000418,0.1,1,0,AccFast,34,18,Woman,Right,
54,4,1,1.9331545000000006,['c'],0,right,['e'],1,0.6332182999999532,0.1,0,0,AccFast,34,18,Woman,Right,
55,4,1,1.065802500000018,['n'],1,right,['u'],0,0.3112898999997924,0.4,0,0,AccFast,34,18,Woman,Right,
56,4,1,1.3161423999999897,['c'],1,left,['u'],0,0.568650899999966,0.4,0,0,AccFast,34,18,Woman,Right,
57,4,1,1.9159896000001027,['n'],0,left,['e'],1,0.5594008000000485,0.1,0,0,AccFast,34,18,Woman,Right,
58,4,1,0.9160980999999992,['n'],0,left,['e'],1,0.35052959999984523,0.1,0,0,AccFast,34,18,Woman,Right,
59,4,1,1.1995429999999487,['n'],1,right,['u'],0,0.45876429999998436,0.2,0,0,AccFast,34,18,Woman,Right,
0,5,1,2.499506999999994,['n'],1,right,['e'],1,1.436562800000047,0.1,1,0,AccAcc,34,18,Woman,Right,
1,5,1,1.1161724999999478,['n'],0,left,['e'],1,1.0407600000000912,0.1,0,0,AccAcc,34,18,Woman,Right,
2,5,1,2.765922000000046,['n'],1,right,['u'],0,1.450816100000111,0.1,0,0,AccAcc,34,18,Woman,Right,
3,5,1,1.632685299999821,['c'],1,left,['e'],1,0.9772770000001856,0.1,1,0,AccAcc,34,18,Woman,Right,
4,5,1,1.6673107999999957,['n'],1,right,['e'],1,1.3298993999999311,0.1,1,0,AccAcc,34,18,Woman,Right,
5,5,1,2.115673499999957,['c'],1,left,['e'],1,1.1782053000001724,0.1,1,0,AccAcc,34,18,Woman,Right,
6,5,1,2.2337165999999797,['n'],0,left,['u'],0,1.1240852000000814,0.1,1,0,AccAcc,34,18,Woman,Right,
7,5,1,1.4159976999999344,['c'],1,left,['e'],1,0.6168344999998681,0.4,1,0,AccAcc,34,18,Woman,Right,
8,5,1,2.7827058000000306,['n'],1,right,['e'],1,0.9867701999999099,0.1,1,0,AccAcc,34,18,Woman,Right,
9,5,1,1.0160257000000001,['n'],1,right,['u'],0,0.4926572999997916,0.1,0,0,AccAcc,34,18,Woman,Right,
10,5,1,1.0827865000001111,['n'],0,left,['u'],0,0.44796880000012607,0.1,1,0,AccAcc,34,18,Woman,Right,
11,5,1,1.6161531000000195,['n'],1,right,['e'],1,1.263277300000027,0.2,1,0,AccAcc,34,18,Woman,Right,
12,5,1,1.7157721999999467,['n'],1,right,['u'],0,1.257982200000015,0.1,0,0,AccAcc,34,18,Woman,Right,
13,5,1,1.2326622999999017,['n'],0,left,['e'],1,1.0086567000000741,0.1,0,0,AccAcc,34,18,Woman,Right,
14,5,1,3.049629399999958,['n'],0,left,['u'],0,0.6161085999999614,0.2,1,0,AccAcc,34,18,Woman,Right,
15,5,1,2.46606840000004,['n'],1,right,['u'],0,1.2393228000000818,0.1,0,0,AccAcc,34,18,Woman,Right,
16,5,1,2.816162200000008,['n'],1,right,['u'],0,0.9193065999997998,0.2,0,0,AccAcc,34,18,Woman,Right,
17,5,1,3.7495475999999144,['n'],1,right,['u'],0,0.9913002999999208,0.4,0,0,AccAcc,34,18,Woman,Right,
18,5,1,2.032787800000051,['c'],1,left,['e'],1,0.5519226999999773,0.4,1,0,AccAcc,34,18,Woman,Right,
19,5,1,2.8498904999999013,['n'],1,right,['u'],0,0.4332303999999567,0.4,0,0,AccAcc,34,18,Woman,Right,
20,5,1,2.2660679999999047,['c'],1,left,['u'],0,0.6239425999999639,0.2,0,0,AccAcc,34,18,Woman,Right,
21,5,1,0.8994597999999314,['c'],1,left,['e'],1,0.39717880000011974,0.4,1,0,AccAcc,34,18,Woman,Right,
22,5,1,1.9165158999999221,['n'],0,left,['u'],0,0.8184020000003329,0.1,1,0,AccAcc,34,18,Woman,Right,
23,5,1,1.7819915000000037,['c'],1,left,['u'],0,0.40444639999986975,0.2,0,0,AccAcc,34,18,Woman,Right,
24,5,1,4.149271900000258,['n'],1,right,['u'],0,0.5047967000000426,0.4,0,0,AccAcc,34,18,Woman,Right,
25,5,1,0.9162329999999201,['n'],1,right,['u'],0,0.5936679999999797,0.2,0,0,AccAcc,34,18,Woman,Right,
26,5,1,3.7826114999998026,['n'],0,left,['e'],1,0.6454106000001048,0.1,0,0,AccAcc,34,18,Woman,Right,
27,5,1,2.3505215999998654,['n'],1,right,['e'],1,0.7036557999999786,0.4,1,0,AccAcc,34,18,Woman,Right,
28,5,1,0.8661534999996547,['n'],1,right,['u'],0,0.9711200000001554,0.4,0,0,AccAcc,34,18,Woman,Right,
29,5,1,1.466119400000025,['c'],1,left,['e'],1,0.49181300000009287,0.4,1,0,AccAcc,34,18,Woman,Right,
30,5,1,3.1160839999997734,['n'],0,left,['e'],1,0.598560400000224,0.1,0,0,AccAcc,34,18,Woman,Right,
31,5,1,1.8663166999999703,['n'],0,left,['e'],1,0.8291629999998804,0.2,0,0,AccAcc,34,18,Woman,Right,
32,5,1,1.8003018999997948,['n'],1,right,['e'],1,0.5823706000001039,0.2,1,0,AccAcc,34,18,Woman,Right,
33,5,1,2.565647600000375,['n'],1,right,['u'],0,0.5225132000000485,0.2,0,0,AccAcc,34,18,Woman,Right,
34,5,1,1.7831068000000414,['c'],1,left,['e'],1,1.0005491000001712,0.4,1,0,AccAcc,34,18,Woman,Right,
35,5,1,1.5333366999998361,['c'],1,left,['e'],1,0.989215300000069,0.4,1,0,AccAcc,34,18,Woman,Right,
36,5,1,1.3507814999998118,['c'],1,left,['e'],1,0.7539193000002342,0.4,1,0,AccAcc,34,18,Woman,Right,
37,5,1,1.64963089999992,['n'],0,left,['u'],0,0.5555844000000434,0.2,1,0,AccAcc,34,18,Woman,Right,
38,5,1,0.7163525000000845,['n'],1,right,['e'],1,0.3310113999996247,0.4,1,0,AccAcc,34,18,Woman,Right,
39,5,1,0.7493952999998328,['n'],1,right,['e'],1,0.4250775000000431,0.2,1,0,AccAcc,34,18,Woman,Right,
40,5,1,1.9491514999999708,['n'],0,left,['u'],0,0.43723880000015924,0.1,1,0,AccAcc,34,18,Woman,Right,
41,5,1,1.0498913999999786,['n'],0,left,['e'],1,0.4035435000000689,0.4,0,0,AccAcc,34,18,Woman,Right,
42,5,1,1.3494504000000234,['n'],1,right,['e'],1,0.46394880000025296,0.2,1,0,AccAcc,34,18,Woman,Right,
43,5,1,2.050198999999793,['n'],1,right,['u'],0,0.39688729999988936,0.2,0,0,AccAcc,34,18,Woman,Right,
44,5,1,1.999920100000054,['n'],1,right,['u'],0,0.3916420000000471,0.2,0,0,AccAcc,34,18,Woman,Right,
45,5,1,2.7497188000002097,['n'],0,left,['e'],1,0.4359002999999575,0.1,0,0,AccAcc,34,18,Woman,Right,
46,5,1,3.5499048000001494,['n'],0,left,['u'],0,0.822964100000263,0.2,1,0,AccAcc,34,18,Woman,Right,
47,5,1,1.9162805999999364,['n'],1,right,['u'],0,0.4915566999998191,0.4,0,0,AccAcc,34,18,Woman,Right,
48,5,1,2.4993076999999175,['n'],1,right,['u'],0,0.3988051000001178,0.2,0,0,AccAcc,34,18,Woman,Right,
49,5,1,0.9329207000000679,['c'],1,left,['e'],1,0.5630348999998205,0.2,1,0,AccAcc,34,18,Woman,Right,
50,5,1,1.199422400000003,['n'],1,right,['u'],0,0.41425970000000234,0.4,0,0,AccAcc,34,18,Woman,Right,
51,5,1,0.8664137999999184,['c'],1,left,['e'],1,0.46881789999997636,0.4,1,0,AccAcc,34,18,Woman,Right,
52,5,1,1.2834351999999853,['c'],1,left,['e'],1,0.5290340999999898,0.4,1,0,AccAcc,34,18,Woman,Right,
53,5,1,2.767038599999978,['n'],1,right,['u'],0,0.6717967000004137,0.1,0,0,AccAcc,34,18,Woman,Right,
54,5,1,2.649363099999846,['n'],0,left,['u'],0,0.42882979999967574,0.2,1,0,AccAcc,34,18,Woman,Right,
55,5,1,0.8829425999997511,['n'],1,right,['e'],1,0.34690180000006876,0.4,1,0,AccAcc,34,18,Woman,Right,
56,5,1,1.9495232000003853,['n'],1,right,['e'],1,0.28975979999995616,0.2,1,0,AccAcc,34,18,Woman,Right,
57,5,1,1.4491204999999354,['n'],1,right,['e'],1,0.3184900999999627,0.2,1,0,AccAcc,34,18,Woman,Right,
58,5,1,2.7329608999998527,['n'],0,left,['u'],0,0.3902783999997155,0.1,1,0,AccAcc,34,18,Woman,Right,
59,5,1,1.4662917000000562,['n'],1,right,['u'],0,0.430146700000023,0.4,0,0,AccAcc,34,18,Woman,Right,
0,6,1,0.6659137999999984,['c'],1,left,['e'],1,1.846919699999944,0.2,1,0,FastAcc,34,18,Woman,Right,
1,6,1,0.7494471999998495,['c'],1,left,['e'],1,0.38559559999976045,0.4,1,0,FastAcc,34,18,Woman,Right,
2,6,1,0.9327147999997578,['n'],1,right,['e'],1,0.5749783000001116,0.4,1,0,FastAcc,34,18,Woman,Right,
3,6,1,0.5493965000000571,['c'],0,right,['u'],0,2.05229670000017,0.4,1,0,FastAcc,34,18,Woman,Right,
4,6,1,1.83299820000002,['c'],1,left,['u'],0,0.8828744000002189,0.2,0,0,FastAcc,34,18,Woman,Right,
5,6,1,0.6659908000001451,['n'],1,right,['u'],0,0.5428796000001057,0.2,0,0,FastAcc,34,18,Woman,Right,
6,6,1,1.082829099999799,['n'],1,right,['e'],1,0.6882956999997987,0.1,1,0,FastAcc,34,18,Woman,Right,
7,6,1,0.5660652999999911,['c'],0,right,['u'],0,0.7200324000000364,0.1,1,0,FastAcc,34,18,Woman,Right,
8,6,1,0.4325401000000966,['n'],1,right,['e'],1,0.7963497999999163,0.4,1,0,FastAcc,34,18,Woman,Right,
9,6,1,0.49938520000023345,['c'],1,left,['u'],0,1.2268841000000066,0.2,0,0,FastAcc,34,18,Woman,Right,
10,6,1,0.43280529999992723,['n'],1,right,['e'],1,0.6590956000000006,0.4,1,0,FastAcc,34,18,Woman,Right,
11,6,1,0.5493732999998429,['c'],1,left,['e'],1,0.8047921000002134,0.2,1,0,FastAcc,34,18,Woman,Right,
12,6,1,0.7837016999997104,['n'],1,right,['u'],0,0.703468900000189,0.2,0,0,FastAcc,34,18,Woman,Right,
13,6,1,0.966062299999976,['c'],1,left,['u'],0,0.8227527000003647,0.1,0,0,FastAcc,34,18,Woman,Right,
14,6,1,0.9502339999999094,['n'],1,right,['e'],1,0.8819634000001315,0.4,1,0,FastAcc,34,18,Woman,Right,
15,6,1,0.5331965000000309,['n'],1,right,['e'],1,0.4034314999998969,0.2,1,0,FastAcc,34,18,Woman,Right,
16,6,1,1.3161862000001747,['n'],0,left,['e'],1,0.320212999999967,0.1,0,0,FastAcc,34,18,Woman,Right,
17,6,1,0.7994797999999719,['c'],1,left,['u'],0,0.3020489999998972,0.1,0,0,FastAcc,34,18,Woman,Right,
18,6,1,0.8497495999999956,['c'],0,right,['e'],1,0.6981363999998393,0.2,0,0,FastAcc,34,18,Woman,Right,
19,6,1,0.6829001999999491,['n'],1,right,['e'],1,2.0767565000001014,0.1,1,0,FastAcc,34,18,Woman,Right,
20,6,1,1.0494785999999294,['c'],1,left,['e'],1,0.9461220000002868,0.4,1,0,FastAcc,34,18,Woman,Right,
21,6,1,0.6493854000000283,['n'],1,right,['e'],1,0.6046782000003077,0.2,1,0,FastAcc,34,18,Woman,Right,
22,6,1,1.2827838000002885,['n'],0,left,['u'],0,0.4674055000000408,0.1,1,0,FastAcc,34,18,Woman,Right,
23,6,1,0.7993393000001561,['c'],1,left,['e'],1,0.7148721000003206,0.1,1,0,FastAcc,34,18,Woman,Right,
24,6,1,0.8995769000002838,['n'],1,right,['u'],0,0.5719121000001905,0.2,0,0,FastAcc,34,18,Woman,Right,
25,6,1,1.2152066000003288,['c'],1,left,['u'],0,0.4948583000000326,0.2,0,0,FastAcc,34,18,Woman,Right,
26,6,1,0.7658872000001793,['c'],1,left,['u'],0,0.7187815000002047,0.1,0,0,FastAcc,34,18,Woman,Right,
27,6,1,0.7493917000001602,['n'],1,right,['u'],0,0.3261992000002465,0.1,0,0,FastAcc,34,18,Woman,Right,
28,6,1,1.0327558000003592,['n'],1,right,['u'],0,0.6819508999997197,0.4,0,0,FastAcc,34,18,Woman,Right,
29,6,1,0.6828111999998328,['c'],0,right,['u'],0,0.421377399999983,0.1,1,0,FastAcc,34,18,Woman,Right,
30,6,1,0.6827296999999817,['n'],0,left,['u'],0,0.34737170000016704,0.4,1,0,FastAcc,34,18,Woman,Right,
31,6,1,0.6668899000001147,['n'],0,left,['u'],0,0.34088270000029297,0.2,1,0,FastAcc,34,18,Woman,Right,
32,6,1,0.4169518999997308,['c'],1,left,['u'],0,0.39304139999967447,0.2,0,0,FastAcc,34,18,Woman,Right,
33,6,1,0.36704409999993004,['c'],1,left,['u'],0,0.42049919999999474,0.4,0,0,FastAcc,34,18,Woman,Right,
34,6,1,0.5825714000002336,['n'],1,right,['u'],0,0.27878329999975904,0.1,0,0,FastAcc,34,18,Woman,Right,
35,6,1,0.5825257999999849,['n'],0,left,['u'],0,0.30275639999990744,0.2,1,0,FastAcc,34,18,Woman,Right,
36,6,1,0.6155831000000944,['c'],1,left,['u'],0,0.3478253000002951,0.4,0,0,FastAcc,34,18,Woman,Right,
37,6,1,0.46574599999985367,['c'],1,left,['u'],0,0.39726610000025175,0.1,0,0,FastAcc,34,18,Woman,Right,
38,6,1,0.43190050000021074,['n'],0,left,['u'],0,0.24540810000007696,0.4,1,0,FastAcc,34,18,Woman,Right,
39,6,1,0.4493588999998792,['n'],0,left,['u'],0,0.30859449999979915,0.2,1,0,FastAcc,34,18,Woman,Right,
40,6,1,0.3156347999997706,['c'],1,left,['u'],0,0.3259302999999818,0.4,0,0,FastAcc,34,18,Woman,Right,
41,6,1,0.43288699999993696,['n'],1,right,['u'],0,0.2180793000002268,0.2,0,0,FastAcc,34,18,Woman,Right,
42,6,1,0.41612560000021404,['c'],0,right,['u'],0,0.2666466999999102,0.4,1,0,FastAcc,34,18,Woman,Right,
43,6,1,0.416174299999966,['n'],0,left,['u'],0,0.21751939999967362,0.1,1,0,FastAcc,34,18,Woman,Right,
44,6,1,0.5823984999997265,['c'],1,left,['u'],0,0.33921420000024227,0.4,0,0,FastAcc,34,18,Woman,Right,
45,6,1,0.9497010999998565,['c'],0,right,['u'],0,0.4579649000002064,0.4,1,0,FastAcc,34,18,Woman,Right,
46,6,1,0.5663008999999875,['n'],1,right,['e'],1,0.35533769999983633,0.1,1,0,FastAcc,34,18,Woman,Right,
47,6,1,0.7338488999998845,['n'],0,left,['u'],0,0.22595289999981105,0.4,1,0,FastAcc,34,18,Woman,Right,
48,6,1,0.7499990999999682,['n'],1,right,['u'],0,0.4053211000000374,0.2,0,0,FastAcc,34,18,Woman,Right,
49,6,1,0.6166997000000265,['c'],1,left,['e'],1,0.4946313000000373,0.1,1,0,FastAcc,34,18,Woman,Right,
50,6,1,0.7662871000002269,['c'],0,right,['u'],0,0.26260679999995773,0.4,1,0,FastAcc,34,18,Woman,Right,
51,6,1,0.599358200000097,['c'],1,left,['u'],0,0.4866800999998304,0.4,0,0,FastAcc,34,18,Woman,Right,
52,6,1,0.38258489999998346,['n'],1,right,['u'],0,0.3499138000001949,0.1,0,0,FastAcc,34,18,Woman,Right,
53,6,1,0.6996032000001833,['n'],1,right,['u'],0,0.34187199999996665,0.4,0,0,FastAcc,34,18,Woman,Right,
54,6,1,0.6835777000001144,['n'],1,right,['u'],0,0.30321189999995113,0.2,0,0,FastAcc,34,18,Woman,Right,
55,6,1,0.6995424000001549,['n'],1,right,['u'],0,0.30532369999991715,0.1,0,0,FastAcc,34,18,Woman,Right,
56,6,1,0.6330459999999221,['n'],0,left,['u'],0,0.30972520000022996,0.1,1,0,FastAcc,34,18,Woman,Right,
57,6,1,0.7828357999997024,['n'],1,right,['u'],0,0.3886563000000933,0.2,0,0,FastAcc,34,18,Woman,Right,
58,6,1,0.516164199999821,['c'],0,right,['u'],0,0.3468265000001338,0.2,1,0,FastAcc,34,18,Woman,Right,
59,6,1,0.800374500000089,['n'],0,left,['e'],1,0.38345650000019305,0.1,0,0,FastAcc,34,18,Woman,Right,
0,7,1,0.5995137999998406,['c'],0,right,['u'],0,0.43727869999975155,0.2,1,0,FastFast,34,18,Woman,Right,
1,7,1,0.5159217999998873,['n'],1,right,['e'],1,0.33785900000020774,0.4,1,0,FastFast,34,18,Woman,Right,
2,7,1,0.5825945000001411,['n'],1,right,['e'],1,0.25525000000016007,0.1,1,0,FastFast,34,18,Woman,Right,
3,7,1,0.5330008000000817,['n'],0,left,['e'],1,0.2978050000001531,0.4,0,0,FastFast,34,18,Woman,Right,
4,7,1,0.48287260000006427,['n'],0,left,['u'],0,0.2604477000004408,0.1,1,0,FastFast,34,18,Woman,Right,
5,7,1,0.8658503999999994,['c'],1,left,['u'],0,0.2976668000001155,0.2,0,0,FastFast,34,18,Woman,Right,
6,7,1,0.43194279999988794,['c'],1,left,['u'],0,0.2063895000001139,0.1,0,0,FastFast,34,18,Woman,Right,
7,7,1,0.43244700000013836,['n'],1,right,['u'],0,0.23965069999985644,0.1,0,0,FastFast,34,18,Woman,Right,
8,7,1,0.4662988000000041,['n'],0,left,['u'],0,0.3731966000000284,0.2,1,0,FastFast,34,18,Woman,Right,
9,7,1,0.7158382000002348,['c'],0,right,['u'],0,0.17179910000004384,0.2,1,0,FastFast,34,18,Woman,Right,
10,7,1,0.5162437999997564,['n'],1,right,['u'],0,0.15455530000008366,0.1,0,0,FastFast,34,18,Woman,Right,
11,7,1,0.615782400000171,['n'],1,right,['u'],0,0.1657998000000589,0.4,0,0,FastFast,34,18,Woman,Right,
12,7,1,0.716318499999943,['c'],0,right,['u'],0,0.24443780000001425,0.2,1,0,FastFast,34,18,Woman,Right,
13,7,1,0.46669889999975567,['c'],0,right,['u'],0,0.28245560000004843,0.1,1,0,FastFast,34,18,Woman,Right,
14,7,1,0.4831684000000678,['n'],0,left,['u'],0,0.36576289999993605,0.4,1,0,FastFast,34,18,Woman,Right,
15,7,1,1.3658887999999934,['n'],0,left,['u'],0,0.2184118000000126,0.4,1,0,FastFast,34,18,Woman,Right,
16,7,1,0.9662782000000334,['c'],1,left,['u'],0,0.3491669999998521,0.2,0,0,FastFast,34,18,Woman,Right,
17,7,1,0.7493824999996832,['c'],1,left,['e'],1,0.24333009999963906,0.2,1,0,FastFast,34,18,Woman,Right,
18,7,1,0.5162155999996685,['n'],0,left,['u'],0,0.18319789999986824,0.4,1,0,FastFast,34,18,Woman,Right,
19,7,1,0.7334428000003754,['c'],1,left,['e'],1,0.24450879999994868,0.1,1,0,FastFast,34,18,Woman,Right,
20,7,1,0.5987589000001208,['n'],1,right,['u'],0,0.1572006000001238,0.4,0,0,FastFast,34,18,Woman,Right,
21,7,1,0.9674743999999009,['c'],0,right,['u'],0,0.14584579999973357,0.1,1,0,FastFast,34,18,Woman,Right,
22,7,1,0.5168391000001975,['n'],1,right,['e'],1,0.16261230000009164,0.1,1,0,FastFast,34,18,Woman,Right,
23,7,1,0.46610099999998056,['c'],0,right,['e'],1,0.4919576000002053,0.4,0,0,FastFast,34,18,Woman,Right,
24,7,1,0.6660985999997138,['n'],0,left,['e'],1,0.1837430000000495,0.4,0,0,FastFast,34,18,Woman,Right,
25,7,1,0.4158519000002343,['c'],1,left,['e'],1,0.25765769999998156,0.2,1,0,FastFast,34,18,Woman,Right,
26,7,1,0.6832057000001441,['n'],0,left,['e'],1,0.2303038000000015,0.2,0,0,FastFast,34,18,Woman,Right,
27,7,1,0.8664357999996355,['n'],0,left,['e'],1,0.277167400000053,0.1,0,0,FastFast,34,18,Woman,Right,
28,7,1,0.699833099999978,['n'],0,left,['e'],1,0.16844499999979234,0.4,0,0,FastFast,34,18,Woman,Right,
29,7,1,0.732473999999911,['n'],0,left,['u'],0,0.286316799999895,0.4,1,0,FastFast,34,18,Woman,Right,
30,7,1,0.7166113999996924,['n'],1,right,['u'],0,0.16853770000034274,0.4,0,0,FastFast,34,18,Woman,Right,
31,7,1,0.5827518000000964,['n'],0,left,['u'],0,0.19633240000030128,0.2,1,0,FastFast,34,18,Woman,Right,
32,7,1,0.6330512999998064,['n'],0,left,['u'],0,0.18963880000001154,0.1,1,0,FastFast,34,18,Woman,Right,
33,7,1,0.482643900000312,['n'],1,right,['u'],0,0.14908890000015163,0.1,0,0,FastFast,34,18,Woman,Right,
34,7,1,0.416971999999987,['n'],1,right,['e'],1,0.12827019999986078,0.4,1,0,FastFast,34,18,Woman,Right,
35,7,1,0.4496673000003284,['n'],1,right,['e'],1,0.17167539999991277,0.4,1,0,FastFast,34,18,Woman,Right,
36,7,1,0.8496711999996478,['n'],1,right,['e'],1,0.15709379999998418,0.2,1,0,FastFast,34,18,Woman,Right,
37,7,1,1.3328746000001956,['c'],1,left,['e'],1,0.15545350000002145,0.2,1,0,FastFast,34,18,Woman,Right,
38,7,1,0.7996110999997654,['n'],1,right,['e'],1,0.15190300000040224,0.2,1,0,FastFast,34,18,Woman,Right,
39,7,1,0.9326363999998648,['c'],0,right,['e'],1,0.182291499999792,0.1,0,0,FastFast,34,18,Woman,Right,
40,7,1,0.7832782000000407,['n'],1,right,['u'],0,0.22573490000013408,0.1,0,0,FastFast,34,18,Woman,Right,
41,7,1,0.6667440000001079,['n'],0,left,['u'],0,0.21644240000023274,0.1,1,0,FastFast,34,18,Woman,Right,
42,7,1,0.715993399999661,['n'],1,right,['u'],0,0.2449335000001156,0.4,0,0,FastFast,34,18,Woman,Right,
43,7,1,0.7328883000000133,['n'],0,left,['u'],0,0.19242029999986698,0.1,1,0,FastFast,34,18,Woman,Right,
44,7,1,0.8992669999997815,['n'],1,right,['u'],0,0.16735160000007454,0.4,0,0,FastFast,34,18,Woman,Right,
45,7,1,0.7001273000000765,['c'],1,left,['e'],1,0.18240749999995387,0.2,1,0,FastFast,34,18,Woman,Right,
46,7,1,0.8496173000003182,['c'],0,right,['e'],1,0.2790500000000975,0.1,0,0,FastFast,34,18,Woman,Right,
47,7,1,0.6659537999998975,['n'],1,right,['u'],0,0.17957410000008167,0.2,0,0,FastFast,34,18,Woman,Right,
48,7,1,0.46634999999969295,['n'],0,left,['u'],0,0.14863299999979063,0.2,1,0,FastFast,34,18,Woman,Right,
49,7,1,0.5828086999999869,['n'],1,right,['u'],0,0.16124830000035217,0.4,0,0,FastFast,34,18,Woman,Right,
50,7,1,0.9494454000000587,['c'],1,left,['e'],1,0.16751049999993484,0.4,1,0,FastFast,34,18,Woman,Right,
51,7,1,0.7826580999999351,['c'],0,right,['u'],0,0.13895060000004378,0.2,1,0,FastFast,34,18,Woman,Right,
52,7,1,0.6496904000000541,['n'],0,left,['u'],0,0.1657825000002049,0.1,1,0,FastFast,34,18,Woman,Right,
53,7,1,0.682911200000035,['n'],1,right,['e'],1,0.2777092999999695,0.1,1,0,FastFast,34,18,Woman,Right,
54,7,1,1.3327509000000646,['n'],1,right,['u'],0,0.1517429999998967,0.4,0,0,FastFast,34,18,Woman,Right,
55,7,1,0.96609669999998,['c'],1,left,['e'],1,0.22902060000023994,0.4,1,0,FastFast,34,18,Woman,Right,
56,7,1,0.7658602000001338,['c'],1,left,['e'],1,0.19954489999963698,0.2,1,0,FastFast,34,18,Woman,Right,
57,7,1,0.9499608999999509,['c'],1,left,['e'],1,0.17969540000012785,0.2,1,0,FastFast,34,18,Woman,Right,
58,7,1,0.6000343000000612,['n'],0,left,['e'],1,0.1349463999999898,0.2,0,0,FastFast,34,18,Woman,Right,
59,7,1,0.7329469000001154,['n'],1,right,['e'],1,0.1422115999998823,0.1,1,0,FastFast,34,18,Woman,Right,
0,8,1,1.9494503000000805,['n'],1,right,['e'],1,1.3232091999998374,0.1,1,0,AccFast,34,18,Woman,Right,
1,8,1,2.8824090000002798,['n'],1,right,['e'],1,0.42967640000006213,0.2,1,0,AccFast,34,18,Woman,Right,
2,8,1,0.8995755999999346,['n'],1,right,['e'],1,0.7467493999997714,0.4,1,0,AccFast,34,18,Woman,Right,
3,8,1,1.1658957999998165,['c'],1,left,['e'],1,0.39956630000006044,0.2,1,0,AccFast,34,18,Woman,Right,
4,8,1,0.8499905999997281,['c'],1,left,['e'],1,0.30366940000021714,0.4,1,0,AccFast,34,18,Woman,Right,
5,8,1,0.682803199999853,['c'],1,left,['e'],1,0.3462368000000424,0.1,1,0,AccFast,34,18,Woman,Right,
6,8,1,0.9333789000002071,['c'],1,left,['e'],1,0.26575339999999414,0.2,1,0,AccFast,34,18,Woman,Right,
7,8,1,0.766000300000087,['n'],1,right,['e'],1,0.2822762999999213,0.1,1,0,AccFast,34,18,Woman,Right,
8,8,1,1.0997943999996096,['c'],1,left,['e'],1,0.2528012999996463,0.4,1,0,AccFast,34,18,Woman,Right,
9,8,1,0.8491070000000036,['c'],1,left,['e'],1,0.24296069999991232,0.1,1,0,AccFast,34,18,Woman,Right,
10,8,1,1.067057200000363,['n'],0,left,['u'],0,0.2651980000000549,0.1,1,0,AccFast,34,18,Woman,Right,
11,8,1,0.6991259999999784,['n'],0,left,['u'],0,0.23649509999995644,0.2,1,0,AccFast,34,18,Woman,Right,
12,8,1,0.6163408000002164,['n'],1,right,['u'],0,0.252693200000067,0.4,0,0,AccFast,34,18,Woman,Right,
13,8,1,1.0164790999997422,['c'],1,left,['e'],1,0.2755074000001514,0.2,1,0,AccFast,34,18,Woman,Right,
14,8,1,0.9323649000002661,['n'],1,right,['e'],1,0.2616669999997612,0.2,1,0,AccFast,34,18,Woman,Right,
15,8,1,2.4999687000004087,['n'],1,right,['e'],1,0.2656538000001092,0.1,1,0,AccFast,34,18,Woman,Right,
16,8,1,0.7158434999996643,['n'],1,right,['e'],1,0.2204001000000062,0.1,1,0,AccFast,34,18,Woman,Right,
17,8,1,0.9995656000000963,['n'],1,right,['e'],1,0.2294339999998556,0.1,1,0,AccFast,34,18,Woman,Right,
18,8,1,1.1495486000003439,['n'],1,right,['e'],1,0.30499550000013187,0.4,1,0,AccFast,34,18,Woman,Right,
19,8,1,0.8996606000000611,['n'],1,right,['e'],1,0.234903900000063,0.1,1,0,AccFast,34,18,Woman,Right,
20,8,1,0.9659299999998439,['c'],1,left,['e'],1,0.22886449999987235,0.1,1,0,AccFast,34,18,Woman,Right,
21,8,1,1.3826323000002958,['n'],0,left,['e'],1,0.23899309999978868,0.4,0,0,AccFast,34,18,Woman,Right,
22,8,1,1.566373399999975,['n'],1,right,['e'],1,0.23284239999975398,0.4,1,0,AccFast,34,18,Woman,Right,
23,8,1,1.5831098000003294,['c'],0,right,['u'],0,0.21013889999994717,0.4,1,0,AccFast,34,18,Woman,Right,
24,8,1,0.8156529000002593,['n'],1,right,['u'],0,0.23553420000007463,0.4,0,0,AccFast,34,18,Woman,Right,
25,8,1,0.6001694000001407,['n'],1,right,['u'],0,0.2121439000002283,0.4,0,0,AccFast,34,18,Woman,Right,
26,8,1,1.0657523999998375,['n'],1,right,['u'],0,0.23550760000034643,0.1,0,0,AccFast,34,18,Woman,Right,
27,8,1,0.8660639999998239,['n'],0,left,['u'],0,0.15351270000019213,0.4,1,0,AccFast,34,18,Woman,Right,
28,8,1,0.7654754000000139,['c'],1,left,['u'],0,0.19094689999974435,0.2,0,0,AccFast,34,18,Woman,Right,
29,8,1,0.5330920999999762,['n'],0,left,['u'],0,0.1961913000000095,0.4,1,0,AccFast,34,18,Woman,Right,
30,8,1,0.8322322999997596,['n'],1,right,['u'],0,0.15754299999980503,0.4,0,0,AccFast,34,18,Woman,Right,
31,8,1,0.6330456999999114,['c'],1,left,['e'],1,0.13646220000009635,0.4,1,0,AccFast,34,18,Woman,Right,
32,8,1,0.8994696999998268,['n'],1,right,['e'],1,0.2168744999999035,0.1,1,0,AccFast,34,18,Woman,Right,
33,8,1,0.7992723000002115,['n'],0,left,['u'],0,0.1302266000002419,0.4,1,0,AccFast,34,18,Woman,Right,
34,8,1,1.2329081000002589,['n'],0,left,['e'],1,0.25425799999993615,0.1,0,0,AccFast,34,18,Woman,Right,
35,8,1,0.5677108999998381,['c'],1,left,['u'],0,0.16735370000014882,0.4,0,0,AccFast,34,18,Woman,Right,
36,8,1,0.5826586000002862,['c'],1,left,['u'],0,0.250851799999964,0.1,0,0,AccFast,34,18,Woman,Right,
37,8,1,0.5334437000001344,['n'],1,right,['e'],1,0.3099685000001955,0.4,1,0,AccFast,34,18,Woman,Right,
38,8,1,0.9324650999997175,['n'],1,right,['e'],1,0.17476759999999558,0.2,1,0,AccFast,34,18,Woman,Right,
39,8,1,0.7324233000003915,['n'],1,right,['u'],0,0.2447704999999587,0.2,0,0,AccFast,34,18,Woman,Right,
40,8,1,1.099964899999577,['c'],1,left,['e'],1,0.1694430999996257,0.4,1,0,AccFast,34,18,Woman,Right,
41,8,1,0.9992745999998078,['n'],0,left,['u'],0,0.2687247999997453,0.2,1,0,AccFast,34,18,Woman,Right,
42,8,1,1.1658421000001908,['n'],0,left,['u'],0,0.20546510000031049,0.1,1,0,AccFast,34,18,Woman,Right,
43,8,1,0.7162934000002679,['n'],1,right,['u'],0,0.10676910000029238,0.2,0,0,AccFast,34,18,Woman,Right,
44,8,1,0.8169253000000936,['n'],0,left,['u'],0,0.1121143000000302,0.1,1,0,AccFast,34,18,Woman,Right,
45,8,1,1.115863300000001,['n'],0,left,['u'],0,0.32923829999981535,0.2,1,0,AccFast,34,18,Woman,Right,
46,8,1,0.8829283999998552,['n'],0,left,['u'],0,0.21129760000030728,0.4,1,0,AccFast,34,18,Woman,Right,
47,8,1,0.8833040999998047,['n'],1,right,['u'],0,0.1781409000000167,0.2,0,0,AccFast,34,18,Woman,Right,
48,8,1,1.2335202999997819,['n'],1,right,['u'],0,0.14034330000004047,0.1,0,0,AccFast,34,18,Woman,Right,
49,8,1,0.899516500000118,['n'],0,left,['u'],0,0.1405706000000464,0.4,1,0,AccFast,34,18,Woman,Right,
50,8,1,0.7325434999997924,['n'],1,right,['u'],0,0.17214389999980995,0.1,0,0,AccFast,34,18,Woman,Right,
51,8,1,0.7332201999997778,['n'],1,right,['u'],0,0.218095600000197,0.2,0,0,AccFast,34,18,Woman,Right,
52,8,1,0.683230900000126,['n'],0,left,['u'],0,0.152181500000097,0.1,1,0,AccFast,34,18,Woman,Right,
53,8,1,0.9321359000000484,['c'],0,right,['e'],1,0.28667559999985315,0.2,0,0,AccFast,34,18,Woman,Right,
54,8,1,0.9828844000003301,['c'],0,right,['u'],0,0.15801680000004126,0.1,1,0,AccFast,34,18,Woman,Right,
55,8,1,0.9324515000002975,['c'],0,right,['u'],0,0.15663139999969644,0.2,1,0,AccFast,34,18,Woman,Right,
56,8,1,1.1829999000001408,['c'],1,left,['u'],0,0.1934958000001643,0.2,0,0,AccFast,34,18,Woman,Right,
57,8,1,0.8165675999998712,['c'],1,left,['u'],0,0.21154239999987112,0.2,0,0,AccFast,34,18,Woman,Right,
58,8,1,0.9493347000002359,['c'],0,right,['e'],1,0.19147949999978664,0.2,0,0,AccFast,34,18,Woman,Right,
59,8,1,0.848869299999933,['c'],1,left,['e'],1,0.2242871999997078,0.2,1,0,AccFast,34,18,Woman,Right,
0,9,1,1.2995657000001302,['n'],1,right,['e'],1,1.2761285999999927,0.4,1,0,AccAcc,34,18,Woman,Right,
1,9,1,1.9835110999997596,['c'],1,left,['e'],1,0.8918730999998843,0.2,1,0,AccAcc,34,18,Woman,Right,
2,9,1,1.0497378000000026,['n'],1,right,['u'],0,0.6967813999999635,0.1,0,0,AccAcc,34,18,Woman,Right,
3,9,1,0.8664131000000452,['n'],0,left,['u'],0,0.4688474000004135,0.2,1,0,AccAcc,34,18,Woman,Right,
4,9,1,2.3992795999997725,['c'],1,left,['e'],1,0.6920568999998977,0.4,1,0,AccAcc,34,18,Woman,Right,
5,9,1,1.3663805999999568,['n'],0,left,['u'],0,0.5560700999999426,0.1,1,0,AccAcc,34,18,Woman,Right,
6,9,1,1.3334885999997823,['c'],0,right,['u'],0,1.0025915999999597,0.2,1,0,AccAcc,34,18,Woman,Right,
7,9,1,0.8660461999998006,['n'],1,right,['e'],1,0.7300445000000764,0.2,1,0,AccAcc,34,18,Woman,Right,
8,9,1,1.6831664999999703,['n'],1,right,['u'],0,0.7320263999999952,0.4,0,0,AccAcc,34,18,Woman,Right,
9,9,1,1.8832144999996672,['n'],1,right,['e'],1,0.6452884000000267,0.1,1,0,AccAcc,34,18,Woman,Right,
10,9,1,1.5823738000003686,['c'],1,left,['u'],0,0.566683799999737,0.1,0,0,AccAcc,34,18,Woman,Right,
11,9,1,1.2995719999998983,['c'],0,right,['e'],1,0.9339663999999175,0.2,0,0,AccAcc,34,18,Woman,Right,
12,9,1,1.3995621999997638,['c'],0,right,['u'],0,0.5065240999997513,0.4,1,0,AccAcc,34,18,Woman,Right,
13,9,1,1.6490898000001835,['c'],1,left,['e'],1,0.598783800000092,0.4,1,0,AccAcc,34,18,Woman,Right,
14,9,1,2.199270599999636,['c'],0,right,['u'],0,0.4966674000002058,0.2,1,0,AccAcc,34,18,Woman,Right,
15,9,1,2.3333591999999044,['n'],1,right,['u'],0,0.3778543000003083,0.2,0,0,AccAcc,34,18,Woman,Right,
16,9,1,2.8826065000002927,['c'],0,right,['u'],0,0.5138265999999021,0.2,1,0,AccAcc,34,18,Woman,Right,
17,9,1,2.3827170000004116,['c'],0,right,['e'],1,0.5999065999999402,0.1,0,0,AccAcc,34,18,Woman,Right,
18,9,1,1.3324572000001353,['n'],0,left,['u'],0,0.5486561000002439,0.1,1,0,AccAcc,34,18,Woman,Right,
19,9,1,1.1158627999998316,['c'],1,left,['e'],1,0.38773989999981495,0.2,1,0,AccAcc,34,18,Woman,Right,
20,9,1,1.0496118999999453,['n'],1,right,['e'],1,0.27684720000024754,0.4,1,0,AccAcc,34,18,Woman,Right,
21,9,1,3.548801200000071,['n'],1,right,['e'],1,0.5177794999999605,0.4,1,0,AccAcc,34,18,Woman,Right,
22,9,1,1.499322299999676,['n'],1,right,['u'],0,0.37510640000027706,0.1,0,0,AccAcc,34,18,Woman,Right,
23,9,1,1.116274599999997,['c'],1,left,['e'],1,0.517710900000111,0.4,1,0,AccAcc,34,18,Woman,Right,
24,9,1,1.782713899999635,['c'],1,left,['e'],1,0.3238186999997197,0.2,1,0,AccAcc,34,18,Woman,Right,
25,9,1,0.6829462999999123,['n'],1,right,['e'],1,0.3258552999996027,0.1,1,0,AccAcc,34,18,Woman,Right,
26,9,1,1.0832907000003615,['n'],1,right,['u'],0,0.21579800000017713,0.4,0,0,AccAcc,34,18,Woman,Right,
27,9,1,1.3165589000000182,['c'],1,left,['e'],1,0.3644951999999648,0.2,1,0,AccAcc,34,18,Woman,Right,
28,9,1,1.0322634999997717,['c'],1,left,['e'],1,0.32631339999988995,0.1,1,0,AccAcc,34,18,Woman,Right,
29,9,1,1.382542999999714,['c'],1,left,['e'],1,0.3485865000002377,0.2,1,0,AccAcc,34,18,Woman,Right,
30,9,1,1.0663848000003782,['n'],0,left,['e'],1,0.285812800000258,0.1,0,0,AccAcc,34,18,Woman,Right,
31,9,1,1.1493978999997125,['n'],1,right,['e'],1,0.33442609999974593,0.4,1,0,AccAcc,34,18,Woman,Right,
32,9,1,2.683317299999999,['n'],0,left,['e'],1,0.27188699999987875,0.2,0,0,AccAcc,34,18,Woman,Right,
33,9,1,1.6339739000000009,['n'],1,right,['e'],1,0.23800189999974464,0.1,1,0,AccAcc,34,18,Woman,Right,
34,9,1,1.448585500000263,['n'],1,right,['e'],1,0.26038440000002083,0.4,1,0,AccAcc,34,18,Woman,Right,
35,9,1,1.0996518000001743,['n'],1,right,['e'],1,0.28048020000005636,0.4,1,0,AccAcc,34,18,Woman,Right,
36,9,1,1.3824601000001167,['n'],0,left,['e'],1,0.28841330000022936,0.4,0,0,AccAcc,34,18,Woman,Right,
37,9,1,0.849298600000111,['n'],1,right,['e'],1,0.3496167999996942,0.1,1,0,AccAcc,34,18,Woman,Right,
38,9,1,1.1657562999998845,['n'],0,left,['e'],1,0.2747855999996318,0.1,0,0,AccAcc,34,18,Woman,Right,
39,9,1,1.1491378000000623,['n'],0,left,['e'],1,0.2518239999999423,0.4,0,0,AccAcc,34,18,Woman,Right,
40,9,1,2.132083899999998,['c'],1,left,['e'],1,0.3663970000002337,0.2,1,0,AccAcc,34,18,Woman,Right,
41,9,1,2.7322019999996883,['n'],1,right,['u'],0,0.36451069999975516,0.2,0,0,AccAcc,34,18,Woman,Right,
42,9,1,2.515721400000075,['n'],1,right,['u'],0,0.3710049999999683,0.1,0,0,AccAcc,34,18,Woman,Right,
43,9,1,1.1164152000001195,['c'],1,left,['e'],1,0.42560210000010557,0.4,1,0,AccAcc,34,18,Woman,Right,
44,9,1,2.2000397000001612,['c'],1,left,['e'],1,0.467102700000396,0.2,1,0,AccAcc,34,18,Woman,Right,
45,9,1,1.0494174000000385,['n'],1,right,['e'],1,0.3283910999998625,0.2,1,0,AccAcc,34,18,Woman,Right,
46,9,1,1.082542800000283,['c'],0,right,['e'],1,0.4584023000002162,0.4,0,0,AccAcc,34,18,Woman,Right,
47,9,1,1.7660775999997895,['c'],0,right,['e'],1,0.49964589999990494,0.4,0,0,AccAcc,34,18,Woman,Right,
48,9,1,0.9823664000000463,['n'],1,right,['e'],1,0.4423632000002726,0.1,1,0,AccAcc,34,18,Woman,Right,
49,9,1,3.115971400000035,['n'],1,right,['u'],0,0.5509361000003992,0.4,0,0,AccAcc,34,18,Woman,Right,
50,9,1,1.4837009000002581,['c'],1,left,['e'],1,0.4149078999998892,0.4,1,0,AccAcc,34,18,Woman,Right,
51,9,1,2.4501452999998037,['c'],1,left,['e'],1,0.5428323000001001,0.2,1,0,AccAcc,34,18,Woman,Right,
52,9,1,2.3330550000000585,['c'],1,left,['u'],0,0.3254946000001837,0.2,0,0,AccAcc,34,18,Woman,Right,
53,9,1,1.5493563999998514,['c'],1,left,['u'],0,0.3570021000000452,0.1,0,0,AccAcc,34,18,Woman,Right,
54,9,1,2.266374999999698,['c'],1,left,['e'],1,0.4705772000002071,0.4,1,0,AccAcc,34,18,Woman,Right,
55,9,1,1.1156906000001072,['c'],1,left,['e'],1,0.35289030000012644,0.1,1,0,AccAcc,34,18,Woman,Right,
56,9,1,3.3995098999998845,['c'],1,left,['e'],1,0.4449376999996275,0.1,1,0,AccAcc,34,18,Woman,Right,
57,9,1,2.2659214999998767,['c'],1,left,['e'],1,0.33915040000010777,0.1,1,0,AccAcc,34,18,Woman,Right,
58,9,1,3.515945499999816,['c'],0,right,['e'],1,0.9067939999999908,0.1,0,0,AccAcc,34,18,Woman,Right,
59,9,1,3.232385499999964,['c'],1,left,['u'],0,0.4638001000002987,0.2,0,0,AccAcc,34,18,Woman,Right,
0,10,1,0.6825967999998284,['c'],1,left,['e'],1,1.7323255000001154,0.1,1,0,FastAcc,34,18,Woman,Right,
1,10,1,1.1832573000001503,['n'],0,left,['u'],0,0.7136288000001514,0.1,1,0,FastAcc,34,18,Woman,Right,
2,10,1,0.7493242999998984,['n'],1,right,['e'],1,0.30488410000043586,0.1,1,0,FastAcc,34,18,Woman,Right,
3,10,1,1.1662028999999166,['n'],1,right,['e'],1,0.5922810000001846,0.4,1,0,FastAcc,34,18,Woman,Right,
4,10,1,0.6328819000000294,['c'],1,left,['e'],1,0.7695102999996379,0.2,1,0,FastAcc,34,18,Woman,Right,
5,10,1,0.616512099999909,['n'],1,right,['e'],1,0.6766011000004255,0.4,1,0,FastAcc,34,18,Woman,Right,
6,10,1,0.6825291000000107,['n'],1,right,['e'],1,0.5682388999998693,0.4,1,0,FastAcc,34,18,Woman,Right,
7,10,1,1.1154288000002452,['c'],1,left,['e'],1,0.558902499999931,0.2,1,0,FastAcc,34,18,Woman,Right,
8,10,1,0.4662134000000151,['c'],1,left,['e'],1,0.6241731000000073,0.4,1,0,FastAcc,34,18,Woman,Right,
9,10,1,0.46584930000017266,['c'],1,left,['e'],1,0.5989918999998736,0.4,1,0,FastAcc,34,18,Woman,Right,
10,10,1,0.4662458000002516,['n'],1,right,['e'],1,0.8064148999997087,0.2,1,0,FastAcc,34,18,Woman,Right,
11,10,1,0.3828567999998995,['c'],1,left,['e'],1,0.5290754999996352,0.2,1,0,FastAcc,34,18,Woman,Right,
12,10,1,0.5496649000001526,['n'],1,right,['e'],1,0.5521795999998176,0.1,1,0,FastAcc,34,18,Woman,Right,
13,10,1,0.6497405000000072,['n'],1,right,['u'],0,0.47447230000034324,0.4,0,0,FastAcc,34,18,Woman,Right,
14,10,1,0.6327206999999362,['c'],1,left,['e'],1,0.5441814000000704,0.4,1,0,FastAcc,34,18,Woman,Right,
15,10,1,0.6161363000001074,['n'],1,right,['e'],1,0.5321829999998045,0.2,1,0,FastAcc,34,18,Woman,Right,
16,10,1,0.34883689999969647,['c'],1,left,['e'],1,0.5629002999999102,0.4,1,0,FastAcc,34,18,Woman,Right,
17,10,1,0.5165845999999874,['n'],0,left,['e'],1,0.45019649999994726,0.2,0,0,FastAcc,34,18,Woman,Right,
18,10,1,1.2161722000000736,['n'],0,left,['u'],0,0.37757609999971464,0.1,1,0,FastAcc,34,18,Woman,Right,
19,10,1,0.433036699999775,['c'],1,left,['e'],1,0.6916956000000027,0.2,1,0,FastAcc,34,18,Woman,Right,
20,10,1,0.682719200000065,['n'],1,right,['e'],1,0.3267721000001984,0.1,1,0,FastAcc,34,18,Woman,Right,
21,10,1,0.7485869000001912,['c'],1,left,['e'],1,0.45412190000024566,0.4,1,0,FastAcc,34,18,Woman,Right,
22,10,1,0.5498322999997072,['n'],1,right,['e'],1,0.4721346999999696,0.4,1,0,FastAcc,34,18,Woman,Right,
23,10,1,0.4822583999998642,['c'],1,left,['e'],1,0.5164917000001878,0.1,1,0,FastAcc,34,18,Woman,Right,
24,10,1,0.7492564000003767,['n'],0,left,['u'],0,0.29951070000015534,0.2,1,0,FastAcc,34,18,Woman,Right,
25,10,1,0.9490834000002906,['c'],1,left,['e'],1,0.6114127999999255,0.2,1,0,FastAcc,34,18,Woman,Right,
26,10,1,0.7489835999999741,['c'],1,left,['e'],1,0.47147640000002866,0.4,1,0,FastAcc,34,18,Woman,Right,
27,10,1,0.7831588999997621,['n'],1,right,['e'],1,0.44754909999983283,0.4,1,0,FastAcc,34,18,Woman,Right,
28,10,1,1.3486225999999988,['n'],1,right,['u'],0,0.3617405999998482,0.1,0,0,FastAcc,34,18,Woman,Right,
29,10,1,1.166781699999774,['n'],1,right,['e'],1,0.23892139999998108,0.1,1,0,FastAcc,34,18,Woman,Right,
30,10,1,1.167938100000356,['c'],0,right,['u'],0,0.2566471999998612,0.2,1,0,FastAcc,34,18,Woman,Right,
31,10,1,0.8166364999997313,['n'],0,left,['u'],0,0.2963734999998451,0.1,1,0,FastAcc,34,18,Woman,Right,
32,10,1,0.5168297000000166,['n'],1,right,['e'],1,0.4661214999996446,0.4,1,0,FastAcc,34,18,Woman,Right,
33,10,1,0.6157804000004035,['n'],0,left,['u'],0,0.3927275000000918,0.1,1,0,FastAcc,34,18,Woman,Right,
34,10,1,0.8489211000000978,['c'],0,right,['e'],1,0.4813491999998405,0.1,0,0,FastAcc,34,18,Woman,Right,
35,10,1,0.3995829999998932,['n'],1,right,['u'],0,0.42406220000020767,0.2,0,0,FastAcc,34,18,Woman,Right,
36,10,1,0.515687799999796,['n'],1,right,['u'],0,0.5087343000000146,0.2,0,0,FastAcc,34,18,Woman,Right,
37,10,1,0.449333900000056,['c'],0,right,['e'],1,0.8486369000002014,0.1,0,0,FastAcc,34,18,Woman,Right,
38,10,1,0.5163088999997854,['n'],1,right,['u'],0,0.47607590000006894,0.4,0,0,FastAcc,34,18,Woman,Right,
39,10,1,0.615806899999825,['c'],1,left,['u'],0,0.5147753000001103,0.1,0,0,FastAcc,34,18,Woman,Right,
40,10,1,0.582954399999835,['n'],1,right,['u'],0,0.36877459999959683,0.1,0,0,FastAcc,34,18,Woman,Right,
41,10,1,0.7333038000001579,['c'],0,right,['e'],1,0.85488579999992,0.2,0,0,FastAcc,34,18,Woman,Right,
42,10,1,0.5829522000003635,['n'],0,left,['u'],0,0.35961790000010296,0.1,1,0,FastAcc,34,18,Woman,Right,
43,10,1,0.6338180000002467,['c'],1,left,['e'],1,0.27389450000009674,0.4,1,0,FastAcc,34,18,Woman,Right,
44,10,1,0.4323551999996198,['n'],1,right,['e'],1,0.5761615000001257,0.4,1,0,FastAcc,34,18,Woman,Right,
45,10,1,0.3824029000002156,['c'],0,right,['u'],0,0.6039405000001352,0.1,1,0,FastAcc,34,18,Woman,Right,
46,10,1,0.41619870000022274,['n'],0,left,['e'],1,0.6216123999997762,0.2,0,0,FastAcc,34,18,Woman,Right,
47,10,1,1.1330889999999272,['c'],1,left,['e'],1,1.017618599999878,0.4,1,0,FastAcc,34,18,Woman,Right,
48,10,1,0.8658479000000625,['n'],1,right,['u'],0,0.24791929999992135,0.4,0,0,FastAcc,34,18,Woman,Right,
49,10,1,0.43262219999996887,['c'],0,right,['e'],1,0.3187263999998322,0.4,0,0,FastAcc,34,18,Woman,Right,
50,10,1,0.49931380000043646,['c'],0,right,['e'],1,0.36020989999997255,0.2,0,0,FastAcc,34,18,Woman,Right,
51,10,1,0.5332456000001002,['c'],1,left,['u'],0,0.5746258000003763,0.2,0,0,FastAcc,34,18,Woman,Right,
52,10,1,0.5827156999998806,['c'],1,left,['e'],1,0.3066689000002043,0.2,1,0,FastAcc,34,18,Woman,Right,
53,10,1,0.5838865999999143,['c'],1,left,['e'],1,0.2733943999996882,0.1,1,0,FastAcc,34,18,Woman,Right,
54,10,1,0.5505032000000938,['c'],1,left,['e'],1,0.27472820000002685,0.1,1,0,FastAcc,34,18,Woman,Right,
55,10,1,0.4999793999995745,['c'],1,left,['e'],1,0.28607709999960207,0.2,1,0,FastAcc,34,18,Woman,Right,
56,10,1,0.566374900000028,['c'],1,left,['e'],1,0.44599349999998594,0.4,1,0,FastAcc,34,18,Woman,Right,
57,10,1,0.5987052999998923,['c'],0,right,['e'],1,0.29447090000030585,0.1,0,0,FastAcc,34,18,Woman,Right,
58,10,1,0.549707799999851,['c'],0,right,['u'],0,0.33520050000015544,0.2,1,0,FastAcc,34,18,Woman,Right,
59,10,1,1.1995550000001458,['c'],0,right,['e'],1,0.4919165000001158,0.2,0,0,FastAcc,34,18,Woman,Right,
0,11,1,0.6157846999999492,['c'],1,left,['u'],0,0.3625601000003371,0.2,0,0,FastFast,34,18,Woman,Right,
1,11,1,0.4495133000000351,['c'],1,left,['e'],1,0.25261109999973996,0.1,1,0,FastFast,34,18,Woman,Right,
2,11,1,0.5328899000001002,['n'],1,right,['u'],0,0.2870813999998063,0.4,0,0,FastFast,34,18,Woman,Right,
3,11,1,0.3829839999998512,['n'],1,right,['u'],0,0.3666211999998268,0.1,0,0,FastFast,34,18,Woman,Right,
4,11,1,0.5493542000003799,['c'],1,left,['e'],1,0.45193220000010115,0.1,1,0,FastFast,34,18,Woman,Right,
5,11,1,0.4996163000000706,['c'],1,left,['e'],1,0.3439093999995748,0.4,1,0,FastFast,34,18,Woman,Right,
6,11,1,0.7829057999997531,['n'],1,right,['u'],0,0.18130859999973836,0.2,0,0,FastFast,34,18,Woman,Right,
7,11,1,0.7994692000002033,['c'],1,left,['u'],0,0.3597414999999273,0.2,0,0,FastFast,34,18,Woman,Right,
8,11,1,0.7495301999997537,['c'],0,right,['u'],0,0.2377808000001096,0.4,1,0,FastFast,34,18,Woman,Right,
9,11,1,0.6494099999999889,['n'],1,right,['u'],0,0.15650779999987208,0.1,0,0,FastFast,34,18,Woman,Right,
10,11,1,0.8162436000002344,['c'],0,right,['u'],0,0.23999940000021525,0.2,1,0,FastFast,34,18,Woman,Right,
11,11,1,0.649312000000009,['c'],0,right,['e'],1,0.37475990000029924,0.2,0,0,FastFast,34,18,Woman,Right,
12,11,1,0.6833075999998073,['c'],1,left,['e'],1,0.16653870000027382,0.2,1,0,FastFast,34,18,Woman,Right,
13,11,1,0.61591720000024,['c'],0,right,['u'],0,0.1852168000000347,0.2,1,0,FastFast,34,18,Woman,Right,
14,11,1,0.7659638000000086,['c'],1,left,['u'],0,0.2695389000000432,0.1,0,0,FastFast,34,18,Woman,Right,
15,11,1,0.6827355999998872,['n'],1,right,['u'],0,0.1532028999999966,0.2,0,0,FastFast,34,18,Woman,Right,
16,11,1,0.46556009999994785,['c'],0,right,['u'],0,0.19448959999999715,0.2,1,0,FastFast,34,18,Woman,Right,
17,11,1,0.532162900000003,['c'],1,left,['e'],1,0.1998302000001786,0.4,1,0,FastFast,34,18,Woman,Right,
18,11,1,0.9333003000001554,['n'],0,left,['e'],1,0.15672519999998258,0.1,0,0,FastFast,34,18,Woman,Right,
19,11,1,0.5340383999996448,['c'],1,left,['u'],0,0.15538470000001325,0.4,0,0,FastFast,34,18,Woman,Right,
20,11,1,0.6157392000000073,['c'],0,right,['u'],0,0.3506073000003198,0.4,1,0,FastFast,34,18,Woman,Right,
21,11,1,0.6826052999999774,['c'],0,right,['u'],0,0.11940009999989343,0.2,1,0,FastFast,34,18,Woman,Right,
22,11,1,0.8663884000002327,['c'],1,left,['e'],1,0.07391890000008061,0.4,1,0,FastFast,34,18,Woman,Right,
23,11,1,0.8819712000004074,['n'],1,right,['u'],0,0.12606379999988349,0.2,0,0,FastFast,34,18,Woman,Right,
24,11,1,0.5152692999999999,['c'],1,left,['e'],1,0.10222489999978279,0.2,1,0,FastFast,34,18,Woman,Right,
25,11,1,0.9493423000003531,['c'],1,left,['u'],0,0.07850610000014058,0.4,0,0,FastFast,34,18,Woman,Right,
26,11,1,0.6660317999999279,['n'],0,left,['u'],0,0.10715749999963009,0.4,1,0,FastFast,34,18,Woman,Right,
27,11,1,0.9992692000000716,['n'],1,right,['e'],1,0.18537560000004305,0.4,1,0,FastFast,34,18,Woman,Right,
28,11,1,1.0492592999999033,['n'],0,left,['u'],0,0.0579979999997704,0.1,1,0,FastFast,34,18,Woman,Right,
29,11,1,0.8832360999999764,['c'],1,left,['e'],1,0.366855399999622,0.4,1,0,FastFast,34,18,Woman,Right,
30,11,1,1.1168244999998933,['c'],1,left,['u'],0,0.13341480000008232,0.4,0,0,FastFast,34,18,Woman,Right,
31,11,1,0.8332276999999522,['n'],1,right,['u'],0,0.14457869999978357,0.2,0,0,FastFast,34,18,Woman,Right,
32,11,1,0.6490699999999379,['n'],1,right,['u'],0,0.17912249999972119,0.2,0,0,FastFast,34,18,Woman,Right,
33,11,1,0.9830007000000478,['n'],1,right,['e'],1,0.15105680000033317,0.2,1,0,FastFast,34,18,Woman,Right,
34,11,1,0.799032200000056,['n'],1,right,['u'],0,0.13910940000005212,0.2,0,0,FastFast,34,18,Woman,Right,
35,11,1,1.6328934000002846,['n'],0,left,['e'],1,0.09445279999999912,0.1,0,0,FastFast,34,18,Woman,Right,
36,11,1,0.7491039999999884,['n'],1,right,['u'],0,0.14312370000016017,0.2,0,0,FastFast,34,18,Woman,Right,
37,11,1,0.6330425000001014,['n'],1,right,['u'],0,0.0984454999997979,0.1,0,0,FastFast,34,18,Woman,Right,
38,11,1,0.7659343000000263,['n'],0,left,['u'],0,0.026018999999905645,0.4,1,0,FastFast,34,18,Woman,Right,
39,11,1,1.2341486999998779,['n'],1,right,['e'],1,0.11368919999995342,0.2,1,0,FastFast,34,18,Woman,Right,
40,11,1,1.366443899999922,['n'],1,right,['u'],0,0.11311280000018087,0.4,0,0,FastFast,34,18,Woman,Right,
41,11,1,2.182260199999746,['c'],1,left,['e'],1,0.14365409999982148,0.4,1,0,FastFast,34,18,Woman,Right,
42,11,1,1.2326500999997734,['n'],1,right,['u'],0,0.06699370000023919,0.1,0,0,FastFast,34,18,Woman,Right,
43,11,1,0.7500353999998879,['n'],1,right,['e'],1,0.18860330000006797,0.4,1,0,FastFast,34,18,Woman,Right,
44,11,1,0.6152440999999271,['n'],1,right,['e'],1,0.17465759999959118,0.4,1,0,FastFast,34,18,Woman,Right,
45,11,1,1.1498417000002519,['c'],1,left,['u'],0,0.07596389999980602,0.2,0,0,FastFast,34,18,Woman,Right,
46,11,1,0.7157654000002367,['n'],0,left,['e'],1,0.19851239999979953,0.1,0,0,FastFast,34,18,Woman,Right,
47,11,1,0.6501465999999709,['n'],1,right,['u'],0,0.07021279999980834,0.4,0,0,FastFast,34,18,Woman,Right,
48,11,1,1.1822348999999122,['n'],1,right,['u'],0,0.015036099999633734,0.1,0,0,FastFast,34,18,Woman,Right,
49,11,1,0.8493782999998984,['c'],1,left,['u'],0,0.07786979999991672,0.1,0,0,FastFast,34,18,Woman,Right,
50,11,1,1.0324467000000368,['c'],1,left,['u'],0,0.07586630000014338,0.1,0,0,FastFast,34,18,Woman,Right,
51,11,1,0.69882460000008,['c'],1,left,['u'],0,0.07115820000035455,0.1,0,0,FastFast,34,18,Woman,Right,
52,11,1,0.6659864999996898,['c'],0,right,['e'],1,0.12358359999961976,0.1,0,0,FastFast,34,18,Woman,Right,
53,11,1,0.8322078999999576,['c'],1,left,['e'],1,0.09599269999989701,0.4,1,0,FastFast,34,18,Woman,Right,
54,11,1,0.7323989999999867,['c'],0,right,['e'],1,0.12110549999988507,0.1,0,0,FastFast,34,18,Woman,Right,
55,11,1,0.43297460000030696,['c'],0,right,['e'],1,0.22098109999978988,0.2,0,0,FastFast,34,18,Woman,Right,
56,11,1,0.7827802000001611,['n'],0,left,['u'],0,0.086939600000278,0.1,1,0,FastFast,34,18,Woman,Right,
57,11,1,0.6328604999998788,['c'],1,left,['u'],0,0.0844425999998748,0.1,0,0,FastFast,34,18,Woman,Right,
58,11,1,0.6321601999998165,['c'],1,left,['u'],0,0.07363519999989876,0.1,0,0,FastFast,34,18,Woman,Right,
59,11,1,0.6490280000002713,['n'],0,left,['u'],0,0.07152009999981601,0.4,1,0,FastFast,34,18,Woman,Right,
0,12,1,1.0157539000001634,['c'],0,right,['u'],0,0.7971919000001435,0.1,1,0,AccFast,34,18,Woman,Right,
1,12,1,0.6326673000003211,['n'],0,left,['u'],0,0.07021960000020044,0.1,1,0,AccFast,34,18,Woman,Right,
2,12,1,0.9828709000003073,['c'],1,left,['u'],0,0.1184094999998706,0.1,0,0,AccFast,34,18,Woman,Right,
3,12,1,0.8003327000001264,['c'],1,left,['e'],1,0.10785689999966053,0.4,1,0,AccFast,34,18,Woman,Right,
4,12,1,0.8829455000000053,['n'],1,right,['u'],0,0.07834289999982502,0.1,0,0,AccFast,34,18,Woman,Right,
5,12,1,2.615994999999657,['c'],0,right,['u'],0,0.5971325000000434,0.4,1,0,AccFast,34,18,Woman,Right,
6,12,1,1.0324714999997013,['c'],0,right,['u'],0,0.08567859999993743,0.4,1,0,AccFast,34,18,Woman,Right,
7,12,1,1.0000710999997864,['n'],1,right,['u'],0,0.16450200000008408,0.2,0,0,AccFast,34,18,Woman,Right,
8,12,1,1.6827376999999615,['n'],0,left,['e'],1,0.18060100000002421,0.1,0,0,AccFast,34,18,Woman,Right,
9,12,1,1.8663666000002195,['c'],1,left,['u'],0,0.24497829999972964,0.2,0,0,AccFast,34,18,Woman,Right,
10,12,1,0.7666085000000749,['n'],1,right,['u'],0,0.0710519999997814,0.2,0,0,AccFast,34,18,Woman,Right,
11,12,1,0.7161894999999276,['c'],1,left,['u'],0,0.1459258999998383,0.2,0,0,AccFast,34,18,Woman,Right,
12,12,1,1.2827320000001237,['n'],0,left,['e'],1,0.17096529999980703,0.1,0,0,AccFast,34,18,Woman,Right,
13,12,1,1.5832800000002862,['c'],1,left,['u'],0,0.12733549999984461,0.4,0,0,AccFast,34,18,Woman,Right,
14,12,1,1.5331436999999823,['n'],1,right,['u'],0,0.11883170000010068,0.1,0,0,AccFast,34,18,Woman,Right,
15,12,1,1.0989196999998967,['c'],1,left,['u'],0,0.08865500000001703,0.2,0,0,AccFast,34,18,Woman,Right,
16,12,1,1.1011608999997406,['c'],1,left,['u'],0,0.09099669999977777,0.1,0,0,AccFast,34,18,Woman,Right,
17,12,1,0.9163696000000527,['c'],0,right,['u'],0,0.1490711999999803,0.1,1,0,AccFast,34,18,Woman,Right,
18,12,1,0.6988808999999492,['c'],0,right,['u'],0,0.11686729999973977,0.2,1,0,AccFast,34,18,Woman,Right,
19,12,1,0.8831491999999344,['c'],0,right,['u'],0,0.09478540000009161,0.4,1,0,AccFast,34,18,Woman,Right,
20,12,1,0.8162566000000879,['n'],1,right,['u'],0,0.07679230000030657,0.4,0,0,AccFast,34,18,Woman,Right,
21,12,1,0.9658190000000104,['c'],0,right,['e'],1,1.8459489000001668,0.2,0,0,AccFast,34,18,Woman,Right,
22,12,1,1.0989448999998785,['c'],1,left,['u'],0,0.2022703999996338,0.4,0,0,AccFast,34,18,Woman,Right,
23,12,1,0.7497223000000304,['c'],1,left,['e'],1,0.17422579999993104,0.4,1,0,AccFast,34,18,Woman,Right,
24,12,1,1.432939300000271,['n'],1,right,['u'],0,0.10445469999967827,0.2,0,0,AccFast,34,18,Woman,Right,
25,12,1,0.6330244000000675,['n'],1,right,['u'],0,0.09282669999993232,0.2,0,0,AccFast,34,18,Woman,Right,
26,12,1,1.3160929000000579,['c'],0,right,['e'],1,0.118976499999917,0.2,0,0,AccFast,34,18,Woman,Right,
27,12,1,2.1662351999998464,['n'],1,right,['u'],0,0.3095610000000306,0.1,0,0,AccFast,34,18,Woman,Right,
28,12,1,0.9329369000001861,['n'],1,right,['e'],1,0.14232780000020284,0.1,1,0,AccFast,34,18,Woman,Right,
29,12,1,0.9653349999998682,['n'],1,right,['e'],1,0.1883935000000747,0.2,1,0,AccFast,34,18,Woman,Right,
30,12,1,0.8510658000000149,['c'],1,left,['u'],0,0.141000300000087,0.1,0,0,AccFast,34,18,Woman,Right,
31,12,1,0.7672738999999638,['n'],0,left,['e'],1,0.2910621999999421,0.1,0,0,AccFast,34,18,Woman,Right,
32,12,1,1.1831629000002977,['c'],0,right,['u'],0,0.12217349999991711,0.2,1,0,AccFast,34,18,Woman,Right,
33,12,1,0.9328459999996994,['n'],1,right,['e'],1,0.1942831000001206,0.4,1,0,AccFast,34,18,Woman,Right,
34,12,1,0.7836024000002908,['n'],0,left,['e'],1,0.10936369999990347,0.2,0,0,AccFast,34,18,Woman,Right,
35,12,1,1.783037400000012,['n'],1,right,['e'],1,0.1643330000001697,0.1,1,0,AccFast,34,18,Woman,Right,
36,12,1,0.9332540999998855,['c'],1,left,['e'],1,0.14611009999998714,0.1,1,0,AccFast,34,18,Woman,Right,
37,12,1,0.7999973000000864,['c'],1,left,['e'],1,0.12672489999977188,0.4,1,0,AccFast,34,18,Woman,Right,
38,12,1,1.6170287999998436,['n'],0,left,['u'],0,0.09152440000025308,0.2,1,0,AccFast,34,18,Woman,Right,
39,12,1,1.1329964999999902,['c'],1,left,['u'],0,0.12489329999971233,0.1,0,0,AccFast,34,18,Woman,Right,
40,12,1,1.5998961000000236,['c'],1,left,['e'],1,0.10618799999974726,0.1,1,0,AccFast,34,18,Woman,Right,
41,12,1,2.499589400000332,['c'],0,right,['e'],1,0.16406169999982012,0.4,0,0,AccFast,34,18,Woman,Right,
42,12,1,0.9830427999995663,['c'],1,left,['e'],1,0.11220000000002983,0.4,1,0,AccFast,34,18,Woman,Right,
43,12,1,1.5160040999999183,['c'],1,left,['u'],0,0.1217386000002989,0.4,0,0,AccFast,34,18,Woman,Right,
44,12,1,0.7822535000000244,['n'],1,right,['u'],0,0.14354480000019976,0.1,0,0,AccFast,34,18,Woman,Right,
45,12,1,2.3507101999998667,['n'],1,right,['u'],0,0.2059966000001623,0.1,0,0,AccFast,34,18,Woman,Right,
46,12,1,0.7161501000000499,['n'],1,right,['u'],0,0.09145490000037171,0.4,0,0,AccFast,34,18,Woman,Right,
47,12,1,0.7998188999999911,['n'],1,right,['u'],0,0.09001769999986209,0.1,0,0,AccFast,34,18,Woman,Right,
48,12,1,0.7662288999999873,['c'],1,left,['e'],1,0.10590159999992466,0.2,1,0,AccFast,34,18,Woman,Right,
49,12,1,1.1827896999998302,['c'],0,right,['u'],0,0.08894150000014633,0.4,1,0,AccFast,34,18,Woman,Right,
50,12,1,0.9831277000002956,['c'],0,right,['u'],0,0.09619460000021718,0.2,1,0,AccFast,34,18,Woman,Right,
51,12,1,0.6990250000003471,['c'],1,left,['u'],0,0.12263889999985622,0.2,0,0,AccFast,34,18,Woman,Right,
52,12,1,0.6828636999998707,['n'],0,left,['e'],1,0.11680679999972199,0.4,0,0,AccFast,34,18,Woman,Right,
53,12,1,0.799319000000196,['c'],1,left,['u'],0,0.1221878999999717,0.4,0,0,AccFast,34,18,Woman,Right,
54,12,1,1.4334011999999348,['c'],1,left,['u'],0,0.10212830000000395,0.2,0,0,AccFast,34,18,Woman,Right,
55,12,1,0.8337341000001288,['n'],1,right,['u'],0,0.1067232000000331,0.2,0,0,AccFast,34,18,Woman,Right,
56,12,1,0.6483729999999923,['n'],1,right,['u'],0,0.09486559999959354,0.4,0,0,AccFast,34,18,Woman,Right,
57,12,1,1.132744300000013,['n'],0,left,['u'],0,0.09606450000001132,0.4,1,0,AccFast,34,18,Woman,Right,
58,12,1,1.3993285000001379,['n'],0,left,['u'],0,0.11093339999979435,0.2,1,0,AccFast,34,18,Woman,Right,
59,12,1,1.7324499999999716,['n'],0,left,['u'],0,1.327344499999981,0.4,1,0,AccFast,34,18,Woman,Right,
0,13,1,3.031914200000301,['c'],1,left,['u'],0,0.9115658000000622,0.1,0,0,AccAcc,34,18,Woman,Right,
1,13,1,0.8164616999997634,['c'],1,left,['e'],1,0.5087202999998226,0.2,1,0,AccAcc,34,18,Woman,Right,
2,13,1,1.0992245000002185,['n'],0,left,['e'],1,0.5989002000001165,0.1,0,0,AccAcc,34,18,Woman,Right,
3,13,1,2.9653401000000486,['c'],1,left,['u'],0,0.4420939999999973,0.1,0,0,AccAcc,34,18,Woman,Right,
4,13,1,0.8824899000001096,['n'],1,right,['e'],1,0.31141489999981786,0.2,1,0,AccAcc,34,18,Woman,Right,
5,13,1,0.8163458000003629,['n'],1,right,['e'],1,0.7245328999997582,0.4,1,0,AccAcc,34,18,Woman,Right,
6,13,1,3.15067450000015,['c'],1,left,['u'],0,0.339983299999858,0.1,0,0,AccAcc,34,18,Woman,Right,
7,13,1,2.4320943000002444,['c'],0,right,['u'],0,0.3194535000002361,0.1,1,0,AccAcc,34,18,Woman,Right,
8,13,1,0.9006051999999727,['n'],0,left,['u'],0,0.16871769999988828,0.2,1,0,AccAcc,34,18,Woman,Right,
9,13,1,2.666271300000062,['c'],0,right,['u'],0,0.37728930000002947,0.2,1,0,AccAcc,34,18,Woman,Right,
10,13,1,0.9500787000001765,['n'],0,left,['u'],0,0.1508574999998018,0.2,1,0,AccAcc,34,18,Woman,Right,
11,13,1,0.7989941999999246,['n'],1,right,['e'],1,0.3147364999999809,0.2,1,0,AccAcc,34,18,Woman,Right,
12,13,1,1.40006349999976,['c'],1,left,['u'],0,0.1678105000000869,0.4,0,0,AccAcc,34,18,Woman,Right,
13,13,1,1.9662552999998297,['c'],1,left,['e'],1,0.2284959999997227,0.2,1,0,AccAcc,34,18,Woman,Right,
14,13,1,1.3989472999996906,['n'],1,right,['u'],0,0.16588390000015352,0.4,0,0,AccAcc,34,18,Woman,Right,
15,13,1,1.533386800000244,['n'],1,right,['u'],0,0.10792069999979503,0.2,0,0,AccAcc,34,18,Woman,Right,
16,13,1,2.699348299999656,['n'],0,left,['u'],0,0.26185839999970995,0.4,1,0,AccAcc,34,18,Woman,Right,
17,13,1,0.716899800000192,['n'],0,left,['e'],1,0.21742730000005395,0.4,0,0,AccAcc,34,18,Woman,Right,
18,13,1,2.050193600000057,['c'],1,left,['e'],1,0.3045708999998169,0.2,1,0,AccAcc,34,18,Woman,Right,
19,13,1,3.548947600000247,['n'],0,left,['e'],1,0.39258280000012746,0.1,0,0,AccAcc,34,18,Woman,Right,
20,13,1,1.0496423999998115,['c'],1,left,['e'],1,0.20119930000009845,0.2,1,0,AccAcc,34,18,Woman,Right,
21,13,1,3.116248899999846,['n'],1,right,['u'],0,0.16650890000028085,0.1,0,0,AccAcc,34,18,Woman,Right,
22,13,1,1.6330152999998973,['n'],0,left,['u'],0,0.09650550000014846,0.1,1,0,AccAcc,34,18,Woman,Right,
23,13,1,1.4154720000001362,['n'],1,right,['e'],1,0.21396890000005442,0.4,1,0,AccAcc,34,18,Woman,Right,
24,13,1,1.1496464000001652,['n'],1,right,['u'],0,0.10535230000004958,0.4,0,0,AccAcc,34,18,Woman,Right,
25,13,1,3.432941799999753,['c'],1,left,['e'],1,0.61393070000031,0.1,1,0,AccAcc,34,18,Woman,Right,
26,13,1,0.9336015000003499,['n'],1,right,['e'],1,0.32173229999989417,0.1,1,0,AccAcc,34,18,Woman,Right,
27,13,1,0.9161885999997139,['c'],1,left,['e'],1,0.31487909999987096,0.4,1,0,AccAcc,34,18,Woman,Right,
28,13,1,1.2326379000000998,['n'],1,right,['e'],1,0.28624200000012934,0.1,1,0,AccAcc,34,18,Woman,Right,
29,13,1,1.0329662999997709,['c'],1,left,['e'],1,0.3480694999998377,0.4,1,0,AccAcc,34,18,Woman,Right,
30,13,1,0.8496383000001515,['c'],1,left,['e'],1,0.4300860000003013,0.4,1,0,AccAcc,34,18,Woman,Right,
31,13,1,1.3502588999999716,['n'],1,right,['u'],0,0.18506909999996424,0.1,0,0,AccAcc,34,18,Woman,Right,
32,13,1,0.9331791999998131,['n'],1,right,['u'],0,0.26247719999992114,0.2,0,0,AccAcc,34,18,Woman,Right,
33,13,1,1.1673317000004317,['n'],1,right,['u'],0,0.24789240000018253,0.2,0,0,AccAcc,34,18,Woman,Right,
34,13,1,1.182897199999843,['n'],1,right,['e'],1,0.3525774999998248,0.4,1,0,AccAcc,34,18,Woman,Right,
35,13,1,1.3823044000000664,['c'],1,left,['e'],1,0.30101820000027146,0.2,1,0,AccAcc,34,18,Woman,Right,
36,13,1,1.0165223000003607,['n'],1,right,['u'],0,0.5384886000001643,0.4,0,0,AccAcc,34,18,Woman,Right,
37,13,1,1.4660329000003003,['c'],0,right,['u'],0,0.30850660000032804,0.1,1,0,AccAcc,34,18,Woman,Right,
38,13,1,0.8820482000000993,['n'],1,right,['u'],0,0.23117249999995693,0.2,0,0,AccAcc,34,18,Woman,Right,
39,13,1,0.7162341999996897,['n'],1,right,['u'],0,0.2111584999997831,0.4,0,0,AccAcc,34,18,Woman,Right,
40,13,1,1.3163424000003943,['c'],0,right,['u'],0,0.12875050000002375,0.1,1,0,AccAcc,34,18,Woman,Right,
41,13,1,1.5824383000003763,['n'],1,right,['e'],1,0.5181434000000991,0.1,1,0,AccAcc,34,18,Woman,Right,
42,13,1,1.0161403000001883,['c'],1,left,['u'],0,0.1871274000000085,0.2,0,0,AccAcc,34,18,Woman,Right,
43,13,1,0.7496310999999878,['n'],1,right,['u'],0,0.1918228999998064,0.2,0,0,AccAcc,34,18,Woman,Right,
44,13,1,0.6984498000001622,['n'],1,right,['u'],0,0.18235649999996895,0.4,0,0,AccAcc,34,18,Woman,Right,
45,13,1,1.0332877999999255,['n'],1,right,['e'],1,0.09593619999986913,0.2,1,0,AccAcc,34,18,Woman,Right,
46,13,1,1.0510952999998153,['c'],1,left,['u'],0,0.14831499999991138,0.4,0,0,AccAcc,34,18,Woman,Right,
47,13,1,0.9490541000000121,['c'],0,right,['u'],0,0.2665002000003369,0.2,1,0,AccAcc,34,18,Woman,Right,
48,13,1,1.4666990999999143,['n'],1,right,['e'],1,0.15139300000009825,0.2,1,0,AccAcc,34,18,Woman,Right,
49,13,1,1.282485700000052,['c'],1,left,['e'],1,0.11179210000000239,0.1,1,0,AccAcc,34,18,Woman,Right,
50,13,1,1.0323538000002372,['c'],1,left,['e'],1,0.10887729999967632,0.1,1,0,AccAcc,34,18,Woman,Right,
51,13,1,1.3829337999995914,['c'],0,right,['u'],0,0.15525660000002972,0.4,1,0,AccAcc,34,18,Woman,Right,
52,13,1,1.6166278000000602,['c'],1,left,['e'],1,0.11862750000000233,0.4,1,0,AccAcc,34,18,Woman,Right,
53,13,1,1.099406799999997,['c'],1,left,['e'],1,0.10400579999986803,0.4,1,0,AccAcc,34,18,Woman,Right,
54,13,1,0.9340627999999924,['c'],1,left,['u'],0,0.15248400000018592,0.2,0,0,AccAcc,34,18,Woman,Right,
55,13,1,1.1158957999996346,['c'],1,left,['u'],0,0.11999729999979536,0.1,0,0,AccAcc,34,18,Woman,Right,
56,13,1,0.7828462999996191,['n'],1,right,['u'],0,0.14986139999973602,0.1,0,0,AccAcc,34,18,Woman,Right,
57,13,1,1.4496292999997422,['c'],1,left,['e'],1,0.11186279999992621,0.4,1,0,AccAcc,34,18,Woman,Right,
58,13,1,0.9835219999999936,['n'],1,right,['u'],0,0.11868519999961791,0.1,0,0,AccAcc,34,18,Woman,Right,
59,13,1,0.90023519999977,['c'],1,left,['u'],0,0.3117599000001974,0.4,0,0,AccAcc,34,18,Woman,Right,
0,14,1,1.832878300000175,['n'],1,right,['u'],0,1.2999748000002,0.4,0,0,FastAcc,34,18,Woman,Right,
1,14,1,0.46573540000008506,['c'],0,right,['u'],0,0.5752066999998533,0.4,1,0,FastAcc,34,18,Woman,Right,
2,14,1,0.5836444000001393,['n'],1,right,['e'],1,0.43515750000005937,0.4,1,0,FastAcc,34,18,Woman,Right,
3,14,1,0.3996039999997265,['n'],0,left,['u'],0,0.5880512999997336,0.4,1,0,FastAcc,34,18,Woman,Right,
4,14,1,0.6002796999996463,['n'],1,right,['u'],0,0.19055130000015197,0.1,0,0,FastAcc,34,18,Woman,Right,
5,14,1,0.4837296000000606,['c'],1,left,['e'],1,0.3739311999997881,0.2,1,0,FastAcc,34,18,Woman,Right,
6,14,1,0.5337761000000683,['n'],1,right,['e'],1,0.6119165999998586,0.4,1,0,FastAcc,34,18,Woman,Right,
7,14,1,0.46759289999999964,['c'],1,left,['e'],1,0.2672308000001067,0.1,1,0,FastAcc,34,18,Woman,Right,
8,14,1,0.5997781000000941,['n'],1,right,['u'],0,0.1545619000003171,0.1,0,0,FastAcc,34,18,Woman,Right,
9,14,1,0.5672376000002259,['n'],0,left,['u'],0,0.11960780000026716,0.2,1,0,FastAcc,34,18,Woman,Right,
10,14,1,0.6996586000000207,['c'],1,left,['e'],1,0.19267620000027819,0.4,1,0,FastAcc,34,18,Woman,Right,
11,14,1,0.5503445000003921,['n'],0,left,['u'],0,0.0934519000002183,0.1,1,0,FastAcc,34,18,Woman,Right,
12,14,1,0.5505279999997583,['c'],1,left,['e'],1,0.10253340000008393,0.1,1,0,FastAcc,34,18,Woman,Right,
13,14,1,0.5499612000003253,['n'],0,left,['u'],0,1.014491899999939,0.1,1,0,FastAcc,34,18,Woman,Right,
14,14,1,0.7167147999998633,['c'],1,left,['u'],0,0.22691440000016883,0.2,0,0,FastAcc,34,18,Woman,Right,
15,14,1,0.8486708000000363,['c'],0,right,['e'],1,0.23429699999996956,0.1,0,0,FastAcc,34,18,Woman,Right,
16,14,1,0.6663456000001133,['n'],1,right,['u'],0,0.13617970000041169,0.2,0,0,FastAcc,34,18,Woman,Right,
17,14,1,1.0326805999998214,['n'],1,right,['u'],0,0.05159330000014961,0.4,0,0,FastAcc,34,18,Woman,Right,
18,14,1,0.699459299999944,['n'],0,left,['u'],0,0.02350860000024113,0.2,1,0,FastAcc,34,18,Woman,Right,
19,14,1,0.6494861000001038,['n'],0,left,['u'],0,0.0471744999999828,0.1,1,0,FastAcc,34,18,Woman,Right,
20,14,1,0.6330771000002642,['c'],0,right,['u'],0,0.07023269999990589,0.2,1,0,FastAcc,34,18,Woman,Right,
21,14,1,0.6663190999997823,['c'],1,left,['u'],0,0.09079440000004979,0.2,0,0,FastAcc,34,18,Woman,Right,
22,14,1,0.6999131000002308,['c'],1,left,['u'],0,0.14169110000011642,0.2,0,0,FastAcc,34,18,Woman,Right,
23,14,1,0.6986441999997623,['n'],1,right,['u'],0,0.062398900000061985,0.4,0,0,FastAcc,34,18,Woman,Right,
24,14,1,0.6325292000001355,['c'],0,right,['u'],0,0.1009807999998884,0.4,1,0,FastAcc,34,18,Woman,Right,
25,14,1,0.36605320000035135,['n'],1,right,['e'],1,0.1322757000002639,0.1,1,0,FastAcc,34,18,Woman,Right,
26,14,1,0.5661354000003485,['c'],1,left,['e'],1,0.0823101000000861,0.1,1,0,FastAcc,34,18,Woman,Right,
27,14,1,0.4330939000001308,['n'],1,right,['u'],0,0.07953559999987192,0.4,0,0,FastAcc,34,18,Woman,Right,
28,14,1,0.43315609999990556,['c'],0,right,['e'],1,0.11769039999990127,0.2,0,0,FastAcc,34,18,Woman,Right,
29,14,1,0.8163040999997975,['c'],1,left,['e'],1,0.1140559000000394,0.2,1,0,FastAcc,34,18,Woman,Right,
30,14,1,0.4829695999997057,['n'],1,right,['e'],1,0.10834990000012112,0.1,1,0,FastAcc,34,18,Woman,Right,
31,14,1,0.8487500999999611,['c'],1,left,['e'],1,0.01607449999983146,0.4,1,0,FastAcc,34,18,Woman,Right,
32,14,1,0.9163221000003432,['c'],1,left,['e'],1,1.5728218000003835,0.4,1,0,FastAcc,34,18,Woman,Right,
33,14,1,0.8659155000000283,['n'],1,right,['u'],0,0.06943350000028659,0.4,0,0,FastAcc,34,18,Woman,Right,
34,14,1,1.632894899999883,['n'],0,left,['u'],0,0.09962829999994938,0.1,1,0,FastAcc,34,18,Woman,Right,
35,14,1,0.867335699999785,['n'],1,right,['u'],0,0.04689729999972769,0.2,0,0,FastAcc,34,18,Woman,Right,
36,14,1,1.1169285999999374,['n'],1,right,['e'],1,0.3148384999999507,0.4,1,0,FastAcc,34,18,Woman,Right,
37,14,1,1.998589699999684,['n'],0,left,['e'],1,0.11235859999987952,0.1,0,0,FastAcc,34,18,Woman,Right,
38,14,1,0.7487747000000127,['n'],1,right,['u'],0,0.4481581999998525,0.2,0,0,FastAcc,34,18,Woman,Right,
39,14,1,0.6501441000000341,['n'],0,left,['u'],0,0.062316699999882985,0.1,1,0,FastAcc,34,18,Woman,Right,
40,14,1,0.7168919000000642,['c'],1,left,['e'],1,0.049539500000264525,0.2,1,0,FastAcc,34,18,Woman,Right,
41,14,1,0.7828988999999638,['c'],0,right,['e'],1,0.04229040000018358,0.2,0,0,FastAcc,34,18,Woman,Right,
42,14,1,0.5166042999999263,['n'],1,right,['u'],0,0.04625639999994746,0.1,0,0,FastAcc,34,18,Woman,Right,
43,14,1,0.5163098000002719,['n'],1,right,['u'],0,0.09808990000010454,0.4,0,0,FastAcc,34,18,Woman,Right,
44,14,1,0.515570800000205,['c'],1,left,['e'],1,1.2037349999995968,0.1,1,0,FastAcc,34,18,Woman,Right,
45,14,1,0.6998638000000028,['n'],0,left,['u'],0,0.04134169999997539,0.1,1,0,FastAcc,34,18,Woman,Right,
46,14,1,0.5316975999999158,['c'],1,left,['e'],1,0.1007462000002306,0.4,1,0,FastAcc,34,18,Woman,Right,
47,14,1,0.4501234999997905,['n'],1,right,['e'],1,0.11302279999972598,0.2,1,0,FastAcc,34,18,Woman,Right,
48,14,1,0.6836271000001943,['n'],1,right,['e'],1,0.1316687999997157,0.2,1,0,FastAcc,34,18,Woman,Right,
49,14,1,0.5674195999999938,['c'],1,left,['u'],0,0.06566890000021885,0.1,0,0,FastAcc,34,18,Woman,Right,
50,14,1,1.13274279999996,['n'],1,right,['u'],0,0.01951759999974456,0.2,0,0,FastAcc,34,18,Woman,Right,
51,14,1,0.5498308000001089,['n'],0,left,['u'],0,0.6790983999999298,0.4,1,0,FastAcc,34,18,Woman,Right,
52,14,1,0.7169073000000026,['n'],1,right,['e'],1,0.07364120000011098,0.4,1,0,FastAcc,34,18,Woman,Right,
53,14,1,0.46647540000003573,['c'],1,left,['e'],1,0.06232399999998961,0.4,1,0,FastAcc,34,18,Woman,Right,
54,14,1,0.6653823999999986,['n'],1,right,['e'],1,0.13944979999996576,0.2,1,0,FastAcc,34,18,Woman,Right,
55,14,1,0.6151423000001159,['c'],1,left,['e'],1,0.07132880000017394,0.2,1,0,FastAcc,34,18,Woman,Right,
56,14,1,1.2661198999999215,['n'],0,left,['u'],0,0.012190500000087923,0.2,1,0,FastAcc,34,18,Woman,Right,
57,14,1,1.400273300000208,['n'],1,right,['u'],0,0.014445299999806593,0.1,0,0,FastAcc,34,18,Woman,Right,
58,14,1,0.8504807999997865,['c'],1,left,['e'],1,0.037764100000003964,0.1,1,0,FastAcc,34,18,Woman,Right,
59,14,1,0.7343306000002485,['n'],1,right,['e'],1,0.08934339999996155,0.4,1,0,FastAcc,34,18,Woman,Right,
0,15,1,0.48253699999986566,['n'],1,right,['u'],0,0.284767400000419,0.2,0,0,FastFast,34,18,Woman,Right,
1,15,1,0.3994707000001654,['n'],1,right,['u'],0,1.9234237999999095,0.4,0,0,FastFast,34,18,Woman,Right,
2,15,1,0.6492619999999079,['n'],1,right,['u'],0,0.030868400000144902,0.2,0,0,FastFast,34,18,Woman,Right,
3,15,1,0.48248469999998633,['c'],1,left,['e'],1,0.08425729999999021,0.2,1,0,FastFast,34,18,Woman,Right,
4,15,1,0.6997267000001557,['c'],1,left,['e'],1,0.014554299999872455,0.1,1,0,FastFast,34,18,Woman,Right,
5,15,1,0.7668260999998893,['c'],1,left,['e'],1,0.08137059999990015,0.2,1,0,FastFast,34,18,Woman,Right,
6,15,1,0.5491633999999976,['n'],0,left,['u'],0,0.10592829999995956,0.1,1,0,FastFast,34,18,Woman,Right,
7,15,1,0.7155157000001964,['c'],0,right,['u'],0,0.07519100000035905,0.1,1,0,FastFast,34,18,Woman,Right,
8,15,1,0.49979179999991175,['n'],1,right,['u'],0,0.006911800000125368,0.4,0,0,FastFast,34,18,Woman,Right,
9,15,1,1.0995143000000098,['n'],0,left,['u'],0,0.028600699999969947,0.4,1,0,FastFast,34,18,Woman,Right,
10,15,1,0.8319750000000568,['c'],1,left,['e'],1,0.012761399999817513,0.4,1,0,FastFast,34,18,Woman,Right,
11,15,1,0.6330981000000975,['c'],0,right,['u'],0,0.06127790000027744,0.4,1,0,FastFast,34,18,Woman,Right,
12,15,1,1.5158551999998053,['c'],0,right,['e'],1,0.00874260000000504,0.1,0,0,FastFast,34,18,Woman,Right,
13,15,1,0.9830286000001252,['c'],1,left,['e'],1,0.03542100000004211,0.2,1,0,FastFast,34,18,Woman,Right,
14,15,1,0.8320354000002226,['n'],1,right,['u'],0,0.018692900000132795,0.4,0,0,FastFast,34,18,Woman,Right,
15,15,1,0.9819449999999961,['c'],0,right,['u'],0,0.07657669999980499,0.1,1,0,FastFast,34,18,Woman,Right,
16,15,1,0.49999009999964983,['n'],0,left,['e'],1,0.11211560000037935,0.4,0,0,FastFast,34,18,Woman,Right,
17,15,1,1.41709260000016,['c'],1,left,['e'],1,0.04557249999970736,0.2,1,0,FastFast,34,18,Woman,Right,
18,15,1,0.5004570999999487,['n'],1,right,['u'],0,0.01800309999998717,0.4,0,0,FastFast,34,18,Woman,Right,
19,15,1,0.8328452000000652,['c'],0,right,['e'],1,0.01796890000014173,0.1,0,0,FastFast,34,18,Woman,Right,
20,15,1,0.6328758999998172,['n'],1,right,['e'],1,0.10607159999972282,0.4,1,0,FastFast,34,18,Woman,Right,
21,15,1,0.666094300000168,['c'],0,right,['e'],1,0.9733050999998341,0.2,0,0,FastFast,34,18,Woman,Right,
22,15,1,0.650007000000187,['c'],0,right,['u'],0,0.06268450000015946,0.4,1,0,FastFast,34,18,Woman,Right,
23,15,1,0.8332946999998967,['n'],0,left,['u'],0,0.07735749999983454,0.1,1,0,FastFast,34,18,Woman,Right,
24,15,1,0.8495452000001933,['c'],1,left,['e'],1,1.4346711999996842,0.1,1,0,FastFast,34,18,Woman,Right,
25,15,1,0.8166798000002018,['c'],1,left,['e'],1,0.10703619999958391,0.1,1,0,FastFast,34,18,Woman,Right,
26,15,1,0.6995294000003014,['c'],1,left,['e'],1,0.02865479999991294,0.4,1,0,FastFast,34,18,Woman,Right,
27,15,1,0.882843800000046,['n'],0,left,['u'],0,0.01831029999993916,0.1,1,0,FastFast,34,18,Woman,Right,
28,15,1,0.6820302999999512,['n'],1,right,['u'],0,0.06451770000012402,0.4,0,0,FastFast,34,18,Woman,Right,
29,15,1,0.8316962999997486,['c'],1,left,['u'],0,0.07058359999973618,0.2,0,0,FastFast,34,18,Woman,Right,
30,15,1,0.6160807999999633,['n'],0,left,['u'],0,0.08554700000013327,0.1,1,0,FastFast,34,18,Woman,Right,
31,15,1,0.5165147000002435,['n'],1,right,['u'],0,0.07137319999992542,0.4,0,0,FastFast,34,18,Woman,Right,
32,15,1,0.9163823000003504,['c'],1,left,['e'],1,0.07394990000011603,0.4,1,0,FastFast,34,18,Woman,Right,
33,15,1,0.5496094000000085,['n'],1,right,['u'],0,0.051139900000180205,0.2,0,0,FastFast,34,18,Woman,Right,
34,15,1,0.7831676000000698,['n'],0,left,['u'],0,0.011983299999883457,0.2,1,0,FastFast,34,18,Woman,Right,
35,15,1,0.5504308999998102,['c'],1,left,['e'],1,0.08009229999970557,0.1,1,0,FastFast,34,18,Woman,Right,
36,15,1,0.6996047999996335,['c'],1,left,['e'],1,0.13871600000038597,0.2,1,0,FastFast,34,18,Woman,Right,
37,15,1,0.8830155000000559,['c'],0,right,['e'],1,0.06818100000009508,0.2,0,0,FastFast,34,18,Woman,Right,
38,15,1,0.6657214000001659,['c'],1,left,['u'],0,1.2484893999999258,0.1,0,0,FastFast,34,18,Woman,Right,
39,15,1,0.8331008000000111,['c'],1,left,['e'],1,0.09533730000021023,0.4,1,0,FastFast,34,18,Woman,Right,
40,15,1,0.6318518999996741,['n'],1,right,['u'],0,0.06060790000037741,0.4,0,0,FastFast,34,18,Woman,Right,
41,15,1,0.8997914000001401,['n'],1,right,['e'],1,0.07266560000016398,0.1,1,0,FastFast,34,18,Woman,Right,
42,15,1,0.6318799000000581,['c'],0,right,['u'],0,0.07855590000008306,0.1,1,0,FastFast,34,18,Woman,Right,
43,15,1,0.3157093000004352,['n'],1,right,['e'],1,0.08116480000035153,0.1,1,0,FastFast,34,18,Woman,Right,
44,15,1,0.38181940000004033,['n'],1,right,['e'],1,0.032678499999747146,0.4,1,0,FastFast,34,18,Woman,Right,
45,15,1,0.3995948999995562,['c'],0,right,['u'],0,0.049343799999860494,0.4,1,0,FastFast,34,18,Woman,Right,
46,15,1,0.5168696999999156,['c'],0,right,['u'],0,0.0763769999998658,0.2,1,0,FastFast,34,18,Woman,Right,
47,15,1,0.8835332999997263,['n'],1,right,['e'],1,0.09662500000013097,0.2,1,0,FastFast,34,18,Woman,Right,
48,15,1,0.6497157999997398,['n'],1,right,['e'],1,0.07729190000009112,0.2,1,0,FastFast,34,18,Woman,Right,
49,15,1,0.3828472000000147,['c'],1,left,['u'],0,0.04537630000004356,0.4,0,0,FastFast,34,18,Woman,Right,
50,15,1,0.28306609999981447,['n'],0,left,['e'],1,0.05059919999985141,0.1,0,0,FastFast,34,18,Woman,Right,
51,15,1,0.3993184000000838,['n'],1,right,['e'],1,0.08294180000029883,0.1,1,0,FastFast,34,18,Woman,Right,
52,15,1,0.33285109999997076,['n'],0,left,['e'],1,0.052002599999923405,0.1,0,0,FastFast,34,18,Woman,Right,
53,15,1,0.4320499000000382,['c'],0,right,['u'],0,0.034455200000138575,0.2,1,0,FastFast,34,18,Woman,Right,
54,15,1,0.36620780000021114,['n'],0,left,['e'],1,0.09255969999958324,0.2,0,0,FastFast,34,18,Woman,Right,
55,15,1,0.5003019000000677,['n'],0,left,['u'],0,0.6873353000000861,0.2,1,0,FastFast,34,18,Woman,Right,
56,15,1,0.4484316000002764,['n'],0,left,['u'],0,0.03580389999979161,0.4,1,0,FastFast,34,18,Woman,Right,
57,15,1,0.316635000000133,['n'],1,right,['u'],0,0.047748500000125205,0.2,0,0,FastFast,34,18,Woman,Right,
58,15,1,0.3996652000000722,['n'],0,left,['u'],0,0.04787529999975959,0.1,1,0,FastFast,34,18,Woman,Right,
59,15,1,0.3169111000001976,['n'],0,left,['e'],1,0.05930630000011661,0.2,0,0,FastFast,34,18,Woman,Right,
