withinblocktrial,block,block_repetition,rt,resp,cor,cresp,conf_press,cj,rtconf,coherence,metacognition,slow_trial,manipulation,sub,age,gender,handedness,
0,1,1,2.082796500000768,['c'],1,left,none,-99,-99,0.5,-99,0,none,33,18,Woman,Right,
1,1,1,3.449959099998523,['n'],1,right,none,-99,-99,0.5,-99,0,none,33,18,Woman,Right,
2,1,1,1.1321220999998332,['c'],1,left,none,-99,-99,0.5,-99,0,none,33,18,Woman,Right,
3,1,1,1.2341517000004387,['n'],1,right,none,-99,-99,0.5,-99,0,none,33,18,Woman,Right,
4,1,1,5.016289199998937,x,-99,right,none,-99,-99,0.5,-99,1,none,33,18,Woman,Right,
5,1,1,1.6338488000001234,['n'],1,right,none,-99,-99,0.5,-99,0,none,33,18,Woman,Right,
6,1,1,0.6502810999991198,['c'],1,left,none,-99,-99,0.5,-99,0,none,33,18,Woman,Right,
7,1,1,1.0006817000012234,['c'],0,right,none,-99,-99,0.5,-99,0,none,33,18,Woman,Right,
8,1,1,0.8825708000003942,['c'],1,left,none,-99,-99,0.5,-99,0,none,33,18,Woman,Right,
9,1,1,0.7986246000000392,['n'],1,right,none,-99,-99,0.5,-99,0,none,33,18,Woman,Right,
10,1,1,0.6514604000003601,['c'],1,left,none,-99,-99,0.5,-99,0,none,33,18,Woman,Right,
11,1,1,0.8007532999999967,['c'],1,left,none,-99,-99,0.5,-99,0,none,33,18,Woman,Right,
12,1,1,0.6990073999986635,['c'],1,left,none,-99,-99,0.5,-99,0,none,33,18,Woman,Right,
13,1,1,0.8996948999993037,['n'],1,right,none,-99,-99,0.5,-99,0,none,33,18,Woman,Right,
14,1,1,0.9677363999999216,['n'],1,right,none,-99,-99,0.5,-99,0,none,33,18,Woman,Right,
15,1,1,0.7342946999997366,['c'],1,left,none,-99,-99,0.5,-99,0,none,33,18,Woman,Right,
16,1,1,0.8839475999993738,['n'],1,right,none,-99,-99,0.5,-99,0,none,33,18,Woman,Right,
17,1,1,0.6175579999999172,['c'],1,left,none,-99,-99,0.5,-99,0,none,33,18,Woman,Right,
18,1,1,1.2176915000000008,['n'],1,right,none,-99,-99,0.5,-99,0,none,33,18,Woman,Right,
19,1,1,1.0338517999989563,['c'],1,left,none,-99,-99,0.5,-99,0,none,33,18,Woman,Right,
20,1,1,0.7824037000009412,['c'],1,left,none,-99,-99,0.5,-99,0,none,33,18,Woman,Right,
21,1,1,0.634159199998976,['n'],1,right,none,-99,-99,0.5,-99,0,none,33,18,Woman,Right,
22,1,1,1.1680684999992081,['n'],1,right,none,-99,-99,0.5,-99,0,none,33,18,Woman,Right,
23,1,1,1.0671006999982637,['c'],1,left,none,-99,-99,0.5,-99,0,none,33,18,Woman,Right,
0,2,1,0.8329346999998961,['n'],1,right,none,-99,-99,0.2,-99,0,none,33,18,Woman,Right,
1,2,1,1.4502726000009716,['c'],0,right,none,-99,-99,0.1,-99,0,none,33,18,Woman,Right,
2,2,1,2.249744099999589,['n'],0,left,none,-99,-99,0.1,-99,0,none,33,18,Woman,Right,
3,2,1,3.1350431999999273,['c'],1,left,none,-99,-99,0.1,-99,0,none,33,18,Woman,Right,
4,2,1,0.8494048000011389,['n'],1,right,none,-99,-99,0.4,-99,0,none,33,18,Woman,Right,
5,2,1,2.9329770999993343,['c'],0,right,none,-99,-99,0.1,-99,0,none,33,18,Woman,Right,
6,2,1,0.8665836000000127,['n'],0,left,none,-99,-99,0.1,-99,0,none,33,18,Woman,Right,
7,2,1,3.1995927000007214,['n'],1,right,none,-99,-99,0.1,-99,0,none,33,18,Woman,Right,
8,2,1,0.832613599999604,['n'],1,right,none,-99,-99,0.2,-99,0,none,33,18,Woman,Right,
9,2,1,0.8840793999988819,['c'],1,left,none,-99,-99,0.4,-99,0,none,33,18,Woman,Right,
10,2,1,0.6842894000001252,['n'],1,right,none,-99,-99,0.4,-99,0,none,33,18,Woman,Right,
11,2,1,1.5334585000000516,['n'],1,right,none,-99,-99,0.2,-99,0,none,33,18,Woman,Right,
12,2,1,1.5668894999998884,['n'],1,right,none,-99,-99,0.4,-99,0,none,33,18,Woman,Right,
13,2,1,0.6504351000003226,['c'],0,right,none,-99,-99,0.2,-99,0,none,33,18,Woman,Right,
14,2,1,1.933344600000055,['n'],1,right,none,-99,-99,0.1,-99,0,none,33,18,Woman,Right,
15,2,1,0.8157262999993691,['c'],1,left,none,-99,-99,0.4,-99,0,none,33,18,Woman,Right,
16,2,1,0.9333434999989549,['c'],1,left,none,-99,-99,0.4,-99,0,none,33,18,Woman,Right,
17,2,1,0.7676119999996445,['c'],1,left,none,-99,-99,0.2,-99,0,none,33,18,Woman,Right,
18,2,1,0.6508681000013894,['c'],1,left,none,-99,-99,0.4,-99,0,none,33,18,Woman,Right,
19,2,1,0.566836099998909,['c'],1,left,none,-99,-99,0.4,-99,0,none,33,18,Woman,Right,
20,2,1,0.9672032999988005,['n'],1,right,none,-99,-99,0.2,-99,0,none,33,18,Woman,Right,
21,2,1,0.7005218000012974,['c'],1,left,none,-99,-99,0.2,-99,0,none,33,18,Woman,Right,
22,2,1,2.2499884000008024,['c'],1,left,none,-99,-99,0.1,-99,0,none,33,18,Woman,Right,
23,2,1,0.7652149999994435,['c'],1,left,none,-99,-99,0.2,-99,0,none,33,18,Woman,Right,
0,3,1,2.2177762999999686,['c'],1,left,['u'],1,1.96971350000058,0.4,1,0,none,33,18,Woman,Right,
1,3,1,1.8830284000014217,['n'],1,right,['u'],1,1.29444230000081,0.1,1,0,none,33,18,Woman,Right,
2,3,1,2.9513885000014852,['c'],1,left,['e'],0,0.6836609000001772,0.2,0,0,none,33,18,Woman,Right,
3,3,1,1.0334116000012727,['n'],1,right,['u'],1,0.30201189999934286,0.2,1,0,none,33,18,Woman,Right,
4,3,1,3.601075500000661,['c'],0,right,['e'],0,0.3444084999991901,0.2,1,0,none,33,18,Woman,Right,
5,3,1,1.2832390000003215,['n'],0,left,['e'],0,0.638221600000179,0.1,1,0,none,33,18,Woman,Right,
6,3,1,1.034769800000504,['n'],1,right,['u'],1,0.3054733999997552,0.4,1,0,none,33,18,Woman,Right,
7,3,1,0.9177275999991252,['c'],1,left,['u'],1,0.5826299999989715,0.2,1,0,none,33,18,Woman,Right,
8,3,1,2.1835652999998274,['c'],1,left,['e'],0,0.3823902000003727,0.2,0,0,none,33,18,Woman,Right,
9,3,1,1.5028786999992008,['n'],0,left,['e'],0,0.3933030999996845,0.4,1,0,none,33,18,Woman,Right,
10,3,1,1.1845346999998583,['n'],1,right,['u'],1,0.3690544000000955,0.4,1,0,none,33,18,Woman,Right,
11,3,1,0.8842643000007229,['n'],1,right,['u'],1,0.390306999999666,0.4,1,0,none,33,18,Woman,Right,
12,3,1,3.8008757999996305,['c'],1,left,['e'],0,0.4522541000005731,0.1,0,0,none,33,18,Woman,Right,
13,3,1,1.268041199999061,['n'],1,right,['e'],0,0.5339645000003657,0.2,0,0,none,33,18,Woman,Right,
14,3,1,1.849879300001703,['n'],0,left,['e'],0,0.41400679999969725,0.1,1,0,none,33,18,Woman,Right,
15,3,1,0.917786399999386,['n'],0,left,['e'],0,0.5587336000007781,0.4,1,0,none,33,18,Woman,Right,
16,3,1,1.950880700000198,['n'],1,right,['e'],0,0.48098969999955443,0.2,0,0,none,33,18,Woman,Right,
17,3,1,1.0832718000001478,['n'],1,right,['u'],1,0.3124707999995735,0.4,1,0,none,33,18,Woman,Right,
18,3,1,1.8169238999998925,['c'],0,right,['e'],0,0.3620534999990923,0.1,1,0,none,33,18,Woman,Right,
19,3,1,1.3184743000001617,['n'],0,left,['e'],0,0.3490987999994104,0.2,1,0,none,33,18,Woman,Right,
20,3,1,3.667644699999073,['c'],1,left,['e'],0,0.5643121000011888,0.1,0,0,none,33,18,Woman,Right,
21,3,1,1.8019519000008586,['n'],1,right,['e'],0,0.5067503999998735,0.4,0,0,none,33,18,Woman,Right,
22,3,1,2.9342651999995724,['c'],0,right,['e'],0,1.0318728999991436,0.1,1,0,none,33,18,Woman,Right,
23,3,1,0.8843465999998443,['n'],0,left,['e'],0,0.4654391999993095,0.1,1,0,none,33,18,Woman,Right,
0,4,1,4.717034999999669,['n'],1,right,['u'],1,1.5079295999985334,0.1,1,0,AccFast,33,18,Woman,Right,
1,4,1,3.883710500000234,['n'],1,right,['e'],0,1.647129599999971,0.2,0,0,AccFast,33,18,Woman,Right,
2,4,1,2.7680818999997427,['n'],1,right,['u'],1,1.3289520999987872,0.2,1,0,AccFast,33,18,Woman,Right,
3,4,1,3.10066580000057,['n'],0,left,['e'],0,1.970493400000123,0.1,1,0,AccFast,33,18,Woman,Right,
4,4,1,3.5008560000005673,['n'],0,left,['u'],1,1.1303502000009757,0.1,0,0,AccFast,33,18,Woman,Right,
5,4,1,2.767091800000344,['n'],1,right,['u'],1,1.0729401999997208,0.1,1,0,AccFast,33,18,Woman,Right,
6,4,1,1.8677513999991788,['c'],1,left,['e'],0,0.3022475999987364,0.2,0,0,AccFast,33,18,Woman,Right,
7,4,1,2.250077099999544,['n'],1,right,['u'],1,1.0673676999995223,0.2,1,0,AccFast,33,18,Woman,Right,
8,4,1,3.2817581000017526,['c'],1,left,['u'],1,0.32048089999989315,0.1,1,0,AccFast,33,18,Woman,Right,
9,4,1,1.5176453000003676,['c'],1,left,['u'],1,0.3444171999999526,0.4,1,0,AccFast,33,18,Woman,Right,
10,4,1,1.0326337999995303,['c'],1,left,['u'],1,0.4364664000004268,0.2,1,0,AccFast,33,18,Woman,Right,
11,4,1,2.1829517999995005,['c'],0,right,['u'],1,1.0217063999989477,0.4,0,0,AccFast,33,18,Woman,Right,
12,4,1,3.5005562999995163,['c'],1,left,['u'],1,0.9396498000005522,0.4,1,0,AccFast,33,18,Woman,Right,
13,4,1,2.6342534000013984,['c'],0,right,['u'],1,1.6154874999992899,0.2,0,0,AccFast,33,18,Woman,Right,
14,4,1,4.183255500000087,['c'],0,right,['u'],1,0.8112785000012082,0.2,0,0,AccFast,33,18,Woman,Right,
15,4,1,4.3336562999993475,['c'],1,left,['u'],1,1.4715028000009625,0.2,1,0,AccFast,33,18,Woman,Right,
16,4,1,5.016202599999815,x,-99,left,none,-99,-99,0.4,-99,1,AccFast,33,18,Woman,Right,
17,4,1,0.7164711999994324,['c'],0,right,['u'],1,0.581495399999767,0.2,0,0,AccFast,33,18,Woman,Right,
18,4,1,2.2178538999996817,['c'],0,right,['u'],1,1.335289800001192,0.2,0,0,AccFast,33,18,Woman,Right,
19,4,1,1.501029799999742,['c'],0,right,['u'],1,0.8725494999998773,0.4,0,0,AccFast,33,18,Woman,Right,
20,4,1,2.2680774000000383,['c'],1,left,['u'],1,0.5416416999996727,0.1,1,0,AccFast,33,18,Woman,Right,
21,4,1,3.1178127999992284,['c'],1,left,['u'],1,0.7826530999991519,0.4,1,0,AccFast,33,18,Woman,Right,
22,4,1,4.384364599998662,['c'],0,right,['u'],1,1.250246600000537,0.1,0,0,AccFast,33,18,Woman,Right,
23,4,1,3.683713499998703,['c'],0,right,['u'],1,0.5593757000006008,0.1,0,0,AccFast,33,18,Woman,Right,
24,4,1,2.717804600000818,['c'],1,left,['e'],0,0.6078574000002845,0.2,0,0,AccFast,33,18,Woman,Right,
25,4,1,3.849626499999431,['c'],0,right,['e'],0,0.4166647000001831,0.1,1,0,AccFast,33,18,Woman,Right,
26,4,1,1.3009920000004058,['n'],1,right,['e'],0,1.0383172999991075,0.2,0,0,AccFast,33,18,Woman,Right,
27,4,1,4.884205299998939,['c'],1,left,['u'],1,0.9156421000006958,0.1,1,0,AccFast,33,18,Woman,Right,
28,4,1,3.0834760000016104,['n'],1,right,['u'],1,0.6622702999993635,0.4,1,0,AccFast,33,18,Woman,Right,
29,4,1,1.5168352000000596,['n'],0,left,['u'],1,0.6419876999989356,0.4,0,0,AccFast,33,18,Woman,Right,
30,4,1,1.568400300000576,['n'],1,right,['u'],1,0.6044392000003427,0.4,1,0,AccFast,33,18,Woman,Right,
31,4,1,1.218033999999534,['c'],1,left,['u'],1,0.6787103999995452,0.4,1,0,AccFast,33,18,Woman,Right,
32,4,1,4.401097399999344,['n'],1,right,['e'],0,0.8774353999997402,0.2,0,0,AccFast,33,18,Woman,Right,
33,4,1,3.516951200001131,['n'],1,right,['u'],1,0.8493121999999858,0.1,1,0,AccFast,33,18,Woman,Right,
34,4,1,3.3831551000002946,['n'],1,right,['e'],0,0.762041500000123,0.2,0,0,AccFast,33,18,Woman,Right,
35,4,1,0.8180415999995603,['n'],1,right,['e'],0,0.36522079999849666,0.2,0,0,AccFast,33,18,Woman,Right,
36,4,1,0.8339695999984542,['n'],0,left,['u'],1,0.255144200000359,0.1,0,0,AccFast,33,18,Woman,Right,
37,4,1,0.9334548999995604,['n'],1,right,['u'],1,0.27560190000076545,0.4,1,0,AccFast,33,18,Woman,Right,
38,4,1,2.151491200000237,['n'],1,right,['u'],1,0.5480097999989084,0.4,1,0,AccFast,33,18,Woman,Right,
39,4,1,2.033366899999237,['n'],0,left,['u'],1,0.43188370000098075,0.4,0,0,AccFast,33,18,Woman,Right,
40,4,1,1.9164135999999417,['n'],0,left,['u'],1,0.5003610000003391,0.2,0,0,AccFast,33,18,Woman,Right,
41,4,1,1.8677772999999434,['n'],1,right,['u'],1,0.2791672999992443,0.1,1,0,AccFast,33,18,Woman,Right,
42,4,1,2.1180723999987094,['n'],0,left,['u'],1,0.2976524999994581,0.1,0,0,AccFast,33,18,Woman,Right,
43,4,1,1.9011523999997735,['n'],0,left,['u'],1,0.27604259999861824,0.2,0,0,AccFast,33,18,Woman,Right,
44,4,1,2.818076400000791,['n'],1,right,['u'],1,0.31586759999845526,0.2,1,0,AccFast,33,18,Woman,Right,
45,4,1,1.7177868999988277,['n'],0,left,['u'],1,0.18856889999915438,0.4,0,0,AccFast,33,18,Woman,Right,
46,4,1,2.4178130000000237,['n'],1,right,['u'],1,0.19879539999965345,0.1,1,0,AccFast,33,18,Woman,Right,
47,4,1,3.5335869999998977,['n'],0,left,['u'],1,0.21194090000062715,0.4,0,0,AccFast,33,18,Woman,Right,
48,4,1,2.168837600000188,['n'],0,left,['u'],1,0.16828779999923427,0.2,0,0,AccFast,33,18,Woman,Right,
49,4,1,5.016522399999303,x,-99,left,none,-99,-99,0.1,-99,1,AccFast,33,18,Woman,Right,
50,4,1,2.250035699998989,['n'],1,right,['e'],0,0.2436254000003828,0.1,0,0,AccFast,33,18,Woman,Right,
51,4,1,1.5338221000001795,['n'],0,left,['e'],0,0.25449099999968894,0.4,1,0,AccFast,33,18,Woman,Right,
52,4,1,2.017889099999593,['n'],1,right,['e'],0,0.2944110999997065,0.4,0,0,AccFast,33,18,Woman,Right,
53,4,1,1.1339215000007243,['n'],1,right,['e'],0,0.3199893000000884,0.4,0,0,AccFast,33,18,Woman,Right,
54,4,1,2.451125500001581,['n'],0,left,['e'],0,0.2596302000001742,0.2,1,0,AccFast,33,18,Woman,Right,
55,4,1,3.100180500001443,['n'],1,right,['e'],0,0.4322018000002572,0.1,0,0,AccFast,33,18,Woman,Right,
56,4,1,2.4848108000005595,['c'],1,left,['e'],0,0.3979841000000306,0.1,0,0,AccFast,33,18,Woman,Right,
57,4,1,2.916166000000885,['c'],1,left,['e'],0,0.28420940000069095,0.4,0,0,AccFast,33,18,Woman,Right,
58,4,1,3.06821779999882,['c'],1,left,['e'],0,0.2643004000001383,0.1,0,0,AccFast,33,18,Woman,Right,
59,4,1,2.3342915000012,['c'],1,left,['e'],0,0.2587239000004047,0.4,0,0,AccFast,33,18,Woman,Right,
0,5,1,2.4340038999998796,['n'],0,left,['u'],1,0.8985730000003969,0.1,0,0,AccAcc,33,18,Woman,Right,
1,5,1,2.067747999999483,['c'],1,left,['u'],1,0.49496279999948456,0.2,1,0,AccAcc,33,18,Woman,Right,
2,5,1,1.3181266999999934,['c'],1,left,['u'],1,0.696719600000506,0.4,1,0,AccAcc,33,18,Woman,Right,
3,5,1,1.534409500000038,['c'],1,left,['u'],1,0.6258570999998483,0.4,1,0,AccAcc,33,18,Woman,Right,
4,5,1,1.867032800000743,['c'],0,right,['u'],1,0.4336294999993697,0.2,0,0,AccAcc,33,18,Woman,Right,
5,5,1,2.1341801999988093,['c'],0,right,['u'],1,0.23649629999999888,0.4,0,0,AccAcc,33,18,Woman,Right,
6,5,1,1.1677618000012444,['c'],0,right,['u'],1,1.4149653000004037,0.4,0,0,AccAcc,33,18,Woman,Right,
7,5,1,2.3005205999997997,['c'],1,left,['u'],1,0.7734546000010596,0.1,1,0,AccAcc,33,18,Woman,Right,
8,5,1,1.9341397999996843,['c'],0,right,['u'],1,0.31519759999901,0.2,0,0,AccAcc,33,18,Woman,Right,
9,5,1,1.350943899999038,['c'],0,right,['u'],1,0.2670813000004273,0.1,0,0,AccAcc,33,18,Woman,Right,
10,5,1,1.5494777999992948,['c'],0,right,['u'],1,0.35792099999889615,0.2,0,0,AccAcc,33,18,Woman,Right,
11,5,1,3.067960700000185,['c'],0,right,['u'],1,0.3034122999997635,0.1,0,0,AccAcc,33,18,Woman,Right,
12,5,1,2.7501486000001023,['c'],0,right,['u'],1,0.9835710999996081,0.1,0,0,AccAcc,33,18,Woman,Right,
13,5,1,1.0676665999999386,['c'],1,left,['u'],1,0.26341709999906016,0.1,1,0,AccAcc,33,18,Woman,Right,
14,5,1,1.633070100000623,['c'],0,right,['u'],1,0.6702399000005244,0.4,0,0,AccAcc,33,18,Woman,Right,
15,5,1,0.8000011999993148,['c'],1,left,['u'],1,0.3100266000001284,0.1,1,0,AccAcc,33,18,Woman,Right,
16,5,1,1.3670983000010892,['c'],0,right,['u'],1,0.7730203000010079,0.4,0,0,AccAcc,33,18,Woman,Right,
17,5,1,0.6504353000000265,['c'],1,left,['u'],1,0.30273469999883673,0.2,1,0,AccAcc,33,18,Woman,Right,
18,5,1,2.7678735999998025,['c'],1,left,['u'],1,0.2786106000003201,0.1,1,0,AccAcc,33,18,Woman,Right,
19,5,1,2.0512677999995503,['c'],0,right,['u'],1,0.31538370000089344,0.1,0,0,AccAcc,33,18,Woman,Right,
20,5,1,1.7347464000013133,['c'],0,right,['u'],1,0.2365881999994599,0.2,0,0,AccAcc,33,18,Woman,Right,
21,5,1,1.4009866000014881,['c'],0,right,['u'],1,0.3168992999999318,0.2,0,0,AccAcc,33,18,Woman,Right,
22,5,1,1.1354113000015786,['c'],1,left,['u'],1,0.29313639999963925,0.2,1,0,AccAcc,33,18,Woman,Right,
23,5,1,1.1505471000000398,['c'],1,left,['u'],1,0.3181072999996104,0.2,1,0,AccAcc,33,18,Woman,Right,
24,5,1,0.7667167999989033,['c'],1,left,['u'],1,0.29357119999986026,0.1,1,0,AccAcc,33,18,Woman,Right,
25,5,1,1.150671900000816,['c'],0,right,['u'],1,0.2864358999995602,0.2,0,0,AccAcc,33,18,Woman,Right,
26,5,1,3.649455900000248,['c'],1,left,['u'],1,1.0439597999993566,0.1,1,0,AccAcc,33,18,Woman,Right,
27,5,1,1.1334679999999935,['c'],1,left,['u'],1,0.2712895999993634,0.4,1,0,AccAcc,33,18,Woman,Right,
28,5,1,3.4843450999997003,['c'],1,left,['e'],0,0.2513284999986354,0.2,0,0,AccAcc,33,18,Woman,Right,
29,5,1,1.8329656999994768,['c'],0,right,['e'],0,0.2994975000001432,0.4,1,0,AccAcc,33,18,Woman,Right,
30,5,1,5.015693299999839,x,-99,right,none,-99,-99,0.2,-99,1,AccAcc,33,18,Woman,Right,
31,5,1,1.433616099999199,['c'],1,left,['e'],0,0.5142385999988619,0.2,0,0,AccAcc,33,18,Woman,Right,
32,5,1,1.3001735999987432,['c'],1,left,['u'],1,0.2520789000009245,0.2,1,0,AccAcc,33,18,Woman,Right,
33,5,1,1.1002933999989182,['c'],1,left,['u'],1,0.35985400000026857,0.4,1,0,AccAcc,33,18,Woman,Right,
34,5,1,2.4327112000009947,['n'],1,right,['e'],0,0.7796565999997256,0.2,0,0,AccAcc,33,18,Woman,Right,
35,5,1,1.8183709000004455,['n'],1,right,['e'],0,0.5653283999999985,0.4,0,0,AccAcc,33,18,Woman,Right,
36,5,1,3.7667923999997583,['n'],1,right,['e'],0,0.8278071000004275,0.4,0,0,AccAcc,33,18,Woman,Right,
37,5,1,3.5825325999994675,['c'],0,right,['e'],0,0.8302917999990314,0.1,1,0,AccAcc,33,18,Woman,Right,
38,5,1,1.9005985999992845,['c'],1,left,['u'],1,0.3386874000007083,0.2,1,0,AccAcc,33,18,Woman,Right,
39,5,1,1.2991179000000557,['c'],1,left,['u'],1,0.6439958000009938,0.4,1,0,AccAcc,33,18,Woman,Right,
40,5,1,4.617792499999268,['n'],0,left,['e'],0,0.7240003000006254,0.2,1,0,AccAcc,33,18,Woman,Right,
41,5,1,2.0839791999987938,['n'],1,right,['e'],0,0.27842079999936686,0.4,0,0,AccAcc,33,18,Woman,Right,
42,5,1,4.482846099999733,['n'],1,right,['e'],0,0.3317480000005162,0.4,0,0,AccAcc,33,18,Woman,Right,
43,5,1,1.4835491000012553,['c'],1,left,['e'],0,0.2604627000000619,0.1,0,0,AccAcc,33,18,Woman,Right,
44,5,1,2.6847395000004326,['n'],1,right,['e'],0,1.4253525999993144,0.1,0,0,AccAcc,33,18,Woman,Right,
45,5,1,3.0519894000008208,['c'],1,left,['e'],0,0.2573444000008749,0.1,0,0,AccAcc,33,18,Woman,Right,
46,5,1,3.0342732000008255,['c'],1,left,['e'],0,0.545540199998868,0.4,0,0,AccAcc,33,18,Woman,Right,
47,5,1,2.4190267999983917,['n'],0,left,['e'],0,1.0688272999996116,0.2,1,0,AccAcc,33,18,Woman,Right,
48,5,1,2.766239800001131,['n'],0,left,['e'],0,0.2951699999994162,0.2,1,0,AccAcc,33,18,Woman,Right,
49,5,1,2.868049800001245,['n'],1,right,['u'],1,0.6999980000000505,0.4,1,0,AccAcc,33,18,Woman,Right,
50,5,1,3.3507193999994342,['c'],1,left,['e'],0,0.587368399999832,0.1,0,0,AccAcc,33,18,Woman,Right,
51,5,1,3.1658956999999646,['c'],1,left,['e'],0,0.9850721999991947,0.4,0,0,AccAcc,33,18,Woman,Right,
52,5,1,5.015818899999431,x,-99,left,none,-99,-99,0.1,-99,1,AccAcc,33,18,Woman,Right,
53,5,1,0.9500929000005272,['n'],1,right,['u'],1,0.6157419999999547,0.4,1,0,AccAcc,33,18,Woman,Right,
54,5,1,1.8159427999999025,['n'],1,right,['u'],1,0.6975338000011106,0.4,1,0,AccAcc,33,18,Woman,Right,
55,5,1,1.5176566000009188,['n'],1,right,['u'],1,0.5778530000006867,0.1,1,0,AccAcc,33,18,Woman,Right,
56,5,1,2.0003790999999183,['n'],0,left,['u'],1,0.3975276999990456,0.1,0,0,AccAcc,33,18,Woman,Right,
57,5,1,1.1503328999988298,['n'],1,right,['e'],0,0.33886729999903764,0.1,0,0,AccAcc,33,18,Woman,Right,
58,5,1,1.0661249000004318,['n'],1,right,['u'],1,0.3649707999993552,0.4,1,0,AccAcc,33,18,Woman,Right,
59,5,1,0.8503793999989284,['n'],1,right,['u'],1,0.2869971000000078,0.2,1,0,AccAcc,33,18,Woman,Right,
0,6,1,1.067717800000537,['c'],1,left,['u'],1,1.1130821999995533,0.4,1,0,FastAcc,33,18,Woman,Right,
1,6,1,0.8835918999993737,['n'],0,left,['u'],1,2.0277424000014435,0.1,0,0,FastAcc,33,18,Woman,Right,
2,6,1,0.6342547000003833,['c'],1,left,['u'],1,1.5564687000005506,0.2,1,0,FastAcc,33,18,Woman,Right,
3,6,1,0.7003910999992513,['n'],1,right,['u'],1,0.6043947999987722,0.2,1,0,FastAcc,33,18,Woman,Right,
4,6,1,1.0669777000002796,['n'],0,left,['u'],1,0.5729119000006904,0.2,0,0,FastAcc,33,18,Woman,Right,
5,6,1,0.7509022000012919,['n'],1,right,['u'],1,0.4091946000007738,0.1,1,0,FastAcc,33,18,Woman,Right,
6,6,1,0.8174149000005855,['n'],0,left,['u'],1,1.546893499998987,0.4,0,0,FastAcc,33,18,Woman,Right,
7,6,1,0.9989456000002974,['n'],1,right,['u'],1,0.5687239000017144,0.1,1,0,FastAcc,33,18,Woman,Right,
8,6,1,0.7334644000002299,['n'],0,left,['u'],1,0.5821525999999722,0.1,0,0,FastAcc,33,18,Woman,Right,
9,6,1,0.7347109999991517,['n'],0,left,['u'],1,0.4830486999999266,0.1,0,0,FastAcc,33,18,Woman,Right,
10,6,1,1.1845653000000311,['n'],0,left,['u'],1,0.6589127999995981,0.4,0,0,FastAcc,33,18,Woman,Right,
11,6,1,1.1677546999999322,['n'],0,left,['u'],1,0.380563799999436,0.2,0,0,FastAcc,33,18,Woman,Right,
12,6,1,1.0179926000000705,['n'],1,right,['u'],1,0.374845299998924,0.2,1,0,FastAcc,33,18,Woman,Right,
13,6,1,0.7182270000012068,['n'],1,right,['u'],1,0.4464239999997517,0.4,1,0,FastAcc,33,18,Woman,Right,
14,6,1,1.834649399999762,['n'],1,right,['u'],1,0.43666969999867433,0.2,1,0,FastAcc,33,18,Woman,Right,
15,6,1,0.9341323999997257,['n'],1,right,['u'],1,0.6737092999992456,0.2,1,0,FastAcc,33,18,Woman,Right,
16,6,1,0.8344011999997747,['n'],0,left,['u'],1,0.4227324999992561,0.4,0,0,FastAcc,33,18,Woman,Right,
17,6,1,1.1015177999997832,['n'],1,right,['u'],1,0.3642850999985967,0.4,1,0,FastAcc,33,18,Woman,Right,
18,6,1,1.0677181999999448,['n'],1,right,['u'],1,0.4054454999986774,0.4,1,0,FastAcc,33,18,Woman,Right,
19,6,1,1.4673777999996673,['n'],0,left,['u'],1,0.6693625999996584,0.1,0,0,FastAcc,33,18,Woman,Right,
20,6,1,0.7339411000011751,['n'],0,left,['u'],1,0.8882061000003887,0.4,0,0,FastAcc,33,18,Woman,Right,
21,6,1,0.7345872999994754,['n'],0,left,['u'],1,0.5371271999993041,0.4,0,0,FastAcc,33,18,Woman,Right,
22,6,1,0.8828178999992815,['n'],1,right,['u'],1,1.6515879000016866,0.4,1,0,FastAcc,33,18,Woman,Right,
23,6,1,1.1338786999986041,['n'],1,right,['u'],1,0.8056623000011314,0.2,1,0,FastAcc,33,18,Woman,Right,
24,6,1,0.7678654000010283,['n'],1,right,['u'],1,1.2901517000009335,0.2,1,0,FastAcc,33,18,Woman,Right,
25,6,1,1.000109099999463,['n'],0,left,['u'],1,1.2330738000000565,0.1,0,0,FastAcc,33,18,Woman,Right,
26,6,1,1.3008241999996244,['n'],0,left,['u'],1,0.5575930000013614,0.4,0,0,FastAcc,33,18,Woman,Right,
27,6,1,1.017422599999918,['n'],0,left,['u'],1,0.49742479999986244,0.4,0,0,FastAcc,33,18,Woman,Right,
28,6,1,2.0327678000012384,['n'],1,right,['e'],0,0.3022699000011926,0.1,0,0,FastAcc,33,18,Woman,Right,
29,6,1,1.2015831999997317,['n'],1,right,['u'],1,0.2925782000002073,0.4,1,0,FastAcc,33,18,Woman,Right,
30,6,1,2.167825799999264,['c'],1,left,['e'],0,0.6609834000009869,0.1,0,0,FastAcc,33,18,Woman,Right,
31,6,1,0.8511170000001584,['n'],1,right,['e'],0,0.6993480000001,0.4,0,0,FastAcc,33,18,Woman,Right,
32,6,1,1.6177314999986265,['n'],1,right,['e'],0,0.64110299999993,0.4,0,0,FastAcc,33,18,Woman,Right,
33,6,1,2.915624100000059,['c'],0,right,['e'],0,0.9030320000001666,0.1,1,0,FastAcc,33,18,Woman,Right,
34,6,1,0.968223300000318,['n'],1,right,['e'],0,2.8458974999994098,0.1,0,0,FastAcc,33,18,Woman,Right,
35,6,1,2.1514473000006546,['n'],1,right,['u'],1,0.34390220000022964,0.4,1,0,FastAcc,33,18,Woman,Right,
36,6,1,2.733466399999088,['n'],1,right,['e'],0,0.6239423999995779,0.2,0,0,FastAcc,33,18,Woman,Right,
37,6,1,2.550641899999391,['c'],1,left,['e'],0,1.1883019000015338,0.1,0,0,FastAcc,33,18,Woman,Right,
38,6,1,2.5509959000009985,['c'],0,right,['e'],0,1.8408917000015208,0.1,1,0,FastAcc,33,18,Woman,Right,
39,6,1,1.0163122000012663,['c'],1,left,['e'],0,0.8827189999992697,0.2,0,0,FastAcc,33,18,Woman,Right,
40,6,1,1.0498921000016708,['c'],1,left,['u'],1,0.8709359999993467,0.4,1,0,FastAcc,33,18,Woman,Right,
41,6,1,0.7177185999989888,['c'],1,left,['u'],1,0.8094882999994297,0.2,1,0,FastAcc,33,18,Woman,Right,
42,6,1,0.7344142999991163,['c'],1,left,['e'],0,0.7666032999986783,0.1,0,0,FastAcc,33,18,Woman,Right,
43,6,1,1.5150126999997156,['c'],0,right,['u'],1,0.774878100000933,0.4,0,0,FastAcc,33,18,Woman,Right,
44,6,1,1.0997838000002957,['c'],1,left,['u'],1,0.43053239999971993,0.2,1,0,FastAcc,33,18,Woman,Right,
45,6,1,1.550702900000033,['c'],0,right,['u'],1,0.7682246000003943,0.2,0,0,FastAcc,33,18,Woman,Right,
46,6,1,1.1017106999988755,['c'],1,left,['u'],1,0.5681593999997858,0.1,1,0,FastAcc,33,18,Woman,Right,
47,6,1,2.316464300000007,['c'],0,right,['u'],1,0.5836871999999858,0.1,0,0,FastAcc,33,18,Woman,Right,
48,6,1,1.0677202999995643,['c'],0,right,['u'],1,2.0074010000007547,0.2,0,0,FastAcc,33,18,Woman,Right,
49,6,1,1.017885600000227,['c'],1,left,['u'],1,0.8332748000011634,0.2,1,0,FastAcc,33,18,Woman,Right,
50,6,1,0.8164591999993718,['c'],1,left,['u'],1,1.9867379000006622,0.1,1,0,FastAcc,33,18,Woman,Right,
51,6,1,1.0018294999990758,['c'],1,left,['u'],1,0.8129913000011584,0.4,1,0,FastAcc,33,18,Woman,Right,
52,6,1,0.8677952000016376,['c'],0,right,['u'],1,0.987881600000037,0.2,0,0,FastAcc,33,18,Woman,Right,
53,6,1,0.8181128999985958,['c'],1,left,['u'],1,0.8860966000011103,0.1,1,0,FastAcc,33,18,Woman,Right,
54,6,1,0.7496547999999166,['c'],1,left,['u'],1,0.5043345000012778,0.2,1,0,FastAcc,33,18,Woman,Right,
55,6,1,0.7352300000002288,['c'],0,right,['u'],1,0.37721980000060285,0.2,0,0,FastAcc,33,18,Woman,Right,
56,6,1,0.651692199999161,['c'],0,right,['u'],1,0.43420659999901545,0.1,0,0,FastAcc,33,18,Woman,Right,
57,6,1,0.8679778000005172,['c'],1,left,['u'],1,0.3677231000001484,0.2,1,0,FastAcc,33,18,Woman,Right,
58,6,1,0.8155640000004496,['c'],0,right,['u'],1,0.6273590000000695,0.1,0,0,FastAcc,33,18,Woman,Right,
59,6,1,0.6175636999996641,['c'],0,right,['u'],1,0.5318176000000676,0.4,0,0,FastAcc,33,18,Woman,Right,
0,7,1,1.3183504000007815,['c'],1,left,['u'],1,0.3130347000005713,0.2,1,0,FastFast,33,18,Woman,Right,
1,7,1,0.5684371999996074,['c'],1,left,['u'],1,0.2479695999991236,0.2,1,0,FastFast,33,18,Woman,Right,
2,7,1,0.651174999999057,['c'],1,left,['u'],1,0.24639559999923222,0.2,1,0,FastFast,33,18,Woman,Right,
3,7,1,0.5338320999999269,['c'],1,left,['u'],1,0.2343481999996584,0.2,1,0,FastFast,33,18,Woman,Right,
4,7,1,0.6346095000008063,['c'],1,left,['u'],1,0.26616889999968407,0.1,1,0,FastFast,33,18,Woman,Right,
5,7,1,0.7175645000006625,['c'],0,right,['u'],1,0.27695700000003853,0.4,0,0,FastFast,33,18,Woman,Right,
6,7,1,1.7991794999998092,['c'],1,left,['u'],1,0.22846840000056545,0.1,1,0,FastFast,33,18,Woman,Right,
7,7,1,0.5831137999994098,['c'],1,left,['u'],1,0.7106516000003467,0.1,1,0,FastFast,33,18,Woman,Right,
8,7,1,0.6661320000002888,['c'],1,left,['u'],1,0.338456600000427,0.2,1,0,FastFast,33,18,Woman,Right,
9,7,1,0.8174856999994518,['c'],1,left,['u'],1,0.5180091000001994,0.2,1,0,FastFast,33,18,Woman,Right,
10,7,1,0.702036999999109,['c'],0,right,['u'],1,0.27900770000087505,0.2,0,0,FastFast,33,18,Woman,Right,
11,7,1,0.8158229000000574,['c'],1,left,['u'],1,0.2546392999993259,0.4,1,0,FastFast,33,18,Woman,Right,
12,7,1,1.4826635999997961,['c'],0,right,['u'],1,0.33163539999986824,0.4,0,0,FastFast,33,18,Woman,Right,
13,7,1,0.7174355999995896,['c'],0,right,['u'],1,0.2599547999998322,0.4,0,0,FastFast,33,18,Woman,Right,
14,7,1,0.8836795999995957,['c'],0,right,['u'],1,0.2795261000010214,0.1,0,0,FastFast,33,18,Woman,Right,
15,7,1,0.5838297999998758,['c'],1,left,['u'],1,0.26454200000080164,0.4,1,0,FastFast,33,18,Woman,Right,
16,7,1,0.6341090000005352,['c'],1,left,['u'],1,0.3748178999994707,0.4,1,0,FastFast,33,18,Woman,Right,
17,7,1,2.118328200000178,['c'],0,right,['u'],1,0.29259190000084345,0.2,0,0,FastFast,33,18,Woman,Right,
18,7,1,0.7655780999994022,['c'],0,right,['u'],1,0.23805189999984577,0.1,0,0,FastFast,33,18,Woman,Right,
19,7,1,0.9989997000011499,['c'],0,right,['u'],1,0.20620229999985895,0.2,0,0,FastFast,33,18,Woman,Right,
20,7,1,0.6504664000003686,['c'],0,right,['u'],1,0.22325500000079046,0.2,0,0,FastFast,33,18,Woman,Right,
21,7,1,0.7174590000013268,['c'],0,right,['u'],1,0.46075630000086676,0.4,0,0,FastFast,33,18,Woman,Right,
22,7,1,1.7319927999997162,['c'],0,right,['u'],1,0.2624197999994067,0.1,0,0,FastFast,33,18,Woman,Right,
23,7,1,1.3679926999993768,['c'],1,left,['u'],1,0.29517500000110886,0.2,1,0,FastFast,33,18,Woman,Right,
24,7,1,1.2181503000010707,['c'],0,right,['e'],0,0.44469759999992675,0.4,1,0,FastFast,33,18,Woman,Right,
25,7,1,1.9841231999998854,['c'],0,right,['e'],0,0.31862639999962994,0.2,1,0,FastFast,33,18,Woman,Right,
26,7,1,2.034604300000865,['c'],1,left,['e'],0,0.2908008999984304,0.2,0,0,FastFast,33,18,Woman,Right,
27,7,1,2.5672047000007296,['n'],1,right,['e'],0,0.19517420000011043,0.2,0,0,FastFast,33,18,Woman,Right,
28,7,1,1.1339674000009836,['c'],0,right,['e'],0,0.24008389999835344,0.4,1,0,FastFast,33,18,Woman,Right,
29,7,1,1.1664452999993955,['c'],1,left,['e'],0,0.3306028000006336,0.1,0,0,FastFast,33,18,Woman,Right,
30,7,1,1.633636900000056,['n'],1,right,['e'],0,0.2379799999998795,0.1,0,0,FastFast,33,18,Woman,Right,
31,7,1,1.4332393999993656,['c'],1,left,['e'],0,1.4543993999996019,0.4,0,0,FastFast,33,18,Woman,Right,
32,7,1,2.068083899999692,['n'],1,right,['e'],0,0.24390649999986636,0.1,0,0,FastFast,33,18,Woman,Right,
33,7,1,1.667270500000086,['n'],0,left,['e'],0,0.4100525000012567,0.2,1,0,FastFast,33,18,Woman,Right,
34,7,1,2.068239000000176,['n'],1,right,['e'],0,0.26550439999846276,0.1,0,0,FastFast,33,18,Woman,Right,
35,7,1,1.6840704999995069,['n'],1,right,['u'],1,0.542044599998917,0.2,1,0,FastFast,33,18,Woman,Right,
36,7,1,0.8001215999993292,['c'],1,left,['u'],1,0.49223799999890616,0.4,1,0,FastFast,33,18,Woman,Right,
37,7,1,3.133649299999888,['n'],1,right,['e'],0,0.684857500000362,0.1,0,0,FastFast,33,18,Woman,Right,
38,7,1,3.3507290999987163,['n'],1,right,['e'],0,0.3661406999999599,0.1,0,0,FastFast,33,18,Woman,Right,
39,7,1,0.7843100999998569,['c'],1,left,['u'],1,0.5147061999996367,0.4,1,0,FastFast,33,18,Woman,Right,
40,7,1,1.1504681999995228,['n'],0,left,['e'],0,0.3394506000004185,0.1,1,0,FastFast,33,18,Woman,Right,
41,7,1,0.7022045999983675,['n'],1,right,['u'],1,0.33238230000097246,0.1,1,0,FastFast,33,18,Woman,Right,
42,7,1,0.7830178999993223,['n'],1,right,['u'],1,0.27369350000117265,0.4,1,0,FastFast,33,18,Woman,Right,
43,7,1,0.65046010000151,['n'],1,right,['u'],1,0.11087989999941783,0.1,1,0,FastFast,33,18,Woman,Right,
44,7,1,1.5510768000003736,['n'],0,left,['u'],1,0.14257919999909063,0.2,0,0,FastFast,33,18,Woman,Right,
45,7,1,1.184435899998789,['n'],1,right,['u'],1,0.1253749000006792,0.1,1,0,FastFast,33,18,Woman,Right,
46,7,1,1.2680114000013418,['n'],0,left,['u'],1,0.15130499999941094,0.2,0,0,FastFast,33,18,Woman,Right,
47,7,1,0.5681712999994488,['n'],1,right,['u'],1,0.10947079999823472,0.4,1,0,FastFast,33,18,Woman,Right,
48,7,1,2.7827706999996735,['n'],1,right,['u'],1,0.3172755000014149,0.1,1,0,FastFast,33,18,Woman,Right,
49,7,1,1.8002878999996028,['n'],1,right,['e'],0,0.28277349999916623,0.1,0,0,FastFast,33,18,Woman,Right,
50,7,1,3.0503344999997353,['n'],1,right,['e'],0,0.342903099999603,0.1,0,0,FastFast,33,18,Woman,Right,
51,7,1,1.3006417999986297,['n'],0,left,['e'],0,0.2637857999998232,0.1,1,0,FastFast,33,18,Woman,Right,
52,7,1,2.2345313999994687,['n'],0,left,['e'],0,0.6942714000015258,0.4,1,0,FastFast,33,18,Woman,Right,
53,7,1,0.7846055999998498,['n'],0,left,['e'],0,0.318029199999728,0.4,1,0,FastFast,33,18,Woman,Right,
54,7,1,0.834138800000801,['n'],0,left,['e'],0,0.22606180000002496,0.4,1,0,FastFast,33,18,Woman,Right,
55,7,1,0.8343370000002324,['n'],0,left,['e'],0,0.20235409999986587,0.2,1,0,FastFast,33,18,Woman,Right,
56,7,1,0.8842531999998755,['n'],1,right,['e'],0,0.16263230000004114,0.4,0,0,FastFast,33,18,Woman,Right,
57,7,1,0.851590500000384,['n'],0,left,['u'],1,0.09151009999914095,0.4,0,0,FastFast,33,18,Woman,Right,
58,7,1,1.0839195000007749,['n'],0,left,['u'],1,0.15984650000063994,0.4,0,0,FastFast,33,18,Woman,Right,
59,7,1,1.9165173000001232,['n'],0,left,['e'],0,0.526806800000486,0.2,1,0,FastFast,33,18,Woman,Right,
0,8,1,2.2343985000006796,['n'],0,left,['u'],1,0.8382931000014651,0.2,0,0,AccFast,33,18,Woman,Right,
1,8,1,0.9162684999992052,['n'],0,left,['u'],1,0.323439400001007,0.2,0,0,AccFast,33,18,Woman,Right,
2,8,1,1.4992150999987643,['n'],1,right,['u'],1,0.5250580000010814,0.1,1,0,AccFast,33,18,Woman,Right,
3,8,1,1.2345320000003994,['n'],1,right,['u'],1,0.45681870000044,0.4,1,0,AccFast,33,18,Woman,Right,
4,8,1,1.0998289999988629,['n'],1,right,['u'],1,0.5577460000004066,0.1,1,0,AccFast,33,18,Woman,Right,
5,8,1,3.599535100000139,['n'],1,right,['e'],0,1.1143031999999948,0.1,0,0,AccFast,33,18,Woman,Right,
6,8,1,1.1344277000007423,['c'],1,left,['u'],1,0.561997099999644,0.4,1,0,AccFast,33,18,Woman,Right,
7,8,1,0.800056099998983,['c'],1,left,['u'],1,0.2865252999999939,0.2,1,0,AccFast,33,18,Woman,Right,
8,8,1,0.8846644000004744,['c'],0,right,['u'],1,0.2571172000007209,0.4,0,0,AccFast,33,18,Woman,Right,
9,8,1,0.8660194000003685,['c'],1,left,['u'],1,0.19952469999952882,0.4,1,0,AccFast,33,18,Woman,Right,
10,8,1,0.8841452000015124,['c'],0,right,['u'],1,0.6057306999991852,0.2,0,0,AccFast,33,18,Woman,Right,
11,8,1,0.7181237999993755,['c'],0,right,['u'],1,0.21974410000075295,0.4,0,0,AccFast,33,18,Woman,Right,
12,8,1,1.3837361999994755,['c'],0,right,['u'],1,0.3344909999996162,0.1,0,0,AccFast,33,18,Woman,Right,
13,8,1,0.6510600000001432,['c'],0,right,['u'],1,0.2659910000002128,0.1,0,0,AccFast,33,18,Woman,Right,
14,8,1,0.7167706999989605,['c'],0,right,['u'],1,0.24381369999900926,0.2,0,0,AccFast,33,18,Woman,Right,
15,8,1,1.6845052999997279,['c'],0,right,['u'],1,0.4731982000012067,0.1,0,0,AccFast,33,18,Woman,Right,
16,8,1,1.6825277999996615,['c'],0,right,['u'],1,0.26306060000024445,0.4,0,0,AccFast,33,18,Woman,Right,
17,8,1,0.7827622999993764,['c'],0,right,['u'],1,0.7514138000005914,0.1,0,0,AccFast,33,18,Woman,Right,
18,8,1,0.6509278000012273,['c'],1,left,['u'],1,0.47271340000042983,0.4,1,0,AccFast,33,18,Woman,Right,
19,8,1,0.6844601999982842,['c'],0,right,['u'],1,0.2845987000000605,0.4,0,0,AccFast,33,18,Woman,Right,
20,8,1,0.6665358000009292,['c'],1,left,['u'],1,0.297357399998873,0.4,1,0,AccFast,33,18,Woman,Right,
21,8,1,0.7186643999993976,['c'],0,right,['u'],1,0.2582882000006066,0.2,0,0,AccFast,33,18,Woman,Right,
22,8,1,0.5843765999998141,['c'],0,right,['u'],1,0.29142249999858905,0.1,0,0,AccFast,33,18,Woman,Right,
23,8,1,0.6841972999991413,['c'],1,left,['u'],1,0.23879870000018855,0.2,1,0,AccFast,33,18,Woman,Right,
24,8,1,0.7669215000005352,['c'],0,right,['u'],1,0.329937799999243,0.1,0,0,AccFast,33,18,Woman,Right,
25,8,1,0.6011447000000771,['c'],1,left,['u'],1,0.26198789999943983,0.2,1,0,AccFast,33,18,Woman,Right,
26,8,1,0.8339797999997245,['c'],1,left,['u'],1,0.25313550000100804,0.1,1,0,AccFast,33,18,Woman,Right,
27,8,1,1.467670399999406,['c'],1,left,['u'],1,0.5706221999989793,0.2,1,0,AccFast,33,18,Woman,Right,
28,8,1,1.6339550000011513,['c'],0,right,['u'],1,0.5333657000010135,0.1,0,0,AccFast,33,18,Woman,Right,
29,8,1,3.9314428999987285,['c'],0,right,['u'],1,0.48518979999971634,0.2,0,0,AccFast,33,18,Woman,Right,
30,8,1,2.71691760000067,['c'],0,right,['e'],0,0.2308515000004263,0.1,1,0,AccFast,33,18,Woman,Right,
31,8,1,1.9164598000006663,['c'],1,left,['e'],0,0.33985670000038226,0.2,0,0,AccFast,33,18,Woman,Right,
32,8,1,1.0844787000005454,['c'],0,right,['e'],0,0.15723780000007537,0.4,1,0,AccFast,33,18,Woman,Right,
33,8,1,3.1005182999997487,['c'],0,right,['e'],0,0.6222844000003533,0.4,1,0,AccFast,33,18,Woman,Right,
34,8,1,1.0508926000002248,['c'],0,right,['e'],0,0.33306679999986954,0.2,1,0,AccFast,33,18,Woman,Right,
35,8,1,1.4184567999982391,['c'],1,left,['e'],0,0.6013141999992513,0.4,0,0,AccFast,33,18,Woman,Right,
36,8,1,0.8509448999993765,['c'],0,right,['e'],0,0.3857054000000062,0.2,1,0,AccFast,33,18,Woman,Right,
37,8,1,0.850355300000956,['c'],1,left,['e'],0,0.29121930000110297,0.4,0,0,AccFast,33,18,Woman,Right,
38,8,1,0.717917199999647,['c'],1,left,['e'],0,0.124752300000182,0.2,0,0,AccFast,33,18,Woman,Right,
39,8,1,0.7666119999994407,['c'],0,right,['e'],0,0.5882007000000158,0.1,1,0,AccFast,33,18,Woman,Right,
40,8,1,1.0177753000007215,['c'],1,left,['e'],0,0.14277550000042538,0.1,0,0,AccFast,33,18,Woman,Right,
41,8,1,1.0677395000002434,['c'],1,left,['e'],0,0.2884943999997631,0.2,0,0,AccFast,33,18,Woman,Right,
42,8,1,1.3666269999994256,['c'],1,left,['e'],0,0.19319920000089041,0.1,0,0,AccFast,33,18,Woman,Right,
43,8,1,0.6494511000000784,['c'],1,left,['u'],1,0.11357200000020384,0.1,1,0,AccFast,33,18,Woman,Right,
44,8,1,1.4506967999986955,['c'],0,right,['u'],1,0.277190699998755,0.1,0,0,AccFast,33,18,Woman,Right,
45,8,1,2.5502142000004824,['c'],1,left,['e'],0,1.5118822000004002,0.2,0,0,AccFast,33,18,Woman,Right,
46,8,1,4.084031099999265,['n'],0,left,['e'],0,1.0986861999990651,0.1,1,0,AccFast,33,18,Woman,Right,
47,8,1,0.8339983999994729,['c'],1,left,['u'],1,0.8315803999994387,0.4,1,0,AccFast,33,18,Woman,Right,
48,8,1,0.8170406999997795,['c'],1,left,['u'],1,0.479799799999455,0.4,1,0,AccFast,33,18,Woman,Right,
49,8,1,1.7344847000003938,['c'],1,left,['u'],1,0.5856874000000971,0.2,1,0,AccFast,33,18,Woman,Right,
50,8,1,0.9504094000003533,['c'],1,left,['e'],0,0.6385239999999612,0.4,0,0,AccFast,33,18,Woman,Right,
51,8,1,1.4016229000008025,['c'],0,right,['u'],1,0.8316359000000375,0.4,0,0,AccFast,33,18,Woman,Right,
52,8,1,1.3342212999996264,['c'],1,left,['u'],1,0.5874677000010706,0.4,1,0,AccFast,33,18,Woman,Right,
53,8,1,4.217089899999337,['n'],1,right,['e'],0,0.44641890000093554,0.1,0,0,AccFast,33,18,Woman,Right,
54,8,1,1.7846004999992147,['n'],1,right,['e'],0,0.29496020000078715,0.2,0,0,AccFast,33,18,Woman,Right,
55,8,1,0.9333124000004318,['c'],1,left,['u'],1,1.0806209999991552,0.2,1,0,AccFast,33,18,Woman,Right,
56,8,1,1.9510255999994115,['c'],1,left,['u'],1,0.5453657999987627,0.2,1,0,AccFast,33,18,Woman,Right,
57,8,1,1.635346600000048,['c'],1,left,['u'],1,0.2680270000000746,0.1,1,0,AccFast,33,18,Woman,Right,
58,8,1,0.7998692000001029,['c'],1,left,['u'],1,0.35615129999860073,0.4,1,0,AccFast,33,18,Woman,Right,
59,8,1,0.9500194000011106,['n'],1,right,['u'],1,0.46629050000046846,0.4,1,0,AccFast,33,18,Woman,Right,
0,9,1,1.8178846999999223,['c'],1,left,['u'],1,0.520502100000158,0.2,1,0,AccAcc,33,18,Woman,Right,
1,9,1,1.5185227999991184,['c'],0,right,['u'],1,0.5052716000009241,0.2,0,0,AccAcc,33,18,Woman,Right,
2,9,1,0.8671622000001662,['c'],0,right,['u'],1,0.1488817999997991,0.4,0,0,AccAcc,33,18,Woman,Right,
3,9,1,1.3508498999999574,['c'],0,right,['u'],1,0.3633157999993273,0.1,0,0,AccAcc,33,18,Woman,Right,
4,9,1,0.800352300000668,['c'],1,left,['u'],1,0.2709367999996175,0.1,1,0,AccAcc,33,18,Woman,Right,
5,9,1,0.7008523999993486,['c'],0,right,['u'],1,0.4587838000006741,0.1,0,0,AccAcc,33,18,Woman,Right,
6,9,1,0.7831540999995923,['c'],1,left,['u'],1,0.7318420999999944,0.4,1,0,AccAcc,33,18,Woman,Right,
7,9,1,1.3340097000000242,['c'],0,right,['u'],1,0.5392353999995976,0.4,0,0,AccAcc,33,18,Woman,Right,
8,9,1,0.8335321000013209,['c'],1,left,['u'],1,0.3754398000000947,0.2,1,0,AccAcc,33,18,Woman,Right,
9,9,1,2.8513565999983257,['c'],0,right,['u'],1,0.2966582999997627,0.1,0,0,AccAcc,33,18,Woman,Right,
10,9,1,2.800341899999694,['n'],1,right,['e'],0,0.5110890999985713,0.1,0,0,AccAcc,33,18,Woman,Right,
11,9,1,0.9344196999991254,['c'],1,left,['e'],0,0.5360084000003553,0.2,0,0,AccAcc,33,18,Woman,Right,
12,9,1,3.0507314999995288,['n'],0,left,['e'],0,0.6672959999996237,0.1,1,0,AccAcc,33,18,Woman,Right,
13,9,1,0.9829843999996228,['c'],1,left,['e'],0,0.4122643999999127,0.4,0,0,AccAcc,33,18,Woman,Right,
14,9,1,0.9837604000003921,['c'],1,left,['e'],0,0.5498744999986229,0.4,0,0,AccAcc,33,18,Woman,Right,
15,9,1,1.4511666000016703,['n'],1,right,['e'],0,0.6004819000008865,0.4,0,0,AccAcc,33,18,Woman,Right,
16,9,1,3.333867299999838,['n'],0,left,['e'],0,0.7335502000005363,0.1,1,0,AccAcc,33,18,Woman,Right,
17,9,1,0.9173481999987416,['n'],1,right,['u'],1,0.7026117999994312,0.2,1,0,AccAcc,33,18,Woman,Right,
18,9,1,2.515798200000063,['n'],0,left,['e'],0,0.3046830000002956,0.1,1,0,AccAcc,33,18,Woman,Right,
19,9,1,1.8007777999991958,['n'],1,right,['u'],1,0.2859126000003016,0.4,1,0,AccAcc,33,18,Woman,Right,
20,9,1,0.8666537999997672,['c'],1,left,['e'],0,0.4663839000004373,0.2,0,0,AccAcc,33,18,Woman,Right,
21,9,1,0.9830488000006881,['n'],1,right,['u'],1,0.23531530000036582,0.4,1,0,AccAcc,33,18,Woman,Right,
22,9,1,0.8016245999988314,['n'],0,left,['u'],1,0.49971329999971204,0.1,0,0,AccAcc,33,18,Woman,Right,
23,9,1,1.4011867999997776,['n'],0,left,['e'],0,0.3147009000003891,0.2,1,0,AccAcc,33,18,Woman,Right,
24,9,1,0.767024599999786,['n'],1,right,['e'],0,0.3850090000014461,0.4,0,0,AccAcc,33,18,Woman,Right,
25,9,1,0.8841046999987157,['n'],0,left,['u'],1,0.17655390000072657,0.2,0,0,AccAcc,33,18,Woman,Right,
26,9,1,0.785021499999857,['n'],1,right,['u'],1,0.1567116000005626,0.2,1,0,AccAcc,33,18,Woman,Right,
27,9,1,0.9841589999996359,['n'],0,left,['u'],1,0.17773440000019036,0.4,0,0,AccAcc,33,18,Woman,Right,
28,9,1,1.5681938999987324,['n'],0,left,['u'],1,1.2945204000006925,0.1,0,0,AccAcc,33,18,Woman,Right,
29,9,1,0.7851532000004227,['n'],0,left,['u'],1,0.5745568999991519,0.1,0,0,AccAcc,33,18,Woman,Right,
30,9,1,0.7678850000011153,['n'],1,right,['u'],1,0.5074445999998716,0.1,1,0,AccAcc,33,18,Woman,Right,
31,9,1,0.8845492999989801,['n'],1,right,['u'],1,0.7104294999990088,0.2,1,0,AccAcc,33,18,Woman,Right,
32,9,1,0.8341216999997414,['n'],1,right,['u'],1,1.083373199999187,0.1,1,0,AccAcc,33,18,Woman,Right,
33,9,1,0.7836865000008402,['n'],1,right,['u'],1,0.40357790000052773,0.2,1,0,AccAcc,33,18,Woman,Right,
34,9,1,0.9661896999987221,['n'],0,left,['u'],1,0.17467670000041835,0.4,0,0,AccAcc,33,18,Woman,Right,
35,9,1,0.8669805999998061,['n'],1,right,['u'],1,0.2643351000006078,0.1,1,0,AccAcc,33,18,Woman,Right,
36,9,1,1.133826900000713,['n'],1,right,['e'],0,0.25834629999917524,0.2,0,0,AccAcc,33,18,Woman,Right,
37,9,1,0.7011746999996831,['n'],0,left,['u'],1,0.2383940999989136,0.4,0,0,AccAcc,33,18,Woman,Right,
38,9,1,0.8007110999988072,['n'],1,right,['u'],1,0.16722139999910723,0.2,1,0,AccAcc,33,18,Woman,Right,
39,9,1,0.7506277000011323,['n'],1,right,['u'],1,0.11731589999908465,0.1,1,0,AccAcc,33,18,Woman,Right,
40,9,1,0.7846267000004445,['n'],0,left,['u'],1,0.11488600000120641,0.4,0,0,AccAcc,33,18,Woman,Right,
41,9,1,0.8004829999990761,['n'],0,left,['u'],1,0.14445339999838325,0.4,0,0,AccAcc,33,18,Woman,Right,
42,9,1,0.8177629000001616,['n'],1,right,['u'],1,0.10890260000087437,0.2,1,0,AccAcc,33,18,Woman,Right,
43,9,1,0.91685200000029,['n'],1,right,['u'],1,0.15038869999989402,0.4,1,0,AccAcc,33,18,Woman,Right,
44,9,1,0.7510486999999557,['n'],0,left,['u'],1,0.10096700000030978,0.4,0,0,AccAcc,33,18,Woman,Right,
45,9,1,0.9157863000000361,['n'],1,right,['u'],1,0.09562969999933557,0.2,1,0,AccAcc,33,18,Woman,Right,
46,9,1,1.1174323000013828,['n'],0,left,['u'],1,0.11280970000007073,0.1,0,0,AccAcc,33,18,Woman,Right,
47,9,1,0.9016945999992458,['n'],0,left,['e'],0,0.1701760000014474,0.2,1,0,AccAcc,33,18,Woman,Right,
48,9,1,1.3849274999993213,['n'],1,right,['u'],1,0.5106543999991118,0.2,1,0,AccAcc,33,18,Woman,Right,
49,9,1,1.115915500000483,['n'],1,right,['u'],1,0.752833800001099,0.4,1,0,AccAcc,33,18,Woman,Right,
50,9,1,0.799614699999438,['n'],0,left,['u'],1,0.18120040000030713,0.2,0,0,AccAcc,33,18,Woman,Right,
51,9,1,0.7825910000010481,['n'],1,right,['u'],1,0.16130670000165992,0.1,1,0,AccAcc,33,18,Woman,Right,
52,9,1,0.7004185999994661,['n'],0,left,['u'],1,0.16035620000002382,0.2,0,0,AccAcc,33,18,Woman,Right,
53,9,1,1.0514137999998638,['n'],0,left,['u'],1,0.14642210000056366,0.4,0,0,AccAcc,33,18,Woman,Right,
54,9,1,0.9845423000006122,['n'],1,right,['u'],1,0.9532419000006485,0.4,1,0,AccAcc,33,18,Woman,Right,
55,9,1,1.0674665000005916,['n'],1,right,['u'],1,0.32925170000089565,0.1,1,0,AccAcc,33,18,Woman,Right,
56,9,1,1.299979399998847,['n'],0,left,['e'],0,0.9705192000001261,0.1,1,0,AccAcc,33,18,Woman,Right,
57,9,1,1.45193609999842,['n'],0,left,['u'],1,1.4680389000004652,0.2,0,0,AccAcc,33,18,Woman,Right,
58,9,1,3.818146400000842,['c'],1,left,['e'],0,0.26709480000135954,0.1,0,0,AccAcc,33,18,Woman,Right,
59,9,1,0.6681418999996822,['n'],1,right,['e'],0,0.8562794999998005,0.4,0,0,AccAcc,33,18,Woman,Right,
0,10,1,2.13189439999951,['n'],1,right,['u'],1,0.8075341999992816,0.2,1,0,FastAcc,33,18,Woman,Right,
1,10,1,0.7343676000000414,['n'],1,right,['u'],1,0.36433450000004086,0.4,1,0,FastAcc,33,18,Woman,Right,
2,10,1,0.7158665999995719,['c'],1,left,['u'],1,0.37117699999907927,0.4,1,0,FastAcc,33,18,Woman,Right,
3,10,1,0.6015834999998333,['n'],1,right,['u'],1,0.3818039999987377,0.4,1,0,FastAcc,33,18,Woman,Right,
4,10,1,0.55109210000046,['c'],1,left,['u'],1,0.5385781000004499,0.4,1,0,FastAcc,33,18,Woman,Right,
5,10,1,1.0511282999996183,['c'],1,left,['e'],0,0.6375762000006944,0.1,0,0,FastAcc,33,18,Woman,Right,
6,10,1,0.534501399999499,['c'],1,left,['u'],1,0.3372075000006589,0.4,1,0,FastAcc,33,18,Woman,Right,
7,10,1,0.5838049000012688,['c'],1,left,['u'],1,1.3267684000002191,0.4,1,0,FastAcc,33,18,Woman,Right,
8,10,1,0.5672766999996384,['c'],1,left,['u'],1,1.2539649000009376,0.4,1,0,FastAcc,33,18,Woman,Right,
9,10,1,0.8844182999982877,['c'],0,right,['u'],1,0.6589445000008709,0.2,0,0,FastAcc,33,18,Woman,Right,
10,10,1,0.7011507999995956,['c'],1,left,['u'],1,0.5431525999993028,0.4,1,0,FastAcc,33,18,Woman,Right,
11,10,1,0.6836244000005536,['c'],0,right,['u'],1,0.625300600000628,0.1,0,0,FastAcc,33,18,Woman,Right,
12,10,1,0.9512087000002794,['c'],0,right,['u'],1,0.4365691999992123,0.2,0,0,FastAcc,33,18,Woman,Right,
13,10,1,0.6006073000007746,['c'],1,left,['u'],1,0.46131359999890265,0.2,1,0,FastAcc,33,18,Woman,Right,
14,10,1,1.1339748999998847,['c'],1,left,['u'],1,0.5281744000003528,0.4,1,0,FastAcc,33,18,Woman,Right,
15,10,1,0.7174892999992153,['c'],0,right,['u'],1,1.872492600001351,0.1,0,0,FastAcc,33,18,Woman,Right,
16,10,1,0.484587000000829,['c'],1,left,['u'],1,1.8610078000001522,0.4,1,0,FastAcc,33,18,Woman,Right,
17,10,1,1.168288400000165,['c'],0,right,['u'],1,0.7187873000002583,0.1,0,0,FastAcc,33,18,Woman,Right,
18,10,1,0.6681680000001506,['c'],1,left,['u'],1,0.6658239000007597,0.2,1,0,FastAcc,33,18,Woman,Right,
19,10,1,0.5670047999992676,['c'],0,right,['u'],1,0.3467443000008643,0.1,0,0,FastAcc,33,18,Woman,Right,
20,10,1,0.6675749999994878,['c'],0,right,['u'],1,0.3402710999998817,0.2,0,0,FastAcc,33,18,Woman,Right,
21,10,1,0.7006813000007241,['c'],0,right,['u'],1,0.49317320000045584,0.1,0,0,FastAcc,33,18,Woman,Right,
22,10,1,0.7848018999993656,['c'],1,left,['u'],1,0.36465379999935976,0.1,1,0,FastAcc,33,18,Woman,Right,
23,10,1,0.6014794000002439,['c'],0,right,['u'],1,1.8165812000006554,0.4,0,0,FastAcc,33,18,Woman,Right,
24,10,1,0.8341722000004665,['c'],1,left,['u'],1,1.4568553999997675,0.1,1,0,FastAcc,33,18,Woman,Right,
25,10,1,0.7676807999996527,['c'],1,left,['u'],1,1.1628276000010374,0.2,1,0,FastAcc,33,18,Woman,Right,
26,10,1,1.4160305000004882,['c'],0,right,['e'],0,0.5670444000006682,0.1,1,0,FastAcc,33,18,Woman,Right,
27,10,1,0.6190284000003885,['c'],1,left,['e'],0,0.47266920000038226,0.2,0,0,FastAcc,33,18,Woman,Right,
28,10,1,0.5177680000015243,['c'],0,right,['u'],1,0.3075826000003872,0.4,0,0,FastAcc,33,18,Woman,Right,
29,10,1,0.8348366999998689,['c'],1,left,['u'],1,0.4566204000002472,0.2,1,0,FastAcc,33,18,Woman,Right,
30,10,1,2.6336462999988726,['n'],1,right,['e'],0,0.5598528999998962,0.1,0,0,FastAcc,33,18,Woman,Right,
31,10,1,2.867683100001159,['n'],1,right,['e'],0,1.1136865999997099,0.1,0,0,FastAcc,33,18,Woman,Right,
32,10,1,0.7177932000013243,['c'],0,right,['e'],0,0.8985692999995081,0.4,1,0,FastAcc,33,18,Woman,Right,
33,10,1,1.452047799999491,['n'],1,right,['e'],0,0.5988846000000194,0.2,0,0,FastAcc,33,18,Woman,Right,
34,10,1,0.8677638000008301,['c'],1,left,['e'],0,0.5745559999995749,0.1,0,0,FastAcc,33,18,Woman,Right,
35,10,1,1.3668716000011045,['c'],0,right,['e'],0,0.8035890000010113,0.2,1,0,FastAcc,33,18,Woman,Right,
36,10,1,2.117856799999572,['n'],1,right,['e'],0,1.9535402999990765,0.4,0,0,FastAcc,33,18,Woman,Right,
37,10,1,0.7176588000002084,['c'],0,right,['e'],0,0.6653538999999,0.1,1,0,FastAcc,33,18,Woman,Right,
38,10,1,0.7182506000008289,['c'],1,left,['u'],1,0.964132699999027,0.2,1,0,FastAcc,33,18,Woman,Right,
39,10,1,0.6509533999997075,['c'],0,right,['u'],1,0.47000260000095295,0.1,0,0,FastAcc,33,18,Woman,Right,
40,10,1,0.9179636000008031,['c'],0,right,['u'],1,0.30472390000068117,0.1,0,0,FastAcc,33,18,Woman,Right,
41,10,1,1.8843849000004411,['c'],0,right,['e'],0,1.0036958000000595,0.4,1,0,FastAcc,33,18,Woman,Right,
42,10,1,1.2014567000005627,['c'],1,left,['u'],1,1.5260888000011619,0.1,1,0,FastAcc,33,18,Woman,Right,
43,10,1,0.868229199999405,['c'],1,left,['u'],1,1.0652821000003314,0.4,1,0,FastAcc,33,18,Woman,Right,
44,10,1,0.7681844999988243,['c'],0,right,['u'],1,1.1862439000015002,0.4,0,0,FastAcc,33,18,Woman,Right,
45,10,1,0.7503135000006296,['c'],1,left,['u'],1,0.7435287999996945,0.2,1,0,FastAcc,33,18,Woman,Right,
46,10,1,0.8014932999994926,['c'],0,right,['u'],1,0.8604076999999961,0.4,0,0,FastAcc,33,18,Woman,Right,
47,10,1,0.8181287000006705,['c'],1,left,['e'],0,0.30035529999986466,0.2,0,0,FastAcc,33,18,Woman,Right,
48,10,1,0.8181754999986879,['c'],0,right,['u'],1,0.6095710999998118,0.2,0,0,FastAcc,33,18,Woman,Right,
49,10,1,1.8337375999999495,['n'],1,right,['e'],0,1.8906251000007614,0.1,0,0,FastAcc,33,18,Woman,Right,
50,10,1,1.2674899000012374,['c'],1,left,['u'],1,1.6872192999999243,0.2,1,0,FastAcc,33,18,Woman,Right,
51,10,1,1.2505697999986296,['c'],0,right,['u'],1,1.157245200000034,0.4,0,0,FastAcc,33,18,Woman,Right,
52,10,1,0.5679104999999254,['c'],1,left,['u'],1,1.778106800000387,0.4,1,0,FastAcc,33,18,Woman,Right,
53,10,1,0.6680632999996305,['c'],1,left,['u'],1,1.2991011000012804,0.2,1,0,FastAcc,33,18,Woman,Right,
54,10,1,0.6844186000016634,['c'],1,left,['u'],1,0.7098429999987275,0.2,1,0,FastAcc,33,18,Woman,Right,
55,10,1,1.0990808000005927,['c'],1,left,['u'],1,0.913219800000661,0.2,1,0,FastAcc,33,18,Woman,Right,
56,10,1,0.767235499999515,['c'],1,left,['e'],0,0.9914131999994424,0.1,0,0,FastAcc,33,18,Woman,Right,
57,10,1,1.5844906000002084,['n'],1,right,['e'],0,0.6991861999995308,0.1,0,0,FastAcc,33,18,Woman,Right,
58,10,1,4.050289999999222,['n'],0,left,['e'],0,1.2804863000001205,0.1,1,0,FastAcc,33,18,Woman,Right,
59,10,1,1.1511671999996906,['c'],1,left,['e'],0,0.7049186999993253,0.2,0,0,FastAcc,33,18,Woman,Right,
0,11,1,1.7505576000003202,['c'],1,left,['u'],1,0.5904221000000689,0.4,1,0,FastFast,33,18,Woman,Right,
1,11,1,0.6677286000012828,['n'],1,right,['u'],1,0.28659850000076403,0.2,1,0,FastFast,33,18,Woman,Right,
2,11,1,0.7012445999989723,['n'],1,right,['u'],1,0.2660178000005544,0.2,1,0,FastFast,33,18,Woman,Right,
3,11,1,0.5507430999987264,['n'],1,right,['u'],1,0.3307902999986254,0.2,1,0,FastFast,33,18,Woman,Right,
4,11,1,0.6009733000009874,['n'],1,right,['u'],1,0.4398934000000736,0.4,1,0,FastFast,33,18,Woman,Right,
5,11,1,0.8508266999997431,['n'],0,left,['u'],1,0.4235911000014312,0.1,0,0,FastFast,33,18,Woman,Right,
6,11,1,0.5668931999989582,['n'],1,right,['u'],1,0.2738267000004271,0.4,1,0,FastFast,33,18,Woman,Right,
7,11,1,0.6505240999995294,['n'],1,right,['u'],1,0.25516520000019227,0.4,1,0,FastFast,33,18,Woman,Right,
8,11,1,0.7008851999999024,['n'],0,left,['u'],1,0.22038190000057511,0.2,0,0,FastFast,33,18,Woman,Right,
9,11,1,0.5330532999996649,['n'],0,left,['u'],1,0.1611849999990227,0.4,0,0,FastFast,33,18,Woman,Right,
10,11,1,0.41782659999989846,['n'],0,left,['u'],1,0.1550143999993452,0.1,0,0,FastFast,33,18,Woman,Right,
11,11,1,0.5023065000004863,['n'],1,right,['u'],1,0.11563749999913853,0.4,1,0,FastFast,33,18,Woman,Right,
12,11,1,0.767351200000121,['n'],1,right,['u'],1,0.16267119999974966,0.1,1,0,FastFast,33,18,Woman,Right,
13,11,1,0.6671175999999832,['n'],0,left,['u'],1,0.09962620000078459,0.1,0,0,FastFast,33,18,Woman,Right,
14,11,1,0.6014053999988391,['n'],1,right,['u'],1,0.10580429999936314,0.2,1,0,FastFast,33,18,Woman,Right,
15,11,1,1.0509585999989213,['n'],0,left,['u'],1,0.09395670000048995,0.4,0,0,FastFast,33,18,Woman,Right,
16,11,1,0.767855199999758,['n'],1,right,['u'],1,0.11050459999933082,0.1,1,0,FastFast,33,18,Woman,Right,
17,11,1,0.901172800000495,['n'],0,left,['u'],1,0.08854459999929531,0.1,0,0,FastFast,33,18,Woman,Right,
18,11,1,0.6677450999995926,['n'],0,left,['u'],1,0.12529040000117675,0.2,0,0,FastFast,33,18,Woman,Right,
19,11,1,0.7344570000004751,['n'],0,left,['u'],1,0.12521910000032221,0.2,0,0,FastFast,33,18,Woman,Right,
20,11,1,0.5345942000003561,['n'],1,right,['u'],1,0.10106699999960256,0.2,1,0,FastFast,33,18,Woman,Right,
21,11,1,0.6844623000015417,['n'],1,right,['u'],1,0.10430750000159605,0.2,1,0,FastFast,33,18,Woman,Right,
22,11,1,0.6344674000010855,['n'],0,left,['u'],1,0.125022700000045,0.4,0,0,FastFast,33,18,Woman,Right,
23,11,1,0.5345550000001822,['n'],0,left,['u'],1,0.14916719999928318,0.1,0,0,FastFast,33,18,Woman,Right,
24,11,1,0.43395590000000084,['n'],1,right,['u'],1,0.16012669999872742,0.4,1,0,FastFast,33,18,Woman,Right,
25,11,1,1.0003939999987779,['n'],0,left,['u'],1,0.10035819999939122,0.1,0,0,FastFast,33,18,Woman,Right,
26,11,1,0.834492500000124,['n'],0,left,['u'],1,0.1772553999999218,0.2,0,0,FastFast,33,18,Woman,Right,
27,11,1,1.8676191000013205,['n'],1,right,['u'],1,0.38625000000138243,0.1,1,0,FastFast,33,18,Woman,Right,
28,11,1,3.3339505000003555,['n'],0,left,['e'],0,1.040191899999627,0.1,1,0,FastFast,33,18,Woman,Right,
29,11,1,1.8508246000001236,['n'],0,left,['e'],0,0.719431400000758,0.2,1,0,FastFast,33,18,Woman,Right,
30,11,1,1.934624099998473,['n'],0,left,['e'],0,1.5597989999987476,0.4,1,0,FastFast,33,18,Woman,Right,
31,11,1,1.184568999999101,['n'],1,right,['u'],1,0.8927923000010196,0.1,1,0,FastFast,33,18,Woman,Right,
32,11,1,0.6492660000003525,['n'],1,right,['u'],1,0.3866531000003306,0.1,1,0,FastFast,33,18,Woman,Right,
33,11,1,0.6688422999995964,['n'],0,left,['u'],1,0.26635350000105973,0.4,0,0,FastFast,33,18,Woman,Right,
34,11,1,1.5843156000009913,['n'],0,left,['u'],1,0.8346775999998499,0.2,0,0,FastFast,33,18,Woman,Right,
35,11,1,0.5837033999996493,['n'],0,left,['u'],1,0.6842231999999058,0.1,0,0,FastFast,33,18,Woman,Right,
36,11,1,0.6846156000010524,['n'],1,right,['u'],1,0.199795799999265,0.2,1,0,FastFast,33,18,Woman,Right,
37,11,1,0.8831203999998252,['n'],0,left,['u'],1,0.14338350000070932,0.4,0,0,FastFast,33,18,Woman,Right,
38,11,1,0.6840004999994562,['n'],1,right,['u'],1,0.11256169999978738,0.2,1,0,FastFast,33,18,Woman,Right,
39,11,1,0.7331668000006175,['n'],1,right,['u'],1,0.2097883999995247,0.2,1,0,FastFast,33,18,Woman,Right,
40,11,1,1.4510640999997122,['n'],1,right,['u'],1,0.12875379999968573,0.1,1,0,FastFast,33,18,Woman,Right,
41,11,1,0.6680978000003961,['n'],0,left,['u'],1,0.14693630000147095,0.1,0,0,FastFast,33,18,Woman,Right,
42,11,1,3.31762770000023,['c'],0,right,['e'],0,0.5709686999998667,0.1,1,0,FastFast,33,18,Woman,Right,
43,11,1,0.9001252999987628,['c'],1,left,['u'],1,0.6751417000014044,0.4,1,0,FastFast,33,18,Woman,Right,
44,11,1,0.7514121000003797,['c'],1,left,['u'],1,1.2442664000009245,0.4,1,0,FastFast,33,18,Woman,Right,
45,11,1,3.6329861000012897,['c'],0,right,['e'],0,1.8363208999999188,0.2,1,0,FastFast,33,18,Woman,Right,
46,11,1,0.9672905000006722,['c'],1,left,['u'],1,1.1186247000005096,0.4,1,0,FastFast,33,18,Woman,Right,
47,11,1,1.3340774000007514,['c'],1,left,['e'],0,1.0711864000004425,0.1,0,0,FastFast,33,18,Woman,Right,
48,11,1,0.701170500000444,['c'],1,left,['u'],1,0.8428167000001849,0.4,1,0,FastFast,33,18,Woman,Right,
49,11,1,0.9190878000008524,['c'],0,right,['u'],1,0.2631240999999136,0.1,0,0,FastFast,33,18,Woman,Right,
50,11,1,1.0344268000008014,['c'],0,right,['u'],1,0.10123430000021472,0.1,0,0,FastFast,33,18,Woman,Right,
51,11,1,0.6678033000007417,['c'],0,right,['u'],1,0.12083849999908125,0.2,0,0,FastFast,33,18,Woman,Right,
52,11,1,0.834544299999834,['c'],0,right,['u'],1,0.14915689999907045,0.1,0,0,FastFast,33,18,Woman,Right,
53,11,1,1.0340439999999944,['c'],0,right,['u'],1,0.1682356000001164,0.4,0,0,FastFast,33,18,Woman,Right,
54,11,1,0.7521188000009715,['c'],1,left,['u'],1,0.2935790999999881,0.4,1,0,FastFast,33,18,Woman,Right,
55,11,1,0.7016488999997819,['c'],0,right,['u'],1,0.1606830999990052,0.2,0,0,FastFast,33,18,Woman,Right,
56,11,1,0.6995944000009331,['c'],1,left,['u'],1,0.19445290000112436,0.2,1,0,FastFast,33,18,Woman,Right,
57,11,1,0.6344525999993493,['c'],0,right,['u'],1,0.14643170000090322,0.2,0,0,FastFast,33,18,Woman,Right,
58,11,1,0.6667281999998522,['c'],1,left,['u'],1,0.14877370000067458,0.4,1,0,FastFast,33,18,Woman,Right,
59,11,1,0.551227400001153,['c'],0,right,['u'],1,0.1704204000016034,0.4,0,0,FastFast,33,18,Woman,Right,
0,12,1,2.749884999999267,['c'],0,right,['u'],1,1.244630799999868,0.2,0,0,AccFast,33,18,Woman,Right,
1,12,1,0.7344198999999207,['c'],1,left,['u'],1,0.4638417999994999,0.4,1,0,AccFast,33,18,Woman,Right,
2,12,1,1.4334861999996065,['c'],1,left,['u'],1,0.230482299999494,0.1,1,0,AccFast,33,18,Woman,Right,
3,12,1,1.9839035000004515,['c'],0,right,['u'],1,0.6078636999991431,0.1,0,0,AccFast,33,18,Woman,Right,
4,12,1,0.817333699998926,['c'],1,left,['u'],1,0.24952610000036657,0.1,1,0,AccFast,33,18,Woman,Right,
5,12,1,0.5841345999997429,['c'],1,left,['u'],1,0.3463334999996732,0.4,1,0,AccFast,33,18,Woman,Right,
6,12,1,0.6498467000001256,['c'],1,left,['u'],1,0.24607099999957427,0.1,1,0,AccFast,33,18,Woman,Right,
7,12,1,2.3337098000010883,['c'],0,right,['u'],1,0.896634400000039,0.4,0,0,AccFast,33,18,Woman,Right,
8,12,1,0.7013635999992403,['c'],1,left,['u'],1,0.7229536000013468,0.4,1,0,AccFast,33,18,Woman,Right,
9,12,1,1.0509120000006078,['c'],0,right,['u'],1,1.0547328000011476,0.4,0,0,AccFast,33,18,Woman,Right,
10,12,1,1.5511418000005506,['c'],0,right,['u'],1,0.4088659999997617,0.2,0,0,AccFast,33,18,Woman,Right,
11,12,1,4.033864600000015,['c'],1,left,['u'],1,0.5861621000003652,0.1,1,0,AccFast,33,18,Woman,Right,
12,12,1,1.0833340999997745,['n'],1,right,['e'],0,1.001865700000053,0.4,0,0,AccFast,33,18,Woman,Right,
13,12,1,1.601210099999662,['n'],1,right,['e'],0,0.34018960000139487,0.2,0,0,AccFast,33,18,Woman,Right,
14,12,1,1.8675026000000798,['c'],1,left,['u'],1,0.7026021000001492,0.4,1,0,AccFast,33,18,Woman,Right,
15,12,1,2.9170233000004373,['c'],1,left,['e'],0,0.8172446000007767,0.1,0,0,AccFast,33,18,Woman,Right,
16,12,1,1.6850561999999627,['n'],1,right,['e'],0,0.38363009999920905,0.1,0,0,AccFast,33,18,Woman,Right,
17,12,1,1.084282699999676,['c'],1,left,['u'],1,2.086883800000578,0.4,1,0,AccFast,33,18,Woman,Right,
18,12,1,2.9006585000006453,['c'],1,left,['e'],0,0.41795579999961774,0.2,0,0,AccFast,33,18,Woman,Right,
19,12,1,1.4509841999988566,['c'],1,left,['e'],0,1.3536547000003338,0.4,0,0,AccFast,33,18,Woman,Right,
20,12,1,2.2511427000008553,['n'],0,left,['e'],0,0.8600605000010546,0.1,1,0,AccFast,33,18,Woman,Right,
21,12,1,2.3341197000008833,['n'],1,right,['u'],1,1.1513844000000972,0.2,1,0,AccFast,33,18,Woman,Right,
22,12,1,1.6004489999995712,['n'],1,right,['u'],1,0.7076899999992747,0.4,1,0,AccFast,33,18,Woman,Right,
23,12,1,2.984222499999305,['n'],0,left,['e'],0,0.5472752999994555,0.1,1,0,AccFast,33,18,Woman,Right,
24,12,1,1.9666697999982716,['n'],0,left,['u'],1,0.41667969999980414,0.4,0,0,AccFast,33,18,Woman,Right,
25,12,1,0.6680175000001327,['n'],1,right,['u'],1,0.9037351000006311,0.2,1,0,AccFast,33,18,Woman,Right,
26,12,1,1.9341473999993468,['n'],0,left,['e'],0,0.31353560000025027,0.4,1,0,AccFast,33,18,Woman,Right,
27,12,1,1.0844226999997773,['n'],1,right,['e'],0,1.01098169999932,0.1,0,0,AccFast,33,18,Woman,Right,
28,12,1,1.134256400000595,['n'],1,right,['u'],1,0.8160908999998355,0.2,1,0,AccFast,33,18,Woman,Right,
29,12,1,1.6010677000012947,['n'],1,right,['u'],1,0.48181859999931476,0.2,1,0,AccFast,33,18,Woman,Right,
30,12,1,1.1509719999994559,['n'],0,left,['u'],1,0.9947728999995888,0.2,0,0,AccFast,33,18,Woman,Right,
31,12,1,1.6673406999998406,['n'],1,right,['e'],0,0.6827994999985094,0.1,0,0,AccFast,33,18,Woman,Right,
32,12,1,1.8336870000002818,['n'],1,right,['e'],0,1.3683683999988716,0.2,0,0,AccFast,33,18,Woman,Right,
33,12,1,2.2178868999999395,['n'],1,right,['e'],0,1.0035979000003863,0.2,0,0,AccFast,33,18,Woman,Right,
34,12,1,2.0677173000003677,['n'],1,right,['e'],0,0.48328070000025036,0.4,0,0,AccFast,33,18,Woman,Right,
35,12,1,3.600044799999523,['n'],0,left,['e'],0,1.6027833999996801,0.1,1,0,AccFast,33,18,Woman,Right,
36,12,1,2.8339425000012852,['n'],1,right,['e'],0,0.7237939999995433,0.1,0,0,AccFast,33,18,Woman,Right,
37,12,1,2.80204429999867,['n'],1,right,['e'],0,0.6177951999998186,0.1,0,0,AccFast,33,18,Woman,Right,
38,12,1,3.0337034999993193,['n'],1,right,['e'],0,0.7462274999998044,0.2,0,0,AccFast,33,18,Woman,Right,
39,12,1,1.9010581000002276,['c'],1,left,['e'],0,0.6266663999995217,0.2,0,0,AccFast,33,18,Woman,Right,
40,12,1,2.001662299999225,['n'],1,right,['e'],0,0.5568224000016926,0.1,0,0,AccFast,33,18,Woman,Right,
41,12,1,0.9178689999989729,['n'],0,left,['e'],0,0.4202638000006118,0.4,1,0,AccFast,33,18,Woman,Right,
42,12,1,1.1010937999999442,['n'],1,right,['u'],1,1.1937479000007443,0.2,1,0,AccFast,33,18,Woman,Right,
43,12,1,2.517591600000742,['n'],0,left,['e'],0,2.360423500000252,0.4,1,0,AccFast,33,18,Woman,Right,
44,12,1,0.9008427999997366,['n'],1,right,['u'],1,0.2328438999993523,0.1,1,0,AccFast,33,18,Woman,Right,
45,12,1,1.6669662000003882,['n'],0,left,['e'],0,0.4793026000006648,0.2,1,0,AccFast,33,18,Woman,Right,
46,12,1,0.717803699999422,['n'],1,right,['e'],0,0.6574741000003996,0.1,0,0,AccFast,33,18,Woman,Right,
47,12,1,1.5002586000009615,['n'],0,left,['u'],1,1.1024462999994284,0.2,0,0,AccFast,33,18,Woman,Right,
48,12,1,3.9843607999991946,['n'],0,left,['e'],0,1.7971491000007518,0.2,1,0,AccFast,33,18,Woman,Right,
49,12,1,2.7991361999993387,['c'],0,right,['e'],0,0.6251558999992994,0.1,1,0,AccFast,33,18,Woman,Right,
50,12,1,1.9345276999993075,['n'],1,right,['e'],0,4.652088200000435,0.4,0,0,AccFast,33,18,Woman,Right,
51,12,1,1.3335982999997213,['c'],1,left,['e'],0,1.4716602999997122,0.1,0,0,AccFast,33,18,Woman,Right,
52,12,1,1.3503765999994357,['n'],0,left,['e'],0,0.3214127000010194,0.2,1,0,AccFast,33,18,Woman,Right,
53,12,1,0.6343641999992542,['c'],1,left,['u'],1,0.42991450000045006,0.4,1,0,AccFast,33,18,Woman,Right,
54,12,1,1.0011559999984456,['c'],1,left,['u'],1,0.710535100000925,0.4,1,0,AccFast,33,18,Woman,Right,
55,12,1,0.6510914000009507,['c'],1,left,['u'],1,0.6590272000012192,0.4,1,0,AccFast,33,18,Woman,Right,
56,12,1,0.6838573000004544,['c'],1,left,['u'],1,0.43189060000077006,0.4,1,0,AccFast,33,18,Woman,Right,
57,12,1,0.5014105999998719,['c'],0,right,['u'],1,0.4929244999984803,0.2,0,0,AccFast,33,18,Woman,Right,
58,12,1,1.5351546999991115,['c'],0,right,['u'],1,0.5745065000010072,0.2,0,0,AccFast,33,18,Woman,Right,
59,12,1,0.7010460000001331,['c'],0,right,['u'],1,0.4142363999999361,0.1,0,0,AccFast,33,18,Woman,Right,
0,13,1,1.7343674000003375,['c'],1,left,['u'],1,1.0385297000011633,0.4,1,0,AccAcc,33,18,Woman,Right,
1,13,1,0.9015311000002839,['c'],0,right,['u'],1,0.6592898999988392,0.4,0,0,AccAcc,33,18,Woman,Right,
2,13,1,0.6336910999998508,['c'],1,left,['u'],1,0.24288150000029418,0.1,1,0,AccAcc,33,18,Woman,Right,
3,13,1,0.7348497000002681,['c'],0,right,['u'],1,0.2859564999998838,0.4,0,0,AccAcc,33,18,Woman,Right,
4,13,1,0.46766999999999825,['c'],0,right,['u'],1,0.2111003999998502,0.2,0,0,AccAcc,33,18,Woman,Right,
5,13,1,0.6494576000004599,['c'],0,right,['u'],1,0.4997581000006903,0.4,0,0,AccAcc,33,18,Woman,Right,
6,13,1,1.3016053999999713,['c'],1,left,['u'],1,0.3648099000001821,0.1,1,0,AccAcc,33,18,Woman,Right,
7,13,1,1.4679477999998198,['c'],0,right,['u'],1,0.3736306999999215,0.1,0,0,AccAcc,33,18,Woman,Right,
8,13,1,1.1676859999988665,['c'],1,left,['u'],1,0.298661799999536,0.1,1,0,AccAcc,33,18,Woman,Right,
9,13,1,0.6511227000009967,['c'],0,right,['u'],1,0.26291049999963434,0.2,0,0,AccAcc,33,18,Woman,Right,
10,13,1,1.6013095999987854,['c'],1,left,['u'],1,1.1665590000011434,0.2,1,0,AccAcc,33,18,Woman,Right,
11,13,1,1.7677573000000848,['c'],0,right,['u'],1,1.0038574999998673,0.2,0,0,AccAcc,33,18,Woman,Right,
12,13,1,1.9509268000001612,['c'],1,left,['u'],1,0.8881916999998793,0.2,1,0,AccAcc,33,18,Woman,Right,
13,13,1,1.4171217000002798,['c'],0,right,['u'],1,0.27065330000004906,0.4,0,0,AccAcc,33,18,Woman,Right,
14,13,1,0.583813299999747,['c'],1,left,['u'],1,0.22275409999929252,0.4,1,0,AccAcc,33,18,Woman,Right,
15,13,1,1.2005024000009143,['c'],0,right,['u'],1,0.3605694999987463,0.4,0,0,AccAcc,33,18,Woman,Right,
16,13,1,0.9846903000016027,['c'],1,left,['u'],1,0.24548569999933534,0.2,1,0,AccAcc,33,18,Woman,Right,
17,13,1,3.9503839000008156,['n'],1,right,['e'],0,1.2641342000006262,0.2,0,0,AccAcc,33,18,Woman,Right,
18,13,1,3.3675722000007227,['n'],0,left,['e'],0,1.113249400001223,0.1,1,0,AccAcc,33,18,Woman,Right,
19,13,1,3.13307850000092,['n'],0,left,['e'],0,0.834413599999607,0.2,1,0,AccAcc,33,18,Woman,Right,
20,13,1,1.8010585000010906,['c'],1,left,['e'],0,0.7951128999993671,0.4,0,0,AccAcc,33,18,Woman,Right,
21,13,1,1.2174506000010297,['n'],1,right,['u'],1,0.3809534000010899,0.4,1,0,AccAcc,33,18,Woman,Right,
22,13,1,2.9512652000012167,['n'],0,left,['e'],0,1.1138929999997345,0.2,1,0,AccAcc,33,18,Woman,Right,
23,13,1,1.6346886999999697,['c'],0,right,['e'],0,0.8624916000007943,0.2,1,0,AccAcc,33,18,Woman,Right,
24,13,1,1.6841276999984984,['n'],1,right,['u'],1,0.8267861000003904,0.4,1,0,AccAcc,33,18,Woman,Right,
25,13,1,0.6183693000002677,['c'],1,left,['u'],1,0.5001896000012493,0.4,1,0,AccAcc,33,18,Woman,Right,
26,13,1,2.2507619999996678,['n'],0,left,['e'],0,0.9841596000005666,0.1,1,0,AccAcc,33,18,Woman,Right,
27,13,1,0.9177792999998928,['n'],1,right,['u'],1,0.17456920000040554,0.4,1,0,AccAcc,33,18,Woman,Right,
28,13,1,1.3675340999998298,['n'],1,right,['u'],1,0.419596099998671,0.4,1,0,AccAcc,33,18,Woman,Right,
29,13,1,1.267172899999423,['c'],1,left,['u'],1,0.46653449999939767,0.4,1,0,AccAcc,33,18,Woman,Right,
30,13,1,1.1840617999987444,['n'],1,right,['u'],1,0.3547887000004266,0.4,1,0,AccAcc,33,18,Woman,Right,
31,13,1,1.4164526000004116,['n'],0,left,['u'],1,0.4466002000008302,0.1,0,0,AccAcc,33,18,Woman,Right,
32,13,1,0.8829057000002649,['n'],1,right,['u'],1,0.33213570000043546,0.4,1,0,AccAcc,33,18,Woman,Right,
33,13,1,1.8511469999994006,['n'],1,right,['u'],1,0.5184475000005477,0.1,1,0,AccAcc,33,18,Woman,Right,
34,13,1,1.3514848000013444,['n'],1,right,['e'],0,0.12617719999980181,0.2,0,0,AccAcc,33,18,Woman,Right,
35,13,1,2.3169761000008293,['c'],0,right,['e'],0,0.2548062999994727,0.1,1,0,AccAcc,33,18,Woman,Right,
36,13,1,1.301238400001239,['c'],1,left,['e'],0,0.33965320000061183,0.1,0,0,AccAcc,33,18,Woman,Right,
37,13,1,1.384613599999284,['c'],1,left,['e'],0,0.7051979000007123,0.1,0,0,AccAcc,33,18,Woman,Right,
38,13,1,1.7346565000007104,['n'],0,left,['e'],0,0.6743468000004214,0.2,1,0,AccAcc,33,18,Woman,Right,
39,13,1,0.5666602000001149,['n'],1,right,['e'],0,0.3558370000009745,0.4,0,0,AccAcc,33,18,Woman,Right,
40,13,1,1.1845720000001165,['n'],1,right,['e'],0,0.3761285000000498,0.2,0,0,AccAcc,33,18,Woman,Right,
41,13,1,1.9659570999992866,['c'],1,left,['u'],1,0.766867699998329,0.4,1,0,AccAcc,33,18,Woman,Right,
42,13,1,0.8350110999999742,['c'],1,left,['u'],1,0.64011550000032,0.4,1,0,AccAcc,33,18,Woman,Right,
43,13,1,0.8350553000000218,['n'],1,right,['u'],1,0.56812440000067,0.2,1,0,AccAcc,33,18,Woman,Right,
44,13,1,1.817624600000272,['c'],1,left,['u'],1,0.730663899999854,0.1,1,0,AccAcc,33,18,Woman,Right,
45,13,1,1.1680659000012383,['n'],1,right,['u'],1,0.24080859999958193,0.2,1,0,AccAcc,33,18,Woman,Right,
46,13,1,0.7352033000006486,['n'],1,right,['u'],1,0.1724573000010423,0.1,1,0,AccAcc,33,18,Woman,Right,
47,13,1,0.9347383999993326,['c'],1,left,['u'],1,0.9944864999997662,0.2,1,0,AccAcc,33,18,Woman,Right,
48,13,1,1.6674597000001086,['n'],1,right,['u'],1,0.5393077000007906,0.1,1,0,AccAcc,33,18,Woman,Right,
49,13,1,1.8505054000015662,['n'],1,right,['u'],1,0.22197629999936908,0.1,1,0,AccAcc,33,18,Woman,Right,
50,13,1,1.0004687999989983,['c'],1,left,['e'],0,0.28756219999922905,0.2,0,0,AccAcc,33,18,Woman,Right,
51,13,1,1.1346098000012717,['n'],1,right,['u'],1,0.297300100000939,0.1,1,0,AccAcc,33,18,Woman,Right,
52,13,1,2.184652800000549,['n'],1,right,['e'],0,0.4402760000011767,0.2,0,0,AccAcc,33,18,Woman,Right,
53,13,1,1.7513772999991488,['n'],0,left,['e'],0,0.37149420000059763,0.1,1,0,AccAcc,33,18,Woman,Right,
54,13,1,1.467667500000971,['c'],1,left,['e'],0,0.22058800000013434,0.2,0,0,AccAcc,33,18,Woman,Right,
55,13,1,3.2011873000010382,['n'],0,left,['e'],0,1.478352799998902,0.1,1,0,AccAcc,33,18,Woman,Right,
56,13,1,2.1175655000006373,['n'],0,left,['e'],0,3.752986699999383,0.1,1,0,AccAcc,33,18,Woman,Right,
57,13,1,1.518346200000451,['n'],1,right,['u'],1,0.9209807999995974,0.1,1,0,AccAcc,33,18,Woman,Right,
58,13,1,0.7842400999998063,['c'],1,left,['u'],1,0.34330380000028526,0.2,1,0,AccAcc,33,18,Woman,Right,
59,13,1,0.8996349000008195,['c'],1,left,['u'],1,0.4570982000004733,0.4,1,0,AccAcc,33,18,Woman,Right,
0,14,1,1.3508310999986861,['c'],1,left,['u'],1,0.7593728000010742,0.2,1,0,FastAcc,33,18,Woman,Right,
1,14,1,0.8677526000010403,['c'],0,right,['u'],1,0.47297749999961525,0.4,0,0,FastAcc,33,18,Woman,Right,
2,14,1,0.6677310000013676,['c'],0,right,['u'],1,0.7340381000012712,0.4,0,0,FastAcc,33,18,Woman,Right,
3,14,1,0.5344119999990653,['c'],1,left,['u'],1,0.30137309999918216,0.2,1,0,FastAcc,33,18,Woman,Right,
4,14,1,0.7679727000013372,['c'],1,left,['u'],1,0.29315590000078373,0.1,1,0,FastAcc,33,18,Woman,Right,
5,14,1,0.6999599000009766,['c'],1,left,['u'],1,0.24004969999987225,0.2,1,0,FastAcc,33,18,Woman,Right,
6,14,1,0.8670151999995142,['c'],0,right,['u'],1,0.48711200000070676,0.1,0,0,FastAcc,33,18,Woman,Right,
7,14,1,0.6502515000011044,['c'],1,left,['u'],1,0.29939529999865044,0.2,1,0,FastAcc,33,18,Woman,Right,
8,14,1,0.7513405999998213,['c'],1,left,['u'],1,0.38758860000052664,0.2,1,0,FastAcc,33,18,Woman,Right,
9,14,1,0.6179143999997905,['c'],1,left,['u'],1,0.18979140000010375,0.2,1,0,FastAcc,33,18,Woman,Right,
10,14,1,0.6680943000010302,['c'],1,left,['u'],1,0.17394740000054298,0.4,1,0,FastAcc,33,18,Woman,Right,
11,14,1,1.1498530000008031,['c'],1,left,['u'],1,0.1723305999985314,0.2,1,0,FastAcc,33,18,Woman,Right,
12,14,1,2.2508842999995977,['c'],1,left,['u'],1,0.7495166999997309,0.1,1,0,FastAcc,33,18,Woman,Right,
13,14,1,0.9177022999992914,['c'],0,right,['u'],1,0.17304849999891303,0.1,0,0,FastAcc,33,18,Woman,Right,
14,14,1,0.8844368000009126,['c'],0,right,['u'],1,0.5653590999991138,0.1,0,0,FastAcc,33,18,Woman,Right,
15,14,1,1.4014069999993808,['c'],1,left,['u'],1,0.1049538000006578,0.4,1,0,FastAcc,33,18,Woman,Right,
16,14,1,0.8674425999997766,['c'],0,right,['u'],1,0.1325676000014937,0.4,0,0,FastAcc,33,18,Woman,Right,
17,14,1,0.4998967999999877,['c'],0,right,['u'],1,0.12725069999942207,0.1,0,0,FastAcc,33,18,Woman,Right,
18,14,1,0.6000813999999082,['c'],1,left,['u'],1,0.13129180000032648,0.1,1,0,FastAcc,33,18,Woman,Right,
19,14,1,0.8685206000009202,['c'],0,right,['u'],1,0.1731703999976162,0.2,0,0,FastAcc,33,18,Woman,Right,
20,14,1,1.850661399999808,['c'],1,left,['u'],1,0.11106409999774769,0.1,1,0,FastAcc,33,18,Woman,Right,
21,14,1,1.1334239999996498,['c'],0,right,['u'],1,0.27196920000278624,0.4,0,0,FastAcc,33,18,Woman,Right,
22,14,1,0.8510511999993469,['c'],1,left,['u'],1,0.14953610000156914,0.2,1,0,FastAcc,33,18,Woman,Right,
23,14,1,1.6839703000005102,['c'],1,left,['u'],1,0.2543365999990783,0.2,1,0,FastAcc,33,18,Woman,Right,
24,14,1,0.9826914000004763,['c'],0,right,['u'],1,0.16097850000005565,0.2,0,0,FastAcc,33,18,Woman,Right,
25,14,1,2.7509484000001976,['n'],1,right,['e'],0,1.4383721000012883,0.4,0,0,FastAcc,33,18,Woman,Right,
26,14,1,0.9008978999991086,['c'],0,right,['u'],1,0.7232273999979952,0.4,0,0,FastAcc,33,18,Woman,Right,
27,14,1,1.084376800001337,['c'],1,left,['e'],0,0.8454693999992742,0.2,0,0,FastAcc,33,18,Woman,Right,
28,14,1,2.532052999998996,['n'],0,left,['e'],0,2.169222099997569,0.1,1,0,FastAcc,33,18,Woman,Right,
29,14,1,2.7010852999992494,['n'],0,left,['e'],0,2.088667899999564,0.1,1,0,FastAcc,33,18,Woman,Right,
30,14,1,0.9678657000004023,['n'],1,right,['u'],1,0.40111130000150297,0.4,1,0,FastAcc,33,18,Woman,Right,
31,14,1,0.7343959999998333,['n'],1,right,['u'],1,0.21403769999960787,0.4,1,0,FastAcc,33,18,Woman,Right,
32,14,1,0.8338065999996616,['n'],0,left,['u'],1,0.3184958000019833,0.2,0,0,FastAcc,33,18,Woman,Right,
33,14,1,1.632945599998493,['n'],0,left,['u'],1,2.339003100001719,0.2,0,0,FastAcc,33,18,Woman,Right,
34,14,1,0.9848177999992913,['n'],1,right,['u'],1,0.4645553000009386,0.4,1,0,FastAcc,33,18,Woman,Right,
35,14,1,0.9343984000006458,['n'],1,right,['u'],1,0.17092110000157845,0.4,1,0,FastAcc,33,18,Woman,Right,
36,14,1,0.8992963999990025,['n'],1,right,['u'],1,0.16375450000123237,0.1,1,0,FastAcc,33,18,Woman,Right,
37,14,1,1.2000711999971827,['n'],0,left,['u'],1,0.25418160000117496,0.4,0,0,FastAcc,33,18,Woman,Right,
38,14,1,0.7517508000019006,['n'],1,right,['u'],1,0.39251320000039414,0.4,1,0,FastAcc,33,18,Woman,Right,
39,14,1,0.7184053999990283,['n'],0,left,['u'],1,0.25454659999741125,0.4,0,0,FastAcc,33,18,Woman,Right,
40,14,1,1.6179039000016928,['n'],0,left,['u'],1,0.2625241999994614,0.4,0,0,FastAcc,33,18,Woman,Right,
41,14,1,1.1011295000025711,['n'],0,left,['u'],1,0.16173199999684584,0.4,0,0,FastAcc,33,18,Woman,Right,
42,14,1,0.9667038000006869,['n'],1,right,['u'],1,0.2796224000012444,0.1,1,0,FastAcc,33,18,Woman,Right,
43,14,1,0.7672174999970593,['n'],1,right,['u'],1,0.14296660000036354,0.2,1,0,FastAcc,33,18,Woman,Right,
44,14,1,0.9350384999997914,['n'],1,right,['u'],1,0.1505102999981318,0.2,1,0,FastAcc,33,18,Woman,Right,
45,14,1,0.8508709999987332,['n'],1,right,['u'],1,0.17684139999983017,0.1,1,0,FastAcc,33,18,Woman,Right,
46,14,1,0.8843553999977303,['n'],0,left,['u'],1,0.1691425999997591,0.1,0,0,FastAcc,33,18,Woman,Right,
47,14,1,0.568080099998042,['n'],1,right,['u'],1,0.17409399999814923,0.2,1,0,FastAcc,33,18,Woman,Right,
48,14,1,0.6504635000019334,['n'],0,left,['u'],1,0.23965560000215191,0.1,0,0,FastAcc,33,18,Woman,Right,
49,14,1,2.3010009999998147,['n'],1,right,['u'],1,0.5569563999997627,0.1,1,0,FastAcc,33,18,Woman,Right,
50,14,1,1.601289899997937,['n'],1,right,['u'],1,0.24915170000167564,0.2,1,0,FastAcc,33,18,Woman,Right,
51,14,1,1.5676272999990033,['n'],0,left,['u'],1,0.7869084000012663,0.1,0,0,FastAcc,33,18,Woman,Right,
52,14,1,0.7011794000027294,['n'],1,right,['u'],1,0.16970070000024862,0.1,1,0,FastAcc,33,18,Woman,Right,
53,14,1,0.9672312000002421,['n'],0,left,['u'],1,0.23873029999958817,0.2,0,0,FastAcc,33,18,Woman,Right,
54,14,1,0.8511538999991899,['n'],1,right,['u'],1,0.3577076000001398,0.4,1,0,FastAcc,33,18,Woman,Right,
55,14,1,1.3509792000004381,['n'],1,right,['u'],1,0.4204659000024549,0.4,1,0,FastAcc,33,18,Woman,Right,
56,14,1,0.8177238000025682,['n'],0,left,['u'],1,1.8290214000007836,0.1,0,0,FastAcc,33,18,Woman,Right,
57,14,1,0.7670256000019435,['n'],1,right,['u'],1,0.5755151999983354,0.1,1,0,FastAcc,33,18,Woman,Right,
58,14,1,0.8838771000009729,['n'],0,left,['u'],1,0.23263049999877694,0.2,0,0,FastAcc,33,18,Woman,Right,
59,14,1,0.8170339999996941,['n'],1,right,['u'],1,0.20880010000109905,0.4,1,0,FastAcc,33,18,Woman,Right,
0,15,1,1.6838600000010047,['n'],1,right,['u'],1,0.23004539999965345,0.2,1,0,FastFast,33,18,Woman,Right,
1,15,1,0.5675905999996758,['n'],0,left,['u'],1,0.07224540000242996,0.4,0,0,FastFast,33,18,Woman,Right,
2,15,1,1.8337840999993205,['n'],0,left,['u'],1,0.20653789999778382,0.1,0,0,FastFast,33,18,Woman,Right,
3,15,1,1.434359899998526,['c'],1,left,['u'],1,0.8318368000000191,0.2,1,0,FastFast,33,18,Woman,Right,
4,15,1,1.501466600002459,['n'],1,right,['e'],0,0.5007009000000835,0.2,0,0,FastFast,33,18,Woman,Right,
5,15,1,1.634403799998836,['c'],1,left,['e'],0,0.38569940000161296,0.1,0,0,FastFast,33,18,Woman,Right,
6,15,1,1.534481799997593,['n'],1,right,['e'],0,0.47132970000166097,0.2,0,0,FastFast,33,18,Woman,Right,
7,15,1,0.8011187999982212,['n'],1,right,['u'],1,1.079055000001972,0.1,1,0,FastFast,33,18,Woman,Right,
8,15,1,0.7493166999993264,['c'],1,left,['u'],1,0.8968316999998933,0.4,1,0,FastFast,33,18,Woman,Right,
9,15,1,1.2514809999993304,['n'],1,right,['u'],1,0.18848520000028657,0.4,1,0,FastFast,33,18,Woman,Right,
10,15,1,1.8009153000020888,['c'],0,right,['e'],0,0.30373319999853265,0.1,1,0,FastFast,33,18,Woman,Right,
11,15,1,0.8511679000002914,['c'],0,right,['u'],1,0.38786849999814876,0.4,0,0,FastFast,33,18,Woman,Right,
12,15,1,1.151280999998562,['c'],1,left,['e'],0,0.8415730999986408,0.1,0,0,FastFast,33,18,Woman,Right,
13,15,1,1.5179145000001881,['c'],0,right,['u'],1,0.9571105000031821,0.4,0,0,FastFast,33,18,Woman,Right,
14,15,1,0.9178175999986706,['c'],1,left,['u'],1,0.7890556999991531,0.2,1,0,FastFast,33,18,Woman,Right,
15,15,1,4.583957599999849,['c'],1,left,['u'],1,1.9690144000014698,0.1,1,0,FastFast,33,18,Woman,Right,
16,15,1,1.8832784000005631,['n'],1,right,['e'],0,0.18590240000048652,0.1,0,0,FastFast,33,18,Woman,Right,
17,15,1,0.834360500000912,['c'],1,left,['e'],0,0.21122679999825777,0.2,0,0,FastFast,33,18,Woman,Right,
18,15,1,1.4836056000021927,['c'],0,right,['e'],0,0.6101445000022068,0.4,1,0,FastFast,33,18,Woman,Right,
19,15,1,2.4673976999984006,['c'],0,right,['e'],0,0.16993709999951534,0.1,1,0,FastFast,33,18,Woman,Right,
20,15,1,0.8180246999982046,['c'],1,left,['e'],0,0.1327713999999105,0.2,0,0,FastFast,33,18,Woman,Right,
21,15,1,1.0345104000007268,['c'],0,right,['u'],1,0.5045239999999467,0.4,0,0,FastFast,33,18,Woman,Right,
22,15,1,0.9179375999992772,['c'],1,left,['u'],1,0.6421055000027991,0.4,1,0,FastFast,33,18,Woman,Right,
23,15,1,0.9345456999981252,['c'],1,left,['u'],1,0.37373749999824213,0.1,1,0,FastFast,33,18,Woman,Right,
24,15,1,0.8007886000013968,['c'],0,right,['u'],1,0.37729509999917354,0.1,0,0,FastFast,33,18,Woman,Right,
25,15,1,0.5682352000003448,['c'],1,left,['u'],1,0.27820100000099046,0.4,1,0,FastFast,33,18,Woman,Right,
26,15,1,0.7510359000007156,['c'],1,left,['u'],1,0.3037025999983598,0.2,1,0,FastFast,33,18,Woman,Right,
27,15,1,1.2515251000004355,['c'],0,right,['u'],1,0.2763539999978093,0.2,0,0,FastFast,33,18,Woman,Right,
28,15,1,0.6840044999989914,['c'],0,right,['u'],1,0.12836329999845475,0.4,0,0,FastFast,33,18,Woman,Right,
29,15,1,1.8337097000003268,['c'],1,left,['u'],1,0.34004120000099647,0.2,1,0,FastFast,33,18,Woman,Right,
30,15,1,1.4161745999990671,['c'],0,right,['u'],1,0.33713779999743565,0.1,0,0,FastFast,33,18,Woman,Right,
31,15,1,0.6994051000001491,['c'],0,right,['u'],1,0.16996579999977257,0.2,0,0,FastFast,33,18,Woman,Right,
32,15,1,0.8508196000002499,['c'],0,right,['u'],1,0.1311420000020007,0.4,0,0,FastFast,33,18,Woman,Right,
33,15,1,0.6525136999989627,['c'],1,left,['u'],1,0.10180859999672975,0.4,1,0,FastFast,33,18,Woman,Right,
34,15,1,0.8181573000001663,['c'],0,right,['u'],1,0.1793881000012334,0.4,0,0,FastFast,33,18,Woman,Right,
35,15,1,0.6671226999969804,['c'],1,left,['u'],1,0.0836600999973598,0.4,1,0,FastFast,33,18,Woman,Right,
36,15,1,0.5676617000026454,['c'],0,right,['u'],1,0.17203820000213454,0.1,0,0,FastFast,33,18,Woman,Right,
37,15,1,0.5842292999986967,['c'],1,left,['u'],1,0.11202459999913117,0.2,1,0,FastFast,33,18,Woman,Right,
38,15,1,0.7673679999970773,['c'],0,right,['u'],1,0.11111710000113817,0.2,0,0,FastFast,33,18,Woman,Right,
39,15,1,0.6509855000003881,['c'],1,left,['u'],1,0.11537479999969946,0.2,1,0,FastFast,33,18,Woman,Right,
40,15,1,1.167686800003139,['c'],0,right,['u'],1,0.16233099999953993,0.1,0,0,FastFast,33,18,Woman,Right,
41,15,1,1.2509881000005407,['c'],1,left,['u'],1,0.2519155999980285,0.4,1,0,FastFast,33,18,Woman,Right,
42,15,1,2.516953400001512,['n'],1,right,['e'],0,0.9117839999998978,0.1,0,0,FastFast,33,18,Woman,Right,
43,15,1,1.684312699999282,['c'],0,right,['e'],0,0.18623419999858015,0.1,1,0,FastFast,33,18,Woman,Right,
44,15,1,1.651124100000743,['n'],0,left,['e'],0,0.2752208999991126,0.1,1,0,FastFast,33,18,Woman,Right,
45,15,1,0.9667688000008638,['c'],0,right,['e'],0,0.34026259999882313,0.4,1,0,FastFast,33,18,Woman,Right,
46,15,1,0.6172273000011046,['c'],1,left,['u'],1,0.4803793000028236,0.4,1,0,FastFast,33,18,Woman,Right,
47,15,1,1.2168811000010464,['c'],0,right,['u'],1,0.3826764999976149,0.1,0,0,FastFast,33,18,Woman,Right,
48,15,1,1.1677435999990848,['c'],1,left,['e'],0,0.11499869999897783,0.1,0,0,FastFast,33,18,Woman,Right,
49,15,1,1.0512030000027153,['c'],1,left,['u'],1,0.24646300000313204,0.2,1,0,FastFast,33,18,Woman,Right,
50,15,1,1.48425270000007,['n'],1,right,['e'],0,0.8835738000016136,0.2,0,0,FastFast,33,18,Woman,Right,
51,15,1,1.899394599997322,['n'],0,left,['e'],0,1.2882191999997303,0.2,1,0,FastFast,33,18,Woman,Right,
52,15,1,0.8853429000009783,['n'],1,right,['e'],0,0.24235010000120383,0.2,0,0,FastFast,33,18,Woman,Right,
53,15,1,0.7347646000016539,['c'],1,left,['e'],0,0.5420819999999367,0.4,0,0,FastFast,33,18,Woman,Right,
54,15,1,0.8005572999973083,['n'],0,left,['e'],0,0.603073599999334,0.1,1,0,FastFast,33,18,Woman,Right,
55,15,1,1.1346178999992844,['c'],0,right,['u'],1,0.15184850000150618,0.4,0,0,FastFast,33,18,Woman,Right,
56,15,1,2.017086700001528,['n'],0,left,['e'],0,0.9484837999989395,0.1,1,0,FastFast,33,18,Woman,Right,
57,15,1,0.7842772999974841,['c'],1,left,['u'],1,1.7927180000006047,0.4,1,0,FastFast,33,18,Woman,Right,
58,15,1,1.267657299998973,['c'],0,right,['u'],1,0.1692536000009568,0.2,0,0,FastFast,33,18,Woman,Right,
59,15,1,1.8178440000010596,['n'],0,left,['u'],1,1.164215000000695,0.2,0,0,FastFast,33,18,Woman,Right,
