withinblocktrial,block,block_repetition,rt,resp,cor,cresp,conf_press,cj,rtconf,coherence,metacognition,slow_trial,manipulation,sub,age,gender,handedness,
0,1,1,1.8506971999995585,['n'],0,left,none,-99,-99,0.5,-99,0,none,29,17,Woman,Right,
1,1,1,0.9830626999992091,['n'],1,right,none,-99,-99,0.5,-99,0,none,29,17,Woman,Right,
2,1,1,1.5168168999989575,['c'],1,left,none,-99,-99,0.5,-99,0,none,29,17,Woman,Right,
3,1,1,1.5336311999999452,['n'],0,left,none,-99,-99,0.5,-99,0,none,29,17,Woman,Right,
4,1,1,0.750025999999707,['n'],1,right,none,-99,-99,0.5,-99,0,none,29,17,Woman,Right,
5,1,1,0.7998423000008188,['c'],1,left,none,-99,-99,0.5,-99,0,none,29,17,Woman,Right,
6,1,1,1.6170862999988458,['c'],1,left,none,-99,-99,0.5,-99,0,none,29,17,Woman,Right,
7,1,1,0.8188000999998621,['n'],0,left,none,-99,-99,0.5,-99,0,none,29,17,Woman,Right,
8,1,1,1.4346117000004597,['n'],0,left,none,-99,-99,0.5,-99,0,none,29,17,Woman,Right,
9,1,1,1.2505664000000252,['n'],0,left,none,-99,-99,0.5,-99,0,none,29,17,Woman,Right,
10,1,1,0.7175650000008318,['n'],1,right,none,-99,-99,0.5,-99,0,none,29,17,Woman,Right,
11,1,1,2.8490194999994856,['n'],1,right,none,-99,-99,0.5,-99,0,none,29,17,Woman,Right,
12,1,1,1.3171340999997483,['n'],1,right,none,-99,-99,0.5,-99,0,none,29,17,Woman,Right,
13,1,1,0.8331961000003503,['c'],1,left,none,-99,-99,0.5,-99,0,none,29,17,Woman,Right,
14,1,1,0.9839566000009654,['c'],1,left,none,-99,-99,0.5,-99,0,none,29,17,Woman,Right,
15,1,1,1.2329417999990255,['c'],0,right,none,-99,-99,0.5,-99,0,none,29,17,Woman,Right,
16,1,1,1.066989900000408,['c'],1,left,none,-99,-99,0.5,-99,0,none,29,17,Woman,Right,
17,1,1,0.6012747999993735,['n'],1,right,none,-99,-99,0.5,-99,0,none,29,17,Woman,Right,
18,1,1,0.9829066000002058,['c'],0,right,none,-99,-99,0.5,-99,0,none,29,17,Woman,Right,
19,1,1,1.298774399998365,['c'],0,right,none,-99,-99,0.5,-99,0,none,29,17,Woman,Right,
20,1,1,1.8018091000012646,['c'],1,left,none,-99,-99,0.5,-99,0,none,29,17,Woman,Right,
21,1,1,0.6831954999997834,['n'],1,right,none,-99,-99,0.5,-99,0,none,29,17,Woman,Right,
22,1,1,0.6003615999998146,['n'],1,right,none,-99,-99,0.5,-99,0,none,29,17,Woman,Right,
23,1,1,0.9997921000012866,['c'],0,right,none,-99,-99,0.5,-99,0,none,29,17,Woman,Right,
0,1,2,1.0165563999998994,['c'],1,left,none,-99,-99,0.5,-99,0,none,29,17,Woman,Right,
1,1,2,1.033526700000948,['c'],1,left,none,-99,-99,0.5,-99,0,none,29,17,Woman,Right,
2,1,2,1.0011991999999736,['n'],1,right,none,-99,-99,0.5,-99,0,none,29,17,Woman,Right,
3,1,2,0.8001368000004732,['n'],1,right,none,-99,-99,0.5,-99,0,none,29,17,Woman,Right,
4,1,2,0.834232900000643,['n'],1,right,none,-99,-99,0.5,-99,0,none,29,17,Woman,Right,
5,1,2,1.7324408999993466,['n'],1,right,none,-99,-99,0.5,-99,0,none,29,17,Woman,Right,
6,1,2,0.7505860000001121,['n'],1,right,none,-99,-99,0.5,-99,0,none,29,17,Woman,Right,
7,1,2,0.6834337000000232,['c'],0,right,none,-99,-99,0.5,-99,0,none,29,17,Woman,Right,
8,1,2,0.5840191000006598,['c'],1,left,none,-99,-99,0.5,-99,0,none,29,17,Woman,Right,
9,1,2,0.617133500001728,['n'],1,right,none,-99,-99,0.5,-99,0,none,29,17,Woman,Right,
10,1,2,0.7672184999992169,['n'],0,left,none,-99,-99,0.5,-99,0,none,29,17,Woman,Right,
11,1,2,1.5851075999999011,['n'],1,right,none,-99,-99,0.5,-99,0,none,29,17,Woman,Right,
12,1,2,0.6336655000013707,['n'],1,right,none,-99,-99,0.5,-99,0,none,29,17,Woman,Right,
13,1,2,0.6336076999996294,['n'],1,right,none,-99,-99,0.5,-99,0,none,29,17,Woman,Right,
14,1,2,0.8501964999995835,['c'],0,right,none,-99,-99,0.5,-99,0,none,29,17,Woman,Right,
15,1,2,0.9006334999994579,['c'],1,left,none,-99,-99,0.5,-99,0,none,29,17,Woman,Right,
16,1,2,0.6010014000003139,['n'],0,left,none,-99,-99,0.5,-99,0,none,29,17,Woman,Right,
17,1,2,1.5500698999985616,['c'],1,left,none,-99,-99,0.5,-99,0,none,29,17,Woman,Right,
18,1,2,2.267234400000234,['n'],0,left,none,-99,-99,0.5,-99,0,none,29,17,Woman,Right,
19,1,2,0.9172971000007237,['n'],0,left,none,-99,-99,0.5,-99,0,none,29,17,Woman,Right,
20,1,2,0.7821899999999005,['c'],1,left,none,-99,-99,0.5,-99,0,none,29,17,Woman,Right,
21,1,2,0.6827332000011666,['n'],1,right,none,-99,-99,0.5,-99,0,none,29,17,Woman,Right,
22,1,2,0.5840686999999889,['c'],1,left,none,-99,-99,0.5,-99,0,none,29,17,Woman,Right,
23,1,2,0.532559900000706,['c'],1,left,none,-99,-99,0.5,-99,0,none,29,17,Woman,Right,
0,1,3,2.0010798999992403,['n'],0,left,none,-99,-99,0.5,-99,0,none,29,17,Woman,Right,
1,1,3,0.4673370000000432,['c'],1,left,none,-99,-99,0.5,-99,0,none,29,17,Woman,Right,
2,1,3,0.46802329999991343,['c'],1,left,none,-99,-99,0.5,-99,0,none,29,17,Woman,Right,
3,1,3,0.5670143000006647,['n'],1,right,none,-99,-99,0.5,-99,0,none,29,17,Woman,Right,
4,1,3,0.35076590000062424,['c'],1,left,none,-99,-99,0.5,-99,0,none,29,17,Woman,Right,
5,1,3,0.34943360000033863,['n'],1,right,none,-99,-99,0.5,-99,0,none,29,17,Woman,Right,
6,1,3,0.36826120000114315,['c'],1,left,none,-99,-99,0.5,-99,0,none,29,17,Woman,Right,
7,1,3,0.4322786000011547,['c'],1,left,none,-99,-99,0.5,-99,0,none,29,17,Woman,Right,
8,1,3,0.3328858999993827,['n'],1,right,none,-99,-99,0.5,-99,0,none,29,17,Woman,Right,
9,1,3,0.4834164999992936,['c'],1,left,none,-99,-99,0.5,-99,0,none,29,17,Woman,Right,
10,1,3,0.5190914000013436,['c'],1,left,none,-99,-99,0.5,-99,0,none,29,17,Woman,Right,
11,1,3,0.5010818000009749,['c'],1,left,none,-99,-99,0.5,-99,0,none,29,17,Woman,Right,
12,1,3,0.40066180000030727,['n'],0,left,none,-99,-99,0.5,-99,0,none,29,17,Woman,Right,
13,1,3,0.4998818999993091,['n'],1,right,none,-99,-99,0.5,-99,0,none,29,17,Woman,Right,
14,1,3,0.450312799999665,['n'],1,right,none,-99,-99,0.5,-99,0,none,29,17,Woman,Right,
15,1,3,0.5000976999999693,['n'],1,right,none,-99,-99,0.5,-99,0,none,29,17,Woman,Right,
16,1,3,0.5995456999989983,['c'],1,left,none,-99,-99,0.5,-99,0,none,29,17,Woman,Right,
17,1,3,0.48383149999972375,['c'],1,left,none,-99,-99,0.5,-99,0,none,29,17,Woman,Right,
18,1,3,0.45106619999933173,['n'],1,right,none,-99,-99,0.5,-99,0,none,29,17,Woman,Right,
19,1,3,0.39879579999978887,['n'],1,right,none,-99,-99,0.5,-99,0,none,29,17,Woman,Right,
20,1,3,0.3831995000000461,['n'],1,right,none,-99,-99,0.5,-99,0,none,29,17,Woman,Right,
21,1,3,0.5504136999988987,['n'],1,right,none,-99,-99,0.5,-99,0,none,29,17,Woman,Right,
22,1,3,0.3349782999994204,['n'],1,right,none,-99,-99,0.5,-99,0,none,29,17,Woman,Right,
23,1,3,0.48363659999995434,['n'],1,right,none,-99,-99,0.5,-99,0,none,29,17,Woman,Right,
0,2,1,0.7679365999993024,['n'],1,right,none,-99,-99,0.2,-99,0,none,29,17,Woman,Right,
1,2,1,0.4494139999987965,['n'],1,right,none,-99,-99,0.2,-99,0,none,29,17,Woman,Right,
2,2,1,0.38428080000085174,['c'],0,right,none,-99,-99,0.1,-99,0,none,29,17,Woman,Right,
3,2,1,0.4660766999986663,['c'],1,left,none,-99,-99,0.4,-99,0,none,29,17,Woman,Right,
4,2,1,0.46679070000027423,['n'],1,right,none,-99,-99,0.4,-99,0,none,29,17,Woman,Right,
5,2,1,0.6008464000005915,['c'],1,left,none,-99,-99,0.4,-99,0,none,29,17,Woman,Right,
6,2,1,0.4687570999994932,['n'],1,right,none,-99,-99,0.4,-99,0,none,29,17,Woman,Right,
7,2,1,0.29888410000057775,['c'],1,left,none,-99,-99,0.1,-99,0,none,29,17,Woman,Right,
8,2,1,0.36709610000070825,['n'],0,left,none,-99,-99,0.4,-99,0,none,29,17,Woman,Right,
9,2,1,0.40046020000045246,['n'],1,right,none,-99,-99,0.1,-99,0,none,29,17,Woman,Right,
10,2,1,0.4492503999990731,['n'],1,right,none,-99,-99,0.2,-99,0,none,29,17,Woman,Right,
11,2,1,0.7003729999996722,['n'],0,left,none,-99,-99,0.1,-99,0,none,29,17,Woman,Right,
12,2,1,0.4991398999991361,['c'],1,left,none,-99,-99,0.2,-99,0,none,29,17,Woman,Right,
13,2,1,0.43256320000000414,['c'],1,left,none,-99,-99,0.2,-99,0,none,29,17,Woman,Right,
14,2,1,0.43437919999996666,['n'],1,right,none,-99,-99,0.1,-99,0,none,29,17,Woman,Right,
15,2,1,0.41617589999987104,['c'],0,right,none,-99,-99,0.2,-99,0,none,29,17,Woman,Right,
16,2,1,0.49976539999988745,['n'],0,left,none,-99,-99,0.4,-99,0,none,29,17,Woman,Right,
17,2,1,0.567039499999737,['c'],1,left,none,-99,-99,0.4,-99,0,none,29,17,Woman,Right,
18,2,1,0.6330782000004547,['n'],1,right,none,-99,-99,0.1,-99,0,none,29,17,Woman,Right,
19,2,1,0.5494564999989962,['c'],0,right,none,-99,-99,0.1,-99,0,none,29,17,Woman,Right,
20,2,1,0.5508339999996679,['c'],1,left,none,-99,-99,0.4,-99,0,none,29,17,Woman,Right,
21,2,1,0.48352949999934935,['n'],0,left,none,-99,-99,0.2,-99,0,none,29,17,Woman,Right,
22,2,1,0.599561500001073,['c'],0,right,none,-99,-99,0.1,-99,0,none,29,17,Woman,Right,
23,2,1,1.5832737000000634,['c'],1,left,none,-99,-99,0.2,-99,0,none,29,17,Woman,Right,
0,3,1,1.0840537000003678,['n'],1,right,['u'],1,1.6051428000009764,0.2,1,0,none,29,17,Woman,Right,
1,3,1,5.000280700000076,x,-99,left,none,-99,-99,0.4,-99,1,none,29,17,Woman,Right,
2,3,1,1.0002630000017234,['n'],0,left,['e'],0,0.4996300999991945,0.1,1,0,none,29,17,Woman,Right,
3,3,1,1.3340011000000231,['n'],1,right,['e'],0,0.5274063999986538,0.1,0,0,none,29,17,Woman,Right,
4,3,1,1.2014189000001352,['c'],1,left,['u'],1,0.545081599999321,0.1,1,0,none,29,17,Woman,Right,
5,3,1,1.200247999999192,['n'],1,right,['u'],1,0.29113580000012007,0.4,1,0,none,29,17,Woman,Right,
6,3,1,0.8502630000002682,['n'],1,right,['u'],1,0.2840734000001248,0.4,1,0,none,29,17,Woman,Right,
7,3,1,0.5835958999996365,['n'],1,right,['u'],1,0.22246810000069672,0.2,1,0,none,29,17,Woman,Right,
8,3,1,1.4678328999998485,['c'],1,left,['e'],0,0.8014745999989827,0.1,0,0,none,29,17,Woman,Right,
9,3,1,1.4338614999996935,['c'],1,left,['e'],0,0.2237489999988611,0.4,0,0,none,29,17,Woman,Right,
10,3,1,0.5499897999998211,['n'],0,left,['u'],1,0.5032609000008961,0.1,0,0,none,29,17,Woman,Right,
11,3,1,1.351271400000769,['c'],1,left,['e'],0,0.30612680000012915,0.1,0,0,none,29,17,Woman,Right,
12,3,1,0.817197500000475,['n'],1,right,['u'],1,0.28453450000051816,0.2,1,0,none,29,17,Woman,Right,
13,3,1,0.9008649999996123,['n'],1,right,['u'],1,0.3546501000000717,0.1,1,0,none,29,17,Woman,Right,
14,3,1,3.301464100000885,['n'],0,left,['u'],1,0.2164427000006981,0.2,0,0,none,29,17,Woman,Right,
15,3,1,2.4345123000002786,['c'],1,left,['u'],1,1.219455399999788,0.4,1,0,none,29,17,Woman,Right,
16,3,1,1.1677792999998928,['n'],1,right,['u'],1,0.5225251000010758,0.2,1,0,none,29,17,Woman,Right,
17,3,1,0.8839292000011483,['n'],1,right,['u'],1,0.24942000000010012,0.4,1,0,none,29,17,Woman,Right,
18,3,1,2.4015059000012116,['c'],0,right,['e'],0,0.7258433000006335,0.2,1,0,none,29,17,Woman,Right,
19,3,1,2.2679482999992615,['n'],0,left,['u'],1,0.18079589999979362,0.1,0,0,none,29,17,Woman,Right,
20,3,1,1.6008132000006299,['n'],0,left,['e'],0,0.26014260000010836,0.2,1,0,none,29,17,Woman,Right,
21,3,1,1.2344329999996262,['n'],1,right,['u'],1,0.2704455000002781,0.2,1,0,none,29,17,Woman,Right,
22,3,1,1.3189751999998407,['c'],1,left,['u'],1,0.9649790000003122,0.4,1,0,none,29,17,Woman,Right,
23,3,1,1.2007753999987472,['n'],1,right,['u'],1,0.3247152999992977,0.4,1,0,none,29,17,Woman,Right,
0,4,1,5.016654600000038,x,-99,left,none,-99,-99,0.2,-99,1,AccAcc,29,17,Woman,Right,
1,4,1,1.7672970999992685,['c'],1,left,['u'],1,3.4625682000005327,0.2,1,0,AccAcc,29,17,Woman,Right,
2,4,1,1.8013397000013356,['n'],1,right,['u'],1,1.046580999998696,0.4,1,0,AccAcc,29,17,Woman,Right,
3,4,1,1.067993700000443,['c'],1,left,['u'],1,0.7402354000005289,0.2,1,0,AccAcc,29,17,Woman,Right,
4,4,1,1.7844500000010157,['c'],1,left,['e'],0,0.6260550999995758,0.1,0,0,AccAcc,29,17,Woman,Right,
5,4,1,1.017577099999471,['n'],1,right,['u'],1,0.915086799999699,0.2,1,0,AccAcc,29,17,Woman,Right,
6,4,1,1.1177333000014187,['c'],1,left,['u'],1,0.9320625000000291,0.2,1,0,AccAcc,29,17,Woman,Right,
7,4,1,2.4677114999994956,['n'],1,right,['e'],0,0.4944750999984535,0.1,0,0,AccAcc,29,17,Woman,Right,
8,4,1,1.8501328000002104,['n'],1,right,['e'],0,0.9957573999981832,0.2,0,0,AccAcc,29,17,Woman,Right,
9,4,1,1.2673775000002934,['c'],1,left,['u'],1,1.1314608000011503,0.2,1,0,AccAcc,29,17,Woman,Right,
10,4,1,2.98481129999891,['c'],1,left,['e'],0,0.9054218000001129,0.2,0,0,AccAcc,29,17,Woman,Right,
11,4,1,2.0339122000004863,['n'],1,right,['u'],1,1.2704806000001554,0.1,1,0,AccAcc,29,17,Woman,Right,
12,4,1,1.934350199999244,['n'],1,right,['e'],0,1.0488642000000254,0.2,0,0,AccAcc,29,17,Woman,Right,
13,4,1,1.5334543000008125,['n'],1,right,['u'],1,1.156087999999727,0.2,1,0,AccAcc,29,17,Woman,Right,
14,4,1,2.167946800000209,['c'],1,left,['u'],1,2.129883700001301,0.4,1,0,AccAcc,29,17,Woman,Right,
15,4,1,1.9833634000005986,['n'],1,right,['u'],1,2.079823600000964,0.4,1,0,AccAcc,29,17,Woman,Right,
16,4,1,2.9336662999994587,['n'],1,right,['e'],0,0.7778062999987014,0.4,0,0,AccAcc,29,17,Woman,Right,
17,4,1,3.8344828999997844,['c'],0,right,['e'],0,1.0763907000000472,0.1,1,0,AccAcc,29,17,Woman,Right,
18,4,1,1.30018039999959,['c'],1,left,['u'],1,0.984141400000226,0.4,1,0,AccAcc,29,17,Woman,Right,
19,4,1,1.500082399999883,['n'],1,right,['e'],0,1.0791518000005453,0.2,0,0,AccAcc,29,17,Woman,Right,
20,4,1,2.4003100000009,['c'],1,left,['e'],0,0.9747327000004589,0.2,0,0,AccAcc,29,17,Woman,Right,
21,4,1,5.016110300000946,x,-99,right,none,-99,-99,0.2,-99,1,AccAcc,29,17,Woman,Right,
22,4,1,1.384665200001109,['c'],1,left,['e'],0,0.5410739999988436,0.4,0,0,AccAcc,29,17,Woman,Right,
23,4,1,1.7334365000006073,['n'],1,right,['e'],0,0.8205483999990975,0.2,0,0,AccAcc,29,17,Woman,Right,
24,4,1,1.2170038000003842,['n'],1,right,['u'],1,0.7256310000011581,0.4,1,0,AccAcc,29,17,Woman,Right,
25,4,1,1.50023709999914,['n'],1,right,['u'],1,0.8793583999995462,0.4,1,0,AccAcc,29,17,Woman,Right,
26,4,1,1.633241999999882,['n'],1,right,['e'],0,1.117572499999369,0.1,0,0,AccAcc,29,17,Woman,Right,
27,4,1,1.4830426999997144,['c'],1,left,['e'],0,1.1281733000014356,0.1,0,0,AccAcc,29,17,Woman,Right,
28,4,1,1.417518399999608,['c'],0,right,['e'],0,0.9324618999999075,0.1,1,0,AccAcc,29,17,Woman,Right,
29,4,1,1.018331399998715,['c'],1,left,['u'],1,0.7620925000010175,0.4,1,0,AccAcc,29,17,Woman,Right,
30,4,1,2.168166100000235,['n'],1,right,['e'],0,0.8068822999994154,0.1,0,0,AccAcc,29,17,Woman,Right,
31,4,1,1.301538800000344,['c'],1,left,['e'],0,0.853685600000972,0.2,0,0,AccAcc,29,17,Woman,Right,
32,4,1,1.5513444999996864,['c'],1,left,['u'],1,0.9674961000000621,0.4,1,0,AccAcc,29,17,Woman,Right,
33,4,1,2.1003184000001056,['c'],1,left,['e'],0,1.3753100999983872,0.1,0,0,AccAcc,29,17,Woman,Right,
34,4,1,1.8669773999990866,['c'],1,left,['e'],0,1.1051243000001705,0.2,0,0,AccAcc,29,17,Woman,Right,
35,4,1,2.9000390999990486,['n'],0,left,['e'],0,0.7872631999998703,0.1,1,0,AccAcc,29,17,Woman,Right,
36,4,1,2.100521000000299,['n'],0,left,['e'],0,0.722730400000728,0.1,1,0,AccAcc,29,17,Woman,Right,
37,4,1,3.6674019000001863,['c'],1,left,['u'],1,0.9979868999998871,0.4,1,0,AccAcc,29,17,Woman,Right,
38,4,1,1.8832526999995025,['n'],1,right,['u'],1,1.6212156000001414,0.2,1,0,AccAcc,29,17,Woman,Right,
39,4,1,1.5679870999993,['n'],1,right,['u'],1,1.639564799999789,0.4,1,0,AccAcc,29,17,Woman,Right,
40,4,1,1.083897700000307,['n'],1,right,['u'],1,1.0375187000008737,0.2,1,0,AccAcc,29,17,Woman,Right,
41,4,1,1.6010270999995555,['c'],1,left,['e'],0,1.0944008000005851,0.2,0,0,AccAcc,29,17,Woman,Right,
42,4,1,1.3351961000007577,['n'],1,right,['u'],1,1.0965047999998205,0.4,1,0,AccAcc,29,17,Woman,Right,
43,4,1,1.5510225999987597,['c'],1,left,['e'],0,0.8326918999991904,0.4,0,0,AccAcc,29,17,Woman,Right,
44,4,1,3.434015900000304,['n'],1,right,['e'],0,0.3606238000011217,0.4,0,0,AccAcc,29,17,Woman,Right,
45,4,1,3.4013992000000144,['n'],1,right,['e'],0,0.8052081000005273,0.4,0,0,AccAcc,29,17,Woman,Right,
46,4,1,1.8169452999991336,['c'],0,right,['e'],0,0.7033205999996426,0.1,1,0,AccAcc,29,17,Woman,Right,
47,4,1,1.1177523999995174,['c'],1,left,['e'],0,0.9206185000002733,0.1,0,0,AccAcc,29,17,Woman,Right,
48,4,1,1.5159158000005846,['c'],1,left,['e'],0,1.7067664000005607,0.4,0,0,AccAcc,29,17,Woman,Right,
49,4,1,2.2507738000003883,['c'],1,left,['e'],0,1.26215830000001,0.1,0,0,AccAcc,29,17,Woman,Right,
50,4,1,2.316594600000826,['c'],1,left,['e'],0,0.465619799999331,0.1,0,0,AccAcc,29,17,Woman,Right,
51,4,1,3.3666377999998076,['n'],0,left,['e'],0,0.49135840000053577,0.1,1,0,AccAcc,29,17,Woman,Right,
52,4,1,2.5510185999992245,['n'],1,right,['e'],0,0.451568500000576,0.1,0,0,AccAcc,29,17,Woman,Right,
53,4,1,2.0338969999993424,['c'],1,left,['e'],0,0.8346598000007361,0.2,0,0,AccAcc,29,17,Woman,Right,
54,4,1,3.4673351000001276,['n'],1,right,['e'],0,0.7772611999989749,0.1,0,0,AccAcc,29,17,Woman,Right,
55,4,1,5.000316600000588,x,-99,right,none,-99,-99,0.4,-99,1,AccAcc,29,17,Woman,Right,
56,4,1,2.0003909999995813,['n'],1,right,['u'],1,1.3209531000011339,0.4,1,0,AccAcc,29,17,Woman,Right,
57,4,1,0.9168377999994846,['n'],1,right,['u'],1,0.9933529999998427,0.4,1,0,AccAcc,29,17,Woman,Right,
58,4,1,1.2837192000006326,['c'],1,left,['u'],1,1.5134571999988111,0.1,1,0,AccAcc,29,17,Woman,Right,
59,4,1,1.4333124999993743,['c'],1,left,['u'],1,1.0933052000000316,0.1,1,0,AccAcc,29,17,Woman,Right,
0,5,1,0.50104040000042,['c'],1,left,['u'],1,2.0379244000014296,0.4,1,0,FastAcc,29,17,Woman,Right,
1,5,1,0.7681167000009737,['c'],1,left,['u'],1,1.3689066999995703,0.2,1,0,FastAcc,29,17,Woman,Right,
2,5,1,0.8010116000004928,['c'],1,left,['e'],0,1.2518263000001753,0.2,0,0,FastAcc,29,17,Woman,Right,
3,5,1,0.551140799998393,['n'],0,left,['e'],0,0.6863047999995615,0.2,1,0,FastAcc,29,17,Woman,Right,
4,5,1,0.5517237000003661,['c'],1,left,['u'],1,0.4793941999996605,0.2,1,0,FastAcc,29,17,Woman,Right,
5,5,1,1.3509410999995453,['n'],1,right,['e'],0,1.0803058000001329,0.1,0,0,FastAcc,29,17,Woman,Right,
6,5,1,0.4498502999995253,['c'],1,left,['u'],1,1.0543125000003783,0.4,1,0,FastAcc,29,17,Woman,Right,
7,5,1,0.5500631000013527,['c'],1,left,['u'],1,1.0886384999994334,0.4,1,0,FastAcc,29,17,Woman,Right,
8,5,1,0.5670714000007138,['c'],1,left,['e'],0,0.8798148000005312,0.2,0,0,FastAcc,29,17,Woman,Right,
9,5,1,0.5680560000000696,['c'],1,left,['e'],0,1.0163059999995312,0.1,0,0,FastAcc,29,17,Woman,Right,
10,5,1,0.6840179000009812,['n'],1,right,['e'],0,1.030484000000797,0.1,0,0,FastAcc,29,17,Woman,Right,
11,5,1,0.6673061000001326,['c'],1,left,['e'],0,0.9170573000010336,0.2,0,0,FastAcc,29,17,Woman,Right,
12,5,1,1.1341122000012547,['c'],0,right,['e'],0,1.0291577999996662,0.4,1,0,FastAcc,29,17,Woman,Right,
13,5,1,0.584376799999518,['n'],1,right,['u'],1,0.91942089999975,0.4,1,0,FastAcc,29,17,Woman,Right,
14,5,1,0.46773340000072494,['c'],1,left,['u'],1,0.8346461000001,0.4,1,0,FastAcc,29,17,Woman,Right,
15,5,1,0.6504392000006192,['n'],1,right,['u'],1,0.7927333000006911,0.4,1,0,FastAcc,29,17,Woman,Right,
16,5,1,0.5847359999988839,['n'],0,left,['e'],0,1.0444028999991133,0.1,1,0,FastAcc,29,17,Woman,Right,
17,5,1,0.5842653999989125,['c'],1,left,['u'],1,1.1264061000001675,0.4,1,0,FastAcc,29,17,Woman,Right,
18,5,1,0.6515223999995214,['c'],1,left,['u'],1,1.3297700000002806,0.1,1,0,FastAcc,29,17,Woman,Right,
19,5,1,0.7838069000008545,['c'],0,right,['e'],0,0.9594587999999931,0.1,1,0,FastAcc,29,17,Woman,Right,
20,5,1,0.6681321999985812,['c'],1,left,['e'],0,0.9770666000003985,0.4,0,0,FastAcc,29,17,Woman,Right,
21,5,1,0.43474629999946046,['n'],1,right,['e'],0,0.7473653999986709,0.1,0,0,FastAcc,29,17,Woman,Right,
22,5,1,0.7674893999992491,['c'],0,right,['e'],0,1.2329377999994904,0.2,1,0,FastAcc,29,17,Woman,Right,
23,5,1,0.48414819999925385,['c'],1,left,['e'],0,0.8465771000010136,0.1,0,0,FastAcc,29,17,Woman,Right,
24,5,1,0.6010256999998091,['c'],1,left,['e'],0,0.9830271000009816,0.2,0,0,FastAcc,29,17,Woman,Right,
25,5,1,0.4672333999988041,['c'],1,left,['e'],0,1.3117803000004642,0.4,0,0,FastAcc,29,17,Woman,Right,
26,5,1,1.4672200000004523,['c'],0,right,['e'],0,0.7072943000002851,0.2,1,0,FastAcc,29,17,Woman,Right,
27,5,1,0.6340123000009044,['c'],1,left,['u'],1,1.3280981999996584,0.4,1,0,FastAcc,29,17,Woman,Right,
28,5,1,0.6512156000007963,['n'],1,right,['u'],1,0.5798202000005404,0.4,1,0,FastAcc,29,17,Woman,Right,
29,5,1,0.5844904999994469,['n'],1,right,['u'],1,1.3993485999999393,0.2,1,0,FastAcc,29,17,Woman,Right,
30,5,1,0.46688279999943916,['n'],1,right,['u'],1,1.3430865999998787,0.2,1,0,FastAcc,29,17,Woman,Right,
31,5,1,0.45105640000110725,['n'],1,right,['e'],0,0.6500713999994332,0.1,0,0,FastAcc,29,17,Woman,Right,
32,5,1,1.3005780999992567,['n'],1,right,['e'],0,0.622280800000226,0.1,0,0,FastAcc,29,17,Woman,Right,
33,5,1,0.5511048999997001,['c'],1,left,['e'],0,0.8179474000007758,0.4,0,0,FastAcc,29,17,Woman,Right,
34,5,1,0.8837315000000672,['c'],0,right,['e'],0,1.1361561000012443,0.2,1,0,FastAcc,29,17,Woman,Right,
35,5,1,0.5334614999992482,['n'],1,right,['u'],1,0.4484465999994427,0.4,1,0,FastAcc,29,17,Woman,Right,
36,5,1,0.5005203999990044,['c'],1,left,['u'],1,1.5967649999984133,0.4,1,0,FastAcc,29,17,Woman,Right,
37,5,1,0.700355099999797,['c'],1,left,['e'],0,0.7066780000004655,0.1,0,0,FastAcc,29,17,Woman,Right,
38,5,1,2.1849369000010483,['n'],1,right,['e'],0,1.4895707000014227,0.1,0,0,FastAcc,29,17,Woman,Right,
39,5,1,0.5671255999986897,['c'],1,left,['e'],0,1.0421151000009559,0.1,0,0,FastAcc,29,17,Woman,Right,
40,5,1,0.7169685999997455,['c'],1,left,['u'],1,0.35030639999968116,0.2,1,0,FastAcc,29,17,Woman,Right,
41,5,1,0.9007884999991802,['c'],0,right,['e'],0,1.1197814999995899,0.1,1,0,FastAcc,29,17,Woman,Right,
42,5,1,1.4665580000000773,['n'],0,left,['e'],0,1.2416681999984576,0.1,1,0,FastAcc,29,17,Woman,Right,
43,5,1,0.6668730000001233,['n'],1,right,['u'],1,0.97596109999904,0.2,1,0,FastAcc,29,17,Woman,Right,
44,5,1,0.9506756999999197,['c'],1,left,['e'],0,1.0137857000008808,0.2,0,0,FastAcc,29,17,Woman,Right,
45,5,1,0.7517428000010113,['c'],1,left,['u'],1,1.1055354999989504,0.4,1,0,FastAcc,29,17,Woman,Right,
46,5,1,2.0339101999998093,['n'],1,right,['e'],0,0.582531399999425,0.2,0,0,FastAcc,29,17,Woman,Right,
47,5,1,0.8994829999992362,['n'],1,right,['u'],1,0.41440220000004047,0.4,1,0,FastAcc,29,17,Woman,Right,
48,5,1,0.9847300000001269,['n'],1,right,['e'],0,0.6960591999995813,0.4,0,0,FastAcc,29,17,Woman,Right,
49,5,1,0.9169311000005109,['c'],1,left,['u'],1,0.36151910000080534,0.4,1,0,FastAcc,29,17,Woman,Right,
50,5,1,0.6846707000004244,['c'],0,right,['e'],0,0.5624184000007517,0.2,1,0,FastAcc,29,17,Woman,Right,
51,5,1,1.001408399999491,['n'],1,right,['e'],0,0.534537099998488,0.2,0,0,FastAcc,29,17,Woman,Right,
52,5,1,0.7510844999997062,['c'],0,right,['e'],0,0.9812151999994967,0.1,1,0,FastAcc,29,17,Woman,Right,
53,5,1,1.1176823999994667,['n'],1,right,['e'],0,0.6434336999991501,0.1,0,0,FastAcc,29,17,Woman,Right,
54,5,1,3.09909830000106,['c'],0,right,['e'],0,0.4817915000003268,0.1,1,0,FastAcc,29,17,Woman,Right,
55,5,1,0.9689335000002757,['c'],0,right,['e'],0,0.7928821999994398,0.2,1,0,FastAcc,29,17,Woman,Right,
56,5,1,1.1161159000002954,['c'],1,left,['e'],0,0.8642074999988836,0.1,0,0,FastAcc,29,17,Woman,Right,
57,5,1,0.6009131000009802,['n'],1,right,['e'],0,1.2869984000008117,0.4,0,0,FastAcc,29,17,Woman,Right,
58,5,1,1.901627200000803,['n'],1,right,['e'],0,0.474409000000378,0.1,0,0,FastAcc,29,17,Woman,Right,
59,5,1,0.9010629999993398,['c'],1,left,['u'],1,0.6939461000001756,0.2,1,0,FastAcc,29,17,Woman,Right,
0,6,1,0.6994062000012491,['c'],0,right,['e'],0,0.6633978999998362,0.1,1,0,FastFast,29,17,Woman,Right,
1,6,1,0.6492816000009043,['c'],1,left,['e'],0,0.2444073999995453,0.1,0,0,FastFast,29,17,Woman,Right,
2,6,1,0.6501939999998285,['n'],1,right,['e'],0,0.30656119999912335,0.1,0,0,FastFast,29,17,Woman,Right,
3,6,1,0.7176665999995748,['c'],0,right,['e'],0,0.3160631000009744,0.4,1,0,FastFast,29,17,Woman,Right,
4,6,1,0.8994281000013871,['c'],1,left,['u'],1,0.2383162000005541,0.4,1,0,FastFast,29,17,Woman,Right,
5,6,1,0.63456799999949,['c'],1,left,['e'],0,0.34925509999993665,0.2,0,0,FastFast,29,17,Woman,Right,
6,6,1,1.7834678999988682,['n'],1,right,['u'],1,0.6188480999990134,0.1,1,0,FastFast,29,17,Woman,Right,
7,6,1,0.9171046999999817,['c'],1,left,['e'],0,0.335334999999759,0.1,0,0,FastFast,29,17,Woman,Right,
8,6,1,0.7164623999997275,['n'],1,right,['u'],1,0.295885300000009,0.4,1,0,FastFast,29,17,Woman,Right,
9,6,1,0.5506361000007018,['n'],1,right,['u'],1,0.3289686999996775,0.2,1,0,FastFast,29,17,Woman,Right,
10,6,1,0.8847284000003128,['n'],1,right,['u'],1,0.1541454000016529,0.4,1,0,FastFast,29,17,Woman,Right,
11,6,1,0.7345135000014125,['c'],1,left,['e'],0,0.10496719999900961,0.4,0,0,FastFast,29,17,Woman,Right,
12,6,1,0.833926799999972,['n'],1,right,['u'],1,0.21392419999938284,0.2,1,0,FastFast,29,17,Woman,Right,
13,6,1,0.6833145000000513,['c'],1,left,['u'],1,0.14874190000045928,0.2,1,0,FastFast,29,17,Woman,Right,
14,6,1,1.5656558999999106,['c'],1,left,['e'],0,0.7702931000003446,0.1,0,0,FastFast,29,17,Woman,Right,
15,6,1,0.700081399998453,['c'],1,left,['u'],1,0.18565789999956905,0.4,1,0,FastFast,29,17,Woman,Right,
16,6,1,0.7498510999994323,['n'],0,left,['u'],1,0.21485960000063642,0.2,0,0,FastFast,29,17,Woman,Right,
17,6,1,1.0338430000010703,['n'],1,right,['u'],1,0.21521109999957844,0.1,1,0,FastFast,29,17,Woman,Right,
18,6,1,1.4678244000006089,['n'],1,right,['e'],0,0.1815071999990323,0.1,0,0,FastFast,29,17,Woman,Right,
19,6,1,2.0328989999998157,['c'],0,right,['e'],0,0.38389359999928274,0.2,1,0,FastFast,29,17,Woman,Right,
20,6,1,1.3832687999984046,['c'],1,left,['e'],0,0.3315805000002001,0.2,0,0,FastFast,29,17,Woman,Right,
21,6,1,0.7846492999997281,['c'],0,right,['e'],0,0.1764441999985138,0.1,1,0,FastFast,29,17,Woman,Right,
22,6,1,1.15089160000025,['c'],1,left,['u'],1,0.5422370999986015,0.4,1,0,FastFast,29,17,Woman,Right,
23,6,1,1.1504805000004126,['c'],0,right,['e'],0,0.20586989999901562,0.1,1,0,FastFast,29,17,Woman,Right,
24,6,1,0.8839673999991646,['n'],1,right,['u'],1,0.34012319999965257,0.2,1,0,FastFast,29,17,Woman,Right,
25,6,1,0.66834899999958,['c'],1,left,['u'],1,0.25448320000032254,0.1,1,0,FastFast,29,17,Woman,Right,
26,6,1,0.6174160000009579,['n'],0,left,['e'],0,0.5585556999994878,0.2,1,0,FastFast,29,17,Woman,Right,
27,6,1,1.6841660000009142,['c'],1,left,['e'],0,0.5830989000005502,0.1,0,0,FastFast,29,17,Woman,Right,
28,6,1,1.400684900001579,['c'],1,left,['e'],0,0.6341763000000356,0.4,0,0,FastFast,29,17,Woman,Right,
29,6,1,0.7009925999991538,['n'],1,right,['u'],1,0.1989475999998831,0.1,1,0,FastFast,29,17,Woman,Right,
30,6,1,2.084207799998694,['c'],1,left,['e'],0,0.17390919999888865,0.2,0,0,FastFast,29,17,Woman,Right,
31,6,1,0.6672708000005514,['c'],1,left,['e'],0,0.11151939999945171,0.2,0,0,FastFast,29,17,Woman,Right,
32,6,1,0.8666396999997232,['n'],1,right,['u'],1,0.10727180000139924,0.2,1,0,FastFast,29,17,Woman,Right,
33,6,1,1.1840325000011944,['c'],1,left,['u'],1,0.15361829999892507,0.4,1,0,FastFast,29,17,Woman,Right,
34,6,1,1.451962499999354,['n'],0,left,['e'],0,0.20443840000007185,0.2,1,0,FastFast,29,17,Woman,Right,
35,6,1,1.9503590000003896,['n'],0,left,['e'],0,0.4241629999996803,0.2,1,0,FastFast,29,17,Woman,Right,
36,6,1,1.099471800000174,['c'],1,left,['e'],0,0.2862628000002587,0.2,0,0,FastFast,29,17,Woman,Right,
37,6,1,0.634629500000301,['n'],1,right,['u'],1,0.18723320000026433,0.4,1,0,FastFast,29,17,Woman,Right,
38,6,1,1.7010965999998007,['n'],1,right,['e'],0,0.2915080999991915,0.2,0,0,FastFast,29,17,Woman,Right,
39,6,1,0.650574699999197,['n'],1,right,['u'],1,0.11176460000024235,0.4,1,0,FastFast,29,17,Woman,Right,
40,6,1,0.7004095000011148,['n'],0,left,['e'],0,0.09786959999837563,0.4,1,0,FastFast,29,17,Woman,Right,
41,6,1,2.0513255999994726,['n'],1,right,['e'],0,0.3820955999999569,0.1,0,0,FastFast,29,17,Woman,Right,
42,6,1,0.8009896000003209,['n'],1,right,['u'],1,0.30496839999977965,0.1,1,0,FastFast,29,17,Woman,Right,
43,6,1,3.1178621999988536,['c'],1,left,['e'],0,0.42665479999959643,0.1,0,0,FastFast,29,17,Woman,Right,
44,6,1,0.6843537000004289,['c'],1,left,['u'],1,0.25699689999964903,0.4,1,0,FastFast,29,17,Woman,Right,
45,6,1,1.2675293000011152,['n'],1,right,['u'],1,0.3906456000004255,0.1,1,0,FastFast,29,17,Woman,Right,
46,6,1,1.233452500000567,['n'],1,right,['u'],1,0.29627569999865955,0.1,1,0,FastFast,29,17,Woman,Right,
47,6,1,0.551179800000682,['n'],1,right,['u'],1,0.32873579999977665,0.4,1,0,FastFast,29,17,Woman,Right,
48,6,1,0.5842852999994648,['c'],1,left,['u'],1,0.19817799999873387,0.4,1,0,FastFast,29,17,Woman,Right,
49,6,1,1.967086599999675,['c'],1,left,['e'],0,0.3381712999998854,0.2,0,0,FastFast,29,17,Woman,Right,
50,6,1,0.8163344999993569,['n'],1,right,['u'],1,0.16672819999985222,0.2,1,0,FastFast,29,17,Woman,Right,
51,6,1,0.6511341000004904,['c'],1,left,['u'],1,0.31151239999962854,0.4,1,0,FastFast,29,17,Woman,Right,
52,6,1,0.6012005000011413,['n'],0,left,['e'],0,0.853780999999799,0.1,1,0,FastFast,29,17,Woman,Right,
53,6,1,0.6511228999988816,['n'],1,right,['u'],1,0.30013250000047265,0.2,1,0,FastFast,29,17,Woman,Right,
54,6,1,1.4329483000001346,['c'],0,right,['e'],0,0.17028729999947245,0.2,1,0,FastFast,29,17,Woman,Right,
55,6,1,1.100656099999469,['c'],1,left,['u'],1,0.20111739999993006,0.4,1,0,FastFast,29,17,Woman,Right,
56,6,1,0.6841129999993427,['n'],1,right,['u'],1,0.1511411000010412,0.4,1,0,FastFast,29,17,Woman,Right,
57,6,1,1.033991000000242,['c'],1,left,['u'],1,0.9386470999997982,0.4,1,0,FastFast,29,17,Woman,Right,
58,6,1,0.6328014999999141,['n'],1,right,['u'],1,0.30299919999924896,0.1,1,0,FastFast,29,17,Woman,Right,
59,6,1,0.5994193999995332,['n'],1,right,['u'],1,0.1578525000004447,0.4,1,0,FastFast,29,17,Woman,Right,
0,7,1,0.7000330999999278,['c'],1,left,['u'],1,0.8903757000007317,0.4,1,0,AccFast,29,17,Woman,Right,
1,7,1,0.6341458000006241,['n'],1,right,['u'],1,1.1994507999988855,0.1,1,0,AccFast,29,17,Woman,Right,
2,7,1,1.5012647000003199,['c'],1,left,['e'],0,0.7577813000007154,0.1,0,0,AccFast,29,17,Woman,Right,
3,7,1,0.8175372000005154,['n'],1,right,['u'],1,0.5859304000005068,0.1,1,0,AccFast,29,17,Woman,Right,
4,7,1,1.1343577000006917,['c'],1,left,['u'],1,0.19867340000018885,0.4,1,0,AccFast,29,17,Woman,Right,
5,7,1,1.7822169000010035,['c'],1,left,['e'],0,0.15365149999888672,0.1,0,0,AccFast,29,17,Woman,Right,
6,7,1,2.0824867999999697,['c'],1,left,['e'],0,0.4191852000003564,0.1,0,0,AccFast,29,17,Woman,Right,
7,7,1,0.8327497999998741,['c'],1,left,['e'],0,0.11625180000010005,0.1,0,0,AccFast,29,17,Woman,Right,
8,7,1,0.7847913000005065,['n'],1,right,['e'],0,0.9775105999997322,0.1,0,0,AccFast,29,17,Woman,Right,
9,7,1,0.6832494999998744,['n'],1,right,['u'],1,0.6586016999990534,0.4,1,0,AccFast,29,17,Woman,Right,
10,7,1,0.7497766999986197,['n'],1,right,['u'],1,0.4610417999992933,0.1,1,0,AccFast,29,17,Woman,Right,
11,7,1,0.5827806999986933,['n'],1,right,['u'],1,0.7737741999990249,0.1,1,0,AccFast,29,17,Woman,Right,
12,7,1,0.5838770999998815,['n'],1,right,['u'],1,0.1774927000005846,0.2,1,0,AccFast,29,17,Woman,Right,
13,7,1,0.8996341999991273,['n'],1,right,['u'],1,0.5056786000004649,0.4,1,0,AccFast,29,17,Woman,Right,
14,7,1,0.6340287000002718,['c'],1,left,['u'],1,0.6534196000011434,0.4,1,0,AccFast,29,17,Woman,Right,
15,7,1,3.798830799998541,['c'],1,left,['e'],0,0.25525939999897673,0.2,0,0,AccFast,29,17,Woman,Right,
16,7,1,1.6163751000003685,['n'],1,right,['u'],1,0.342605600000752,0.2,1,0,AccFast,29,17,Woman,Right,
17,7,1,0.9659981999993761,['c'],1,left,['u'],1,0.2926436999987345,0.4,1,0,AccFast,29,17,Woman,Right,
18,7,1,0.9181623000004038,['n'],1,right,['u'],1,0.2796615999995993,0.1,1,0,AccFast,29,17,Woman,Right,
19,7,1,2.8328629000006913,['c'],1,left,['e'],0,0.10964299999977811,0.1,0,0,AccFast,29,17,Woman,Right,
20,7,1,1.0842513000006875,['n'],1,right,['u'],1,0.5919958000013139,0.1,1,0,AccFast,29,17,Woman,Right,
21,7,1,2.1837020000002667,['n'],0,left,['u'],1,0.2766907999994146,0.1,0,0,AccFast,29,17,Woman,Right,
22,7,1,1.1163780000006227,['n'],1,right,['u'],1,0.19152300000132527,0.4,1,0,AccFast,29,17,Woman,Right,
23,7,1,1.0831314999995811,['c'],1,left,['u'],1,0.2701885000005859,0.1,1,0,AccFast,29,17,Woman,Right,
24,7,1,3.349350200000117,['n'],1,right,['e'],0,0.17713480000020354,0.1,0,0,AccFast,29,17,Woman,Right,
25,7,1,2.2178334000000177,['c'],1,left,['e'],0,0.723351200000252,0.1,0,0,AccFast,29,17,Woman,Right,
26,7,1,0.6828439000000799,['c'],1,left,['u'],1,0.20647429999917222,0.4,1,0,AccFast,29,17,Woman,Right,
27,7,1,2.432827800001178,['n'],1,right,['e'],0,0.19958169999881648,0.2,0,0,AccFast,29,17,Woman,Right,
28,7,1,3.8493856999994023,['c'],1,left,['e'],0,0.9043183999983739,0.4,0,0,AccFast,29,17,Woman,Right,
29,7,1,1.7839825999999448,['c'],1,left,['u'],1,0.30220980000012787,0.1,1,0,AccFast,29,17,Woman,Right,
30,7,1,1.4009736999996676,['n'],1,right,['u'],1,0.028575599999385304,0.4,1,0,AccFast,29,17,Woman,Right,
31,7,1,1.3499360999994678,['c'],1,left,['e'],0,0.6959752000002482,0.1,0,0,AccFast,29,17,Woman,Right,
32,7,1,0.9510298000004695,['n'],1,right,['u'],1,0.4083630000004632,0.2,1,0,AccFast,29,17,Woman,Right,
33,7,1,2.367661999998745,['c'],0,right,['e'],0,0.6532163000010769,0.2,1,0,AccFast,29,17,Woman,Right,
34,7,1,1.1174324000003253,['c'],1,left,['u'],1,0.199749299999894,0.4,1,0,AccFast,29,17,Woman,Right,
35,7,1,1.21721510000134,['n'],1,right,['u'],1,0.2414615000016056,0.2,1,0,AccFast,29,17,Woman,Right,
36,7,1,0.7514916000000085,['c'],1,left,['u'],1,0.2684413000006316,0.4,1,0,AccFast,29,17,Woman,Right,
37,7,1,0.6512946000002557,['n'],1,right,['u'],1,0.29791190000105416,0.4,1,0,AccFast,29,17,Woman,Right,
38,7,1,1.4676301999988937,['n'],1,right,['u'],1,0.1975380000003497,0.2,1,0,AccFast,29,17,Woman,Right,
39,7,1,1.5846203999990394,['c'],1,left,['e'],0,0.6405897000004188,0.1,0,0,AccFast,29,17,Woman,Right,
40,7,1,1.5678179999995336,['n'],0,left,['e'],0,0.4431896999994933,0.2,1,0,AccFast,29,17,Woman,Right,
41,7,1,1.0010177999993175,['n'],1,right,['u'],1,0.419918300000063,0.2,1,0,AccFast,29,17,Woman,Right,
42,7,1,2.1996297000005143,['n'],1,right,['u'],1,0.33412309999948775,0.2,1,0,AccFast,29,17,Woman,Right,
43,7,1,1.4344577000010759,['n'],1,right,['u'],1,0.42627579999862064,0.2,1,0,AccFast,29,17,Woman,Right,
44,7,1,1.1329384000000573,['c'],1,left,['e'],0,0.6388406000005489,0.4,0,0,AccFast,29,17,Woman,Right,
45,7,1,0.9510540999999648,['n'],1,right,['u'],1,0.44862169999942125,0.4,1,0,AccFast,29,17,Woman,Right,
46,7,1,2.5171720999987883,['n'],1,right,['e'],0,0.39645980000022973,0.2,0,0,AccFast,29,17,Woman,Right,
47,7,1,2.1330725999996503,['c'],1,left,['e'],0,0.345926199999667,0.2,0,0,AccFast,29,17,Woman,Right,
48,7,1,4.20086850000007,['n'],0,left,['e'],0,0.3108177000012802,0.4,1,0,AccFast,29,17,Woman,Right,
49,7,1,0.9508793000004516,['n'],1,right,['e'],0,0.4223419999998441,0.2,0,0,AccFast,29,17,Woman,Right,
50,7,1,1.4507436000003509,['c'],1,left,['e'],0,0.30199589999938325,0.4,0,0,AccFast,29,17,Woman,Right,
51,7,1,1.4167084999990038,['c'],1,left,['u'],1,0.347562699998889,0.4,1,0,AccFast,29,17,Woman,Right,
52,7,1,1.5011596999993344,['n'],0,left,['e'],0,0.13216660000034608,0.2,1,0,AccFast,29,17,Woman,Right,
53,7,1,1.2834593000006862,['c'],1,left,['e'],0,0.1575381999991805,0.2,0,0,AccFast,29,17,Woman,Right,
54,7,1,1.5669539000009536,['n'],1,right,['u'],1,0.17141720000108762,0.2,1,0,AccFast,29,17,Woman,Right,
55,7,1,3.7174657999985357,['c'],1,left,['u'],1,0.4826842000002216,0.4,1,0,AccFast,29,17,Woman,Right,
56,7,1,0.7506289000011748,['n'],1,right,['u'],1,0.30824349999966216,0.2,1,0,AccFast,29,17,Woman,Right,
57,7,1,1.084638399999676,['n'],1,right,['u'],1,0.2230878999998822,0.2,1,0,AccFast,29,17,Woman,Right,
58,7,1,1.083180599998741,['c'],1,left,['u'],1,0.9087767999990319,0.4,1,0,AccFast,29,17,Woman,Right,
59,7,1,1.56787230000009,['n'],1,right,['e'],0,0.22062050000022282,0.1,0,0,AccFast,29,17,Woman,Right,
0,8,1,2.6499394999991637,['c'],1,left,['e'],0,1.758790500000032,0.1,0,0,AccAcc,29,17,Woman,Right,
1,8,1,2.5164724000005663,['n'],0,left,['e'],0,1.286230899999282,0.2,1,0,AccAcc,29,17,Woman,Right,
2,8,1,1.7014232000001357,['n'],1,right,['u'],1,0.7372259000003396,0.2,1,0,AccAcc,29,17,Woman,Right,
3,8,1,1.7331500999989657,['c'],1,left,['e'],0,0.4173924000006082,0.2,0,0,AccAcc,29,17,Woman,Right,
4,8,1,2.401071000000229,['c'],1,left,['e'],0,0.05061810000006517,0.4,0,0,AccAcc,29,17,Woman,Right,
5,8,1,2.684247299999697,['n'],1,right,['e'],0,0.5035571999997046,0.2,0,0,AccAcc,29,17,Woman,Right,
6,8,1,1.4344116000011127,['n'],1,right,['e'],0,0.7966185000004771,0.2,0,0,AccAcc,29,17,Woman,Right,
7,8,1,1.384036699999342,['c'],1,left,['u'],1,1.1757803000000422,0.2,1,0,AccAcc,29,17,Woman,Right,
8,8,1,0.9341720000011264,['n'],1,right,['u'],1,0.8221610999989934,0.2,1,0,AccAcc,29,17,Woman,Right,
9,8,1,0.8016007999995054,['c'],1,left,['u'],1,0.5677986999999121,0.4,1,0,AccAcc,29,17,Woman,Right,
10,8,1,1.200921500001641,['n'],1,right,['e'],0,0.5792495000005147,0.1,0,0,AccAcc,29,17,Woman,Right,
11,8,1,0.8345967999994173,['c'],1,left,['e'],0,0.7651493999983359,0.1,0,0,AccAcc,29,17,Woman,Right,
12,8,1,2.4502988000003825,['c'],1,left,['u'],1,0.9429248000014923,0.4,1,0,AccAcc,29,17,Woman,Right,
13,8,1,1.2178122000004805,['n'],1,right,['u'],1,1.2433756999998877,0.1,1,0,AccAcc,29,17,Woman,Right,
14,8,1,4.084141299999828,['c'],1,left,['e'],0,0.6972521000006964,0.2,0,0,AccAcc,29,17,Woman,Right,
15,8,1,1.1330491000007896,['n'],1,right,['u'],1,1.058863600001132,0.4,1,0,AccAcc,29,17,Woman,Right,
16,8,1,1.733874300000025,['n'],1,right,['u'],1,1.2060103000003437,0.1,1,0,AccAcc,29,17,Woman,Right,
17,8,1,1.2669580999991013,['n'],1,right,['u'],1,1.0136779000004026,0.1,1,0,AccAcc,29,17,Woman,Right,
18,8,1,1.2158531999994011,['n'],0,left,['e'],0,0.9753519999994751,0.1,1,0,AccAcc,29,17,Woman,Right,
19,8,1,0.9838358000015432,['c'],1,left,['u'],1,1.1704458999993221,0.4,1,0,AccAcc,29,17,Woman,Right,
20,8,1,1.201395699999921,['n'],1,right,['u'],1,0.8223733000013453,0.4,1,0,AccAcc,29,17,Woman,Right,
21,8,1,0.8675208000004204,['n'],1,right,['u'],1,0.3412285000013071,0.2,1,0,AccAcc,29,17,Woman,Right,
22,8,1,1.7678680999997596,['c'],1,left,['e'],0,0.32384840000122495,0.1,0,0,AccAcc,29,17,Woman,Right,
23,8,1,2.0007033000001684,['c'],1,left,['e'],0,0.47323510000023816,0.4,0,0,AccAcc,29,17,Woman,Right,
24,8,1,2.066675899999609,['c'],1,left,['e'],0,0.3268735999990895,0.2,0,0,AccAcc,29,17,Woman,Right,
25,8,1,2.035453399999824,['n'],1,right,['u'],1,0.2028011999991577,0.2,1,0,AccAcc,29,17,Woman,Right,
26,8,1,1.9341400000012072,['n'],1,right,['e'],0,0.5679261000004772,0.1,0,0,AccAcc,29,17,Woman,Right,
27,8,1,1.3840235000006942,['c'],0,right,['e'],0,0.18865919999916514,0.1,1,0,AccAcc,29,17,Woman,Right,
28,8,1,0.968135600000096,['n'],1,right,['u'],1,1.1844165999991674,0.2,1,0,AccAcc,29,17,Woman,Right,
29,8,1,0.9006768999988708,['n'],1,right,['u'],1,0.5277957999987848,0.4,1,0,AccAcc,29,17,Woman,Right,
30,8,1,0.8501181999999972,['n'],1,right,['u'],1,1.3551001000014367,0.2,1,0,AccAcc,29,17,Woman,Right,
31,8,1,0.9676641999994899,['c'],1,left,['e'],0,0.705676499999754,0.1,0,0,AccAcc,29,17,Woman,Right,
32,8,1,1.5501213000006828,['n'],1,right,['e'],0,0.9057799000001978,0.2,0,0,AccAcc,29,17,Woman,Right,
33,8,1,2.1670252999992954,['c'],1,left,['e'],0,5.234147600000142,0.2,0,0,AccAcc,29,17,Woman,Right,
34,8,1,1.7832622999994783,['n'],1,right,['e'],0,0.763429200000246,0.4,0,0,AccAcc,29,17,Woman,Right,
35,8,1,5.016854299999977,x,-99,left,none,-99,-99,0.1,-99,1,AccAcc,29,17,Woman,Right,
36,8,1,0.8342379999994591,['c'],1,left,['u'],1,1.3675134999994043,0.4,1,0,AccAcc,29,17,Woman,Right,
37,8,1,1.0003344999986439,['n'],1,right,['e'],0,0.4593647999990935,0.1,0,0,AccAcc,29,17,Woman,Right,
38,8,1,1.6666712000005646,['c'],1,left,['e'],0,0.42576259999987087,0.1,0,0,AccAcc,29,17,Woman,Right,
39,8,1,1.8006492999993498,['n'],0,left,['e'],0,0.4029295000000275,0.1,1,0,AccAcc,29,17,Woman,Right,
40,8,1,0.8343449000003602,['n'],1,right,['u'],1,0.6277869999994437,0.4,1,0,AccAcc,29,17,Woman,Right,
41,8,1,0.6677761999999348,['n'],1,right,['u'],1,1.5227924000009807,0.4,1,0,AccAcc,29,17,Woman,Right,
42,8,1,0.8841860000011366,['n'],0,left,['u'],1,0.341115199998967,0.1,0,0,AccAcc,29,17,Woman,Right,
43,8,1,0.816740899999786,['c'],1,left,['u'],1,0.5699478000005911,0.4,1,0,AccAcc,29,17,Woman,Right,
44,8,1,0.6013810999993439,['c'],1,left,['u'],1,0.6530383000008442,0.1,1,0,AccAcc,29,17,Woman,Right,
45,8,1,0.8181457999999111,['n'],1,right,['u'],1,1.0605854999994335,0.4,1,0,AccAcc,29,17,Woman,Right,
46,8,1,1.5337226999999984,['c'],1,left,['e'],0,3.0243535000008706,0.2,0,0,AccAcc,29,17,Woman,Right,
47,8,1,0.9352934999988065,['n'],1,right,['u'],1,1.285026800000196,0.4,1,0,AccAcc,29,17,Woman,Right,
48,8,1,1.0175137000005634,['n'],1,right,['u'],1,0.9068532000001142,0.2,1,0,AccAcc,29,17,Woman,Right,
49,8,1,1.0669971000006626,['c'],1,left,['u'],1,0.9265199000001303,0.4,1,0,AccAcc,29,17,Woman,Right,
50,8,1,1.0162067000001116,['c'],1,left,['e'],0,0.4999528999996983,0.1,0,0,AccAcc,29,17,Woman,Right,
51,8,1,1.4825909000010142,['n'],1,right,['e'],0,0.7756747000003088,0.1,0,0,AccAcc,29,17,Woman,Right,
52,8,1,1.8676402000000962,['c'],0,right,['e'],0,0.5115662000007433,0.4,1,0,AccAcc,29,17,Woman,Right,
53,8,1,2.551017399999182,['c'],1,left,['e'],0,0.4077445999992051,0.4,0,0,AccAcc,29,17,Woman,Right,
54,8,1,1.4837926000000152,['c'],0,right,['e'],0,0.5910327999990841,0.1,1,0,AccAcc,29,17,Woman,Right,
55,8,1,2.6175915000003442,['c'],1,left,['e'],0,0.3214263999998366,0.2,0,0,AccAcc,29,17,Woman,Right,
56,8,1,0.8002630999999383,['c'],1,left,['u'],1,0.327158000000054,0.4,1,0,AccAcc,29,17,Woman,Right,
57,8,1,2.217457700000523,['n'],1,right,['e'],0,0.5801556000005803,0.2,0,0,AccAcc,29,17,Woman,Right,
58,8,1,1.3507408000004943,['c'],1,left,['e'],0,2.345306100000016,0.4,0,0,AccAcc,29,17,Woman,Right,
59,8,1,0.8672440999998798,['n'],1,right,['u'],1,0.36294749999979103,0.2,1,0,AccAcc,29,17,Woman,Right,
0,9,1,1.6506461999997555,['n'],1,right,['e'],0,0.8766047999997681,0.1,0,0,FastAcc,29,17,Woman,Right,
1,9,1,0.5338130999989517,['n'],1,right,['u'],1,1.1426073000002361,0.2,1,0,FastAcc,29,17,Woman,Right,
2,9,1,0.5680288000003202,['n'],1,right,['u'],1,0.5009576000011293,0.4,1,0,FastAcc,29,17,Woman,Right,
3,9,1,1.9499144999990676,['c'],0,right,['e'],0,0.6614326999988407,0.1,1,0,FastAcc,29,17,Woman,Right,
4,9,1,1.1351033999999345,['n'],1,right,['e'],0,0.8322889000010036,0.1,0,0,FastAcc,29,17,Woman,Right,
5,9,1,0.5495697000005748,['n'],1,right,['u'],1,0.8764880999988236,0.2,1,0,FastAcc,29,17,Woman,Right,
6,9,1,0.5344233000014356,['c'],1,left,['u'],1,0.8055113999998866,0.2,1,0,FastAcc,29,17,Woman,Right,
7,9,1,0.5172545999994327,['n'],1,right,['u'],1,1.2033375999999407,0.2,1,0,FastAcc,29,17,Woman,Right,
8,9,1,0.5160161000003427,['n'],1,right,['u'],1,0.7209136000001308,0.2,1,0,FastAcc,29,17,Woman,Right,
9,9,1,0.566994099999647,['n'],1,right,['u'],1,0.6239329999989423,0.4,1,0,FastAcc,29,17,Woman,Right,
10,9,1,0.6501231000002008,['c'],1,left,['e'],0,1.279311600001165,0.1,0,0,FastAcc,29,17,Woman,Right,
11,9,1,0.6009291999998823,['c'],1,left,['u'],1,0.7264628000011726,0.4,1,0,FastAcc,29,17,Woman,Right,
12,9,1,1.1671716000000742,['c'],1,left,['e'],0,1.2294691999995848,0.1,0,0,FastAcc,29,17,Woman,Right,
13,9,1,0.9348148999997647,['c'],1,left,['e'],0,1.11307510000006,0.1,0,0,FastAcc,29,17,Woman,Right,
14,9,1,0.6013677999999345,['n'],1,right,['u'],1,0.3588402999994287,0.2,1,0,FastAcc,29,17,Woman,Right,
15,9,1,1.2513226000010036,['c'],1,left,['e'],0,0.6657475000010891,0.2,0,0,FastAcc,29,17,Woman,Right,
16,9,1,1.2341003000001365,['n'],0,left,['e'],0,1.58411150000029,0.1,1,0,FastAcc,29,17,Woman,Right,
17,9,1,0.9178030000002764,['n'],0,left,['e'],0,0.6538773000011133,0.2,1,0,FastAcc,29,17,Woman,Right,
18,9,1,0.7004238000008627,['n'],1,right,['e'],0,0.8266598999998678,0.1,0,0,FastAcc,29,17,Woman,Right,
19,9,1,0.8176428999995551,['c'],1,left,['u'],1,0.5390807000003406,0.4,1,0,FastAcc,29,17,Woman,Right,
20,9,1,0.6179551000004722,['n'],1,right,['u'],1,1.1353039999994508,0.4,1,0,FastAcc,29,17,Woman,Right,
21,9,1,1.2505963999992673,['c'],0,right,['e'],0,1.123075900000913,0.1,1,0,FastAcc,29,17,Woman,Right,
22,9,1,1.382868500000768,['n'],1,right,['e'],0,1.2170370000003459,0.1,0,0,FastAcc,29,17,Woman,Right,
23,9,1,0.7001371000005747,['n'],1,right,['u'],1,0.9029251000010845,0.4,1,0,FastAcc,29,17,Woman,Right,
24,9,1,0.5158145000004879,['n'],1,right,['e'],0,1.2647338999995554,0.4,0,0,FastAcc,29,17,Woman,Right,
25,9,1,0.7159688000010647,['c'],1,left,['e'],0,0.5163689000000886,0.4,0,0,FastAcc,29,17,Woman,Right,
26,9,1,1.5846078000013222,['c'],1,left,['e'],0,1.0095653000007587,0.2,0,0,FastAcc,29,17,Woman,Right,
27,9,1,1.2345831000002363,['c'],1,left,['e'],0,0.7306719999996858,0.2,0,0,FastAcc,29,17,Woman,Right,
28,9,1,2.5507656000008865,['c'],1,left,['e'],0,0.45776570000089123,0.4,0,0,FastAcc,29,17,Woman,Right,
29,9,1,2.2176851000003808,['c'],1,left,['e'],0,0.6415424000006169,0.4,0,0,FastAcc,29,17,Woman,Right,
30,9,1,3.60102790000019,['c'],1,left,['e'],0,0.2666486999987683,0.1,0,0,FastAcc,29,17,Woman,Right,
31,9,1,0.5833738999990601,['n'],1,right,['u'],1,0.7468251999998756,0.1,1,0,FastAcc,29,17,Woman,Right,
32,9,1,0.7342852000001585,['c'],1,left,['u'],1,0.8180681000012555,0.4,1,0,FastAcc,29,17,Woman,Right,
33,9,1,0.8841070000016771,['n'],1,right,['u'],1,1.0723658000006253,0.2,1,0,FastAcc,29,17,Woman,Right,
34,9,1,1.2512893000002805,['n'],0,left,['e'],0,0.9994014000003517,0.1,1,0,FastAcc,29,17,Woman,Right,
35,9,1,0.7517354999999952,['n'],0,left,['e'],0,0.5465004000016052,0.2,1,0,FastAcc,29,17,Woman,Right,
36,9,1,0.8499964000002365,['c'],1,left,['u'],1,1.0379553000002488,0.4,1,0,FastAcc,29,17,Woman,Right,
37,9,1,0.9180945000007341,['c'],1,left,['u'],1,2.1125738000009733,0.4,1,0,FastAcc,29,17,Woman,Right,
38,9,1,0.6338428999988537,['n'],1,right,['u'],1,0.8859887999988132,0.4,1,0,FastAcc,29,17,Woman,Right,
39,9,1,0.7847332000001188,['n'],1,right,['u'],1,1.2852144000007684,0.2,1,0,FastAcc,29,17,Woman,Right,
40,9,1,1.2502473000004102,['n'],0,left,['e'],0,0.2751622000014322,0.2,1,0,FastAcc,29,17,Woman,Right,
41,9,1,2.70144640000035,['c'],1,left,['e'],0,2.9261193000002095,0.2,0,0,FastAcc,29,17,Woman,Right,
42,9,1,0.7857317999987572,['n'],0,left,['e'],0,1.5647807999994257,0.1,1,0,FastAcc,29,17,Woman,Right,
43,9,1,1.2510932000004686,['c'],1,left,['u'],1,0.9901608000000124,0.4,1,0,FastAcc,29,17,Woman,Right,
44,9,1,0.6834682999997312,['n'],1,right,['u'],1,1.0550672999997914,0.2,1,0,FastAcc,29,17,Woman,Right,
45,9,1,0.5504258000000846,['n'],1,right,['u'],1,1.2484481999999844,0.4,1,0,FastAcc,29,17,Woman,Right,
46,9,1,2.0999697000006563,['n'],0,left,['e'],0,0.38120100000014645,0.1,1,0,FastAcc,29,17,Woman,Right,
47,9,1,0.5827253999996174,['c'],1,left,['u'],1,0.7453640999992786,0.4,1,0,FastAcc,29,17,Woman,Right,
48,9,1,0.6013034000006883,['n'],1,right,['u'],1,0.8373081000008824,0.2,1,0,FastAcc,29,17,Woman,Right,
49,9,1,0.5338824999998906,['c'],1,left,['e'],0,0.9142032999989169,0.2,0,0,FastAcc,29,17,Woman,Right,
50,9,1,0.7499776999993628,['c'],0,right,['e'],0,1.3298302000002877,0.1,1,0,FastAcc,29,17,Woman,Right,
51,9,1,1.016108300000269,['c'],1,left,['u'],1,0.8700468999995792,0.4,1,0,FastAcc,29,17,Woman,Right,
52,9,1,0.9824743000008311,['n'],1,right,['e'],0,0.8944670999990194,0.4,0,0,FastAcc,29,17,Woman,Right,
53,9,1,0.56688369999938,['n'],1,right,['u'],1,0.3589285000016389,0.4,1,0,FastAcc,29,17,Woman,Right,
54,9,1,1.4504570000008243,['n'],1,right,['e'],0,0.33657920000041486,0.1,0,0,FastAcc,29,17,Woman,Right,
55,9,1,1.1021286999985023,['n'],1,right,['u'],1,0.8249999999989086,0.1,1,0,FastAcc,29,17,Woman,Right,
56,9,1,1.4347706000007747,['c'],1,left,['e'],0,1.6494323000006261,0.1,0,0,FastAcc,29,17,Woman,Right,
57,9,1,1.0510492000012164,['c'],1,left,['e'],0,0.7442745999996987,0.2,0,0,FastAcc,29,17,Woman,Right,
58,9,1,0.9677070999987336,['n'],1,right,['u'],1,0.6466524999996182,0.1,1,0,FastAcc,29,17,Woman,Right,
59,9,1,0.7487904000008712,['n'],1,right,['u'],1,0.6737026999999216,0.2,1,0,FastAcc,29,17,Woman,Right,
0,10,1,0.5675496000003477,['n'],1,right,['u'],1,0.35705710000002,0.2,1,0,FastFast,29,17,Woman,Right,
1,10,1,0.4343109999990702,['c'],1,left,['e'],0,0.5361699000004592,0.2,0,0,FastFast,29,17,Woman,Right,
2,10,1,0.4516741000006732,['n'],1,right,['e'],0,0.3553933000002871,0.1,0,0,FastFast,29,17,Woman,Right,
3,10,1,0.5671266999997897,['c'],0,right,['e'],0,0.560262099999818,0.1,1,0,FastFast,29,17,Woman,Right,
4,10,1,0.4833643000001757,['c'],1,left,['u'],1,0.3136716000008164,0.4,1,0,FastFast,29,17,Woman,Right,
5,10,1,0.6514522000015859,['c'],1,left,['u'],1,0.5007973000010679,0.4,1,0,FastFast,29,17,Woman,Right,
6,10,1,1.0665836000007403,['c'],1,left,['e'],0,0.16906190000008792,0.2,0,0,FastFast,29,17,Woman,Right,
7,10,1,0.5343100999998569,['n'],1,right,['u'],1,0.5584496000010404,0.1,1,0,FastFast,29,17,Woman,Right,
8,10,1,0.7180886999994982,['c'],1,left,['u'],1,0.3181530000001658,0.4,1,0,FastFast,29,17,Woman,Right,
9,10,1,0.96755050000138,['c'],1,left,['e'],0,0.46127639999940584,0.2,0,0,FastFast,29,17,Woman,Right,
10,10,1,0.601094199999352,['n'],1,right,['e'],0,0.2614295999992464,0.1,0,0,FastFast,29,17,Woman,Right,
11,10,1,0.5680883999993966,['c'],1,left,['e'],0,0.23095719999946596,0.2,0,0,FastFast,29,17,Woman,Right,
12,10,1,1.5336363000005804,['n'],0,left,['e'],0,0.4027005999996618,0.1,1,0,FastFast,29,17,Woman,Right,
13,10,1,1.18432859999848,['n'],0,left,['e'],0,0.32571660000030533,0.2,1,0,FastFast,29,17,Woman,Right,
14,10,1,0.8002113000002282,['c'],1,left,['e'],0,0.21945960000084597,0.4,0,0,FastFast,29,17,Woman,Right,
15,10,1,0.5333767000010994,['n'],1,right,['u'],1,0.33547399999952177,0.4,1,0,FastFast,29,17,Woman,Right,
16,10,1,0.5175259000006918,['n'],1,right,['u'],1,0.19168330000138667,0.4,1,0,FastFast,29,17,Woman,Right,
17,10,1,0.6182893000004697,['n'],1,right,['u'],1,0.14602129999911995,0.4,1,0,FastFast,29,17,Woman,Right,
18,10,1,0.7010914000002231,['c'],1,left,['u'],1,0.2741721999991569,0.4,1,0,FastFast,29,17,Woman,Right,
19,10,1,0.6168305999999575,['n'],1,right,['u'],1,0.14516570000159845,0.4,1,0,FastFast,29,17,Woman,Right,
20,10,1,1.6663411999998061,['n'],0,left,['e'],0,0.1400262000006478,0.1,1,0,FastFast,29,17,Woman,Right,
21,10,1,1.5852610000001732,['n'],0,left,['e'],0,0.2322621999992407,0.2,1,0,FastFast,29,17,Woman,Right,
22,10,1,1.1345220999992307,['n'],1,right,['e'],0,0.7240093000000343,0.1,0,0,FastFast,29,17,Woman,Right,
23,10,1,0.5837537000006705,['n'],0,left,['u'],1,0.1147555999996257,0.1,0,0,FastFast,29,17,Woman,Right,
24,10,1,0.901047400000607,['n'],1,right,['u'],1,0.5240454000013415,0.4,1,0,FastFast,29,17,Woman,Right,
25,10,1,0.6844909000010375,['n'],1,right,['u'],1,0.14231690000087838,0.4,1,0,FastFast,29,17,Woman,Right,
26,10,1,0.6346434000006411,['c'],1,left,['u'],1,0.11404609999954118,0.4,1,0,FastFast,29,17,Woman,Right,
27,10,1,0.6842873999994481,['n'],1,right,['e'],0,0.3719868000007409,0.2,0,0,FastFast,29,17,Woman,Right,
28,10,1,0.684516999999687,['c'],0,right,['e'],0,0.25227540000014415,0.1,1,0,FastFast,29,17,Woman,Right,
29,10,1,1.2842823999999382,['n'],1,right,['e'],0,0.12970289999975648,0.1,0,0,FastFast,29,17,Woman,Right,
30,10,1,0.6846908000006806,['n'],1,right,['e'],0,0.5308662000006734,0.2,0,0,FastFast,29,17,Woman,Right,
31,10,1,2.4338726999994833,['n'],0,left,['e'],0,0.07874489999994694,0.1,1,0,FastFast,29,17,Woman,Right,
32,10,1,0.7173950999986118,['n'],1,right,['u'],1,0.17677240000011807,0.4,1,0,FastFast,29,17,Woman,Right,
33,10,1,1.1846602999994502,['n'],1,right,['u'],1,0.09322120000069845,0.2,1,0,FastFast,29,17,Woman,Right,
34,10,1,1.1338179999984277,['n'],0,left,['e'],0,0.0627636999997776,0.1,1,0,FastFast,29,17,Woman,Right,
35,10,1,1.9006494999994175,['c'],1,left,['u'],1,0.4029945999991469,0.4,1,0,FastFast,29,17,Woman,Right,
36,10,1,0.6341429999993125,['n'],1,right,['u'],1,0.09142099999917264,0.2,1,0,FastFast,29,17,Woman,Right,
37,10,1,1.2843005999984598,['n'],0,left,['e'],0,0.1350083999986964,0.2,1,0,FastFast,29,17,Woman,Right,
38,10,1,2.4169555000007676,['n'],1,right,['e'],0,1.8918008000000555,0.2,0,0,FastFast,29,17,Woman,Right,
39,10,1,0.9343155000005936,['n'],0,left,['e'],0,0.16551679999975022,0.1,1,0,FastFast,29,17,Woman,Right,
40,10,1,0.7498510000004899,['c'],1,left,['e'],0,0.9473832999992737,0.2,0,0,FastFast,29,17,Woman,Right,
41,10,1,0.5347624999994878,['c'],1,left,['u'],1,0.28178010000010545,0.2,1,0,FastFast,29,17,Woman,Right,
42,10,1,2.0832264000000578,['c'],1,left,['e'],0,0.33464400000048045,0.4,0,0,FastFast,29,17,Woman,Right,
43,10,1,1.551240200000393,['n'],1,right,['e'],0,1.7006062000000384,0.2,0,0,FastFast,29,17,Woman,Right,
44,10,1,0.5679216999997152,['n'],1,right,['u'],1,0.18809450000117067,0.4,1,0,FastFast,29,17,Woman,Right,
45,10,1,0.5012409999999363,['n'],1,right,['e'],0,0.38705769999978656,0.2,0,0,FastFast,29,17,Woman,Right,
46,10,1,0.7680611000014324,['n'],1,right,['e'],0,0.3434192000004259,0.2,0,0,FastFast,29,17,Woman,Right,
47,10,1,1.4846987000000809,['n'],1,right,['u'],1,0.01756810000006226,0.1,1,0,FastFast,29,17,Woman,Right,
48,10,1,1.2006612999994104,['n'],1,right,['u'],1,0.16306320000148844,0.2,1,0,FastFast,29,17,Woman,Right,
49,10,1,0.6834509000000253,['c'],1,left,['u'],1,0.1948116999992635,0.4,1,0,FastFast,29,17,Woman,Right,
50,10,1,0.9013398000006418,['c'],1,left,['e'],0,0.12191879999954836,0.1,0,0,FastFast,29,17,Woman,Right,
51,10,1,0.5010695000000851,['n'],1,right,['u'],1,0.27513750000071013,0.4,1,0,FastFast,29,17,Woman,Right,
52,10,1,0.5680494000007457,['n'],1,right,['u'],1,0.11616399999911664,0.1,1,0,FastFast,29,17,Woman,Right,
53,10,1,0.6331766000002972,['n'],0,left,['e'],0,0.2333567999994557,0.1,1,0,FastFast,29,17,Woman,Right,
54,10,1,0.5679591999996774,['n'],1,right,['e'],0,0.15476699999999255,0.1,0,0,FastFast,29,17,Woman,Right,
55,10,1,0.7175540999996883,['c'],1,left,['u'],1,0.314251100000547,0.4,1,0,FastFast,29,17,Woman,Right,
56,10,1,1.0180966000007174,['n'],0,left,['e'],0,0.2632171000004746,0.1,1,0,FastFast,29,17,Woman,Right,
57,10,1,0.7834293999985675,['c'],1,left,['u'],1,0.39956979999988107,0.4,1,0,FastFast,29,17,Woman,Right,
58,10,1,0.7171467999996821,['n'],1,right,['e'],0,0.3731232000009186,0.1,0,0,FastFast,29,17,Woman,Right,
59,10,1,0.8843089000001783,['c'],1,left,['u'],1,0.5973400000002584,0.2,1,0,FastFast,29,17,Woman,Right,
0,11,1,0.800835799998822,['c'],1,left,['e'],0,1.20162049999999,0.4,0,0,AccFast,29,17,Woman,Right,
1,11,1,2.784239399999933,['n'],1,right,['e'],0,0.14890780000132509,0.1,0,0,AccFast,29,17,Woman,Right,
2,11,1,2.584216400000514,['n'],0,left,['e'],0,0.2498649999997724,0.2,1,0,AccFast,29,17,Woman,Right,
3,11,1,0.5511397999998735,['n'],1,right,['u'],1,0.2040257999997266,0.2,1,0,AccFast,29,17,Woman,Right,
4,11,1,0.7012826000009227,['c'],1,left,['u'],1,0.17022350000115694,0.4,1,0,AccFast,29,17,Woman,Right,
5,11,1,2.23432590000084,['n'],0,left,['e'],0,0.15663519999907294,0.4,1,0,AccFast,29,17,Woman,Right,
6,11,1,0.5834632000005513,['c'],1,left,['u'],1,0.20976060000066354,0.4,1,0,AccFast,29,17,Woman,Right,
7,11,1,0.7004620999996405,['n'],1,right,['e'],0,0.7521152999997867,0.1,0,0,AccFast,29,17,Woman,Right,
8,11,1,2.2004032999993797,['n'],0,left,['e'],0,0.22030640000048152,0.2,1,0,AccFast,29,17,Woman,Right,
9,11,1,1.0349471000008634,['n'],0,left,['e'],0,0.17258729999957723,0.1,1,0,AccFast,29,17,Woman,Right,
10,11,1,1.2342453000001115,['c'],1,left,['e'],0,0.19906400000036228,0.2,0,0,AccFast,29,17,Woman,Right,
11,11,1,2.4013591000002634,['c'],1,left,['e'],0,0.2094001000004937,0.2,0,0,AccFast,29,17,Woman,Right,
12,11,1,0.7512439000001905,['c'],1,left,['u'],1,0.3495891999991727,0.4,1,0,AccFast,29,17,Woman,Right,
13,11,1,0.9512092999993911,['c'],1,left,['e'],0,0.31647590000102355,0.4,0,0,AccFast,29,17,Woman,Right,
14,11,1,1.984539600000062,['n'],1,right,['e'],0,0.19418039999982284,0.2,0,0,AccFast,29,17,Woman,Right,
15,11,1,2.4836441000006744,['c'],1,left,['e'],0,0.2658503999991808,0.2,0,0,AccFast,29,17,Woman,Right,
16,11,1,1.017830499999036,['n'],1,right,['u'],1,0.2650716000007378,0.4,1,0,AccFast,29,17,Woman,Right,
17,11,1,0.8511259999995673,['n'],1,right,['e'],0,0.2703041000004305,0.2,0,0,AccFast,29,17,Woman,Right,
18,11,1,0.6338369000004604,['c'],1,left,['e'],0,0.3486981999994896,0.1,0,0,AccFast,29,17,Woman,Right,
19,11,1,1.7675298000012845,['c'],0,right,['e'],0,0.09045489999880374,0.1,1,0,AccFast,29,17,Woman,Right,
20,11,1,1.8503005999991728,['c'],0,right,['e'],0,0.0794266000011703,0.1,1,0,AccFast,29,17,Woman,Right,
21,11,1,2.1176801000001433,['n'],1,right,['e'],0,0.28191379999952915,0.2,0,0,AccFast,29,17,Woman,Right,
22,11,1,1.5173873999992793,['c'],1,left,['u'],1,0.30876809999972465,0.2,1,0,AccFast,29,17,Woman,Right,
23,11,1,1.3171335000006366,['n'],0,left,['u'],1,0.35796529999970517,0.2,0,0,AccFast,29,17,Woman,Right,
24,11,1,0.7515401000000566,['n'],1,right,['u'],1,0.2839592000000266,0.4,1,0,AccFast,29,17,Woman,Right,
25,11,1,0.7162824000006367,['n'],1,right,['u'],1,0.1354627000000619,0.4,1,0,AccFast,29,17,Woman,Right,
26,11,1,1.1179634000000078,['n'],1,right,['e'],0,0.2305870000000141,0.1,0,0,AccFast,29,17,Woman,Right,
27,11,1,0.9177243000012822,['n'],0,left,['e'],0,0.2030053999988013,0.2,1,0,AccFast,29,17,Woman,Right,
28,11,1,0.7175083000001905,['n'],1,right,['e'],0,0.2005503000000317,0.1,0,0,AccFast,29,17,Woman,Right,
29,11,1,2.0669409000001906,['c'],1,left,['e'],0,0.3362715000002936,0.1,0,0,AccFast,29,17,Woman,Right,
30,11,1,0.5664037000005919,['c'],1,left,['e'],0,0.19045510000069044,0.1,0,0,AccFast,29,17,Woman,Right,
31,11,1,0.9677596999990783,['n'],1,right,['e'],0,0.27470810000158963,0.1,0,0,AccFast,29,17,Woman,Right,
32,11,1,0.9841393000006065,['n'],1,right,['u'],1,0.4831955999998172,0.4,1,0,AccFast,29,17,Woman,Right,
33,11,1,1.4177503999999317,['c'],1,left,['u'],1,0.13746720000017376,0.4,1,0,AccFast,29,17,Woman,Right,
34,11,1,3.6843420999994123,['c'],1,left,['e'],0,0.41922929999964254,0.2,0,0,AccFast,29,17,Woman,Right,
35,11,1,1.0008129999987432,['c'],1,left,['u'],1,0.17277670000112266,0.4,1,0,AccFast,29,17,Woman,Right,
36,11,1,0.8012822000000597,['n'],1,right,['u'],1,0.15243069999996806,0.4,1,0,AccFast,29,17,Woman,Right,
37,11,1,3.9661094000002777,['n'],1,right,['e'],0,0.1988457000006747,0.1,0,0,AccFast,29,17,Woman,Right,
38,11,1,2.033722399999533,['c'],1,left,['u'],1,0.31940949999989243,0.4,1,0,AccFast,29,17,Woman,Right,
39,11,1,1.2014292999992904,['n'],0,left,['e'],0,0.21289489999981015,0.1,1,0,AccFast,29,17,Woman,Right,
40,11,1,1.9509510999996564,['c'],1,left,['e'],0,0.20864759999858506,0.2,0,0,AccFast,29,17,Woman,Right,
41,11,1,0.7346290000004956,['n'],1,right,['e'],0,1.1655539000003046,0.2,0,0,AccFast,29,17,Woman,Right,
42,11,1,2.2513524999994843,['n'],1,right,['e'],0,0.2800074000006134,0.1,0,0,AccFast,29,17,Woman,Right,
43,11,1,1.1344683000006626,['c'],1,left,['u'],1,0.5289346999998088,0.2,1,0,AccFast,29,17,Woman,Right,
44,11,1,0.6673471000012796,['n'],1,right,['u'],1,0.6113650000006601,0.4,1,0,AccFast,29,17,Woman,Right,
45,11,1,0.7172549000006256,['n'],1,right,['u'],1,0.16108290000011039,0.4,1,0,AccFast,29,17,Woman,Right,
46,11,1,0.8180323999986285,['c'],1,left,['e'],0,0.7005146000010427,0.2,0,0,AccFast,29,17,Woman,Right,
47,11,1,0.6841894999997749,['n'],1,right,['u'],1,0.2958314000006794,0.4,1,0,AccFast,29,17,Woman,Right,
48,11,1,0.6837689000003593,['n'],1,right,['u'],1,0.32234779999998864,0.2,1,0,AccFast,29,17,Woman,Right,
49,11,1,1.0167239000002155,['n'],0,left,['e'],0,0.31937569999900006,0.1,1,0,AccFast,29,17,Woman,Right,
50,11,1,0.6509654000001319,['n'],0,left,['e'],0,0.6519552999998268,0.1,1,0,AccFast,29,17,Woman,Right,
51,11,1,2.984105900000941,['n'],1,right,['e'],0,0.9721792999989702,0.1,0,0,AccFast,29,17,Woman,Right,
52,11,1,0.9344618999984959,['n'],1,right,['e'],0,0.24252399999932095,0.4,0,0,AccFast,29,17,Woman,Right,
53,11,1,2.051338899998882,['n'],1,right,['e'],0,0.2974205999998958,0.1,0,0,AccFast,29,17,Woman,Right,
54,11,1,0.6182499999995343,['n'],1,right,['u'],1,0.4232558000003337,0.2,1,0,AccFast,29,17,Woman,Right,
55,11,1,1.067564000000857,['n'],1,right,['u'],1,0.12615270000060264,0.4,1,0,AccFast,29,17,Woman,Right,
56,11,1,1.8839133999990736,['c'],1,left,['u'],1,0.17645570000058797,0.1,1,0,AccFast,29,17,Woman,Right,
57,11,1,0.9679395000002842,['n'],1,right,['e'],0,1.3334438999991107,0.1,0,0,AccFast,29,17,Woman,Right,
58,11,1,0.7178325999993831,['n'],1,right,['u'],1,0.3257716000007349,0.4,1,0,AccFast,29,17,Woman,Right,
59,11,1,0.9177052000013646,['c'],1,left,['u'],1,0.3906701999985671,0.2,1,0,AccFast,29,17,Woman,Right,
0,12,1,3.534441199999492,['c'],1,left,['e'],0,2.0023063000007824,0.1,0,0,AccAcc,29,17,Woman,Right,
1,12,1,0.9675387999996019,['n'],1,right,['u'],1,0.8147351999996317,0.2,1,0,AccAcc,29,17,Woman,Right,
2,12,1,4.01684220000061,['n'],0,left,['e'],0,2.927412400000321,0.1,1,0,AccAcc,29,17,Woman,Right,
3,12,1,1.6845544000007067,['n'],1,right,['e'],0,0.7941639000000578,0.2,0,0,AccAcc,29,17,Woman,Right,
4,12,1,2.8341163999994023,['c'],1,left,['e'],0,0.7802107000006799,0.2,0,0,AccAcc,29,17,Woman,Right,
5,12,1,1.4180348999998387,['n'],1,right,['e'],0,0.5663132999998197,0.1,0,0,AccAcc,29,17,Woman,Right,
6,12,1,0.9844097000004695,['n'],1,right,['u'],1,1.066449100000682,0.4,1,0,AccAcc,29,17,Woman,Right,
7,12,1,1.0012456000004022,['n'],1,right,['u'],1,1.466384300001664,0.1,1,0,AccAcc,29,17,Woman,Right,
8,12,1,1.4011355999991792,['c'],1,left,['u'],1,1.7065965000001597,0.4,1,0,AccAcc,29,17,Woman,Right,
9,12,1,1.0007175000009738,['n'],1,right,['u'],1,0.5924705999987054,0.4,1,0,AccAcc,29,17,Woman,Right,
10,12,1,2.867449100000158,['n'],0,left,['e'],0,0.44110689999979513,0.2,1,0,AccAcc,29,17,Woman,Right,
11,12,1,1.2003179000003001,['n'],1,right,['e'],0,0.5220826999993733,0.1,0,0,AccAcc,29,17,Woman,Right,
12,12,1,0.9679214999996475,['c'],0,right,['e'],0,0.320840300000782,0.2,1,0,AccAcc,29,17,Woman,Right,
13,12,1,1.766988700001093,['c'],0,right,['e'],0,0.9123711000011099,0.1,1,0,AccAcc,29,17,Woman,Right,
14,12,1,4.483948000000964,['n'],0,left,['e'],0,0.41077670000049693,0.1,1,0,AccAcc,29,17,Woman,Right,
15,12,1,3.084136199999193,['n'],1,right,['u'],1,0.977929700000459,0.2,1,0,AccAcc,29,17,Woman,Right,
16,12,1,1.267692100000204,['n'],1,right,['u'],1,0.8591646999993827,0.4,1,0,AccAcc,29,17,Woman,Right,
17,12,1,1.0513796999985061,['n'],1,right,['u'],1,1.0252230999994936,0.4,1,0,AccAcc,29,17,Woman,Right,
18,12,1,1.7002556000006734,['n'],1,right,['e'],0,0.5992815999998129,0.1,0,0,AccAcc,29,17,Woman,Right,
19,12,1,1.3510363000004872,['n'],1,right,['u'],1,0.9714552000004915,0.2,1,0,AccAcc,29,17,Woman,Right,
20,12,1,1.1005714000002627,['n'],1,right,['u'],1,0.6352163999999902,0.4,1,0,AccAcc,29,17,Woman,Right,
21,12,1,1.1179322000007232,['c'],1,left,['u'],1,0.7274846000000252,0.2,1,0,AccAcc,29,17,Woman,Right,
22,12,1,1.8844387999997707,['n'],1,right,['e'],0,1.4740526999994472,0.1,0,0,AccAcc,29,17,Woman,Right,
23,12,1,1.7511217999999644,['n'],0,left,['e'],0,0.7235852000012528,0.2,1,0,AccAcc,29,17,Woman,Right,
24,12,1,2.1348593999991863,['n'],0,left,['e'],0,0.27606639999976323,0.2,1,0,AccAcc,29,17,Woman,Right,
25,12,1,3.6011223000004975,['c'],1,left,['e'],0,0.6839954000006401,0.1,0,0,AccAcc,29,17,Woman,Right,
26,12,1,1.5675542000008136,['n'],1,right,['u'],1,1.1563502999997581,0.2,1,0,AccAcc,29,17,Woman,Right,
27,12,1,3.6672801000004256,['c'],1,left,['u'],1,0.9823937000001024,0.2,1,0,AccAcc,29,17,Woman,Right,
28,12,1,1.5174986999991233,['n'],1,right,['u'],1,0.5486104999999952,0.4,1,0,AccAcc,29,17,Woman,Right,
29,12,1,0.8681128999996872,['c'],1,left,['u'],1,0.7824259999997594,0.2,1,0,AccAcc,29,17,Woman,Right,
30,12,1,2.868008199999167,['n'],1,right,['u'],1,0.750911899998755,0.1,1,0,AccAcc,29,17,Woman,Right,
31,12,1,3.1681454999998095,['n'],1,right,['u'],1,0.6607481000010011,0.2,1,0,AccAcc,29,17,Woman,Right,
32,12,1,1.318072399999437,['c'],1,left,['u'],1,1.3205899999993562,0.4,1,0,AccAcc,29,17,Woman,Right,
33,12,1,3.1171892000002117,['n'],0,left,['e'],0,0.6337605000007898,0.1,1,0,AccAcc,29,17,Woman,Right,
34,12,1,1.6509774999994988,['c'],1,left,['u'],1,0.5766662000005454,0.4,1,0,AccAcc,29,17,Woman,Right,
35,12,1,1.1007076999994752,['n'],1,right,['u'],1,0.5924744999992981,0.2,1,0,AccAcc,29,17,Woman,Right,
36,12,1,1.4176652999994985,['n'],1,right,['u'],1,0.5306942000006529,0.1,1,0,AccAcc,29,17,Woman,Right,
37,12,1,1.4007345999998506,['n'],1,right,['u'],1,0.8239788000009867,0.2,1,0,AccAcc,29,17,Woman,Right,
38,12,1,1.2344395000000077,['n'],1,right,['u'],1,0.39197450000028766,0.2,1,0,AccAcc,29,17,Woman,Right,
39,12,1,0.9517817000014475,['c'],1,left,['u'],1,0.8050800000000891,0.4,1,0,AccAcc,29,17,Woman,Right,
40,12,1,3.400128700001005,['n'],0,left,['e'],0,0.4477463000002899,0.4,1,0,AccAcc,29,17,Woman,Right,
41,12,1,2.9007376999979897,['c'],1,left,['e'],0,0.5402297000000544,0.2,0,0,AccAcc,29,17,Woman,Right,
42,12,1,3.1676540999978897,['c'],1,left,['e'],0,1.1466082999977516,0.4,0,0,AccAcc,29,17,Woman,Right,
43,12,1,0.9168921999989834,['n'],1,right,['u'],1,0.7315765999992436,0.1,1,0,AccAcc,29,17,Woman,Right,
44,12,1,1.1175121999986004,['n'],1,right,['u'],1,0.8988537999975961,0.2,1,0,AccAcc,29,17,Woman,Right,
45,12,1,2.4338133000019297,['n'],1,right,['e'],0,0.40002739999908954,0.4,0,0,AccAcc,29,17,Woman,Right,
46,12,1,1.6844354999993811,['c'],1,left,['u'],1,1.1351329999997688,0.4,1,0,AccAcc,29,17,Woman,Right,
47,12,1,1.5013213999991422,['n'],1,right,['u'],1,0.8241528000035032,0.4,1,0,AccAcc,29,17,Woman,Right,
48,12,1,0.9995703999993566,['c'],1,left,['u'],1,0.8029529999985243,0.4,1,0,AccAcc,29,17,Woman,Right,
49,12,1,0.9687745000010182,['c'],1,left,['u'],1,1.054165000001376,0.4,1,0,AccAcc,29,17,Woman,Right,
50,12,1,1.3836468000008608,['c'],1,left,['e'],0,0.8304901000010432,0.2,0,0,AccAcc,29,17,Woman,Right,
51,12,1,1.6178814000013517,['c'],1,left,['e'],0,0.6067371999997704,0.1,0,0,AccAcc,29,17,Woman,Right,
52,12,1,1.5835637000018323,['n'],1,right,['e'],0,0.8578981000027852,0.4,0,0,AccAcc,29,17,Woman,Right,
53,12,1,3.249701799999457,['c'],1,left,['e'],0,0.8090221999991627,0.4,0,0,AccAcc,29,17,Woman,Right,
54,12,1,1.7843962000006286,['n'],1,right,['e'],0,0.6275377000019944,0.1,0,0,AccAcc,29,17,Woman,Right,
55,12,1,1.2508238999980676,['c'],1,left,['u'],1,1.7391019999995478,0.4,1,0,AccAcc,29,17,Woman,Right,
56,12,1,2.2009700999988127,['n'],0,left,['e'],0,1.0405122999982268,0.1,1,0,AccAcc,29,17,Woman,Right,
57,12,1,2.434081799998239,['c'],1,left,['e'],0,1.2082359000014549,0.1,0,0,AccAcc,29,17,Woman,Right,
58,12,1,5.000009200000932,x,-99,left,none,-99,-99,0.1,-99,1,AccAcc,29,17,Woman,Right,
59,12,1,3.6344105000025593,['n'],0,left,['e'],0,1.5403251999996428,0.1,1,0,AccAcc,29,17,Woman,Right,
0,13,1,1.0006633000011789,['c'],1,left,['e'],0,2.395044799999596,0.1,0,0,FastAcc,29,17,Woman,Right,
1,13,1,1.9844421000016155,['n'],0,left,['e'],0,0.7181899000024714,0.1,1,0,FastAcc,29,17,Woman,Right,
2,13,1,2.28449990000081,['n'],1,right,['u'],1,2.2164101999987906,0.2,1,0,FastAcc,29,17,Woman,Right,
3,13,1,0.5010669000002963,['n'],1,right,['u'],1,1.406321400001616,0.4,1,0,FastAcc,29,17,Woman,Right,
4,13,1,0.6510355999998865,['n'],1,right,['u'],1,1.1988411999991513,0.2,1,0,FastAcc,29,17,Woman,Right,
5,13,1,1.900533899999573,['c'],1,left,['u'],1,0.7252822000009473,0.2,1,0,FastAcc,29,17,Woman,Right,
6,13,1,2.317515700000513,['n'],1,right,['e'],0,0.35029299999951036,0.1,0,0,FastAcc,29,17,Woman,Right,
7,13,1,0.7678270999967935,['n'],1,right,['e'],0,0.9638933999995061,0.2,0,0,FastAcc,29,17,Woman,Right,
8,13,1,0.6677082999995037,['c'],1,left,['u'],1,0.5809095000004163,0.2,1,0,FastAcc,29,17,Woman,Right,
9,13,1,1.267697399998724,['n'],0,left,['e'],0,1.501267800002097,0.4,1,0,FastAcc,29,17,Woman,Right,
10,13,1,1.7344013000001723,['n'],0,left,['e'],0,0.350268900001538,0.1,1,0,FastAcc,29,17,Woman,Right,
11,13,1,1.5676600000006147,['n'],1,right,['u'],1,0.5639415000005101,0.1,1,0,FastAcc,29,17,Woman,Right,
12,13,1,0.8343689999965136,['n'],1,right,['u'],1,0.814404699998704,0.1,1,0,FastAcc,29,17,Woman,Right,
13,13,1,0.800363300000754,['n'],0,left,['u'],1,0.5280877999975928,0.1,0,0,FastAcc,29,17,Woman,Right,
14,13,1,1.199050300001545,['n'],1,right,['e'],0,0.33431170000039856,0.1,0,0,FastAcc,29,17,Woman,Right,
15,13,1,1.334407199999987,['c'],1,left,['e'],0,1.3094319999981963,0.1,0,0,FastAcc,29,17,Woman,Right,
16,13,1,1.0508396999975957,['n'],1,right,['u'],1,1.8737734999995155,0.4,1,0,FastAcc,29,17,Woman,Right,
17,13,1,0.8340892999985954,['n'],1,right,['u'],1,0.5042424999992363,0.4,1,0,FastAcc,29,17,Woman,Right,
18,13,1,1.400606200000766,['n'],1,right,['u'],1,0.366573100000096,0.1,1,0,FastAcc,29,17,Woman,Right,
19,13,1,1.1176975999987917,['n'],1,right,['e'],0,0.8534884000000602,0.1,0,0,FastAcc,29,17,Woman,Right,
20,13,1,0.6676203999995778,['n'],0,left,['e'],0,0.21904689999792026,0.1,1,0,FastAcc,29,17,Woman,Right,
21,13,1,0.916985100000602,['n'],1,right,['e'],0,0.20778989999962505,0.4,0,0,FastAcc,29,17,Woman,Right,
22,13,1,1.0177517000010994,['n'],1,right,['e'],0,1.5215939999980037,0.2,0,0,FastAcc,29,17,Woman,Right,
23,13,1,0.7344370999999228,['n'],1,right,['e'],0,1.0026451000012457,0.2,0,0,FastAcc,29,17,Woman,Right,
24,13,1,0.9504066999979841,['c'],1,left,['e'],0,1.806347800000367,0.4,0,0,FastAcc,29,17,Woman,Right,
25,13,1,1.8335660999982792,['n'],0,left,['e'],0,0.44801880000159144,0.1,1,0,FastAcc,29,17,Woman,Right,
26,13,1,2.251056699999026,['c'],1,left,['e'],0,0.3899930999978096,0.2,0,0,FastAcc,29,17,Woman,Right,
27,13,1,0.8348068000013882,['c'],1,left,['e'],0,0.7434564000031969,0.2,0,0,FastAcc,29,17,Woman,Right,
28,13,1,0.6014056999993045,['n'],1,right,['u'],1,1.7004023999979836,0.4,1,0,FastAcc,29,17,Woman,Right,
29,13,1,0.7010363999979745,['n'],1,right,['u'],1,1.5109339999980875,0.2,1,0,FastAcc,29,17,Woman,Right,
30,13,1,0.9176421999982267,['n'],1,right,['u'],1,0.40855590000137454,0.2,1,0,FastAcc,29,17,Woman,Right,
31,13,1,0.5845301000008476,['c'],1,left,['u'],1,0.86747639999885,0.4,1,0,FastAcc,29,17,Woman,Right,
32,13,1,0.5685118000001239,['c'],1,left,['u'],1,0.9244278000005579,0.4,1,0,FastAcc,29,17,Woman,Right,
33,13,1,0.8511866000008013,['c'],1,left,['e'],0,0.504190199997538,0.4,0,0,FastAcc,29,17,Woman,Right,
34,13,1,0.9505404999981693,['n'],0,left,['e'],0,0.4643888999999035,0.2,1,0,FastAcc,29,17,Woman,Right,
35,13,1,0.7672964999983378,['n'],1,right,['e'],0,0.8175244999983988,0.2,0,0,FastAcc,29,17,Woman,Right,
36,13,1,2.1170664000019315,['c'],1,left,['e'],0,1.9348626999999397,0.4,0,0,FastAcc,29,17,Woman,Right,
37,13,1,0.8846282999984396,['c'],1,left,['e'],0,0.7363967000019329,0.2,0,0,FastAcc,29,17,Woman,Right,
38,13,1,1.4344873000009102,['n'],1,right,['e'],0,0.8122254000008979,0.2,0,0,FastAcc,29,17,Woman,Right,
39,13,1,2.0347419999998237,['c'],1,left,['e'],0,0.988367300000391,0.4,0,0,FastAcc,29,17,Woman,Right,
40,13,1,1.5011588999986998,['n'],0,left,['e'],0,0.4435630999978457,0.1,1,0,FastAcc,29,17,Woman,Right,
41,13,1,1.2345093000003544,['c'],1,left,['e'],0,1.835304600001109,0.4,0,0,FastAcc,29,17,Woman,Right,
42,13,1,1.2345295999984955,['c'],0,right,['e'],0,0.4989430000023276,0.1,1,0,FastAcc,29,17,Woman,Right,
43,13,1,0.6677095999984886,['n'],1,right,['u'],1,0.8867723000003025,0.4,1,0,FastAcc,29,17,Woman,Right,
44,13,1,0.8342333000000508,['n'],1,right,['u'],1,0.34040619999723276,0.2,1,0,FastAcc,29,17,Woman,Right,
45,13,1,1.0669714999967255,['c'],1,left,['e'],0,0.9426634000010381,0.4,0,0,FastAcc,29,17,Woman,Right,
46,13,1,1.100221499997133,['n'],0,left,['e'],0,0.3834936999992351,0.1,1,0,FastAcc,29,17,Woman,Right,
47,13,1,1.5335135999994236,['c'],1,left,['e'],0,0.32566550000046846,0.4,0,0,FastAcc,29,17,Woman,Right,
48,13,1,1.1171450000001641,['c'],1,left,['e'],0,0.9110151999993832,0.4,0,0,FastAcc,29,17,Woman,Right,
49,13,1,1.4342192000003706,['n'],0,left,['e'],0,0.3073599000017566,0.1,1,0,FastAcc,29,17,Woman,Right,
50,13,1,0.7011007000000973,['n'],1,right,['u'],1,0.5095332000018971,0.4,1,0,FastAcc,29,17,Woman,Right,
51,13,1,0.7338691000004474,['n'],1,right,['e'],0,0.23853009999947972,0.1,0,0,FastAcc,29,17,Woman,Right,
52,13,1,1.2819923999995808,['n'],0,left,['e'],0,0.5333312999973714,0.2,1,0,FastAcc,29,17,Woman,Right,
53,13,1,0.8507083000004059,['c'],1,left,['u'],1,1.551381199999014,0.4,1,0,FastAcc,29,17,Woman,Right,
54,13,1,0.6006653999975242,['n'],1,right,['u'],1,0.907520900000236,0.2,1,0,FastAcc,29,17,Woman,Right,
55,13,1,0.9165974999996251,['n'],1,right,['e'],0,0.4055378999983077,0.2,0,0,FastAcc,29,17,Woman,Right,
56,13,1,0.7848087000020314,['n'],0,left,['e'],0,0.24816610000198125,0.1,1,0,FastAcc,29,17,Woman,Right,
57,13,1,0.8671047999996517,['n'],1,right,['e'],0,0.2696598000002268,0.1,0,0,FastAcc,29,17,Woman,Right,
58,13,1,0.6845705000014277,['n'],1,right,['u'],1,0.3937946000005468,0.2,1,0,FastAcc,29,17,Woman,Right,
59,13,1,0.9171612999998615,['n'],1,right,['u'],1,1.096262500002922,0.4,1,0,FastAcc,29,17,Woman,Right,
0,14,1,0.7013898000004701,['c'],1,left,['e'],0,0.3361828000015521,0.2,0,0,FastFast,29,17,Woman,Right,
1,14,1,0.5671000000002095,['c'],0,right,['e'],0,0.7507455999984813,0.2,1,0,FastFast,29,17,Woman,Right,
2,14,1,0.5166143000024022,['n'],1,right,['u'],1,0.30181350000202656,0.4,1,0,FastFast,29,17,Woman,Right,
3,14,1,0.6176923999992141,['c'],1,left,['e'],0,0.21962140000323416,0.2,0,0,FastFast,29,17,Woman,Right,
4,14,1,0.48458190000019385,['c'],1,left,['e'],0,0.14571409999916796,0.1,0,0,FastFast,29,17,Woman,Right,
5,14,1,0.4510512999986531,['c'],1,left,['u'],1,0.3320562999979302,0.4,1,0,FastFast,29,17,Woman,Right,
6,14,1,0.48406099999920116,['n'],1,right,['u'],1,0.1738573999973596,0.2,1,0,FastFast,29,17,Woman,Right,
7,14,1,0.4507686000033573,['n'],1,right,['u'],1,0.3112267999968026,0.4,1,0,FastFast,29,17,Woman,Right,
8,14,1,0.4009059000018169,['n'],1,right,['u'],1,0.17332080000051064,0.4,1,0,FastFast,29,17,Woman,Right,
9,14,1,0.48496259999956237,['c'],1,left,['u'],1,0.229588899997907,0.2,1,0,FastFast,29,17,Woman,Right,
10,14,1,0.43365669999911916,['n'],1,right,['u'],1,0.17307939999955124,0.1,1,0,FastFast,29,17,Woman,Right,
11,14,1,0.46783829999912996,['c'],1,left,['u'],1,0.21409260000291397,0.4,1,0,FastFast,29,17,Woman,Right,
12,14,1,1.3168158999978914,['n'],0,left,['e'],0,0.0431520999991335,0.2,1,0,FastFast,29,17,Woman,Right,
13,14,1,0.5007401000002574,['n'],1,right,['u'],1,0.21585849999974016,0.2,1,0,FastFast,29,17,Woman,Right,
14,14,1,1.1335709000013594,['c'],1,left,['u'],1,0.580320600001869,0.4,1,0,FastFast,29,17,Woman,Right,
15,14,1,0.4335745999997016,['n'],1,right,['u'],1,0.1737049000003026,0.4,1,0,FastFast,29,17,Woman,Right,
16,14,1,0.8346281999984058,['n'],0,left,['e'],0,0.536018899998453,0.1,1,0,FastFast,29,17,Woman,Right,
17,14,1,0.48462279999876046,['n'],1,right,['u'],1,0.12953790000028675,0.4,1,0,FastFast,29,17,Woman,Right,
18,14,1,0.9010361000000557,['n'],1,right,['e'],0,0.09050589999969816,0.1,0,0,FastFast,29,17,Woman,Right,
19,14,1,0.5011062999983551,['n'],1,right,['e'],0,0.19743480000033742,0.2,0,0,FastFast,29,17,Woman,Right,
20,14,1,0.45093420000193873,['n'],1,right,['e'],0,0.25382689999969443,0.1,0,0,FastFast,29,17,Woman,Right,
21,14,1,0.8674093999979959,['n'],1,right,['e'],0,0.13118939999912982,0.4,0,0,FastFast,29,17,Woman,Right,
22,14,1,0.5001215999982378,['c'],1,left,['u'],1,0.3961835999980394,0.1,1,0,FastFast,29,17,Woman,Right,
23,14,1,0.4848390000006475,['n'],1,right,['u'],1,0.1550249000028998,0.1,1,0,FastFast,29,17,Woman,Right,
24,14,1,0.6179754000004323,['n'],1,right,['e'],0,0.0793506999980309,0.1,0,0,FastFast,29,17,Woman,Right,
25,14,1,0.5345602999987022,['n'],1,right,['u'],1,0.1679827000007208,0.2,1,0,FastFast,29,17,Woman,Right,
26,14,1,0.5333948000006785,['n'],0,left,['u'],1,0.07841189999817288,0.2,0,0,FastFast,29,17,Woman,Right,
27,14,1,0.5345935000004829,['n'],1,right,['u'],1,1.4004867000003287,0.2,1,0,FastFast,29,17,Woman,Right,
28,14,1,0.6496740000002319,['c'],1,left,['u'],1,0.12097809999977471,0.4,1,0,FastFast,29,17,Woman,Right,
29,14,1,0.5507043999969028,['n'],1,right,['u'],1,0.12855580000177724,0.4,1,0,FastFast,29,17,Woman,Right,
30,14,1,0.8844725000017206,['c'],1,left,['u'],1,0.12195749999955297,0.4,1,0,FastFast,29,17,Woman,Right,
31,14,1,0.8175637999993342,['n'],0,left,['e'],0,0.11899269999776152,0.1,1,0,FastFast,29,17,Woman,Right,
32,14,1,0.5172039999997651,['n'],1,right,['u'],1,0.14384570000038366,0.2,1,0,FastFast,29,17,Woman,Right,
33,14,1,0.5515945000006468,['c'],1,left,['e'],0,0.15076680000129272,0.1,0,0,FastFast,29,17,Woman,Right,
34,14,1,0.7500423000019509,['c'],1,left,['e'],0,0.22968039999977918,0.2,0,0,FastFast,29,17,Woman,Right,
35,14,1,0.867040299999644,['c'],1,left,['u'],1,0.09133590000055847,0.2,1,0,FastFast,29,17,Woman,Right,
36,14,1,0.9169698000005155,['c'],1,left,['e'],0,0.13359070000296924,0.2,0,0,FastFast,29,17,Woman,Right,
37,14,1,0.48374390000026324,['n'],1,right,['u'],1,0.09503419999964535,0.4,1,0,FastFast,29,17,Woman,Right,
38,14,1,0.8182828999997582,['c'],1,left,['u'],1,0.10948720000305912,0.4,1,0,FastFast,29,17,Woman,Right,
39,14,1,0.9841658999976062,['c'],1,left,['e'],0,0.4363424000002851,0.4,0,0,FastFast,29,17,Woman,Right,
40,14,1,0.5180214000029082,['c'],1,left,['e'],0,0.12848980000126176,0.1,0,0,FastFast,29,17,Woman,Right,
41,14,1,0.5336320000023989,['n'],1,right,['u'],1,0.10463009999875794,0.1,1,0,FastFast,29,17,Woman,Right,
42,14,1,0.9673495999995794,['n'],1,right,['e'],0,0.09568600000056904,0.1,0,0,FastFast,29,17,Woman,Right,
43,14,1,0.8347591999990982,['c'],1,left,['e'],0,0.12469229999987874,0.2,0,0,FastFast,29,17,Woman,Right,
44,14,1,0.6344433999984176,['c'],0,right,['e'],0,0.06493129999944358,0.1,1,0,FastFast,29,17,Woman,Right,
45,14,1,0.8506096999990405,['n'],1,right,['e'],0,0.09434959999998682,0.1,0,0,FastFast,29,17,Woman,Right,
46,14,1,0.6669385000022885,['n'],0,left,['e'],0,0.11475769999742624,0.2,1,0,FastFast,29,17,Woman,Right,
47,14,1,0.8511031999987608,['n'],0,left,['e'],0,0.17413099999976112,0.2,1,0,FastFast,29,17,Woman,Right,
48,14,1,0.6176129000014043,['n'],0,left,['e'],0,0.09713330000158749,0.1,1,0,FastFast,29,17,Woman,Right,
49,14,1,0.5834796000017377,['n'],1,right,['e'],0,0.2007728999997198,0.4,0,0,FastFast,29,17,Woman,Right,
50,14,1,0.7667116000011447,['n'],0,left,['e'],0,0.32363400000031106,0.1,1,0,FastFast,29,17,Woman,Right,
51,14,1,0.5010532000014791,['c'],1,left,['u'],1,0.06914909999977681,0.4,1,0,FastFast,29,17,Woman,Right,
52,14,1,0.5511393000015232,['n'],1,right,['u'],1,0.1267967999992834,0.4,1,0,FastFast,29,17,Woman,Right,
53,14,1,0.9344170000003942,['c'],1,left,['u'],1,0.16693790000135778,0.2,1,0,FastFast,29,17,Woman,Right,
54,14,1,0.8511164999981702,['n'],0,left,['e'],0,0.1285862000004272,0.1,1,0,FastFast,29,17,Woman,Right,
55,14,1,0.6348746000003302,['n'],1,right,['u'],1,0.03607009999905131,0.1,1,0,FastFast,29,17,Woman,Right,
56,14,1,0.5337327000015648,['n'],1,right,['e'],0,0.11200509999980568,0.1,0,0,FastFast,29,17,Woman,Right,
57,14,1,0.4510206000013568,['c'],0,right,['e'],0,0.10724200000186102,0.4,1,0,FastFast,29,17,Woman,Right,
58,14,1,0.6844117000000551,['n'],1,right,['e'],0,0.22205469999971683,0.4,0,0,FastFast,29,17,Woman,Right,
59,14,1,0.6509689999984403,['c'],1,left,['u'],1,0.1744180999994569,0.2,1,0,FastFast,29,17,Woman,Right,
0,15,1,3.7174919999997655,['n'],0,left,['e'],0,0.4022009000000253,0.1,1,0,AccFast,29,17,Woman,Right,
1,15,1,1.433526200002234,['c'],1,left,['e'],0,0.9870819999996456,0.1,0,0,AccFast,29,17,Woman,Right,
2,15,1,2.4342369999976654,['n'],1,right,['u'],1,0.3570703000004869,0.1,1,0,AccFast,29,17,Woman,Right,
3,15,1,1.0673884000025282,['c'],1,left,['u'],1,0.19043410000085714,0.1,1,0,AccFast,29,17,Woman,Right,
4,15,1,3.084479299999657,['n'],0,left,['e'],0,0.11114399999860325,0.4,1,0,AccFast,29,17,Woman,Right,
5,15,1,1.1675976999977138,['c'],1,left,['e'],0,0.38193930000124965,0.4,0,0,AccFast,29,17,Woman,Right,
6,15,1,2.5331208999996306,['n'],1,right,['e'],0,0.21975390000079642,0.2,0,0,AccFast,29,17,Woman,Right,
7,15,1,0.7679645999996865,['n'],1,right,['u'],1,0.10272980000081589,0.2,1,0,AccFast,29,17,Woman,Right,
8,15,1,0.8841305000023567,['n'],1,right,['u'],1,0.16228069999851868,0.2,1,0,AccFast,29,17,Woman,Right,
9,15,1,1.0681076000000758,['n'],1,right,['e'],0,0.14748840000174823,0.1,0,0,AccFast,29,17,Woman,Right,
10,15,1,0.8998152999993181,['n'],1,right,['u'],1,0.3322076000004017,0.4,1,0,AccFast,29,17,Woman,Right,
11,15,1,1.434616400001687,['n'],0,left,['e'],0,0.18308840000099735,0.1,1,0,AccFast,29,17,Woman,Right,
12,15,1,2.734496400000353,['c'],1,left,['e'],0,0.1488337999981013,0.2,0,0,AccFast,29,17,Woman,Right,
13,15,1,0.8504845999996178,['n'],0,left,['e'],0,0.19152029999895603,0.2,1,0,AccFast,29,17,Woman,Right,
14,15,1,1.2014949999975215,['n'],0,left,['e'],0,0.1380663000018103,0.2,1,0,AccFast,29,17,Woman,Right,
15,15,1,0.6844711999983701,['n'],1,right,['e'],0,0.18778739999834215,0.2,0,0,AccFast,29,17,Woman,Right,
16,15,1,0.8665509000020393,['n'],0,left,['e'],0,0.11722790000203531,0.2,1,0,AccFast,29,17,Woman,Right,
17,15,1,0.8001174999990326,['c'],1,left,['u'],1,0.3056464000001142,0.4,1,0,AccFast,29,17,Woman,Right,
18,15,1,1.033917400000064,['n'],1,right,['e'],0,1.278577100001712,0.1,0,0,AccFast,29,17,Woman,Right,
19,15,1,3.0173987000016496,['n'],1,right,['u'],1,0.6771585999995295,0.4,1,0,AccFast,29,17,Woman,Right,
20,15,1,1.3179096999992908,['n'],1,right,['u'],1,0.7760929000032775,0.4,1,0,AccFast,29,17,Woman,Right,
21,15,1,2.0998032999996212,['n'],1,right,['u'],1,0.20042219999959343,0.1,1,0,AccFast,29,17,Woman,Right,
22,15,1,1.6012978999970073,['n'],0,left,['u'],1,0.3701549999968847,0.1,0,0,AccFast,29,17,Woman,Right,
23,15,1,1.0504819999987376,['n'],1,right,['u'],1,0.3798924000002444,0.4,1,0,AccFast,29,17,Woman,Right,
24,15,1,1.217064799999207,['n'],1,right,['u'],1,0.14212620000034804,0.2,1,0,AccFast,29,17,Woman,Right,
25,15,1,0.9009904999984428,['n'],1,right,['u'],1,0.7112433000002056,0.4,1,0,AccFast,29,17,Woman,Right,
26,15,1,1.6346396999979333,['c'],1,left,['e'],0,0.36418589999811957,0.2,0,0,AccFast,29,17,Woman,Right,
27,15,1,1.1000774999993155,['c'],1,left,['e'],0,0.19583889999921666,0.1,0,0,AccFast,29,17,Woman,Right,
28,15,1,1.067933099999209,['c'],1,left,['e'],0,0.13144929999907617,0.2,0,0,AccFast,29,17,Woman,Right,
29,15,1,0.7348304000006465,['n'],1,right,['u'],1,0.4028468999968027,0.4,1,0,AccFast,29,17,Woman,Right,
30,15,1,1.2509425999996893,['n'],0,left,['e'],0,0.1954848999994283,0.4,1,0,AccFast,29,17,Woman,Right,
31,15,1,1.0177920000023732,['n'],1,right,['e'],0,0.21287419999862323,0.2,0,0,AccFast,29,17,Woman,Right,
32,15,1,1.4179836000002979,['n'],1,right,['e'],0,0.24660570000196458,0.2,0,0,AccFast,29,17,Woman,Right,
33,15,1,1.5670098000009602,['n'],1,right,['e'],0,0.16049470000143629,0.2,0,0,AccFast,29,17,Woman,Right,
34,15,1,1.1166936000008718,['n'],1,right,['u'],1,0.36737390000052983,0.1,1,0,AccFast,29,17,Woman,Right,
35,15,1,0.8344562999991467,['n'],1,right,['e'],0,0.08136800000283984,0.1,0,0,AccFast,29,17,Woman,Right,
36,15,1,1.267596899997443,['n'],1,right,['u'],1,0.07787580000149319,0.2,1,0,AccFast,29,17,Woman,Right,
37,15,1,1.7333532000011473,['n'],0,left,['e'],0,0.18449650000184192,0.2,1,0,AccFast,29,17,Woman,Right,
38,15,1,0.7174816999977338,['c'],1,left,['e'],0,0.18242289999761852,0.4,0,0,AccFast,29,17,Woman,Right,
39,15,1,0.7678621999984898,['c'],1,left,['u'],1,0.11456700000053388,0.2,1,0,AccFast,29,17,Woman,Right,
40,15,1,1.2338395999977365,['n'],0,left,['e'],0,0.1591526000011072,0.1,1,0,AccFast,29,17,Woman,Right,
41,15,1,1.5832597999979043,['c'],0,right,['e'],0,0.10866680000253837,0.1,1,0,AccFast,29,17,Woman,Right,
42,15,1,3.4994834999997693,['n'],1,right,['e'],0,0.11043480000080308,0.1,0,0,AccFast,29,17,Woman,Right,
43,15,1,2.018282700002601,['n'],0,left,['e'],0,0.17199450000043726,0.1,1,0,AccFast,29,17,Woman,Right,
44,15,1,2.4675643000009586,['n'],1,right,['u'],1,1.0772118000022601,0.2,1,0,AccFast,29,17,Woman,Right,
45,15,1,0.88434849999976,['n'],0,left,['e'],0,0.07413749999977881,0.1,1,0,AccFast,29,17,Woman,Right,
46,15,1,2.134039300002769,['c'],1,left,['u'],1,0.9158210000023246,0.4,1,0,AccFast,29,17,Woman,Right,
47,15,1,1.135017799999332,['c'],1,left,['u'],1,0.2442282999982126,0.4,1,0,AccFast,29,17,Woman,Right,
48,15,1,0.7342017999981181,['n'],1,right,['u'],1,0.17588310000064666,0.4,1,0,AccFast,29,17,Woman,Right,
49,15,1,0.700356000001193,['n'],1,right,['u'],1,0.17530149999947753,0.4,1,0,AccFast,29,17,Woman,Right,
50,15,1,2.967566600000282,['n'],0,left,['e'],0,0.16453550000005635,0.1,1,0,AccFast,29,17,Woman,Right,
51,15,1,1.6331516999998712,['c'],1,left,['e'],0,0.4468740999982401,0.4,0,0,AccFast,29,17,Woman,Right,
52,15,1,0.751157399998192,['n'],1,right,['u'],1,0.2251217999983055,0.2,1,0,AccFast,29,17,Woman,Right,
53,15,1,1.3506753000001481,['c'],1,left,['u'],1,0.2928844999987632,0.4,1,0,AccFast,29,17,Woman,Right,
54,15,1,0.8003271000015957,['n'],1,right,['u'],1,0.3159699999996519,0.4,1,0,AccFast,29,17,Woman,Right,
55,15,1,1.2337882000028912,['c'],1,left,['e'],0,0.640044100000523,0.4,0,0,AccFast,29,17,Woman,Right,
56,15,1,0.5831475999984832,['n'],1,right,['u'],1,0.41848839999875054,0.4,1,0,AccFast,29,17,Woman,Right,
57,15,1,1.6176886999965063,['c'],1,left,['e'],0,0.4026884000013524,0.1,0,0,AccFast,29,17,Woman,Right,
58,15,1,1.584002399999008,['n'],1,right,['e'],0,0.21386919999713427,0.2,0,0,AccFast,29,17,Woman,Right,
59,15,1,3.500901999999769,['n'],0,left,['e'],0,0.1795730999983789,0.1,1,0,AccFast,29,17,Woman,Right,
