withinblocktrial,block,block_repetition,rt,resp,cor,cresp,conf_press,cj,rtconf,coherence,metacognition,slow_trial,manipulation,sub,age,gender,handedness,
0,1,1,1.334435200000371,['c'],1,left,none,-99,-99,0.5,-99,0,none,39,18,Woman,Right,
1,1,1,1.0497798999986117,['n'],0,left,none,-99,-99,0.5,-99,0,none,39,18,Woman,Right,
2,1,1,0.6328563999995822,['n'],1,right,none,-99,-99,0.5,-99,0,none,39,18,Woman,Right,
3,1,1,0.5685868000000482,['n'],1,right,none,-99,-99,0.5,-99,0,none,39,18,Woman,Right,
4,1,1,0.33266379999986384,['c'],0,right,none,-99,-99,0.5,-99,0,none,39,18,Woman,Right,
5,1,1,0.4343189999999595,['n'],1,right,none,-99,-99,0.5,-99,0,none,39,18,Woman,Right,
6,1,1,0.850414799999271,['c'],0,right,none,-99,-99,0.5,-99,0,none,39,18,Woman,Right,
7,1,1,1.0824240000001737,['n'],1,right,none,-99,-99,0.5,-99,0,none,39,18,Woman,Right,
8,1,1,0.616087599999446,['c'],1,left,none,-99,-99,0.5,-99,0,none,39,18,Woman,Right,
9,1,1,0.635308900000382,['c'],1,left,none,-99,-99,0.5,-99,0,none,39,18,Woman,Right,
10,1,1,0.8002833999998984,['n'],0,left,none,-99,-99,0.5,-99,0,none,39,18,Woman,Right,
11,1,1,0.552494999999908,['c'],1,left,none,-99,-99,0.5,-99,0,none,39,18,Woman,Right,
12,1,1,0.5507062000015139,['c'],1,left,none,-99,-99,0.5,-99,0,none,39,18,Woman,Right,
13,1,1,0.5338601999992534,['n'],1,right,none,-99,-99,0.5,-99,0,none,39,18,Woman,Right,
14,1,1,0.4667663000000175,['c'],1,left,none,-99,-99,0.5,-99,0,none,39,18,Woman,Right,
15,1,1,0.4180632000006881,['n'],1,right,none,-99,-99,0.5,-99,0,none,39,18,Woman,Right,
16,1,1,0.5171312000002217,['c'],1,left,none,-99,-99,0.5,-99,0,none,39,18,Woman,Right,
17,1,1,0.7503527999997459,['n'],1,right,none,-99,-99,0.5,-99,0,none,39,18,Woman,Right,
18,1,1,0.6018070999998599,['c'],0,right,none,-99,-99,0.5,-99,0,none,39,18,Woman,Right,
19,1,1,1.382636000000275,['n'],1,right,none,-99,-99,0.5,-99,0,none,39,18,Woman,Right,
20,1,1,0.46670950000043376,['c'],1,left,none,-99,-99,0.5,-99,0,none,39,18,Woman,Right,
21,1,1,0.41694709999865154,['n'],1,right,none,-99,-99,0.5,-99,0,none,39,18,Woman,Right,
22,1,1,0.533381900000677,['c'],1,left,none,-99,-99,0.5,-99,0,none,39,18,Woman,Right,
23,1,1,0.5001651000002312,['c'],1,left,none,-99,-99,0.5,-99,0,none,39,18,Woman,Right,
0,1,2,0.5521492999996553,['c'],1,left,none,-99,-99,0.5,-99,0,none,39,18,Woman,Right,
1,1,2,0.5009044999987964,['c'],1,left,none,-99,-99,0.5,-99,0,none,39,18,Woman,Right,
2,1,2,0.4675719000006211,['n'],1,right,none,-99,-99,0.5,-99,0,none,39,18,Woman,Right,
3,1,2,0.41730230000030133,['c'],1,left,none,-99,-99,0.5,-99,0,none,39,18,Woman,Right,
4,1,2,0.4842262000001938,['c'],1,left,none,-99,-99,0.5,-99,0,none,39,18,Woman,Right,
5,1,2,0.5338062999999238,['c'],1,left,none,-99,-99,0.5,-99,0,none,39,18,Woman,Right,
6,1,2,0.6505305999999109,['c'],1,left,none,-99,-99,0.5,-99,0,none,39,18,Woman,Right,
7,1,2,0.9991730000001553,['c'],0,right,none,-99,-99,0.5,-99,0,none,39,18,Woman,Right,
8,1,2,0.4152886000010767,['c'],1,left,none,-99,-99,0.5,-99,0,none,39,18,Woman,Right,
9,1,2,0.4012089999996533,['n'],1,right,none,-99,-99,0.5,-99,0,none,39,18,Woman,Right,
10,1,2,0.717155599999387,['n'],1,right,none,-99,-99,0.5,-99,0,none,39,18,Woman,Right,
11,1,2,0.4686673999985942,['n'],1,right,none,-99,-99,0.5,-99,0,none,39,18,Woman,Right,
12,1,2,0.535391500001424,['n'],1,right,none,-99,-99,0.5,-99,0,none,39,18,Woman,Right,
13,1,2,0.46720400000049267,['c'],1,left,none,-99,-99,0.5,-99,0,none,39,18,Woman,Right,
14,1,2,0.5159285000008822,['n'],1,right,none,-99,-99,0.5,-99,0,none,39,18,Woman,Right,
15,1,2,0.5004516000008152,['c'],1,left,none,-99,-99,0.5,-99,0,none,39,18,Woman,Right,
16,1,2,0.45071610000013607,['n'],1,right,none,-99,-99,0.5,-99,0,none,39,18,Woman,Right,
17,1,2,0.5160314000004291,['n'],1,right,none,-99,-99,0.5,-99,0,none,39,18,Woman,Right,
18,1,2,0.41779049999968265,['c'],0,right,none,-99,-99,0.5,-99,0,none,39,18,Woman,Right,
19,1,2,1.0999393999991298,['c'],0,right,none,-99,-99,0.5,-99,0,none,39,18,Woman,Right,
20,1,2,0.5343911999989359,['c'],1,left,none,-99,-99,0.5,-99,0,none,39,18,Woman,Right,
21,1,2,0.31798840000010387,['n'],1,right,none,-99,-99,0.5,-99,0,none,39,18,Woman,Right,
22,1,2,0.48212249999960477,['c'],1,left,none,-99,-99,0.5,-99,0,none,39,18,Woman,Right,
23,1,2,0.36827830000038375,['c'],1,left,none,-99,-99,0.5,-99,0,none,39,18,Woman,Right,
0,2,1,1.6009845999997196,['c'],1,left,none,-99,-99,0.1,-99,0,none,39,18,Woman,Right,
1,2,1,0.6012174999996205,['n'],1,right,none,-99,-99,0.4,-99,0,none,39,18,Woman,Right,
2,2,1,0.6158929000011995,['c'],1,left,none,-99,-99,0.1,-99,0,none,39,18,Woman,Right,
3,2,1,0.534651699999813,['n'],1,right,none,-99,-99,0.1,-99,0,none,39,18,Woman,Right,
4,2,1,0.5316714000000502,['n'],1,right,none,-99,-99,0.1,-99,0,none,39,18,Woman,Right,
5,2,1,0.3848483000001579,['c'],0,right,none,-99,-99,0.2,-99,0,none,39,18,Woman,Right,
6,2,1,0.5829989000012574,['c'],1,left,none,-99,-99,0.4,-99,0,none,39,18,Woman,Right,
7,2,1,0.46706930000073044,['c'],1,left,none,-99,-99,0.1,-99,0,none,39,18,Woman,Right,
8,2,1,0.5497648000000481,['n'],1,right,none,-99,-99,0.2,-99,0,none,39,18,Woman,Right,
9,2,1,0.3176156000008632,['c'],1,left,none,-99,-99,0.2,-99,0,none,39,18,Woman,Right,
10,2,1,0.45044880000023113,['c'],0,right,none,-99,-99,0.2,-99,0,none,39,18,Woman,Right,
11,2,1,0.6998737000012625,['c'],0,right,none,-99,-99,0.4,-99,0,none,39,18,Woman,Right,
12,2,1,1.9491627000006702,['n'],0,left,none,-99,-99,0.1,-99,0,none,39,18,Woman,Right,
13,2,1,0.5655953999994381,['c'],1,left,none,-99,-99,0.4,-99,0,none,39,18,Woman,Right,
14,2,1,0.6993191000001389,['c'],1,left,none,-99,-99,0.4,-99,0,none,39,18,Woman,Right,
15,2,1,0.6664394999988872,['n'],1,right,none,-99,-99,0.2,-99,0,none,39,18,Woman,Right,
16,2,1,0.36733490000005986,['c'],0,right,none,-99,-99,0.4,-99,0,none,39,18,Woman,Right,
17,2,1,0.650001500000144,['c'],0,right,none,-99,-99,0.4,-99,0,none,39,18,Woman,Right,
18,2,1,0.7497476999997161,['n'],1,right,none,-99,-99,0.2,-99,0,none,39,18,Woman,Right,
19,2,1,0.5834462999991956,['c'],1,left,none,-99,-99,0.1,-99,0,none,39,18,Woman,Right,
20,2,1,0.5344273999999132,['n'],1,right,none,-99,-99,0.2,-99,0,none,39,18,Woman,Right,
21,2,1,0.7338406999988365,['c'],1,left,none,-99,-99,0.1,-99,0,none,39,18,Woman,Right,
22,2,1,0.433360700000776,['n'],0,left,none,-99,-99,0.2,-99,0,none,39,18,Woman,Right,
23,2,1,0.6174073999991379,['c'],1,left,none,-99,-99,0.4,-99,0,none,39,18,Woman,Right,
0,3,1,1.3011860000005981,['c'],0,right,['e'],0,2.358280200000081,0.1,1,0,none,39,18,Woman,Right,
1,3,1,0.8850001000009797,['n'],1,right,['u'],1,0.7805735000001732,0.4,1,0,none,39,18,Woman,Right,
2,3,1,0.6673197000000073,['n'],1,right,['u'],1,0.4408012999992934,0.1,1,0,none,39,18,Woman,Right,
3,3,1,1.1848454000009951,['c'],0,right,['e'],0,1.7094562000002043,0.4,1,0,none,39,18,Woman,Right,
4,3,1,2.5665217000005214,['c'],0,right,['u'],1,0.7780457999997452,0.4,0,0,none,39,18,Woman,Right,
5,3,1,1.0835170000009384,['c'],1,left,['e'],0,0.9179363000002922,0.4,0,0,none,39,18,Woman,Right,
6,3,1,0.966440700000021,['n'],0,left,['e'],0,1.537125200000446,0.1,1,0,none,39,18,Woman,Right,
7,3,1,2.2009400999995705,['c'],1,left,['e'],0,0.8502293000001373,0.2,0,0,none,39,18,Woman,Right,
8,3,1,0.8169144999992568,['c'],1,left,['u'],1,0.9658391000011761,0.2,1,0,none,39,18,Woman,Right,
9,3,1,0.8336732000007032,['c'],1,left,['u'],1,0.38795720000052825,0.2,1,0,none,39,18,Woman,Right,
10,3,1,1.2849679999999353,['c'],0,right,['u'],1,0.4555166000009194,0.1,0,0,none,39,18,Woman,Right,
11,3,1,2.1511083000004874,['c'],0,right,['e'],0,0.6780849999995553,0.1,1,0,none,39,18,Woman,Right,
12,3,1,0.7016070999998192,['c'],1,left,['u'],1,0.6295351999997365,0.2,1,0,none,39,18,Woman,Right,
13,3,1,1.0505257000004349,['n'],1,right,['e'],0,0.6018539000015153,0.1,0,0,none,39,18,Woman,Right,
14,3,1,2.851052599999093,['n'],0,left,['e'],0,0.5653407999998308,0.2,1,0,none,39,18,Woman,Right,
15,3,1,0.733427400000437,['n'],0,left,['e'],0,0.37588879999930214,0.1,1,0,none,39,18,Woman,Right,
16,3,1,1.3506803000000218,['c'],1,left,['u'],1,0.4087875000004715,0.1,1,0,none,39,18,Woman,Right,
17,3,1,2.59983259999899,['n'],1,right,['e'],0,0.8076289999989967,0.4,0,0,none,39,18,Woman,Right,
18,3,1,1.6834587000012107,['c'],0,right,['e'],0,0.23451200000090466,0.2,1,0,none,39,18,Woman,Right,
19,3,1,1.4676085000010062,['n'],1,right,['u'],1,0.8127112999991368,0.4,1,0,none,39,18,Woman,Right,
20,3,1,1.217411199999333,['c'],1,left,['e'],0,0.753934800000934,0.4,0,0,none,39,18,Woman,Right,
21,3,1,1.0839265000013256,['n'],1,right,['u'],1,0.2552981999997428,0.4,1,0,none,39,18,Woman,Right,
22,3,1,0.6835735999993631,['c'],1,left,['u'],1,0.25665010000011534,0.2,1,0,none,39,18,Woman,Right,
23,3,1,1.0172962000015104,['c'],1,left,['u'],1,0.1633568999986892,0.2,1,0,none,39,18,Woman,Right,
0,4,1,2.383480199998303,['c'],1,left,['e'],0,1.279773700000078,0.1,0,0,AccFast,39,18,Woman,Right,
1,4,1,1.3835106000005908,['n'],1,right,['e'],0,0.7437702000006539,0.2,0,0,AccFast,39,18,Woman,Right,
2,4,1,1.168101299999762,['n'],1,right,['u'],1,0.8625233000002481,0.4,1,0,AccFast,39,18,Woman,Right,
3,4,1,1.5508314999988215,['c'],0,right,['u'],1,0.7356662000001961,0.4,0,0,AccFast,39,18,Woman,Right,
4,4,1,0.6682178999999451,['c'],1,left,['e'],0,0.9706760999997641,0.4,0,0,AccFast,39,18,Woman,Right,
5,4,1,0.9005145000010089,['n'],1,right,['u'],1,0.6262758000011672,0.4,1,0,AccFast,39,18,Woman,Right,
6,4,1,0.7503314999994473,['c'],1,left,['e'],0,0.49396340000021155,0.1,0,0,AccFast,39,18,Woman,Right,
7,4,1,1.1681979000004503,['n'],0,left,['u'],1,0.6374826999999641,0.2,0,0,AccFast,39,18,Woman,Right,
8,4,1,0.9174511000001075,['c'],0,right,['u'],1,0.6420052999983454,0.2,0,0,AccFast,39,18,Woman,Right,
9,4,1,1.4005827000000863,['n'],1,right,['e'],0,0.6113408000001073,0.1,0,0,AccFast,39,18,Woman,Right,
10,4,1,1.3846654999997554,['c'],0,right,['e'],0,0.6472436999993079,0.2,1,0,AccFast,39,18,Woman,Right,
11,4,1,1.483104999999341,['c'],1,left,['u'],1,0.7239241000006587,0.1,1,0,AccFast,39,18,Woman,Right,
12,4,1,0.8338953999991645,['c'],1,left,['e'],0,0.42407789999924717,0.2,0,0,AccFast,39,18,Woman,Right,
13,4,1,1.0830695999993623,['c'],0,right,['e'],0,0.8946016999998392,0.4,1,0,AccFast,39,18,Woman,Right,
14,4,1,0.5511286000000837,['n'],1,right,['u'],1,0.6307672999992064,0.4,1,0,AccFast,39,18,Woman,Right,
15,4,1,0.6830331999990449,['c'],1,left,['e'],0,0.3892450999992434,0.1,0,0,AccFast,39,18,Woman,Right,
16,4,1,0.6683340999989014,['c'],1,left,['u'],1,0.2847738999989815,0.4,1,0,AccFast,39,18,Woman,Right,
17,4,1,0.8508888999986084,['n'],1,right,['e'],0,0.6425758000004862,0.1,0,0,AccFast,39,18,Woman,Right,
18,4,1,1.5170402000003378,['n'],0,left,['e'],0,0.6703071000010823,0.1,1,0,AccFast,39,18,Woman,Right,
19,4,1,0.8026934999998048,['c'],1,left,['e'],0,0.9019951999998739,0.1,0,0,AccFast,39,18,Woman,Right,
20,4,1,0.6507557999993878,['n'],0,left,['e'],0,0.47444419999919774,0.1,1,0,AccFast,39,18,Woman,Right,
21,4,1,1.050148000000263,['n'],1,right,['u'],1,0.24042819999885978,0.4,1,0,AccFast,39,18,Woman,Right,
22,4,1,1.7016115000005811,['c'],1,left,['e'],0,0.9810844000003272,0.1,0,0,AccFast,39,18,Woman,Right,
23,4,1,1.5998732999996719,['n'],0,left,['e'],0,1.7280800999997155,0.4,1,0,AccFast,39,18,Woman,Right,
24,4,1,1.0513699000002816,['n'],1,right,['u'],1,0.5639383000016096,0.2,1,0,AccFast,39,18,Woman,Right,
25,4,1,0.6836170999995375,['c'],1,left,['e'],0,0.3723709999994753,0.4,0,0,AccFast,39,18,Woman,Right,
26,4,1,1.0172796000006201,['n'],0,left,['u'],1,0.15898079999897163,0.2,0,0,AccFast,39,18,Woman,Right,
27,4,1,0.9838908000001538,['n'],1,right,['u'],1,0.14822430000094755,0.2,1,0,AccFast,39,18,Woman,Right,
28,4,1,0.9343356999997923,['c'],1,left,['e'],0,0.18700480000006792,0.2,0,0,AccFast,39,18,Woman,Right,
29,4,1,0.9338729000010062,['n'],0,left,['u'],1,0.2407352999998693,0.1,0,0,AccFast,39,18,Woman,Right,
30,4,1,1.567679899999348,['c'],0,right,['e'],0,0.81091860000015,0.2,1,0,AccFast,39,18,Woman,Right,
31,4,1,1.1666234000003897,['c'],1,left,['e'],0,0.1269611999996414,0.2,0,0,AccFast,39,18,Woman,Right,
32,4,1,2.517885600000227,['n'],1,right,['e'],0,0.8078380999995716,0.1,0,0,AccFast,39,18,Woman,Right,
33,4,1,1.5677732000003743,['n'],1,right,['u'],1,0.17161380000106874,0.2,1,0,AccFast,39,18,Woman,Right,
34,4,1,1.250399300000936,['c'],1,left,['e'],0,0.1812621000008221,0.1,0,0,AccFast,39,18,Woman,Right,
35,4,1,3.701326500000505,['n'],0,left,['e'],0,0.25259060000098543,0.1,1,0,AccFast,39,18,Woman,Right,
36,4,1,1.150149799999781,['n'],1,right,['e'],0,0.23085820000051172,0.2,0,0,AccFast,39,18,Woman,Right,
37,4,1,1.3171342999994522,['c'],0,right,['e'],0,0.18720310000026075,0.2,1,0,AccFast,39,18,Woman,Right,
38,4,1,1.0353059000008216,['c'],0,right,['e'],0,0.3007868000004237,0.2,1,0,AccFast,39,18,Woman,Right,
39,4,1,3.5508205000005546,['c'],1,left,['e'],0,0.8214138000003004,0.4,0,0,AccFast,39,18,Woman,Right,
40,4,1,1.1682077000004938,['n'],1,right,['e'],0,0.13651969999955327,0.1,0,0,AccFast,39,18,Woman,Right,
41,4,1,1.117906999999832,['n'],0,left,['e'],0,0.1528558999998495,0.1,1,0,AccFast,39,18,Woman,Right,
42,4,1,1.6846007000003738,['n'],1,right,['u'],1,0.16170620000048075,0.4,1,0,AccFast,39,18,Woman,Right,
43,4,1,1.6664626999991015,['n'],1,right,['u'],1,0.5555688999993436,0.2,1,0,AccFast,39,18,Woman,Right,
44,4,1,2.2171459999990475,['c'],0,right,['e'],0,0.12665980000019772,0.4,1,0,AccFast,39,18,Woman,Right,
45,4,1,0.8347869999997783,['c'],1,left,['e'],0,0.21885090000068885,0.4,0,0,AccFast,39,18,Woman,Right,
46,4,1,0.9496768999997585,['n'],1,right,['u'],1,0.17532650000066496,0.4,1,0,AccFast,39,18,Woman,Right,
47,4,1,1.4830641000007745,['c'],0,right,['u'],1,0.6397102000009909,0.4,0,0,AccFast,39,18,Woman,Right,
48,4,1,1.0673483000009583,['c'],1,left,['u'],1,0.17365350000000035,0.2,1,0,AccFast,39,18,Woman,Right,
49,4,1,1.1851300000016636,['n'],1,right,['u'],1,0.15358139999989362,0.2,1,0,AccFast,39,18,Woman,Right,
50,4,1,1.9506168000007165,['n'],1,right,['u'],1,0.200817900000402,0.2,1,0,AccFast,39,18,Woman,Right,
51,4,1,0.8839259999986098,['n'],1,right,['e'],0,0.17518860000018321,0.4,0,0,AccFast,39,18,Woman,Right,
52,4,1,1.13458300000093,['c'],1,left,['u'],1,0.2377918000001955,0.2,1,0,AccFast,39,18,Woman,Right,
53,4,1,1.2678925000000163,['c'],1,left,['u'],1,0.5315436999990197,0.4,1,0,AccFast,39,18,Woman,Right,
54,4,1,3.4504206999990856,['c'],1,left,['e'],0,0.85486900000069,0.1,0,0,AccFast,39,18,Woman,Right,
55,4,1,1.1344981999991433,['c'],0,right,['e'],0,0.20203439999932016,0.1,1,0,AccFast,39,18,Woman,Right,
56,4,1,1.5510839999988093,['n'],0,left,['u'],1,0.1511543000015081,0.1,0,0,AccFast,39,18,Woman,Right,
57,4,1,0.6516589000002568,['c'],1,left,['u'],1,0.4887562000003527,0.4,1,0,AccFast,39,18,Woman,Right,
58,4,1,3.034498499999245,['c'],1,left,['e'],0,0.3184653000007529,0.1,0,0,AccFast,39,18,Woman,Right,
59,4,1,0.8165594000001875,['n'],1,right,['u'],1,0.14800840000134485,0.4,1,0,AccFast,39,18,Woman,Right,
0,5,1,5.01666060000025,x,-99,left,none,-99,-99,0.1,-99,1,AccAcc,39,18,Woman,Right,
1,5,1,2.1003537999986293,['n'],0,left,['e'],0,0.6318350000001374,0.1,1,0,AccAcc,39,18,Woman,Right,
2,5,1,2.084608899998784,['c'],0,right,['e'],0,0.7336352999991504,0.2,1,0,AccAcc,39,18,Woman,Right,
3,5,1,1.3327898000006826,['c'],1,left,['u'],1,0.4783760999998776,0.2,1,0,AccAcc,39,18,Woman,Right,
4,5,1,1.3668615999995382,['n'],1,right,['u'],1,0.34256290000121226,0.2,1,0,AccAcc,39,18,Woman,Right,
5,5,1,1.9328607000006741,['c'],0,right,['u'],1,0.1900906999999279,0.4,0,0,AccAcc,39,18,Woman,Right,
6,5,1,1.467359199999919,['c'],1,left,['e'],0,0.3348124000003736,0.4,0,0,AccAcc,39,18,Woman,Right,
7,5,1,3.232346200000393,['c'],1,left,['u'],1,0.4838978000007046,0.2,1,0,AccAcc,39,18,Woman,Right,
8,5,1,0.9843383999996149,['c'],1,left,['u'],1,0.21890840000014578,0.2,1,0,AccAcc,39,18,Woman,Right,
9,5,1,1.001279699999941,['n'],1,right,['u'],1,0.427851999998893,0.1,1,0,AccAcc,39,18,Woman,Right,
10,5,1,1.2826737000013964,['c'],0,right,['u'],1,0.2828970999999001,0.1,0,0,AccAcc,39,18,Woman,Right,
11,5,1,0.8668074999986857,['c'],1,left,['u'],1,0.20720270000128949,0.4,1,0,AccAcc,39,18,Woman,Right,
12,5,1,0.6849536999998236,['n'],1,right,['u'],1,0.30140839999876334,0.4,1,0,AccAcc,39,18,Woman,Right,
13,5,1,0.8668202999997447,['c'],0,right,['u'],1,0.3219504999997298,0.1,0,0,AccAcc,39,18,Woman,Right,
14,5,1,1.1846144999999524,['n'],0,left,['u'],1,0.27959109999937937,0.1,0,0,AccAcc,39,18,Woman,Right,
15,5,1,1.4009743999995408,['c'],1,left,['u'],1,0.310595300001296,0.1,1,0,AccAcc,39,18,Woman,Right,
16,5,1,1.0831464000002597,['c'],0,right,['u'],1,0.28983770000013465,0.1,0,0,AccAcc,39,18,Woman,Right,
17,5,1,0.7499112999994395,['c'],1,left,['u'],1,0.13872400000036578,0.2,1,0,AccAcc,39,18,Woman,Right,
18,5,1,0.5997306999997818,['c'],1,left,['u'],1,0.143919600001027,0.2,1,0,AccAcc,39,18,Woman,Right,
19,5,1,1.0348601000005146,['n'],1,right,['u'],1,0.09961800000019139,0.2,1,0,AccAcc,39,18,Woman,Right,
20,5,1,1.0666970000002038,['c'],1,left,['u'],1,0.11884299999837822,0.2,1,0,AccAcc,39,18,Woman,Right,
21,5,1,0.9332475999999588,['n'],1,right,['u'],1,0.22354509999968286,0.4,1,0,AccAcc,39,18,Woman,Right,
22,5,1,1.0009479000000283,['c'],1,left,['u'],1,0.11226829999941401,0.4,1,0,AccAcc,39,18,Woman,Right,
23,5,1,0.6507806000008713,['c'],0,right,['u'],1,0.14797490000091784,0.1,0,0,AccAcc,39,18,Woman,Right,
24,5,1,0.534336999999141,['c'],1,left,['u'],1,0.15492619999895396,0.2,1,0,AccAcc,39,18,Woman,Right,
25,5,1,0.8662242999998853,['c'],1,left,['u'],1,0.24521480000112206,0.2,1,0,AccAcc,39,18,Woman,Right,
26,5,1,0.6678069000008691,['c'],1,left,['u'],1,0.22691310000118392,0.4,1,0,AccAcc,39,18,Woman,Right,
27,5,1,0.6347728000000643,['n'],1,right,['u'],1,0.16297019999910844,0.4,1,0,AccAcc,39,18,Woman,Right,
28,5,1,0.6182726999995793,['c'],0,right,['u'],1,0.13378949999969336,0.4,0,0,AccAcc,39,18,Woman,Right,
29,5,1,1.168002799999158,['c'],1,left,['u'],1,0.2122918999993999,0.4,1,0,AccAcc,39,18,Woman,Right,
30,5,1,0.4339159000010113,['n'],1,right,['u'],1,0.2205814000008104,0.4,1,0,AccAcc,39,18,Woman,Right,
31,5,1,0.5823115000002872,['c'],0,right,['u'],1,0.20740599999953702,0.1,0,0,AccAcc,39,18,Woman,Right,
32,5,1,2.68337480000082,['c'],1,left,['u'],1,0.3827526000004582,0.4,1,0,AccAcc,39,18,Woman,Right,
33,5,1,0.9341047999987495,['n'],1,right,['u'],1,0.1555026000005455,0.2,1,0,AccAcc,39,18,Woman,Right,
34,5,1,0.6844133999984479,['c'],1,left,['u'],1,0.18872530000044208,0.2,1,0,AccAcc,39,18,Woman,Right,
35,5,1,0.7667697000015323,['n'],1,right,['u'],1,0.15332149999994726,0.4,1,0,AccAcc,39,18,Woman,Right,
36,5,1,1.3674697000005835,['c'],0,right,['u'],1,0.14232460000130231,0.2,0,0,AccAcc,39,18,Woman,Right,
37,5,1,0.6681719999996858,['c'],0,right,['u'],1,0.1296904999999242,0.4,0,0,AccAcc,39,18,Woman,Right,
38,5,1,3.5667176000006293,['c'],0,right,['e'],0,0.8794625000009546,0.1,1,0,AccAcc,39,18,Woman,Right,
39,5,1,0.7841752000003908,['c'],1,left,['u'],1,0.2870333999999275,0.4,1,0,AccAcc,39,18,Woman,Right,
40,5,1,0.7338108000003558,['n'],1,right,['u'],1,0.15267950000088604,0.4,1,0,AccAcc,39,18,Woman,Right,
41,5,1,2.868046099998537,['n'],1,right,['e'],0,0.7866401999999653,0.1,0,0,AccAcc,39,18,Woman,Right,
42,5,1,2.350802200000544,['c'],1,left,['e'],0,0.7921148000004905,0.1,0,0,AccAcc,39,18,Woman,Right,
43,5,1,0.6837384999998903,['n'],1,right,['u'],1,0.1431912000007287,0.2,1,0,AccAcc,39,18,Woman,Right,
44,5,1,0.8514470000009169,['c'],1,left,['u'],1,0.2189963999990141,0.2,1,0,AccAcc,39,18,Woman,Right,
45,5,1,3.4837109000000055,['c'],0,right,['e'],0,0.3459753000006458,0.1,1,0,AccAcc,39,18,Woman,Right,
46,5,1,1.9834162000006472,['c'],1,left,['e'],0,0.17528569999922183,0.1,0,0,AccAcc,39,18,Woman,Right,
47,5,1,1.2656839999999647,['c'],1,left,['u'],1,0.10490369999934046,0.4,1,0,AccAcc,39,18,Woman,Right,
48,5,1,0.5670133000003261,['c'],1,left,['u'],1,0.2085837000013271,0.4,1,0,AccAcc,39,18,Woman,Right,
49,5,1,0.6338596999994479,['c'],1,left,['u'],1,0.14428169999882812,0.2,1,0,AccAcc,39,18,Woman,Right,
50,5,1,0.8016582999989623,['c'],1,left,['u'],1,0.1568475000003673,0.1,1,0,AccAcc,39,18,Woman,Right,
51,5,1,0.6844568000014988,['n'],1,right,['u'],1,0.1419279000001552,0.1,1,0,AccAcc,39,18,Woman,Right,
52,5,1,0.9503533000006428,['n'],0,left,['u'],1,0.1654593000002933,0.1,0,0,AccAcc,39,18,Woman,Right,
53,5,1,0.9678222000002279,['n'],0,left,['u'],1,0.15406290000100853,0.1,0,0,AccAcc,39,18,Woman,Right,
54,5,1,3.6667719000015495,['c'],1,left,['e'],0,0.4837468000005174,0.2,0,0,AccAcc,39,18,Woman,Right,
55,5,1,0.9520425000009709,['n'],1,right,['u'],1,0.12460939999982656,0.2,1,0,AccAcc,39,18,Woman,Right,
56,5,1,0.5839508000008209,['n'],1,right,['u'],1,0.14709580000089773,0.4,1,0,AccAcc,39,18,Woman,Right,
57,5,1,0.9843333999997412,['n'],1,right,['u'],1,0.13620260000061535,0.1,1,0,AccAcc,39,18,Woman,Right,
58,5,1,0.5843303999990894,['n'],1,right,['u'],1,0.17367820000072243,0.2,1,0,AccAcc,39,18,Woman,Right,
59,5,1,0.46833780000088154,['n'],1,right,['u'],1,0.166474499999822,0.4,1,0,AccAcc,39,18,Woman,Right,
0,6,1,1.4835641999998188,['n'],1,right,['u'],1,0.11569469999994908,0.2,1,0,FastAcc,39,18,Woman,Right,
1,6,1,0.6167645000004995,['c'],1,left,['e'],0,0.2002680000005057,0.1,0,0,FastAcc,39,18,Woman,Right,
2,6,1,0.532355400000597,['n'],0,left,['u'],1,0.19017320000057225,0.2,0,0,FastAcc,39,18,Woman,Right,
3,6,1,0.469353599999522,['c'],1,left,['u'],1,0.14917310000055295,0.4,1,0,FastAcc,39,18,Woman,Right,
4,6,1,0.668168300000616,['c'],1,left,['u'],1,0.10249709999879997,0.4,1,0,FastAcc,39,18,Woman,Right,
5,6,1,0.5173357000003307,['c'],0,right,['u'],1,0.14394659999925352,0.4,0,0,FastAcc,39,18,Woman,Right,
6,6,1,0.4844964000003529,['c'],0,right,['u'],1,0.13814819999970496,0.2,0,0,FastAcc,39,18,Woman,Right,
7,6,1,1.0165507000001526,['n'],1,right,['u'],1,0.19049319999976433,0.4,1,0,FastAcc,39,18,Woman,Right,
8,6,1,0.8164108000000851,['n'],0,left,['u'],1,0.1843893000004755,0.1,0,0,FastAcc,39,18,Woman,Right,
9,6,1,0.6999567000002571,['c'],1,left,['u'],1,0.11909899999955087,0.2,1,0,FastAcc,39,18,Woman,Right,
10,6,1,0.6014108999988821,['n'],1,right,['u'],1,0.14076639999984764,0.2,1,0,FastAcc,39,18,Woman,Right,
11,6,1,0.7172393000000739,['n'],0,left,['u'],1,0.1415845999999874,0.2,0,0,FastAcc,39,18,Woman,Right,
12,6,1,0.9667573999995511,['c'],1,left,['u'],1,0.1646507000004931,0.1,1,0,FastAcc,39,18,Woman,Right,
13,6,1,0.5843440000007831,['n'],1,right,['u'],1,0.12046379999992496,0.1,1,0,FastAcc,39,18,Woman,Right,
14,6,1,0.534114199999749,['c'],0,right,['u'],1,0.20906769999965036,0.2,0,0,FastAcc,39,18,Woman,Right,
15,6,1,0.5011699000006047,['n'],1,right,['u'],1,0.11818680000033055,0.4,1,0,FastAcc,39,18,Woman,Right,
16,6,1,0.6004913999986456,['c'],1,left,['u'],1,0.14100359999974899,0.1,1,0,FastAcc,39,18,Woman,Right,
17,6,1,0.6006576999989193,['n'],0,left,['u'],1,0.1285342999999557,0.1,0,0,FastAcc,39,18,Woman,Right,
18,6,1,0.4861298000014358,['c'],1,left,['e'],0,0.23413369999980205,0.4,0,0,FastAcc,39,18,Woman,Right,
19,6,1,0.6328934000011941,['n'],0,left,['u'],1,0.13775019999957294,0.1,0,0,FastAcc,39,18,Woman,Right,
20,6,1,0.9680234999996173,['c'],1,left,['e'],0,0.5600011000005907,0.1,0,0,FastAcc,39,18,Woman,Right,
21,6,1,0.6173029000001407,['n'],1,right,['u'],1,0.1170471000004909,0.4,1,0,FastAcc,39,18,Woman,Right,
22,6,1,0.5159487000000809,['c'],1,left,['e'],0,0.2057585000002291,0.2,0,0,FastAcc,39,18,Woman,Right,
23,6,1,0.4837728000002244,['n'],1,right,['u'],1,0.13220039999941946,0.4,1,0,FastAcc,39,18,Woman,Right,
24,6,1,0.517240999999558,['c'],1,left,['u'],1,0.09181360000002314,0.1,1,0,FastAcc,39,18,Woman,Right,
25,6,1,0.5849689000006038,['n'],0,left,['e'],0,1.4274638000006235,0.4,1,0,FastAcc,39,18,Woman,Right,
26,6,1,0.7337539999989531,['n'],1,right,['u'],1,0.11239639999985229,0.4,1,0,FastAcc,39,18,Woman,Right,
27,6,1,0.48465759999999136,['c'],1,left,['u'],1,0.10626760000013746,0.4,1,0,FastAcc,39,18,Woman,Right,
28,6,1,0.48393860000032873,['n'],1,right,['u'],1,0.11699179999959597,0.2,1,0,FastAcc,39,18,Woman,Right,
29,6,1,0.4847562000013568,['c'],1,left,['u'],1,0.12706160000016098,0.1,1,0,FastAcc,39,18,Woman,Right,
30,6,1,0.8004674999992858,['c'],1,left,['u'],1,0.3810283000002528,0.2,1,0,FastAcc,39,18,Woman,Right,
31,6,1,0.6996937999992952,['n'],1,right,['u'],1,0.11562450000019453,0.4,1,0,FastAcc,39,18,Woman,Right,
32,6,1,1.7344713999991654,['c'],1,left,['e'],0,0.44405340000048454,0.1,0,0,FastAcc,39,18,Woman,Right,
33,6,1,0.6175442000003386,['n'],1,right,['u'],1,0.13307069999973464,0.1,1,0,FastAcc,39,18,Woman,Right,
34,6,1,0.7492440999994869,['c'],1,left,['e'],0,0.836699999999837,0.1,0,0,FastAcc,39,18,Woman,Right,
35,6,1,2.766642000000502,['n'],1,right,['e'],0,0.6631698000001052,0.2,0,0,FastAcc,39,18,Woman,Right,
36,6,1,1.2512550000010378,['n'],0,left,['e'],0,0.5248659000008047,0.1,1,0,FastAcc,39,18,Woman,Right,
37,6,1,0.9665893000001233,['c'],0,right,['e'],0,0.4840989999993326,0.2,1,0,FastAcc,39,18,Woman,Right,
38,6,1,0.8329972000010457,['c'],1,left,['e'],0,0.17798219999895082,0.2,0,0,FastAcc,39,18,Woman,Right,
39,6,1,0.5670192999987194,['n'],1,right,['u'],1,0.1497810999990179,0.4,1,0,FastAcc,39,18,Woman,Right,
40,6,1,1.3322146000009525,['c'],0,right,['e'],0,0.8777716000004148,0.2,1,0,FastAcc,39,18,Woman,Right,
41,6,1,0.7342353999993065,['c'],0,right,['e'],0,0.19056819999968866,0.1,1,0,FastAcc,39,18,Woman,Right,
42,6,1,1.09976049999932,['c'],1,left,['e'],0,0.38218329999835987,0.2,0,0,FastAcc,39,18,Woman,Right,
43,6,1,0.8818122000011499,['n'],1,right,['e'],0,0.1425466000000597,0.2,0,0,FastAcc,39,18,Woman,Right,
44,6,1,1.6333398999995552,['c'],1,left,['e'],0,0.3620912000005774,0.4,0,0,FastAcc,39,18,Woman,Right,
45,6,1,0.7500840000011522,['c'],1,left,['e'],0,0.2084489000008034,0.2,0,0,FastAcc,39,18,Woman,Right,
46,6,1,0.6834888000012143,['n'],1,right,['e'],0,0.3188797999991948,0.2,0,0,FastAcc,39,18,Woman,Right,
47,6,1,0.6007042000001093,['c'],1,left,['u'],1,0.5404529999996157,0.4,1,0,FastAcc,39,18,Woman,Right,
48,6,1,0.8500504000003275,['c'],0,right,['e'],0,0.4234658000004856,0.1,1,0,FastAcc,39,18,Woman,Right,
49,6,1,0.7018132999983209,['n'],1,right,['e'],0,0.31777359999978216,0.4,0,0,FastAcc,39,18,Woman,Right,
50,6,1,0.6660228000000643,['n'],1,right,['u'],1,0.16857049999998708,0.4,1,0,FastAcc,39,18,Woman,Right,
51,6,1,0.5502185999994254,['n'],1,right,['u'],1,0.18923870000071474,0.4,1,0,FastAcc,39,18,Woman,Right,
52,6,1,0.6504423999995197,['n'],1,right,['u'],1,0.1270927000005031,0.2,1,0,FastAcc,39,18,Woman,Right,
53,6,1,0.6996885000007751,['n'],1,right,['u'],1,0.16064779999942402,0.2,1,0,FastAcc,39,18,Woman,Right,
54,6,1,1.33461349999925,['c'],0,right,['e'],0,0.5663354999996955,0.1,1,0,FastAcc,39,18,Woman,Right,
55,6,1,0.6828698999997869,['c'],1,left,['u'],1,0.48809430000073917,0.4,1,0,FastAcc,39,18,Woman,Right,
56,6,1,0.8669189000011102,['n'],1,right,['u'],1,0.11651020000135759,0.4,1,0,FastAcc,39,18,Woman,Right,
57,6,1,0.550188100000014,['c'],1,left,['e'],0,0.2039058999998815,0.1,0,0,FastAcc,39,18,Woman,Right,
58,6,1,1.2826552999995329,['c'],1,left,['e'],0,0.21019739999974263,0.1,0,0,FastAcc,39,18,Woman,Right,
59,6,1,0.8346110000002227,['c'],0,right,['e'],0,0.17054280000047584,0.1,1,0,FastAcc,39,18,Woman,Right,
0,7,1,1.851287699999375,['n'],0,left,['e'],0,0.7239209999988816,0.1,1,0,FastFast,39,18,Woman,Right,
1,7,1,0.6163378000001103,['c'],1,left,['u'],1,0.5775221000003512,0.4,1,0,FastFast,39,18,Woman,Right,
2,7,1,0.7667990000009013,['n'],1,right,['u'],1,0.17408919999979844,0.4,1,0,FastFast,39,18,Woman,Right,
3,7,1,0.5346609000007447,['c'],0,right,['u'],1,0.11606779999965511,0.1,0,0,FastFast,39,18,Woman,Right,
4,7,1,0.40108370000052673,['n'],1,right,['u'],1,0.14563430000089284,0.2,1,0,FastFast,39,18,Woman,Right,
5,7,1,0.6507848999990529,['c'],1,left,['e'],0,0.18005679999987478,0.2,0,0,FastFast,39,18,Woman,Right,
6,7,1,0.8347491000004084,['c'],0,right,['u'],1,0.20538379999925382,0.4,0,0,FastFast,39,18,Woman,Right,
7,7,1,0.7331761999994342,['c'],1,left,['u'],1,0.5074041999996552,0.4,1,0,FastFast,39,18,Woman,Right,
8,7,1,0.5346958999998606,['n'],1,right,['u'],1,0.163262099998974,0.1,1,0,FastFast,39,18,Woman,Right,
9,7,1,0.9670391999989079,['c'],1,left,['u'],1,0.3612102999995841,0.1,1,0,FastFast,39,18,Woman,Right,
10,7,1,1.2511359999989509,['c'],0,right,['e'],0,0.6666454000005615,0.1,1,0,FastFast,39,18,Woman,Right,
11,7,1,0.8344398000008368,['c'],1,left,['u'],1,0.38520360000075016,0.4,1,0,FastFast,39,18,Woman,Right,
12,7,1,0.6999754999997094,['c'],1,left,['u'],1,0.18486760000087088,0.2,1,0,FastFast,39,18,Woman,Right,
13,7,1,0.5342036000001826,['c'],0,right,['e'],0,2.9743949999992765,0.1,1,0,FastFast,39,18,Woman,Right,
14,7,1,0.8172576999986632,['c'],1,left,['u'],1,0.313020300000062,0.4,1,0,FastFast,39,18,Woman,Right,
15,7,1,1.9166678999990836,['n'],1,right,['e'],0,0.38614509999933944,0.2,0,0,FastFast,39,18,Woman,Right,
16,7,1,0.5668862000002264,['c'],1,left,['u'],1,0.5912160999996559,0.1,1,0,FastFast,39,18,Woman,Right,
17,7,1,1.8676025000004302,['n'],1,right,['e'],0,0.7188662999997177,0.1,0,0,FastFast,39,18,Woman,Right,
18,7,1,1.399991600001158,['n'],1,right,['u'],1,0.5253190999992512,0.4,1,0,FastFast,39,18,Woman,Right,
19,7,1,0.5666949000005843,['n'],1,right,['u'],1,0.14883890000055544,0.4,1,0,FastFast,39,18,Woman,Right,
20,7,1,0.5013658999996551,['c'],0,right,['u'],1,0.23621629999979632,0.1,0,0,FastFast,39,18,Woman,Right,
21,7,1,0.5674101999993582,['c'],1,left,['u'],1,0.4948941999991803,0.2,1,0,FastFast,39,18,Woman,Right,
22,7,1,0.7838246999999683,['c'],0,right,['u'],1,0.1261618999997154,0.1,0,0,FastFast,39,18,Woman,Right,
23,7,1,0.6003607000002376,['c'],1,left,['u'],1,1.4121071999998094,0.2,1,0,FastFast,39,18,Woman,Right,
24,7,1,0.9998930999990989,['c'],0,right,['e'],0,0.42240729999866744,0.1,1,0,FastFast,39,18,Woman,Right,
25,7,1,1.0838150999989011,['n'],1,right,['u'],1,0.3966739999996207,0.2,1,0,FastFast,39,18,Woman,Right,
26,7,1,1.3668671000014,['c'],0,right,['u'],1,0.44030539999948815,0.1,0,0,FastFast,39,18,Woman,Right,
27,7,1,0.6665455999991536,['c'],1,left,['u'],1,0.22263510000084352,0.2,1,0,FastFast,39,18,Woman,Right,
28,7,1,0.46625829999902635,['n'],1,right,['u'],1,0.1658465000000433,0.4,1,0,FastFast,39,18,Woman,Right,
29,7,1,0.7997613999996247,['c'],0,right,['u'],1,0.2731576000005589,0.2,0,0,FastFast,39,18,Woman,Right,
30,7,1,0.6508565999993152,['n'],1,right,['u'],1,0.22226150000096823,0.4,1,0,FastFast,39,18,Woman,Right,
31,7,1,0.6675694000005024,['c'],0,right,['u'],1,0.3484883000000991,0.2,0,0,FastFast,39,18,Woman,Right,
32,7,1,2.7168934999990597,['n'],1,right,['e'],0,0.4376255000006495,0.1,0,0,FastFast,39,18,Woman,Right,
33,7,1,1.4836770000001707,['c'],1,left,['e'],0,0.7953759000010905,0.2,0,0,FastFast,39,18,Woman,Right,
34,7,1,0.6675814999998693,['c'],1,left,['e'],0,0.306465699999535,0.2,0,0,FastFast,39,18,Woman,Right,
35,7,1,0.9324693999988085,['c'],1,left,['e'],0,0.5168244000014965,0.1,0,0,FastFast,39,18,Woman,Right,
36,7,1,0.6512327999989793,['c'],1,left,['u'],1,0.3276714000003267,0.4,1,0,FastFast,39,18,Woman,Right,
37,7,1,0.5169746999999916,['c'],1,left,['u'],1,0.3440276000001177,0.4,1,0,FastFast,39,18,Woman,Right,
38,7,1,1.1331802000004245,['c'],1,left,['u'],1,0.15945000000101572,0.1,1,0,FastFast,39,18,Woman,Right,
39,7,1,0.8012889000001451,['n'],1,right,['u'],1,0.15565430000060587,0.4,1,0,FastFast,39,18,Woman,Right,
40,7,1,0.5845733999994991,['c'],1,left,['u'],1,0.14538159999938216,0.4,1,0,FastFast,39,18,Woman,Right,
41,7,1,0.7502951999995275,['c'],1,left,['u'],1,0.1607227000004059,0.2,1,0,FastFast,39,18,Woman,Right,
42,7,1,1.3013036000011198,['n'],0,left,['e'],0,0.8079127999990305,0.1,1,0,FastFast,39,18,Woman,Right,
43,7,1,0.9845767000006163,['n'],1,right,['e'],0,0.8989323999994667,0.4,0,0,FastFast,39,18,Woman,Right,
44,7,1,1.148823400000765,['n'],1,right,['e'],0,0.9961109999985638,0.2,0,0,FastFast,39,18,Woman,Right,
45,7,1,0.9841308999984903,['n'],1,right,['e'],0,0.13473350000094797,0.1,0,0,FastFast,39,18,Woman,Right,
46,7,1,0.7010095000005094,['n'],1,right,['e'],0,1.095403899998928,0.4,0,0,FastFast,39,18,Woman,Right,
47,7,1,0.9172584000007191,['c'],1,left,['e'],0,0.697648699999263,0.4,0,0,FastFast,39,18,Woman,Right,
48,7,1,2.299477399999887,['n'],1,right,['e'],0,0.22747490000074322,0.1,0,0,FastFast,39,18,Woman,Right,
49,7,1,1.0513888999994379,['n'],0,left,['e'],0,0.16336260000025504,0.1,1,0,FastFast,39,18,Woman,Right,
50,7,1,1.3013561999996455,['c'],1,left,['u'],1,0.6990949000010005,0.4,1,0,FastFast,39,18,Woman,Right,
51,7,1,0.8665478999992047,['n'],1,right,['u'],1,0.11176089999935357,0.2,1,0,FastFast,39,18,Woman,Right,
52,7,1,0.8999857999988308,['c'],1,left,['e'],0,0.2816337999993266,0.2,0,0,FastFast,39,18,Woman,Right,
53,7,1,0.5510627000003296,['n'],1,right,['u'],1,0.3137921000015922,0.4,1,0,FastFast,39,18,Woman,Right,
54,7,1,0.5180487000016001,['c'],1,left,['u'],1,0.3627273999991303,0.4,1,0,FastFast,39,18,Woman,Right,
55,7,1,1.0013145999982953,['c'],1,left,['u'],1,0.2623255999988032,0.2,1,0,FastFast,39,18,Woman,Right,
56,7,1,1.1179068999990704,['n'],0,left,['u'],1,0.19331939999938186,0.1,0,0,FastFast,39,18,Woman,Right,
57,7,1,0.5172628000000259,['c'],1,left,['u'],1,0.19978279999850201,0.2,1,0,FastFast,39,18,Woman,Right,
58,7,1,0.6680044000004273,['c'],1,left,['u'],1,0.2153898999986268,0.2,1,0,FastFast,39,18,Woman,Right,
59,7,1,0.5511321000012686,['n'],1,right,['u'],1,0.1553289000003133,0.2,1,0,FastFast,39,18,Woman,Right,
0,8,1,1.5344920000006823,['c'],1,left,['e'],0,0.7842313000001013,0.2,0,0,AccFast,39,18,Woman,Right,
1,8,1,1.3844454000009137,['n'],0,left,['u'],1,0.21991110000089975,0.1,0,0,AccFast,39,18,Woman,Right,
2,8,1,0.5679292000004352,['c'],1,left,['e'],0,0.19082799999887357,0.2,0,0,AccFast,39,18,Woman,Right,
3,8,1,0.7335880999999063,['n'],0,left,['e'],0,0.3165196999998443,0.2,1,0,AccFast,39,18,Woman,Right,
4,8,1,0.5337463000014395,['n'],1,right,['u'],1,0.14179890000013984,0.2,1,0,AccFast,39,18,Woman,Right,
5,8,1,0.5994714999997086,['c'],1,left,['e'],0,0.6911497000000963,0.1,0,0,AccFast,39,18,Woman,Right,
6,8,1,0.8006382000003214,['n'],0,left,['e'],0,0.18519389999892155,0.1,1,0,AccFast,39,18,Woman,Right,
7,8,1,0.7327070999999705,['c'],1,left,['e'],0,0.2635933000001387,0.1,0,0,AccFast,39,18,Woman,Right,
8,8,1,0.7339744000000792,['n'],1,right,['u'],1,0.14464200000111305,0.4,1,0,AccFast,39,18,Woman,Right,
9,8,1,0.717046499999924,['c'],1,left,['u'],1,0.209643899999719,0.4,1,0,AccFast,39,18,Woman,Right,
10,8,1,0.45240709999961837,['c'],0,right,['e'],0,1.1290563000002294,0.4,1,0,AccFast,39,18,Woman,Right,
11,8,1,0.46644519999972545,['c'],0,right,['u'],1,0.155860599999869,0.4,0,0,AccFast,39,18,Woman,Right,
12,8,1,0.5171632999990834,['n'],1,right,['u'],1,0.1798754999999801,0.4,1,0,AccFast,39,18,Woman,Right,
13,8,1,0.5499959999997373,['n'],1,right,['u'],1,0.15257849999943573,0.4,1,0,AccFast,39,18,Woman,Right,
14,8,1,0.6344877999999881,['n'],1,right,['u'],1,0.18689520000043558,0.4,1,0,AccFast,39,18,Woman,Right,
15,8,1,2.351161900000079,['n'],1,right,['e'],0,0.15179949999946984,0.1,0,0,AccFast,39,18,Woman,Right,
16,8,1,1.2512224999991304,['c'],1,left,['u'],1,0.43450269999993907,0.4,1,0,AccFast,39,18,Woman,Right,
17,8,1,0.7331540000013774,['n'],1,right,['u'],1,0.16665400000056252,0.2,1,0,AccFast,39,18,Woman,Right,
18,8,1,0.45072950000030687,['c'],1,left,['u'],1,0.3675298999987717,0.4,1,0,AccFast,39,18,Woman,Right,
19,8,1,1.5343701000001602,['c'],1,left,['u'],1,0.1978289999988192,0.2,1,0,AccFast,39,18,Woman,Right,
20,8,1,0.9842519999983779,['n'],1,right,['u'],1,0.1846590000004653,0.2,1,0,AccFast,39,18,Woman,Right,
21,8,1,0.6510054999998829,['n'],1,right,['u'],1,0.16973519999919517,0.4,1,0,AccFast,39,18,Woman,Right,
22,8,1,0.5684381999999459,['n'],1,right,['u'],1,0.19060569999965082,0.4,1,0,AccFast,39,18,Woman,Right,
23,8,1,0.9176891000006435,['n'],1,right,['u'],1,0.18095330000141985,0.4,1,0,AccFast,39,18,Woman,Right,
24,8,1,0.532947100000456,['n'],1,right,['u'],1,0.1557249999987107,0.2,1,0,AccFast,39,18,Woman,Right,
25,8,1,0.6336935000017547,['c'],1,left,['u'],1,0.38156610000078217,0.2,1,0,AccFast,39,18,Woman,Right,
26,8,1,0.9510490000011487,['c'],0,right,['u'],1,0.15454899999895133,0.1,0,0,AccFast,39,18,Woman,Right,
27,8,1,0.5013080999997328,['n'],0,left,['u'],1,0.146756699999969,0.1,0,0,AccFast,39,18,Woman,Right,
28,8,1,0.5674049000008381,['c'],1,left,['u'],1,0.6643508999986807,0.2,1,0,AccFast,39,18,Woman,Right,
29,8,1,0.7337244999998802,['c'],1,left,['u'],1,0.1466232000002492,0.2,1,0,AccFast,39,18,Woman,Right,
30,8,1,1.2668482000008225,['n'],1,right,['u'],1,0.14022039999872504,0.1,1,0,AccFast,39,18,Woman,Right,
31,8,1,0.6170755000002828,['c'],1,left,['u'],1,0.2407149999999092,0.1,1,0,AccFast,39,18,Woman,Right,
32,8,1,1.1337585999990551,['n'],0,left,['u'],1,0.1565427000005002,0.1,0,0,AccFast,39,18,Woman,Right,
33,8,1,0.617280500000561,['c'],1,left,['u'],1,0.19163850000040838,0.1,1,0,AccFast,39,18,Woman,Right,
34,8,1,0.6004889000014373,['n'],1,right,['u'],1,0.14726259999952163,0.4,1,0,AccFast,39,18,Woman,Right,
35,8,1,0.551347500000702,['c'],1,left,['u'],1,0.152991099999781,0.4,1,0,AccFast,39,18,Woman,Right,
36,8,1,0.6346470000007685,['c'],1,left,['u'],1,0.15576099999998405,0.2,1,0,AccFast,39,18,Woman,Right,
37,8,1,0.551072700000077,['c'],1,left,['u'],1,0.1620784000006097,0.4,1,0,AccFast,39,18,Woman,Right,
38,8,1,0.38479349999943224,['n'],1,right,['u'],1,0.12639690000105475,0.4,1,0,AccFast,39,18,Woman,Right,
39,8,1,0.4007041000004392,['c'],1,left,['u'],1,0.15596419999928912,0.2,1,0,AccFast,39,18,Woman,Right,
40,8,1,0.33431649999874935,['n'],0,left,['u'],1,0.1865170000000944,0.2,0,0,AccFast,39,18,Woman,Right,
41,8,1,0.4344961000006151,['c'],0,right,['e'],0,0.9645594999983587,0.4,1,0,AccFast,39,18,Woman,Right,
42,8,1,0.8335106999984419,['c'],0,right,['u'],1,0.2386932000008528,0.4,0,0,AccFast,39,18,Woman,Right,
43,8,1,0.600253700000394,['c'],1,left,['u'],1,0.19175910000012664,0.1,1,0,AccFast,39,18,Woman,Right,
44,8,1,2.43425919999936,['c'],1,left,['u'],1,0.15435640000032436,0.2,1,0,AccFast,39,18,Woman,Right,
45,8,1,1.0007358999991993,['n'],0,left,['u'],1,0.15782149999904505,0.4,0,0,AccFast,39,18,Woman,Right,
46,8,1,4.167600799999491,['c'],0,right,['e'],0,0.6437749999986409,0.1,1,0,AccFast,39,18,Woman,Right,
47,8,1,0.6681031000007351,['n'],1,right,['u'],1,0.14623329999994894,0.1,1,0,AccFast,39,18,Woman,Right,
48,8,1,0.8178984999995009,['n'],1,right,['e'],0,0.4297571999995853,0.1,0,0,AccFast,39,18,Woman,Right,
49,8,1,0.7674126000001706,['n'],1,right,['e'],0,0.1920243999993545,0.2,0,0,AccFast,39,18,Woman,Right,
50,8,1,0.6178670999997848,['n'],1,right,['e'],0,0.14640619999954652,0.1,0,0,AccFast,39,18,Woman,Right,
51,8,1,0.7014782999995077,['n'],0,left,['e'],0,0.3065774999995483,0.1,1,0,AccFast,39,18,Woman,Right,
52,8,1,0.5159529000011389,['c'],0,right,['e'],0,0.21306879999974626,0.2,1,0,AccFast,39,18,Woman,Right,
53,8,1,0.41758370000025025,['c'],0,right,['e'],0,0.22100590000081866,0.2,1,0,AccFast,39,18,Woman,Right,
54,8,1,0.5666746999995667,['c'],0,right,['e'],0,0.2727417999994941,0.1,1,0,AccFast,39,18,Woman,Right,
55,8,1,0.40125110000008135,['c'],1,left,['e'],0,0.4717739999996411,0.4,0,0,AccFast,39,18,Woman,Right,
56,8,1,0.6678498999990552,['c'],1,left,['e'],0,0.22050339999987045,0.2,0,0,AccFast,39,18,Woman,Right,
57,8,1,0.5178830999993806,['c'],0,right,['e'],0,0.2095128000000841,0.1,1,0,AccFast,39,18,Woman,Right,
58,8,1,0.801409199999398,['c'],1,left,['e'],0,0.17167200000039884,0.2,0,0,AccFast,39,18,Woman,Right,
59,8,1,0.6678367999993498,['c'],0,right,['e'],0,0.18896889999996347,0.1,1,0,AccFast,39,18,Woman,Right,
0,9,1,2.700979400000506,['n'],0,left,['e'],0,0.7646239000005153,0.1,1,0,AccAcc,39,18,Woman,Right,
1,9,1,1.31746590000148,['n'],1,right,['u'],1,0.2673013000003266,0.4,1,0,AccAcc,39,18,Woman,Right,
2,9,1,1.1833255999990797,['c'],1,left,['u'],1,0.2759805999994569,0.4,1,0,AccAcc,39,18,Woman,Right,
3,9,1,1.5006525999997393,['n'],1,right,['e'],0,0.1755741000015405,0.2,0,0,AccAcc,39,18,Woman,Right,
4,9,1,0.967189299999518,['n'],0,left,['e'],0,0.18155579999984184,0.1,1,0,AccAcc,39,18,Woman,Right,
5,9,1,0.5844768000006297,['c'],0,right,['e'],0,0.8087763000003179,0.2,1,0,AccAcc,39,18,Woman,Right,
6,9,1,0.7666229999995267,['n'],1,right,['u'],1,0.172406099998625,0.4,1,0,AccAcc,39,18,Woman,Right,
7,9,1,1.0006316999988485,['c'],1,left,['e'],0,0.1913760999996157,0.1,0,0,AccAcc,39,18,Woman,Right,
8,9,1,0.9682881999997335,['n'],0,left,['e'],0,0.8198707000010472,0.1,1,0,AccAcc,39,18,Woman,Right,
9,9,1,0.9678505000010773,['n'],1,right,['e'],0,0.36710860000130197,0.2,0,0,AccAcc,39,18,Woman,Right,
10,9,1,0.733181899999181,['n'],1,right,['e'],0,0.13296939999963797,0.1,0,0,AccAcc,39,18,Woman,Right,
11,9,1,1.3842994999995426,['c'],1,left,['e'],0,0.2825940000002447,0.4,0,0,AccAcc,39,18,Woman,Right,
12,9,1,0.9179031000003306,['c'],1,left,['e'],0,0.15693809999902442,0.4,0,0,AccAcc,39,18,Woman,Right,
13,9,1,1.2335558000013407,['c'],1,left,['e'],0,0.15273069999966538,0.2,0,0,AccAcc,39,18,Woman,Right,
14,9,1,0.8846016999996209,['n'],0,left,['e'],0,0.1448166999998648,0.4,1,0,AccAcc,39,18,Woman,Right,
15,9,1,0.8002077000001009,['n'],0,left,['e'],0,0.286700299999211,0.1,1,0,AccAcc,39,18,Woman,Right,
16,9,1,0.6004061000003276,['n'],1,right,['e'],0,0.2369842999996763,0.1,0,0,AccAcc,39,18,Woman,Right,
17,9,1,1.067824899999323,['c'],1,left,['u'],1,0.555094100000133,0.4,1,0,AccAcc,39,18,Woman,Right,
18,9,1,0.9675325000007433,['c'],1,left,['u'],1,0.49681389999932435,0.4,1,0,AccAcc,39,18,Woman,Right,
19,9,1,0.7509354000012536,['n'],1,right,['u'],1,0.12919940000028873,0.4,1,0,AccAcc,39,18,Woman,Right,
20,9,1,0.9345933999993576,['c'],1,left,['e'],0,0.16864900000109628,0.1,0,0,AccAcc,39,18,Woman,Right,
21,9,1,0.6169179999997141,['n'],1,right,['u'],1,0.17234070000085921,0.1,1,0,AccAcc,39,18,Woman,Right,
22,9,1,0.6178046000004542,['n'],1,right,['u'],1,0.17459189999863156,0.2,1,0,AccAcc,39,18,Woman,Right,
23,9,1,0.5850654999994731,['n'],0,left,['e'],0,0.08341749999999593,0.1,1,0,AccAcc,39,18,Woman,Right,
24,9,1,1.150217899999916,['c'],0,right,['u'],1,0.6447331999988819,0.1,0,0,AccAcc,39,18,Woman,Right,
25,9,1,0.8174247999995714,['n'],1,right,['e'],0,0.09274329999971087,0.1,0,0,AccAcc,39,18,Woman,Right,
26,9,1,0.7516178999994736,['n'],0,left,['e'],0,0.14109819999976025,0.2,1,0,AccAcc,39,18,Woman,Right,
27,9,1,0.7999364000006608,['c'],0,right,['e'],0,0.17010859999936656,0.4,1,0,AccAcc,39,18,Woman,Right,
28,9,1,0.6839120999993611,['c'],0,right,['e'],0,0.2026095000001078,0.1,1,0,AccAcc,39,18,Woman,Right,
29,9,1,1.3504271999991033,['c'],1,left,['e'],0,0.7506539000005432,0.1,0,0,AccAcc,39,18,Woman,Right,
30,9,1,1.2989025000006222,['c'],1,left,['e'],0,0.2395120000001043,0.2,0,0,AccAcc,39,18,Woman,Right,
31,9,1,0.918092699999761,['n'],1,right,['u'],1,0.1481074000002991,0.4,1,0,AccAcc,39,18,Woman,Right,
32,9,1,0.7013503000016499,['n'],1,right,['u'],1,0.19553820000146516,0.4,1,0,AccAcc,39,18,Woman,Right,
33,9,1,1.333575100001326,['c'],0,right,['e'],0,0.18539600000076462,0.1,1,0,AccAcc,39,18,Woman,Right,
34,9,1,1.6836996000001818,['n'],1,right,['e'],0,0.09668869999950402,0.2,0,0,AccAcc,39,18,Woman,Right,
35,9,1,0.7676111999990098,['n'],0,left,['e'],0,0.22387530000014522,0.2,1,0,AccAcc,39,18,Woman,Right,
36,9,1,0.6839304000004631,['n'],0,left,['e'],0,0.1263555000004999,0.2,1,0,AccAcc,39,18,Woman,Right,
37,9,1,0.8177311999988888,['n'],1,right,['e'],0,0.3151830999995582,0.2,0,0,AccAcc,39,18,Woman,Right,
38,9,1,0.8336197000007814,['n'],1,right,['u'],1,0.639960800001063,0.4,1,0,AccAcc,39,18,Woman,Right,
39,9,1,0.9346734999999171,['n'],1,right,['u'],1,0.1311308000003919,0.4,1,0,AccAcc,39,18,Woman,Right,
40,9,1,0.7681054000004224,['n'],0,left,['e'],0,0.1454980999988038,0.2,1,0,AccAcc,39,18,Woman,Right,
41,9,1,0.6843026999995345,['n'],0,left,['e'],0,0.11439659999996366,0.2,1,0,AccAcc,39,18,Woman,Right,
42,9,1,0.817028700001174,['n'],0,left,['e'],0,0.14371599999867612,0.1,1,0,AccAcc,39,18,Woman,Right,
43,9,1,1.56667059999927,['c'],1,left,['u'],1,0.5904862999996112,0.4,1,0,AccAcc,39,18,Woman,Right,
44,9,1,0.651284300000043,['n'],1,right,['u'],1,0.15871490000063204,0.4,1,0,AccAcc,39,18,Woman,Right,
45,9,1,1.018001300000833,['c'],1,left,['e'],0,0.3542887999992672,0.1,0,0,AccAcc,39,18,Woman,Right,
46,9,1,2.5018719999989116,['n'],0,left,['u'],1,0.14672860000064247,0.2,0,0,AccAcc,39,18,Woman,Right,
47,9,1,0.6849144000007072,['n'],1,right,['u'],1,0.14768539999931818,0.2,1,0,AccAcc,39,18,Woman,Right,
48,9,1,0.9331093000000692,['c'],1,left,['e'],0,0.2191471999994974,0.2,0,0,AccAcc,39,18,Woman,Right,
49,9,1,0.7012111999993067,['n'],1,right,['u'],1,0.1682699999983015,0.2,1,0,AccAcc,39,18,Woman,Right,
50,9,1,0.9679439999999886,['n'],1,right,['e'],0,0.09351670000069134,0.4,0,0,AccAcc,39,18,Woman,Right,
51,9,1,0.5846367000012833,['n'],1,right,['u'],1,0.5170247000005475,0.4,1,0,AccAcc,39,18,Woman,Right,
52,9,1,1.167861300000368,['n'],1,right,['u'],1,0.09984400000030291,0.2,1,0,AccAcc,39,18,Woman,Right,
53,9,1,1.2837505000006786,['n'],0,left,['e'],0,0.9909961000012117,0.4,1,0,AccAcc,39,18,Woman,Right,
54,9,1,2.5671184999991965,['n'],1,right,['e'],0,0.4035951000005298,0.1,0,0,AccAcc,39,18,Woman,Right,
55,9,1,1.134176399998978,['c'],0,right,['e'],0,0.2166529999994964,0.2,1,0,AccAcc,39,18,Woman,Right,
56,9,1,0.8340406999996048,['c'],1,left,['u'],1,0.24120980000043346,0.1,1,0,AccAcc,39,18,Woman,Right,
57,9,1,0.6172807999992074,['c'],1,left,['u'],1,0.9451078000001871,0.2,1,0,AccAcc,39,18,Woman,Right,
58,9,1,1.1672100000014325,['n'],0,left,['e'],0,0.6389892000006512,0.1,1,0,AccAcc,39,18,Woman,Right,
59,9,1,1.6842792999996163,['n'],1,right,['u'],1,0.13255620000018098,0.4,1,0,AccAcc,39,18,Woman,Right,
0,10,1,1.5341301999997086,['n'],1,right,['u'],1,0.22543939999923168,0.4,1,0,FastAcc,39,18,Woman,Right,
1,10,1,0.6014461000013398,['c'],1,left,['u'],1,0.41886069999964093,0.4,1,0,FastAcc,39,18,Woman,Right,
2,10,1,0.9515086999999767,['c'],1,left,['u'],1,0.430557100000442,0.2,1,0,FastAcc,39,18,Woman,Right,
3,10,1,0.583374099998764,['c'],1,left,['u'],1,0.18422339999960968,0.4,1,0,FastAcc,39,18,Woman,Right,
4,10,1,0.5826634999993985,['c'],1,left,['e'],0,1.1805074000003515,0.1,0,0,FastAcc,39,18,Woman,Right,
5,10,1,0.5178562000000966,['c'],1,left,['u'],1,1.0342801999995572,0.4,1,0,FastAcc,39,18,Woman,Right,
6,10,1,0.7511402000000089,['n'],1,right,['u'],1,0.14929540000048291,0.1,1,0,FastAcc,39,18,Woman,Right,
7,10,1,0.6846777999999176,['n'],1,right,['u'],1,0.1180222999992111,0.4,1,0,FastAcc,39,18,Woman,Right,
8,10,1,0.7170461999994586,['c'],1,left,['u'],1,0.21572379999997793,0.2,1,0,FastAcc,39,18,Woman,Right,
9,10,1,1.1345834000003379,['n'],1,right,['u'],1,0.14733950000118057,0.2,1,0,FastAcc,39,18,Woman,Right,
10,10,1,0.8496020000002318,['c'],1,left,['u'],1,0.4140203000006295,0.2,1,0,FastAcc,39,18,Woman,Right,
11,10,1,0.8516375999988668,['n'],1,right,['u'],1,0.14139550000072632,0.1,1,0,FastAcc,39,18,Woman,Right,
12,10,1,0.6014054999996006,['c'],0,right,['u'],1,0.21024880000004487,0.2,0,0,FastAcc,39,18,Woman,Right,
13,10,1,0.7849055000006047,['c'],1,left,['u'],1,0.2853615999993053,0.4,1,0,FastAcc,39,18,Woman,Right,
14,10,1,1.3840186999987054,['c'],1,left,['u'],1,0.5888716999997996,0.4,1,0,FastAcc,39,18,Woman,Right,
15,10,1,0.617640799999208,['c'],1,left,['u'],1,0.17617330000030051,0.1,1,0,FastAcc,39,18,Woman,Right,
16,10,1,0.6005394000003434,['c'],1,left,['u'],1,0.17923789999986184,0.2,1,0,FastAcc,39,18,Woman,Right,
17,10,1,0.7168599999986327,['c'],1,left,['u'],1,0.13017609999951674,0.1,1,0,FastAcc,39,18,Woman,Right,
18,10,1,0.6679672000009305,['c'],1,left,['u'],1,0.09962559999985388,0.2,1,0,FastAcc,39,18,Woman,Right,
19,10,1,0.8847239000006084,['c'],1,left,['u'],1,0.14311170000109996,0.2,1,0,FastAcc,39,18,Woman,Right,
20,10,1,0.567611599999509,['n'],1,right,['u'],1,0.1645552999998472,0.4,1,0,FastAcc,39,18,Woman,Right,
21,10,1,1.200417500000185,['n'],1,right,['u'],1,0.144331700001203,0.1,1,0,FastAcc,39,18,Woman,Right,
22,10,1,0.6850886000011087,['n'],1,right,['u'],1,0.14612599999964004,0.4,1,0,FastAcc,39,18,Woman,Right,
23,10,1,0.6511237000013352,['c'],0,right,['e'],0,0.2601338000004034,0.1,1,0,FastAcc,39,18,Woman,Right,
24,10,1,0.6179287000013574,['n'],1,right,['u'],1,0.1164478999999119,0.4,1,0,FastAcc,39,18,Woman,Right,
25,10,1,1.2842233999999735,['n'],1,right,['e'],0,0.5901244999986375,0.1,0,0,FastAcc,39,18,Woman,Right,
26,10,1,1.0679008999995858,['c'],1,left,['e'],0,0.20639800000026298,0.1,0,0,FastAcc,39,18,Woman,Right,
27,10,1,0.7009326000006695,['n'],1,right,['u'],1,0.12456279999969411,0.4,1,0,FastAcc,39,18,Woman,Right,
28,10,1,0.6504224000000249,['n'],1,right,['u'],1,0.11322470000050089,0.4,1,0,FastAcc,39,18,Woman,Right,
29,10,1,1.2010030999990704,['c'],1,left,['u'],1,0.3339147000006051,0.1,1,0,FastAcc,39,18,Woman,Right,
30,10,1,1.3171038000000408,['n'],1,right,['u'],1,0.14296789999934845,0.2,1,0,FastAcc,39,18,Woman,Right,
31,10,1,0.6829555999993318,['c'],1,left,['u'],1,0.12857910000093398,0.2,1,0,FastAcc,39,18,Woman,Right,
32,10,1,0.899679100000867,['c'],1,left,['u'],1,0.10618480000084674,0.1,1,0,FastAcc,39,18,Woman,Right,
33,10,1,0.600446299999021,['n'],1,right,['u'],1,0.20899140000074112,0.1,1,0,FastAcc,39,18,Woman,Right,
34,10,1,0.48466480000024603,['c'],1,left,['u'],1,0.13468720000128087,0.1,1,0,FastAcc,39,18,Woman,Right,
35,10,1,0.5851535000001604,['n'],1,right,['u'],1,0.14016830000036862,0.4,1,0,FastAcc,39,18,Woman,Right,
36,10,1,0.6009494000008999,['c'],0,right,['u'],1,0.11346140000023297,0.2,0,0,FastAcc,39,18,Woman,Right,
37,10,1,0.4830749000011565,['c'],0,right,['u'],1,0.1400911000000633,0.2,0,0,FastAcc,39,18,Woman,Right,
38,10,1,0.46644240000023274,['n'],1,right,['u'],1,0.1505090000009659,0.4,1,0,FastAcc,39,18,Woman,Right,
39,10,1,0.6667458000010811,['c'],1,left,['u'],1,0.13535310000042955,0.2,1,0,FastAcc,39,18,Woman,Right,
40,10,1,0.46792330000062066,['n'],1,right,['u'],1,0.12948820000019623,0.2,1,0,FastAcc,39,18,Woman,Right,
41,10,1,0.5351948000006814,['c'],1,left,['u'],1,0.10535479999998643,0.4,1,0,FastAcc,39,18,Woman,Right,
42,10,1,0.3683041999993293,['n'],1,right,['u'],1,0.10551679999844055,0.4,1,0,FastAcc,39,18,Woman,Right,
43,10,1,0.9179402999998274,['n'],1,right,['u'],1,0.11466909999944619,0.2,1,0,FastAcc,39,18,Woman,Right,
44,10,1,0.4679168999991816,['c'],0,right,['e'],0,1.0695436999994854,0.4,1,0,FastAcc,39,18,Woman,Right,
45,10,1,0.9660299000006489,['c'],1,left,['u'],1,0.09497499999997672,0.4,1,0,FastAcc,39,18,Woman,Right,
46,10,1,0.7673146000015549,['n'],1,right,['u'],1,0.14246060000004945,0.2,1,0,FastAcc,39,18,Woman,Right,
47,10,1,4.116949200000818,['c'],0,right,['e'],0,0.5677725000005012,0.1,1,0,FastAcc,39,18,Woman,Right,
48,10,1,1.1344417000000249,['c'],1,left,['e'],0,0.2455190999990009,0.2,0,0,FastAcc,39,18,Woman,Right,
49,10,1,0.6851241000003938,['n'],0,left,['e'],0,0.0990046999995684,0.1,1,0,FastAcc,39,18,Woman,Right,
50,10,1,1.5522311000004265,['c'],1,left,['e'],0,0.6588876999994682,0.2,0,0,FastAcc,39,18,Woman,Right,
51,10,1,0.8337904999989405,['n'],1,right,['u'],1,0.1539052999996784,0.1,1,0,FastAcc,39,18,Woman,Right,
52,10,1,0.7657053999992058,['c'],1,left,['u'],1,0.15265980000003765,0.1,1,0,FastAcc,39,18,Woman,Right,
53,10,1,1.0014682000000903,['c'],1,left,['e'],0,0.41171639999993204,0.1,0,0,FastAcc,39,18,Woman,Right,
54,10,1,0.6672849999995378,['n'],1,right,['u'],1,0.1153212999997777,0.4,1,0,FastAcc,39,18,Woman,Right,
55,10,1,0.8339002000011533,['n'],1,right,['u'],1,0.15943639999932202,0.1,1,0,FastAcc,39,18,Woman,Right,
56,10,1,0.7154499999996915,['c'],1,left,['u'],1,0.22414440000102331,0.2,1,0,FastAcc,39,18,Woman,Right,
57,10,1,0.6829383000003872,['c'],1,left,['u'],1,0.1894735000005312,0.1,1,0,FastAcc,39,18,Woman,Right,
58,10,1,0.5662572000001092,['n'],1,right,['u'],1,0.08242780000000494,0.4,1,0,FastAcc,39,18,Woman,Right,
59,10,1,0.4667171999990387,['c'],1,left,['u'],1,0.1098307999982353,0.2,1,0,FastAcc,39,18,Woman,Right,
0,11,1,0.6343274000009842,['c'],1,left,['u'],1,0.11710549999952491,0.4,1,0,FastFast,39,18,Woman,Right,
1,11,1,0.8174573000014789,['n'],1,right,['u'],1,0.13143720000152825,0.2,1,0,FastFast,39,18,Woman,Right,
2,11,1,0.48360569999931613,['c'],1,left,['u'],1,0.15651380000053905,0.2,1,0,FastFast,39,18,Woman,Right,
3,11,1,0.5511160000005475,['c'],1,left,['u'],1,0.11465549999957148,0.2,1,0,FastFast,39,18,Woman,Right,
4,11,1,0.6843611000003875,['n'],1,right,['u'],1,0.14783859999988636,0.2,1,0,FastFast,39,18,Woman,Right,
5,11,1,0.6667782999993506,['n'],1,right,['u'],1,0.18194500000026892,0.4,1,0,FastFast,39,18,Woman,Right,
6,11,1,1.0016663000005792,['c'],1,left,['u'],1,0.12007379999886325,0.2,1,0,FastFast,39,18,Woman,Right,
7,11,1,0.5668392999996286,['n'],1,right,['u'],1,0.14341690000037488,0.1,1,0,FastFast,39,18,Woman,Right,
8,11,1,0.55008959999941,['c'],1,left,['u'],1,0.15134460000081162,0.4,1,0,FastFast,39,18,Woman,Right,
9,11,1,0.4348926999991818,['n'],1,right,['u'],1,0.1448528000000806,0.4,1,0,FastFast,39,18,Woman,Right,
10,11,1,0.4667027000014059,['n'],1,right,['u'],1,0.1238496000005398,0.4,1,0,FastFast,39,18,Woman,Right,
11,11,1,0.5346347000013338,['n'],1,right,['u'],1,0.08429860000069311,0.2,1,0,FastFast,39,18,Woman,Right,
12,11,1,0.7826654999989842,['c'],1,left,['u'],1,0.16400360000079672,0.4,1,0,FastFast,39,18,Woman,Right,
13,11,1,0.6674048999993829,['c'],1,left,['u'],1,0.10015399999974761,0.4,1,0,FastFast,39,18,Woman,Right,
14,11,1,0.5832205999995494,['n'],0,left,['u'],1,0.12375459999930172,0.1,0,0,FastFast,39,18,Woman,Right,
15,11,1,1.0492564999985916,['n'],1,right,['e'],0,0.1279424000003928,0.1,0,0,FastFast,39,18,Woman,Right,
16,11,1,0.6997011000003113,['n'],0,left,['e'],0,0.12950369999998657,0.2,1,0,FastFast,39,18,Woman,Right,
17,11,1,1.4175488000000769,['c'],1,left,['u'],1,0.4374738000005891,0.4,1,0,FastFast,39,18,Woman,Right,
18,11,1,0.6013404999994236,['n'],1,right,['u'],1,0.14225740000074438,0.4,1,0,FastFast,39,18,Woman,Right,
19,11,1,1.1845553999992262,['c'],1,left,['e'],0,0.18774259999918286,0.1,0,0,FastFast,39,18,Woman,Right,
20,11,1,0.8992926999999327,['c'],1,left,['e'],0,0.21160309999868332,0.1,0,0,FastFast,39,18,Woman,Right,
21,11,1,1.2844623000000865,['c'],1,left,['e'],0,0.5059959000009258,0.4,0,0,FastFast,39,18,Woman,Right,
22,11,1,2.465823399999863,['c'],1,left,['e'],0,0.1823207999987062,0.2,0,0,FastFast,39,18,Woman,Right,
23,11,1,0.8169607999989239,['c'],1,left,['e'],0,0.22522010000102455,0.1,0,0,FastFast,39,18,Woman,Right,
24,11,1,1.1346336999995401,['c'],1,left,['u'],1,0.10879910000039672,0.4,1,0,FastFast,39,18,Woman,Right,
25,11,1,0.8675041000005876,['c'],1,left,['e'],0,0.424549899998965,0.2,0,0,FastFast,39,18,Woman,Right,
26,11,1,0.6677399999989575,['n'],1,right,['u'],1,0.11111870000058843,0.4,1,0,FastFast,39,18,Woman,Right,
27,11,1,0.6834949999993114,['n'],1,right,['u'],1,0.11412369999925431,0.2,1,0,FastFast,39,18,Woman,Right,
28,11,1,0.6842878999996174,['c'],1,left,['u'],1,0.14796759999990172,0.4,1,0,FastFast,39,18,Woman,Right,
29,11,1,0.9514478000000963,['c'],0,right,['u'],1,0.07528589999856194,0.1,0,0,FastFast,39,18,Woman,Right,
30,11,1,0.8853923000006034,['n'],0,left,['u'],1,0.18256289999953879,0.2,0,0,FastFast,39,18,Woman,Right,
31,11,1,1.3002252999995108,['n'],1,right,['e'],0,0.14181009999992966,0.1,0,0,FastFast,39,18,Woman,Right,
32,11,1,1.2993604999992385,['n'],1,right,['e'],0,0.13594209999973828,0.1,0,0,FastFast,39,18,Woman,Right,
33,11,1,0.5664280000000872,['n'],1,right,['u'],1,0.1582276000008278,0.4,1,0,FastFast,39,18,Woman,Right,
34,11,1,0.6003590000000258,['n'],1,right,['u'],1,0.16210829999909038,0.2,1,0,FastFast,39,18,Woman,Right,
35,11,1,1.1010501000000659,['c'],1,left,['u'],1,0.16155020000041986,0.2,1,0,FastFast,39,18,Woman,Right,
36,11,1,0.8679750999999669,['n'],1,right,['u'],1,0.13968650000060734,0.1,1,0,FastFast,39,18,Woman,Right,
37,11,1,0.5333398000002489,['n'],1,right,['u'],1,0.11420319999888306,0.4,1,0,FastFast,39,18,Woman,Right,
38,11,1,0.9502688000011403,['c'],1,left,['e'],0,0.18586569999934,0.1,0,0,FastFast,39,18,Woman,Right,
39,11,1,0.7169989999983954,['n'],1,right,['e'],0,0.16785950000121375,0.2,0,0,FastFast,39,18,Woman,Right,
40,11,1,0.8179956000003585,['n'],0,left,['e'],0,0.11472469999898749,0.1,1,0,FastFast,39,18,Woman,Right,
41,11,1,1.8511679000002914,['c'],1,left,['e'],0,0.24653159999979835,0.1,0,0,FastFast,39,18,Woman,Right,
42,11,1,0.6514657000006991,['n'],1,right,['e'],0,0.5167928999999276,0.1,0,0,FastFast,39,18,Woman,Right,
43,11,1,0.7012297000001126,['n'],1,right,['e'],0,0.438525400000799,0.1,0,0,FastFast,39,18,Woman,Right,
44,11,1,1.1846610000011424,['c'],1,left,['u'],1,0.1361830000005284,0.4,1,0,FastFast,39,18,Woman,Right,
45,11,1,1.0344650999995793,['c'],1,left,['e'],0,0.2506997999989835,0.1,0,0,FastFast,39,18,Woman,Right,
46,11,1,1.5677159999995638,['c'],1,left,['e'],0,0.5654503000005207,0.1,0,0,FastFast,39,18,Woman,Right,
47,11,1,3.6664799000009225,['c'],1,left,['e'],0,0.22356279999985418,0.2,0,0,FastFast,39,18,Woman,Right,
48,11,1,1.1016546999999264,['n'],0,left,['e'],0,0.17237919999934093,0.4,1,0,FastFast,39,18,Woman,Right,
49,11,1,1.4007118000008631,['n'],1,right,['e'],0,0.1441677000002528,0.1,0,0,FastFast,39,18,Woman,Right,
50,11,1,0.7340924000000086,['n'],1,right,['e'],0,0.36773710000124993,0.2,0,0,FastFast,39,18,Woman,Right,
51,11,1,0.8165933999989647,['n'],1,right,['u'],1,0.13124489999972866,0.4,1,0,FastFast,39,18,Woman,Right,
52,11,1,0.5516869000002771,['n'],0,left,['u'],1,0.21761890000016137,0.1,0,0,FastFast,39,18,Woman,Right,
53,11,1,0.7842971000009129,['n'],1,right,['u'],1,0.163944600000832,0.1,1,0,FastFast,39,18,Woman,Right,
54,11,1,0.8175198000008095,['n'],1,right,['u'],1,0.12667829999918467,0.2,1,0,FastFast,39,18,Woman,Right,
55,11,1,0.9341657000004489,['n'],1,right,['u'],1,0.6311538999998447,0.4,1,0,FastFast,39,18,Woman,Right,
56,11,1,0.6165952000010293,['n'],1,right,['u'],1,0.1204448999997112,0.2,1,0,FastFast,39,18,Woman,Right,
57,11,1,0.8494190000001254,['c'],1,left,['u'],1,0.27655310000045574,0.2,1,0,FastFast,39,18,Woman,Right,
58,11,1,0.734580399999686,['n'],1,right,['u'],1,0.14142360000005283,0.2,1,0,FastFast,39,18,Woman,Right,
59,11,1,0.5511458999990282,['n'],1,right,['u'],1,0.13229490000048827,0.4,1,0,FastFast,39,18,Woman,Right,
0,12,1,1.2028496999992058,['n'],1,right,['u'],1,0.1884915999999066,0.1,1,0,AccFast,39,18,Woman,Right,
1,12,1,0.5669008000004396,['n'],0,left,['u'],1,0.11270739999963553,0.1,0,0,AccFast,39,18,Woman,Right,
2,12,1,1.4510934000009001,['c'],1,left,['e'],0,0.1642427000006137,0.4,0,0,AccFast,39,18,Woman,Right,
3,12,1,0.9678519000008237,['n'],1,right,['u'],1,0.18548879999980272,0.4,1,0,AccFast,39,18,Woman,Right,
4,12,1,1.0676640000001498,['c'],1,left,['u'],1,0.1375382999995054,0.4,1,0,AccFast,39,18,Woman,Right,
5,12,1,0.8495760999994673,['c'],1,left,['u'],1,0.1814804000005097,0.4,1,0,AccFast,39,18,Woman,Right,
6,12,1,0.8676609000012832,['n'],0,left,['u'],1,0.15694210000037856,0.1,0,0,AccFast,39,18,Woman,Right,
7,12,1,1.0828825000007782,['c'],1,left,['u'],1,0.09469499999977415,0.2,1,0,AccFast,39,18,Woman,Right,
8,12,1,1.234302500000922,['c'],1,left,['e'],0,0.23573940000096627,0.1,0,0,AccFast,39,18,Woman,Right,
9,12,1,1.567906899999798,['c'],1,left,['u'],1,0.1018277000002854,0.4,1,0,AccFast,39,18,Woman,Right,
10,12,1,1.2678412000004755,['c'],1,left,['e'],0,0.41779480000150215,0.1,0,0,AccFast,39,18,Woman,Right,
11,12,1,1.0344718000014836,['c'],0,right,['e'],0,0.5379134000013437,0.1,1,0,AccFast,39,18,Woman,Right,
12,12,1,2.0516822000008688,['c'],0,right,['e'],0,0.3249089000000822,0.2,1,0,AccFast,39,18,Woman,Right,
13,12,1,1.8011206000010134,['c'],1,left,['e'],0,0.5147498000005726,0.2,0,0,AccFast,39,18,Woman,Right,
14,12,1,0.6843508999991172,['c'],0,right,['e'],0,0.1650303000005806,0.2,1,0,AccFast,39,18,Woman,Right,
15,12,1,0.7837318000001687,['c'],1,left,['e'],0,0.1773763000001054,0.2,0,0,AccFast,39,18,Woman,Right,
16,12,1,1.902241399999184,['n'],1,right,['u'],1,0.16114370000104827,0.1,1,0,AccFast,39,18,Woman,Right,
17,12,1,0.967228099998465,['c'],1,left,['u'],1,0.3427023000003828,0.4,1,0,AccFast,39,18,Woman,Right,
18,12,1,1.6668131000005815,['c'],0,right,['e'],0,0.6342217000001256,0.1,1,0,AccFast,39,18,Woman,Right,
19,12,1,0.7679944999999861,['c'],0,right,['e'],0,0.24346580000019458,0.2,1,0,AccFast,39,18,Woman,Right,
20,12,1,1.1175241000000824,['n'],1,right,['u'],1,0.15981290000127046,0.4,1,0,AccFast,39,18,Woman,Right,
21,12,1,1.600162000000637,['n'],1,right,['u'],1,0.14032219999899098,0.2,1,0,AccFast,39,18,Woman,Right,
22,12,1,0.501172400001451,['n'],0,left,['u'],1,0.21299390000058338,0.1,0,0,AccFast,39,18,Woman,Right,
23,12,1,2.50095329999931,['c'],0,right,['u'],1,0.5549125999987155,0.2,0,0,AccFast,39,18,Woman,Right,
24,12,1,1.7833682000000408,['c'],0,right,['e'],0,0.35228789999928267,0.2,1,0,AccFast,39,18,Woman,Right,
25,12,1,0.9337416999987909,['n'],1,right,['u'],1,0.12708279999969818,0.4,1,0,AccFast,39,18,Woman,Right,
26,12,1,0.6679406000002928,['n'],1,right,['u'],1,0.1299393000008422,0.2,1,0,AccFast,39,18,Woman,Right,
27,12,1,0.7335687000013422,['n'],1,right,['u'],1,0.14663370000016585,0.1,1,0,AccFast,39,18,Woman,Right,
28,12,1,0.6348433999992267,['c'],1,left,['e'],0,0.1645965999996406,0.2,0,0,AccFast,39,18,Woman,Right,
29,12,1,1.3179741999992984,['n'],0,left,['u'],1,0.15543309999884514,0.1,0,0,AccFast,39,18,Woman,Right,
30,12,1,1.2180097000000387,['c'],1,left,['e'],0,0.2150242999996408,0.1,0,0,AccFast,39,18,Woman,Right,
31,12,1,0.7677122999994026,['n'],1,right,['u'],1,0.13012580000031448,0.2,1,0,AccFast,39,18,Woman,Right,
32,12,1,0.8170896999999968,['c'],1,left,['u'],1,0.30233510000107344,0.2,1,0,AccFast,39,18,Woman,Right,
33,12,1,1.5832105000008596,['c'],1,left,['e'],0,0.518099799999618,0.2,0,0,AccFast,39,18,Woman,Right,
34,12,1,1.1842523000013898,['c'],1,left,['u'],1,0.3881280000005063,0.4,1,0,AccFast,39,18,Woman,Right,
35,12,1,2.500470900000437,['c'],1,left,['e'],0,0.24310569999943255,0.1,0,0,AccFast,39,18,Woman,Right,
36,12,1,1.1173464999992575,['n'],1,right,['u'],1,0.12740650000159803,0.4,1,0,AccFast,39,18,Woman,Right,
37,12,1,0.9681044999997539,['c'],1,left,['e'],0,0.2301878999987821,0.1,0,0,AccFast,39,18,Woman,Right,
38,12,1,0.8005812999999762,['n'],1,right,['u'],1,0.12707859999864013,0.2,1,0,AccFast,39,18,Woman,Right,
39,12,1,0.7507278000011866,['n'],1,right,['u'],1,0.1269233000002714,0.1,1,0,AccFast,39,18,Woman,Right,
40,12,1,0.6519155000005412,['c'],1,left,['u'],1,0.2105396999995719,0.2,1,0,AccFast,39,18,Woman,Right,
41,12,1,0.5841247999996995,['n'],1,right,['u'],1,0.18206720000125642,0.4,1,0,AccFast,39,18,Woman,Right,
42,12,1,0.4840733999990334,['n'],1,right,['u'],1,0.14094250000016473,0.4,1,0,AccFast,39,18,Woman,Right,
43,12,1,0.6841875000009168,['c'],1,left,['u'],1,0.12639929999932065,0.4,1,0,AccFast,39,18,Woman,Right,
44,12,1,0.8678088999986358,['c'],1,left,['u'],1,0.10547399999995832,0.2,1,0,AccFast,39,18,Woman,Right,
45,12,1,0.567368299998634,['n'],1,right,['u'],1,0.11323579999952926,0.2,1,0,AccFast,39,18,Woman,Right,
46,12,1,0.6340593999993871,['c'],1,left,['u'],1,0.0692985999994562,0.4,1,0,AccFast,39,18,Woman,Right,
47,12,1,0.6674277000001894,['n'],1,right,['u'],1,0.09021310000025551,0.1,1,0,AccFast,39,18,Woman,Right,
48,12,1,0.5511717999997927,['n'],1,right,['u'],1,0.1313214000001608,0.1,1,0,AccFast,39,18,Woman,Right,
49,12,1,0.5512531000003946,['n'],1,right,['u'],1,0.13889089999975113,0.4,1,0,AccFast,39,18,Woman,Right,
50,12,1,0.851375400001416,['c'],1,left,['u'],1,0.181051399998978,0.4,1,0,AccFast,39,18,Woman,Right,
51,12,1,0.5515775000003487,['n'],1,right,['u'],1,0.10621419999915815,0.4,1,0,AccFast,39,18,Woman,Right,
52,12,1,0.600875600001018,['c'],1,left,['u'],1,0.20829160000175762,0.4,1,0,AccFast,39,18,Woman,Right,
53,12,1,1.0667209999992338,['c'],1,left,['u'],1,0.14379490000101214,0.2,1,0,AccFast,39,18,Woman,Right,
54,12,1,0.501369200001136,['n'],1,right,['u'],1,0.10482979999869713,0.4,1,0,AccFast,39,18,Woman,Right,
55,12,1,0.7347303999995347,['n'],1,right,['u'],1,0.12169019999964803,0.1,1,0,AccFast,39,18,Woman,Right,
56,12,1,0.5672598999990441,['c'],1,left,['u'],1,0.17639869999948132,0.4,1,0,AccFast,39,18,Woman,Right,
57,12,1,0.6675176000007923,['n'],1,right,['u'],1,0.11366459999953804,0.1,1,0,AccFast,39,18,Woman,Right,
58,12,1,0.8345384000003833,['c'],1,left,['u'],1,0.15785630000027595,0.2,1,0,AccFast,39,18,Woman,Right,
59,12,1,0.549719600001481,['n'],1,right,['u'],1,0.13270449999981793,0.1,1,0,AccFast,39,18,Woman,Right,
0,13,1,0.7342601999989711,['n'],1,right,['u'],1,0.1168231999999989,0.4,1,0,AccAcc,39,18,Woman,Right,
1,13,1,0.9667128000000957,['c'],0,right,['u'],1,0.09349999999903957,0.2,0,0,AccAcc,39,18,Woman,Right,
2,13,1,0.633531800000128,['c'],1,left,['u'],1,0.13080730000001495,0.4,1,0,AccAcc,39,18,Woman,Right,
3,13,1,1.9510366000013164,['c'],1,left,['u'],1,0.12849679999999353,0.4,1,0,AccAcc,39,18,Woman,Right,
4,13,1,0.6175738000001729,['n'],1,right,['u'],1,0.11675660000037169,0.4,1,0,AccAcc,39,18,Woman,Right,
5,13,1,0.7343099000008806,['n'],1,right,['u'],1,0.10219879999931436,0.4,1,0,AccAcc,39,18,Woman,Right,
6,13,1,2.4008238000005804,['c'],0,right,['u'],1,0.3236479999995936,0.2,0,0,AccAcc,39,18,Woman,Right,
7,13,1,2.2009791000000405,['c'],1,left,['e'],0,0.32128109999939625,0.1,0,0,AccAcc,39,18,Woman,Right,
8,13,1,1.4335355000002892,['c'],1,left,['e'],0,0.22156720000020869,0.1,0,0,AccAcc,39,18,Woman,Right,
9,13,1,0.5515482000009797,['c'],1,left,['e'],0,0.17739029999938793,0.4,0,0,AccAcc,39,18,Woman,Right,
10,13,1,0.7173247999999148,['c'],1,left,['u'],1,0.41653819999919506,0.2,1,0,AccAcc,39,18,Woman,Right,
11,13,1,2.234608599999774,['c'],1,left,['e'],0,0.45667880000110017,0.1,0,0,AccAcc,39,18,Woman,Right,
12,13,1,1.5175268000002688,['c'],1,left,['e'],0,0.2363031000004412,0.2,0,0,AccAcc,39,18,Woman,Right,
13,13,1,1.0339988000014273,['c'],0,right,['e'],0,0.18796599999950558,0.1,1,0,AccAcc,39,18,Woman,Right,
14,13,1,0.6004468999999517,['n'],1,right,['u'],1,0.14311590000033902,0.4,1,0,AccAcc,39,18,Woman,Right,
15,13,1,0.9175715000001219,['c'],1,left,['e'],0,0.18315359999905922,0.1,0,0,AccAcc,39,18,Woman,Right,
16,13,1,1.7664270000004763,['c'],1,left,['u'],1,0.3963980000007723,0.2,1,0,AccAcc,39,18,Woman,Right,
17,13,1,0.8499123000001418,['c'],0,right,['e'],0,0.7647285000002739,0.4,1,0,AccAcc,39,18,Woman,Right,
18,13,1,1.6833913000009488,['n'],0,left,['e'],0,0.5412151000000449,0.2,1,0,AccAcc,39,18,Woman,Right,
19,13,1,1.4180661999998847,['c'],1,left,['e'],0,0.19277620000138995,0.1,0,0,AccAcc,39,18,Woman,Right,
20,13,1,0.7841078000001289,['n'],1,right,['u'],1,0.12466350000067905,0.4,1,0,AccAcc,39,18,Woman,Right,
21,13,1,0.45117410000057134,['n'],1,right,['u'],1,0.1368755000003148,0.4,1,0,AccAcc,39,18,Woman,Right,
22,13,1,0.6848379000002751,['c'],1,left,['u'],1,0.26552520000041113,0.1,1,0,AccAcc,39,18,Woman,Right,
23,13,1,3.051083700000163,['c'],0,right,['e'],0,0.5355784000003041,0.1,1,0,AccAcc,39,18,Woman,Right,
24,13,1,0.5510398999995232,['n'],1,right,['u'],1,0.12676190000092902,0.4,1,0,AccAcc,39,18,Woman,Right,
25,13,1,0.6514628999993874,['n'],1,right,['u'],1,0.13002210000013292,0.4,1,0,AccAcc,39,18,Woman,Right,
26,13,1,0.651210699999865,['c'],1,left,['u'],1,0.13297270000111894,0.4,1,0,AccAcc,39,18,Woman,Right,
27,13,1,0.6846375000004628,['c'],1,left,['u'],1,0.11864169999898877,0.2,1,0,AccAcc,39,18,Woman,Right,
28,13,1,0.7510931999986497,['c'],1,left,['u'],1,0.10212159999900905,0.1,1,0,AccAcc,39,18,Woman,Right,
29,13,1,0.7010282999999617,['n'],1,right,['u'],1,0.1685711000009178,0.4,1,0,AccAcc,39,18,Woman,Right,
30,13,1,0.5170515999998315,['c'],1,left,['u'],1,0.17552359999899636,0.4,1,0,AccAcc,39,18,Woman,Right,
31,13,1,0.6669103000003815,['c'],1,left,['u'],1,0.12869920000048296,0.1,1,0,AccAcc,39,18,Woman,Right,
32,13,1,0.651205400001345,['n'],1,right,['u'],1,0.14728939999986324,0.4,1,0,AccAcc,39,18,Woman,Right,
33,13,1,0.6509012999995321,['n'],1,right,['u'],1,0.6783429000006436,0.4,1,0,AccAcc,39,18,Woman,Right,
34,13,1,0.5348010000016075,['n'],1,right,['u'],1,0.13581040000099165,0.4,1,0,AccAcc,39,18,Woman,Right,
35,13,1,0.6336401000007754,['c'],1,left,['u'],1,0.10737320000043837,0.2,1,0,AccAcc,39,18,Woman,Right,
36,13,1,1.1846722000009322,['n'],1,right,['u'],1,0.15425839999988966,0.2,1,0,AccAcc,39,18,Woman,Right,
37,13,1,0.6006023000009009,['n'],1,right,['u'],1,0.1905287000008684,0.2,1,0,AccAcc,39,18,Woman,Right,
38,13,1,0.6341324000004533,['n'],1,right,['u'],1,0.1601635000006354,0.1,1,0,AccAcc,39,18,Woman,Right,
39,13,1,0.6195117999996,['c'],1,left,['u'],1,0.13190140000006068,0.2,1,0,AccAcc,39,18,Woman,Right,
40,13,1,0.7173063000009279,['n'],0,left,['u'],1,0.11635459999888553,0.1,0,0,AccAcc,39,18,Woman,Right,
41,13,1,0.8999597999991238,['c'],1,left,['u'],1,0.14236780000101135,0.1,1,0,AccAcc,39,18,Woman,Right,
42,13,1,4.1328718999993725,['c'],0,right,['e'],0,1.2701398999997764,0.2,1,0,AccAcc,39,18,Woman,Right,
43,13,1,1.4021066999994218,['c'],0,right,['u'],1,0.2215541999994457,0.2,0,0,AccAcc,39,18,Woman,Right,
44,13,1,0.8346050999989529,['c'],1,left,['u'],1,0.13373060000049009,0.2,1,0,AccAcc,39,18,Woman,Right,
45,13,1,0.5013438000005408,['n'],1,right,['u'],1,0.15866839999944204,0.2,1,0,AccAcc,39,18,Woman,Right,
46,13,1,1.1010652000004484,['n'],1,right,['u'],1,0.12689460000001418,0.1,1,0,AccAcc,39,18,Woman,Right,
47,13,1,0.6179969999993773,['c'],1,left,['u'],1,0.16402610000113782,0.2,1,0,AccAcc,39,18,Woman,Right,
48,13,1,0.6013290999999299,['c'],1,left,['u'],1,0.13554839999960677,0.2,1,0,AccAcc,39,18,Woman,Right,
49,13,1,1.1498332999999548,['n'],1,right,['u'],1,0.11906420000013895,0.1,1,0,AccAcc,39,18,Woman,Right,
50,13,1,0.6680778000009013,['n'],1,right,['u'],1,0.13741059999847494,0.2,1,0,AccAcc,39,18,Woman,Right,
51,13,1,1.317918799999461,['n'],1,right,['u'],1,0.13029370000003837,0.1,1,0,AccAcc,39,18,Woman,Right,
52,13,1,0.967368899999201,['n'],0,left,['u'],1,0.16806610000094224,0.1,0,0,AccAcc,39,18,Woman,Right,
53,13,1,0.7678761999995913,['c'],1,left,['u'],1,0.1811003000002529,0.1,1,0,AccAcc,39,18,Woman,Right,
54,13,1,0.9168582000002061,['n'],0,left,['u'],1,0.07568139999966661,0.1,0,0,AccAcc,39,18,Woman,Right,
55,13,1,0.7846784999983356,['n'],1,right,['u'],1,0.18755349999992177,0.1,1,0,AccAcc,39,18,Woman,Right,
56,13,1,1.434455299999172,['c'],1,left,['e'],0,0.5413881000004039,0.2,0,0,AccAcc,39,18,Woman,Right,
57,13,1,0.6006851999991341,['n'],1,right,['u'],1,0.13035630000013043,0.4,1,0,AccAcc,39,18,Woman,Right,
58,13,1,0.7169558999994479,['c'],1,left,['u'],1,0.17899270000089018,0.2,1,0,AccAcc,39,18,Woman,Right,
59,13,1,0.5188450000005105,['n'],1,right,['u'],1,0.1212418000013713,0.4,1,0,AccAcc,39,18,Woman,Right,
0,14,1,0.933176900000035,['c'],1,left,['u'],1,0.1613956999990478,0.1,1,0,FastAcc,39,18,Woman,Right,
1,14,1,0.533634899999015,['c'],1,left,['u'],1,0.15164659999936703,0.4,1,0,FastAcc,39,18,Woman,Right,
2,14,1,0.5340898000013112,['n'],1,right,['u'],1,0.1264592999996239,0.4,1,0,FastAcc,39,18,Woman,Right,
3,14,1,0.5181401999998343,['n'],1,right,['u'],1,0.11938820000068517,0.2,1,0,FastAcc,39,18,Woman,Right,
4,14,1,0.6847341000011511,['c'],1,left,['u'],1,0.1379348000009486,0.4,1,0,FastAcc,39,18,Woman,Right,
5,14,1,0.5843201000006957,['c'],1,left,['u'],1,0.1433296999985032,0.4,1,0,FastAcc,39,18,Woman,Right,
6,14,1,0.6845181999997294,['n'],1,right,['u'],1,0.12885520000054385,0.1,1,0,FastAcc,39,18,Woman,Right,
7,14,1,0.5003685000010591,['n'],1,right,['u'],1,0.15389580000010028,0.1,1,0,FastAcc,39,18,Woman,Right,
8,14,1,0.5847473999983777,['n'],1,right,['u'],1,0.14310509999995702,0.2,1,0,FastAcc,39,18,Woman,Right,
9,14,1,0.7346823000007134,['c'],1,left,['u'],1,0.15830599999935657,0.2,1,0,FastAcc,39,18,Woman,Right,
10,14,1,0.6988159000011365,['n'],1,right,['u'],1,0.14404719999947702,0.1,1,0,FastAcc,39,18,Woman,Right,
11,14,1,0.5519119999989925,['c'],1,left,['u'],1,0.14950349999890022,0.4,1,0,FastAcc,39,18,Woman,Right,
12,14,1,0.6844590000000608,['n'],0,left,['u'],1,0.1184568999997282,0.1,0,0,FastAcc,39,18,Woman,Right,
13,14,1,0.6515252999997756,['c'],1,left,['u'],1,0.10690819999945234,0.2,1,0,FastAcc,39,18,Woman,Right,
14,14,1,3.051096499999403,['c'],0,right,['e'],0,0.41495969999959925,0.2,1,0,FastAcc,39,18,Woman,Right,
15,14,1,2.6676152,['c'],0,right,['e'],0,0.5018491999999242,0.1,1,0,FastAcc,39,18,Woman,Right,
16,14,1,2.73458440000104,['c'],1,left,['u'],1,0.07133080000130576,0.4,1,0,FastAcc,39,18,Woman,Right,
17,14,1,3.7337416999998823,['c'],1,left,['e'],0,0.1935857999997097,0.1,0,0,FastAcc,39,18,Woman,Right,
18,14,1,1.284528500000306,['c'],1,left,['u'],1,0.16929689999960829,0.4,1,0,FastAcc,39,18,Woman,Right,
19,14,1,0.7504534999989119,['n'],1,right,['u'],1,0.10290059999897494,0.2,1,0,FastAcc,39,18,Woman,Right,
20,14,1,0.8674893000006705,['c'],1,left,['u'],1,0.322768800000631,0.2,1,0,FastAcc,39,18,Woman,Right,
21,14,1,0.6166734999987966,['n'],1,right,['u'],1,0.11200680000001739,0.2,1,0,FastAcc,39,18,Woman,Right,
22,14,1,0.6678608999991411,['c'],1,left,['u'],1,0.14707819999966887,0.4,1,0,FastAcc,39,18,Woman,Right,
23,14,1,0.5848657999995339,['n'],1,right,['u'],1,0.10406800000055227,0.2,1,0,FastAcc,39,18,Woman,Right,
24,14,1,0.6012036000010994,['n'],1,right,['u'],1,0.126198400001158,0.2,1,0,FastAcc,39,18,Woman,Right,
25,14,1,0.7515519000007771,['n'],1,right,['u'],1,0.1900283999984822,0.1,1,0,FastAcc,39,18,Woman,Right,
26,14,1,1.782404300000053,['c'],1,left,['u'],1,0.09838459999991755,0.1,1,0,FastAcc,39,18,Woman,Right,
27,14,1,0.783538799998496,['n'],1,right,['u'],1,0.06475599999976112,0.2,1,0,FastAcc,39,18,Woman,Right,
28,14,1,0.5513286000004882,['n'],1,right,['u'],1,0.1380849000015587,0.2,1,0,FastAcc,39,18,Woman,Right,
29,14,1,0.4347089999992022,['n'],1,right,['u'],1,0.11765249999916705,0.4,1,0,FastAcc,39,18,Woman,Right,
30,14,1,0.5684807999987243,['n'],1,right,['u'],1,0.10853769999994256,0.4,1,0,FastAcc,39,18,Woman,Right,
31,14,1,0.5511972999993304,['n'],1,right,['u'],1,0.16493619999891962,0.4,1,0,FastAcc,39,18,Woman,Right,
32,14,1,0.9676405999998678,['n'],0,left,['u'],1,0.20187970000006317,0.1,0,0,FastAcc,39,18,Woman,Right,
33,14,1,0.8677361000009114,['c'],1,left,['u'],1,0.12953510000079405,0.1,1,0,FastAcc,39,18,Woman,Right,
34,14,1,0.8842565000013565,['c'],1,left,['u'],1,0.1075302000008378,0.4,1,0,FastAcc,39,18,Woman,Right,
35,14,1,1.5011408000009396,['c'],0,right,['e'],0,0.15763799999876937,0.1,1,0,FastAcc,39,18,Woman,Right,
36,14,1,0.6682710999994015,['c'],0,right,['e'],0,0.12706679999973858,0.2,1,0,FastAcc,39,18,Woman,Right,
37,14,1,1.5005502999993041,['c'],1,left,['e'],0,0.19266290000086883,0.4,0,0,FastAcc,39,18,Woman,Right,
38,14,1,0.835751500000697,['n'],1,right,['u'],1,0.13834599999972852,0.2,1,0,FastAcc,39,18,Woman,Right,
39,14,1,0.517709300000206,['n'],1,right,['u'],1,0.1319999999996071,0.2,1,0,FastAcc,39,18,Woman,Right,
40,14,1,0.7018926000000647,['c'],1,left,['u'],1,0.16345080000064627,0.1,1,0,FastAcc,39,18,Woman,Right,
41,14,1,0.6513956999988295,['c'],0,right,['u'],1,0.11734450000039942,0.1,0,0,FastAcc,39,18,Woman,Right,
42,14,1,0.534994600000573,['n'],1,right,['u'],1,0.1256245000004128,0.4,1,0,FastAcc,39,18,Woman,Right,
43,14,1,0.5686377000001812,['n'],1,right,['u'],1,0.13234360000024026,0.2,1,0,FastAcc,39,18,Woman,Right,
44,14,1,0.6012482999994972,['c'],1,left,['u'],1,0.1211593999996694,0.2,1,0,FastAcc,39,18,Woman,Right,
45,14,1,1.1003326999998535,['n'],0,left,['u'],1,0.15504540000074485,0.1,0,0,FastAcc,39,18,Woman,Right,
46,14,1,0.5844940999995742,['n'],1,right,['u'],1,0.09615519999897515,0.4,1,0,FastAcc,39,18,Woman,Right,
47,14,1,0.5513868999987608,['n'],0,left,['u'],1,0.15198169999894162,0.4,0,0,FastAcc,39,18,Woman,Right,
48,14,1,1.0680121000004874,['c'],1,left,['u'],1,0.15457229999992705,0.1,1,0,FastAcc,39,18,Woman,Right,
49,14,1,1.4680552999998326,['c'],1,left,['u'],1,0.123270500000217,0.4,1,0,FastAcc,39,18,Woman,Right,
50,14,1,1.1674118000009912,['n'],0,left,['u'],1,0.12249759999940579,0.1,0,0,FastAcc,39,18,Woman,Right,
51,14,1,0.9353881000006368,['c'],1,left,['u'],1,0.11565899999914109,0.4,1,0,FastAcc,39,18,Woman,Right,
52,14,1,0.7496406999998726,['c'],1,left,['u'],1,0.08395870000094874,0.1,1,0,FastAcc,39,18,Woman,Right,
53,14,1,1.367954600000303,['n'],1,right,['u'],1,0.09096409999983734,0.4,1,0,FastAcc,39,18,Woman,Right,
54,14,1,2.317769799999951,['n'],1,right,['u'],1,0.17300040000009176,0.1,1,0,FastAcc,39,18,Woman,Right,
55,14,1,1.117472899999484,['c'],1,left,['u'],1,0.204360199999428,0.1,1,0,FastAcc,39,18,Woman,Right,
56,14,1,0.7010781000008137,['c'],1,left,['u'],1,0.15468519999922137,0.4,1,0,FastAcc,39,18,Woman,Right,
57,14,1,0.6675419000002876,['n'],1,right,['u'],1,0.18797210000047926,0.2,1,0,FastAcc,39,18,Woman,Right,
58,14,1,0.7006853000002593,['c'],1,left,['u'],1,0.12275409999892872,0.2,1,0,FastAcc,39,18,Woman,Right,
59,14,1,0.7512869999991381,['n'],1,right,['u'],1,0.20244149999962247,0.2,1,0,FastAcc,39,18,Woman,Right,
0,15,1,0.918162999998458,['c'],1,left,['u'],1,0.1206330999993952,0.4,1,0,FastFast,39,18,Woman,Right,
1,15,1,1.0837233000002016,['c'],1,left,['u'],1,0.09118730000045616,0.2,1,0,FastFast,39,18,Woman,Right,
2,15,1,1.1678283000001102,['n'],1,right,['u'],1,0.1397476000001916,0.2,1,0,FastFast,39,18,Woman,Right,
3,15,1,0.5680593000015506,['n'],1,right,['u'],1,0.14531410000017786,0.4,1,0,FastFast,39,18,Woman,Right,
4,15,1,0.4681495000004361,['n'],1,right,['u'],1,0.17101619999994,0.4,1,0,FastFast,39,18,Woman,Right,
5,15,1,0.9836589000005915,['c'],1,left,['u'],1,0.12734649999947578,0.2,1,0,FastFast,39,18,Woman,Right,
6,15,1,0.6501586999984283,['n'],0,left,['u'],1,0.17896699999982957,0.1,0,0,FastFast,39,18,Woman,Right,
7,15,1,0.6679947000011452,['c'],1,left,['u'],1,0.08332510000036564,0.4,1,0,FastFast,39,18,Woman,Right,
8,15,1,0.7334571999999753,['c'],1,left,['u'],1,0.11756480000076408,0.4,1,0,FastFast,39,18,Woman,Right,
9,15,1,0.6343852999998489,['c'],1,left,['u'],1,0.10507240000151796,0.4,1,0,FastFast,39,18,Woman,Right,
10,15,1,0.8173102000000654,['c'],1,left,['u'],1,0.15077299999938987,0.4,1,0,FastFast,39,18,Woman,Right,
11,15,1,0.9006085000000894,['n'],1,right,['u'],1,0.1268736000001809,0.2,1,0,FastFast,39,18,Woman,Right,
12,15,1,0.84925099999964,['c'],1,left,['u'],1,0.12402460000157589,0.1,1,0,FastFast,39,18,Woman,Right,
13,15,1,0.9347909999996773,['c'],0,right,['u'],1,0.16297599999961676,0.1,0,0,FastFast,39,18,Woman,Right,
14,15,1,0.6508014999999432,['n'],1,right,['u'],1,0.1485171000003902,0.2,1,0,FastFast,39,18,Woman,Right,
15,15,1,0.6665518000008888,['c'],1,left,['u'],1,0.10294880000037665,0.2,1,0,FastFast,39,18,Woman,Right,
16,15,1,0.7180160999996588,['c'],1,left,['u'],1,0.10395359999893117,0.1,1,0,FastFast,39,18,Woman,Right,
17,15,1,1.0009680000002845,['c'],1,left,['u'],1,0.25446829999964393,0.4,1,0,FastFast,39,18,Woman,Right,
18,15,1,0.9503519999998389,['c'],1,left,['u'],1,0.06463029999940773,0.4,1,0,FastFast,39,18,Woman,Right,
19,15,1,0.817107799999576,['c'],1,left,['u'],1,0.11132349999934377,0.4,1,0,FastFast,39,18,Woman,Right,
20,15,1,0.7851354000013089,['n'],1,right,['u'],1,0.15810360000068613,0.2,1,0,FastFast,39,18,Woman,Right,
21,15,1,0.5843819000001531,['n'],0,left,['u'],1,0.14706660000047123,0.2,0,0,FastFast,39,18,Woman,Right,
22,15,1,0.5999965999999404,['n'],1,right,['u'],1,0.15201940000042669,0.4,1,0,FastFast,39,18,Woman,Right,
23,15,1,1.5013754000010522,['n'],1,right,['u'],1,0.10393979999935254,0.2,1,0,FastFast,39,18,Woman,Right,
24,15,1,0.58392239999921,['n'],1,right,['u'],1,0.15857949999917764,0.4,1,0,FastFast,39,18,Woman,Right,
25,15,1,0.6674466999993456,['c'],1,left,['u'],1,0.11218910000025062,0.2,1,0,FastFast,39,18,Woman,Right,
26,15,1,1.3840494999985822,['n'],1,right,['u'],1,0.16653150000092865,0.2,1,0,FastFast,39,18,Woman,Right,
27,15,1,0.9179359000008844,['c'],1,left,['u'],1,0.10997320000024047,0.1,1,0,FastFast,39,18,Woman,Right,
28,15,1,1.8838505000003352,['n'],1,right,['u'],1,0.14466580000043905,0.1,1,0,FastFast,39,18,Woman,Right,
29,15,1,0.5841153999990638,['n'],1,right,['u'],1,0.13419509999948787,0.2,1,0,FastFast,39,18,Woman,Right,
30,15,1,1.450149700000111,['n'],1,right,['u'],1,0.13853939999899012,0.1,1,0,FastFast,39,18,Woman,Right,
31,15,1,0.8346598000007361,['c'],1,left,['u'],1,0.18082669999967038,0.1,1,0,FastFast,39,18,Woman,Right,
32,15,1,3.767946900001334,['c'],1,left,['e'],0,0.24953019999884418,0.1,0,0,FastFast,39,18,Woman,Right,
33,15,1,0.8499019999999291,['c'],1,left,['e'],0,0.14383959999940998,0.1,0,0,FastFast,39,18,Woman,Right,
34,15,1,0.9494666999999026,['n'],1,right,['u'],1,0.1523081999985152,0.1,1,0,FastFast,39,18,Woman,Right,
35,15,1,0.9850044999984675,['c'],1,left,['u'],1,0.07665749999978289,0.4,1,0,FastFast,39,18,Woman,Right,
36,15,1,0.9013109999996232,['n'],1,right,['u'],1,0.13533599999936996,0.1,1,0,FastFast,39,18,Woman,Right,
37,15,1,1.3513886999990063,['n'],1,right,['u'],1,0.12650650000068708,0.4,1,0,FastFast,39,18,Woman,Right,
38,15,1,2.0680396999996447,['c'],0,right,['u'],1,0.34548220000033325,0.1,0,0,FastFast,39,18,Woman,Right,
39,15,1,1.5845116000000417,['c'],0,right,['e'],0,0.4625792000006186,0.2,1,0,FastFast,39,18,Woman,Right,
40,15,1,0.8176488999997673,['c'],1,left,['e'],0,0.2056308999999601,0.1,0,0,FastFast,39,18,Woman,Right,
41,15,1,0.8683760999992955,['n'],1,right,['u'],1,0.08611799999926006,0.1,1,0,FastFast,39,18,Woman,Right,
42,15,1,0.5846387000001414,['c'],1,left,['u'],1,0.14070670000000973,0.4,1,0,FastFast,39,18,Woman,Right,
43,15,1,1.7507119000001694,['c'],0,right,['u'],1,0.1323151999986294,0.1,0,0,FastFast,39,18,Woman,Right,
44,15,1,1.1677512999995088,['n'],0,left,['u'],1,0.13020770000002813,0.1,0,0,FastFast,39,18,Woman,Right,
45,15,1,1.1179450999989058,['c'],0,right,['u'],1,0.11435449999953562,0.1,0,0,FastFast,39,18,Woman,Right,
46,15,1,0.8172702000010759,['n'],1,right,['u'],1,0.0956183999987843,0.2,1,0,FastFast,39,18,Woman,Right,
47,15,1,0.5675823000001401,['n'],1,right,['u'],1,0.13503070000115258,0.2,1,0,FastFast,39,18,Woman,Right,
48,15,1,0.6679819000000862,['c'],1,left,['u'],1,0.12122930000077758,0.2,1,0,FastFast,39,18,Woman,Right,
49,15,1,0.4841326999994635,['n'],1,right,['u'],1,0.0835583999996743,0.4,1,0,FastFast,39,18,Woman,Right,
50,15,1,0.5006812999999966,['n'],1,right,['u'],1,0.12641249999978754,0.4,1,0,FastFast,39,18,Woman,Right,
51,15,1,1.1002617000012833,['n'],1,right,['u'],1,0.12804980000146315,0.2,1,0,FastFast,39,18,Woman,Right,
52,15,1,0.7188956999998481,['c'],1,left,['u'],1,0.12902759999997215,0.4,1,0,FastFast,39,18,Woman,Right,
53,15,1,0.7184695999985706,['c'],1,left,['u'],1,0.06537770000068122,0.2,1,0,FastFast,39,18,Woman,Right,
54,15,1,2.167814799999178,['n'],1,right,['u'],1,0.13849630000004254,0.1,1,0,FastFast,39,18,Woman,Right,
55,15,1,0.7178229999990435,['n'],0,left,['u'],1,0.1226611000001867,0.2,0,0,FastFast,39,18,Woman,Right,
56,15,1,0.9845060999996349,['c'],1,left,['u'],1,0.06500419999974838,0.4,1,0,FastFast,39,18,Woman,Right,
57,15,1,1.2013998000002175,['n'],1,right,['u'],1,0.14474970000082976,0.1,1,0,FastFast,39,18,Woman,Right,
58,15,1,0.668221200001426,['c'],1,left,['u'],1,0.11486800000056974,0.2,1,0,FastFast,39,18,Woman,Right,
59,15,1,0.5013466000000335,['n'],1,right,['u'],1,0.10843000000022585,0.4,1,0,FastFast,39,18,Woman,Right,
