withinblocktrial,block,block_repetition,rt,resp,cor,cresp,conf_press,cj,rtconf,coherence,metacognition,slow_trial,manipulation,sub,age,gender,handedness,
0,1,1,2.483769000000393,['n'],0,left,none,-99,-99,0.5,-99,0,none,30,18,Woman,Left,
1,1,1,3.450399199999083,['c'],0,right,none,-99,-99,0.5,-99,0,none,30,18,Woman,Left,
2,1,1,2.1494769000000815,['n'],1,right,none,-99,-99,0.5,-99,0,none,30,18,Woman,Left,
3,1,1,1.0497642999998789,['c'],0,right,none,-99,-99,0.5,-99,0,none,30,18,Woman,Left,
4,1,1,1.916503799999191,['c'],1,left,none,-99,-99,0.5,-99,0,none,30,18,Woman,Left,
5,1,1,1.300060300000041,['n'],1,right,none,-99,-99,0.5,-99,0,none,30,18,Woman,Left,
6,1,1,1.9348303000006126,['c'],1,left,none,-99,-99,0.5,-99,0,none,30,18,Woman,Left,
7,1,1,1.5674909999997908,['n'],0,left,none,-99,-99,0.5,-99,0,none,30,18,Woman,Left,
8,1,1,1.1845111000002362,['n'],1,right,none,-99,-99,0.5,-99,0,none,30,18,Woman,Left,
9,1,1,1.3510362000015448,['c'],1,left,none,-99,-99,0.5,-99,0,none,30,18,Woman,Left,
10,1,1,0.7341930000002321,['n'],1,right,none,-99,-99,0.5,-99,0,none,30,18,Woman,Left,
11,1,1,2.0658008999998856,['n'],1,right,none,-99,-99,0.5,-99,0,none,30,18,Woman,Left,
12,1,1,0.9495688000006339,['n'],1,right,none,-99,-99,0.5,-99,0,none,30,18,Woman,Left,
13,1,1,1.1503546000003553,['c'],0,right,none,-99,-99,0.5,-99,0,none,30,18,Woman,Left,
14,1,1,0.9180434999998397,['n'],1,right,none,-99,-99,0.5,-99,0,none,30,18,Woman,Left,
15,1,1,0.9326383999996324,['n'],1,right,none,-99,-99,0.5,-99,0,none,30,18,Woman,Left,
16,1,1,0.5351028999994014,['c'],1,left,none,-99,-99,0.5,-99,0,none,30,18,Woman,Left,
17,1,1,0.7836497000007512,['c'],1,left,none,-99,-99,0.5,-99,0,none,30,18,Woman,Left,
18,1,1,0.982806599999094,['n'],0,left,none,-99,-99,0.5,-99,0,none,30,18,Woman,Left,
19,1,1,0.6501246000007086,['c'],1,left,none,-99,-99,0.5,-99,0,none,30,18,Woman,Left,
20,1,1,0.699416100000235,['c'],1,left,none,-99,-99,0.5,-99,0,none,30,18,Woman,Left,
21,1,1,1.100411500001428,['c'],1,left,none,-99,-99,0.5,-99,0,none,30,18,Woman,Left,
22,1,1,0.8819722000007459,['c'],1,left,none,-99,-99,0.5,-99,0,none,30,18,Woman,Left,
23,1,1,0.6007430999998178,['n'],1,right,none,-99,-99,0.5,-99,0,none,30,18,Woman,Left,
0,1,2,0.8346456999988732,['c'],1,left,none,-99,-99,0.5,-99,0,none,30,18,Woman,Left,
1,1,2,0.6157170000005863,['n'],1,right,none,-99,-99,0.5,-99,0,none,30,18,Woman,Left,
2,1,2,0.7508281999998871,['c'],0,right,none,-99,-99,0.5,-99,0,none,30,18,Woman,Left,
3,1,2,0.48378819999925327,['n'],1,right,none,-99,-99,0.5,-99,0,none,30,18,Woman,Left,
4,1,2,0.6171314000002894,['n'],1,right,none,-99,-99,0.5,-99,0,none,30,18,Woman,Left,
5,1,2,0.4842445000012958,['c'],1,left,none,-99,-99,0.5,-99,0,none,30,18,Woman,Left,
6,1,2,0.46702189999996335,['n'],1,right,none,-99,-99,0.5,-99,0,none,30,18,Woman,Left,
7,1,2,0.5832759999993868,['c'],0,right,none,-99,-99,0.5,-99,0,none,30,18,Woman,Left,
8,1,2,0.5002201999996032,['n'],1,right,none,-99,-99,0.5,-99,0,none,30,18,Woman,Left,
9,1,2,0.4669670999992377,['c'],1,left,none,-99,-99,0.5,-99,0,none,30,18,Woman,Left,
10,1,2,0.58297390000007,['c'],1,left,none,-99,-99,0.5,-99,0,none,30,18,Woman,Left,
11,1,2,0.46686790000057954,['c'],1,left,none,-99,-99,0.5,-99,0,none,30,18,Woman,Left,
12,1,2,0.6177425000005314,['c'],1,left,none,-99,-99,0.5,-99,0,none,30,18,Woman,Left,
13,1,2,0.8658829999985755,['n'],0,left,none,-99,-99,0.5,-99,0,none,30,18,Woman,Left,
14,1,2,0.5499245999999403,['n'],1,right,none,-99,-99,0.5,-99,0,none,30,18,Woman,Left,
15,1,2,0.5332992999992712,['c'],1,left,none,-99,-99,0.5,-99,0,none,30,18,Woman,Left,
16,1,2,0.6663365000003978,['n'],0,left,none,-99,-99,0.5,-99,0,none,30,18,Woman,Left,
17,1,2,0.5500737000002118,['c'],1,left,none,-99,-99,0.5,-99,0,none,30,18,Woman,Left,
18,1,2,0.6007709000004979,['n'],1,right,none,-99,-99,0.5,-99,0,none,30,18,Woman,Left,
19,1,2,0.5171664999998029,['c'],1,left,none,-99,-99,0.5,-99,0,none,30,18,Woman,Left,
20,1,2,0.4996726999997918,['n'],1,right,none,-99,-99,0.5,-99,0,none,30,18,Woman,Left,
21,1,2,0.4507394000011118,['c'],1,left,none,-99,-99,0.5,-99,0,none,30,18,Woman,Left,
22,1,2,0.4826269000004686,['n'],1,right,none,-99,-99,0.5,-99,0,none,30,18,Woman,Left,
23,1,2,1.0830695999993623,['n'],1,right,none,-99,-99,0.5,-99,0,none,30,18,Woman,Left,
0,1,3,1.1336023999992904,['c'],1,left,none,-99,-99,0.5,-99,0,none,30,18,Woman,Left,
1,1,3,0.4163072999999713,['n'],1,right,none,-99,-99,0.5,-99,0,none,30,18,Woman,Left,
2,1,3,0.8335052999991603,['n'],1,right,none,-99,-99,0.5,-99,0,none,30,18,Woman,Left,
3,1,3,0.3990427999997337,['c'],1,left,none,-99,-99,0.5,-99,0,none,30,18,Woman,Left,
4,1,3,0.49958370000058494,['c'],1,left,none,-99,-99,0.5,-99,0,none,30,18,Woman,Left,
5,1,3,0.6168890999997529,['c'],1,left,none,-99,-99,0.5,-99,0,none,30,18,Woman,Left,
6,1,3,1.2669473000005382,['c'],1,left,none,-99,-99,0.5,-99,0,none,30,18,Woman,Left,
7,1,3,0.9517044000003807,['n'],0,left,none,-99,-99,0.5,-99,0,none,30,18,Woman,Left,
8,1,3,0.615830000000642,['c'],1,left,none,-99,-99,0.5,-99,0,none,30,18,Woman,Left,
9,1,3,0.5162165000001551,['n'],1,right,none,-99,-99,0.5,-99,0,none,30,18,Woman,Left,
10,1,3,0.6831579999998212,['n'],1,right,none,-99,-99,0.5,-99,0,none,30,18,Woman,Left,
11,1,3,0.6677185999997164,['n'],1,right,none,-99,-99,0.5,-99,0,none,30,18,Woman,Left,
12,1,3,0.783245500000703,['n'],1,right,none,-99,-99,0.5,-99,0,none,30,18,Woman,Left,
13,1,3,0.7184627000006003,['n'],1,right,none,-99,-99,0.5,-99,0,none,30,18,Woman,Left,
14,1,3,0.48369150000144145,['c'],1,left,none,-99,-99,0.5,-99,0,none,30,18,Woman,Left,
15,1,3,0.7492122000003292,['n'],0,left,none,-99,-99,0.5,-99,0,none,30,18,Woman,Left,
16,1,3,0.5670328000014706,['c'],1,left,none,-99,-99,0.5,-99,0,none,30,18,Woman,Left,
17,1,3,0.6328228999991552,['c'],1,left,none,-99,-99,0.5,-99,0,none,30,18,Woman,Left,
18,1,3,0.4836673999998311,['n'],1,right,none,-99,-99,0.5,-99,0,none,30,18,Woman,Left,
19,1,3,0.4832919000000402,['c'],1,left,none,-99,-99,0.5,-99,0,none,30,18,Woman,Left,
20,1,3,0.41768599999886646,['n'],1,right,none,-99,-99,0.5,-99,0,none,30,18,Woman,Left,
21,1,3,0.500260699998762,['n'],1,right,none,-99,-99,0.5,-99,0,none,30,18,Woman,Left,
22,1,3,0.617340000000695,['n'],1,right,none,-99,-99,0.5,-99,0,none,30,18,Woman,Left,
23,1,3,0.5342696999996406,['n'],1,right,none,-99,-99,0.5,-99,0,none,30,18,Woman,Left,
0,2,1,0.6673399999999674,['c'],1,left,none,-99,-99,0.4,-99,0,none,30,18,Woman,Left,
1,2,1,2.1843434999991587,['c'],1,left,none,-99,-99,0.1,-99,0,none,30,18,Woman,Left,
2,2,1,0.7337297999984003,['n'],1,right,none,-99,-99,0.2,-99,0,none,30,18,Woman,Left,
3,2,1,0.5004396999993332,['c'],1,left,none,-99,-99,0.2,-99,0,none,30,18,Woman,Left,
4,2,1,0.5170445999992808,['n'],1,right,none,-99,-99,0.1,-99,0,none,30,18,Woman,Left,
5,2,1,0.7336020999991888,['c'],1,left,none,-99,-99,0.1,-99,0,none,30,18,Woman,Left,
6,2,1,0.9006728000003932,['n'],1,right,none,-99,-99,0.1,-99,0,none,30,18,Woman,Left,
7,2,1,0.5681672000009712,['c'],0,right,none,-99,-99,0.1,-99,0,none,30,18,Woman,Left,
8,2,1,0.6829778000010265,['n'],1,right,none,-99,-99,0.1,-99,0,none,30,18,Woman,Left,
9,2,1,0.6005433999998786,['n'],1,right,none,-99,-99,0.4,-99,0,none,30,18,Woman,Left,
10,2,1,1.217467000000397,['n'],1,right,none,-99,-99,0.2,-99,0,none,30,18,Woman,Left,
11,2,1,0.5672668999995949,['c'],1,left,none,-99,-99,0.4,-99,0,none,30,18,Woman,Left,
12,2,1,0.6991988999998284,['c'],1,left,none,-99,-99,0.1,-99,0,none,30,18,Woman,Left,
13,2,1,0.8173276000015903,['n'],1,right,none,-99,-99,0.2,-99,0,none,30,18,Woman,Left,
14,2,1,0.6845690999998624,['n'],0,left,none,-99,-99,0.2,-99,0,none,30,18,Woman,Left,
15,2,1,0.9843459999992774,['n'],1,right,none,-99,-99,0.2,-99,0,none,30,18,Woman,Left,
16,2,1,0.5677829000014754,['c'],1,left,none,-99,-99,0.4,-99,0,none,30,18,Woman,Left,
17,2,1,0.6833811000014975,['n'],0,left,none,-99,-99,0.2,-99,0,none,30,18,Woman,Left,
18,2,1,0.4836618000008457,['c'],1,left,none,-99,-99,0.1,-99,0,none,30,18,Woman,Left,
19,2,1,0.7326580999997532,['n'],0,left,none,-99,-99,0.4,-99,0,none,30,18,Woman,Left,
20,2,1,0.9349497000002884,['n'],1,right,none,-99,-99,0.4,-99,0,none,30,18,Woman,Left,
21,2,1,0.8676586999990832,['n'],1,right,none,-99,-99,0.4,-99,0,none,30,18,Woman,Left,
22,2,1,0.4338747000001604,['n'],1,right,none,-99,-99,0.4,-99,0,none,30,18,Woman,Left,
23,2,1,0.4996019000009255,['c'],1,left,none,-99,-99,0.2,-99,0,none,30,18,Woman,Left,
0,3,1,5.000191999999515,x,-99,left,none,-99,-99,0.4,-99,1,none,30,18,Woman,Left,
1,3,1,0.835137100000793,['n'],0,left,['u'],0,2.588394000000335,0.1,1,0,none,30,18,Woman,Left,
2,3,1,0.9501854999998613,['c'],1,left,['e'],1,1.2060670999999274,0.2,1,0,none,30,18,Woman,Left,
3,3,1,0.8503079999991314,['n'],0,left,['e'],1,0.5701083000003564,0.4,0,0,none,30,18,Woman,Left,
4,3,1,1.4012102999986382,['n'],1,right,['e'],1,0.8970062999997026,0.4,1,0,none,30,18,Woman,Left,
5,3,1,1.4677900999995472,['c'],0,right,['u'],0,0.6967069999991509,0.1,1,0,none,30,18,Woman,Left,
6,3,1,0.917124600000534,['n'],0,left,['u'],0,0.9262620999998035,0.1,1,0,none,30,18,Woman,Left,
7,3,1,1.2502868000010494,['n'],1,right,['e'],1,1.2464745999986917,0.2,1,0,none,30,18,Woman,Left,
8,3,1,1.5493717000008473,['n'],1,right,['u'],0,1.5088121999997384,0.2,0,0,none,30,18,Woman,Left,
9,3,1,1.2010476999985258,['c'],1,left,['e'],1,0.7029916999999841,0.4,1,0,none,30,18,Woman,Left,
10,3,1,0.7678720999992947,['n'],0,left,['e'],1,0.5861446999988402,0.2,0,0,none,30,18,Woman,Left,
11,3,1,1.6833065999999235,['n'],1,right,['u'],0,0.6300754000003508,0.1,0,0,none,30,18,Woman,Left,
12,3,1,0.8831745999996201,['n'],1,right,['e'],1,0.27237349999995786,0.4,1,0,none,30,18,Woman,Left,
13,3,1,1.501007099999697,['n'],1,right,['e'],1,0.44703320000007807,0.1,1,0,none,30,18,Woman,Left,
14,3,1,2.1837572999993426,['n'],1,right,['u'],0,0.5716931000006298,0.1,0,0,none,30,18,Woman,Left,
15,3,1,2.267804900000556,['c'],0,right,['u'],0,0.5768676000006963,0.1,1,0,none,30,18,Woman,Left,
16,3,1,1.6500952000005782,['n'],0,left,['u'],0,1.1022625999994489,0.2,1,0,none,30,18,Woman,Left,
17,3,1,2.268109099999492,['n'],0,left,['u'],0,1.726740800000698,0.2,1,0,none,30,18,Woman,Left,
18,3,1,2.434009500000684,['n'],1,right,['e'],1,0.2865142000009655,0.1,1,0,none,30,18,Woman,Left,
19,3,1,0.8007076000012603,['n'],1,right,['e'],1,0.29733699999997043,0.4,1,0,none,30,18,Woman,Left,
20,3,1,0.8508822999992844,['n'],1,right,['e'],1,0.28948529999979655,0.2,1,0,none,30,18,Woman,Left,
21,3,1,0.6497402000004513,['c'],1,left,['u'],0,0.22710150000057183,0.4,0,0,none,30,18,Woman,Left,
22,3,1,2.333458099999916,['c'],1,left,['e'],1,0.5467994999999064,0.2,1,0,none,30,18,Woman,Left,
23,3,1,3.000916299999517,['c'],1,left,['e'],1,0.2196008000009897,0.4,1,0,none,30,18,Woman,Left,
0,4,1,2.2163595000001806,['n'],1,right,['e'],1,0.6756168000010803,0.4,1,0,AccAcc,30,18,Woman,Left,
1,4,1,1.350173699998777,['n'],1,right,['e'],1,0.8852673999990657,0.2,1,0,AccAcc,30,18,Woman,Left,
2,4,1,1.8846559000012348,['n'],1,right,['u'],0,1.704386399998839,0.1,0,0,AccAcc,30,18,Woman,Left,
3,4,1,1.4170556000008219,['c'],1,left,['u'],0,1.8860878999985289,0.1,0,0,AccAcc,30,18,Woman,Left,
4,4,1,0.7844709000000876,['n'],1,right,['e'],1,0.8378198999998858,0.1,1,0,AccAcc,30,18,Woman,Left,
5,4,1,0.9333189999997558,['c'],1,left,['e'],1,0.5306888999984949,0.2,1,0,AccAcc,30,18,Woman,Left,
6,4,1,1.2341817000014998,['c'],1,left,['e'],1,1.9171556000001146,0.4,1,0,AccAcc,30,18,Woman,Left,
7,4,1,0.6840093000009801,['n'],1,right,['e'],1,0.9204433000013523,0.4,1,0,AccAcc,30,18,Woman,Left,
8,4,1,1.7842110000001412,['n'],1,right,['e'],1,1.1338092999994842,0.1,1,0,AccAcc,30,18,Woman,Left,
9,4,1,1.084636400000818,['c'],1,left,['e'],1,0.4715255999999499,0.4,1,0,AccAcc,30,18,Woman,Left,
10,4,1,1.2181219000012788,['n'],1,right,['e'],1,0.8703373999996984,0.2,1,0,AccAcc,30,18,Woman,Left,
11,4,1,1.2180385999999999,['n'],1,right,['e'],1,0.37386590000096476,0.2,1,0,AccAcc,30,18,Woman,Left,
12,4,1,0.8848808000002464,['n'],1,right,['e'],1,0.48575069999969855,0.4,1,0,AccAcc,30,18,Woman,Left,
13,4,1,2.1840689000000566,['c'],1,left,['e'],1,0.7664974999988772,0.4,1,0,AccAcc,30,18,Woman,Left,
14,4,1,0.7502230999998574,['n'],0,left,['e'],1,0.6595225000000937,0.2,0,0,AccAcc,30,18,Woman,Left,
15,4,1,0.7834605000007286,['n'],1,right,['e'],1,0.4452425999988918,0.4,1,0,AccAcc,30,18,Woman,Left,
16,4,1,0.8167859999994107,['c'],0,right,['e'],1,0.5400073000000702,0.1,0,0,AccAcc,30,18,Woman,Left,
17,4,1,2.28375430000051,['n'],1,right,['u'],0,0.46184140000150364,0.1,0,0,AccAcc,30,18,Woman,Left,
18,4,1,1.00205939999978,['c'],1,left,['e'],1,0.5345596000006481,0.2,1,0,AccAcc,30,18,Woman,Left,
19,4,1,0.9179011000014725,['n'],1,right,['e'],1,1.2780032999999094,0.1,1,0,AccAcc,30,18,Woman,Left,
20,4,1,1.016416599999502,['c'],1,left,['e'],1,1.4453865000014048,0.1,1,0,AccAcc,30,18,Woman,Left,
21,4,1,1.6848389000006136,['n'],0,left,['u'],0,0.7943967999999586,0.4,1,0,AccAcc,30,18,Woman,Left,
22,4,1,1.084750100000747,['n'],0,left,['u'],0,1.569974000000002,0.1,1,0,AccAcc,30,18,Woman,Left,
23,4,1,0.9509231000010914,['n'],1,right,['e'],1,0.6716016999998828,0.4,1,0,AccAcc,30,18,Woman,Left,
24,4,1,2.8835734000003868,['c'],1,left,['u'],0,0.3086058000008052,0.2,0,0,AccAcc,30,18,Woman,Left,
25,4,1,0.8342733000008593,['n'],0,left,['e'],1,1.177040800001123,0.1,0,0,AccAcc,30,18,Woman,Left,
26,4,1,1.4833469999994122,['n'],1,right,['e'],1,0.6894621999999799,0.1,1,0,AccAcc,30,18,Woman,Left,
27,4,1,1.017016899999362,['n'],0,left,['e'],1,0.4475261000006867,0.1,0,0,AccAcc,30,18,Woman,Left,
28,4,1,1.3848705000000336,['n'],0,left,['u'],0,0.5375311000007059,0.2,1,0,AccAcc,30,18,Woman,Left,
29,4,1,2.6011706000008417,['c'],1,left,['u'],0,2.5095399000001635,0.1,0,0,AccAcc,30,18,Woman,Left,
30,4,1,3.250787400000263,['n'],0,left,['u'],0,0.8901882000009209,0.2,1,0,AccAcc,30,18,Woman,Left,
31,4,1,1.1012111000000004,['c'],1,left,['e'],1,0.8293842000002769,0.4,1,0,AccAcc,30,18,Woman,Left,
32,4,1,1.9344114999985322,['n'],0,left,['u'],0,0.5448587000009866,0.1,1,0,AccAcc,30,18,Woman,Left,
33,4,1,2.3497511000005034,['n'],1,right,['u'],0,0.6413150999997015,0.2,0,0,AccAcc,30,18,Woman,Left,
34,4,1,0.8522415999996156,['c'],1,left,['e'],1,0.5988644999997632,0.1,1,0,AccAcc,30,18,Woman,Left,
35,4,1,1.733785700000226,['n'],1,right,['e'],1,0.8764984000008553,0.2,1,0,AccAcc,30,18,Woman,Left,
36,4,1,2.8990782000000763,['n'],0,left,['u'],0,0.9044486999991932,0.2,1,0,AccAcc,30,18,Woman,Left,
37,4,1,1.8676109999996697,['n'],1,right,['u'],0,0.49177550000058545,0.1,0,0,AccAcc,30,18,Woman,Left,
38,4,1,2.6346252000003005,['n'],1,right,['u'],0,0.3537510999994993,0.2,0,0,AccAcc,30,18,Woman,Left,
39,4,1,4.600889299999835,['c'],0,right,['e'],1,2.173558000000412,0.4,0,0,AccAcc,30,18,Woman,Left,
40,4,1,0.7844487000002118,['n'],1,right,['e'],1,0.7299879000001965,0.2,1,0,AccAcc,30,18,Woman,Left,
41,4,1,5.00004059999992,x,-99,left,none,-99,-99,0.1,-99,1,AccAcc,30,18,Woman,Left,
42,4,1,1.3844505999986723,['c'],0,right,['e'],1,0.8825039999992441,0.4,0,0,AccAcc,30,18,Woman,Left,
43,4,1,0.7337087000014435,['n'],1,right,['e'],1,0.6121246000002429,0.4,1,0,AccAcc,30,18,Woman,Left,
44,4,1,1.0501406000003044,['n'],1,right,['e'],1,0.8677681999997731,0.1,1,0,AccAcc,30,18,Woman,Left,
45,4,1,0.9333774999995512,['n'],1,right,['e'],1,0.8620817000009993,0.4,1,0,AccAcc,30,18,Woman,Left,
46,4,1,0.8834692000000359,['n'],1,right,['e'],1,0.8747050000001764,0.4,1,0,AccAcc,30,18,Woman,Left,
47,4,1,1.9995904999996128,['c'],1,left,['e'],1,1.0509101999996346,0.4,1,0,AccAcc,30,18,Woman,Left,
48,4,1,0.9011420000006183,['n'],1,right,['e'],1,1.0222721999998612,0.2,1,0,AccAcc,30,18,Woman,Left,
49,4,1,0.8839310999992449,['n'],1,right,['e'],1,1.7326971000002231,0.4,1,0,AccAcc,30,18,Woman,Left,
50,4,1,1.1181369000005361,['n'],1,right,['u'],0,1.1250091000001703,0.2,0,0,AccAcc,30,18,Woman,Left,
51,4,1,0.9348310999994283,['c'],0,right,['e'],1,0.9662324000000808,0.4,0,0,AccAcc,30,18,Woman,Left,
52,4,1,1.1014383000001544,['c'],1,left,['e'],1,0.8859929000009288,0.1,1,0,AccAcc,30,18,Woman,Left,
53,4,1,0.8513578000001871,['c'],1,left,['e'],1,0.5298595999993267,0.4,1,0,AccAcc,30,18,Woman,Left,
54,4,1,0.6846260000002076,['c'],1,left,['u'],0,0.7714271999993798,0.1,0,0,AccAcc,30,18,Woman,Left,
55,4,1,1.2666282000009232,['c'],1,left,['u'],0,1.365600599998288,0.2,0,0,AccAcc,30,18,Woman,Left,
56,4,1,1.101261899999372,['c'],1,left,['e'],1,0.7886768999997003,0.2,1,0,AccAcc,30,18,Woman,Left,
57,4,1,0.8521972999988066,['n'],0,left,['e'],1,0.8689135999993596,0.2,0,0,AccAcc,30,18,Woman,Left,
58,4,1,1.2853485999985423,['c'],1,left,['u'],0,0.5938126000000921,0.2,0,0,AccAcc,30,18,Woman,Left,
59,4,1,1.4505052999993495,['n'],0,left,['u'],0,0.8996706999987509,0.4,1,0,AccAcc,30,18,Woman,Left,
0,5,1,1.7166218000002118,['n'],0,left,['u'],0,0.8739979000001767,0.4,1,0,FastAcc,30,18,Woman,Left,
1,5,1,0.7661291000003985,['c'],0,right,['u'],0,0.715732399999979,0.2,1,0,FastAcc,30,18,Woman,Left,
2,5,1,1.3322996999995667,['c'],1,left,['e'],1,0.7165894000008848,0.4,1,0,FastAcc,30,18,Woman,Left,
3,5,1,0.7656133999989834,['n'],0,left,['e'],1,0.5308316999999079,0.1,0,0,FastAcc,30,18,Woman,Left,
4,5,1,0.7831339999993361,['n'],0,left,['u'],0,0.43214290000105393,0.2,1,0,FastAcc,30,18,Woman,Left,
5,5,1,0.8499806999989232,['c'],1,left,['u'],0,0.383223499999076,0.4,0,0,FastAcc,30,18,Woman,Left,
6,5,1,0.6508988000005047,['c'],1,left,['e'],1,0.39175930000055814,0.4,1,0,FastAcc,30,18,Woman,Left,
7,5,1,0.6164461000007577,['n'],0,left,['e'],1,0.4028058999992936,0.1,0,0,FastAcc,30,18,Woman,Left,
8,5,1,0.7342888999992283,['n'],0,left,['e'],1,0.6786681000012322,0.2,0,0,FastAcc,30,18,Woman,Left,
9,5,1,0.5500845999995363,['c'],1,left,['e'],1,0.42417089999980817,0.2,1,0,FastAcc,30,18,Woman,Left,
10,5,1,0.5159865000005084,['n'],1,right,['u'],0,0.4694844000005105,0.4,0,0,FastAcc,30,18,Woman,Left,
11,5,1,1.1347380999995949,['n'],1,right,['e'],1,0.29503890000160027,0.2,1,0,FastAcc,30,18,Woman,Left,
12,5,1,0.4857654999996157,['c'],0,right,['u'],0,0.5391854000008607,0.1,1,0,FastAcc,30,18,Woman,Left,
13,5,1,2.200060700000904,['n'],0,left,['e'],1,0.4484484999993583,0.1,0,0,FastAcc,30,18,Woman,Left,
14,5,1,0.7683653999993112,['n'],1,right,['e'],1,1.2487240000009479,0.1,1,0,FastAcc,30,18,Woman,Left,
15,5,1,1.0511115999997855,['c'],1,left,['e'],1,0.26316050000059477,0.2,1,0,FastAcc,30,18,Woman,Left,
16,5,1,1.0005930000006629,['n'],0,left,['u'],0,0.7427328999983729,0.1,1,0,FastAcc,30,18,Woman,Left,
17,5,1,1.199206299999787,['c'],1,left,['e'],1,0.6687715999996726,0.2,1,0,FastAcc,30,18,Woman,Left,
18,5,1,2.9829138000004605,['c'],1,left,['e'],1,0.5572872000011557,0.4,1,0,FastAcc,30,18,Woman,Left,
19,5,1,0.6509957999987819,['n'],0,left,['e'],1,0.7023628999995708,0.4,0,0,FastAcc,30,18,Woman,Left,
20,5,1,0.7338846999991802,['c'],1,left,['u'],0,2.5043728000000556,0.4,0,0,FastAcc,30,18,Woman,Left,
21,5,1,0.6347729999997682,['n'],0,left,['e'],1,0.7971127999990131,0.4,0,0,FastAcc,30,18,Woman,Left,
22,5,1,0.5824635999997554,['n'],1,right,['e'],1,0.6476633000002039,0.2,1,0,FastAcc,30,18,Woman,Left,
23,5,1,0.667301999999836,['n'],0,left,['e'],1,0.454417499999181,0.1,0,0,FastAcc,30,18,Woman,Left,
24,5,1,0.5677989999985584,['c'],1,left,['e'],1,0.5263451000009809,0.2,1,0,FastAcc,30,18,Woman,Left,
25,5,1,0.5673774999995658,['n'],1,right,['e'],1,0.37445710000065446,0.2,1,0,FastAcc,30,18,Woman,Left,
26,5,1,0.534192000000985,['n'],1,right,['e'],1,0.35649870000088413,0.1,1,0,FastAcc,30,18,Woman,Left,
27,5,1,0.5850432999995974,['n'],1,right,['e'],1,0.27362320000065665,0.1,1,0,FastAcc,30,18,Woman,Left,
28,5,1,0.6157896999993682,['n'],1,right,['e'],1,0.44821260000026086,0.1,1,0,FastAcc,30,18,Woman,Left,
29,5,1,0.8657992000007653,['n'],0,left,['e'],1,0.3019700999993802,0.4,0,0,FastAcc,30,18,Woman,Left,
30,5,1,0.6007408000004943,['n'],1,right,['e'],1,0.2676056000000244,0.2,1,0,FastAcc,30,18,Woman,Left,
31,5,1,0.5514134999993985,['c'],1,left,['e'],1,0.3006614999994781,0.4,1,0,FastAcc,30,18,Woman,Left,
32,5,1,0.5179578999996011,['n'],0,left,['u'],0,0.5100652999990416,0.1,1,0,FastAcc,30,18,Woman,Left,
33,5,1,0.5840136000006169,['n'],1,right,['e'],1,0.3090245000003051,0.4,1,0,FastAcc,30,18,Woman,Left,
34,5,1,1.4002969000011944,['n'],0,left,['e'],1,0.5163721000008081,0.1,0,0,FastAcc,30,18,Woman,Left,
35,5,1,0.5679055000000517,['n'],1,right,['e'],1,0.24988560000019788,0.4,1,0,FastAcc,30,18,Woman,Left,
36,5,1,1.2670206999991933,['n'],1,right,['u'],0,0.19156139999904553,0.1,0,0,FastAcc,30,18,Woman,Left,
37,5,1,0.5178094000002602,['c'],1,left,['e'],1,0.6939138000016101,0.4,1,0,FastAcc,30,18,Woman,Left,
38,5,1,0.6343286000010266,['n'],1,right,['e'],1,1.7154950000003737,0.4,1,0,FastAcc,30,18,Woman,Left,
39,5,1,0.6676993000000948,['n'],1,right,['e'],1,0.5822867999995651,0.2,1,0,FastAcc,30,18,Woman,Left,
40,5,1,0.433194100000037,['c'],1,left,['e'],1,0.8324792000003072,0.1,1,0,FastAcc,30,18,Woman,Left,
41,5,1,0.6500930000001972,['n'],1,right,['u'],0,0.9034060000012687,0.2,0,0,FastAcc,30,18,Woman,Left,
42,5,1,0.4837500999983604,['n'],1,right,['e'],1,0.40190760000041337,0.4,1,0,FastAcc,30,18,Woman,Left,
43,5,1,0.567537099999754,['n'],1,right,['e'],1,0.3016461999995954,0.2,1,0,FastAcc,30,18,Woman,Left,
44,5,1,1.217745100000684,['c'],1,left,['u'],0,0.7547577999994246,0.1,0,0,FastAcc,30,18,Woman,Left,
45,5,1,0.6503712000012456,['c'],1,left,['e'],1,0.46126469999944675,0.4,1,0,FastAcc,30,18,Woman,Left,
46,5,1,1.150833199999397,['n'],1,right,['u'],0,0.30349720000049274,0.1,0,0,FastAcc,30,18,Woman,Left,
47,5,1,0.8844960999995237,['n'],1,right,['u'],0,0.5145157000006293,0.2,0,0,FastAcc,30,18,Woman,Left,
48,5,1,0.5661380999990797,['n'],1,right,['u'],0,0.7465673000006063,0.4,0,0,FastAcc,30,18,Woman,Left,
49,5,1,1.4523415000003297,['c'],1,left,['u'],0,0.3247461999999359,0.2,0,0,FastAcc,30,18,Woman,Left,
50,5,1,0.6849070999996911,['n'],1,right,['e'],1,0.6701417999993282,0.1,1,0,FastAcc,30,18,Woman,Left,
51,5,1,0.8010555999990174,['n'],1,right,['e'],1,0.8854081999998016,0.2,1,0,FastAcc,30,18,Woman,Left,
52,5,1,0.7513863000003767,['n'],1,right,['u'],0,0.5825040999989142,0.2,0,0,FastAcc,30,18,Woman,Left,
53,5,1,0.8170960000006744,['n'],1,right,['u'],0,0.6727654999995138,0.2,0,0,FastAcc,30,18,Woman,Left,
54,5,1,0.6336539999992965,['n'],1,right,['u'],0,0.6389791000001424,0.1,0,0,FastAcc,30,18,Woman,Left,
55,5,1,0.6505360000010114,['n'],1,right,['e'],1,0.6220618000006652,0.4,1,0,FastAcc,30,18,Woman,Left,
56,5,1,0.6171123000003718,['n'],0,left,['e'],1,0.7827206000001752,0.1,0,0,FastAcc,30,18,Woman,Left,
57,5,1,0.7342454000008729,['c'],1,left,['e'],1,0.43650960000013583,0.2,1,0,FastAcc,30,18,Woman,Left,
58,5,1,0.5180089000004955,['n'],1,right,['e'],1,0.40135600000030536,0.4,1,0,FastAcc,30,18,Woman,Left,
59,5,1,0.917757299999721,['n'],1,right,['u'],0,1.0870333000002574,0.1,0,0,FastAcc,30,18,Woman,Left,
0,6,1,1.3338766999986547,['n'],1,right,['e'],1,0.15003930000057153,0.2,1,0,FastFast,30,18,Woman,Left,
1,6,1,0.901905099999567,['n'],0,left,['u'],0,0.18910610000057204,0.1,1,0,FastFast,30,18,Woman,Left,
2,6,1,0.7342542000005778,['c'],0,right,['u'],0,0.5066285000011703,0.1,1,0,FastFast,30,18,Woman,Left,
3,6,1,0.7337103000008938,['n'],0,left,['u'],0,0.23624450000170327,0.2,1,0,FastFast,30,18,Woman,Left,
4,6,1,0.8343114999988757,['n'],1,right,['u'],0,0.29177250000066124,0.4,0,0,FastFast,30,18,Woman,Left,
5,6,1,0.7326877000014065,['c'],1,left,['u'],0,0.2057834000006551,0.2,0,0,FastFast,30,18,Woman,Left,
6,6,1,0.6346113999989029,['c'],0,right,['u'],0,0.22279469999921275,0.1,1,0,FastFast,30,18,Woman,Left,
7,6,1,0.5176709999996092,['n'],1,right,['u'],0,0.2268167000001995,0.1,0,0,FastFast,30,18,Woman,Left,
8,6,1,0.46687960000053863,['c'],0,right,['u'],0,0.25019199999951525,0.1,1,0,FastFast,30,18,Woman,Left,
9,6,1,0.8009519000006549,['n'],1,right,['u'],0,0.22681810000176483,0.4,0,0,FastFast,30,18,Woman,Left,
10,6,1,0.9671835999997711,['n'],1,right,['u'],0,0.2284008000005997,0.1,0,0,FastFast,30,18,Woman,Left,
11,6,1,0.6509667999998783,['c'],1,left,['u'],0,0.21155700000053912,0.2,0,0,FastFast,30,18,Woman,Left,
12,6,1,0.6010521999996854,['c'],1,left,['e'],1,0.4376601000003575,0.4,1,0,FastFast,30,18,Woman,Left,
13,6,1,0.7345715000010387,['n'],1,right,['u'],0,0.23293550000016694,0.2,0,0,FastFast,30,18,Woman,Left,
14,6,1,0.668164099999558,['c'],1,left,['e'],1,0.183275199999116,0.1,1,0,FastFast,30,18,Woman,Left,
15,6,1,0.7005709000004572,['n'],1,right,['u'],0,0.18323469999995723,0.1,0,0,FastFast,30,18,Woman,Left,
16,6,1,0.6506944000011572,['c'],1,left,['e'],1,0.23109180000028573,0.2,1,0,FastFast,30,18,Woman,Left,
17,6,1,0.9679309999992256,['n'],0,left,['u'],0,0.2491728000004514,0.2,1,0,FastFast,30,18,Woman,Left,
18,6,1,1.516708600000129,['c'],1,left,['u'],0,0.24522570000044652,0.2,0,0,FastFast,30,18,Woman,Left,
19,6,1,1.3841847000003327,['n'],1,right,['e'],1,0.24707309999939753,0.4,1,0,FastFast,30,18,Woman,Left,
20,6,1,0.8677934999996069,['c'],1,left,['e'],1,0.3481759000005695,0.4,1,0,FastFast,30,18,Woman,Left,
21,6,1,0.6507253999989189,['c'],1,left,['e'],1,0.21412749999944936,0.4,1,0,FastFast,30,18,Woman,Left,
22,6,1,0.5510550999988482,['n'],1,right,['u'],0,0.20213569999941683,0.2,0,0,FastFast,30,18,Woman,Left,
23,6,1,0.5679847999999765,['c'],1,left,['e'],1,0.25375720000010915,0.4,1,0,FastFast,30,18,Woman,Left,
24,6,1,0.7339917000008427,['c'],1,left,['e'],1,0.2644116999999824,0.2,1,0,FastFast,30,18,Woman,Left,
25,6,1,0.8508226000012655,['n'],1,right,['u'],0,0.2218977000011364,0.1,0,0,FastFast,30,18,Woman,Left,
26,6,1,0.6843065000011848,['c'],1,left,['e'],1,0.25249970000004396,0.4,1,0,FastFast,30,18,Woman,Left,
27,6,1,0.9503865000006044,['c'],1,left,['u'],0,0.23821119999956863,0.4,0,0,FastFast,30,18,Woman,Left,
28,6,1,0.9675224000002345,['n'],1,right,['e'],1,0.4329144000002998,0.1,1,0,FastFast,30,18,Woman,Left,
29,6,1,0.6011607999989792,['n'],1,right,['e'],1,0.18587069999921368,0.1,1,0,FastFast,30,18,Woman,Left,
30,6,1,1.1519843000005494,['n'],1,right,['u'],0,0.21415180000076361,0.1,0,0,FastFast,30,18,Woman,Left,
31,6,1,0.8673658000006981,['n'],0,left,['u'],0,0.20526020000033895,0.2,1,0,FastFast,30,18,Woman,Left,
32,6,1,1.2002582999994047,['n'],1,right,['e'],1,0.4719781999992847,0.4,1,0,FastFast,30,18,Woman,Left,
33,6,1,0.7989228999995248,['n'],0,left,['e'],1,0.3123109000007389,0.2,0,0,FastFast,30,18,Woman,Left,
34,6,1,0.6675272000011319,['n'],1,right,['e'],1,0.243540599998596,0.4,1,0,FastFast,30,18,Woman,Left,
35,6,1,0.5020248999990145,['n'],1,right,['e'],1,0.21541900000011083,0.2,1,0,FastFast,30,18,Woman,Left,
36,6,1,0.48455250000006345,['c'],1,left,['u'],0,0.18978789999891887,0.4,0,0,FastFast,30,18,Woman,Left,
37,6,1,0.8177592000010918,['n'],1,right,['e'],1,0.232362099999591,0.4,1,0,FastFast,30,18,Woman,Left,
38,6,1,0.8170546000001195,['c'],0,right,['u'],0,0.2082059999993362,0.1,1,0,FastFast,30,18,Woman,Left,
39,6,1,0.6840010000014445,['c'],1,left,['e'],1,0.5430237999989913,0.2,1,0,FastFast,30,18,Woman,Left,
40,6,1,0.5842904000000999,['n'],0,left,['e'],1,0.340478100000837,0.1,0,0,FastFast,30,18,Woman,Left,
41,6,1,0.5844544999999925,['n'],1,right,['e'],1,0.25792510000064794,0.1,1,0,FastFast,30,18,Woman,Left,
42,6,1,0.4678585000001476,['c'],1,left,['e'],1,0.45554169999923033,0.4,1,0,FastFast,30,18,Woman,Left,
43,6,1,0.7176359000004595,['n'],0,left,['u'],0,0.3311329999996815,0.2,1,0,FastFast,30,18,Woman,Left,
44,6,1,0.6824255999999878,['n'],1,right,['e'],1,0.18118609999874025,0.4,1,0,FastFast,30,18,Woman,Left,
45,6,1,0.5677150999999867,['n'],1,right,['e'],1,0.2007223000000522,0.4,1,0,FastFast,30,18,Woman,Left,
46,6,1,0.6675350000004983,['c'],1,left,['u'],0,0.18466699999953562,0.4,0,0,FastFast,30,18,Woman,Left,
47,6,1,0.6343773999997211,['n'],1,right,['e'],1,0.23467300000083924,0.2,1,0,FastFast,30,18,Woman,Left,
48,6,1,1.6664405999999872,['n'],0,left,['u'],0,0.20829479999883915,0.1,1,0,FastFast,30,18,Woman,Left,
49,6,1,0.849581099999341,['n'],1,right,['e'],1,0.15297579999969457,0.4,1,0,FastFast,30,18,Woman,Left,
50,6,1,0.551185100001021,['c'],1,left,['e'],1,0.22258549999969546,0.4,1,0,FastFast,30,18,Woman,Left,
51,6,1,1.050604600000952,['n'],0,left,['u'],0,0.17420919999858597,0.2,1,0,FastFast,30,18,Woman,Left,
52,6,1,0.7678481999992073,['c'],0,right,['u'],0,0.17136260000006587,0.1,1,0,FastFast,30,18,Woman,Left,
53,6,1,0.8828583999984403,['n'],0,left,['u'],0,0.5805419999996957,0.2,1,0,FastFast,30,18,Woman,Left,
54,6,1,0.7671907000003557,['c'],1,left,['e'],1,0.2555164000004879,0.1,1,0,FastFast,30,18,Woman,Left,
55,6,1,0.8177367999996932,['n'],1,right,['u'],0,0.1672020000005432,0.2,0,0,FastFast,30,18,Woman,Left,
56,6,1,0.7666353000004165,['c'],1,left,['e'],1,0.1805179999992106,0.1,1,0,FastFast,30,18,Woman,Left,
57,6,1,0.5997150000002875,['n'],0,left,['u'],0,0.18394900000021153,0.1,1,0,FastFast,30,18,Woman,Left,
58,6,1,0.8671401999999944,['n'],1,right,['e'],1,0.19109229999958188,0.4,1,0,FastFast,30,18,Woman,Left,
59,6,1,0.8007392999988951,['n'],1,right,['u'],0,0.5390372000001662,0.2,0,0,FastFast,30,18,Woman,Left,
0,7,1,0.9002617000005557,['n'],1,right,['e'],1,0.17302879999988363,0.1,1,0,AccFast,30,18,Woman,Left,
1,7,1,1.7345027000010305,['c'],1,left,['e'],1,0.25939929999913147,0.1,1,0,AccFast,30,18,Woman,Left,
2,7,1,1.0347309999997378,['n'],0,left,['u'],0,0.7227339000000939,0.4,1,0,AccFast,30,18,Woman,Left,
3,7,1,0.8847992999999406,['n'],1,right,['e'],1,0.2282813999991049,0.4,1,0,AccFast,30,18,Woman,Left,
4,7,1,0.9675194999999803,['c'],1,left,['e'],1,0.21552429999974265,0.4,1,0,AccFast,30,18,Woman,Left,
5,7,1,0.8174097000010079,['n'],0,left,['u'],0,0.3365228999991814,0.2,1,0,AccFast,30,18,Woman,Left,
6,7,1,0.8828708000000915,['n'],1,right,['e'],1,0.1940957000006165,0.4,1,0,AccFast,30,18,Woman,Left,
7,7,1,0.6860371000002488,['c'],1,left,['e'],1,0.20963230000052135,0.4,1,0,AccFast,30,18,Woman,Left,
8,7,1,1.1335537999984808,['n'],0,left,['e'],1,0.9585339999994176,0.2,0,0,AccFast,30,18,Woman,Left,
9,7,1,0.7841047000001709,['n'],1,right,['e'],1,0.14000020000094082,0.2,1,0,AccFast,30,18,Woman,Left,
10,7,1,0.7840864000008878,['c'],1,left,['e'],1,0.6974071999993612,0.1,1,0,AccFast,30,18,Woman,Left,
11,7,1,0.7341159999996307,['n'],1,right,['e'],1,0.8333697999987635,0.1,1,0,AccFast,30,18,Woman,Left,
12,7,1,0.8012333999995462,['n'],1,right,['e'],1,0.14628819999961706,0.2,1,0,AccFast,30,18,Woman,Left,
13,7,1,0.7842025000009016,['c'],1,left,['u'],0,0.19120440000006056,0.2,0,0,AccFast,30,18,Woman,Left,
14,7,1,0.6013047999986156,['n'],1,right,['u'],0,0.44990229999893927,0.4,0,0,AccFast,30,18,Woman,Left,
15,7,1,0.9842317000002367,['c'],1,left,['e'],1,0.15505660000053467,0.4,1,0,AccFast,30,18,Woman,Left,
16,7,1,0.9166208999995433,['c'],1,left,['e'],1,0.2109213000003365,0.4,1,0,AccFast,30,18,Woman,Left,
17,7,1,0.6179563999994571,['n'],1,right,['e'],1,0.1959833000000799,0.4,1,0,AccFast,30,18,Woman,Left,
18,7,1,0.6834781999987172,['n'],1,right,['e'],1,0.14821649999976216,0.1,1,0,AccFast,30,18,Woman,Left,
19,7,1,0.7510841000002983,['n'],1,right,['e'],1,0.1455986999990273,0.4,1,0,AccFast,30,18,Woman,Left,
20,7,1,1.0521246999996947,['c'],1,left,['e'],1,0.516131200000018,0.4,1,0,AccFast,30,18,Woman,Left,
21,7,1,1.0676192000009905,['n'],0,left,['u'],0,0.15039430000069842,0.1,1,0,AccFast,30,18,Woman,Left,
22,7,1,0.7336001000003307,['n'],1,right,['u'],0,0.18161929999951099,0.2,0,0,AccFast,30,18,Woman,Left,
23,7,1,1.000290899999527,['n'],1,right,['e'],1,0.136650099999315,0.1,1,0,AccFast,30,18,Woman,Left,
24,7,1,0.9671434000010777,['n'],0,left,['u'],0,0.094961400000102,0.1,1,0,AccFast,30,18,Woman,Left,
25,7,1,1.150358499999129,['c'],0,right,['e'],1,0.20790170000145736,0.2,0,0,AccFast,30,18,Woman,Left,
26,7,1,0.8673608999997668,['n'],1,right,['u'],0,0.15075380000052974,0.1,0,0,AccFast,30,18,Woman,Left,
27,7,1,1.2992754999995668,['c'],0,right,['u'],0,0.1597590000001219,0.2,1,0,AccFast,30,18,Woman,Left,
28,7,1,0.6346692999995867,['c'],0,right,['u'],0,0.11448430000018561,0.2,1,0,AccFast,30,18,Woman,Left,
29,7,1,0.8173794000013004,['c'],1,left,['e'],1,0.36695069999950647,0.4,1,0,AccFast,30,18,Woman,Left,
30,7,1,0.8167727000000014,['n'],1,right,['u'],0,0.1621562999989692,0.4,0,0,AccFast,30,18,Woman,Left,
31,7,1,0.9675635999992664,['n'],1,right,['u'],0,0.13450700000066718,0.1,0,0,AccFast,30,18,Woman,Left,
32,7,1,1.0665824999996403,['c'],1,left,['u'],0,0.2649029000003793,0.1,0,0,AccFast,30,18,Woman,Left,
33,7,1,3.650618499999837,['n'],0,left,['u'],0,0.1745282000010775,0.2,1,0,AccFast,30,18,Woman,Left,
34,7,1,1.300402300001224,['c'],0,right,['u'],0,1.0468091999991884,0.2,1,0,AccFast,30,18,Woman,Left,
35,7,1,1.4177329000012833,['c'],1,left,['e'],1,0.16561010000077658,0.2,1,0,AccFast,30,18,Woman,Left,
36,7,1,0.6518214000006992,['c'],1,left,['e'],1,0.13598760000058974,0.4,1,0,AccFast,30,18,Woman,Left,
37,7,1,1.0331964000015432,['n'],1,right,['e'],1,0.7311188999992737,0.2,1,0,AccFast,30,18,Woman,Left,
38,7,1,0.868039700000736,['n'],1,right,['e'],1,0.15740619999996852,0.4,1,0,AccFast,30,18,Woman,Left,
39,7,1,0.7500132999994094,['c'],1,left,['e'],1,0.1556696000006923,0.1,1,0,AccFast,30,18,Woman,Left,
40,7,1,0.8173190999987128,['n'],0,left,['e'],1,0.11928219999936118,0.2,0,0,AccFast,30,18,Woman,Left,
41,7,1,0.7336046999989776,['n'],0,left,['e'],1,0.19988050000029034,0.2,0,0,AccFast,30,18,Woman,Left,
42,7,1,0.8504288000003726,['n'],1,right,['e'],1,0.9441365000002406,0.1,1,0,AccFast,30,18,Woman,Left,
43,7,1,1.1673394999997981,['n'],0,left,['u'],0,0.1577430999986973,0.2,1,0,AccFast,30,18,Woman,Left,
44,7,1,1.0673305000000255,['n'],1,right,['u'],0,0.11133590000099503,0.2,0,0,AccFast,30,18,Woman,Left,
45,7,1,1.2011968999995588,['n'],1,right,['u'],0,0.14216470000064874,0.1,0,0,AccFast,30,18,Woman,Left,
46,7,1,1.0506015999999363,['n'],1,right,['u'],0,0.09634060000098543,0.2,0,0,AccFast,30,18,Woman,Left,
47,7,1,2.28397650000079,['n'],1,right,['e'],1,0.21143889999984822,0.4,1,0,AccFast,30,18,Woman,Left,
48,7,1,1.185046999999031,['c'],1,left,['e'],1,0.49432209999940824,0.1,1,0,AccFast,30,18,Woman,Left,
49,7,1,1.2013962000000902,['n'],1,right,['e'],1,0.17319209999914165,0.1,1,0,AccFast,30,18,Woman,Left,
50,7,1,0.8344906000002084,['c'],0,right,['e'],1,0.19942119999905117,0.1,0,0,AccFast,30,18,Woman,Left,
51,7,1,1.3009571000002325,['c'],1,left,['e'],1,0.7659813999998732,0.2,1,0,AccFast,30,18,Woman,Left,
52,7,1,0.6854804000013246,['n'],0,left,['e'],1,0.5501608000013221,0.1,0,0,AccFast,30,18,Woman,Left,
53,7,1,0.6847885999995924,['c'],1,left,['e'],1,0.47108660000048985,0.1,1,0,AccFast,30,18,Woman,Left,
54,7,1,1.1012853000011091,['c'],1,left,['e'],1,0.4106636000014987,0.4,1,0,AccFast,30,18,Woman,Left,
55,7,1,0.7329466999999568,['c'],1,left,['e'],1,0.1434456000006321,0.4,1,0,AccFast,30,18,Woman,Left,
56,7,1,0.5997289000006276,['c'],1,left,['e'],1,0.06923079999978654,0.4,1,0,AccFast,30,18,Woman,Left,
57,7,1,0.650418900000659,['n'],1,right,['u'],0,0.10681149999982154,0.2,0,0,AccFast,30,18,Woman,Left,
58,7,1,0.7509792999990168,['c'],1,left,['e'],1,0.10653020000063407,0.4,1,0,AccFast,30,18,Woman,Left,
59,7,1,1.1342462000011437,['n'],1,right,['e'],1,0.15572550000069896,0.1,1,0,AccFast,30,18,Woman,Left,
0,8,1,1.9008314000002429,['n'],0,left,['u'],0,1.0612676000000647,0.1,1,0,AccAcc,30,18,Woman,Left,
1,8,1,0.834210200000598,['n'],1,right,['e'],1,0.17218900000079884,0.1,1,0,AccAcc,30,18,Woman,Left,
2,8,1,2.2840591999993194,['n'],1,right,['u'],0,0.34865950000130397,0.1,0,0,AccAcc,30,18,Woman,Left,
3,8,1,2.0667051000000356,['n'],0,left,['e'],1,0.9742409999998927,0.1,0,0,AccAcc,30,18,Woman,Left,
4,8,1,1.1836955999988277,['n'],1,right,['e'],1,0.33080840000002354,0.1,1,0,AccAcc,30,18,Woman,Left,
5,8,1,0.8002914999997301,['c'],1,left,['e'],1,0.36743550000028335,0.4,1,0,AccAcc,30,18,Woman,Left,
6,8,1,1.1175490000005084,['c'],1,left,['e'],1,0.24622959999942395,0.4,1,0,AccAcc,30,18,Woman,Left,
7,8,1,0.7499406999995699,['n'],0,left,['e'],1,0.3851629000000685,0.2,0,0,AccAcc,30,18,Woman,Left,
8,8,1,1.6840155999998387,['c'],1,left,['u'],0,0.5284625000003871,0.1,0,0,AccAcc,30,18,Woman,Left,
9,8,1,0.8349211999993713,['c'],1,left,['e'],1,0.3647815999993327,0.4,1,0,AccAcc,30,18,Woman,Left,
10,8,1,1.7003074000003835,['n'],0,left,['u'],0,0.2687426000011328,0.1,1,0,AccAcc,30,18,Woman,Left,
11,8,1,1.7343302999997832,['n'],0,left,['e'],1,0.41444489999958023,0.1,0,0,AccAcc,30,18,Woman,Left,
12,8,1,1.583380499998384,['n'],1,right,['e'],1,0.35327590000088094,0.2,1,0,AccAcc,30,18,Woman,Left,
13,8,1,1.91585589999886,['n'],0,left,['u'],0,0.34566819999963627,0.1,1,0,AccAcc,30,18,Woman,Left,
14,8,1,2.2008274999989226,['n'],1,right,['u'],0,2.0218808999998146,0.2,0,0,AccAcc,30,18,Woman,Left,
15,8,1,0.9013204000002588,['n'],1,right,['u'],0,0.3237122000009549,0.1,0,0,AccAcc,30,18,Woman,Left,
16,8,1,1.7015539999993052,['c'],1,left,['u'],0,1.173364300000685,0.4,0,0,AccAcc,30,18,Woman,Left,
17,8,1,1.1676344999996218,['n'],1,right,['e'],1,1.1137533000000985,0.4,1,0,AccAcc,30,18,Woman,Left,
18,8,1,0.8003731999997399,['c'],1,left,['e'],1,0.6239122999995743,0.2,1,0,AccAcc,30,18,Woman,Left,
19,8,1,2.9331340999997337,['n'],1,right,['u'],0,2.4844057999998768,0.1,0,0,AccAcc,30,18,Woman,Left,
20,8,1,1.1178694999998697,['n'],1,right,['e'],1,1.0143834999998944,0.1,1,0,AccAcc,30,18,Woman,Left,
21,8,1,0.8005973999988782,['n'],0,left,['e'],1,0.28820839999934833,0.1,0,0,AccAcc,30,18,Woman,Left,
22,8,1,2.0673839999999473,['n'],1,right,['e'],1,0.6761939999996684,0.4,1,0,AccAcc,30,18,Woman,Left,
23,8,1,2.383158899998307,['n'],0,left,['u'],0,2.0132207999995444,0.2,1,0,AccAcc,30,18,Woman,Left,
24,8,1,1.7006844000006822,['n'],0,left,['u'],0,0.15427420000014536,0.4,1,0,AccAcc,30,18,Woman,Left,
25,8,1,3.867315100000269,['n'],1,right,['u'],0,0.4928252000008797,0.1,0,0,AccAcc,30,18,Woman,Left,
26,8,1,2.1506122999999207,['n'],1,right,['u'],0,0.2778988999998546,0.2,0,0,AccAcc,30,18,Woman,Left,
27,8,1,1.4011961999985942,['n'],1,right,['u'],0,0.4211660999990272,0.2,0,0,AccAcc,30,18,Woman,Left,
28,8,1,2.5008152999998856,['c'],0,right,['u'],0,0.6108377000000473,0.2,1,0,AccAcc,30,18,Woman,Left,
29,8,1,2.984333599999445,['n'],0,left,['e'],1,1.0297155999996903,0.4,0,0,AccAcc,30,18,Woman,Left,
30,8,1,1.1344145000002754,['n'],1,right,['e'],1,0.36928379999881145,0.4,1,0,AccAcc,30,18,Woman,Left,
31,8,1,0.8177768999994441,['c'],1,left,['e'],1,0.38814239999919664,0.4,1,0,AccAcc,30,18,Woman,Left,
32,8,1,0.7673204000002443,['n'],1,right,['e'],1,0.34456280000085826,0.2,1,0,AccAcc,30,18,Woman,Left,
33,8,1,1.0847912999997789,['n'],1,right,['e'],1,0.594192300000941,0.1,1,0,AccAcc,30,18,Woman,Left,
34,8,1,1.316960800000743,['n'],0,left,['e'],1,0.3123604000011255,0.4,0,0,AccAcc,30,18,Woman,Left,
35,8,1,0.9344883000012487,['n'],0,left,['e'],1,0.2645935999989888,0.4,0,0,AccAcc,30,18,Woman,Left,
36,8,1,0.7508862000013323,['n'],1,right,['e'],1,0.274332000000868,0.4,1,0,AccAcc,30,18,Woman,Left,
37,8,1,0.6841432000001078,['n'],1,right,['e'],1,0.2541865000002872,0.4,1,0,AccAcc,30,18,Woman,Left,
38,8,1,0.9837557000009838,['c'],1,left,['e'],1,0.3041515000004438,0.2,1,0,AccAcc,30,18,Woman,Left,
39,8,1,0.6675740000009682,['n'],1,right,['e'],1,0.13877010000032897,0.2,1,0,AccAcc,30,18,Woman,Left,
40,8,1,1.5168314999991708,['c'],0,right,['u'],0,0.17145010000058392,0.2,1,0,AccAcc,30,18,Woman,Left,
41,8,1,0.7832847000008769,['n'],1,right,['u'],0,1.7193041999998968,0.1,0,0,AccAcc,30,18,Woman,Left,
42,8,1,0.8683961999995518,['n'],1,right,['u'],0,0.8183511000006547,0.2,0,0,AccAcc,30,18,Woman,Left,
43,8,1,2.14942979999978,['c'],1,left,['u'],0,0.3665965000000142,0.2,0,0,AccAcc,30,18,Woman,Left,
44,8,1,0.9348954999986745,['n'],0,left,['e'],1,0.4601196000003256,0.1,0,0,AccAcc,30,18,Woman,Left,
45,8,1,2.017541400000482,['n'],0,left,['e'],1,0.7798904000010225,0.2,0,0,AccAcc,30,18,Woman,Left,
46,8,1,2.7512772000009136,['c'],1,left,['e'],1,2.977694799999881,0.2,1,0,AccAcc,30,18,Woman,Left,
47,8,1,0.9012376999999105,['n'],1,right,['e'],1,0.4729429999988497,0.2,1,0,AccAcc,30,18,Woman,Left,
48,8,1,3.5009608999989723,['n'],1,right,['u'],0,5.580565500000375,0.4,0,0,AccAcc,30,18,Woman,Left,
49,8,1,1.5841856000006374,['n'],0,left,['u'],0,0.928636299999198,0.2,1,0,AccAcc,30,18,Woman,Left,
50,8,1,2.5847165000013774,['n'],1,right,['e'],1,1.5744276000004902,0.2,1,0,AccAcc,30,18,Woman,Left,
51,8,1,5.0005515000011656,x,-99,left,none,-99,-99,0.1,-99,1,AccAcc,30,18,Woman,Left,
52,8,1,1.0504731999990327,['n'],1,right,['u'],0,0.20358119999946211,0.2,0,0,AccAcc,30,18,Woman,Left,
53,8,1,0.7994202000008954,['n'],1,right,['e'],1,0.27813609999975597,0.4,1,0,AccAcc,30,18,Woman,Left,
54,8,1,0.616964700000608,['c'],1,left,['e'],1,0.27644619999955466,0.4,1,0,AccAcc,30,18,Woman,Left,
55,8,1,1.2008237999998528,['n'],0,left,['e'],1,0.6038686000010784,0.1,0,0,AccAcc,30,18,Woman,Left,
56,8,1,2.285029000000577,['n'],1,right,['u'],0,0.3467806999997265,0.1,0,0,AccAcc,30,18,Woman,Left,
57,8,1,1.4177744000007806,['c'],1,left,['u'],0,0.2623481000009633,0.4,0,0,AccAcc,30,18,Woman,Left,
58,8,1,0.816453299999921,['n'],1,right,['e'],1,0.3183150000004389,0.4,1,0,AccAcc,30,18,Woman,Left,
59,8,1,0.8014335999996547,['c'],1,left,['e'],1,0.7227590999991662,0.4,1,0,AccAcc,30,18,Woman,Left,
0,9,1,1.1510150999984035,['c'],1,left,['u'],0,0.7149833000003127,0.1,0,0,FastAcc,30,18,Woman,Left,
1,9,1,0.6657349999986764,['c'],1,left,['e'],1,0.24692830000094546,0.4,1,0,FastAcc,30,18,Woman,Left,
2,9,1,0.6826244000003499,['c'],1,left,['e'],1,0.13192920000074082,0.4,1,0,FastAcc,30,18,Woman,Left,
3,9,1,0.6168363999986468,['c'],1,left,['e'],1,0.07147630000145,0.1,1,0,FastAcc,30,18,Woman,Left,
4,9,1,0.684811200000695,['c'],1,left,['e'],1,0.07546910000019125,0.2,1,0,FastAcc,30,18,Woman,Left,
5,9,1,1.0844887000002927,['n'],1,right,['e'],1,0.160473699999784,0.4,1,0,FastAcc,30,18,Woman,Left,
6,9,1,0.7000049999987823,['c'],0,right,['e'],1,0.4485629999999219,0.2,0,0,FastAcc,30,18,Woman,Left,
7,9,1,0.8175751999988279,['n'],1,right,['e'],1,0.17527830000108224,0.4,1,0,FastAcc,30,18,Woman,Left,
8,9,1,0.4836605000000418,['c'],1,left,['e'],1,0.15248930000052496,0.4,1,0,FastAcc,30,18,Woman,Left,
9,9,1,1.0655929000004107,['n'],1,right,['e'],1,0.18604649999906542,0.1,1,0,FastAcc,30,18,Woman,Left,
10,9,1,0.6164186000005429,['n'],1,right,['e'],1,0.18817029999991064,0.2,1,0,FastAcc,30,18,Woman,Left,
11,9,1,0.6172967000002245,['n'],1,right,['e'],1,0.17445849999967322,0.4,1,0,FastAcc,30,18,Woman,Left,
12,9,1,0.549201499999981,['c'],1,left,['e'],1,0.16371590000017022,0.4,1,0,FastAcc,30,18,Woman,Left,
13,9,1,1.4994036999996752,['n'],0,left,['u'],0,0.13155599999845435,0.1,1,0,FastAcc,30,18,Woman,Left,
14,9,1,0.8012961000003997,['c'],1,left,['e'],1,0.12717420000080892,0.1,1,0,FastAcc,30,18,Woman,Left,
15,9,1,0.5995221000011952,['n'],1,right,['e'],1,0.16594249999980093,0.2,1,0,FastAcc,30,18,Woman,Left,
16,9,1,0.6010350000015023,['c'],0,right,['e'],1,0.15236260000165203,0.1,0,0,FastAcc,30,18,Woman,Left,
17,9,1,0.8020395000003191,['c'],1,left,['e'],1,0.13269120000040857,0.2,1,0,FastAcc,30,18,Woman,Left,
18,9,1,0.8506046999991668,['n'],1,right,['e'],1,0.23920480000015232,0.4,1,0,FastAcc,30,18,Woman,Left,
19,9,1,0.550953699999809,['c'],1,left,['e'],1,0.17846079999981157,0.1,1,0,FastAcc,30,18,Woman,Left,
20,9,1,0.4843892999997479,['n'],1,right,['e'],1,0.234563199999684,0.4,1,0,FastAcc,30,18,Woman,Left,
21,9,1,0.5843010999997205,['c'],1,left,['e'],1,0.15582379999978002,0.1,1,0,FastAcc,30,18,Woman,Left,
22,9,1,0.5002913999996963,['n'],0,left,['e'],1,0.34017259999927774,0.2,0,0,FastAcc,30,18,Woman,Left,
23,9,1,0.6174205000006623,['c'],0,right,['e'],1,0.1925212999994983,0.2,0,0,FastAcc,30,18,Woman,Left,
24,9,1,0.6010764000002382,['n'],1,right,['u'],0,0.43518419999963953,0.2,0,0,FastAcc,30,18,Woman,Left,
25,9,1,1.300721400000839,['c'],1,left,['e'],1,0.2720322999994096,0.1,1,0,FastAcc,30,18,Woman,Left,
26,9,1,0.9679112000012537,['n'],0,left,['u'],0,0.48092150000047695,0.1,1,0,FastAcc,30,18,Woman,Left,
27,9,1,0.7008793000004516,['c'],1,left,['e'],1,1.0919771999997465,0.2,1,0,FastAcc,30,18,Woman,Left,
28,9,1,0.5503296999995655,['n'],1,right,['e'],1,0.21286920000056853,0.4,1,0,FastAcc,30,18,Woman,Left,
29,9,1,0.5680503999992652,['n'],1,right,['e'],1,0.18380630000137899,0.4,1,0,FastAcc,30,18,Woman,Left,
30,9,1,0.6336360999994213,['n'],1,right,['e'],1,0.20139860000017507,0.1,1,0,FastAcc,30,18,Woman,Left,
31,9,1,0.5172229999989213,['n'],1,right,['e'],1,0.1749087000007421,0.4,1,0,FastAcc,30,18,Woman,Left,
32,9,1,0.6344501999992644,['c'],1,left,['e'],1,0.1609688999997161,0.4,1,0,FastAcc,30,18,Woman,Left,
33,9,1,0.7175626999996894,['n'],1,right,['e'],1,0.16059920000043348,0.1,1,0,FastAcc,30,18,Woman,Left,
34,9,1,0.7161151000000245,['n'],1,right,['e'],1,0.17609300000003714,0.1,1,0,FastAcc,30,18,Woman,Left,
35,9,1,0.7510904000009759,['n'],1,right,['u'],0,0.14184890000069572,0.2,0,0,FastAcc,30,18,Woman,Left,
36,9,1,0.5343862999998237,['c'],1,left,['e'],1,0.149320100001205,0.1,1,0,FastAcc,30,18,Woman,Left,
37,9,1,0.6669507000005979,['n'],0,left,['e'],1,0.1990922999993927,0.2,0,0,FastAcc,30,18,Woman,Left,
38,9,1,0.48279569999976957,['c'],1,left,['u'],0,0.46269609999944805,0.2,0,0,FastAcc,30,18,Woman,Left,
39,9,1,0.7182852000005369,['n'],1,right,['e'],1,0.16100760000153969,0.4,1,0,FastAcc,30,18,Woman,Left,
40,9,1,0.7840672000002087,['c'],1,left,['u'],0,0.25481050000053074,0.1,0,0,FastAcc,30,18,Woman,Left,
41,9,1,1.1013638999993418,['c'],1,left,['e'],1,0.4904176000000007,0.4,1,0,FastAcc,30,18,Woman,Left,
42,9,1,0.7338939000001119,['c'],1,left,['e'],1,0.2043853000013769,0.4,1,0,FastAcc,30,18,Woman,Left,
43,9,1,0.984649799998806,['n'],0,left,['u'],0,0.20660449999923003,0.2,1,0,FastAcc,30,18,Woman,Left,
44,9,1,0.8158817999992607,['n'],1,right,['e'],1,0.16955180000149994,0.4,1,0,FastAcc,30,18,Woman,Left,
45,9,1,0.8356429999985266,['n'],1,right,['e'],1,0.17840529999921273,0.4,1,0,FastAcc,30,18,Woman,Left,
46,9,1,0.7850275000000693,['c'],1,left,['e'],1,0.878276299999925,0.2,1,0,FastAcc,30,18,Woman,Left,
47,9,1,1.4682976000003691,['n'],1,right,['u'],0,0.6273256000004039,0.2,0,0,FastAcc,30,18,Woman,Left,
48,9,1,0.7505060000003141,['c'],1,left,['e'],1,1.2633491000015056,0.2,1,0,FastAcc,30,18,Woman,Left,
49,9,1,1.1996708999995462,['n'],0,left,['u'],0,0.1909419000003254,0.2,1,0,FastAcc,30,18,Woman,Left,
50,9,1,0.7180488000012701,['n'],1,right,['e'],1,0.20460690000072645,0.1,1,0,FastAcc,30,18,Woman,Left,
51,9,1,2.6677447999991273,['n'],0,left,['e'],1,1.9321731,0.1,0,0,FastAcc,30,18,Woman,Left,
52,9,1,1.2677738000002137,['n'],1,right,['e'],1,0.31869710000137275,0.2,1,0,FastAcc,30,18,Woman,Left,
53,9,1,0.8845076999987214,['n'],1,right,['e'],1,0.20871830000032787,0.1,1,0,FastAcc,30,18,Woman,Left,
54,9,1,1.834490299999743,['n'],1,right,['e'],1,0.5937151999987691,0.4,1,0,FastAcc,30,18,Woman,Left,
55,9,1,1.0167553999999654,['n'],1,right,['e'],1,0.3566451999995479,0.1,1,0,FastAcc,30,18,Woman,Left,
56,9,1,1.1844828999983292,['c'],1,left,['e'],1,0.6491288999986864,0.2,1,0,FastAcc,30,18,Woman,Left,
57,9,1,0.4508463000001939,['n'],1,right,['e'],1,0.271189900000536,0.2,1,0,FastAcc,30,18,Woman,Left,
58,9,1,0.7843513999996503,['n'],0,left,['e'],1,0.2635563000003458,0.1,0,0,FastAcc,30,18,Woman,Left,
59,9,1,0.6509719000005134,['n'],1,right,['e'],1,0.1331203000008827,0.4,1,0,FastAcc,30,18,Woman,Left,
0,10,1,0.7503199000002496,['n'],1,right,['e'],1,0.13654959999985294,0.2,1,0,FastFast,30,18,Woman,Left,
1,10,1,0.8841091999984201,['c'],1,left,['e'],1,0.1618255000012141,0.4,1,0,FastFast,30,18,Woman,Left,
2,10,1,0.6176295999994181,['n'],1,right,['e'],1,0.1486402000009548,0.2,1,0,FastFast,30,18,Woman,Left,
3,10,1,0.5678209999987303,['n'],0,left,['u'],0,0.15398389999973006,0.2,1,0,FastFast,30,18,Woman,Left,
4,10,1,0.6676960999993753,['n'],1,right,['e'],1,0.1394933999999921,0.2,1,0,FastFast,30,18,Woman,Left,
5,10,1,0.7013489000000845,['n'],0,left,['e'],1,0.172522900000331,0.1,0,0,FastFast,30,18,Woman,Left,
6,10,1,0.4843913999993674,['c'],1,left,['u'],0,0.564706600000136,0.2,0,0,FastFast,30,18,Woman,Left,
7,10,1,0.7680705999991915,['n'],0,left,['e'],1,0.19405009999900358,0.1,0,0,FastFast,30,18,Woman,Left,
8,10,1,0.5676708000009967,['c'],0,right,['u'],0,0.26185350000014296,0.2,1,0,FastFast,30,18,Woman,Left,
9,10,1,0.6843453999990743,['n'],1,right,['e'],1,0.17808169999989332,0.4,1,0,FastFast,30,18,Woman,Left,
10,10,1,0.6013652999990882,['c'],0,right,['e'],1,0.11752919999889855,0.1,0,0,FastFast,30,18,Woman,Left,
11,10,1,0.7676339999998163,['c'],1,left,['e'],1,0.18043240000042715,0.2,1,0,FastFast,30,18,Woman,Left,
12,10,1,0.8170679999984714,['n'],0,left,['u'],0,0.11068689999956405,0.1,1,0,FastFast,30,18,Woman,Left,
13,10,1,2.0176993000004586,['n'],1,right,['e'],1,1.292345399999249,0.4,1,0,FastFast,30,18,Woman,Left,
14,10,1,0.9513962000000902,['n'],0,left,['u'],0,0.10139580000031856,0.1,1,0,FastFast,30,18,Woman,Left,
15,10,1,0.9833340999994107,['c'],1,left,['e'],1,0.2525903000005201,0.4,1,0,FastFast,30,18,Woman,Left,
16,10,1,1.6340602000000217,['n'],1,right,['e'],1,0.5951418999993621,0.4,1,0,FastFast,30,18,Woman,Left,
17,10,1,0.8512052000005497,['c'],0,right,['e'],1,0.9872946999985288,0.2,0,0,FastFast,30,18,Woman,Left,
18,10,1,1.1681520999991335,['n'],1,right,['e'],1,0.7277362000004359,0.2,1,0,FastFast,30,18,Woman,Left,
19,10,1,1.4676123000008374,['n'],1,right,['e'],1,0.1307450999993307,0.1,1,0,FastFast,30,18,Woman,Left,
20,10,1,0.7345088000001851,['c'],1,left,['e'],1,0.09865679999893473,0.4,1,0,FastFast,30,18,Woman,Left,
21,10,1,0.6669357999999193,['n'],1,right,['e'],1,0.14985349999915343,0.1,1,0,FastFast,30,18,Woman,Left,
22,10,1,0.7009187999992719,['n'],1,right,['e'],1,0.3099398000013025,0.2,1,0,FastFast,30,18,Woman,Left,
23,10,1,0.982804399998713,['n'],0,left,['e'],1,0.08518290000029083,0.1,0,0,FastFast,30,18,Woman,Left,
24,10,1,0.701332700000421,['n'],0,left,['e'],1,0.10372049999932642,0.1,0,0,FastFast,30,18,Woman,Left,
25,10,1,0.8343007999992551,['n'],0,left,['e'],1,0.11684100000093167,0.2,0,0,FastFast,30,18,Woman,Left,
26,10,1,0.6176826999999321,['n'],1,right,['e'],1,0.1054361999995308,0.2,1,0,FastFast,30,18,Woman,Left,
27,10,1,0.6508978000001662,['n'],1,right,['e'],1,0.12586320000082196,0.4,1,0,FastFast,30,18,Woman,Left,
28,10,1,0.6836863999997149,['n'],1,right,['e'],1,0.12849950000054378,0.2,1,0,FastFast,30,18,Woman,Left,
29,10,1,0.8180252000001929,['c'],1,left,['u'],0,0.12472320000051695,0.2,0,0,FastFast,30,18,Woman,Left,
30,10,1,1.3343277000003582,['n'],0,left,['e'],1,0.14913779999915278,0.2,0,0,FastFast,30,18,Woman,Left,
31,10,1,0.9185354000001098,['n'],0,left,['e'],1,0.14050680000036664,0.4,0,0,FastFast,30,18,Woman,Left,
32,10,1,0.8006599000000278,['n'],0,left,['e'],1,0.2175377000003209,0.2,0,0,FastFast,30,18,Woman,Left,
33,10,1,0.7511646999992081,['n'],1,right,['e'],1,0.16502380000019912,0.2,1,0,FastFast,30,18,Woman,Left,
34,10,1,1.2175056999985827,['c'],1,left,['u'],0,0.1279050000011921,0.4,0,0,FastFast,30,18,Woman,Left,
35,10,1,1.8511037999996915,['c'],1,left,['e'],1,0.24353920000066864,0.4,1,0,FastFast,30,18,Woman,Left,
36,10,1,0.7513502000001608,['n'],0,left,['e'],1,0.15844530000140367,0.4,0,0,FastFast,30,18,Woman,Left,
37,10,1,0.8511505999995279,['n'],0,left,['u'],0,0.18450940000002447,0.4,1,0,FastFast,30,18,Woman,Left,
38,10,1,0.7667516000001342,['n'],0,left,['u'],0,0.2288072999999713,0.1,1,0,FastFast,30,18,Woman,Left,
39,10,1,0.6848475999995571,['c'],1,left,['e'],1,0.13033920000088983,0.4,1,0,FastFast,30,18,Woman,Left,
40,10,1,0.4177503999999317,['n'],1,right,['u'],0,0.12669569999889063,0.1,0,0,FastFast,30,18,Woman,Left,
41,10,1,1.0342447999992146,['n'],1,right,['e'],1,0.1468416999996407,0.4,1,0,FastFast,30,18,Woman,Left,
42,10,1,0.8172298000008595,['n'],1,right,['e'],1,0.15834559999893827,0.4,1,0,FastFast,30,18,Woman,Left,
43,10,1,0.734261499999775,['n'],1,right,['e'],1,0.15745439999955124,0.1,1,0,FastFast,30,18,Woman,Left,
44,10,1,1.1511796999984654,['n'],1,right,['e'],1,0.12401999999929103,0.1,1,0,FastFast,30,18,Woman,Left,
45,10,1,0.9510907000003499,['c'],1,left,['e'],1,0.08326530000158527,0.1,1,0,FastFast,30,18,Woman,Left,
46,10,1,0.7015690000007453,['n'],1,right,['e'],1,0.11780760000146984,0.1,1,0,FastFast,30,18,Woman,Left,
47,10,1,1.7839922000002844,['c'],1,left,['u'],0,0.18811180000011518,0.1,0,0,FastFast,30,18,Woman,Left,
48,10,1,1.2343861999997898,['n'],1,right,['e'],1,0.48593649999929767,0.4,1,0,FastFast,30,18,Woman,Left,
49,10,1,1.2177449999999226,['n'],0,left,['u'],0,0.08424469999954454,0.1,1,0,FastFast,30,18,Woman,Left,
50,10,1,0.7679671000005328,['n'],0,left,['e'],1,0.16423819999909028,0.1,0,0,FastFast,30,18,Woman,Left,
51,10,1,0.7677466999994067,['n'],1,right,['e'],1,0.1131850999991002,0.4,1,0,FastFast,30,18,Woman,Left,
52,10,1,0.5508988000001409,['n'],1,right,['e'],1,0.10473540000020876,0.4,1,0,FastFast,30,18,Woman,Left,
53,10,1,0.8008527999991202,['n'],1,right,['e'],1,0.08704039999975066,0.1,1,0,FastFast,30,18,Woman,Left,
54,10,1,0.6176691000000574,['n'],1,right,['e'],1,0.0930926000000909,0.4,1,0,FastFast,30,18,Woman,Left,
55,10,1,0.7005900000003749,['c'],1,left,['e'],1,0.11245779999990191,0.4,1,0,FastFast,30,18,Woman,Left,
56,10,1,0.9841859000007389,['n'],0,left,['u'],0,0.11809279999943101,0.2,1,0,FastFast,30,18,Woman,Left,
57,10,1,0.6176117999984854,['n'],1,right,['e'],1,0.10733830000026501,0.2,1,0,FastFast,30,18,Woman,Left,
58,10,1,0.6339426000013191,['n'],0,left,['e'],1,0.11242859999947541,0.1,0,0,FastFast,30,18,Woman,Left,
59,10,1,0.6345371999996132,['n'],1,right,['e'],1,0.10002179999901273,0.2,1,0,FastFast,30,18,Woman,Left,
0,11,1,1.7179061000006186,['c'],1,left,['e'],1,0.11746919999859529,0.4,1,0,AccFast,30,18,Woman,Left,
1,11,1,0.8009883999984595,['n'],0,left,['e'],1,0.11520319999908679,0.4,0,0,AccFast,30,18,Woman,Left,
2,11,1,0.9176081999994494,['c'],1,left,['e'],1,0.13978279999901133,0.2,1,0,AccFast,30,18,Woman,Left,
3,11,1,0.7676384000005783,['n'],1,right,['e'],1,0.10591130000102567,0.4,1,0,AccFast,30,18,Woman,Left,
4,11,1,0.9174709999988409,['n'],1,right,['u'],0,0.08358709999993152,0.2,0,0,AccFast,30,18,Woman,Left,
5,11,1,0.6002707000006922,['c'],1,left,['e'],1,0.21838709999974526,0.4,1,0,AccFast,30,18,Woman,Left,
6,11,1,0.6841616000001522,['n'],0,left,['e'],1,0.12077970000063942,0.1,0,0,AccFast,30,18,Woman,Left,
7,11,1,0.8843360999999277,['n'],0,left,['e'],1,0.1310909999992873,0.4,0,0,AccFast,30,18,Woman,Left,
8,11,1,0.5832461000009062,['c'],1,left,['e'],1,0.1378181999989465,0.4,1,0,AccFast,30,18,Woman,Left,
9,11,1,0.7514608000001317,['c'],1,left,['e'],1,0.15130189999945287,0.4,1,0,AccFast,30,18,Woman,Left,
10,11,1,0.6850864999996702,['n'],1,right,['e'],1,0.2960211999998137,0.1,1,0,AccFast,30,18,Woman,Left,
11,11,1,1.034650800000236,['n'],1,right,['e'],1,0.1488917999995465,0.1,1,0,AccFast,30,18,Woman,Left,
12,11,1,0.6177771000002394,['c'],0,right,['e'],1,0.08858730000065407,0.1,0,0,AccFast,30,18,Woman,Left,
13,11,1,0.6678916999990179,['n'],0,left,['e'],1,0.12465169999995851,0.2,0,0,AccFast,30,18,Woman,Left,
14,11,1,0.6829694999996718,['c'],0,right,['e'],1,0.0638146000001143,0.1,0,0,AccFast,30,18,Woman,Left,
15,11,1,0.8512850999995862,['c'],1,left,['u'],0,0.18864039999971283,0.2,0,0,AccFast,30,18,Woman,Left,
16,11,1,0.6681602999997267,['c'],1,left,['e'],1,0.14062300000114192,0.4,1,0,AccFast,30,18,Woman,Left,
17,11,1,0.550144700000601,['n'],1,right,['e'],1,0.13219150000077207,0.4,1,0,AccFast,30,18,Woman,Left,
18,11,1,0.5176536999988457,['c'],1,left,['e'],1,0.09191909999935888,0.2,1,0,AccFast,30,18,Woman,Left,
19,11,1,0.5511587000000873,['n'],1,right,['e'],1,0.0846588000003976,0.4,1,0,AccFast,30,18,Woman,Left,
20,11,1,0.7344959000001836,['n'],1,right,['e'],1,0.10202159999971627,0.1,1,0,AccFast,30,18,Woman,Left,
21,11,1,0.9332003000017721,['n'],1,right,['u'],0,0.07915300000058778,0.2,0,0,AccFast,30,18,Woman,Left,
22,11,1,1.0506222000003618,['n'],1,right,['u'],0,0.10001569999985804,0.1,0,0,AccFast,30,18,Woman,Left,
23,11,1,0.8508777000006376,['c'],1,left,['u'],0,0.14403739999943355,0.1,0,0,AccFast,30,18,Woman,Left,
24,11,1,1.000961699999607,['n'],0,left,['u'],0,0.08572910000111733,0.1,1,0,AccFast,30,18,Woman,Left,
25,11,1,0.8510412000014185,['c'],1,left,['e'],1,0.09812150000107067,0.2,1,0,AccFast,30,18,Woman,Left,
26,11,1,0.8849656000002142,['n'],1,right,['u'],0,0.12484409999888157,0.2,0,0,AccFast,30,18,Woman,Left,
27,11,1,0.7999983000008797,['c'],0,right,['e'],1,0.09040009999989707,0.1,0,0,AccFast,30,18,Woman,Left,
28,11,1,0.8675934000002599,['n'],1,right,['e'],1,0.1345017999992706,0.1,1,0,AccFast,30,18,Woman,Left,
29,11,1,0.8828094000000419,['n'],1,right,['e'],1,0.11365070000101696,0.1,1,0,AccFast,30,18,Woman,Left,
30,11,1,0.7682449999992969,['c'],0,right,['u'],0,0.17506309999953373,0.2,1,0,AccFast,30,18,Woman,Left,
31,11,1,0.8681647000012163,['c'],1,left,['u'],0,0.23199079999903915,0.2,0,0,AccFast,30,18,Woman,Left,
32,11,1,1.0176472000002832,['n'],1,right,['e'],1,0.15229289999842877,0.4,1,0,AccFast,30,18,Woman,Left,
33,11,1,1.216734700001325,['n'],1,right,['u'],0,0.1002282000008563,0.2,0,0,AccFast,30,18,Woman,Left,
34,11,1,0.7997999999988679,['c'],1,left,['e'],1,0.08230150000053982,0.2,1,0,AccFast,30,18,Woman,Left,
35,11,1,0.9496483000002627,['n'],1,right,['e'],1,0.12414089999947464,0.2,1,0,AccFast,30,18,Woman,Left,
36,11,1,0.65032280000014,['c'],1,left,['e'],1,0.12659480000002077,0.4,1,0,AccFast,30,18,Woman,Left,
37,11,1,0.7671052999994572,['n'],1,right,['e'],1,0.20578980000027514,0.2,1,0,AccFast,30,18,Woman,Left,
38,11,1,0.5678022000010969,['c'],1,left,['e'],1,0.12955280000096536,0.1,1,0,AccFast,30,18,Woman,Left,
39,11,1,0.8673254000004817,['c'],1,left,['e'],1,0.1709526000013284,0.4,1,0,AccFast,30,18,Woman,Left,
40,11,1,0.6013248999988718,['n'],0,left,['e'],1,0.1264952000001358,0.1,0,0,AccFast,30,18,Woman,Left,
41,11,1,0.584601799999291,['c'],1,left,['e'],1,0.10085600000093109,0.4,1,0,AccFast,30,18,Woman,Left,
42,11,1,0.5015536999999313,['n'],1,right,['e'],1,0.12679360000038287,0.4,1,0,AccFast,30,18,Woman,Left,
43,11,1,0.6515969000010955,['n'],1,right,['u'],0,0.11431089999859978,0.2,0,0,AccFast,30,18,Woman,Left,
44,11,1,0.7177861000000121,['n'],1,right,['e'],1,0.3393717999988439,0.2,1,0,AccFast,30,18,Woman,Left,
45,11,1,1.117344399999638,['n'],0,left,['u'],0,0.07570899999882386,0.2,1,0,AccFast,30,18,Woman,Left,
46,11,1,0.800927700000102,['c'],0,right,['u'],0,0.12305089999972552,0.4,1,0,AccFast,30,18,Woman,Left,
47,11,1,1.933857199999693,['n'],0,left,['e'],1,0.1553332000003138,0.1,0,0,AccFast,30,18,Woman,Left,
48,11,1,1.1011496999999508,['n'],1,right,['u'],0,0.10746549999930721,0.1,0,0,AccFast,30,18,Woman,Left,
49,11,1,0.8168624000009004,['n'],1,right,['e'],1,0.10517029999937222,0.4,1,0,AccFast,30,18,Woman,Left,
50,11,1,1.08429679999972,['c'],0,right,['e'],1,0.7161627000004955,0.1,0,0,AccFast,30,18,Woman,Left,
51,11,1,0.8837179000001925,['c'],1,left,['e'],1,0.07835290000002715,0.1,1,0,AccFast,30,18,Woman,Left,
52,11,1,0.7497598999998445,['c'],1,left,['u'],0,0.09528189999946335,0.1,0,0,AccFast,30,18,Woman,Left,
53,11,1,0.7842915000001085,['c'],1,left,['e'],1,0.06211790000088513,0.4,1,0,AccFast,30,18,Woman,Left,
54,11,1,0.6180019000003085,['n'],1,right,['e'],1,0.08537690000048315,0.4,1,0,AccFast,30,18,Woman,Left,
55,11,1,0.5345806000004814,['c'],1,left,['e'],1,0.07846669999889855,0.4,1,0,AccFast,30,18,Woman,Left,
56,11,1,0.6012579999987793,['n'],1,right,['e'],1,0.11749070000041684,0.2,1,0,AccFast,30,18,Woman,Left,
57,11,1,1.0173991999999998,['c'],1,left,['u'],0,0.07440960000167252,0.1,0,0,AccFast,30,18,Woman,Left,
58,11,1,0.7335466999993514,['c'],1,left,['e'],1,0.09293090000028315,0.2,1,0,AccFast,30,18,Woman,Left,
59,11,1,0.7500869000014063,['n'],1,right,['e'],1,0.10947789999954693,0.2,1,0,AccFast,30,18,Woman,Left,
0,12,1,1.9674938999996812,['n'],0,left,['u'],0,2.1814721999999165,0.4,1,0,AccAcc,30,18,Woman,Left,
1,12,1,0.7180059000002075,['c'],1,left,['e'],1,0.08398119999947085,0.4,1,0,AccAcc,30,18,Woman,Left,
2,12,1,0.8344583999987663,['n'],1,right,['u'],0,0.2892824999998993,0.4,0,0,AccAcc,30,18,Woman,Left,
3,12,1,0.817640900000697,['c'],1,left,['e'],1,0.29566460000023653,0.4,1,0,AccAcc,30,18,Woman,Left,
4,12,1,1.450957600000038,['n'],1,right,['e'],1,0.32381940000050236,0.4,1,0,AccAcc,30,18,Woman,Left,
5,12,1,0.5844815000000381,['c'],1,left,['e'],1,0.25798369999938586,0.1,1,0,AccAcc,30,18,Woman,Left,
6,12,1,0.7170538999998826,['n'],1,right,['e'],1,0.30151049999949464,0.2,1,0,AccAcc,30,18,Woman,Left,
7,12,1,1.1511442999999417,['n'],0,left,['u'],0,0.24578959999962535,0.1,1,0,AccAcc,30,18,Woman,Left,
8,12,1,1.117824599999949,['c'],1,left,['u'],0,0.5614017000007152,0.1,0,0,AccAcc,30,18,Woman,Left,
9,12,1,0.8845897999999579,['n'],1,right,['e'],1,0.15422659999967436,0.4,1,0,AccAcc,30,18,Woman,Left,
10,12,1,0.9507663999993383,['n'],1,right,['e'],1,0.3365370999999868,0.1,1,0,AccAcc,30,18,Woman,Left,
11,12,1,1.2511142999992444,['n'],1,right,['e'],1,0.35555890000068757,0.4,1,0,AccAcc,30,18,Woman,Left,
12,12,1,0.9007147000011173,['c'],1,left,['e'],1,0.3557366999993974,0.4,1,0,AccAcc,30,18,Woman,Left,
13,12,1,0.7007579000000987,['n'],1,right,['u'],0,0.6039559000000736,0.1,0,0,AccAcc,30,18,Woman,Left,
14,12,1,0.7181851999994251,['c'],1,left,['e'],1,0.13778280000042287,0.2,1,0,AccAcc,30,18,Woman,Left,
15,12,1,1.3996287999998458,['n'],1,right,['e'],1,0.09474770000088029,0.2,1,0,AccAcc,30,18,Woman,Left,
16,12,1,1.500802799999292,['n'],1,right,['u'],0,0.5614220000006753,0.1,0,0,AccAcc,30,18,Woman,Left,
17,12,1,0.7177859999992506,['n'],1,right,['e'],1,0.30519599999934144,0.2,1,0,AccAcc,30,18,Woman,Left,
18,12,1,0.7847340000007534,['c'],1,left,['e'],1,0.2157515000017156,0.4,1,0,AccAcc,30,18,Woman,Left,
19,12,1,0.6672957000009774,['c'],1,left,['e'],1,0.07210680000025604,0.4,1,0,AccAcc,30,18,Woman,Left,
20,12,1,0.800823900000978,['c'],1,left,['e'],1,0.08666379999885976,0.1,1,0,AccAcc,30,18,Woman,Left,
21,12,1,0.9676038000015978,['c'],1,left,['u'],0,0.14261889999943378,0.1,0,0,AccAcc,30,18,Woman,Left,
22,12,1,0.9344269000011991,['n'],1,right,['e'],1,0.4220457000010356,0.4,1,0,AccAcc,30,18,Woman,Left,
23,12,1,0.7843080999991798,['c'],1,left,['e'],1,0.08831989999998768,0.2,1,0,AccAcc,30,18,Woman,Left,
24,12,1,1.7343103000002884,['n'],1,right,['u'],0,0.2261540999988938,0.1,0,0,AccAcc,30,18,Woman,Left,
25,12,1,1.9510899000015343,['n'],1,right,['u'],0,0.5575214000000415,0.1,0,0,AccAcc,30,18,Woman,Left,
26,12,1,1.3840404000002309,['n'],1,right,['e'],1,0.17854470000020228,0.2,1,0,AccAcc,30,18,Woman,Left,
27,12,1,0.7843631999985519,['c'],1,left,['e'],1,0.15809989999979734,0.4,1,0,AccAcc,30,18,Woman,Left,
28,12,1,1.9168040000004112,['n'],0,left,['u'],0,0.717850200000612,0.1,1,0,AccAcc,30,18,Woman,Left,
29,12,1,0.6679985000009765,['c'],1,left,['e'],1,0.08877000000029511,0.4,1,0,AccAcc,30,18,Woman,Left,
30,12,1,0.9842878999988898,['n'],0,left,['u'],0,0.14408799999910116,0.2,1,0,AccAcc,30,18,Woman,Left,
31,12,1,1.9172432999985176,['n'],0,left,['u'],0,0.04914049999933923,0.2,1,0,AccAcc,30,18,Woman,Left,
32,12,1,1.7845968000001449,['c'],0,right,['u'],0,0.15405459999965387,0.2,1,0,AccAcc,30,18,Woman,Left,
33,12,1,2.0342803000003187,['n'],0,left,['u'],0,0.5965580000010959,0.1,1,0,AccAcc,30,18,Woman,Left,
34,12,1,2.200971300000674,['n'],1,right,['u'],0,0.7588354999988951,0.2,0,0,AccAcc,30,18,Woman,Left,
35,12,1,1.2513023000010435,['c'],1,left,['u'],0,0.5211954999995214,0.2,0,0,AccAcc,30,18,Woman,Left,
36,12,1,1.150917400000253,['n'],0,left,['u'],0,0.5209637000007206,0.2,1,0,AccAcc,30,18,Woman,Left,
37,12,1,0.8344303000012587,['n'],0,left,['u'],0,0.22962079999888374,0.1,1,0,AccAcc,30,18,Woman,Left,
38,12,1,1.882875299999796,['c'],1,left,['e'],1,1.3311991000009584,0.4,1,0,AccAcc,30,18,Woman,Left,
39,12,1,1.2843649000005826,['n'],0,left,['e'],1,2.0123549999989336,0.1,0,0,AccAcc,30,18,Woman,Left,
40,12,1,0.651124299998628,['n'],1,right,['e'],1,0.1962002999989636,0.4,1,0,AccAcc,30,18,Woman,Left,
41,12,1,1.183726299999762,['n'],1,right,['e'],1,0.23965990000033344,0.2,1,0,AccAcc,30,18,Woman,Left,
42,12,1,1.1677720000006957,['n'],1,right,['e'],1,0.12134259999947972,0.1,1,0,AccAcc,30,18,Woman,Left,
43,12,1,1.0514571999992768,['n'],1,right,['e'],1,0.12462979999872914,0.4,1,0,AccAcc,30,18,Woman,Left,
44,12,1,1.1999758999991172,['n'],1,right,['u'],0,0.15441999999893596,0.2,0,0,AccAcc,30,18,Woman,Left,
45,12,1,1.4005374000007578,['n'],1,right,['u'],0,0.15853519999836863,0.1,0,0,AccAcc,30,18,Woman,Left,
46,12,1,1.0348306000014418,['n'],1,right,['e'],1,0.14555740000105288,0.4,1,0,AccAcc,30,18,Woman,Left,
47,12,1,1.5844075999993947,['c'],1,left,['e'],1,0.7504687000000558,0.4,1,0,AccAcc,30,18,Woman,Left,
48,12,1,1.1179296000009344,['n'],0,left,['u'],0,0.1819203999984893,0.1,1,0,AccAcc,30,18,Woman,Left,
49,12,1,0.7012704999997368,['n'],1,right,['e'],1,1.2212233999998716,0.2,1,0,AccAcc,30,18,Woman,Left,
50,12,1,1.6841670000012527,['n'],0,left,['e'],1,0.37154350000128034,0.4,0,0,AccAcc,30,18,Woman,Left,
51,12,1,0.7175264999987121,['n'],1,right,['e'],1,0.1865379999999277,0.2,1,0,AccAcc,30,18,Woman,Left,
52,12,1,1.6175144999997428,['n'],0,left,['e'],1,0.325229500000205,0.2,0,0,AccAcc,30,18,Woman,Left,
53,12,1,0.734650899999906,['n'],1,right,['e'],1,0.2047560999999405,0.2,1,0,AccAcc,30,18,Woman,Left,
54,12,1,0.7180704999991576,['n'],1,right,['e'],1,0.13826010000047972,0.1,1,0,AccAcc,30,18,Woman,Left,
55,12,1,1.3678314999997383,['n'],1,right,['e'],1,0.20855139999912353,0.1,1,0,AccAcc,30,18,Woman,Left,
56,12,1,0.7839356000004045,['n'],0,left,['e'],1,0.17142000000058033,0.4,0,0,AccAcc,30,18,Woman,Left,
57,12,1,2.6345688000001246,['n'],0,left,['e'],1,0.30178240000168444,0.1,0,0,AccAcc,30,18,Woman,Left,
58,12,1,0.7681348000005528,['n'],1,right,['e'],1,0.16521490000013728,0.2,1,0,AccAcc,30,18,Woman,Left,
59,12,1,1.6672612000002118,['n'],1,right,['e'],1,0.2541996999989351,0.2,1,0,AccAcc,30,18,Woman,Left,
0,13,1,1.2005239999998594,['n'],0,left,['u'],0,0.8543951000010566,0.4,1,0,FastAcc,30,18,Woman,Left,
1,13,1,1.6011238000010053,['n'],0,left,['u'],0,0.16629209999882733,0.1,1,0,FastAcc,30,18,Woman,Left,
2,13,1,1.5842976000003546,['n'],0,left,['u'],0,0.17842099999870698,0.1,1,0,FastAcc,30,18,Woman,Left,
3,13,1,0.8013384999994742,['n'],1,right,['e'],1,0.205302299998948,0.4,1,0,FastAcc,30,18,Woman,Left,
4,13,1,0.6172313000006397,['n'],1,right,['e'],1,0.11082600000008824,0.2,1,0,FastAcc,30,18,Woman,Left,
5,13,1,0.5512956000002305,['n'],1,right,['e'],1,0.11910019999959331,0.4,1,0,FastAcc,30,18,Woman,Left,
6,13,1,0.6493711000002804,['n'],1,right,['e'],1,0.12383000000045286,0.1,1,0,FastAcc,30,18,Woman,Left,
7,13,1,0.7512984000004508,['n'],1,right,['e'],1,0.17034590000002936,0.2,1,0,FastAcc,30,18,Woman,Left,
8,13,1,0.5844976000007591,['c'],1,left,['e'],1,0.44660599999951955,0.4,1,0,FastAcc,30,18,Woman,Left,
9,13,1,0.5176812999998219,['n'],1,right,['e'],1,0.13783499999954074,0.2,1,0,FastAcc,30,18,Woman,Left,
10,13,1,0.6007630999993125,['n'],1,right,['e'],1,0.14266289999977744,0.1,1,0,FastAcc,30,18,Woman,Left,
11,13,1,0.6010542999993049,['n'],1,right,['e'],1,0.11582689999886497,0.2,1,0,FastAcc,30,18,Woman,Left,
12,13,1,1.4176673000001756,['c'],1,left,['e'],1,0.15257980000023963,0.1,1,0,FastAcc,30,18,Woman,Left,
13,13,1,0.7162018999988504,['n'],0,left,['e'],1,0.16857770000024175,0.2,0,0,FastAcc,30,18,Woman,Left,
14,13,1,0.5841965999989043,['n'],1,right,['e'],1,0.17221989999961806,0.1,1,0,FastAcc,30,18,Woman,Left,
15,13,1,0.650040500000614,['n'],1,right,['e'],1,0.1736760999992839,0.1,1,0,FastAcc,30,18,Woman,Left,
16,13,1,0.5511621999994532,['n'],1,right,['e'],1,0.13163560000066354,0.2,1,0,FastAcc,30,18,Woman,Left,
17,13,1,0.699417199999516,['c'],1,left,['e'],1,0.1654049999997369,0.1,1,0,FastAcc,30,18,Woman,Left,
18,13,1,0.6012214999991556,['n'],1,right,['e'],1,0.11981569999989006,0.4,1,0,FastAcc,30,18,Woman,Left,
19,13,1,0.5677613000007113,['n'],0,left,['u'],0,0.302522099998896,0.1,1,0,FastAcc,30,18,Woman,Left,
20,13,1,1.0181057999998302,['n'],0,left,['e'],1,0.14026270000067598,0.1,0,0,FastAcc,30,18,Woman,Left,
21,13,1,0.9682208999984141,['n'],1,right,['e'],1,0.22650240000075428,0.2,1,0,FastAcc,30,18,Woman,Left,
22,13,1,1.2343464000005042,['c'],0,right,['e'],1,0.09073410000019067,0.1,0,0,FastAcc,30,18,Woman,Left,
23,13,1,0.8508855999989464,['n'],1,right,['e'],1,0.1675424999993993,0.1,1,0,FastAcc,30,18,Woman,Left,
24,13,1,0.7184248000012303,['c'],1,left,['e'],1,0.0382236000004923,0.4,1,0,FastAcc,30,18,Woman,Left,
25,13,1,0.9508826999990561,['n'],1,right,['e'],1,0.27328529999977036,0.2,1,0,FastAcc,30,18,Woman,Left,
26,13,1,1.5840867000006256,['c'],1,left,['u'],0,0.18557510000027833,0.2,0,0,FastAcc,30,18,Woman,Left,
27,13,1,0.7675932999991346,['n'],1,right,['e'],1,0.1818295000011858,0.4,1,0,FastAcc,30,18,Woman,Left,
28,13,1,0.6347903999994742,['c'],1,left,['e'],1,0.07170269999915035,0.4,1,0,FastAcc,30,18,Woman,Left,
29,13,1,2.0341996000006475,['c'],1,left,['u'],0,0.6457121000003099,0.4,0,0,FastAcc,30,18,Woman,Left,
30,13,1,0.6504033000001073,['c'],1,left,['e'],1,0.14784900000086054,0.4,1,0,FastAcc,30,18,Woman,Left,
31,13,1,0.5671052999987296,['n'],1,right,['e'],1,0.1534841000011511,0.4,1,0,FastAcc,30,18,Woman,Left,
32,13,1,0.45113949999904435,['c'],1,left,['e'],1,0.020303600000261213,0.4,1,0,FastAcc,30,18,Woman,Left,
33,13,1,0.517543800000567,['n'],1,right,['e'],1,0.20840969999881054,0.2,1,0,FastAcc,30,18,Woman,Left,
34,13,1,0.5180379999983415,['c'],1,left,['e'],1,0.1019440999989456,0.2,1,0,FastAcc,30,18,Woman,Left,
35,13,1,1.1178017999991425,['n'],0,left,['u'],0,0.055392899999787915,0.2,1,0,FastAcc,30,18,Woman,Left,
36,13,1,0.6508106999990559,['n'],1,right,['e'],1,0.12555670000074315,0.4,1,0,FastAcc,30,18,Woman,Left,
37,13,1,0.4342010999989725,['c'],1,left,['e'],1,0.10585120000177994,0.4,1,0,FastAcc,30,18,Woman,Left,
38,13,1,0.717708300000595,['n'],0,left,['u'],0,0.12357259999953385,0.1,1,0,FastAcc,30,18,Woman,Left,
39,13,1,0.8670256999994308,['c'],1,left,['u'],0,0.11831250000068394,0.1,0,0,FastAcc,30,18,Woman,Left,
40,13,1,0.5995315999989543,['c'],1,left,['e'],1,0.12540940000144474,0.1,1,0,FastAcc,30,18,Woman,Left,
41,13,1,0.6181730999996944,['n'],1,right,['e'],1,0.1446709000010742,0.1,1,0,FastAcc,30,18,Woman,Left,
42,13,1,1.0349696000012045,['n'],1,right,['e'],1,0.13220129999899655,0.2,1,0,FastAcc,30,18,Woman,Left,
43,13,1,0.6011464999992313,['n'],1,right,['e'],1,0.07347309999931895,0.4,1,0,FastAcc,30,18,Woman,Left,
44,13,1,0.7181062999989081,['n'],1,right,['e'],1,0.1879161999986536,0.1,1,0,FastAcc,30,18,Woman,Left,
45,13,1,0.6342571000004682,['n'],1,right,['e'],1,0.18977049999921292,0.1,1,0,FastAcc,30,18,Woman,Left,
46,13,1,0.5340541000005032,['c'],1,left,['e'],1,0.1154050000004645,0.4,1,0,FastAcc,30,18,Woman,Left,
47,13,1,0.5342674999992596,['c'],1,left,['e'],1,0.07564669999919715,0.4,1,0,FastAcc,30,18,Woman,Left,
48,13,1,0.8175637000003917,['n'],1,right,['e'],1,0.4265885000004346,0.2,1,0,FastAcc,30,18,Woman,Left,
49,13,1,0.5180602000000363,['n'],1,right,['e'],1,0.08695299999999406,0.4,1,0,FastAcc,30,18,Woman,Left,
50,13,1,0.5510190000004513,['c'],1,left,['e'],1,0.12917030000062368,0.2,1,0,FastAcc,30,18,Woman,Left,
51,13,1,0.9018818000004103,['n'],0,left,['u'],0,0.1053965999999491,0.2,1,0,FastAcc,30,18,Woman,Left,
52,13,1,1.0337619999991148,['c'],1,left,['u'],0,0.12623009999879287,0.2,0,0,FastAcc,30,18,Woman,Left,
53,13,1,0.7339511999998649,['n'],1,right,['e'],1,0.1265400000011141,0.4,1,0,FastAcc,30,18,Woman,Left,
54,13,1,0.6348316999992676,['c'],0,right,['e'],1,0.0986695999999938,0.2,0,0,FastAcc,30,18,Woman,Left,
55,13,1,0.7012400000003254,['n'],0,left,['e'],1,0.11680520000118122,0.2,0,0,FastAcc,30,18,Woman,Left,
56,13,1,0.7672946999991836,['n'],1,right,['e'],1,0.16375700000025972,0.1,1,0,FastAcc,30,18,Woman,Left,
57,13,1,0.7510421999995742,['c'],1,left,['e'],1,0.14537340000060794,0.1,1,0,FastAcc,30,18,Woman,Left,
58,13,1,0.7338306999990891,['n'],0,left,['e'],1,0.09613449999960721,0.4,0,0,FastAcc,30,18,Woman,Left,
59,13,1,0.6845958000012615,['n'],0,left,['e'],1,0.14693769999939832,0.2,0,0,FastAcc,30,18,Woman,Left,
0,14,1,0.6509636000009777,['c'],1,left,['e'],1,0.09061010000004899,0.4,1,0,FastFast,30,18,Woman,Left,
1,14,1,0.6175763999999617,['c'],1,left,['e'],1,0.03285210000103689,0.4,1,0,FastFast,30,18,Woman,Left,
2,14,1,0.6176574000000983,['n'],1,right,['u'],0,0.05708229999981995,0.1,0,0,FastFast,30,18,Woman,Left,
3,14,1,0.8676078000007692,['c'],0,right,['e'],1,0.10256590000062715,0.1,0,0,FastFast,30,18,Woman,Left,
4,14,1,1.0012370999993436,['n'],1,right,['u'],0,0.15703020000000834,0.2,0,0,FastFast,30,18,Woman,Left,
5,14,1,0.6343694000006508,['c'],0,right,['u'],0,0.2716194999993604,0.2,1,0,FastFast,30,18,Woman,Left,
6,14,1,0.6345424000010098,['c'],1,left,['e'],1,0.10974890000034065,0.4,1,0,FastFast,30,18,Woman,Left,
7,14,1,0.6010922999994364,['c'],1,left,['e'],1,0.03614610000113316,0.4,1,0,FastFast,30,18,Woman,Left,
8,14,1,0.5339084999995976,['c'],1,left,['e'],1,0.06367669999963255,0.4,1,0,FastFast,30,18,Woman,Left,
9,14,1,0.5513190000001487,['n'],1,right,['u'],0,0.07304740000108723,0.2,0,0,FastFast,30,18,Woman,Left,
10,14,1,1.234300300000541,['c'],0,right,['u'],0,0.10338210000008985,0.1,1,0,FastFast,30,18,Woman,Left,
11,14,1,1.1191297000004852,['c'],0,right,['u'],0,0.10464980000142532,0.1,1,0,FastFast,30,18,Woman,Left,
12,14,1,0.6343975999989198,['n'],0,left,['e'],1,0.6378475000001345,0.4,0,0,FastFast,30,18,Woman,Left,
13,14,1,1.0349678000002314,['n'],1,right,['e'],1,0.045325099999899976,0.4,1,0,FastFast,30,18,Woman,Left,
14,14,1,1.0987578999993275,['c'],1,left,['u'],0,0.13082740000027115,0.1,0,0,FastFast,30,18,Woman,Left,
15,14,1,0.5837097999992693,['c'],1,left,['e'],1,0.07119080000120448,0.2,1,0,FastFast,30,18,Woman,Left,
16,14,1,0.7510607999993226,['n'],1,right,['u'],0,0.264482799999314,0.2,0,0,FastFast,30,18,Woman,Left,
17,14,1,0.6998452999996516,['c'],1,left,['e'],1,0.052317800000309944,0.4,1,0,FastFast,30,18,Woman,Left,
18,14,1,1.2010350000000471,['n'],1,right,['e'],1,0.0685260999998718,0.4,1,0,FastFast,30,18,Woman,Left,
19,14,1,0.851032500000656,['n'],0,left,['e'],1,0.09824160000061966,0.1,0,0,FastFast,30,18,Woman,Left,
20,14,1,0.8675433000007615,['c'],0,right,['u'],0,0.09336760000041977,0.2,1,0,FastFast,30,18,Woman,Left,
21,14,1,0.7016462999999931,['c'],0,right,['u'],0,0.11294019999877492,0.1,1,0,FastFast,30,18,Woman,Left,
22,14,1,1.034279700001207,['c'],1,left,['u'],0,0.08515259999876434,0.2,0,0,FastFast,30,18,Woman,Left,
23,14,1,2.083706200000961,['c'],1,left,['u'],0,0.1120639000000665,0.1,0,0,FastFast,30,18,Woman,Left,
24,14,1,1.1843901000011101,['n'],0,left,['u'],0,0.09467670000049111,0.1,1,0,FastFast,30,18,Woman,Left,
25,14,1,0.7505433000005723,['c'],1,left,['e'],1,0.015720100000180537,0.2,1,0,FastFast,30,18,Woman,Left,
26,14,1,0.8664078999991034,['n'],1,right,['u'],0,0.07894369999849005,0.1,0,0,FastFast,30,18,Woman,Left,
27,14,1,1.6676812000005157,['n'],1,right,['e'],1,0.12352780000037455,0.4,1,0,FastFast,30,18,Woman,Left,
28,14,1,0.6338584999994055,['c'],1,left,['e'],1,0.11161680000077467,0.4,1,0,FastFast,30,18,Woman,Left,
29,14,1,0.7501523999999336,['n'],1,right,['e'],1,0.17558509999980743,0.4,1,0,FastFast,30,18,Woman,Left,
30,14,1,0.9510687000001781,['n'],1,right,['u'],0,0.8373769000008906,0.1,0,0,FastFast,30,18,Woman,Left,
31,14,1,0.6010423000006995,['c'],1,left,['e'],1,0.07814190000135568,0.2,1,0,FastFast,30,18,Woman,Left,
32,14,1,0.6011616000014328,['n'],1,right,['e'],1,0.18162429999938468,0.1,1,0,FastFast,30,18,Woman,Left,
33,14,1,0.4841308000013669,['c'],1,left,['e'],1,0.07858440000018163,0.1,1,0,FastFast,30,18,Woman,Left,
34,14,1,0.8675982999993721,['n'],0,left,['u'],0,0.0586607000004733,0.2,1,0,FastFast,30,18,Woman,Left,
35,14,1,1.7346632999997382,['c'],1,left,['u'],0,0.10134919999836711,0.2,0,0,FastFast,30,18,Woman,Left,
36,14,1,2.317258999999467,['c'],0,right,['u'],0,0.534550099999251,0.4,1,0,FastFast,30,18,Woman,Left,
37,14,1,1.4839293000004545,['n'],1,right,['u'],0,0.08828440000070259,0.1,0,0,FastFast,30,18,Woman,Left,
38,14,1,1.931851999999708,['n'],1,right,['u'],0,0.07535860000098182,0.4,0,0,FastFast,30,18,Woman,Left,
39,14,1,1.2509257000001526,['c'],0,right,['e'],1,0.1674831999989692,0.1,0,0,FastFast,30,18,Woman,Left,
40,14,1,1.0178356999986136,['c'],1,left,['e'],1,0.07445069999994303,0.4,1,0,FastFast,30,18,Woman,Left,
41,14,1,0.6341216999990138,['c'],1,left,['e'],1,0.0808017999988806,0.2,1,0,FastFast,30,18,Woman,Left,
42,14,1,0.6840872000011586,['c'],1,left,['e'],1,0.06831349999993108,0.4,1,0,FastFast,30,18,Woman,Left,
43,14,1,0.7839728999988438,['c'],0,right,['e'],1,0.11696679999840853,0.2,0,0,FastFast,30,18,Woman,Left,
44,14,1,1.083737700000711,['c'],1,left,['e'],1,0.07060060000003432,0.1,1,0,FastFast,30,18,Woman,Left,
45,14,1,1.4501154000008682,['c'],1,left,['e'],1,0.04409219999979541,0.1,1,0,FastFast,30,18,Woman,Left,
46,14,1,2.3501058999991074,['c'],0,right,['e'],1,2.095180899999832,0.2,0,0,FastFast,30,18,Woman,Left,
47,14,1,1.7666907000002539,['n'],1,right,['e'],1,0.119940200000201,0.2,1,0,FastFast,30,18,Woman,Left,
48,14,1,0.6342208000005485,['n'],1,right,['e'],1,0.10724880000088888,0.1,1,0,FastFast,30,18,Woman,Left,
49,14,1,0.76699440000084,['c'],1,left,['e'],1,0.042622999999366584,0.4,1,0,FastFast,30,18,Woman,Left,
50,14,1,0.7005757999995694,['n'],1,right,['e'],1,0.07963759999984177,0.1,1,0,FastFast,30,18,Woman,Left,
51,14,1,1.483329999999114,['n'],0,left,['e'],1,0.09988720000001194,0.2,0,0,FastFast,30,18,Woman,Left,
52,14,1,1.067781300000206,['c'],1,left,['e'],1,0.1186437999986083,0.2,1,0,FastFast,30,18,Woman,Left,
53,14,1,0.6665831999998773,['n'],1,right,['e'],1,0.07416190000003553,0.4,1,0,FastFast,30,18,Woman,Left,
54,14,1,0.6843679000012344,['c'],1,left,['e'],1,0.10975040000084846,0.2,1,0,FastFast,30,18,Woman,Left,
55,14,1,0.7679259000015008,['n'],0,left,['e'],1,0.15733980000004522,0.4,0,0,FastFast,30,18,Woman,Left,
56,14,1,1.0835553999986587,['n'],1,right,['e'],1,0.06214169999839214,0.1,1,0,FastFast,30,18,Woman,Left,
57,14,1,0.7004078000009031,['n'],1,right,['e'],1,0.0023439999986294424,0.4,1,0,FastFast,30,18,Woman,Left,
58,14,1,0.6670555000000604,['c'],1,left,['e'],1,0.05723459999899205,0.2,1,0,FastFast,30,18,Woman,Left,
59,14,1,1.200821200000064,['n'],1,right,['e'],1,0.10597249999955238,0.2,1,0,FastFast,30,18,Woman,Left,
0,15,1,3.0178689999993367,['n'],0,left,['u'],0,0.06746249999923748,0.2,1,0,AccFast,30,18,Woman,Left,
1,15,1,1.000905499999135,['n'],1,right,['e'],1,0.04304939999929047,0.4,1,0,AccFast,30,18,Woman,Left,
2,15,1,0.517802300000767,['c'],1,left,['e'],1,0.03904859999965993,0.4,1,0,AccFast,30,18,Woman,Left,
3,15,1,0.6498053000013897,['n'],1,right,['e'],1,0.04648489999999583,0.4,1,0,AccFast,30,18,Woman,Left,
4,15,1,0.6175925000006828,['c'],0,right,['e'],1,0.006277100001170766,0.2,0,0,AccFast,30,18,Woman,Left,
5,15,1,0.6002509999998438,['c'],1,left,['e'],1,0.06370380000043951,0.2,1,0,AccFast,30,18,Woman,Left,
6,15,1,1.1672796999991988,['n'],0,left,['e'],1,0.09661010000127135,0.2,0,0,AccFast,30,18,Woman,Left,
7,15,1,0.783773299999666,['n'],1,right,['e'],1,0.07963659999950323,0.2,1,0,AccFast,30,18,Woman,Left,
8,15,1,1.1177982999997766,['n'],0,left,['u'],0,0.09772690000136208,0.2,1,0,AccFast,30,18,Woman,Left,
9,15,1,0.7669430999994802,['c'],1,left,['e'],1,0.06522620000032475,0.2,1,0,AccFast,30,18,Woman,Left,
10,15,1,0.8171485000002576,['n'],1,right,['e'],1,0.09665250000034575,0.2,1,0,AccFast,30,18,Woman,Left,
11,15,1,0.7339747000005445,['c'],1,left,['e'],1,0.08160309999948367,0.1,1,0,AccFast,30,18,Woman,Left,
12,15,1,0.6012805999998818,['n'],1,right,['e'],1,0.1521298999996361,0.4,1,0,AccFast,30,18,Woman,Left,
13,15,1,0.6845541000002413,['n'],1,right,['e'],1,0.10472770000160381,0.1,1,0,AccFast,30,18,Woman,Left,
14,15,1,0.5516793000006146,['c'],1,left,['e'],1,0.04907900000034715,0.1,1,0,AccFast,30,18,Woman,Left,
15,15,1,0.8338947000011103,['c'],0,right,['u'],0,0.06369960000120045,0.2,1,0,AccFast,30,18,Woman,Left,
16,15,1,0.6846093000003748,['c'],0,right,['e'],1,0.06777730000067095,0.1,0,0,AccFast,30,18,Woman,Left,
17,15,1,0.6176821999997628,['c'],1,left,['e'],1,0.042837999999392196,0.4,1,0,AccFast,30,18,Woman,Left,
18,15,1,1.0846325000002253,['n'],0,left,['u'],0,0.2562519000002794,0.2,1,0,AccFast,30,18,Woman,Left,
19,15,1,0.8174622999995336,['n'],1,right,['e'],1,0.0565972000003967,0.4,1,0,AccFast,30,18,Woman,Left,
20,15,1,1.8340475999993942,['n'],1,right,['e'],1,0.11093270000128541,0.4,1,0,AccFast,30,18,Woman,Left,
21,15,1,1.8173939999996946,['n'],1,right,['e'],1,0.08471970000027795,0.1,1,0,AccFast,30,18,Woman,Left,
22,15,1,1.7002364999989368,['n'],0,left,['u'],0,0.0954353999986779,0.1,1,0,AccFast,30,18,Woman,Left,
23,15,1,1.515951400000631,['n'],1,right,['u'],0,0.12977139999929932,0.1,0,0,AccFast,30,18,Woman,Left,
24,15,1,0.852571600000374,['c'],1,left,['e'],1,0.07588690000011411,0.1,1,0,AccFast,30,18,Woman,Left,
25,15,1,1.218359700000292,['c'],1,left,['u'],0,0.1707516000005853,0.2,0,0,AccFast,30,18,Woman,Left,
26,15,1,1.2514143000007607,['n'],0,left,['u'],0,0.08444910000071104,0.2,1,0,AccFast,30,18,Woman,Left,
27,15,1,1.6333539000006567,['n'],1,right,['u'],0,0.610645900000236,0.1,0,0,AccFast,30,18,Woman,Left,
28,15,1,1.834069399999862,['c'],1,left,['u'],0,0.08341289999953005,0.1,0,0,AccFast,30,18,Woman,Left,
29,15,1,1.0010541999999987,['c'],1,left,['u'],0,0.12182129999928293,0.2,0,0,AccFast,30,18,Woman,Left,
30,15,1,0.7510613000013109,['c'],1,left,['u'],0,0.1373048999994353,0.2,0,0,AccFast,30,18,Woman,Left,
31,15,1,2.434602499999528,['n'],0,left,['u'],0,0.2610482000000047,0.1,1,0,AccFast,30,18,Woman,Left,
32,15,1,1.0680623000007472,['n'],1,right,['e'],1,0.03491989999929501,0.4,1,0,AccFast,30,18,Woman,Left,
33,15,1,1.0674424999997427,['c'],1,left,['u'],0,0.13704510000025039,0.2,0,0,AccFast,30,18,Woman,Left,
34,15,1,1.4180864999998448,['n'],1,right,['u'],0,0.1251682999991317,0.2,0,0,AccFast,30,18,Woman,Left,
35,15,1,2.067524499998399,['n'],1,right,['u'],0,0.3282029000001785,0.1,0,0,AccFast,30,18,Woman,Left,
36,15,1,1.0337353000013536,['c'],1,left,['e'],1,0.4203185999995185,0.4,1,0,AccFast,30,18,Woman,Left,
37,15,1,1.0344502000007196,['c'],0,right,['u'],0,0.25301630000103614,0.1,1,0,AccFast,30,18,Woman,Left,
38,15,1,1.6179236000007222,['c'],1,left,['u'],0,0.18030109999926935,0.2,0,0,AccFast,30,18,Woman,Left,
39,15,1,1.1343976999996812,['n'],0,left,['u'],0,0.0831201000000874,0.1,1,0,AccFast,30,18,Woman,Left,
40,15,1,0.7345154999984516,['c'],1,left,['e'],1,0.05158070000106818,0.4,1,0,AccFast,30,18,Woman,Left,
41,15,1,1.2502438999999868,['c'],0,right,['u'],0,1.6338013999993564,0.1,1,0,AccFast,30,18,Woman,Left,
42,15,1,1.000894300001164,['c'],1,left,['u'],0,0.18680850000055216,0.4,0,0,AccFast,30,18,Woman,Left,
43,15,1,1.0337060000001657,['c'],1,left,['e'],1,0.4608525000003283,0.4,1,0,AccFast,30,18,Woman,Left,
44,15,1,0.6846690999991552,['c'],1,left,['e'],1,0.09748239999862562,0.4,1,0,AccFast,30,18,Woman,Left,
45,15,1,0.6502529999997932,['c'],1,left,['e'],1,0.05475939999996626,0.4,1,0,AccFast,30,18,Woman,Left,
46,15,1,1.4006456000006438,['n'],1,right,['e'],1,0.12616720000005444,0.2,1,0,AccFast,30,18,Woman,Left,
47,15,1,0.6506847000000562,['n'],1,right,['e'],1,0.08108720000018366,0.4,1,0,AccFast,30,18,Woman,Left,
48,15,1,0.7676895000004151,['c'],1,left,['e'],1,0.08132330000080401,0.4,1,0,AccFast,30,18,Woman,Left,
49,15,1,0.7177044000000024,['n'],1,right,['e'],1,0.2274262999999337,0.1,1,0,AccFast,30,18,Woman,Left,
50,15,1,0.651474700000108,['n'],1,right,['e'],1,0.03519790000063949,0.4,1,0,AccFast,30,18,Woman,Left,
51,15,1,2.9493422000014107,['n'],1,right,['u'],0,0.62238459999935,0.1,0,0,AccFast,30,18,Woman,Left,
52,15,1,1.4006164999991597,['n'],1,right,['u'],0,0.06382339999981923,0.2,0,0,AccFast,30,18,Woman,Left,
53,15,1,1.8676821000008204,['c'],0,right,['u'],0,0.13273970000045665,0.4,1,0,AccFast,30,18,Woman,Left,
54,15,1,2.016183899999305,['n'],1,right,['u'],0,0.06636099999923317,0.2,0,0,AccFast,30,18,Woman,Left,
55,15,1,1.0018933000010293,['n'],1,right,['e'],1,0.10471730000062962,0.4,1,0,AccFast,30,18,Woman,Left,
56,15,1,0.6839858000003005,['c'],1,left,['e'],1,0.09145519999947282,0.1,1,0,AccFast,30,18,Woman,Left,
57,15,1,0.5515071999998327,['n'],1,right,['e'],1,0.08428259999891452,0.4,1,0,AccFast,30,18,Woman,Left,
58,15,1,1.8176179000001866,['n'],0,left,['u'],0,0.090644699999757,0.1,1,0,AccFast,30,18,Woman,Left,
59,15,1,1.6839793999988615,['c'],0,right,['u'],0,0.10246980000010808,0.1,1,0,AccFast,30,18,Woman,Left,
