withinblocktrial,block,block_repetition,rt,resp,cor,cresp,conf_press,cj,rtconf,coherence,metacognition,slow_trial,manipulation,sub,age,gender,handedness,
0,1,1,4.150001699999848,['c'],1,left,none,-99,-99,0.5,-99,0,none,26,18,Woman,Left,
1,1,1,2.1509332999994513,['c'],0,right,none,-99,-99,0.5,-99,0,none,26,18,Woman,Left,
2,1,1,5.00152479999997,x,-99,right,none,-99,-99,0.5,-99,1,none,26,18,Woman,Left,
3,1,1,1.0661889000002702,['c'],1,left,none,-99,-99,0.5,-99,0,none,26,18,Woman,Left,
4,1,1,1.117996699998912,['n'],1,right,none,-99,-99,0.5,-99,0,none,26,18,Woman,Left,
5,1,1,1.1513821000007738,['n'],1,right,none,-99,-99,0.5,-99,0,none,26,18,Woman,Left,
6,1,1,0.9659057999997458,['c'],0,right,none,-99,-99,0.5,-99,0,none,26,18,Woman,Left,
7,1,1,1.834331200001543,['n'],0,left,none,-99,-99,0.5,-99,0,none,26,18,Woman,Left,
8,1,1,0.917493300001297,['c'],1,left,none,-99,-99,0.5,-99,0,none,26,18,Woman,Left,
9,1,1,0.9842306999998982,['n'],0,left,none,-99,-99,0.5,-99,0,none,26,18,Woman,Left,
10,1,1,1.099534400000266,['n'],0,left,none,-99,-99,0.5,-99,0,none,26,18,Woman,Left,
11,1,1,2.766395399999965,['n'],1,right,none,-99,-99,0.5,-99,0,none,26,18,Woman,Left,
12,1,1,1.1996395000005577,['c'],1,left,none,-99,-99,0.5,-99,0,none,26,18,Woman,Left,
13,1,1,3.9334569000002375,['n'],0,left,none,-99,-99,0.5,-99,0,none,26,18,Woman,Left,
14,1,1,0.9842162999993889,['c'],0,right,none,-99,-99,0.5,-99,0,none,26,18,Woman,Left,
15,1,1,0.9507830999991711,['n'],0,left,none,-99,-99,0.5,-99,0,none,26,18,Woman,Left,
16,1,1,1.5010010000005423,['c'],0,right,none,-99,-99,0.5,-99,0,none,26,18,Woman,Left,
17,1,1,2.0336936000003334,['n'],1,right,none,-99,-99,0.5,-99,0,none,26,18,Woman,Left,
18,1,1,1.9657898000004934,['n'],1,right,none,-99,-99,0.5,-99,0,none,26,18,Woman,Left,
19,1,1,2.017954599999939,['c'],1,left,none,-99,-99,0.5,-99,0,none,26,18,Woman,Left,
20,1,1,1.4841830000004848,['n'],0,left,none,-99,-99,0.5,-99,0,none,26,18,Woman,Left,
21,1,1,1.1850292999988596,['n'],0,left,none,-99,-99,0.5,-99,0,none,26,18,Woman,Left,
22,1,1,1.184724800001277,['c'],0,right,none,-99,-99,0.5,-99,0,none,26,18,Woman,Left,
23,1,1,1.283926899999642,['c'],0,right,none,-99,-99,0.5,-99,0,none,26,18,Woman,Left,
0,1,2,3.2174493000002258,['c'],1,left,none,-99,-99,0.5,-99,0,none,26,18,Woman,Left,
1,1,2,1.4012764999988576,['n'],0,left,none,-99,-99,0.5,-99,0,none,26,18,Woman,Left,
2,1,2,2.566551399999298,['n'],0,left,none,-99,-99,0.5,-99,0,none,26,18,Woman,Left,
3,1,2,2.815181999998458,['n'],0,left,none,-99,-99,0.5,-99,0,none,26,18,Woman,Left,
4,1,2,1.468249100000321,['c'],0,right,none,-99,-99,0.5,-99,0,none,26,18,Woman,Left,
5,1,2,1.5659388999993098,['c'],0,right,none,-99,-99,0.5,-99,0,none,26,18,Woman,Left,
6,1,2,1.182342800000697,['n'],1,right,none,-99,-99,0.5,-99,0,none,26,18,Woman,Left,
7,1,2,4.18409359999896,['n'],1,right,none,-99,-99,0.5,-99,0,none,26,18,Woman,Left,
8,1,2,3.4013168000001315,['n'],0,left,none,-99,-99,0.5,-99,0,none,26,18,Woman,Left,
9,1,2,1.3161569999992935,['c'],0,right,none,-99,-99,0.5,-99,0,none,26,18,Woman,Left,
10,1,2,2.86713570000029,['c'],0,right,none,-99,-99,0.5,-99,0,none,26,18,Woman,Left,
11,1,2,0.7332005999996909,['n'],0,left,none,-99,-99,0.5,-99,0,none,26,18,Woman,Left,
12,1,2,0.7338532000012492,['c'],0,right,none,-99,-99,0.5,-99,0,none,26,18,Woman,Left,
13,1,2,1.6335412000007636,['n'],0,left,none,-99,-99,0.5,-99,0,none,26,18,Woman,Left,
14,1,2,1.4503076000000874,['n'],1,right,none,-99,-99,0.5,-99,0,none,26,18,Woman,Left,
15,1,2,1.150879900000291,['n'],0,left,none,-99,-99,0.5,-99,0,none,26,18,Woman,Left,
16,1,2,3.882477499999368,['c'],1,left,none,-99,-99,0.5,-99,0,none,26,18,Woman,Left,
17,1,2,1.1839168000005884,['c'],0,right,none,-99,-99,0.5,-99,0,none,26,18,Woman,Left,
18,1,2,1.7327628000002733,['c'],1,left,none,-99,-99,0.5,-99,0,none,26,18,Woman,Left,
19,1,2,1.3003923000014765,['c'],1,left,none,-99,-99,0.5,-99,0,none,26,18,Woman,Left,
20,1,2,1.2004454000016267,['c'],0,right,none,-99,-99,0.5,-99,0,none,26,18,Woman,Left,
21,1,2,2.650766400000066,['n'],1,right,none,-99,-99,0.5,-99,0,none,26,18,Woman,Left,
22,1,2,1.2844052000000374,['n'],1,right,none,-99,-99,0.5,-99,0,none,26,18,Woman,Left,
23,1,2,1.0342056999998022,['n'],0,left,none,-99,-99,0.5,-99,0,none,26,18,Woman,Left,
0,1,3,2.432829199999105,['c'],1,left,none,-99,-99,0.5,-99,0,none,26,18,Woman,Left,
1,1,3,1.501220000000103,['c'],0,right,none,-99,-99,0.5,-99,0,none,26,18,Woman,Left,
2,1,3,1.7838988000003155,['c'],0,right,none,-99,-99,0.5,-99,0,none,26,18,Woman,Left,
3,1,3,2.983237599999484,['n'],1,right,none,-99,-99,0.5,-99,0,none,26,18,Woman,Left,
4,1,3,2.2658501000005344,['n'],1,right,none,-99,-99,0.5,-99,0,none,26,18,Woman,Left,
5,1,3,1.800579300001118,['c'],1,left,none,-99,-99,0.5,-99,0,none,26,18,Woman,Left,
6,1,3,2.2009158000000753,['n'],1,right,none,-99,-99,0.5,-99,0,none,26,18,Woman,Left,
7,1,3,1.115835499998866,['c'],1,left,none,-99,-99,0.5,-99,0,none,26,18,Woman,Left,
8,1,3,0.9008305000006658,['n'],0,left,none,-99,-99,0.5,-99,0,none,26,18,Woman,Left,
9,1,3,1.634358199999042,['c'],1,left,none,-99,-99,0.5,-99,0,none,26,18,Woman,Left,
10,1,3,2.2341624000000593,['n'],0,left,none,-99,-99,0.5,-99,0,none,26,18,Woman,Left,
11,1,3,2.1668251999999484,['n'],0,left,none,-99,-99,0.5,-99,0,none,26,18,Woman,Left,
12,1,3,1.8161063000006834,['n'],1,right,none,-99,-99,0.5,-99,0,none,26,18,Woman,Left,
13,1,3,1.067101399999956,['c'],1,left,none,-99,-99,0.5,-99,0,none,26,18,Woman,Left,
14,1,3,1.9830406000000949,['n'],1,right,none,-99,-99,0.5,-99,0,none,26,18,Woman,Left,
15,1,3,1.4332128000005468,['n'],0,left,none,-99,-99,0.5,-99,0,none,26,18,Woman,Left,
16,1,3,1.0672038000011526,['n'],0,left,none,-99,-99,0.5,-99,0,none,26,18,Woman,Left,
17,1,3,0.9332821000007243,['n'],1,right,none,-99,-99,0.5,-99,0,none,26,18,Woman,Left,
18,1,3,2.0672732000002725,['n'],1,right,none,-99,-99,0.5,-99,0,none,26,18,Woman,Left,
19,1,3,1.199489700000413,['c'],1,left,none,-99,-99,0.5,-99,0,none,26,18,Woman,Left,
20,1,3,2.333903400000054,['n'],0,left,none,-99,-99,0.5,-99,0,none,26,18,Woman,Left,
21,1,3,2.2650727999989613,['n'],1,right,none,-99,-99,0.5,-99,0,none,26,18,Woman,Left,
22,1,3,2.1988784999994095,['c'],0,right,none,-99,-99,0.5,-99,0,none,26,18,Woman,Left,
23,1,3,2.266897400000744,['c'],0,right,none,-99,-99,0.5,-99,0,none,26,18,Woman,Left,
0,1,4,2.89954840000064,['n'],1,right,none,-99,-99,0.5,-99,0,none,26,18,Woman,Left,
1,1,4,1.2834676000002219,['c'],0,right,none,-99,-99,0.5,-99,0,none,26,18,Woman,Left,
2,1,4,1.2347300999990694,['n'],1,right,none,-99,-99,0.5,-99,0,none,26,18,Woman,Left,
3,1,4,1.0847300000004907,['c'],0,right,none,-99,-99,0.5,-99,0,none,26,18,Woman,Left,
4,1,4,1.017353400000502,['c'],1,left,none,-99,-99,0.5,-99,0,none,26,18,Woman,Left,
5,1,4,1.4490308000004006,['c'],0,right,none,-99,-99,0.5,-99,0,none,26,18,Woman,Left,
6,1,4,1.1013464000006934,['c'],1,left,none,-99,-99,0.5,-99,0,none,26,18,Woman,Left,
7,1,4,1.2341347000001406,['c'],1,left,none,-99,-99,0.5,-99,0,none,26,18,Woman,Left,
8,1,4,0.8162804000003234,['n'],1,right,none,-99,-99,0.5,-99,0,none,26,18,Woman,Left,
9,1,4,1.6851394000004802,['c'],1,left,none,-99,-99,0.5,-99,0,none,26,18,Woman,Left,
10,1,4,0.8358183999989706,['c'],1,left,none,-99,-99,0.5,-99,0,none,26,18,Woman,Left,
11,1,4,0.6999718999995821,['n'],1,right,none,-99,-99,0.5,-99,0,none,26,18,Woman,Left,
12,1,4,0.8660889000002499,['n'],0,left,none,-99,-99,0.5,-99,0,none,26,18,Woman,Left,
13,1,4,0.8172346999999718,['n'],0,left,none,-99,-99,0.5,-99,0,none,26,18,Woman,Left,
14,1,4,1.5006822000013926,['c'],1,left,none,-99,-99,0.5,-99,0,none,26,18,Woman,Left,
15,1,4,1.5834105999983876,['c'],1,left,none,-99,-99,0.5,-99,0,none,26,18,Woman,Left,
16,1,4,0.8014328999997815,['n'],1,right,none,-99,-99,0.5,-99,0,none,26,18,Woman,Left,
17,1,4,0.9180354000000079,['c'],0,right,none,-99,-99,0.5,-99,0,none,26,18,Woman,Left,
18,1,4,1.6178240999997797,['n'],1,right,none,-99,-99,0.5,-99,0,none,26,18,Woman,Left,
19,1,4,1.4847609999997076,['n'],0,left,none,-99,-99,0.5,-99,0,none,26,18,Woman,Left,
20,1,4,2.333974600000147,['c'],1,left,none,-99,-99,0.5,-99,0,none,26,18,Woman,Left,
21,1,4,1.9501573999987158,['c'],1,left,none,-99,-99,0.5,-99,0,none,26,18,Woman,Left,
22,1,4,0.8171241000000009,['n'],1,right,none,-99,-99,0.5,-99,0,none,26,18,Woman,Left,
23,1,4,0.866395700000794,['n'],1,right,none,-99,-99,0.5,-99,0,none,26,18,Woman,Left,
0,1,5,1.4162820000001375,['n'],1,right,none,-99,-99,0.5,-99,0,none,26,18,Woman,Left,
1,1,5,0.7506917999999132,['n'],1,right,none,-99,-99,0.5,-99,0,none,26,18,Woman,Left,
2,1,5,1.3000702999997884,['c'],1,left,none,-99,-99,0.5,-99,0,none,26,18,Woman,Left,
3,1,5,0.8987419999994017,['c'],1,left,none,-99,-99,0.5,-99,0,none,26,18,Woman,Left,
4,1,5,0.56734139999935,['c'],1,left,none,-99,-99,0.5,-99,0,none,26,18,Woman,Left,
5,1,5,0.8498993000011978,['c'],1,left,none,-99,-99,0.5,-99,0,none,26,18,Woman,Left,
6,1,5,0.6671016000000236,['n'],1,right,none,-99,-99,0.5,-99,0,none,26,18,Woman,Left,
7,1,5,0.4492924000005587,['c'],1,left,none,-99,-99,0.5,-99,0,none,26,18,Woman,Left,
8,1,5,0.6343194000000949,['c'],1,left,none,-99,-99,0.5,-99,0,none,26,18,Woman,Left,
9,1,5,0.6171013999992283,['c'],1,left,none,-99,-99,0.5,-99,0,none,26,18,Woman,Left,
10,1,5,0.5347944000004645,['c'],1,left,none,-99,-99,0.5,-99,0,none,26,18,Woman,Left,
11,1,5,0.5501700999993773,['c'],1,left,none,-99,-99,0.5,-99,0,none,26,18,Woman,Left,
12,1,5,0.5500107999996544,['n'],1,right,none,-99,-99,0.5,-99,0,none,26,18,Woman,Left,
13,1,5,0.6503867000010359,['n'],1,right,none,-99,-99,0.5,-99,0,none,26,18,Woman,Left,
14,1,5,0.6179956000014499,['n'],1,right,none,-99,-99,0.5,-99,0,none,26,18,Woman,Left,
15,1,5,0.566438100000596,['n'],1,right,none,-99,-99,0.5,-99,0,none,26,18,Woman,Left,
16,1,5,0.6340400999997655,['n'],1,right,none,-99,-99,0.5,-99,0,none,26,18,Woman,Left,
17,1,5,0.9329067999988183,['n'],1,right,none,-99,-99,0.5,-99,0,none,26,18,Woman,Left,
18,1,5,0.6497966999995697,['c'],1,left,none,-99,-99,0.5,-99,0,none,26,18,Woman,Left,
19,1,5,0.7338392000001477,['n'],1,right,none,-99,-99,0.5,-99,0,none,26,18,Woman,Left,
20,1,5,0.567810800001098,['c'],1,left,none,-99,-99,0.5,-99,0,none,26,18,Woman,Left,
21,1,5,0.6172655999998824,['n'],1,right,none,-99,-99,0.5,-99,0,none,26,18,Woman,Left,
22,1,5,1.418650699999489,['c'],1,left,none,-99,-99,0.5,-99,0,none,26,18,Woman,Left,
23,1,5,0.4656537999999273,['n'],1,right,none,-99,-99,0.5,-99,0,none,26,18,Woman,Left,
0,2,1,3.5680955999996513,['c'],1,left,none,-99,-99,0.2,-99,0,none,26,18,Woman,Left,
1,2,1,0.8342816999993374,['c'],1,left,none,-99,-99,0.4,-99,0,none,26,18,Woman,Left,
2,2,1,0.8328024000002188,['n'],1,right,none,-99,-99,0.1,-99,0,none,26,18,Woman,Left,
3,2,1,0.6014063999991777,['c'],1,left,none,-99,-99,0.2,-99,0,none,26,18,Woman,Left,
4,2,1,0.7846190999989631,['c'],1,left,none,-99,-99,0.4,-99,0,none,26,18,Woman,Left,
5,2,1,0.9014081999994232,['c'],0,right,none,-99,-99,0.1,-99,0,none,26,18,Woman,Left,
6,2,1,0.5509849999998551,['n'],1,right,none,-99,-99,0.4,-99,0,none,26,18,Woman,Left,
7,2,1,0.4671149999994668,['c'],1,left,none,-99,-99,0.4,-99,0,none,26,18,Woman,Left,
8,2,1,0.9331651000011334,['c'],0,right,none,-99,-99,0.1,-99,0,none,26,18,Woman,Left,
9,2,1,0.7839546000013797,['c'],1,left,none,-99,-99,0.4,-99,0,none,26,18,Woman,Left,
10,2,1,1.4346059999988938,['n'],1,right,none,-99,-99,0.2,-99,0,none,26,18,Woman,Left,
11,2,1,0.8494907999993302,['c'],0,right,none,-99,-99,0.2,-99,0,none,26,18,Woman,Left,
12,2,1,0.7183748999996169,['n'],1,right,none,-99,-99,0.1,-99,0,none,26,18,Woman,Left,
13,2,1,0.6347132000009879,['n'],0,left,none,-99,-99,0.2,-99,0,none,26,18,Woman,Left,
14,2,1,0.8325325999994675,['c'],0,right,none,-99,-99,0.1,-99,0,none,26,18,Woman,Left,
15,2,1,1.1163725999995222,['c'],1,left,none,-99,-99,0.2,-99,0,none,26,18,Woman,Left,
16,2,1,1.4660164999986591,['n'],1,right,none,-99,-99,0.1,-99,0,none,26,18,Woman,Left,
17,2,1,0.7335968000006687,['c'],0,right,none,-99,-99,0.2,-99,0,none,26,18,Woman,Left,
18,2,1,0.6846800000002986,['n'],0,left,none,-99,-99,0.4,-99,0,none,26,18,Woman,Left,
19,2,1,0.9512024999985442,['c'],0,right,none,-99,-99,0.1,-99,0,none,26,18,Woman,Left,
20,2,1,1.2840684000002511,['n'],0,left,none,-99,-99,0.2,-99,0,none,26,18,Woman,Left,
21,2,1,0.46695069999987027,['n'],1,right,none,-99,-99,0.1,-99,0,none,26,18,Woman,Left,
22,2,1,0.6834787999996479,['c'],1,left,none,-99,-99,0.4,-99,0,none,26,18,Woman,Left,
23,2,1,0.718062199999622,['c'],1,left,none,-99,-99,0.4,-99,0,none,26,18,Woman,Left,
0,3,1,3.1001511000013124,['c'],0,right,['u'],0,1.401382600000943,0.2,1,0,none,26,18,Woman,Left,
1,3,1,2.634394999999131,['n'],1,right,['u'],0,1.2778097000009438,0.1,0,0,none,26,18,Woman,Left,
2,3,1,2.500156899999638,['c'],0,right,['e'],1,0.7504411000008986,0.1,0,0,none,26,18,Woman,Left,
3,3,1,2.2178903999993054,['n'],1,right,['e'],1,1.101846799998384,0.2,1,0,none,26,18,Woman,Left,
4,3,1,2.0010927000002994,['c'],1,left,['e'],1,0.9999190999988059,0.1,1,0,none,26,18,Woman,Left,
5,3,1,2.9506509999991977,['n'],0,left,['u'],0,0.6245443999996496,0.4,1,0,none,26,18,Woman,Left,
6,3,1,2.616276700000526,['n'],1,right,['u'],0,0.950741000000562,0.2,0,0,none,26,18,Woman,Left,
7,3,1,2.9175214000006235,['n'],0,left,['u'],0,0.5136716999986675,0.1,1,0,none,26,18,Woman,Left,
8,3,1,1.6836442000003444,['n'],0,left,['u'],0,0.33591859999978624,0.4,1,0,none,26,18,Woman,Left,
9,3,1,2.734198500000275,['c'],1,left,['u'],0,0.45993409999937285,0.2,0,0,none,26,18,Woman,Left,
10,3,1,1.6340736000001925,['n'],0,left,['u'],0,0.3349679000002652,0.4,1,0,none,26,18,Woman,Left,
11,3,1,1.8338652000002185,['n'],0,left,['e'],1,0.41480700000101933,0.2,0,0,none,26,18,Woman,Left,
12,3,1,2.7510913999994955,['c'],1,left,['u'],0,0.550471300000936,0.4,0,0,none,26,18,Woman,Left,
13,3,1,3.0844230000002426,['n'],0,left,['e'],1,0.5236638999995193,0.4,0,0,none,26,18,Woman,Left,
14,3,1,2.666905800000677,['n'],0,left,['e'],1,0.7404262999989442,0.4,0,0,none,26,18,Woman,Left,
15,3,1,2.234552399999302,['c'],1,left,['u'],0,0.41866250000020955,0.1,0,0,none,26,18,Woman,Left,
16,3,1,2.366835099999662,['n'],0,left,['u'],0,0.40977659999953175,0.1,1,0,none,26,18,Woman,Left,
17,3,1,0.9518019999995886,['c'],0,right,['e'],1,0.8261654000016279,0.1,0,0,none,26,18,Woman,Left,
18,3,1,5.000359800000297,x,-99,right,none,-99,-99,0.2,-99,1,none,26,18,Woman,Left,
19,3,1,1.166542799999661,['n'],1,right,['u'],0,0.400128000001132,0.1,0,0,none,26,18,Woman,Left,
20,3,1,2.334396399999605,['n'],1,right,['e'],1,0.42520800000056624,0.2,1,0,none,26,18,Woman,Left,
21,3,1,2.5687042999998084,['c'],0,right,['u'],0,0.4409942999991472,0.2,1,0,none,26,18,Woman,Left,
22,3,1,1.3342217000008532,['c'],0,right,['u'],0,0.3133553999996366,0.4,1,0,none,26,18,Woman,Left,
23,3,1,4.16781760000049,['n'],1,right,['e'],1,0.5563650999993115,0.4,1,0,none,26,18,Woman,Left,
0,4,1,4.933078699999896,['n'],0,left,['u'],0,0.7810585999995965,0.4,1,0,AccAcc,26,18,Woman,Left,
1,4,1,3.666263999999501,['c'],1,left,['e'],1,1.6947421999993821,0.2,1,0,AccAcc,26,18,Woman,Left,
2,4,1,2.5498330000009446,['c'],1,left,['e'],1,0.551491400001396,0.1,1,0,AccAcc,26,18,Woman,Left,
3,4,1,3.1826143999987835,['c'],0,right,['e'],1,0.42109679999884975,0.1,0,0,AccAcc,26,18,Woman,Left,
4,4,1,2.567816100001437,['c'],1,left,['e'],1,0.47974539999995613,0.1,1,0,AccAcc,26,18,Woman,Left,
5,4,1,1.233571499999016,['n'],1,right,['u'],0,0.4297077999999601,0.2,0,0,AccAcc,26,18,Woman,Left,
6,4,1,2.76530190000085,['c'],0,right,['u'],0,0.41743700000006356,0.1,1,0,AccAcc,26,18,Woman,Left,
7,4,1,2.485222100000101,['n'],0,left,['u'],0,4.286816300000282,0.2,1,0,AccAcc,26,18,Woman,Left,
8,4,1,2.200866199998927,['n'],1,right,['e'],1,0.4944308000012825,0.1,1,0,AccAcc,26,18,Woman,Left,
9,4,1,1.8178222999995342,['c'],0,right,['u'],0,1.6047252999997,0.2,1,0,AccAcc,26,18,Woman,Left,
10,4,1,2.8324124999999185,['n'],0,left,['u'],0,0.5033535999991727,0.2,1,0,AccAcc,26,18,Woman,Left,
11,4,1,2.3000967999996647,['c'],1,left,['e'],1,0.4576056999994762,0.2,1,0,AccAcc,26,18,Woman,Left,
12,4,1,3.067734299998847,['n'],1,right,['u'],0,0.8147529999987455,0.1,0,0,AccAcc,26,18,Woman,Left,
13,4,1,1.1995659000003798,['n'],1,right,['e'],1,0.5451282000012725,0.4,1,0,AccAcc,26,18,Woman,Left,
14,4,1,3.834177099999579,['n'],1,right,['e'],1,0.5169937999999092,0.2,1,0,AccAcc,26,18,Woman,Left,
15,4,1,3.2836786000007123,['n'],1,right,['u'],0,0.43123129999912635,0.4,0,0,AccAcc,26,18,Woman,Left,
16,4,1,1.5675718000002234,['c'],1,left,['e'],1,0.48151340000003984,0.4,1,0,AccAcc,26,18,Woman,Left,
17,4,1,1.5515305000008084,['c'],1,left,['e'],1,0.4507666000008612,0.2,1,0,AccAcc,26,18,Woman,Left,
18,4,1,3.217475400000694,['n'],0,left,['u'],0,0.5466660000001866,0.4,1,0,AccAcc,26,18,Woman,Left,
19,4,1,3.41725199999928,['c'],1,left,['u'],0,0.7107567000002746,0.1,0,0,AccAcc,26,18,Woman,Left,
20,4,1,3.533419100000174,['n'],0,left,['u'],0,0.33669170000030135,0.4,1,0,AccAcc,26,18,Woman,Left,
21,4,1,5.015923599999951,x,-99,right,none,-99,-99,0.4,-99,1,AccAcc,26,18,Woman,Left,
22,4,1,1.0006209000002855,['c'],1,left,['u'],0,0.2952867999993032,0.2,0,0,AccAcc,26,18,Woman,Left,
23,4,1,1.5330601000005117,['n'],1,right,['e'],1,0.48061840000082157,0.4,1,0,AccAcc,26,18,Woman,Left,
24,4,1,4.465730199999598,['c'],1,left,['u'],0,0.5252443999997922,0.4,0,0,AccAcc,26,18,Woman,Left,
25,4,1,1.2493830000003072,['c'],1,left,['u'],0,0.36184789999970235,0.4,0,0,AccAcc,26,18,Woman,Left,
26,4,1,1.082332399999359,['c'],1,left,['e'],1,0.4356815999999526,0.4,1,0,AccAcc,26,18,Woman,Left,
27,4,1,1.2186335000005784,['n'],1,right,['e'],1,0.7864974000003713,0.4,1,0,AccAcc,26,18,Woman,Left,
28,4,1,3.282857599999261,['c'],1,left,['u'],0,0.7546559999991587,0.2,0,0,AccAcc,26,18,Woman,Left,
29,4,1,5.015511600000536,x,-99,right,none,-99,-99,0.2,-99,1,AccAcc,26,18,Woman,Left,
30,4,1,0.5188392999989446,['c'],1,left,['u'],0,0.49398110000038287,0.2,0,0,AccAcc,26,18,Woman,Left,
31,4,1,1.0173568000009254,['c'],1,left,['u'],0,0.30828920000021753,0.2,0,0,AccAcc,26,18,Woman,Left,
32,4,1,1.5499169000013353,['c'],1,left,['u'],0,0.26870879999842145,0.2,0,0,AccAcc,26,18,Woman,Left,
33,4,1,1.0995202000012796,['c'],1,left,['u'],0,0.31241880000015954,0.4,0,0,AccAcc,26,18,Woman,Left,
34,4,1,2.2175341000001936,['n'],1,right,['u'],0,0.6448693000002095,0.4,0,0,AccAcc,26,18,Woman,Left,
35,4,1,1.4011368999999831,['c'],0,right,['u'],0,0.29358680000041204,0.2,1,0,AccAcc,26,18,Woman,Left,
36,4,1,0.4166848000004393,['n'],0,left,['e'],1,0.31691680000039923,0.4,0,0,AccAcc,26,18,Woman,Left,
37,4,1,0.782738399999289,['c'],0,right,['u'],0,0.30731589999959397,0.1,1,0,AccAcc,26,18,Woman,Left,
38,4,1,0.7671790000003966,['n'],1,right,['e'],1,0.31448439999985567,0.2,1,0,AccAcc,26,18,Woman,Left,
39,4,1,0.9165923000000475,['n'],0,left,['u'],0,0.3799483999991935,0.4,1,0,AccAcc,26,18,Woman,Left,
40,4,1,0.8513954999998532,['c'],0,right,['e'],1,0.396412699999928,0.2,0,0,AccAcc,26,18,Woman,Left,
41,4,1,0.48319439999977476,['n'],1,right,['u'],0,0.33133189999898605,0.1,0,0,AccAcc,26,18,Woman,Left,
42,4,1,0.5504165999991528,['c'],0,right,['e'],1,0.41082009999990987,0.1,0,0,AccAcc,26,18,Woman,Left,
43,4,1,0.35073080000074697,['n'],1,right,['u'],0,0.36648559999957797,0.1,0,0,AccAcc,26,18,Woman,Left,
44,4,1,1.4326889999993,['c'],0,right,['e'],1,0.42475369999920076,0.1,0,0,AccAcc,26,18,Woman,Left,
45,4,1,0.6669056000009732,['n'],0,left,['u'],0,0.36800210000001243,0.2,1,0,AccAcc,26,18,Woman,Left,
46,4,1,0.5844744000005448,['c'],0,right,['e'],1,0.36345580000124755,0.1,0,0,AccAcc,26,18,Woman,Left,
47,4,1,1.2506861999991088,['c'],1,left,['e'],1,0.34938969999893743,0.4,1,0,AccAcc,26,18,Woman,Left,
48,4,1,2.51517849999982,['c'],0,right,['e'],1,0.41452940000090166,0.4,0,0,AccAcc,26,18,Woman,Left,
49,4,1,2.6170996999990166,['c'],1,left,['e'],1,0.2796742999998969,0.1,1,0,AccAcc,26,18,Woman,Left,
50,4,1,1.5160029000016948,['n'],1,right,['u'],0,0.3056661000009626,0.4,0,0,AccAcc,26,18,Woman,Left,
51,4,1,1.5678607000008924,['n'],1,right,['u'],0,0.34452280000004976,0.1,0,0,AccAcc,26,18,Woman,Left,
52,4,1,0.9840777000008529,['c'],0,right,['e'],1,0.4228509999993548,0.1,0,0,AccAcc,26,18,Woman,Left,
53,4,1,0.6170607000003656,['n'],0,left,['u'],0,0.3844270999998116,0.1,1,0,AccAcc,26,18,Woman,Left,
54,4,1,0.40175189999899885,['c'],0,right,['e'],1,0.35413469999912195,0.1,0,0,AccAcc,26,18,Woman,Left,
55,4,1,1.315764400000262,['c'],1,left,['e'],1,0.3231718000006367,0.2,1,0,AccAcc,26,18,Woman,Left,
56,4,1,0.7168700000001991,['n'],1,right,['u'],0,0.2996937000007165,0.2,0,0,AccAcc,26,18,Woman,Left,
57,4,1,0.4661447999988013,['c'],1,left,['e'],1,0.33573320000141393,0.4,1,0,AccAcc,26,18,Woman,Left,
58,4,1,3.600172200000088,['n'],0,left,['u'],0,0.2597991999991791,0.1,1,0,AccAcc,26,18,Woman,Left,
59,4,1,1.4012759999986883,['n'],1,right,['u'],0,0.309520099999645,0.1,0,0,AccAcc,26,18,Woman,Left,
0,5,1,2.6344005999999354,['c'],1,left,['e'],1,3.027740500001528,0.2,1,0,FastAcc,26,18,Woman,Left,
1,5,1,0.6844517000008636,['n'],1,right,['u'],0,1.0904276000001119,0.2,0,0,FastAcc,26,18,Woman,Left,
2,5,1,0.8327645999997912,['c'],0,right,['e'],1,0.6004920000013954,0.1,0,0,FastAcc,26,18,Woman,Left,
3,5,1,0.7515366999996331,['n'],1,right,['u'],0,0.48487569999997504,0.1,0,0,FastAcc,26,18,Woman,Left,
4,5,1,2.7001854999998613,['c'],0,right,['u'],0,2.039595099999133,0.1,1,0,FastAcc,26,18,Woman,Left,
5,5,1,2.5496891000002506,['n'],1,right,['u'],0,0.355846800001018,0.1,0,0,FastAcc,26,18,Woman,Left,
6,5,1,1.1510555000004388,['c'],1,left,['e'],1,0.3615380000010191,0.2,1,0,FastAcc,26,18,Woman,Left,
7,5,1,0.849255399998583,['c'],0,right,['e'],1,0.3964758999991318,0.2,0,0,FastAcc,26,18,Woman,Left,
8,5,1,0.6847935999994661,['c'],1,left,['e'],1,0.22632209999937913,0.1,1,0,FastAcc,26,18,Woman,Left,
9,5,1,0.6669775999998819,['c'],0,right,['e'],1,0.33728359999986424,0.4,0,0,FastAcc,26,18,Woman,Left,
10,5,1,0.5166077000012592,['n'],1,right,['u'],0,0.32214159999966796,0.2,0,0,FastAcc,26,18,Woman,Left,
11,5,1,1.015978699999323,['n'],0,left,['u'],0,0.30370439999933296,0.2,1,0,FastAcc,26,18,Woman,Left,
12,5,1,1.1183856000006926,['c'],0,right,['e'],1,0.29601720000027854,0.2,0,0,FastAcc,26,18,Woman,Left,
13,5,1,0.8007077999991452,['c'],1,left,['e'],1,0.2704465999995591,0.1,1,0,FastAcc,26,18,Woman,Left,
14,5,1,0.6676633000006404,['c'],1,left,['e'],1,0.5234431999997469,0.1,1,0,FastAcc,26,18,Woman,Left,
15,5,1,0.7011605999996391,['c'],1,left,['e'],1,0.2689380000010715,0.2,1,0,FastAcc,26,18,Woman,Left,
16,5,1,1.3832541000010679,['n'],1,right,['u'],0,0.43016520000128367,0.4,0,0,FastAcc,26,18,Woman,Left,
17,5,1,0.9993782000001374,['c'],1,left,['u'],0,0.5838430999992852,0.4,0,0,FastAcc,26,18,Woman,Left,
18,5,1,1.8170914000002085,['c'],0,right,['e'],1,0.4570715999998356,0.1,0,0,FastAcc,26,18,Woman,Left,
19,5,1,0.7510736999993242,['n'],1,right,['u'],0,0.33146920000035607,0.4,0,0,FastAcc,26,18,Woman,Left,
20,5,1,0.8840915000000678,['c'],0,right,['e'],1,0.3331277000015689,0.4,0,0,FastAcc,26,18,Woman,Left,
21,5,1,2.201410900001065,['n'],1,right,['u'],0,2.2180551000001287,0.1,0,0,FastAcc,26,18,Woman,Left,
22,5,1,1.8331604999984847,['n'],1,right,['u'],0,0.3788463999990199,0.2,0,0,FastAcc,26,18,Woman,Left,
23,5,1,1.183440699998755,['n'],1,right,['u'],0,0.3831187999985559,0.2,0,0,FastAcc,26,18,Woman,Left,
24,5,1,1.6990607000007003,['n'],1,right,['u'],0,0.28581750000012107,0.1,0,0,FastAcc,26,18,Woman,Left,
25,5,1,1.017507000000478,['c'],1,left,['u'],0,0.3803278000013961,0.4,0,0,FastAcc,26,18,Woman,Left,
26,5,1,0.8844105000007403,['c'],1,left,['e'],1,0.3004621000000043,0.4,1,0,FastAcc,26,18,Woman,Left,
27,5,1,1.3822950999983732,['n'],0,left,['u'],0,0.37931509999907576,0.1,1,0,FastAcc,26,18,Woman,Left,
28,5,1,0.6173509000000195,['c'],0,right,['e'],1,0.3088707999995677,0.1,0,0,FastAcc,26,18,Woman,Left,
29,5,1,1.1004735000005894,['n'],0,left,['u'],0,0.28734540000004927,0.2,1,0,FastAcc,26,18,Woman,Left,
30,5,1,0.6832474000002549,['n'],1,right,['e'],1,0.44396120000055816,0.4,1,0,FastAcc,26,18,Woman,Left,
31,5,1,1.0347213999993983,['c'],1,left,['e'],1,0.27583769999910146,0.4,1,0,FastAcc,26,18,Woman,Left,
32,5,1,1.9015641000005417,['c'],1,left,['e'],1,0.3184235999997327,0.4,1,0,FastAcc,26,18,Woman,Left,
33,5,1,0.9155501000004733,['n'],0,left,['u'],0,0.3050178000012238,0.1,1,0,FastAcc,26,18,Woman,Left,
34,5,1,0.7343987000003835,['c'],1,left,['e'],1,0.3285668999997142,0.4,1,0,FastAcc,26,18,Woman,Left,
35,5,1,0.7838438999988284,['c'],1,left,['e'],1,0.35085029999936523,0.4,1,0,FastAcc,26,18,Woman,Left,
36,5,1,1.0177779000005103,['n'],1,right,['e'],1,0.4098806000001787,0.2,1,0,FastAcc,26,18,Woman,Left,
37,5,1,1.1354361000012432,['n'],1,right,['e'],1,0.36691160000009404,0.2,1,0,FastAcc,26,18,Woman,Left,
38,5,1,0.9683365000000776,['c'],1,left,['e'],1,0.36418940000112343,0.1,1,0,FastAcc,26,18,Woman,Left,
39,5,1,1.9666483999990305,['n'],0,left,['u'],0,0.7209066999985225,0.1,1,0,FastAcc,26,18,Woman,Left,
40,5,1,0.6835054000002856,['c'],1,left,['e'],1,0.38012410000010277,0.4,1,0,FastAcc,26,18,Woman,Left,
41,5,1,0.7502205000000686,['c'],1,left,['e'],1,0.35233400000106485,0.4,1,0,FastAcc,26,18,Woman,Left,
42,5,1,0.7499277000006259,['n'],1,right,['u'],0,0.5354774999996152,0.2,0,0,FastAcc,26,18,Woman,Left,
43,5,1,5.016660900000716,x,-99,right,none,-99,-99,0.4,-99,1,FastAcc,26,18,Woman,Left,
44,5,1,0.7997742000006838,['c'],0,right,['e'],1,0.2545549000005849,0.2,0,0,FastAcc,26,18,Woman,Left,
45,5,1,1.0013999999991938,['n'],1,right,['u'],0,0.20666460000029474,0.2,0,0,FastAcc,26,18,Woman,Left,
46,5,1,1.0332232999990083,['c'],1,left,['e'],1,0.3355783999995765,0.4,1,0,FastAcc,26,18,Woman,Left,
47,5,1,1.2330505999998422,['n'],1,right,['u'],0,0.4035919999987527,0.4,0,0,FastAcc,26,18,Woman,Left,
48,5,1,0.6844803999993019,['c'],1,left,['e'],1,0.36194570000043313,0.1,1,0,FastAcc,26,18,Woman,Left,
49,5,1,0.7837495999992825,['n'],0,left,['u'],0,0.2870057000000088,0.1,1,0,FastAcc,26,18,Woman,Left,
50,5,1,1.3339427000009891,['c'],0,right,['e'],1,0.40012619999833987,0.4,0,0,FastAcc,26,18,Woman,Left,
51,5,1,1.5165482999982487,['n'],0,left,['u'],0,0.37486140000146406,0.1,1,0,FastAcc,26,18,Woman,Left,
52,5,1,1.0665984999995999,['c'],0,right,['e'],1,0.302853099999993,0.2,0,0,FastAcc,26,18,Woman,Left,
53,5,1,0.45145660000162025,['n'],0,left,['u'],0,0.5803966999992554,0.1,1,0,FastAcc,26,18,Woman,Left,
54,5,1,0.4669646999991528,['c'],1,left,['e'],1,0.36434379999991506,0.4,1,0,FastAcc,26,18,Woman,Left,
55,5,1,0.4174949000007473,['n'],1,right,['u'],0,0.25468720000026224,0.1,0,0,FastAcc,26,18,Woman,Left,
56,5,1,0.668334900001355,['c'],1,left,['e'],1,0.4122779999997874,0.2,1,0,FastAcc,26,18,Woman,Left,
57,5,1,0.45143149999967136,['n'],0,left,['e'],1,0.26810629999999946,0.2,0,0,FastAcc,26,18,Woman,Left,
58,5,1,0.6840818000000581,['n'],1,right,['u'],0,0.31291870000131894,0.4,0,0,FastAcc,26,18,Woman,Left,
59,5,1,0.48497820000011416,['c'],1,left,['e'],1,0.28267529999902763,0.2,1,0,FastAcc,26,18,Woman,Left,
0,6,1,1.0999400000000605,['n'],0,left,['u'],0,0.21322600000166858,0.4,1,0,FastFast,26,18,Woman,Left,
1,6,1,0.5678938000000926,['c'],1,left,['e'],1,0.27936330000011367,0.2,1,0,FastFast,26,18,Woman,Left,
2,6,1,0.3167210999999952,['n'],0,left,['u'],0,0.21041669999976875,0.1,1,0,FastFast,26,18,Woman,Left,
3,6,1,0.3841599999996106,['c'],0,right,['e'],1,0.22060229999988223,0.4,0,0,FastFast,26,18,Woman,Left,
4,6,1,0.3670531999996456,['n'],1,right,['u'],0,0.2639424999997573,0.4,0,0,FastFast,26,18,Woman,Left,
5,6,1,0.3499929000008706,['c'],1,left,['e'],1,0.24114109999936773,0.4,1,0,FastFast,26,18,Woman,Left,
6,6,1,0.3840763000007428,['n'],1,right,['u'],0,0.20266690000062226,0.4,0,0,FastFast,26,18,Woman,Left,
7,6,1,0.5845822999999655,['n'],1,right,['u'],0,0.2224158000008174,0.4,0,0,FastFast,26,18,Woman,Left,
8,6,1,0.33459190000030503,['c'],1,left,['e'],1,0.23403309999957855,0.2,1,0,FastFast,26,18,Woman,Left,
9,6,1,0.4176618999990751,['n'],1,right,['u'],0,0.2741494000001694,0.1,0,0,FastFast,26,18,Woman,Left,
10,6,1,1.8837419999999838,['c'],1,left,['e'],1,0.2227124000000913,0.1,1,0,FastFast,26,18,Woman,Left,
11,6,1,0.9844486999991204,['n'],0,left,['e'],1,0.7529789000000164,0.2,0,0,FastFast,26,18,Woman,Left,
12,6,1,1.4166005000006407,['c'],1,left,['u'],0,0.3490094000007957,0.4,0,0,FastFast,26,18,Woman,Left,
13,6,1,0.9344962000013766,['n'],0,left,['e'],1,0.2836981000000378,0.4,0,0,FastFast,26,18,Woman,Left,
14,6,1,0.9673586000008072,['n'],1,right,['u'],0,0.31656199999997625,0.4,0,0,FastFast,26,18,Woman,Left,
15,6,1,0.7164868999989267,['n'],1,right,['e'],1,0.26099360000080196,0.4,1,0,FastFast,26,18,Woman,Left,
16,6,1,0.601709500000652,['n'],0,left,['u'],0,1.2215073000006669,0.2,1,0,FastFast,26,18,Woman,Left,
17,6,1,0.7506436999992729,['c'],1,left,['e'],1,0.2979606999997486,0.2,1,0,FastFast,26,18,Woman,Left,
18,6,1,0.9170142999992095,['n'],1,right,['u'],0,0.4115424999999959,0.4,0,0,FastFast,26,18,Woman,Left,
19,6,1,0.767781799999284,['n'],1,right,['e'],1,0.27036580000094546,0.4,1,0,FastFast,26,18,Woman,Left,
20,6,1,1.2844908000006399,['c'],0,right,['u'],0,0.2588397999988956,0.2,1,0,FastFast,26,18,Woman,Left,
21,6,1,0.7353075999999419,['c'],0,right,['u'],0,0.23781740000049467,0.4,1,0,FastFast,26,18,Woman,Left,
22,6,1,0.6669404000003851,['c'],1,left,['u'],0,0.22076839999863296,0.2,0,0,FastFast,26,18,Woman,Left,
23,6,1,1.0352501999986998,['c'],0,right,['e'],1,0.33316089999971155,0.4,0,0,FastFast,26,18,Woman,Left,
24,6,1,1.4342230999991443,['c'],0,right,['u'],0,0.20016519999990123,0.1,1,0,FastFast,26,18,Woman,Left,
25,6,1,0.7343779999991966,['c'],1,left,['u'],0,0.197430300000633,0.2,0,0,FastFast,26,18,Woman,Left,
26,6,1,0.9667712000009487,['c'],0,right,['u'],0,0.2975213999998232,0.1,1,0,FastFast,26,18,Woman,Left,
27,6,1,0.5011317999997118,['n'],1,right,['u'],0,0.2670293999999558,0.1,0,0,FastFast,26,18,Woman,Left,
28,6,1,0.38486870000087947,['c'],1,left,['u'],0,0.1952936999987287,0.4,0,0,FastFast,26,18,Woman,Left,
29,6,1,0.36669719999918016,['c'],1,left,['e'],1,0.2720103999999992,0.2,1,0,FastFast,26,18,Woman,Left,
30,6,1,0.7010671000007278,['c'],0,right,['u'],0,0.218891700000313,0.2,1,0,FastFast,26,18,Woman,Left,
31,6,1,0.4999329000002035,['c'],0,right,['e'],1,0.305218600000444,0.2,0,0,FastFast,26,18,Woman,Left,
32,6,1,0.8178931000002194,['c'],0,right,['e'],1,0.6138944999984233,0.2,0,0,FastFast,26,18,Woman,Left,
33,6,1,0.9005051000003732,['c'],1,left,['u'],0,0.3636738000004698,0.1,0,0,FastFast,26,18,Woman,Left,
34,6,1,1.66651020000063,['n'],0,left,['e'],1,0.4455398999998579,0.1,0,0,FastFast,26,18,Woman,Left,
35,6,1,2.6343536999993376,['n'],1,right,['u'],0,2.804797200000394,0.4,0,0,FastFast,26,18,Woman,Left,
36,6,1,2.4843345999997837,['c'],0,right,['u'],0,0.30822509999961767,0.2,1,0,FastFast,26,18,Woman,Left,
37,6,1,0.6334693999997398,['c'],1,left,['e'],1,0.3371855000004871,0.2,1,0,FastFast,26,18,Woman,Left,
38,6,1,0.3172426999990421,['n'],0,left,['u'],0,0.2494124999993801,0.1,1,0,FastFast,26,18,Woman,Left,
39,6,1,0.33335750000151165,['c'],1,left,['e'],1,0.373340800000733,0.1,1,0,FastFast,26,18,Woman,Left,
40,6,1,1.017069100000299,['n'],1,right,['u'],0,0.43134529999952065,0.1,0,0,FastFast,26,18,Woman,Left,
41,6,1,1.0347221000010904,['c'],0,right,['e'],1,0.31186669999988226,0.1,0,0,FastFast,26,18,Woman,Left,
42,6,1,0.1350877999993827,['n'],0,left,['u'],0,0.35998490000019956,0.1,1,0,FastFast,26,18,Woman,Left,
43,6,1,0.3516749999998865,['c'],1,left,['e'],1,0.3342377999997552,0.1,1,0,FastFast,26,18,Woman,Left,
44,6,1,0.9344876000013755,['n'],1,right,['u'],0,0.2857561999990139,0.2,0,0,FastFast,26,18,Woman,Left,
45,6,1,0.35168119999980263,['n'],0,left,['u'],0,0.34358940000129223,0.1,1,0,FastFast,26,18,Woman,Left,
46,6,1,1.3337002999996912,['c'],1,left,['u'],0,0.43857240000033926,0.2,0,0,FastFast,26,18,Woman,Left,
47,6,1,0.5341611999992892,['c'],1,left,['u'],0,0.37012399999912304,0.4,0,0,FastFast,26,18,Woman,Left,
48,6,1,0.38483610000002955,['c'],0,right,['u'],0,0.42234390000157873,0.1,1,0,FastFast,26,18,Woman,Left,
49,6,1,0.2848446000007243,['n'],0,left,['e'],1,0.31672880000041914,0.2,0,0,FastFast,26,18,Woman,Left,
50,6,1,0.36694169999827864,['c'],0,right,['u'],0,0.2920400000002701,0.4,1,0,FastFast,26,18,Woman,Left,
51,6,1,2.717223700001341,['n'],0,left,['u'],0,0.38297570000031556,0.4,1,0,FastFast,26,18,Woman,Left,
52,6,1,0.28388919999997597,['n'],0,left,['e'],1,0.32656689999930677,0.1,0,0,FastFast,26,18,Woman,Left,
53,6,1,0.18420730000070762,['n'],1,right,['e'],1,1.04405399999996,0.1,1,0,FastFast,26,18,Woman,Left,
54,6,1,1.4496241999986523,['c'],0,right,['u'],0,0.62860179999916,0.2,1,0,FastFast,26,18,Woman,Left,
55,6,1,0.317511100000047,['c'],0,right,['u'],0,0.33623719999923196,0.2,1,0,FastFast,26,18,Woman,Left,
56,6,1,0.8349541000006866,['c'],1,left,['u'],0,0.2279171000009228,0.4,0,0,FastFast,26,18,Woman,Left,
57,6,1,0.3832758999997168,['c'],0,right,['u'],0,0.27033119999941846,0.1,1,0,FastFast,26,18,Woman,Left,
58,6,1,0.400744599999598,['c'],0,right,['u'],0,0.214396499999566,0.2,1,0,FastFast,26,18,Woman,Left,
59,6,1,0.20105250000051456,['c'],1,left,['u'],0,0.21585899999990943,0.1,0,0,FastFast,26,18,Woman,Left,
0,7,1,1.5003586999991967,['n'],0,left,['u'],0,0.3295859999998356,0.2,1,0,AccFast,26,18,Woman,Left,
1,7,1,0.31746709999970335,['c'],0,right,['u'],0,0.2265532000001258,0.2,1,0,AccFast,26,18,Woman,Left,
2,7,1,0.33467230000132986,['c'],0,right,['u'],0,0.23808590000044205,0.1,1,0,AccFast,26,18,Woman,Left,
3,7,1,0.2499864000001253,['n'],0,left,['e'],1,0.25358179999966524,0.2,0,0,AccFast,26,18,Woman,Left,
4,7,1,1.7338479000009102,['c'],1,left,['u'],0,0.3040314000008948,0.4,0,0,AccFast,26,18,Woman,Left,
5,7,1,1.7183297999999922,['n'],1,right,['u'],0,3.361686100000952,0.4,0,0,AccFast,26,18,Woman,Left,
6,7,1,0.38375919999998587,['n'],1,right,['u'],0,0.33455249999860825,0.4,0,0,AccFast,26,18,Woman,Left,
7,7,1,0.4178615999990143,['c'],0,right,['e'],1,0.307038900000407,0.4,0,0,AccFast,26,18,Woman,Left,
8,7,1,0.3182850999983202,['n'],0,left,['u'],0,0.30124010000145063,0.1,1,0,AccFast,26,18,Woman,Left,
9,7,1,0.33493320000161475,['c'],0,right,['u'],0,0.27717959999972663,0.4,1,0,AccFast,26,18,Woman,Left,
10,7,1,0.21794149999914225,['c'],1,left,['u'],0,0.3401965000011842,0.2,0,0,AccFast,26,18,Woman,Left,
11,7,1,0.01719780000166793,['n'],0,left,['e'],1,0.32822140000098443,0.1,0,0,AccFast,26,18,Woman,Left,
12,7,1,0.2513373000001593,['n'],1,right,['u'],0,0.3233239999990474,0.2,0,0,AccFast,26,18,Woman,Left,
13,7,1,0.6505121999998664,['c'],1,left,['u'],0,0.3517260000007809,0.1,0,0,AccFast,26,18,Woman,Left,
14,7,1,0.4333338999986154,['n'],1,right,['u'],0,0.4507990999991307,0.4,0,0,AccFast,26,18,Woman,Left,
15,7,1,0.8507365999994363,['c'],0,right,['u'],0,0.33606499999950756,0.4,1,0,AccFast,26,18,Woman,Left,
16,7,1,0.8010412999992695,['n'],0,left,['e'],1,0.37341209999976854,0.1,0,0,AccFast,26,18,Woman,Left,
17,7,1,0.8157045000007201,['n'],1,right,['u'],0,0.4251776000000973,0.1,0,0,AccFast,26,18,Woman,Left,
18,7,1,0.7496042999991914,['c'],1,left,['u'],0,0.46128049999970244,0.4,0,0,AccFast,26,18,Woman,Left,
19,7,1,0.18520840000019234,['n'],1,right,['e'],1,0.37282370000139053,0.4,1,0,AccFast,26,18,Woman,Left,
20,7,1,0.2685266999997111,['n'],1,right,['u'],0,0.3496431000003213,0.1,0,0,AccFast,26,18,Woman,Left,
21,7,1,1.0345868000003975,['c'],1,left,['u'],0,0.3131039999989298,0.2,0,0,AccFast,26,18,Woman,Left,
22,7,1,0.06776720000016212,['n'],1,right,['u'],0,0.39572380000026897,0.2,0,0,AccFast,26,18,Woman,Left,
23,7,1,1.3490444000017305,['c'],0,right,['u'],0,0.36101289999896835,0.4,1,0,AccFast,26,18,Woman,Left,
24,7,1,0.3184204999997746,['n'],1,right,['e'],1,0.36774160000095435,0.4,1,0,AccFast,26,18,Woman,Left,
25,7,1,0.41797390000101586,['c'],1,left,['u'],0,0.33891550000043935,0.2,0,0,AccFast,26,18,Woman,Left,
26,7,1,0.38499810000030266,['n'],1,right,['e'],1,0.3928830000004382,0.2,1,0,AccFast,26,18,Woman,Left,
27,7,1,0.3335014999993291,['c'],1,left,['u'],0,0.3186033999991196,0.2,0,0,AccFast,26,18,Woman,Left,
28,7,1,0.016601799999989453,['n'],0,left,['e'],1,0.7080660999999964,0.2,0,0,AccFast,26,18,Woman,Left,
29,7,1,0.30199499999980617,['n'],0,left,['e'],1,0.34901150000041525,0.4,0,0,AccFast,26,18,Woman,Left,
30,7,1,0.8496116000005713,['n'],1,right,['e'],1,0.43275229999926523,0.1,1,0,AccFast,26,18,Woman,Left,
31,7,1,0.617755400000533,['c'],1,left,['u'],0,0.3755661000013788,0.4,0,0,AccFast,26,18,Woman,Left,
32,7,1,0.265600099999574,['n'],0,left,['e'],1,0.354059999999663,0.4,0,0,AccFast,26,18,Woman,Left,
33,7,1,0.33566090000022086,['n'],1,right,['e'],1,0.35946809999950347,0.1,1,0,AccFast,26,18,Woman,Left,
34,7,1,0.24999729999944975,['n'],0,left,['e'],1,0.32259200000044075,0.2,0,0,AccFast,26,18,Woman,Left,
35,7,1,1.5841103999991901,['n'],0,left,['u'],0,6.088384599999699,0.4,1,0,AccFast,26,18,Woman,Left,
36,7,1,0.383308999998917,['n'],0,left,['e'],1,0.7932531000005838,0.4,0,0,AccFast,26,18,Woman,Left,
37,7,1,0.40126909999889904,['n'],1,right,['u'],0,0.37960299999940617,0.2,0,0,AccFast,26,18,Woman,Left,
38,7,1,0.4327620999993087,['n'],1,right,['u'],0,0.43033350000041537,0.2,0,0,AccFast,26,18,Woman,Left,
39,7,1,0.316145000000688,['n'],1,right,['u'],0,0.40278330000001006,0.2,0,0,AccFast,26,18,Woman,Left,
40,7,1,0.33306769999944663,['n'],1,right,['e'],1,0.279705400000239,0.2,1,0,AccFast,26,18,Woman,Left,
41,7,1,0.3662504000003537,['n'],0,left,['u'],0,0.3991478999996616,0.4,1,0,AccFast,26,18,Woman,Left,
42,7,1,0.702306099999987,['n'],0,left,['u'],0,0.3743415000008099,0.1,1,0,AccFast,26,18,Woman,Left,
43,7,1,1.0653899000008096,['c'],1,left,['e'],1,0.43153870000060124,0.2,1,0,AccFast,26,18,Woman,Left,
44,7,1,1.1998482999988482,['n'],1,right,['u'],0,0.3844584999988001,0.2,0,0,AccFast,26,18,Woman,Left,
45,7,1,0.45123210000019753,['c'],1,left,['u'],0,0.3041625000005297,0.4,0,0,AccFast,26,18,Woman,Left,
46,7,1,0.9822205000000395,['c'],1,left,['u'],0,0.40026600000055623,0.1,0,0,AccFast,26,18,Woman,Left,
47,7,1,0.4162448000006407,['n'],0,left,['u'],0,0.4021532999995543,0.1,1,0,AccFast,26,18,Woman,Left,
48,7,1,0.46777880000081495,['c'],1,left,['u'],0,0.3523125000010623,0.4,0,0,AccFast,26,18,Woman,Left,
49,7,1,0.4168386000001192,['n'],1,right,['u'],0,0.3882661999996344,0.1,0,0,AccFast,26,18,Woman,Left,
50,7,1,0.5507293999999092,['c'],0,right,['u'],0,0.4010223000004771,0.1,1,0,AccFast,26,18,Woman,Left,
51,7,1,0.31617259999984526,['n'],1,right,['u'],0,0.3106091000008746,0.1,0,0,AccFast,26,18,Woman,Left,
52,7,1,0.3675559000002977,['c'],1,left,['e'],1,0.43004610000025423,0.2,1,0,AccFast,26,18,Woman,Left,
53,7,1,0.5338239999982761,['n'],0,left,['e'],1,0.24972190000153205,0.1,0,0,AccFast,26,18,Woman,Left,
54,7,1,0.41789170000083686,['c'],0,right,['u'],0,0.3214170999999624,0.1,1,0,AccFast,26,18,Woman,Left,
55,7,1,0.3516001000007236,['c'],0,right,['u'],0,0.28072059999976773,0.1,1,0,AccFast,26,18,Woman,Left,
56,7,1,0.33509179999964545,['c'],0,right,['e'],1,0.3393855000012991,0.2,0,0,AccFast,26,18,Woman,Left,
57,7,1,0.2675679999993008,['n'],0,left,['e'],1,0.2686321000001044,0.4,0,0,AccFast,26,18,Woman,Left,
58,7,1,0.48468229999889445,['c'],1,left,['u'],0,0.2569500000008702,0.1,0,0,AccFast,26,18,Woman,Left,
59,7,1,0.20127710000087973,['n'],1,right,['e'],1,0.3053024999990157,0.1,1,0,AccFast,26,18,Woman,Left,
0,8,1,0.5670801000014762,['n'],0,left,['u'],0,0.20910530000037397,0.4,1,0,AccAcc,26,18,Woman,Left,
1,8,1,0.4847035999991931,['n'],1,right,['u'],0,0.5200545000006969,0.1,0,0,AccAcc,26,18,Woman,Left,
2,8,1,0.3676968999989185,['c'],1,left,['e'],1,0.29436319999877014,0.2,1,0,AccAcc,26,18,Woman,Left,
3,8,1,0.3167943999997078,['n'],0,left,['e'],1,0.24044900000080816,0.2,0,0,AccAcc,26,18,Woman,Left,
4,8,1,0.28472379999948316,['c'],1,left,['u'],0,0.20610859999942477,0.1,0,0,AccAcc,26,18,Woman,Left,
5,8,1,0.18459430000075372,['n'],0,left,['e'],1,0.22528849999980594,0.1,0,0,AccAcc,26,18,Woman,Left,
6,8,1,0.38484410000091884,['c'],1,left,['u'],0,0.1709874000007403,0.2,0,0,AccAcc,26,18,Woman,Left,
7,8,1,0.8178854999987379,['n'],0,left,['e'],1,0.23008520000075805,0.4,0,0,AccAcc,26,18,Woman,Left,
8,8,1,0.3512301999999181,['n'],0,left,['e'],1,0.3056120999990526,0.1,0,0,AccAcc,26,18,Woman,Left,
9,8,1,0.8499265999998897,['c'],0,right,['u'],0,0.30945539999993343,0.1,1,0,AccAcc,26,18,Woman,Left,
10,8,1,0.33459709999988263,['c'],0,right,['u'],0,0.22243989999878977,0.2,1,0,AccAcc,26,18,Woman,Left,
11,8,1,0.3010675999994419,['n'],0,left,['e'],1,0.20402219999959925,0.1,0,0,AccAcc,26,18,Woman,Left,
12,8,1,0.784539300000688,['c'],0,right,['e'],1,0.8069356999985757,0.2,0,0,AccAcc,26,18,Woman,Left,
13,8,1,0.3010095999998157,['n'],0,left,['e'],1,0.2532015000015235,0.2,0,0,AccAcc,26,18,Woman,Left,
14,8,1,0.5006935000001249,['c'],0,right,['u'],0,0.3374796999996761,0.4,1,0,AccAcc,26,18,Woman,Left,
15,8,1,0.7347799999988638,['n'],0,left,['e'],1,0.3131377000008797,0.2,0,0,AccAcc,26,18,Woman,Left,
16,8,1,0.21801830000003974,['n'],1,right,['e'],1,0.2621030999998766,0.4,1,0,AccAcc,26,18,Woman,Left,
17,8,1,0.31816230000004,['c'],1,left,['u'],0,0.2249651999991329,0.1,0,0,AccAcc,26,18,Woman,Left,
18,8,1,0.40220289999888337,['n'],0,left,['e'],1,0.6507082000007358,0.2,0,0,AccAcc,26,18,Woman,Left,
19,8,1,0.49994819999847095,['c'],1,left,['u'],0,0.2712088999996922,0.1,0,0,AccAcc,26,18,Woman,Left,
20,8,1,0.2680906000005052,['n'],1,right,['e'],1,0.31565759999830334,0.2,1,0,AccAcc,26,18,Woman,Left,
21,8,1,0.38483349999842176,['c'],1,left,['u'],0,0.19398790000013832,0.2,0,0,AccAcc,26,18,Woman,Left,
22,8,1,0.33534380000128294,['n'],0,left,['u'],0,0.23966639999889594,0.2,1,0,AccAcc,26,18,Woman,Left,
23,8,1,0.11872199999925215,['n'],1,right,['e'],1,0.1638956999995571,0.4,1,0,AccAcc,26,18,Woman,Left,
24,8,1,0.35152890000063053,['c'],1,left,['u'],0,0.1934813000007125,0.2,0,0,AccAcc,26,18,Woman,Left,
25,8,1,0.7511256000016147,['n'],1,right,['e'],1,0.3514422000007471,0.4,1,0,AccAcc,26,18,Woman,Left,
26,8,1,0.3846524999989924,['c'],0,right,['u'],0,0.1953216000001703,0.4,1,0,AccAcc,26,18,Woman,Left,
27,8,1,0.41734510000060254,['n'],1,right,['u'],0,0.3809553000010055,0.2,0,0,AccAcc,26,18,Woman,Left,
28,8,1,0.5511602999995375,['c'],0,right,['e'],1,0.313958000000639,0.1,0,0,AccAcc,26,18,Woman,Left,
29,8,1,0.6678460000002815,['c'],0,right,['e'],1,0.24498270000003686,0.4,0,0,AccAcc,26,18,Woman,Left,
30,8,1,0.30157449999933306,['n'],0,left,['u'],0,0.241142699998818,0.4,1,0,AccAcc,26,18,Woman,Left,
31,8,1,0.3846410999994987,['n'],0,left,['e'],1,0.219160999999076,0.4,0,0,AccAcc,26,18,Woman,Left,
32,8,1,0.30115920000025653,['c'],0,right,['u'],0,0.2648161999986769,0.4,1,0,AccAcc,26,18,Woman,Left,
33,8,1,0.06802369999968505,['n'],1,right,['e'],1,0.26960870000038994,0.1,1,0,AccAcc,26,18,Woman,Left,
34,8,1,0.1175122000004194,['c'],0,right,['u'],0,0.1764826999988145,0.1,1,0,AccAcc,26,18,Woman,Left,
35,8,1,0.18452030000116793,['n'],0,left,['e'],1,0.14847350000127335,0.4,0,0,AccAcc,26,18,Woman,Left,
36,8,1,0.08390340000005381,['c'],1,left,['u'],0,0.23748859999977867,0.1,0,0,AccAcc,26,18,Woman,Left,
37,8,1,0.7177243999994971,['n'],0,left,['e'],1,0.40993649999836634,0.4,0,0,AccAcc,26,18,Woman,Left,
38,8,1,0.4825624000004609,['c'],1,left,['u'],0,0.20185400000082154,0.2,0,0,AccAcc,26,18,Woman,Left,
39,8,1,0.5495528000010381,['n'],0,left,['e'],1,0.4143019999992248,0.4,0,0,AccAcc,26,18,Woman,Left,
40,8,1,0.33431800000107614,['c'],1,left,['u'],0,0.2893530000001192,0.4,0,0,AccAcc,26,18,Woman,Left,
41,8,1,0.5516385999999329,['n'],0,left,['e'],1,0.35415479999937816,0.1,0,0,AccAcc,26,18,Woman,Left,
42,8,1,0.4183904999990773,['c'],0,right,['u'],0,0.2297017999990203,0.1,1,0,AccAcc,26,18,Woman,Left,
43,8,1,0.20153969999955734,['n'],1,right,['e'],1,0.4226355999999214,0.1,1,0,AccAcc,26,18,Woman,Left,
44,8,1,0.015892999999778112,['c'],1,left,['u'],0,0.2489160000004631,0.2,0,0,AccAcc,26,18,Woman,Left,
45,8,1,0.5348405999993702,['n'],1,right,['e'],1,0.2666021000004548,0.1,1,0,AccAcc,26,18,Woman,Left,
46,8,1,0.8825649000009435,['c'],0,right,['u'],0,0.3200632999996742,0.4,1,0,AccAcc,26,18,Woman,Left,
47,8,1,0.25131560000045283,['n'],0,left,['e'],1,0.3625238000004174,0.2,0,0,AccAcc,26,18,Woman,Left,
48,8,1,0.33375469999919005,['c'],0,right,['u'],0,0.22460920000048645,0.4,1,0,AccAcc,26,18,Woman,Left,
49,8,1,0.23507339999923715,['n'],1,right,['u'],0,0.2728999000009935,0.4,0,0,AccAcc,26,18,Woman,Left,
50,8,1,0.3846243999996659,['c'],0,right,['u'],0,0.2171779999989667,0.1,1,0,AccAcc,26,18,Woman,Left,
51,8,1,0.5177982000004704,['n'],1,right,['e'],1,0.36601300000074843,0.1,1,0,AccAcc,26,18,Woman,Left,
52,8,1,0.13511230000040086,['c'],0,right,['u'],0,0.20434329999989131,0.2,1,0,AccAcc,26,18,Woman,Left,
53,8,1,0.7344102999995812,['n'],0,left,['e'],1,0.34543140000096173,0.4,0,0,AccAcc,26,18,Woman,Left,
54,8,1,1.5670706000000791,['c'],0,right,['u'],0,0.2870634999999311,0.2,1,0,AccAcc,26,18,Woman,Left,
55,8,1,0.31792830000085814,['n'],1,right,['u'],0,0.329257499999585,0.1,0,0,AccAcc,26,18,Woman,Left,
56,8,1,0.4344234000000142,['n'],1,right,['u'],0,0.23697590000119817,0.2,0,0,AccAcc,26,18,Woman,Left,
57,8,1,0.2512339000004431,['n'],0,left,['e'],1,0.2518782999995892,0.4,0,0,AccAcc,26,18,Woman,Left,
58,8,1,0.4010403000011138,['c'],0,right,['u'],0,0.22817829999985406,0.1,1,0,AccAcc,26,18,Woman,Left,
59,8,1,0.38491160000012314,['c'],0,right,['u'],0,0.17416070000035688,0.2,1,0,AccAcc,26,18,Woman,Left,
0,9,1,1.2674874999993335,['n'],1,right,['u'],0,0.139189700001225,0.2,0,0,FastAcc,26,18,Woman,Left,
1,9,1,0.30168290000074194,['n'],0,left,['u'],0,0.21982430000025488,0.2,1,0,FastAcc,26,18,Woman,Left,
2,9,1,0.3005068999991636,['n'],1,right,['e'],1,0.20134809999944991,0.1,1,0,FastAcc,26,18,Woman,Left,
3,9,1,1.0667171999994025,['c'],1,left,['u'],0,0.2172725000000355,0.2,0,0,FastAcc,26,18,Woman,Left,
4,9,1,0.41824260000066715,['n'],0,left,['e'],1,0.24235269999917364,0.2,0,0,FastAcc,26,18,Woman,Left,
5,9,1,0.3172591000002285,['c'],0,right,['u'],0,0.19057449999854725,0.1,1,0,FastAcc,26,18,Woman,Left,
6,9,1,0.18468720000055328,['n'],0,left,['e'],1,0.2422409000009793,0.4,0,0,FastAcc,26,18,Woman,Left,
7,9,1,0.300818600000639,['n'],1,right,['e'],1,0.22317219999968074,0.4,1,0,FastAcc,26,18,Woman,Left,
8,9,1,0.33389080000051763,['c'],1,left,['u'],0,0.043205699999816716,0.2,0,0,FastAcc,26,18,Woman,Left,
9,9,1,0.8009308999990026,['n'],1,right,['e'],1,0.12401769999996759,0.4,1,0,FastAcc,26,18,Woman,Left,
10,9,1,1.2010654999994586,['c'],1,left,['u'],0,0.13775689999965834,0.4,0,0,FastAcc,26,18,Woman,Left,
11,9,1,0.7675386000009894,['n'],1,right,['e'],1,0.5842886999998882,0.2,1,0,FastAcc,26,18,Woman,Left,
12,9,1,0.38433859999895503,['c'],0,right,['u'],0,0.259650200001488,0.1,1,0,FastAcc,26,18,Woman,Left,
13,9,1,0.3339562000001024,['n'],1,right,['e'],1,0.27079330000015034,0.2,1,0,FastAcc,26,18,Woman,Left,
14,9,1,0.20159179999973276,['c'],0,right,['u'],0,0.3181119000000763,0.1,1,0,FastAcc,26,18,Woman,Left,
15,9,1,0.3347696000000724,['n'],0,left,['e'],1,0.29440409999915573,0.4,0,0,FastAcc,26,18,Woman,Left,
16,9,1,0.40134760000000824,['n'],0,left,['u'],0,0.39899680000053195,0.2,1,0,FastAcc,26,18,Woman,Left,
17,9,1,0.4001165999998193,['c'],0,right,['u'],0,0.2398397000015393,0.4,1,0,FastAcc,26,18,Woman,Left,
18,9,1,1.317816099999618,['c'],0,right,['u'],0,4.755934499999057,0.2,1,0,FastAcc,26,18,Woman,Left,
19,9,1,0.2847959000009723,['n'],0,left,['e'],1,0.30154530000072555,0.4,0,0,FastAcc,26,18,Woman,Left,
20,9,1,0.18363610000051267,['n'],1,right,['u'],0,0.4127934999996796,0.4,0,0,FastAcc,26,18,Woman,Left,
21,9,1,0.8167825000000448,['c'],0,right,['u'],0,0.3014579999999114,0.1,1,0,FastAcc,26,18,Woman,Left,
22,9,1,0.9848928999999771,['c'],1,left,['u'],0,0.3963681999994151,0.1,0,0,FastAcc,26,18,Woman,Left,
23,9,1,0.9007807000016328,['c'],0,right,['u'],0,0.3789167000013549,0.2,1,0,FastAcc,26,18,Woman,Left,
24,9,1,0.25153040000077453,['n'],0,left,['e'],1,0.33978919999935897,0.4,0,0,FastAcc,26,18,Woman,Left,
25,9,1,0.7338472999999794,['c'],1,left,['u'],0,0.42743049999990035,0.1,0,0,FastAcc,26,18,Woman,Left,
26,9,1,0.31734599999981583,['n'],1,right,['e'],1,0.22454499999912514,0.2,1,0,FastAcc,26,18,Woman,Left,
27,9,1,0.3012851999992563,['c'],1,left,['u'],0,0.3820075999992696,0.1,0,0,FastAcc,26,18,Woman,Left,
28,9,1,0.18465459999970335,['n'],1,right,['u'],0,0.31348000000070897,0.2,0,0,FastAcc,26,18,Woman,Left,
29,9,1,2.234024600000339,['n'],0,left,['u'],0,0.8860562999998365,0.2,1,0,FastAcc,26,18,Woman,Left,
30,9,1,1.2343163000005006,['n'],1,right,['u'],0,0.45187390000137384,0.2,0,0,FastAcc,26,18,Woman,Left,
31,9,1,0.4341191000003164,['n'],0,left,['u'],0,0.30687290000059875,0.1,1,0,FastAcc,26,18,Woman,Left,
32,9,1,0.40050240000164194,['n'],0,left,['e'],1,0.26590650000071037,0.4,0,0,FastAcc,26,18,Woman,Left,
33,9,1,0.36777949999850534,['c'],0,right,['u'],0,0.3059184000012465,0.2,1,0,FastAcc,26,18,Woman,Left,
34,9,1,0.5012102000000596,['n'],1,right,['e'],1,0.324187999998685,0.4,1,0,FastAcc,26,18,Woman,Left,
35,9,1,0.10184619999927236,['n'],1,right,['e'],1,0.2778214999998454,0.2,1,0,FastAcc,26,18,Woman,Left,
36,9,1,0.36750779999965744,['n'],0,left,['u'],0,0.27079849999972794,0.2,1,0,FastAcc,26,18,Woman,Left,
37,9,1,0.6521928000001935,['n'],1,right,['e'],1,0.28450509999856877,0.2,1,0,FastAcc,26,18,Woman,Left,
38,9,1,0.7177728999995452,['n'],0,left,['u'],0,0.3426483000002918,0.1,1,0,FastAcc,26,18,Woman,Left,
39,9,1,0.9512777999989339,['n'],0,left,['e'],1,0.2938341000008222,0.4,0,0,FastAcc,26,18,Woman,Left,
40,9,1,0.2179973999991489,['n'],1,right,['u'],0,0.7399512000010873,0.1,0,0,FastAcc,26,18,Woman,Left,
41,9,1,0.08449329999893962,['n'],0,left,['e'],1,0.6455280000009225,0.4,0,0,FastAcc,26,18,Woman,Left,
42,9,1,0.21711820000018633,['n'],1,right,['u'],0,0.5015626000003977,0.1,0,0,FastAcc,26,18,Woman,Left,
43,9,1,0.18470460000025923,['n'],0,left,['e'],1,0.39615240000057383,0.4,0,0,FastAcc,26,18,Woman,Left,
44,9,1,0.16818679999960295,['n'],0,left,['u'],0,1.1917425000010553,0.4,1,0,FastAcc,26,18,Woman,Left,
45,9,1,0.2676183999992645,['n'],1,right,['u'],0,0.41604690000167466,0.1,0,0,FastAcc,26,18,Woman,Left,
46,9,1,0.33468340000035823,['n'],1,right,['u'],0,0.3562445999996271,0.4,0,0,FastAcc,26,18,Woman,Left,
47,9,1,0.051042399998550536,['c'],0,right,['e'],1,0.4387196000006952,0.1,0,0,FastAcc,26,18,Woman,Left,
48,9,1,0.2008780999985902,['n'],0,left,['u'],0,0.3673060000000987,0.1,1,0,FastAcc,26,18,Woman,Left,
49,9,1,0.4176509000008082,['n'],0,left,['u'],0,0.338711799999146,0.1,1,0,FastAcc,26,18,Woman,Left,
50,9,1,0.35134280000056606,['n'],1,right,['u'],0,0.36132790000010573,0.1,0,0,FastAcc,26,18,Woman,Left,
51,9,1,2.835062600001038,['n'],0,left,['u'],0,0.41263249999974505,0.1,1,0,FastAcc,26,18,Woman,Left,
52,9,1,0.30203350000010687,['n'],0,left,['e'],1,0.29021929999908025,0.1,0,0,FastAcc,26,18,Woman,Left,
53,9,1,0.38441339999917545,['c'],1,left,['e'],1,0.28187529999922845,0.2,1,0,FastAcc,26,18,Woman,Left,
54,9,1,0.30123620000085793,['c'],1,left,['u'],0,0.30867850000140606,0.4,0,0,FastAcc,26,18,Woman,Left,
55,9,1,1.500139300000228,['c'],0,right,['e'],1,0.39938549999897077,0.4,0,0,FastAcc,26,18,Woman,Left,
56,9,1,0.04993800000011106,['n'],1,right,['u'],0,0.43154710000089835,0.4,0,0,FastAcc,26,18,Woman,Left,
57,9,1,0.3352845999997953,['n'],1,right,['u'],0,0.29105820000040694,0.2,0,0,FastAcc,26,18,Woman,Left,
58,9,1,0.017946599999049795,['c'],1,left,['e'],1,0.32913860000007844,0.4,1,0,FastAcc,26,18,Woman,Left,
59,9,1,0.8015511999983573,['n'],0,left,['u'],0,0.2864382999996451,0.1,1,0,FastAcc,26,18,Woman,Left,
0,10,1,0.40045900000041,['n'],1,right,['u'],0,0.248600400000214,0.4,0,0,FastFast,26,18,Woman,Left,
1,10,1,0.3014929000000848,['n'],1,right,['e'],1,0.1807876999992004,0.4,1,0,FastFast,26,18,Woman,Left,
2,10,1,0.3345198999995773,['n'],0,left,['u'],0,0.21109120000073744,0.2,1,0,FastFast,26,18,Woman,Left,
3,10,1,0.33398850000048697,['c'],1,left,['u'],0,0.17519760000141105,0.2,0,0,FastFast,26,18,Woman,Left,
4,10,1,0.36875099999997474,['c'],1,left,['e'],1,0.2362293000005593,0.1,1,0,FastFast,26,18,Woman,Left,
5,10,1,0.5343829000012192,['n'],0,left,['e'],1,0.23970419999932346,0.4,0,0,FastFast,26,18,Woman,Left,
6,10,1,2.8011838999991596,['c'],0,right,['u'],0,0.905286299999716,0.4,1,0,FastFast,26,18,Woman,Left,
7,10,1,0.28386219999993045,['n'],1,right,['e'],1,0.26808989999881305,0.4,1,0,FastFast,26,18,Woman,Left,
8,10,1,1.6500416999988374,['c'],0,right,['u'],0,0.3859618999995291,0.1,1,0,FastFast,26,18,Woman,Left,
9,10,1,0.21796749999884923,['n'],0,left,['e'],1,0.28406320000067353,0.4,0,0,FastFast,26,18,Woman,Left,
10,10,1,0.6844956000004458,['n'],0,left,['u'],0,0.21559789999992063,0.4,1,0,FastFast,26,18,Woman,Left,
11,10,1,0.4000269999996817,['c'],0,right,['u'],0,0.28994629999942845,0.2,1,0,FastFast,26,18,Woman,Left,
12,10,1,0.08387360000051558,['c'],0,right,['u'],0,0.32486619999872346,0.1,1,0,FastFast,26,18,Woman,Left,
13,10,1,0.7009879999986879,['n'],1,right,['e'],1,0.3664251999998669,0.2,1,0,FastFast,26,18,Woman,Left,
14,10,1,0.38448280000011437,['c'],1,left,['u'],0,0.226705299999594,0.2,0,0,FastFast,26,18,Woman,Left,
15,10,1,0.3010848999983864,['n'],0,left,['e'],1,0.2882169000004069,0.1,0,0,FastFast,26,18,Woman,Left,
16,10,1,0.2689582999992126,['n'],0,left,['e'],1,0.2845763999994233,0.1,0,0,FastFast,26,18,Woman,Left,
17,10,1,0.650513000000501,['c'],0,right,['u'],0,0.31338809999942896,0.1,1,0,FastFast,26,18,Woman,Left,
18,10,1,0.06816910000088683,['n'],1,right,['e'],1,0.3164565000006405,0.2,1,0,FastFast,26,18,Woman,Left,
19,10,1,0.5509758000007423,['n'],0,left,['e'],1,0.33221099999900616,0.1,0,0,FastFast,26,18,Woman,Left,
20,10,1,0.317490600000383,['c'],1,left,['u'],0,0.1962948000000324,0.2,0,0,FastFast,26,18,Woman,Left,
21,10,1,0.31797550000010233,['n'],0,left,['e'],1,0.27403530000083265,0.2,0,0,FastFast,26,18,Woman,Left,
22,10,1,0.6673566999998002,['n'],1,right,['e'],1,0.3668300999997882,0.1,1,0,FastFast,26,18,Woman,Left,
23,10,1,0.4839649000005011,['c'],1,left,['u'],0,0.3033706999995047,0.4,0,0,FastFast,26,18,Woman,Left,
24,10,1,0.818012899999303,['c'],0,right,['u'],0,0.2928154999990511,0.2,1,0,FastFast,26,18,Woman,Left,
25,10,1,1.2012749999994412,['n'],0,left,['e'],1,0.3478692000007868,0.4,0,0,FastFast,26,18,Woman,Left,
26,10,1,0.4853521000004548,['c'],0,right,['u'],0,0.3169926000009582,0.1,1,0,FastFast,26,18,Woman,Left,
27,10,1,0.3505872999994608,['n'],1,right,['u'],0,0.21232529999906546,0.4,0,0,FastFast,26,18,Woman,Left,
28,10,1,0.38374019999901066,['n'],1,right,['e'],1,0.2554399000000558,0.1,1,0,FastFast,26,18,Woman,Left,
29,10,1,0.7343767999991542,['n'],0,left,['e'],1,0.24955919999956677,0.4,0,0,FastFast,26,18,Woman,Left,
30,10,1,0.8824500999999145,['n'],1,right,['u'],0,0.19210689999999886,0.2,0,0,FastFast,26,18,Woman,Left,
31,10,1,0.5512842999996792,['c'],1,left,['e'],1,0.2918215000008786,0.4,1,0,FastFast,26,18,Woman,Left,
32,10,1,0.7834843000000546,['n'],1,right,['e'],1,0.49197730000014417,0.2,1,0,FastFast,26,18,Woman,Left,
33,10,1,1.8842260999990685,['n'],1,right,['e'],1,0.2389671000000817,0.4,1,0,FastFast,26,18,Woman,Left,
34,10,1,1.5678821000001335,['c'],1,left,['u'],0,0.20181509999929403,0.2,0,0,FastFast,26,18,Woman,Left,
35,10,1,1.5845351999996637,['n'],1,right,['e'],1,0.5006290000001172,0.1,1,0,FastFast,26,18,Woman,Left,
36,10,1,1.5006864999995742,['c'],1,left,['e'],1,0.34371590000046126,0.1,1,0,FastFast,26,18,Woman,Left,
37,10,1,0.6678250000004482,['n'],0,left,['e'],1,0.3852630000001227,0.1,0,0,FastFast,26,18,Woman,Left,
38,10,1,1.1344938999991427,['c'],1,left,['e'],1,0.26290789999984554,0.4,1,0,FastFast,26,18,Woman,Left,
39,10,1,0.6347349999996368,['n'],1,right,['e'],1,0.4540997000003699,0.2,1,0,FastFast,26,18,Woman,Left,
40,10,1,1.400351899999805,['c'],0,right,['u'],0,0.14257699999870965,0.2,1,0,FastFast,26,18,Woman,Left,
41,10,1,1.2847015999996074,['n'],1,right,['u'],0,0.4873324000000139,0.1,0,0,FastFast,26,18,Woman,Left,
42,10,1,1.0168321000001015,['c'],1,left,['e'],1,0.302513499998895,0.1,1,0,FastFast,26,18,Woman,Left,
43,10,1,0.7850517000006221,['c'],1,left,['e'],1,0.2926234000005934,0.4,1,0,FastFast,26,18,Woman,Left,
44,10,1,0.6677697000013723,['c'],1,left,['u'],0,1.5851493999998638,0.1,0,0,FastFast,26,18,Woman,Left,
45,10,1,1.3338346000000456,['n'],1,right,['e'],1,0.2072375000007014,0.4,1,0,FastFast,26,18,Woman,Left,
46,10,1,0.6997358999997232,['c'],0,right,['e'],1,0.2859693000009429,0.2,0,0,FastFast,26,18,Woman,Left,
47,10,1,0.834047800000917,['n'],0,left,['u'],0,0.29088120000051276,0.2,1,0,FastFast,26,18,Woman,Left,
48,10,1,1.0848951000007219,['c'],1,left,['u'],0,0.1585267999998905,0.1,0,0,FastFast,26,18,Woman,Left,
49,10,1,0.6667144000002736,['n'],1,right,['u'],0,0.7526281999998901,0.4,0,0,FastFast,26,18,Woman,Left,
50,10,1,0.5499806999996508,['c'],1,left,['e'],1,0.2544551999999385,0.4,1,0,FastFast,26,18,Woman,Left,
51,10,1,1.017753599999196,['n'],0,left,['u'],0,0.20628559999931895,0.2,1,0,FastFast,26,18,Woman,Left,
52,10,1,1.368763200000103,['n'],0,left,['u'],0,0.625869599998623,0.2,1,0,FastFast,26,18,Woman,Left,
53,10,1,0.7510660000007192,['c'],0,right,['e'],1,0.8775241000003007,0.1,0,0,FastFast,26,18,Woman,Left,
54,10,1,0.7011229999989155,['c'],0,right,['e'],1,0.24122069999975793,0.1,0,0,FastFast,26,18,Woman,Left,
55,10,1,0.700635000001057,['c'],1,left,['e'],1,0.2221538000012515,0.4,1,0,FastFast,26,18,Woman,Left,
56,10,1,0.4510867999997572,['n'],1,right,['u'],0,0.3418837999997777,0.1,0,0,FastFast,26,18,Woman,Left,
57,10,1,0.7005017000010412,['c'],1,left,['e'],1,0.27103819999865664,0.4,1,0,FastFast,26,18,Woman,Left,
58,10,1,0.8514590000013413,['c'],0,right,['e'],1,0.3084413999986282,0.2,0,0,FastFast,26,18,Woman,Left,
59,10,1,1.083949500000017,['n'],1,right,['u'],0,0.39956750000055763,0.2,0,0,FastFast,26,18,Woman,Left,
0,11,1,1.5342995999999403,['n'],1,right,['u'],0,0.23480650000055903,0.4,0,0,AccFast,26,18,Woman,Left,
1,11,1,0.9507078999995429,['c'],0,right,['e'],1,0.7819128000010096,0.1,0,0,AccFast,26,18,Woman,Left,
2,11,1,1.1180413000001863,['n'],1,right,['u'],0,0.2600811000011163,0.4,0,0,AccFast,26,18,Woman,Left,
3,11,1,0.8012715000004391,['c'],1,left,['e'],1,0.2841907000001811,0.1,1,0,AccFast,26,18,Woman,Left,
4,11,1,0.967005300000892,['n'],1,right,['u'],0,0.33316949999971257,0.2,0,0,AccFast,26,18,Woman,Left,
5,11,1,0.8831669000010152,['c'],0,right,['e'],1,0.2862488000009762,0.4,0,0,AccFast,26,18,Woman,Left,
6,11,1,1.1178945999999996,['c'],1,left,['u'],0,0.23261600000114413,0.1,0,0,AccFast,26,18,Woman,Left,
7,11,1,0.7512182999998913,['n'],0,left,['e'],1,0.24348400000053516,0.1,0,0,AccFast,26,18,Woman,Left,
8,11,1,0.35095970000111265,['c'],1,left,['u'],0,0.23850019999918004,0.1,0,0,AccFast,26,18,Woman,Left,
9,11,1,0.26819240000077116,['n'],1,right,['e'],1,0.2049896999997145,0.4,1,0,AccFast,26,18,Woman,Left,
10,11,1,0.317369399999734,['c'],1,left,['e'],1,0.3145416999996087,0.1,1,0,AccFast,26,18,Woman,Left,
11,11,1,0.1843711000001349,['c'],0,right,['u'],0,0.280811900000117,0.2,1,0,AccFast,26,18,Woman,Left,
12,11,1,0.3003413999995246,['n'],0,left,['e'],1,0.3874986999999237,0.4,0,0,AccFast,26,18,Woman,Left,
13,11,1,0.2681475000008504,['n'],1,right,['u'],0,1.3717696000003343,0.2,0,0,AccFast,26,18,Woman,Left,
14,11,1,0.05132190000040282,['c'],1,left,['u'],0,0.34162100000139617,0.4,0,0,AccFast,26,18,Woman,Left,
15,11,1,0.2510535000001255,['n'],1,right,['e'],1,0.27259240000057616,0.4,1,0,AccFast,26,18,Woman,Left,
16,11,1,0.35138460000052874,['c'],0,right,['u'],0,0.32999049999853014,0.1,1,0,AccFast,26,18,Woman,Left,
17,11,1,0.26637160000063886,['n'],1,right,['e'],1,0.22886130000006233,0.2,1,0,AccFast,26,18,Woman,Left,
18,11,1,0.48496090000116965,['c'],0,right,['u'],0,0.3625996999999188,0.4,1,0,AccFast,26,18,Woman,Left,
19,11,1,0.5179917000004934,['n'],0,left,['u'],0,0.8093814000003476,0.2,1,0,AccFast,26,18,Woman,Left,
20,11,1,2.384365699999762,['n'],0,left,['u'],0,1.0206885000006878,0.1,1,0,AccFast,26,18,Woman,Left,
21,11,1,0.5009676999998192,['c'],1,left,['u'],0,0.4186310000004596,0.2,0,0,AccFast,26,18,Woman,Left,
22,11,1,1.4009311999998317,['c'],1,left,['e'],1,0.3640730999995867,0.2,1,0,AccFast,26,18,Woman,Left,
23,11,1,1.0023268000004464,['n'],0,left,['u'],0,0.4397807000004832,0.4,1,0,AccFast,26,18,Woman,Left,
24,11,1,0.7686338999992586,['c'],0,right,['e'],1,0.3301460999991832,0.2,0,0,AccFast,26,18,Woman,Left,
25,11,1,2.1007734000013443,['n'],1,right,['u'],0,0.41123309999966295,0.1,0,0,AccFast,26,18,Woman,Left,
26,11,1,0.3848926000009669,['n'],0,left,['e'],1,0.2862855999992462,0.4,0,0,AccFast,26,18,Woman,Left,
27,11,1,2.418120299998918,['c'],1,left,['e'],1,0.32471389999955136,0.2,1,0,AccFast,26,18,Woman,Left,
28,11,1,0.7169229999999516,['n'],0,left,['u'],0,0.4139279000009992,0.4,1,0,AccFast,26,18,Woman,Left,
29,11,1,1.2843873999991047,['c'],1,left,['u'],0,0.7000914999989618,0.2,0,0,AccFast,26,18,Woman,Left,
30,11,1,1.201917800000956,['n'],1,right,['e'],1,0.4185203000015463,0.2,1,0,AccFast,26,18,Woman,Left,
31,11,1,0.9335663000001659,['n'],1,right,['e'],1,0.2710476000011113,0.4,1,0,AccFast,26,18,Woman,Left,
32,11,1,0.8349385999990773,['c'],1,left,['e'],1,0.3252608999991935,0.1,1,0,AccFast,26,18,Woman,Left,
33,11,1,1.2683481999993091,['c'],1,left,['e'],1,0.2803717000006145,0.2,1,0,AccFast,26,18,Woman,Left,
34,11,1,0.8181180999999924,['n'],0,left,['u'],0,0.8627073999996355,0.2,1,0,AccFast,26,18,Woman,Left,
35,11,1,0.8005355999994208,['n'],1,right,['u'],0,0.17453759999989416,0.2,0,0,AccFast,26,18,Woman,Left,
36,11,1,0.33386629999949946,['n'],1,right,['u'],0,0.2205443999991985,0.4,0,0,AccFast,26,18,Woman,Left,
37,11,1,0.28469349999977567,['n'],1,right,['u'],0,0.20276579999881506,0.2,0,0,AccFast,26,18,Woman,Left,
38,11,1,0.28410530000110157,['n'],1,right,['e'],1,0.1856444000004558,0.1,1,0,AccFast,26,18,Woman,Left,
39,11,1,0.38450449999982084,['c'],1,left,['u'],0,0.26160470000104397,0.1,0,0,AccFast,26,18,Woman,Left,
40,11,1,0.36841610000010405,['c'],0,right,['u'],0,0.2548075000013341,0.1,1,0,AccFast,26,18,Woman,Left,
41,11,1,0.28394759999901,['c'],1,left,['u'],0,0.17192339999928663,0.2,0,0,AccFast,26,18,Woman,Left,
42,11,1,0.2675063999995473,['n'],0,left,['e'],1,0.2686209000003146,0.4,0,0,AccFast,26,18,Woman,Left,
43,11,1,0.43410059999951045,['c'],0,right,['u'],0,3.555091700000048,0.1,1,0,AccFast,26,18,Woman,Left,
44,11,1,0.03469070000028296,['n'],1,right,['u'],0,1.3994239999992715,0.2,0,0,AccFast,26,18,Woman,Left,
45,11,1,0.26803340000151366,['n'],1,right,['e'],1,0.4541355000001204,0.4,1,0,AccFast,26,18,Woman,Left,
46,11,1,0.600342499999897,['c'],0,right,['u'],0,0.25444140000035986,0.4,1,0,AccFast,26,18,Woman,Left,
47,11,1,0.8678235999996105,['n'],1,right,['u'],0,0.45221889999993437,0.1,0,0,AccFast,26,18,Woman,Left,
48,11,1,1.3839511000005587,['n'],0,left,['e'],1,0.3809947000008833,0.2,0,0,AccFast,26,18,Woman,Left,
49,11,1,0.6510577000008198,['c'],1,left,['e'],1,0.43820989999949234,0.1,1,0,AccFast,26,18,Woman,Left,
50,11,1,0.2840486000004603,['n'],1,right,['u'],0,0.2518459000002622,0.1,0,0,AccFast,26,18,Woman,Left,
51,11,1,0.38469939999959024,['c'],1,left,['e'],1,0.26051010000082897,0.4,1,0,AccFast,26,18,Woman,Left,
52,11,1,0.3337608000001637,['n'],0,left,['u'],0,0.32103119999919727,0.4,1,0,AccFast,26,18,Woman,Left,
53,11,1,0.35063329999866255,['c'],1,left,['u'],0,0.2800141000006988,0.2,0,0,AccFast,26,18,Woman,Left,
54,11,1,0.8009944999994332,['c'],0,right,['u'],0,0.22207019999950717,0.1,1,0,AccFast,26,18,Woman,Left,
55,11,1,0.33456160000059754,['c'],1,left,['u'],0,0.26649879999968107,0.1,0,0,AccFast,26,18,Woman,Left,
56,11,1,0.21866469999986293,['n'],1,right,['e'],1,0.21719870000015362,0.1,1,0,AccFast,26,18,Woman,Left,
57,11,1,0.3176986999988003,['c'],0,right,['u'],0,0.24611579999873356,0.4,1,0,AccFast,26,18,Woman,Left,
58,11,1,0.3013416000012512,['c'],1,left,['u'],0,0.24252030000025115,0.2,0,0,AccFast,26,18,Woman,Left,
59,11,1,0.2512256999998499,['n'],0,left,['e'],1,0.24132819999977073,0.4,0,0,AccFast,26,18,Woman,Left,
0,12,1,2.5179243000002316,['n'],1,right,['u'],0,0.29644249999910244,0.4,0,0,AccAcc,26,18,Woman,Left,
1,12,1,0.4002113999995345,['n'],1,right,['u'],0,0.1916345999998157,0.1,0,0,AccAcc,26,18,Woman,Left,
2,12,1,0.2848770999989938,['n'],1,right,['e'],1,0.17391029999998864,0.2,1,0,AccAcc,26,18,Woman,Left,
3,12,1,0.40135620000000927,['c'],1,left,['u'],0,0.20133199999872886,0.2,0,0,AccAcc,26,18,Woman,Left,
4,12,1,0.26775460000135354,['n'],1,right,['e'],1,0.08893849999913073,0.1,1,0,AccAcc,26,18,Woman,Left,
5,12,1,0.2508772000001045,['c'],1,left,['u'],0,0.04573340000024473,0.4,0,0,AccAcc,26,18,Woman,Left,
6,12,1,0.3507385000011709,['n'],1,right,['u'],0,0.19198270000015327,0.1,0,0,AccAcc,26,18,Woman,Left,
7,12,1,0.41845890000149666,['n'],1,right,['u'],0,0.28222529999948165,0.4,0,0,AccAcc,26,18,Woman,Left,
8,12,1,0.33467039999959525,['n'],1,right,['e'],1,0.17984529999921506,0.1,1,0,AccAcc,26,18,Woman,Left,
9,12,1,0.3514321000002383,['c'],1,left,['u'],0,0.1769213999996282,0.4,0,0,AccAcc,26,18,Woman,Left,
10,12,1,0.43460159999995085,['n'],1,right,['e'],1,0.29908789999899454,0.1,1,0,AccAcc,26,18,Woman,Left,
11,12,1,4.482617699999537,['n'],0,left,['e'],1,0.19051269999908982,0.1,0,0,AccAcc,26,18,Woman,Left,
12,12,1,0.31598289999965345,['n'],0,left,['u'],0,0.23755330000130925,0.2,1,0,AccAcc,26,18,Woman,Left,
13,12,1,0.5851014999989275,['n'],1,right,['u'],0,5.022462400000222,0.1,0,0,AccAcc,26,18,Woman,Left,
14,12,1,0.48426260000087495,['n'],0,left,['e'],1,0.26144209999984014,0.1,0,0,AccAcc,26,18,Woman,Left,
15,12,1,2.267482100000052,['c'],1,left,['u'],0,0.37140009999893664,0.4,0,0,AccAcc,26,18,Woman,Left,
16,12,1,0.4846149000004516,['n'],0,left,['e'],1,0.2753841999983706,0.2,0,0,AccAcc,26,18,Woman,Left,
17,12,1,0.43541449999975157,['c'],1,left,['u'],0,0.2495810000000347,0.2,0,0,AccAcc,26,18,Woman,Left,
18,12,1,0.48461610000049404,['n'],1,right,['e'],1,0.20651379999981145,0.2,1,0,AccAcc,26,18,Woman,Left,
19,12,1,0.9179715999998734,['n'],0,left,['e'],1,0.19636659999923722,0.4,0,0,AccAcc,26,18,Woman,Left,
20,12,1,1.5837176000004547,['c'],1,left,['u'],0,0.36725310000110767,0.1,0,0,AccAcc,26,18,Woman,Left,
21,12,1,0.8505892000011954,['n'],0,left,['e'],1,0.19370829999934358,0.4,0,0,AccAcc,26,18,Woman,Left,
22,12,1,1.1352728000001662,['n'],1,right,['e'],1,0.20652200000040466,0.4,1,0,AccAcc,26,18,Woman,Left,
23,12,1,1.1665191000010964,['c'],1,left,['u'],0,0.25101530000029015,0.2,0,0,AccAcc,26,18,Woman,Left,
24,12,1,1.3680922999992617,['c'],0,right,['e'],1,0.26796439999998256,0.2,0,0,AccAcc,26,18,Woman,Left,
25,12,1,1.101198199999999,['c'],1,left,['e'],1,0.35972169999877224,0.2,1,0,AccAcc,26,18,Woman,Left,
26,12,1,1.0512695999987045,['n'],0,left,['u'],0,0.21028560000013385,0.1,1,0,AccAcc,26,18,Woman,Left,
27,12,1,0.5346692000002804,['n'],1,right,['e'],1,0.1989754999995057,0.4,1,0,AccAcc,26,18,Woman,Left,
28,12,1,0.7846499999996013,['c'],1,left,['e'],1,0.30593970000154513,0.4,1,0,AccAcc,26,18,Woman,Left,
29,12,1,2.151119500000277,['n'],0,left,['u'],0,0.24247169999944163,0.2,1,0,AccAcc,26,18,Woman,Left,
30,12,1,1.7355963999998494,['n'],0,left,['u'],0,0.23017570000047272,0.4,1,0,AccAcc,26,18,Woman,Left,
31,12,1,0.8006249999998545,['n'],1,right,['u'],0,0.2071847000006528,0.4,0,0,AccAcc,26,18,Woman,Left,
32,12,1,1.0838635999989492,['c'],1,left,['e'],1,0.23852050000095915,0.4,1,0,AccAcc,26,18,Woman,Left,
33,12,1,1.1840364999989106,['n'],1,right,['u'],0,0.18390360000012151,0.1,0,0,AccAcc,26,18,Woman,Left,
34,12,1,0.8672012999995786,['c'],0,right,['u'],0,0.22429320000082953,0.1,1,0,AccAcc,26,18,Woman,Left,
35,12,1,0.7681811000002199,['n'],0,left,['e'],1,0.1711353999999119,0.1,0,0,AccAcc,26,18,Woman,Left,
36,12,1,0.33438550000028044,['c'],0,right,['u'],0,0.2654124000000593,0.2,1,0,AccAcc,26,18,Woman,Left,
37,12,1,0.58456920000026,['n'],1,right,['e'],1,0.23355889999947976,0.1,1,0,AccAcc,26,18,Woman,Left,
38,12,1,0.31801850000010745,['c'],1,left,['u'],0,0.19795760000124574,0.2,0,0,AccAcc,26,18,Woman,Left,
39,12,1,0.1345623000015621,['n'],1,right,['e'],1,0.2347843000006833,0.4,1,0,AccAcc,26,18,Woman,Left,
40,12,1,0.3845390000005864,['c'],0,right,['u'],0,0.18039630000021134,0.4,1,0,AccAcc,26,18,Woman,Left,
41,12,1,0.3005754000005254,['n'],1,right,['e'],1,0.21131710000008752,0.1,1,0,AccAcc,26,18,Woman,Left,
42,12,1,0.3846083999997063,['c'],0,right,['u'],0,0.22222879999935685,0.1,1,0,AccAcc,26,18,Woman,Left,
43,12,1,0.36809250000078464,['n'],0,left,['e'],1,0.3132989000005182,0.4,0,0,AccAcc,26,18,Woman,Left,
44,12,1,0.7840035999997781,['c'],1,left,['u'],0,0.4635771000012028,0.2,0,0,AccAcc,26,18,Woman,Left,
45,12,1,0.2342573000005359,['n'],1,right,['e'],1,0.2617670999989059,0.4,1,0,AccAcc,26,18,Woman,Left,
46,12,1,1.2168953000000329,['n'],0,left,['u'],0,0.09293660000003001,0.2,1,0,AccAcc,26,18,Woman,Left,
47,12,1,0.33397169999989273,['c'],0,right,['e'],1,0.17455339999833086,0.2,0,0,AccAcc,26,18,Woman,Left,
48,12,1,0.2178820999997697,['n'],0,left,['u'],0,0.033390000000508735,0.2,1,0,AccAcc,26,18,Woman,Left,
49,12,1,0.33463510000001406,['n'],0,left,['u'],0,0.16477999999915482,0.4,1,0,AccAcc,26,18,Woman,Left,
50,12,1,0.10180919999947946,['n'],1,right,['e'],1,0.18860660000063945,0.1,1,0,AccAcc,26,18,Woman,Left,
51,12,1,0.21815539999988687,['c'],1,left,['u'],0,0.6706751000001532,0.1,0,0,AccAcc,26,18,Woman,Left,
52,12,1,0.1181481999992684,['n'],1,right,['e'],1,0.24167109999871172,0.4,1,0,AccAcc,26,18,Woman,Left,
53,12,1,0.2512168000012025,['c'],1,left,['u'],0,0.08038459999988845,0.2,0,0,AccAcc,26,18,Woman,Left,
54,12,1,0.28367419999995036,['n'],1,right,['u'],0,0.08423279999988154,0.2,0,0,AccAcc,26,18,Woman,Left,
55,12,1,0.3346414999996341,['c'],1,left,['e'],1,0.21376869999949122,0.1,1,0,AccAcc,26,18,Woman,Left,
56,12,1,0.8508209000010538,['n'],1,right,['e'],1,0.17332530000021507,0.2,1,0,AccAcc,26,18,Woman,Left,
57,12,1,0.3351421000006667,['c'],1,left,['u'],0,0.14039190000039525,0.2,0,0,AccAcc,26,18,Woman,Left,
58,12,1,0.21777110000039102,['n'],1,right,['e'],1,0.2877704000002268,0.1,1,0,AccAcc,26,18,Woman,Left,
59,12,1,0.25060490000032587,['c'],0,right,['u'],0,0.15655540000079782,0.4,1,0,AccAcc,26,18,Woman,Left,
0,13,1,1.4843585999988136,['n'],1,right,['e'],1,0.1482586000001902,0.1,1,0,FastAcc,26,18,Woman,Left,
1,13,1,0.30127010000069276,['c'],0,right,['u'],0,0.19658980000167503,0.2,1,0,FastAcc,26,18,Woman,Left,
2,13,1,0.417160299999523,['n'],1,right,['e'],1,0.25415370000155235,0.1,1,0,FastAcc,26,18,Woman,Left,
3,13,1,0.33450009999978647,['n'],0,left,['u'],0,0.10500979999960691,0.4,1,0,FastAcc,26,18,Woman,Left,
4,13,1,0.6340570000011212,['n'],0,left,['e'],1,0.23781419999977516,0.2,0,0,FastAcc,26,18,Woman,Left,
5,13,1,0.3178983999987395,['c'],1,left,['u'],0,0.1863165000013396,0.2,0,0,FastAcc,26,18,Woman,Left,
6,13,1,0.4678647999990062,['c'],0,right,['u'],0,0.16258710000147403,0.4,1,0,FastAcc,26,18,Woman,Left,
7,13,1,0.13472880000153964,['n'],1,right,['e'],1,0.1845697000007931,0.1,1,0,FastAcc,26,18,Woman,Left,
8,13,1,0.051393600000665174,['c'],1,left,['u'],0,0.20950139999877138,0.4,0,0,FastAcc,26,18,Woman,Left,
9,13,1,0.25103040000067267,['n'],1,right,['e'],1,0.20981819999906293,0.1,1,0,FastAcc,26,18,Woman,Left,
10,13,1,0.6341065999986313,['c'],0,right,['u'],0,0.16295499999978347,0.2,1,0,FastAcc,26,18,Woman,Left,
11,13,1,0.3012146000000939,['n'],0,left,['e'],1,0.2581812999997055,0.4,0,0,FastAcc,26,18,Woman,Left,
12,13,1,0.30171659999905387,['c'],1,left,['u'],0,0.190523100000064,0.2,0,0,FastAcc,26,18,Woman,Left,
13,13,1,0.26849330000004556,['n'],0,left,['e'],1,0.143259799999214,0.1,0,0,FastAcc,26,18,Woman,Left,
14,13,1,0.251320699999269,['n'],0,left,['e'],1,0.1619261000014376,0.1,0,0,FastAcc,26,18,Woman,Left,
15,13,1,0.28347389999908046,['n'],1,right,['u'],0,0.17853420000028564,0.2,0,0,FastAcc,26,18,Woman,Left,
16,13,1,0.16831479999927978,['n'],0,left,['e'],1,0.2627269000004162,0.2,0,0,FastAcc,26,18,Woman,Left,
17,13,1,0.6660372999995161,['c'],1,left,['u'],0,0.1964033999993262,0.4,0,0,FastAcc,26,18,Woman,Left,
18,13,1,0.26660789999914414,['n'],1,right,['e'],1,0.26007840000056603,0.2,1,0,FastAcc,26,18,Woman,Left,
19,13,1,1.201135899998917,['n'],0,left,['u'],0,0.4606222999991587,0.4,1,0,FastAcc,26,18,Woman,Left,
20,13,1,0.2847620000011375,['n'],1,right,['e'],1,0.20862529999976687,0.2,1,0,FastAcc,26,18,Woman,Left,
21,13,1,0.6671062000004895,['c'],0,right,['u'],0,0.14450870000109717,0.4,1,0,FastAcc,26,18,Woman,Left,
22,13,1,0.1010917999992671,['n'],1,right,['e'],1,0.18512019999980112,0.4,1,0,FastAcc,26,18,Woman,Left,
23,13,1,0.3012515999998868,['n'],0,left,['u'],0,0.18409190000056697,0.2,1,0,FastAcc,26,18,Woman,Left,
24,13,1,0.31785889999991923,['n'],1,right,['e'],1,0.2465252000001783,0.1,1,0,FastAcc,26,18,Woman,Left,
25,13,1,1.0011706999994203,['c'],1,left,['u'],0,0.2466033000000607,0.4,0,0,FastAcc,26,18,Woman,Left,
26,13,1,0.01652289999947243,['n'],1,right,['e'],1,0.23840949999976147,0.4,1,0,FastAcc,26,18,Woman,Left,
27,13,1,0.7512886000004073,['c'],1,left,['u'],0,0.16952469999887398,0.1,0,0,FastAcc,26,18,Woman,Left,
28,13,1,0.20124519999990298,['n'],0,left,['u'],0,0.17289499999969848,0.1,1,0,FastAcc,26,18,Woman,Left,
29,13,1,0.3846486999991612,['n'],1,right,['e'],1,0.24919869999939692,0.1,1,0,FastAcc,26,18,Woman,Left,
30,13,1,0.4172966999994969,['n'],1,right,['u'],0,0.48095459999967716,0.2,0,0,FastAcc,26,18,Woman,Left,
31,13,1,0.7503015999991476,['n'],1,right,['u'],0,0.22549210000033781,0.2,0,0,FastAcc,26,18,Woman,Left,
32,13,1,0.41808119999950577,['n'],0,left,['u'],0,2.2504780999988725,0.4,1,0,FastAcc,26,18,Woman,Left,
33,13,1,0.31763540000065404,['n'],0,left,['e'],1,0.19856649999928777,0.2,0,0,FastAcc,26,18,Woman,Left,
34,13,1,0.2681009999996604,['n'],0,left,['u'],0,0.24592350000057195,0.2,1,0,FastAcc,26,18,Woman,Left,
35,13,1,0.601017300001331,['n'],0,left,['e'],1,0.1661294999994425,0.4,0,0,FastAcc,26,18,Woman,Left,
36,13,1,0.4178448999991815,['c'],1,left,['u'],0,0.3051491000005626,0.4,0,0,FastAcc,26,18,Woman,Left,
37,13,1,0.5840170000010403,['n'],1,right,['u'],0,0.2559579999997368,0.4,0,0,FastAcc,26,18,Woman,Left,
38,13,1,0.8346314000009443,['n'],0,left,['u'],0,0.23117679999995744,0.2,1,0,FastAcc,26,18,Woman,Left,
39,13,1,0.6011549000013474,['n'],1,right,['u'],0,0.1998851000007562,0.1,0,0,FastAcc,26,18,Woman,Left,
40,13,1,0.5346078000002308,['n'],0,left,['u'],0,0.3330640999993193,0.2,1,0,FastAcc,26,18,Woman,Left,
41,13,1,1.0178543999991234,['n'],1,right,['u'],0,0.8574309000014182,0.4,0,0,FastAcc,26,18,Woman,Left,
42,13,1,0.33497710000119696,['c'],1,left,['u'],0,0.25237039999956323,0.1,0,0,FastAcc,26,18,Woman,Left,
43,13,1,0.2677782999999181,['n'],0,left,['e'],1,0.18594769999981509,0.4,0,0,FastAcc,26,18,Woman,Left,
44,13,1,0.30113840000012715,['c'],1,left,['u'],0,0.2167464000012842,0.2,0,0,FastAcc,26,18,Woman,Left,
45,13,1,0.9001556000002893,['n'],1,right,['u'],0,0.38308409999990545,0.1,0,0,FastAcc,26,18,Woman,Left,
46,13,1,0.3013270999999804,['n'],0,left,['e'],1,0.18163370000002033,0.1,0,0,FastAcc,26,18,Woman,Left,
47,13,1,1.5004561000005197,['c'],0,right,['e'],1,0.1164243000002898,0.1,0,0,FastAcc,26,18,Woman,Left,
48,13,1,1.216897099999187,['n'],0,left,['u'],0,0.14579279999998107,0.1,1,0,FastAcc,26,18,Woman,Left,
49,13,1,0.6846145999988948,['n'],1,right,['e'],1,0.16249270000116667,0.4,1,0,FastAcc,26,18,Woman,Left,
50,13,1,0.6179276999991998,['c'],1,left,['e'],1,0.1662144999991142,0.2,1,0,FastAcc,26,18,Woman,Left,
51,13,1,0.9179348999987269,['c'],1,left,['u'],0,0.17233219999980065,0.4,0,0,FastAcc,26,18,Woman,Left,
52,13,1,0.6508064999998169,['n'],1,right,['u'],0,0.2380169999996724,0.2,0,0,FastAcc,26,18,Woman,Left,
53,13,1,1.000662899999952,['n'],1,right,['e'],1,0.17507040000054985,0.1,1,0,FastAcc,26,18,Woman,Left,
54,13,1,0.8680259999982809,['n'],1,right,['u'],0,0.3440856999986863,0.4,0,0,FastAcc,26,18,Woman,Left,
55,13,1,1.3175375000009808,['c'],0,right,['u'],0,0.21648720000121102,0.4,1,0,FastAcc,26,18,Woman,Left,
56,13,1,0.8508006000010937,['n'],1,right,['u'],0,0.20797449999918172,0.1,0,0,FastAcc,26,18,Woman,Left,
57,13,1,1.2509664999997767,['c'],0,right,['u'],0,0.18436130000009143,0.1,1,0,FastAcc,26,18,Woman,Left,
58,13,1,1.5511898999993718,['c'],0,right,['e'],1,0.42154329999902984,0.1,0,0,FastAcc,26,18,Woman,Left,
59,13,1,1.1848725999989256,['n'],0,left,['u'],0,0.23189319999983127,0.2,1,0,FastAcc,26,18,Woman,Left,
0,14,1,0.6676493999984814,['n'],0,left,['u'],0,0.1459950000007666,0.1,1,0,FastFast,26,18,Woman,Left,
1,14,1,1.0006388000001607,['n'],1,right,['u'],0,0.15024590000030003,0.4,0,0,FastFast,26,18,Woman,Left,
2,14,1,0.6845393000003241,['n'],0,left,['e'],1,0.08695590000024822,0.2,0,0,FastFast,26,18,Woman,Left,
3,14,1,1.4011054000002332,['n'],1,right,['u'],0,0.1258694000007381,0.2,0,0,FastFast,26,18,Woman,Left,
4,14,1,0.6505305999999109,['c'],0,right,['u'],0,0.1935790999996243,0.4,1,0,FastFast,26,18,Woman,Left,
5,14,1,0.8179911999995966,['c'],0,right,['u'],0,0.12376399999993737,0.4,1,0,FastFast,26,18,Woman,Left,
6,14,1,0.3181609999992361,['n'],0,left,['e'],1,0.14089480000075127,0.1,0,0,FastFast,26,18,Woman,Left,
7,14,1,0.31818030000067665,['c'],1,left,['u'],0,0.14093980000143347,0.1,0,0,FastFast,26,18,Woman,Left,
8,14,1,1.5508842000017466,['n'],1,right,['u'],0,0.18833250000170665,0.1,0,0,FastFast,26,18,Woman,Left,
9,14,1,0.8178306000008888,['c'],1,left,['e'],1,0.16636429999925895,0.2,1,0,FastFast,26,18,Woman,Left,
10,14,1,0.618324200000643,['n'],1,right,['u'],0,0.1372324000003573,0.2,0,0,FastFast,26,18,Woman,Left,
11,14,1,1.8844907999991847,['n'],1,right,['e'],1,0.2830095000026631,0.1,1,0,FastFast,26,18,Woman,Left,
12,14,1,2.700990900000761,['n'],1,right,['u'],0,0.2785121999986586,0.1,0,0,FastFast,26,18,Woman,Left,
13,14,1,4.78352630000154,['n'],0,left,['e'],1,0.9904611999991175,0.4,0,0,FastFast,26,18,Woman,Left,
14,14,1,3.4671993000010843,['c'],1,left,['u'],0,0.7510809999985213,0.1,0,0,FastFast,26,18,Woman,Left,
15,14,1,1.750466299999971,['c'],0,right,['e'],1,0.22159820000160835,0.2,0,0,FastFast,26,18,Woman,Left,
16,14,1,1.601172900001984,['c'],1,left,['e'],1,0.2472669999988284,0.2,1,0,FastFast,26,18,Woman,Left,
17,14,1,2.7176887999994506,['c'],1,left,['e'],1,0.25927710000178195,0.4,1,0,FastFast,26,18,Woman,Left,
18,14,1,1.2180797000000894,['c'],1,left,['e'],1,0.4589751999992586,0.4,1,0,FastFast,26,18,Woman,Left,
19,14,1,2.20052460000079,['n'],1,right,['u'],0,0.2913719999996829,0.4,0,0,FastFast,26,18,Woman,Left,
20,14,1,3.9678191999992123,['c'],0,right,['u'],0,0.2681086000011419,0.2,1,0,FastFast,26,18,Woman,Left,
21,14,1,1.0174979999974312,['c'],0,right,['u'],0,0.29905260000305134,0.1,1,0,FastFast,26,18,Woman,Left,
22,14,1,1.4181634999986272,['n'],1,right,['e'],1,1.2570044999993115,0.4,1,0,FastFast,26,18,Woman,Left,
23,14,1,0.9847340999986045,['n'],1,right,['e'],1,0.338189499998407,0.4,1,0,FastFast,26,18,Woman,Left,
24,14,1,2.5012233999987075,['c'],1,left,['e'],1,0.24311669999951846,0.2,1,0,FastFast,26,18,Woman,Left,
25,14,1,0.9844909999992524,['c'],1,left,['e'],1,0.24485409999761032,0.2,1,0,FastFast,26,18,Woman,Left,
26,14,1,3.1346452999969188,['n'],1,right,['u'],0,0.6096045000012964,0.2,0,0,FastFast,26,18,Woman,Left,
27,14,1,1.0839310999981535,['c'],1,left,['e'],1,0.17627680000077817,0.4,1,0,FastFast,26,18,Woman,Left,
28,14,1,1.5511478000007628,['n'],1,right,['u'],0,0.5097329000018362,0.1,0,0,FastFast,26,18,Woman,Left,
29,14,1,0.8006949999980861,['n'],0,left,['u'],0,0.2199651000009908,0.1,1,0,FastFast,26,18,Woman,Left,
30,14,1,4.384542499999952,['n'],0,left,['u'],0,0.13469050000276184,0.2,1,0,FastFast,26,18,Woman,Left,
31,14,1,1.6836726000001363,['c'],1,left,['e'],1,0.19255139999950188,0.4,1,0,FastFast,26,18,Woman,Left,
32,14,1,0.5350402000003669,['n'],1,right,['u'],0,0.19792579999921145,0.1,0,0,FastFast,26,18,Woman,Left,
33,14,1,0.8338685999988229,['n'],1,right,['u'],0,0.22313969999959227,0.2,0,0,FastFast,26,18,Woman,Left,
34,14,1,0.28471319999880507,['n'],0,left,['e'],1,0.17319750000024214,0.4,0,0,FastFast,26,18,Woman,Left,
35,14,1,0.43422629999986384,['c'],0,right,['u'],0,0.15151400000104331,0.2,1,0,FastFast,26,18,Woman,Left,
36,14,1,0.9169532999985677,['c'],1,left,['e'],1,0.22302169999966281,0.2,1,0,FastFast,26,18,Woman,Left,
37,14,1,1.1341305000023567,['n'],0,left,['e'],1,0.2196594000015466,0.4,0,0,FastFast,26,18,Woman,Left,
38,14,1,1.717669699999533,['c'],1,left,['u'],0,0.19256619999941904,0.1,0,0,FastFast,26,18,Woman,Left,
39,14,1,1.5344688999975915,['c'],1,left,['u'],0,1.9662247000014759,0.4,0,0,FastFast,26,18,Woman,Left,
40,14,1,1.5999628999998095,['n'],0,left,['e'],1,0.4350907999978517,0.2,0,0,FastFast,26,18,Woman,Left,
41,14,1,1.6012428000030923,['n'],1,right,['u'],0,0.35526409999874886,0.2,0,0,FastFast,26,18,Woman,Left,
42,14,1,1.9175359000000753,['c'],0,right,['e'],1,0.41110110000226996,0.4,0,0,FastFast,26,18,Woman,Left,
43,14,1,3.0507694000007177,['n'],1,right,['u'],0,0.24443310000060592,0.1,0,0,FastFast,26,18,Woman,Left,
44,14,1,0.9355156999990868,['n'],0,left,['e'],1,0.15150059999723453,0.4,0,0,FastFast,26,18,Woman,Left,
45,14,1,1.767789500001527,['n'],0,left,['e'],1,0.10914150000098743,0.2,0,0,FastFast,26,18,Woman,Left,
46,14,1,2.384754200000316,['n'],1,right,['u'],0,0.22015509999982896,0.1,0,0,FastFast,26,18,Woman,Left,
47,14,1,0.834763999999268,['n'],1,right,['u'],0,0.11684859999877517,0.2,0,0,FastFast,26,18,Woman,Left,
48,14,1,1.4498697999988508,['n'],1,right,['e'],1,0.12080970000170055,0.4,1,0,FastFast,26,18,Woman,Left,
49,14,1,1.1327120999994804,['n'],0,left,['e'],1,0.12144330000228365,0.4,0,0,FastFast,26,18,Woman,Left,
50,14,1,4.498904600000969,['n'],0,left,['e'],1,0.10024999999950523,0.1,0,0,FastFast,26,18,Woman,Left,
51,14,1,1.2510619000022416,['c'],0,right,['u'],0,0.1269685000006575,0.1,1,0,FastFast,26,18,Woman,Left,
52,14,1,1.7508187999992515,['n'],0,left,['u'],0,0.11883039999884204,0.1,1,0,FastFast,26,18,Woman,Left,
53,14,1,2.4681601999982377,['c'],0,right,['e'],1,0.17791459999716608,0.1,0,0,FastFast,26,18,Woman,Left,
54,14,1,0.9852123999989999,['c'],1,left,['e'],1,0.16635719999976573,0.2,1,0,FastFast,26,18,Woman,Left,
55,14,1,0.7513279000013426,['c'],1,left,['e'],1,0.13233580000087386,0.1,1,0,FastFast,26,18,Woman,Left,
56,14,1,0.5510581999988062,['n'],1,right,['e'],1,0.13875999999800115,0.4,1,0,FastFast,26,18,Woman,Left,
57,14,1,0.6341023999993922,['c'],0,right,['u'],0,0.11056599999938044,0.2,1,0,FastFast,26,18,Woman,Left,
58,14,1,2.184305199996743,['n'],0,left,['u'],0,0.1815913000027649,0.4,1,0,FastFast,26,18,Woman,Left,
59,14,1,0.9178890000002866,['n'],1,right,['u'],0,0.14098640000156593,0.1,0,0,FastFast,26,18,Woman,Left,
0,15,1,3.8170390000013867,['c'],1,left,['e'],1,1.062921799999458,0.1,1,0,AccFast,26,18,Woman,Left,
1,15,1,1.6003326999998535,['n'],0,left,['u'],0,0.20667949999915436,0.2,1,0,AccFast,26,18,Woman,Left,
2,15,1,2.8510507000028156,['c'],0,right,['u'],0,0.6472493000001123,0.2,1,0,AccFast,26,18,Woman,Left,
3,15,1,2.8500222000002395,['c'],1,left,['u'],0,0.2697638999998162,0.1,0,0,AccFast,26,18,Woman,Left,
4,15,1,2.7677555000009306,['n'],0,left,['e'],1,0.21492390000275918,0.2,0,0,AccFast,26,18,Woman,Left,
5,15,1,5.000072599999839,x,-99,left,none,-99,-99,0.2,-99,1,AccFast,26,18,Woman,Left,
6,15,1,3.149924800000008,['n'],0,left,['e'],1,0.20598519999839482,0.4,0,0,AccFast,26,18,Woman,Left,
7,15,1,3.8336373000020103,['c'],1,left,['u'],0,0.20734580000134883,0.2,0,0,AccFast,26,18,Woman,Left,
8,15,1,3.8839440000010654,['n'],1,right,['e'],1,0.223446399999375,0.1,1,0,AccFast,26,18,Woman,Left,
9,15,1,3.0842983000002278,['n'],0,left,['u'],0,0.749256899998727,0.4,1,0,AccFast,26,18,Woman,Left,
10,15,1,2.234463099997811,['n'],1,right,['u'],0,0.6646359999976994,0.1,0,0,AccFast,26,18,Woman,Left,
11,15,1,3.6841284000001906,['n'],1,right,['u'],0,3.0372577000016463,0.4,0,0,AccFast,26,18,Woman,Left,
12,15,1,4.166785100002016,['n'],0,left,['u'],0,0.3201868999967701,0.4,1,0,AccFast,26,18,Woman,Left,
13,15,1,3.800853599997936,['c'],1,left,['u'],0,0.3022940999981074,0.2,0,0,AccFast,26,18,Woman,Left,
14,15,1,1.9179573000001255,['n'],1,right,['u'],0,0.32789579999734997,0.2,0,0,AccFast,26,18,Woman,Left,
15,15,1,1.5510841000032087,['n'],1,right,['e'],1,2.0157718999980716,0.4,1,0,AccFast,26,18,Woman,Left,
16,15,1,4.48251099999834,['c'],0,right,['u'],0,0.7828370999995968,0.2,1,0,AccFast,26,18,Woman,Left,
17,15,1,3.8175388000017847,['n'],1,right,['u'],0,0.4574886999980663,0.1,0,0,AccFast,26,18,Woman,Left,
18,15,1,1.6344849000015529,['n'],0,left,['e'],1,0.5046144000007189,0.4,0,0,AccFast,26,18,Woman,Left,
19,15,1,4.334017199998925,['c'],0,right,['u'],0,0.5060068999991927,0.1,1,0,AccFast,26,18,Woman,Left,
20,15,1,1.8847081999992952,['n'],1,right,['u'],0,0.49319110000215005,0.2,0,0,AccFast,26,18,Woman,Left,
21,15,1,3.783902200000739,['n'],1,right,['u'],0,0.43724959999963176,0.1,0,0,AccFast,26,18,Woman,Left,
22,15,1,3.750805499999842,['n'],0,left,['u'],0,0.3207355999984429,0.2,1,0,AccFast,26,18,Woman,Left,
23,15,1,3.1007104000018444,['n'],1,right,['e'],1,0.4424179000016011,0.4,1,0,AccFast,26,18,Woman,Left,
24,15,1,1.3659692000001087,['n'],1,right,['e'],1,0.34238969999933033,0.4,1,0,AccFast,26,18,Woman,Left,
25,15,1,2.5344354000008025,['c'],0,right,['u'],0,0.26067259999763337,0.1,1,0,AccFast,26,18,Woman,Left,
26,15,1,3.6845893999998225,['n'],1,right,['u'],0,0.33013600000049337,0.4,0,0,AccFast,26,18,Woman,Left,
27,15,1,0.7009586999993189,['n'],1,right,['e'],1,0.3073197000012442,0.2,1,0,AccFast,26,18,Woman,Left,
28,15,1,5.00007689999984,x,-99,right,none,-99,-99,0.1,-99,1,AccFast,26,18,Woman,Left,
29,15,1,2.100307699998666,['n'],1,right,['e'],1,0.32060529999944265,0.1,1,0,AccFast,26,18,Woman,Left,
30,15,1,2.0843970000023546,['n'],0,left,['u'],0,0.32308670000202255,0.1,1,0,AccFast,26,18,Woman,Left,
31,15,1,5.016394300000684,x,-99,right,none,-99,-99,0.1,-99,1,AccFast,26,18,Woman,Left,
32,15,1,0.9342735999998695,['n'],0,left,['u'],0,0.2537946999982523,0.1,1,0,AccFast,26,18,Woman,Left,
33,15,1,0.8349426000022504,['n'],0,left,['e'],1,0.3248535999991873,0.2,0,0,AccFast,26,18,Woman,Left,
34,15,1,1.434753900000942,['c'],0,right,['u'],0,0.35332950000156416,0.2,1,0,AccFast,26,18,Woman,Left,
35,15,1,3.250811900001281,['n'],1,right,['e'],1,0.3398386000008031,0.4,1,0,AccFast,26,18,Woman,Left,
36,15,1,3.5013650999972015,['c'],0,right,['u'],0,0.8132028999971226,0.4,1,0,AccFast,26,18,Woman,Left,
37,15,1,1.3335607000008167,['n'],1,right,['u'],0,0.24987310000142315,0.1,0,0,AccFast,26,18,Woman,Left,
38,15,1,1.5007717000007688,['n'],0,left,['u'],0,0.27863730000171927,0.2,1,0,AccFast,26,18,Woman,Left,
39,15,1,1.0513839000013832,['n'],0,left,['u'],0,0.25974370000039926,0.4,1,0,AccFast,26,18,Woman,Left,
40,15,1,2.601340099998197,['c'],1,left,['u'],0,0.43639940000139177,0.1,0,0,AccFast,26,18,Woman,Left,
41,15,1,3.3010877999986405,['n'],0,left,['e'],1,0.8975358999996388,0.2,0,0,AccFast,26,18,Woman,Left,
42,15,1,1.4181504000007408,['n'],1,right,['u'],0,0.4234169000010297,0.2,0,0,AccFast,26,18,Woman,Left,
43,15,1,4.417379499998788,['n'],0,left,['u'],0,5.128662699997221,0.1,1,0,AccFast,26,18,Woman,Left,
44,15,1,0.7343347999994876,['n'],0,left,['e'],1,0.3371002999992925,0.4,0,0,AccFast,26,18,Woman,Left,
45,15,1,0.5346738000007463,['n'],0,left,['e'],1,0.2886260000013863,0.4,0,0,AccFast,26,18,Woman,Left,
46,15,1,0.36795359999814536,['c'],1,left,['u'],0,0.24905529999887221,0.2,0,0,AccFast,26,18,Woman,Left,
47,15,1,0.3179528000000573,['n'],1,right,['e'],1,0.2604014999997162,0.4,1,0,AccFast,26,18,Woman,Left,
48,15,1,0.2683120000001509,['n'],0,left,['e'],1,0.22595189999992726,0.2,0,0,AccFast,26,18,Woman,Left,
49,15,1,0.5019773000021814,['c'],1,left,['u'],0,0.199607599999581,0.4,0,0,AccFast,26,18,Woman,Left,
50,15,1,0.5852339999983087,['n'],0,left,['e'],1,0.25047540000014124,0.4,0,0,AccFast,26,18,Woman,Left,
51,15,1,0.5349052999990818,['n'],1,right,['e'],1,0.20553540000037174,0.1,1,0,AccFast,26,18,Woman,Left,
52,15,1,0.5838736000005156,['n'],1,right,['u'],0,0.4964352000024519,0.1,0,0,AccFast,26,18,Woman,Left,
53,15,1,0.2679080999987491,['n'],1,right,['e'],1,0.19614919999730773,0.4,1,0,AccFast,26,18,Woman,Left,
54,15,1,0.24951480000163428,['n'],0,left,['e'],1,0.18161630000031437,0.1,0,0,AccFast,26,18,Woman,Left,
55,15,1,0.23343250000107219,['c'],0,right,['u'],0,0.13535140000021784,0.2,1,0,AccFast,26,18,Woman,Left,
56,15,1,0.5008395000004384,['n'],0,left,['e'],1,0.17615049999949406,0.2,0,0,AccFast,26,18,Woman,Left,
57,15,1,1.6844688999990467,['c'],0,right,['u'],0,0.3433536999982607,0.1,1,0,AccFast,26,18,Woman,Left,
58,15,1,0.45169869999881485,['n'],0,left,['e'],1,0.15437609999935376,0.4,0,0,AccFast,26,18,Woman,Left,
59,15,1,1.4004132999980357,['c'],1,left,['u'],0,0.174924099999771,0.4,0,0,AccFast,26,18,Woman,Left,
