withinblocktrial,block,block_repetition,rt,resp,cor,cresp,conf_press,cj,rtconf,coherence,metacognition,slow_trial,manipulation,sub,age,gender,handedness,
0,1,1,1.5496716000006927,['n'],0,left,none,-99,-99,0.5,-99,0,none,32,18,Woman,Right,
1,1,1,1.1496642000001884,['n'],1,right,none,-99,-99,0.5,-99,0,none,32,18,Woman,Right,
2,1,1,2.1345125999996526,['c'],1,left,none,-99,-99,0.5,-99,0,none,32,18,Woman,Right,
3,1,1,1.1678548999998384,['n'],0,left,none,-99,-99,0.5,-99,0,none,32,18,Woman,Right,
4,1,1,0.8340430999996897,['n'],1,right,none,-99,-99,0.5,-99,0,none,32,18,Woman,Right,
5,1,1,1.6152258000001893,['n'],1,right,none,-99,-99,0.5,-99,0,none,32,18,Woman,Right,
6,1,1,1.6515435000001162,['c'],0,right,none,-99,-99,0.5,-99,0,none,32,18,Woman,Right,
7,1,1,1.0341287000001103,['n'],0,left,none,-99,-99,0.5,-99,0,none,32,18,Woman,Right,
8,1,1,1.6326386999999158,['n'],1,right,none,-99,-99,0.5,-99,0,none,32,18,Woman,Right,
9,1,1,2.6334026000004087,['c'],0,right,none,-99,-99,0.5,-99,0,none,32,18,Woman,Right,
10,1,1,1.5012586999991981,['n'],0,left,none,-99,-99,0.5,-99,0,none,32,18,Woman,Right,
11,1,1,3.166708799999469,['n'],1,right,none,-99,-99,0.5,-99,0,none,32,18,Woman,Right,
12,1,1,1.8993997999996282,['n'],1,right,none,-99,-99,0.5,-99,0,none,32,18,Woman,Right,
13,1,1,2.1009908999994877,['n'],0,left,none,-99,-99,0.5,-99,0,none,32,18,Woman,Right,
14,1,1,2.9676645999998073,['c'],1,left,none,-99,-99,0.5,-99,0,none,32,18,Woman,Right,
15,1,1,1.8176323999996384,['n'],1,right,none,-99,-99,0.5,-99,0,none,32,18,Woman,Right,
16,1,1,2.2670838999993066,['c'],0,right,none,-99,-99,0.5,-99,0,none,32,18,Woman,Right,
17,1,1,1.366541600000346,['n'],1,right,none,-99,-99,0.5,-99,0,none,32,18,Woman,Right,
18,1,1,2.3328777000006085,['n'],0,left,none,-99,-99,0.5,-99,0,none,32,18,Woman,Right,
19,1,1,2.2327318000006926,['n'],0,left,none,-99,-99,0.5,-99,0,none,32,18,Woman,Right,
20,1,1,2.7170101000001523,['n'],0,left,none,-99,-99,0.5,-99,0,none,32,18,Woman,Right,
21,1,1,1.982984100000067,['c'],0,right,none,-99,-99,0.5,-99,0,none,32,18,Woman,Right,
22,1,1,1.9501393000000462,['n'],0,left,none,-99,-99,0.5,-99,0,none,32,18,Woman,Right,
23,1,1,3.250062799999796,['c'],1,left,none,-99,-99,0.5,-99,0,none,32,18,Woman,Right,
0,1,2,0.9196983000001637,['n'],0,left,none,-99,-99,0.5,-99,0,none,32,18,Woman,Right,
1,1,2,1.3169654000002993,['n'],1,right,none,-99,-99,0.5,-99,0,none,32,18,Woman,Right,
2,1,2,1.832539199999701,['c'],0,right,none,-99,-99,0.5,-99,0,none,32,18,Woman,Right,
3,1,2,1.4493075999998837,['n'],1,right,none,-99,-99,0.5,-99,0,none,32,18,Woman,Right,
4,1,2,1.6491170999997848,['n'],1,right,none,-99,-99,0.5,-99,0,none,32,18,Woman,Right,
5,1,2,1.1843963999999687,['n'],1,right,none,-99,-99,0.5,-99,0,none,32,18,Woman,Right,
6,1,2,1.5333222999997815,['c'],0,right,none,-99,-99,0.5,-99,0,none,32,18,Woman,Right,
7,1,2,1.3668740999992224,['n'],0,left,none,-99,-99,0.5,-99,0,none,32,18,Woman,Right,
8,1,2,2.416130100000373,['c'],1,left,none,-99,-99,0.5,-99,0,none,32,18,Woman,Right,
9,1,2,1.8012087000006431,['n'],0,left,none,-99,-99,0.5,-99,0,none,32,18,Woman,Right,
10,1,2,2.300844999999754,['n'],1,right,none,-99,-99,0.5,-99,0,none,32,18,Woman,Right,
11,1,2,2.218140400000266,['n'],0,left,none,-99,-99,0.5,-99,0,none,32,18,Woman,Right,
12,1,2,1.7159189000003607,['c'],1,left,none,-99,-99,0.5,-99,0,none,32,18,Woman,Right,
13,1,2,1.7503960000003644,['c'],1,left,none,-99,-99,0.5,-99,0,none,32,18,Woman,Right,
14,1,2,0.9022645000004559,['n'],1,right,none,-99,-99,0.5,-99,0,none,32,18,Woman,Right,
15,1,2,1.5177886000001308,['c'],1,left,none,-99,-99,0.5,-99,0,none,32,18,Woman,Right,
16,1,2,1.15111429999979,['n'],1,right,none,-99,-99,0.5,-99,0,none,32,18,Woman,Right,
17,1,2,1.5169943999999305,['n'],0,left,none,-99,-99,0.5,-99,0,none,32,18,Woman,Right,
18,1,2,0.7502576999995654,['n'],1,right,none,-99,-99,0.5,-99,0,none,32,18,Woman,Right,
19,1,2,1.0164056000003256,['c'],1,left,none,-99,-99,0.5,-99,0,none,32,18,Woman,Right,
20,1,2,0.9991983999998411,['n'],1,right,none,-99,-99,0.5,-99,0,none,32,18,Woman,Right,
21,1,2,1.050403400000505,['c'],1,left,none,-99,-99,0.5,-99,0,none,32,18,Woman,Right,
22,1,2,1.3345255000003817,['n'],0,left,none,-99,-99,0.5,-99,0,none,32,18,Woman,Right,
23,1,2,0.9319822999996177,['n'],1,right,none,-99,-99,0.5,-99,0,none,32,18,Woman,Right,
0,1,3,0.8002454000006765,['n'],1,right,none,-99,-99,0.5,-99,0,none,32,18,Woman,Right,
1,1,3,0.8669110000000728,['c'],0,right,none,-99,-99,0.5,-99,0,none,32,18,Woman,Right,
2,1,3,0.7003380999994988,['n'],1,right,none,-99,-99,0.5,-99,0,none,32,18,Woman,Right,
3,1,3,1.134068400000615,['c'],0,right,none,-99,-99,0.5,-99,0,none,32,18,Woman,Right,
4,1,3,0.6006330000000162,['n'],1,right,none,-99,-99,0.5,-99,0,none,32,18,Woman,Right,
5,1,3,1.617337700000462,['n'],0,left,none,-99,-99,0.5,-99,0,none,32,18,Woman,Right,
6,1,3,1.5006499999999505,['c'],1,left,none,-99,-99,0.5,-99,0,none,32,18,Woman,Right,
7,1,3,1.3012681000000157,['c'],0,right,none,-99,-99,0.5,-99,0,none,32,18,Woman,Right,
8,1,3,1.5004666999993788,['c'],1,left,none,-99,-99,0.5,-99,0,none,32,18,Woman,Right,
9,1,3,0.7842196999999942,['n'],1,right,none,-99,-99,0.5,-99,0,none,32,18,Woman,Right,
10,1,3,0.8009943999995812,['c'],1,left,none,-99,-99,0.5,-99,0,none,32,18,Woman,Right,
11,1,3,0.8166435999992245,['n'],1,right,none,-99,-99,0.5,-99,0,none,32,18,Woman,Right,
12,1,3,0.8351841000003333,['n'],1,right,none,-99,-99,0.5,-99,0,none,32,18,Woman,Right,
13,1,3,0.733914200000072,['c'],1,left,none,-99,-99,0.5,-99,0,none,32,18,Woman,Right,
14,1,3,0.7004796999999598,['n'],1,right,none,-99,-99,0.5,-99,0,none,32,18,Woman,Right,
15,1,3,0.7180809999999838,['c'],1,left,none,-99,-99,0.5,-99,0,none,32,18,Woman,Right,
16,1,3,0.5995044000001144,['n'],0,left,none,-99,-99,0.5,-99,0,none,32,18,Woman,Right,
17,1,3,0.6004708999998911,['n'],1,right,none,-99,-99,0.5,-99,0,none,32,18,Woman,Right,
18,1,3,0.7014391000002433,['c'],1,left,none,-99,-99,0.5,-99,0,none,32,18,Woman,Right,
19,1,3,0.73261199999979,['n'],0,left,none,-99,-99,0.5,-99,0,none,32,18,Woman,Right,
20,1,3,1.4013334000001123,['n'],1,right,none,-99,-99,0.5,-99,0,none,32,18,Woman,Right,
21,1,3,0.6486598000001322,['c'],1,left,none,-99,-99,0.5,-99,0,none,32,18,Woman,Right,
22,1,3,1.0173442000004798,['n'],0,left,none,-99,-99,0.5,-99,0,none,32,18,Woman,Right,
23,1,3,1.1008663000002343,['c'],1,left,none,-99,-99,0.5,-99,0,none,32,18,Woman,Right,
0,1,4,0.9175968999998076,['c'],1,left,none,-99,-99,0.5,-99,0,none,32,18,Woman,Right,
1,1,4,1.433570299999701,['c'],1,left,none,-99,-99,0.5,-99,0,none,32,18,Woman,Right,
2,1,4,0.6500698999998349,['c'],1,left,none,-99,-99,0.5,-99,0,none,32,18,Woman,Right,
3,1,4,0.8183948999994755,['n'],1,right,none,-99,-99,0.5,-99,0,none,32,18,Woman,Right,
4,1,4,0.7669850999991468,['c'],1,left,none,-99,-99,0.5,-99,0,none,32,18,Woman,Right,
5,1,4,1.017702900000586,['n'],0,left,none,-99,-99,0.5,-99,0,none,32,18,Woman,Right,
6,1,4,0.8837076999998317,['c'],1,left,none,-99,-99,0.5,-99,0,none,32,18,Woman,Right,
7,1,4,1.1177341000002343,['c'],1,left,none,-99,-99,0.5,-99,0,none,32,18,Woman,Right,
8,1,4,1.3159975999997187,['n'],1,right,none,-99,-99,0.5,-99,0,none,32,18,Woman,Right,
9,1,4,1.5667540999993435,['c'],0,right,none,-99,-99,0.5,-99,0,none,32,18,Woman,Right,
10,1,4,0.5667154000002483,['n'],1,right,none,-99,-99,0.5,-99,0,none,32,18,Woman,Right,
11,1,4,0.8680414000000383,['c'],0,right,none,-99,-99,0.5,-99,0,none,32,18,Woman,Right,
12,1,4,1.1985475999999835,['n'],0,left,none,-99,-99,0.5,-99,0,none,32,18,Woman,Right,
13,1,4,1.6007681000000957,['n'],1,right,none,-99,-99,0.5,-99,0,none,32,18,Woman,Right,
14,1,4,1.533760400000574,['n'],1,right,none,-99,-99,0.5,-99,0,none,32,18,Woman,Right,
15,1,4,0.717921500000557,['n'],1,right,none,-99,-99,0.5,-99,0,none,32,18,Woman,Right,
16,1,4,0.932382900000448,['c'],0,right,none,-99,-99,0.5,-99,0,none,32,18,Woman,Right,
17,1,4,0.7827787000005628,['n'],1,right,none,-99,-99,0.5,-99,0,none,32,18,Woman,Right,
18,1,4,0.5990491000002294,['c'],1,left,none,-99,-99,0.5,-99,0,none,32,18,Woman,Right,
19,1,4,0.7189330000001064,['n'],1,right,none,-99,-99,0.5,-99,0,none,32,18,Woman,Right,
20,1,4,1.2161722000000736,['c'],1,left,none,-99,-99,0.5,-99,0,none,32,18,Woman,Right,
21,1,4,0.6675543000001198,['c'],1,left,none,-99,-99,0.5,-99,0,none,32,18,Woman,Right,
22,1,4,1.1180623999998716,['c'],1,left,none,-99,-99,0.5,-99,0,none,32,18,Woman,Right,
23,1,4,0.6678095999996003,['n'],1,right,none,-99,-99,0.5,-99,0,none,32,18,Woman,Right,
0,1,5,2.1692282000003615,['c'],1,left,none,-99,-99,0.5,-99,0,none,32,18,Woman,Right,
1,1,5,0.7007203999992271,['n'],1,right,none,-99,-99,0.5,-99,0,none,32,18,Woman,Right,
2,1,5,1.2323679999999513,['n'],1,right,none,-99,-99,0.5,-99,0,none,32,18,Woman,Right,
3,1,5,0.8674007999998139,['c'],1,left,none,-99,-99,0.5,-99,0,none,32,18,Woman,Right,
4,1,5,0.684636999999384,['n'],1,right,none,-99,-99,0.5,-99,0,none,32,18,Woman,Right,
5,1,5,0.8326514000000316,['c'],1,left,none,-99,-99,0.5,-99,0,none,32,18,Woman,Right,
6,1,5,0.6013335999996343,['c'],1,left,none,-99,-99,0.5,-99,0,none,32,18,Woman,Right,
7,1,5,0.5848379999997633,['n'],1,right,none,-99,-99,0.5,-99,0,none,32,18,Woman,Right,
8,1,5,1.1668143999995664,['n'],1,right,none,-99,-99,0.5,-99,0,none,32,18,Woman,Right,
9,1,5,0.6344408000004478,['n'],1,right,none,-99,-99,0.5,-99,0,none,32,18,Woman,Right,
10,1,5,0.6186260999993465,['c'],1,left,none,-99,-99,0.5,-99,0,none,32,18,Woman,Right,
11,1,5,0.6340910999997504,['c'],1,left,none,-99,-99,0.5,-99,0,none,32,18,Woman,Right,
12,1,5,0.6181041999998342,['n'],1,right,none,-99,-99,0.5,-99,0,none,32,18,Woman,Right,
13,1,5,0.6843890000000101,['c'],1,left,none,-99,-99,0.5,-99,0,none,32,18,Woman,Right,
14,1,5,0.7334455000000162,['n'],1,right,none,-99,-99,0.5,-99,0,none,32,18,Woman,Right,
15,1,5,0.7347312000001693,['n'],1,right,none,-99,-99,0.5,-99,0,none,32,18,Woman,Right,
16,1,5,0.65011929999946,['c'],1,left,none,-99,-99,0.5,-99,0,none,32,18,Woman,Right,
17,1,5,0.616919300000518,['n'],1,right,none,-99,-99,0.5,-99,0,none,32,18,Woman,Right,
18,1,5,0.40205599999990227,['c'],1,left,none,-99,-99,0.5,-99,0,none,32,18,Woman,Right,
19,1,5,1.7185989999998128,['n'],0,left,none,-99,-99,0.5,-99,0,none,32,18,Woman,Right,
20,1,5,1.115836599999966,['c'],1,left,none,-99,-99,0.5,-99,0,none,32,18,Woman,Right,
21,1,5,0.6508723999995709,['n'],1,right,none,-99,-99,0.5,-99,0,none,32,18,Woman,Right,
22,1,5,1.7496860000001107,['n'],1,right,none,-99,-99,0.5,-99,0,none,32,18,Woman,Right,
23,1,5,0.5676461999992171,['c'],1,left,none,-99,-99,0.5,-99,0,none,32,18,Woman,Right,
0,2,1,1.516823299999487,['n'],1,right,none,-99,-99,0.1,-99,0,none,32,18,Woman,Right,
1,2,1,1.2500805999998192,['c'],1,left,none,-99,-99,0.4,-99,0,none,32,18,Woman,Right,
2,2,1,1.101273499999479,['n'],0,left,none,-99,-99,0.2,-99,0,none,32,18,Woman,Right,
3,2,1,0.934298399999534,['n'],1,right,none,-99,-99,0.2,-99,0,none,32,18,Woman,Right,
4,2,1,1.384473899999648,['n'],1,right,none,-99,-99,0.1,-99,0,none,32,18,Woman,Right,
5,2,1,1.1004357000001619,['c'],0,right,none,-99,-99,0.1,-99,0,none,32,18,Woman,Right,
6,2,1,1.5845876000003045,['c'],1,left,none,-99,-99,0.1,-99,0,none,32,18,Woman,Right,
7,2,1,0.783135200000288,['c'],1,left,none,-99,-99,0.4,-99,0,none,32,18,Woman,Right,
8,2,1,1.2494454000006954,['n'],0,left,none,-99,-99,0.2,-99,0,none,32,18,Woman,Right,
9,2,1,1.5022618000002694,['c'],1,left,none,-99,-99,0.2,-99,0,none,32,18,Woman,Right,
10,2,1,1.0164607999995496,['c'],1,left,none,-99,-99,0.4,-99,0,none,32,18,Woman,Right,
11,2,1,0.7003343000005771,['n'],1,right,none,-99,-99,0.4,-99,0,none,32,18,Woman,Right,
12,2,1,0.9516796999996586,['c'],0,right,none,-99,-99,0.2,-99,0,none,32,18,Woman,Right,
13,2,1,0.8498030999999173,['n'],1,right,none,-99,-99,0.1,-99,0,none,32,18,Woman,Right,
14,2,1,1.2852050000001327,['n'],0,left,none,-99,-99,0.2,-99,0,none,32,18,Woman,Right,
15,2,1,0.7678544000000329,['n'],0,left,none,-99,-99,0.4,-99,0,none,32,18,Woman,Right,
16,2,1,0.933911099999932,['n'],1,right,none,-99,-99,0.4,-99,0,none,32,18,Woman,Right,
17,2,1,1.516301900000144,['n'],0,left,none,-99,-99,0.1,-99,0,none,32,18,Woman,Right,
18,2,1,1.049519500000315,['c'],1,left,none,-99,-99,0.1,-99,0,none,32,18,Woman,Right,
19,2,1,0.6675074000004315,['c'],1,left,none,-99,-99,0.4,-99,0,none,32,18,Woman,Right,
20,2,1,1.0690825000001496,['n'],1,right,none,-99,-99,0.1,-99,0,none,32,18,Woman,Right,
21,2,1,1.167262099999789,['c'],0,right,none,-99,-99,0.2,-99,0,none,32,18,Woman,Right,
22,2,1,1.08236289999968,['n'],1,right,none,-99,-99,0.4,-99,0,none,32,18,Woman,Right,
23,2,1,0.8995197000003827,['n'],1,right,none,-99,-99,0.2,-99,0,none,32,18,Woman,Right,
0,3,1,2.4833840000001146,['n'],0,left,['u'],0,1.1640718999997262,0.4,1,0,none,32,18,Woman,Right,
1,3,1,1.3180264000002353,['n'],1,right,['e'],1,0.6545452000000296,0.1,1,0,none,32,18,Woman,Right,
2,3,1,2.333821899999748,['n'],0,left,['u'],0,0.541596799999752,0.2,1,0,none,32,18,Woman,Right,
3,3,1,1.784686399999373,['c'],1,left,['e'],1,1.1591465999999855,0.2,1,0,none,32,18,Woman,Right,
4,3,1,1.1506849000006696,['n'],0,left,['e'],1,0.6422482999996646,0.2,0,0,none,32,18,Woman,Right,
5,3,1,1.0187085000006846,['n'],1,right,['e'],1,0.5497479000005114,0.4,1,0,none,32,18,Woman,Right,
6,3,1,2.3010684000000765,['n'],1,right,['u'],0,0.5221521999992547,0.4,0,0,none,32,18,Woman,Right,
7,3,1,2.267023400000653,['n'],1,right,['e'],1,0.3539122000001953,0.4,1,0,none,32,18,Woman,Right,
8,3,1,1.151298499999939,['c'],1,left,['e'],1,0.41161449999981414,0.1,1,0,none,32,18,Woman,Right,
9,3,1,1.5010694000002331,['n'],1,right,['e'],1,0.8058447000003071,0.1,1,0,none,32,18,Woman,Right,
10,3,1,1.8168062000004284,['n'],1,right,['e'],1,0.611581400000432,0.2,1,0,none,32,18,Woman,Right,
11,3,1,1.5842401999998401,['n'],1,right,['e'],1,0.30746799999997165,0.4,1,0,none,32,18,Woman,Right,
12,3,1,1.0183697000002212,['c'],1,left,['e'],1,0.6289592000002813,0.1,1,0,none,32,18,Woman,Right,
13,3,1,1.418026800000007,['n'],1,right,['e'],1,0.5698587999995652,0.2,1,0,none,32,18,Woman,Right,
14,3,1,1.6680302000004303,['n'],0,left,['u'],0,0.9981958999997005,0.1,1,0,none,32,18,Woman,Right,
15,3,1,1.2513991999994687,['n'],1,right,['e'],1,0.29056430000036926,0.4,1,0,none,32,18,Woman,Right,
16,3,1,1.4525912999997672,['c'],0,right,['e'],1,0.3394789000003584,0.2,0,0,none,32,18,Woman,Right,
17,3,1,2.4018394000004264,['n'],1,right,['u'],0,0.797338000000309,0.1,0,0,none,32,18,Woman,Right,
18,3,1,1.251094600000215,['c'],1,left,['e'],1,0.32172129999980825,0.2,1,0,none,32,18,Woman,Right,
19,3,1,1.7010599999994156,['c'],1,left,['e'],1,0.24658460000046034,0.1,1,0,none,32,18,Woman,Right,
20,3,1,3.3007532999999967,['c'],1,left,['u'],0,0.43101409999962925,0.2,0,0,none,32,18,Woman,Right,
21,3,1,1.4512125999999625,['c'],1,left,['e'],1,0.5858972000005451,0.4,1,0,none,32,18,Woman,Right,
22,3,1,0.8346609999998691,['n'],1,right,['e'],1,0.34354029999940394,0.4,1,0,none,32,18,Woman,Right,
23,3,1,2.2181054000002405,['c'],1,left,['u'],0,0.503885199999786,0.1,0,0,none,32,18,Woman,Right,
0,4,1,4.49949960000049,['n'],0,left,['u'],0,0.22739780000119936,0.2,1,0,AccFast,32,18,Woman,Right,
1,4,1,3.5658292999996775,['c'],1,left,['u'],0,0.19064849999995204,0.2,0,0,AccFast,32,18,Woman,Right,
2,4,1,3.1026133999985177,['n'],0,left,['u'],0,0.22096500000043306,0.2,1,0,AccFast,32,18,Woman,Right,
3,4,1,3.268207100001746,['c'],0,right,['u'],0,0.10015039999962028,0.1,1,0,AccFast,32,18,Woman,Right,
4,4,1,2.534662099998968,['n'],1,right,['u'],0,0.26932010000018636,0.2,0,0,AccFast,32,18,Woman,Right,
5,4,1,3.0677925999989384,['c'],0,right,['e'],1,0.2346683000014309,0.1,0,0,AccFast,32,18,Woman,Right,
6,4,1,2.3017275000001973,['n'],0,left,['u'],0,0.18355440000050294,0.2,1,0,AccFast,32,18,Woman,Right,
7,4,1,4.701264299999821,['n'],1,right,['u'],0,0.16704980000031355,0.1,0,0,AccFast,32,18,Woman,Right,
8,4,1,3.2672512999997707,['n'],0,left,['u'],0,0.5122160000009899,0.2,1,0,AccFast,32,18,Woman,Right,
9,4,1,2.0998795999985305,['c'],1,left,['u'],0,0.34647919999952137,0.4,0,0,AccFast,32,18,Woman,Right,
10,4,1,2.1002133000001777,['n'],1,right,['e'],1,0.33031540000047244,0.2,1,0,AccFast,32,18,Woman,Right,
11,4,1,2.3180258000011236,['c'],0,right,['u'],0,0.17952019999938784,0.1,1,0,AccFast,32,18,Woman,Right,
12,4,1,1.8496506000010413,['c'],1,left,['u'],0,0.14930119999917224,0.1,0,0,AccFast,32,18,Woman,Right,
13,4,1,1.1997636000014609,['n'],1,right,['e'],1,0.14502600000014354,0.4,1,0,AccFast,32,18,Woman,Right,
14,4,1,0.9160167000009096,['c'],1,left,['e'],1,0.2334114999994199,0.4,1,0,AccFast,32,18,Woman,Right,
15,4,1,1.517788199998904,['n'],1,right,['e'],1,0.19693279999955848,0.2,1,0,AccFast,32,18,Woman,Right,
16,4,1,1.8345198999995773,['c'],1,left,['u'],0,0.11776020000070275,0.1,0,0,AccFast,32,18,Woman,Right,
17,4,1,2.483193600000959,['n'],1,right,['u'],0,0.1609267000003456,0.1,0,0,AccFast,32,18,Woman,Right,
18,4,1,1.9006859000000986,['n'],1,right,['e'],1,0.1449217999997927,0.4,1,0,AccFast,32,18,Woman,Right,
19,4,1,1.2665864000009606,['c'],1,left,['e'],1,0.17191410000123142,0.4,1,0,AccFast,32,18,Woman,Right,
20,4,1,2.115854499999841,['n'],1,right,['u'],0,0.1793417999997473,0.1,0,0,AccFast,32,18,Woman,Right,
21,4,1,1.001279699999941,['n'],1,right,['e'],1,0.1500421999990067,0.4,1,0,AccFast,32,18,Woman,Right,
22,4,1,1.15083869999944,['c'],1,left,['e'],1,0.19715249999899243,0.2,1,0,AccFast,32,18,Woman,Right,
23,4,1,1.0180256000003283,['n'],1,right,['e'],1,0.13348760000008042,0.4,1,0,AccFast,32,18,Woman,Right,
24,4,1,1.5501941000002262,['c'],1,left,['e'],1,0.19639579999966372,0.2,1,0,AccFast,32,18,Woman,Right,
25,4,1,2.0683649000002333,['n'],1,right,['e'],1,0.20431839999946533,0.4,1,0,AccFast,32,18,Woman,Right,
26,4,1,1.7668778999995993,['n'],0,left,['u'],0,0.1597154999999475,0.1,1,0,AccFast,32,18,Woman,Right,
27,4,1,1.9340721000007761,['c'],1,left,['u'],0,0.11088120000022172,0.4,0,0,AccFast,32,18,Woman,Right,
28,4,1,1.30115399999886,['c'],1,left,['e'],1,0.04138599999896542,0.4,1,0,AccFast,32,18,Woman,Right,
29,4,1,2.81719990000056,['n'],0,left,['u'],0,0.1377080999991449,0.2,1,0,AccFast,32,18,Woman,Right,
30,4,1,3.6016187999994145,['c'],1,left,['u'],0,0.10400730000037584,0.2,0,0,AccFast,32,18,Woman,Right,
31,4,1,2.301097599998684,['n'],1,right,['e'],1,0.12142690000109724,0.4,1,0,AccFast,32,18,Woman,Right,
32,4,1,2.6833803999998054,['n'],1,right,['e'],1,0.2686171999994258,0.1,1,0,AccFast,32,18,Woman,Right,
33,4,1,2.3337123000001156,['n'],1,right,['e'],1,0.15038350000031642,0.1,1,0,AccFast,32,18,Woman,Right,
34,4,1,2.0010043999991467,['c'],1,left,['e'],1,0.17835070000000997,0.4,1,0,AccFast,32,18,Woman,Right,
35,4,1,2.6841487000001507,['n'],0,left,['u'],0,0.16263579999940703,0.1,1,0,AccFast,32,18,Woman,Right,
36,4,1,2.2014058000004297,['n'],0,left,['e'],1,0.19834420000006503,0.1,0,0,AccFast,32,18,Woman,Right,
37,4,1,1.5350568000012572,['c'],1,left,['e'],1,0.7874307000001863,0.2,1,0,AccFast,32,18,Woman,Right,
38,4,1,1.4169160999990709,['n'],1,right,['e'],1,0.12601720000020578,0.2,1,0,AccFast,32,18,Woman,Right,
39,4,1,3.6676012000007177,['c'],0,right,['u'],0,0.15290460000142048,0.2,1,0,AccFast,32,18,Woman,Right,
40,4,1,0.7683510000006208,['n'],1,right,['e'],1,0.13441819999934523,0.4,1,0,AccFast,32,18,Woman,Right,
41,4,1,2.301252499999464,['n'],1,right,['e'],1,0.10360009999931208,0.4,1,0,AccFast,32,18,Woman,Right,
42,4,1,1.9332446000007621,['n'],1,right,['e'],1,0.07282740000118793,0.4,1,0,AccFast,32,18,Woman,Right,
43,4,1,2.933637099999032,['c'],1,left,['e'],1,0.5630662000003213,0.1,1,0,AccFast,32,18,Woman,Right,
44,4,1,1.2003913999997167,['n'],1,right,['e'],1,0.11157740000089689,0.4,1,0,AccFast,32,18,Woman,Right,
45,4,1,2.2334076999995887,['c'],1,left,['e'],1,0.1806149000003643,0.2,1,0,AccFast,32,18,Woman,Right,
46,4,1,2.901089500001035,['n'],1,right,['u'],0,0.3952129999997851,0.1,0,0,AccFast,32,18,Woman,Right,
47,4,1,1.03458800000044,['n'],1,right,['e'],1,0.08424199999899429,0.4,1,0,AccFast,32,18,Woman,Right,
48,4,1,2.1846602000005078,['c'],0,right,['u'],0,0.2836618000001181,0.1,1,0,AccFast,32,18,Woman,Right,
49,4,1,1.2015439000006154,['c'],1,left,['e'],1,0.14662510000016482,0.4,1,0,AccFast,32,18,Woman,Right,
50,4,1,2.801318899999387,['n'],1,right,['u'],0,0.1752628000012919,0.1,0,0,AccFast,32,18,Woman,Right,
51,4,1,1.5178061999995407,['n'],1,right,['e'],1,0.19058899999981804,0.2,1,0,AccFast,32,18,Woman,Right,
52,4,1,2.4842571999997745,['n'],1,right,['u'],0,0.21487249999881897,0.2,0,0,AccFast,32,18,Woman,Right,
53,4,1,1.3177130999993096,['n'],1,right,['e'],1,0.07525290000012319,0.4,1,0,AccFast,32,18,Woman,Right,
54,4,1,2.049817200000689,['n'],0,left,['e'],1,0.16938309999932244,0.1,0,0,AccFast,32,18,Woman,Right,
55,4,1,1.6836330000005546,['c'],1,left,['e'],1,0.09731549999924027,0.2,1,0,AccFast,32,18,Woman,Right,
56,4,1,1.5346351999996841,['c'],1,left,['e'],1,0.25797269999929995,0.4,1,0,AccFast,32,18,Woman,Right,
57,4,1,2.9514101999993727,['n'],0,left,['u'],0,0.21262690000003204,0.1,1,0,AccFast,32,18,Woman,Right,
58,4,1,2.0340570999997,['c'],1,left,['u'],0,0.17314420000002428,0.1,0,0,AccFast,32,18,Woman,Right,
59,4,1,1.965192700001353,['c'],1,left,['u'],0,0.09157310000045982,0.2,0,0,AccFast,32,18,Woman,Right,
0,5,1,1.751175700001113,['n'],1,right,['e'],1,1.8131741999986843,0.4,1,0,AccAcc,32,18,Woman,Right,
1,5,1,2.61731250000048,['n'],0,left,['u'],0,0.2782956999999442,0.2,1,0,AccAcc,32,18,Woman,Right,
2,5,1,3.2837013000007573,['n'],0,left,['u'],0,0.938188899999659,0.1,1,0,AccAcc,32,18,Woman,Right,
3,5,1,1.7681281000004674,['c'],1,left,['u'],0,0.4006336000002193,0.2,0,0,AccAcc,32,18,Woman,Right,
4,5,1,1.6834617999993498,['c'],1,left,['e'],1,0.367614799999501,0.1,1,0,AccAcc,32,18,Woman,Right,
5,5,1,1.6659947000007378,['n'],0,left,['e'],1,0.8645799999994779,0.4,0,0,AccAcc,32,18,Woman,Right,
6,5,1,2.7677100999990216,['n'],1,right,['u'],0,0.7220445000002655,0.2,0,0,AccAcc,32,18,Woman,Right,
7,5,1,3.2672017000004416,['n'],0,left,['u'],0,0.2466201999995974,0.1,1,0,AccAcc,32,18,Woman,Right,
8,5,1,3.7662474999997357,['n'],0,left,['u'],0,0.48722149999957765,0.1,1,0,AccAcc,32,18,Woman,Right,
9,5,1,1.1676150000002963,['n'],1,right,['e'],1,0.26434149999840884,0.4,1,0,AccAcc,32,18,Woman,Right,
10,5,1,3.83344070000021,['n'],1,right,['u'],0,0.8068512000008923,0.1,0,0,AccAcc,32,18,Woman,Right,
11,5,1,2.9175764999999956,['n'],0,left,['u'],0,0.883897399999114,0.1,1,0,AccAcc,32,18,Woman,Right,
12,5,1,2.8828260999998747,['n'],0,left,['u'],0,0.49636699999973644,0.4,1,0,AccAcc,32,18,Woman,Right,
13,5,1,2.8996560999985377,['c'],0,right,['u'],0,0.5868229000006977,0.1,1,0,AccAcc,32,18,Woman,Right,
14,5,1,2.150562799999534,['c'],1,left,['u'],0,0.5123377999989316,0.1,0,0,AccAcc,32,18,Woman,Right,
15,5,1,3.5842611999996734,['n'],0,left,['u'],0,0.3190742999995564,0.1,1,0,AccAcc,32,18,Woman,Right,
16,5,1,1.983505199999854,['n'],1,right,['e'],1,0.30930650000118476,0.4,1,0,AccAcc,32,18,Woman,Right,
17,5,1,2.051261999999042,['c'],1,left,['e'],1,0.3614823999996588,0.2,1,0,AccAcc,32,18,Woman,Right,
18,5,1,1.94949810000071,['n'],1,right,['e'],1,0.14444869999897492,0.2,1,0,AccAcc,32,18,Woman,Right,
19,5,1,2.567354900000282,['c'],1,left,['e'],1,0.7272821999995358,0.1,1,0,AccAcc,32,18,Woman,Right,
20,5,1,1.9002570000011474,['n'],1,right,['e'],1,0.9452060000003257,0.2,1,0,AccAcc,32,18,Woman,Right,
21,5,1,1.2165364000011323,['n'],1,right,['e'],1,0.9739481000015076,0.4,1,0,AccAcc,32,18,Woman,Right,
22,5,1,2.832697099998768,['n'],1,right,['u'],0,0.7124631000006048,0.2,0,0,AccAcc,32,18,Woman,Right,
23,5,1,3.483430000000226,['c'],0,right,['u'],0,0.40270590000000084,0.1,1,0,AccAcc,32,18,Woman,Right,
24,5,1,3.8506967999983317,['n'],0,left,['e'],1,0.6670436000003974,0.1,0,0,AccAcc,32,18,Woman,Right,
25,5,1,5.000219800000195,x,-99,right,none,-99,-99,0.1,-99,1,AccAcc,32,18,Woman,Right,
26,5,1,1.5010791000004247,['n'],0,left,['u'],0,1.0576321999997162,0.2,1,0,AccAcc,32,18,Woman,Right,
27,5,1,2.282907900000282,['n'],0,left,['u'],0,0.87895860000026,0.1,1,0,AccAcc,32,18,Woman,Right,
28,5,1,2.2678051000002597,['n'],1,right,['e'],1,0.27520629999889934,0.2,1,0,AccAcc,32,18,Woman,Right,
29,5,1,2.833950799999002,['n'],0,left,['u'],0,1.4507576999985758,0.2,1,0,AccAcc,32,18,Woman,Right,
30,5,1,1.2167255000003934,['c'],1,left,['e'],1,0.2736853999995219,0.4,1,0,AccAcc,32,18,Woman,Right,
31,5,1,1.066807200000767,['n'],1,right,['e'],1,0.4305457000009483,0.4,1,0,AccAcc,32,18,Woman,Right,
32,5,1,2.601545500001521,['c'],1,left,['u'],0,0.7116796999998769,0.2,0,0,AccAcc,32,18,Woman,Right,
33,5,1,1.1660162000007404,['n'],1,right,['e'],1,0.5108435000001919,0.2,1,0,AccAcc,32,18,Woman,Right,
34,5,1,2.75023180000062,['n'],1,right,['e'],1,0.8951593999991019,0.1,1,0,AccAcc,32,18,Woman,Right,
35,5,1,1.9336989000003086,['c'],1,left,['u'],0,0.5604192999999213,0.2,0,0,AccAcc,32,18,Woman,Right,
36,5,1,3.3160565000016504,['n'],1,right,['u'],0,0.809181599999647,0.1,0,0,AccAcc,32,18,Woman,Right,
37,5,1,2.5336136000005354,['c'],1,left,['u'],0,0.6135104000004503,0.2,0,0,AccAcc,32,18,Woman,Right,
38,5,1,2.2499034000011306,['n'],1,right,['e'],1,1.1900076000001718,0.2,1,0,AccAcc,32,18,Woman,Right,
39,5,1,2.802282599999671,['c'],0,right,['u'],0,0.5685651999992842,0.4,1,0,AccAcc,32,18,Woman,Right,
40,5,1,1.349336699999185,['c'],1,left,['e'],1,0.6230279999999766,0.4,1,0,AccAcc,32,18,Woman,Right,
41,5,1,2.5494368000017857,['n'],1,right,['e'],1,1.4109515999989526,0.1,1,0,AccAcc,32,18,Woman,Right,
42,5,1,1.3499393000001874,['n'],1,right,['e'],1,1.0310015000013664,0.4,1,0,AccAcc,32,18,Woman,Right,
43,5,1,2.1844600999993418,['n'],1,right,['e'],1,0.9205502000004344,0.2,1,0,AccAcc,32,18,Woman,Right,
44,5,1,3.2327598000010767,['c'],1,left,['e'],1,0.5013899999994464,0.4,1,0,AccAcc,32,18,Woman,Right,
45,5,1,2.0999221000001853,['n'],1,right,['e'],1,0.5914859000004071,0.4,1,0,AccAcc,32,18,Woman,Right,
46,5,1,2.5846751000008226,['n'],1,right,['e'],1,0.7233708000003389,0.2,1,0,AccAcc,32,18,Woman,Right,
47,5,1,3.7666559999997844,['n'],1,right,['u'],0,0.5785126000009768,0.2,0,0,AccAcc,32,18,Woman,Right,
48,5,1,2.349943000001076,['c'],1,left,['u'],0,0.8964391999998043,0.1,0,0,AccAcc,32,18,Woman,Right,
49,5,1,1.6348416000000725,['n'],1,right,['e'],1,1.325218900001346,0.2,1,0,AccAcc,32,18,Woman,Right,
50,5,1,1.7993238999988534,['n'],1,right,['e'],1,0.3880469000014273,0.4,1,0,AccAcc,32,18,Woman,Right,
51,5,1,2.367406100000153,['n'],0,left,['u'],0,0.42377440000018396,0.4,1,0,AccAcc,32,18,Woman,Right,
52,5,1,2.2011545000004844,['n'],1,right,['e'],1,0.400907899998856,0.1,1,0,AccAcc,32,18,Woman,Right,
53,5,1,4.065954499999862,['n'],0,left,['u'],0,0.5936882000005426,0.4,1,0,AccAcc,32,18,Woman,Right,
54,5,1,2.433752100001584,['c'],1,left,['e'],1,0.4281076999996003,0.4,1,0,AccAcc,32,18,Woman,Right,
55,5,1,2.233570600001258,['n'],0,left,['e'],1,0.5324724999991304,0.1,0,0,AccAcc,32,18,Woman,Right,
56,5,1,1.367454799999905,['n'],1,right,['e'],1,0.5055924999996932,0.4,1,0,AccAcc,32,18,Woman,Right,
57,5,1,3.2494747000000643,['n'],0,left,['u'],0,0.7274940000006609,0.2,1,0,AccAcc,32,18,Woman,Right,
58,5,1,1.2164002000008622,['c'],1,left,['e'],1,0.7804921000006289,0.4,1,0,AccAcc,32,18,Woman,Right,
59,5,1,1.2174480000012409,['n'],1,right,['e'],1,0.5256122000009782,0.4,1,0,AccAcc,32,18,Woman,Right,
0,6,1,1.2318761999995331,['n'],1,right,['u'],0,0.5135148999997909,0.1,0,0,FastAcc,32,18,Woman,Right,
1,6,1,1.1667107000012038,['n'],1,right,['u'],0,1.072355799999059,0.2,0,0,FastAcc,32,18,Woman,Right,
2,6,1,1.3832836999990832,['c'],1,left,['u'],0,0.32088590000057593,0.1,0,0,FastAcc,32,18,Woman,Right,
3,6,1,1.133599700000559,['c'],1,left,['e'],1,1.1124367000011262,0.4,1,0,FastAcc,32,18,Woman,Right,
4,6,1,0.8000265999999101,['n'],1,right,['u'],0,0.734499500000311,0.1,0,0,FastAcc,32,18,Woman,Right,
5,6,1,1.6670417999994243,['n'],1,right,['e'],1,0.7533502000005683,0.2,1,0,FastAcc,32,18,Woman,Right,
6,6,1,0.9835851000007096,['n'],0,left,['u'],0,0.6863630999996531,0.2,1,0,FastAcc,32,18,Woman,Right,
7,6,1,1.4993486000003031,['c'],1,left,['u'],0,0.6173801999993884,0.2,0,0,FastAcc,32,18,Woman,Right,
8,6,1,1.2327942000010808,['n'],0,left,['u'],0,0.8178482000002987,0.1,1,0,FastAcc,32,18,Woman,Right,
9,6,1,1.1676138000002538,['n'],1,right,['e'],1,0.3883710999998584,0.4,1,0,FastAcc,32,18,Woman,Right,
10,6,1,1.649059600000328,['c'],1,left,['u'],0,0.2138648000000103,0.1,0,0,FastAcc,32,18,Woman,Right,
11,6,1,1.083088499999576,['n'],1,right,['e'],1,1.2837144000004628,0.4,1,0,FastAcc,32,18,Woman,Right,
12,6,1,1.251228600000104,['n'],1,right,['u'],0,0.4962071999998443,0.1,0,0,FastAcc,32,18,Woman,Right,
13,6,1,2.2510810000003403,['n'],1,right,['u'],0,0.30759240000043064,0.1,0,0,FastAcc,32,18,Woman,Right,
14,6,1,0.7991220000003523,['c'],1,left,['e'],1,1.2600524999998015,0.4,1,0,FastAcc,32,18,Woman,Right,
15,6,1,1.1327808000005462,['c'],1,left,['e'],1,0.7351312999999209,0.4,1,0,FastAcc,32,18,Woman,Right,
16,6,1,0.6687302999998792,['n'],1,right,['e'],1,0.9200643000003765,0.2,1,0,FastAcc,32,18,Woman,Right,
17,6,1,1.2667395999997098,['n'],1,right,['e'],1,0.7405125999994198,0.4,1,0,FastAcc,32,18,Woman,Right,
18,6,1,0.8007254999993165,['c'],1,left,['e'],1,0.728210899998885,0.4,1,0,FastAcc,32,18,Woman,Right,
19,6,1,0.6180359999998473,['n'],1,right,['e'],1,0.757203600000139,0.4,1,0,FastAcc,32,18,Woman,Right,
20,6,1,1.084634000000733,['c'],1,left,['u'],0,0.6861493000014889,0.2,0,0,FastAcc,32,18,Woman,Right,
21,6,1,1.467068300000392,['n'],1,right,['u'],0,0.603472700000566,0.1,0,0,FastAcc,32,18,Woman,Right,
22,6,1,0.8170571999999083,['c'],1,left,['e'],1,0.6135274999996909,0.2,1,0,FastAcc,32,18,Woman,Right,
23,6,1,1.534264500000063,['n'],1,right,['u'],0,0.8020241999984137,0.1,0,0,FastAcc,32,18,Woman,Right,
24,6,1,1.8012128000009398,['n'],1,right,['u'],0,0.6997916999989684,0.1,0,0,FastAcc,32,18,Woman,Right,
25,6,1,2.084085899999991,['c'],0,right,['u'],0,0.49550210000052175,0.2,1,0,FastAcc,32,18,Woman,Right,
26,6,1,1.3014550999996573,['n'],1,right,['u'],0,0.6334423000007519,0.1,0,0,FastAcc,32,18,Woman,Right,
27,6,1,0.7525795000001381,['n'],1,right,['e'],1,0.7562207999999373,0.2,1,0,FastAcc,32,18,Woman,Right,
28,6,1,0.6839359000005061,['n'],1,right,['e'],1,0.4931739999992715,0.4,1,0,FastAcc,32,18,Woman,Right,
29,6,1,0.6349819999995816,['n'],1,right,['e'],1,0.5627784999996948,0.4,1,0,FastAcc,32,18,Woman,Right,
30,6,1,0.7839048000005278,['c'],1,left,['u'],0,0.703318699999727,0.2,0,0,FastAcc,32,18,Woman,Right,
31,6,1,2.5014037000000826,['n'],0,left,['u'],0,1.3777627999988908,0.2,1,0,FastAcc,32,18,Woman,Right,
32,6,1,1.3680208999994647,['c'],1,left,['u'],0,0.566599400000996,0.4,0,0,FastAcc,32,18,Woman,Right,
33,6,1,1.3831989999998768,['n'],1,right,['u'],0,2.187825099999827,0.1,0,0,FastAcc,32,18,Woman,Right,
34,6,1,1.0002492000003258,['n'],1,right,['u'],0,1.262307899998632,0.2,0,0,FastAcc,32,18,Woman,Right,
35,6,1,1.2664700999994238,['n'],1,right,['u'],0,1.2276959999999235,0.2,0,0,FastAcc,32,18,Woman,Right,
36,6,1,1.950837500000489,['n'],1,right,['u'],0,0.5271652000010363,0.1,0,0,FastAcc,32,18,Woman,Right,
37,6,1,2.349482999999964,['c'],1,left,['e'],1,0.8637088999985281,0.1,1,0,FastAcc,32,18,Woman,Right,
38,6,1,2.099971399999049,['n'],0,left,['u'],0,0.3475567999994382,0.1,1,0,FastAcc,32,18,Woman,Right,
39,6,1,1.6499554000001808,['n'],0,left,['u'],0,0.46178949999921315,0.2,1,0,FastAcc,32,18,Woman,Right,
40,6,1,1.0516465000000608,['c'],1,left,['u'],0,0.7077608999989025,0.4,0,0,FastAcc,32,18,Woman,Right,
41,6,1,0.6340755999990506,['n'],1,right,['e'],1,0.5286386000007042,0.1,1,0,FastAcc,32,18,Woman,Right,
42,6,1,0.9846390999991854,['n'],0,left,['u'],0,0.8700770999985252,0.2,1,0,FastAcc,32,18,Woman,Right,
43,6,1,0.6514490999998088,['c'],1,left,['e'],1,0.4917628999992303,0.4,1,0,FastAcc,32,18,Woman,Right,
44,6,1,0.8673015999993368,['c'],1,left,['u'],0,0.5841091000002052,0.4,0,0,FastAcc,32,18,Woman,Right,
45,6,1,1.3169904999995197,['n'],0,left,['e'],1,0.5593671000005997,0.2,0,0,FastAcc,32,18,Woman,Right,
46,6,1,0.6666753999998036,['c'],0,right,['e'],1,0.49732419999963895,0.1,0,0,FastAcc,32,18,Woman,Right,
47,6,1,1.216352999999799,['n'],0,left,['u'],0,1.3584519000014552,0.1,1,0,FastAcc,32,18,Woman,Right,
48,6,1,0.7681666999997105,['c'],1,left,['u'],0,1.371791099998518,0.2,0,0,FastAcc,32,18,Woman,Right,
49,6,1,1.0165727000003244,['n'],1,right,['u'],0,1.599492100000134,0.1,0,0,FastAcc,32,18,Woman,Right,
50,6,1,0.8170598999986396,['n'],1,right,['e'],1,0.38451919999897655,0.2,1,0,FastAcc,32,18,Woman,Right,
51,6,1,1.2679748999998992,['n'],1,right,['e'],1,0.5288933000010729,0.2,1,0,FastAcc,32,18,Woman,Right,
52,6,1,2.216828599999644,['n'],1,right,['u'],0,0.2932183000011719,0.2,0,0,FastAcc,32,18,Woman,Right,
53,6,1,1.6854730999984895,['n'],1,right,['u'],0,1.3691654000012932,0.4,0,0,FastAcc,32,18,Woman,Right,
54,6,1,0.6332648999996309,['c'],1,left,['e'],1,0.7154931999994005,0.4,1,0,FastAcc,32,18,Woman,Right,
55,6,1,0.5326181000000361,['c'],1,left,['e'],1,0.7009070000003703,0.4,1,0,FastAcc,32,18,Woman,Right,
56,6,1,0.668176900000617,['c'],1,left,['u'],0,0.8232499999994616,0.4,0,0,FastAcc,32,18,Woman,Right,
57,6,1,0.8174768999997468,['c'],1,left,['e'],1,0.6321296999994956,0.1,1,0,FastAcc,32,18,Woman,Right,
58,6,1,1.9512855999983003,['n'],0,left,['u'],0,0.4997527999985323,0.4,1,0,FastAcc,32,18,Woman,Right,
59,6,1,2.050489799999923,['n'],0,left,['e'],1,0.7524728000007599,0.4,0,0,FastAcc,32,18,Woman,Right,
0,7,1,0.9163274000002275,['n'],0,left,['e'],1,0.6703405000007479,0.2,0,0,FastFast,32,18,Woman,Right,
1,7,1,0.9507403999996313,['n'],0,left,['u'],0,0.3030710999992152,0.1,1,0,FastFast,32,18,Woman,Right,
2,7,1,0.9011602000009589,['n'],1,right,['u'],0,0.36929309999868565,0.4,0,0,FastFast,32,18,Woman,Right,
3,7,1,0.9338726000005408,['n'],1,right,['u'],0,0.5918166999999812,0.1,0,0,FastFast,32,18,Woman,Right,
4,7,1,1.5177676000002975,['c'],1,left,['u'],0,0.41387870000107796,0.1,0,0,FastFast,32,18,Woman,Right,
5,7,1,0.9666090999999142,['n'],0,left,['u'],0,0.3776520999999775,0.2,1,0,FastFast,32,18,Woman,Right,
6,7,1,1.3014358999989781,['n'],1,right,['u'],0,0.12075019999974757,0.4,0,0,FastFast,32,18,Woman,Right,
7,7,1,0.750640199999907,['c'],1,left,['e'],1,0.20019089999914286,0.4,1,0,FastFast,32,18,Woman,Right,
8,7,1,1.649942199999714,['n'],0,left,['u'],0,0.19325060000119265,0.1,1,0,FastFast,32,18,Woman,Right,
9,7,1,0.9522354000000632,['c'],1,left,['e'],1,0.4857548999989376,0.4,1,0,FastFast,32,18,Woman,Right,
10,7,1,0.8840653000006569,['n'],1,right,['e'],1,0.2090580999993108,0.2,1,0,FastFast,32,18,Woman,Right,
11,7,1,1.1006443000005675,['n'],1,right,['u'],0,0.15957549999984622,0.1,0,0,FastFast,32,18,Woman,Right,
12,7,1,1.4678407999999763,['c'],1,left,['u'],0,0.28910800000085146,0.2,0,0,FastFast,32,18,Woman,Right,
13,7,1,2.0515251999986504,['n'],0,left,['u'],0,0.3117388000009669,0.1,1,0,FastFast,32,18,Woman,Right,
14,7,1,1.483573499999693,['c'],1,left,['u'],0,0.16168020000077377,0.1,0,0,FastFast,32,18,Woman,Right,
15,7,1,0.8342429000003904,['n'],1,right,['e'],1,0.15627860000131477,0.4,1,0,FastFast,32,18,Woman,Right,
16,7,1,0.7017183999996632,['n'],1,right,['e'],1,0.17283490000045276,0.4,1,0,FastFast,32,18,Woman,Right,
17,7,1,0.8344556000010925,['n'],1,right,['e'],1,0.13597519999893848,0.2,1,0,FastFast,32,18,Woman,Right,
18,7,1,2.584957300001406,['c'],0,right,['u'],0,0.4924941999997827,0.2,1,0,FastFast,32,18,Woman,Right,
19,7,1,1.5165606999999,['c'],1,left,['u'],0,0.23957630000040808,0.1,0,0,FastFast,32,18,Woman,Right,
20,7,1,1.6177051000013307,['n'],0,left,['u'],0,0.4711993999990227,0.2,1,0,FastFast,32,18,Woman,Right,
21,7,1,2.4489862000009452,['n'],0,left,['u'],0,0.1505102999999508,0.2,1,0,FastFast,32,18,Woman,Right,
22,7,1,1.1515904999996565,['n'],0,left,['u'],0,0.18014629999925091,0.4,1,0,FastFast,32,18,Woman,Right,
23,7,1,1.4666044000005058,['n'],1,right,['u'],0,0.4366386000001512,0.1,0,0,FastFast,32,18,Woman,Right,
24,7,1,1.1172353999991174,['n'],1,right,['e'],1,0.152369199999157,0.1,1,0,FastFast,32,18,Woman,Right,
25,7,1,1.183771500000148,['n'],1,right,['e'],1,0.16508249999969848,0.4,1,0,FastFast,32,18,Woman,Right,
26,7,1,1.2846358000006148,['n'],1,right,['e'],1,0.14131799999995565,0.2,1,0,FastFast,32,18,Woman,Right,
27,7,1,1.4832201000008354,['n'],1,right,['e'],1,0.14407219999884546,0.2,1,0,FastFast,32,18,Woman,Right,
28,7,1,0.88504710000052,['n'],1,right,['e'],1,0.2006853000002593,0.2,1,0,FastFast,32,18,Woman,Right,
29,7,1,2.416830000000118,['n'],1,right,['u'],0,0.16324389999863342,0.2,0,0,FastFast,32,18,Woman,Right,
30,7,1,2.2518046999994112,['n'],1,right,['u'],0,0.11623580000014044,0.2,0,0,FastFast,32,18,Woman,Right,
31,7,1,0.8859061999992264,['c'],1,left,['e'],1,0.23839889999908337,0.4,1,0,FastFast,32,18,Woman,Right,
32,7,1,0.7177541000000929,['c'],1,left,['e'],1,0.12296979999882751,0.4,1,0,FastFast,32,18,Woman,Right,
33,7,1,1.8848699999998644,['n'],0,left,['e'],1,0.3652062000001024,0.1,0,0,FastFast,32,18,Woman,Right,
34,7,1,0.900855900001261,['c'],1,left,['e'],1,0.10878409999895666,0.4,1,0,FastFast,32,18,Woman,Right,
35,7,1,0.7345408999990468,['n'],1,right,['e'],1,0.1896204000004218,0.2,1,0,FastFast,32,18,Woman,Right,
36,7,1,0.9178599000006216,['c'],1,left,['e'],1,0.2760093999986566,0.1,1,0,FastFast,32,18,Woman,Right,
37,7,1,1.7166340999992826,['n'],0,left,['u'],0,0.15180679999866697,0.2,1,0,FastFast,32,18,Woman,Right,
38,7,1,0.7342855999995663,['n'],1,right,['e'],1,0.11790500000097381,0.1,1,0,FastFast,32,18,Woman,Right,
39,7,1,1.783450900000389,['n'],1,right,['u'],0,0.1728822000004584,0.2,0,0,FastFast,32,18,Woman,Right,
40,7,1,0.9021705999984988,['n'],1,right,['e'],1,0.13185789999988629,0.4,1,0,FastFast,32,18,Woman,Right,
41,7,1,0.8330729999997857,['c'],1,left,['e'],1,0.14340049999918847,0.4,1,0,FastFast,32,18,Woman,Right,
42,7,1,1.0175054999999702,['n'],1,right,['u'],0,0.18007330000000366,0.1,0,0,FastFast,32,18,Woman,Right,
43,7,1,1.6844345000008616,['n'],0,left,['e'],1,0.1884630999993533,0.1,0,0,FastFast,32,18,Woman,Right,
44,7,1,1.9179468999991514,['n'],1,right,['e'],1,0.12192379999942204,0.4,1,0,FastFast,32,18,Woman,Right,
45,7,1,0.9837079000008089,['c'],1,left,['e'],1,0.1604946999996173,0.2,1,0,FastFast,32,18,Woman,Right,
46,7,1,0.9513208999997005,['n'],1,right,['e'],1,0.15050010000049951,0.1,1,0,FastFast,32,18,Woman,Right,
47,7,1,1.3514993000007962,['c'],1,left,['u'],0,0.3011091000007582,0.4,0,0,FastFast,32,18,Woman,Right,
48,7,1,1.7512777000010828,['n'],0,left,['e'],1,0.1413749999992433,0.4,0,0,FastFast,32,18,Woman,Right,
49,7,1,1.6327068000009604,['n'],0,left,['e'],1,0.10684180000134802,0.1,0,0,FastFast,32,18,Woman,Right,
50,7,1,0.6855407999992167,['c'],1,left,['e'],1,0.12438350000047649,0.4,1,0,FastFast,32,18,Woman,Right,
51,7,1,1.0835888000001432,['n'],1,right,['e'],1,0.1742752999998629,0.2,1,0,FastFast,32,18,Woman,Right,
52,7,1,1.251129399999627,['c'],1,left,['u'],0,0.312017599999308,0.4,0,0,FastFast,32,18,Woman,Right,
53,7,1,0.7173183000013523,['n'],1,right,['e'],1,0.14483930000096734,0.4,1,0,FastFast,32,18,Woman,Right,
54,7,1,1.5831209999996645,['n'],1,right,['u'],0,0.22236879999945813,0.2,0,0,FastFast,32,18,Woman,Right,
55,7,1,1.1675295000004553,['n'],1,right,['e'],1,0.21729580000101123,0.4,1,0,FastFast,32,18,Woman,Right,
56,7,1,1.3009497000002739,['n'],1,right,['u'],0,0.17532140000002983,0.2,0,0,FastFast,32,18,Woman,Right,
57,7,1,1.5841046999994433,['n'],0,left,['e'],1,0.13982620000024326,0.1,0,0,FastFast,32,18,Woman,Right,
58,7,1,1.2505118999997649,['c'],0,right,['e'],1,0.3585365999988426,0.1,0,0,FastFast,32,18,Woman,Right,
59,7,1,1.7171586000004027,['n'],0,left,['u'],0,0.47065219999967667,0.1,1,0,FastFast,32,18,Woman,Right,
0,8,1,2.1674450999998953,['n'],0,left,['e'],1,0.1433748999988893,0.1,0,0,AccFast,32,18,Woman,Right,
1,8,1,0.8845929999988584,['c'],1,left,['e'],1,0.10478639999928419,0.2,1,0,AccFast,32,18,Woman,Right,
2,8,1,1.7510969000013574,['n'],1,right,['e'],1,0.12891689999923983,0.1,1,0,AccFast,32,18,Woman,Right,
3,8,1,3.583565400000225,['n'],0,left,['u'],0,0.15879909999966912,0.1,1,0,AccFast,32,18,Woman,Right,
4,8,1,1.6672440999991522,['n'],1,right,['e'],1,0.12040570000135631,0.4,1,0,AccFast,32,18,Woman,Right,
5,8,1,1.5500351999999111,['c'],1,left,['u'],0,0.20030790000055276,0.4,0,0,AccFast,32,18,Woman,Right,
6,8,1,1.7342809999991005,['n'],1,right,['u'],0,0.1415618999999424,0.1,0,0,AccFast,32,18,Woman,Right,
7,8,1,1.417896799999653,['n'],1,right,['e'],1,0.3059831000009581,0.1,1,0,AccFast,32,18,Woman,Right,
8,8,1,0.9350887000000512,['n'],0,left,['e'],1,0.0985342000003584,0.2,0,0,AccFast,32,18,Woman,Right,
9,8,1,1.2997863000000507,['n'],1,right,['e'],1,0.09347560000060184,0.2,1,0,AccFast,32,18,Woman,Right,
10,8,1,1.5682005999988178,['c'],1,left,['u'],0,0.15767589999995835,0.2,0,0,AccFast,32,18,Woman,Right,
11,8,1,1.6833246000005602,['n'],0,left,['u'],0,0.1673107999995409,0.4,1,0,AccFast,32,18,Woman,Right,
12,8,1,1.6013253000000987,['n'],1,right,['u'],0,0.1618943000012223,0.2,0,0,AccFast,32,18,Woman,Right,
13,8,1,2.051084600001559,['n'],0,left,['u'],0,0.251791200000298,0.1,1,0,AccFast,32,18,Woman,Right,
14,8,1,1.1844428999993397,['n'],1,right,['e'],1,0.1011596999996982,0.1,1,0,AccFast,32,18,Woman,Right,
15,8,1,1.3173341000001528,['n'],1,right,['e'],1,0.11060920000090846,0.4,1,0,AccFast,32,18,Woman,Right,
16,8,1,2.7667494999986957,['n'],1,right,['e'],1,0.2540281999990839,0.1,1,0,AccFast,32,18,Woman,Right,
17,8,1,1.0175221000008605,['n'],1,right,['e'],1,0.09386029999950551,0.4,1,0,AccFast,32,18,Woman,Right,
18,8,1,0.850188899999921,['n'],1,right,['e'],1,0.05939370000123745,0.2,1,0,AccFast,32,18,Woman,Right,
19,8,1,1.0836484999999811,['n'],1,right,['e'],1,0.06391860000076122,0.4,1,0,AccFast,32,18,Woman,Right,
20,8,1,1.8846242999989045,['n'],0,left,['u'],0,0.21211360000052082,0.2,1,0,AccFast,32,18,Woman,Right,
21,8,1,1.4174746000007872,['n'],0,left,['e'],1,0.16547649999847636,0.1,0,0,AccFast,32,18,Woman,Right,
22,8,1,1.9174843000000692,['c'],0,right,['u'],0,0.11704889999964507,0.1,1,0,AccFast,32,18,Woman,Right,
23,8,1,1.118431100001544,['c'],1,left,['e'],1,0.19762640000044485,0.2,1,0,AccFast,32,18,Woman,Right,
24,8,1,1.4346858999997494,['c'],1,left,['u'],0,0.15046689999871887,0.1,0,0,AccFast,32,18,Woman,Right,
25,8,1,1.599819999999454,['n'],0,left,['u'],0,0.5472879999997531,0.1,1,0,AccFast,32,18,Woman,Right,
26,8,1,1.3670194000005722,['c'],1,left,['u'],0,0.12083659999916563,0.4,0,0,AccFast,32,18,Woman,Right,
27,8,1,0.6839714999987336,['n'],1,right,['e'],1,0.13681370000085735,0.4,1,0,AccFast,32,18,Woman,Right,
28,8,1,1.667796300000191,['n'],0,left,['u'],0,0.16472190000058617,0.4,1,0,AccFast,32,18,Woman,Right,
29,8,1,1.5832513999994262,['c'],1,left,['u'],0,0.12977589999900374,0.4,0,0,AccFast,32,18,Woman,Right,
30,8,1,1.8170155999996496,['n'],0,left,['u'],0,0.13397499999882712,0.2,1,0,AccFast,32,18,Woman,Right,
31,8,1,1.617982600000687,['n'],0,left,['u'],0,0.1458390000007057,0.1,1,0,AccFast,32,18,Woman,Right,
32,8,1,0.785487799999828,['n'],1,right,['e'],1,0.07881979999910982,0.2,1,0,AccFast,32,18,Woman,Right,
33,8,1,1.5338749999991705,['c'],0,right,['u'],0,0.14518350000071223,0.1,1,0,AccFast,32,18,Woman,Right,
34,8,1,1.5685845000007248,['n'],0,left,['u'],0,0.17532519999986107,0.2,1,0,AccFast,32,18,Woman,Right,
35,8,1,1.016580100000283,['n'],1,right,['e'],1,0.0664520000009361,0.1,1,0,AccFast,32,18,Woman,Right,
36,8,1,1.8845667999994475,['c'],1,left,['u'],0,0.13507989999925485,0.4,0,0,AccFast,32,18,Woman,Right,
37,8,1,2.916653899999801,['n'],1,right,['u'],0,0.17461720000028436,0.2,0,0,AccFast,32,18,Woman,Right,
38,8,1,1.384170900000754,['c'],1,left,['u'],0,0.14769020000130695,0.2,0,0,AccFast,32,18,Woman,Right,
39,8,1,2.7827569999990374,['n'],1,right,['u'],0,0.09653480000088166,0.1,0,0,AccFast,32,18,Woman,Right,
40,8,1,2.5846010000004753,['n'],0,left,['u'],0,0.21607159999985015,0.2,1,0,AccFast,32,18,Woman,Right,
41,8,1,3.050761100001182,['n'],1,right,['e'],1,0.27993100000094273,0.2,1,0,AccFast,32,18,Woman,Right,
42,8,1,1.634972600000765,['c'],1,left,['u'],0,0.10871559999941383,0.1,0,0,AccFast,32,18,Woman,Right,
43,8,1,2.4681154000008974,['c'],1,left,['u'],0,0.08952399999907357,0.2,0,0,AccFast,32,18,Woman,Right,
44,8,1,1.3511900000012247,['n'],1,right,['u'],0,0.017926800001077936,0.1,0,0,AccFast,32,18,Woman,Right,
45,8,1,1.2337344000006851,['c'],1,left,['e'],1,0.3858596000009129,0.4,1,0,AccFast,32,18,Woman,Right,
46,8,1,2.6332679000006465,['n'],0,left,['u'],0,0.4924972999997408,0.2,1,0,AccFast,32,18,Woman,Right,
47,8,1,2.4345374000004085,['n'],0,left,['u'],0,0.13781199999903038,0.2,1,0,AccFast,32,18,Woman,Right,
48,8,1,1.2011524999998073,['n'],1,right,['e'],1,0.11898569999902975,0.4,1,0,AccFast,32,18,Woman,Right,
49,8,1,1.3505160999993677,['n'],1,right,['e'],1,0.1582615999996051,0.4,1,0,AccFast,32,18,Woman,Right,
50,8,1,1.8178732999986096,['n'],1,right,['e'],1,0.14605289999963134,0.4,1,0,AccFast,32,18,Woman,Right,
51,8,1,2.301370899998801,['c'],0,right,['u'],0,0.19511049999891839,0.2,1,0,AccFast,32,18,Woman,Right,
52,8,1,2.4011143000006996,['n'],0,left,['u'],0,0.173370900000009,0.1,1,0,AccFast,32,18,Woman,Right,
53,8,1,1.333834700000807,['n'],1,right,['u'],0,0.18006080000122893,0.1,0,0,AccFast,32,18,Woman,Right,
54,8,1,1.1010557999998127,['c'],1,left,['e'],1,0.13097660000130418,0.4,1,0,AccFast,32,18,Woman,Right,
55,8,1,1.3181810999994923,['n'],1,right,['e'],1,0.1389937000003556,0.4,1,0,AccFast,32,18,Woman,Right,
56,8,1,0.8182634000004327,['n'],1,right,['e'],1,0.07232389999990119,0.4,1,0,AccFast,32,18,Woman,Right,
57,8,1,0.9007841000002372,['c'],1,left,['e'],1,0.16359530000045197,0.2,1,0,AccFast,32,18,Woman,Right,
58,8,1,0.8162190000002738,['n'],1,right,['e'],1,0.14183159999993222,0.4,1,0,AccFast,32,18,Woman,Right,
59,8,1,1.2008511000003637,['n'],1,right,['u'],0,0.15585989999999583,0.4,0,0,AccFast,32,18,Woman,Right,
0,9,1,1.4176339999994525,['n'],1,right,['e'],1,0.5769423999990977,0.4,1,0,AccAcc,32,18,Woman,Right,
1,9,1,1.5666819999987638,['n'],1,right,['e'],1,0.2698039000006247,0.2,1,0,AccAcc,32,18,Woman,Right,
2,9,1,1.3015479000005143,['c'],1,left,['e'],1,0.2895855999995547,0.4,1,0,AccAcc,32,18,Woman,Right,
3,9,1,1.6180666000000201,['n'],1,right,['u'],0,0.3599214000005304,0.2,0,0,AccAcc,32,18,Woman,Right,
4,9,1,1.9850311000009242,['n'],0,left,['u'],0,0.5101895999996486,0.2,1,0,AccAcc,32,18,Woman,Right,
5,9,1,2.0179868999985047,['c'],1,left,['u'],0,0.5235096000014892,0.2,0,0,AccAcc,32,18,Woman,Right,
6,9,1,1.3850529000010283,['c'],1,left,['e'],1,0.3057697000003827,0.4,1,0,AccAcc,32,18,Woman,Right,
7,9,1,2.183864700000413,['n'],0,left,['e'],1,0.44832689999930153,0.4,0,0,AccAcc,32,18,Woman,Right,
8,9,1,2.6658435000008467,['n'],0,left,['u'],0,0.5514609000001656,0.4,1,0,AccAcc,32,18,Woman,Right,
9,9,1,1.9831533000015042,['c'],1,left,['u'],0,0.3559396000000561,0.4,0,0,AccAcc,32,18,Woman,Right,
10,9,1,1.5989571000009164,['n'],1,right,['u'],0,1.0003372999999556,0.1,0,0,AccAcc,32,18,Woman,Right,
11,9,1,2.1019546000006812,['n'],0,left,['u'],0,0.33429830000022775,0.4,1,0,AccAcc,32,18,Woman,Right,
12,9,1,1.7995696999987558,['c'],1,left,['e'],1,0.4441184000006615,0.1,1,0,AccAcc,32,18,Woman,Right,
13,9,1,2.3514076999999816,['c'],1,left,['u'],0,0.49456889999964915,0.4,0,0,AccAcc,32,18,Woman,Right,
14,9,1,1.283069200000682,['n'],1,right,['u'],0,1.7549686999991536,0.2,0,0,AccAcc,32,18,Woman,Right,
15,9,1,1.0844586999992316,['n'],1,right,['e'],1,0.3314104999990377,0.4,1,0,AccAcc,32,18,Woman,Right,
16,9,1,1.9995189999990544,['c'],1,left,['e'],1,0.38562420000016573,0.2,1,0,AccAcc,32,18,Woman,Right,
17,9,1,0.7327172000004794,['n'],1,right,['e'],1,0.3111475000005157,0.2,1,0,AccAcc,32,18,Woman,Right,
18,9,1,1.3694519000000582,['n'],1,right,['u'],0,0.3255178999988857,0.2,0,0,AccAcc,32,18,Woman,Right,
19,9,1,1.9840853999994579,['n'],1,right,['u'],0,0.31596449999960896,0.1,0,0,AccAcc,32,18,Woman,Right,
20,9,1,1.4501646000007895,['c'],1,left,['e'],1,0.3599432999999408,0.1,1,0,AccAcc,32,18,Woman,Right,
21,9,1,2.733497700000953,['n'],0,left,['u'],0,0.33536719999938214,0.1,1,0,AccAcc,32,18,Woman,Right,
22,9,1,1.401325500000894,['c'],1,left,['e'],1,0.6678595000012137,0.4,1,0,AccAcc,32,18,Woman,Right,
23,9,1,2.915345100000195,['n'],1,right,['u'],0,0.46382439999979397,0.2,0,0,AccAcc,32,18,Woman,Right,
24,9,1,2.2992462999991403,['n'],1,right,['e'],1,0.3241508999999496,0.4,1,0,AccAcc,32,18,Woman,Right,
25,9,1,2.816220799999428,['c'],1,left,['e'],1,0.23332940000000235,0.1,1,0,AccAcc,32,18,Woman,Right,
26,9,1,1.9655524000008882,['c'],1,left,['e'],1,0.4837465999989945,0.2,1,0,AccAcc,32,18,Woman,Right,
27,9,1,0.8330560000013065,['n'],1,right,['e'],1,0.5294995000003837,0.4,1,0,AccAcc,32,18,Woman,Right,
28,9,1,2.0165830999994796,['c'],1,left,['u'],0,0.5265462999996089,0.1,0,0,AccAcc,32,18,Woman,Right,
29,9,1,3.002379600000495,['c'],1,left,['u'],0,0.5469369999991613,0.1,0,0,AccAcc,32,18,Woman,Right,
30,9,1,2.6845215000012104,['c'],1,left,['u'],0,0.2282015999990108,0.2,0,0,AccAcc,32,18,Woman,Right,
31,9,1,2.2345399999994697,['n'],0,left,['u'],0,0.5160682000005181,0.4,1,0,AccAcc,32,18,Woman,Right,
32,9,1,2.4325790999992023,['c'],0,right,['u'],0,0.3538559999997233,0.1,1,0,AccAcc,32,18,Woman,Right,
33,9,1,3.5507992999991984,['n'],1,right,['u'],0,0.7751150999993115,0.4,0,0,AccAcc,32,18,Woman,Right,
34,9,1,3.0510149000001547,['n'],1,right,['u'],0,0.5129593000001478,0.1,0,0,AccAcc,32,18,Woman,Right,
35,9,1,1.9345370999999432,['c'],0,right,['u'],0,0.25732720000087284,0.2,1,0,AccAcc,32,18,Woman,Right,
36,9,1,1.8009000000001834,['n'],0,left,['u'],0,0.35436789999948815,0.2,1,0,AccAcc,32,18,Woman,Right,
37,9,1,1.466620299999704,['n'],1,right,['e'],1,0.5254218999998557,0.2,1,0,AccAcc,32,18,Woman,Right,
38,9,1,2.250717500000974,['c'],0,right,['u'],0,0.2085466999997152,0.1,1,0,AccAcc,32,18,Woman,Right,
39,9,1,2.0161480000006122,['n'],0,left,['u'],0,0.5223216000013053,0.4,1,0,AccAcc,32,18,Woman,Right,
40,9,1,3.083260400000654,['n'],1,right,['u'],0,1.819680900000094,0.1,0,0,AccAcc,32,18,Woman,Right,
41,9,1,2.2832250999999815,['c'],1,left,['e'],1,0.3627617000001919,0.1,1,0,AccAcc,32,18,Woman,Right,
42,9,1,3.0177541000011843,['c'],0,right,['u'],0,0.27733729999999923,0.4,1,0,AccAcc,32,18,Woman,Right,
43,9,1,1.1842868999992788,['n'],1,right,['e'],1,0.36577829999987443,0.4,1,0,AccAcc,32,18,Woman,Right,
44,9,1,2.4845612999997684,['c'],1,left,['u'],0,0.25408040000002075,0.2,0,0,AccAcc,32,18,Woman,Right,
45,9,1,2.0680014999998093,['c'],0,right,['u'],0,0.3253215000004275,0.1,1,0,AccAcc,32,18,Woman,Right,
46,9,1,1.567901799999163,['n'],0,left,['e'],1,0.33098379999864846,0.1,0,0,AccAcc,32,18,Woman,Right,
47,9,1,1.250370899999325,['c'],0,right,['u'],0,0.5740220000006957,0.2,1,0,AccAcc,32,18,Woman,Right,
48,9,1,1.0022568999993382,['n'],1,right,['e'],1,0.32171480000033625,0.2,1,0,AccAcc,32,18,Woman,Right,
49,9,1,2.367553100000805,['n'],0,left,['u'],0,0.34471839999969234,0.1,1,0,AccAcc,32,18,Woman,Right,
50,9,1,2.2509624999984226,['n'],1,right,['u'],0,0.5647298000003502,0.1,0,0,AccAcc,32,18,Woman,Right,
51,9,1,1.8846964000003936,['c'],0,right,['u'],0,0.3403412000006938,0.2,1,0,AccAcc,32,18,Woman,Right,
52,9,1,2.384588499999154,['n'],1,right,['e'],1,0.36214449999897624,0.1,1,0,AccAcc,32,18,Woman,Right,
53,9,1,1.8836028000005172,['n'],1,right,['u'],0,0.4025034999995114,0.2,0,0,AccAcc,32,18,Woman,Right,
54,9,1,1.167642699998396,['c'],1,left,['e'],1,0.7263929999990069,0.4,1,0,AccAcc,32,18,Woman,Right,
55,9,1,0.7341855999984546,['c'],1,left,['e'],1,0.5267285999998421,0.4,1,0,AccAcc,32,18,Woman,Right,
56,9,1,1.401467199999388,['c'],1,left,['e'],1,0.4522940999995626,0.1,1,0,AccAcc,32,18,Woman,Right,
57,9,1,0.8180740000007063,['n'],1,right,['e'],1,0.291979600000559,0.2,1,0,AccAcc,32,18,Woman,Right,
58,9,1,1.6010562000010395,['n'],1,right,['e'],1,0.31491970000024594,0.4,1,0,AccAcc,32,18,Woman,Right,
59,9,1,1.468594199999643,['c'],1,left,['u'],0,0.23011159999987285,0.1,0,0,AccAcc,32,18,Woman,Right,
0,10,1,1.6175758999997925,['n'],0,left,['u'],0,0.2188899999982823,0.1,1,0,FastAcc,32,18,Woman,Right,
1,10,1,1.3668560999994952,['n'],1,right,['u'],0,0.14179969999895548,0.2,0,0,FastAcc,32,18,Woman,Right,
2,10,1,1.951195600000574,['n'],0,left,['e'],1,0.10942939999949886,0.1,0,0,FastAcc,32,18,Woman,Right,
3,10,1,1.3841770999988512,['n'],0,left,['u'],0,0.13238710000041465,0.1,1,0,FastAcc,32,18,Woman,Right,
4,10,1,1.1661383999999089,['n'],1,right,['e'],1,0.17959909999990487,0.4,1,0,FastAcc,32,18,Woman,Right,
5,10,1,1.31785839999975,['c'],1,left,['u'],0,0.10551820000000589,0.1,0,0,FastAcc,32,18,Woman,Right,
6,10,1,2.317664700000023,['n'],0,left,['u'],0,0.1385569999984,0.1,1,0,FastAcc,32,18,Woman,Right,
7,10,1,1.634496799999397,['n'],1,right,['e'],1,0.10211320000053092,0.2,1,0,FastAcc,32,18,Woman,Right,
8,10,1,1.7517883000000438,['c'],0,right,['u'],0,0.11064889999943262,0.2,1,0,FastAcc,32,18,Woman,Right,
9,10,1,1.3347091999985423,['n'],1,right,['e'],1,0.08743949999916367,0.2,1,0,FastAcc,32,18,Woman,Right,
10,10,1,2.150691900000311,['n'],1,right,['e'],1,0.0968166000002384,0.1,1,0,FastAcc,32,18,Woman,Right,
11,10,1,3.4342467000005854,['n'],1,right,['e'],1,0.1015834999998333,0.2,1,0,FastAcc,32,18,Woman,Right,
12,10,1,0.933823499999562,['n'],1,right,['e'],1,0.11049129999992147,0.4,1,0,FastAcc,32,18,Woman,Right,
13,10,1,1.5339141999993444,['n'],0,left,['u'],0,0.15960069999891857,0.1,1,0,FastAcc,32,18,Woman,Right,
14,10,1,2.3846533999985695,['c'],0,right,['u'],0,0.12470729999949981,0.2,1,0,FastAcc,32,18,Woman,Right,
15,10,1,1.5177813999998762,['c'],1,left,['e'],1,0.15801900000042224,0.1,1,0,FastAcc,32,18,Woman,Right,
16,10,1,1.4832951999997022,['n'],1,right,['e'],1,0.11178579999977956,0.4,1,0,FastAcc,32,18,Woman,Right,
17,10,1,1.7345758999999816,['n'],1,right,['e'],1,0.103820899999846,0.4,1,0,FastAcc,32,18,Woman,Right,
18,10,1,2.4840523000002577,['n'],1,right,['e'],1,0.131577299998753,0.2,1,0,FastAcc,32,18,Woman,Right,
19,10,1,1.8177821999997832,['c'],0,right,['u'],0,0.11922210000011546,0.1,1,0,FastAcc,32,18,Woman,Right,
20,10,1,1.4832540000006702,['n'],0,left,['e'],1,0.1864347999999154,0.2,0,0,FastAcc,32,18,Woman,Right,
21,10,1,2.3679078000004665,['n'],0,left,['u'],0,0.15006720000019413,0.1,1,0,FastAcc,32,18,Woman,Right,
22,10,1,2.1846932000007655,['n'],0,left,['u'],0,0.13950389999990875,0.4,1,0,FastAcc,32,18,Woman,Right,
23,10,1,1.9176797999989503,['c'],0,right,['u'],0,0.10752689999935683,0.2,1,0,FastAcc,32,18,Woman,Right,
24,10,1,1.0666605999995227,['n'],0,left,['e'],1,0.08007230000112031,0.1,0,0,FastAcc,32,18,Woman,Right,
25,10,1,0.6658895000000484,['n'],1,right,['e'],1,0.1168760000000475,0.2,1,0,FastAcc,32,18,Woman,Right,
26,10,1,2.08369010000024,['n'],0,left,['e'],1,0.22230000000126893,0.1,0,0,FastAcc,32,18,Woman,Right,
27,10,1,1.234420399998271,['n'],1,right,['e'],1,0.10333780000109982,0.2,1,0,FastAcc,32,18,Woman,Right,
28,10,1,1.600366099999519,['c'],1,left,['u'],0,0.11676950000037323,0.2,0,0,FastAcc,32,18,Woman,Right,
29,10,1,0.8499289999999746,['n'],1,right,['e'],1,0.09650090000104683,0.4,1,0,FastAcc,32,18,Woman,Right,
30,10,1,3.1177564000008715,['n'],0,left,['u'],0,0.13007050000123854,0.4,1,0,FastAcc,32,18,Woman,Right,
31,10,1,3.534298900000067,['c'],1,left,['u'],0,0.09817810000095051,0.1,0,0,FastAcc,32,18,Woman,Right,
32,10,1,0.8006578999993508,['n'],1,right,['e'],1,0.06416059999901336,0.2,1,0,FastAcc,32,18,Woman,Right,
33,10,1,1.967915000001085,['n'],0,left,['u'],0,0.30509259999962524,0.2,1,0,FastAcc,32,18,Woman,Right,
34,10,1,0.9011716999993951,['n'],1,right,['e'],1,0.08341790000122273,0.4,1,0,FastAcc,32,18,Woman,Right,
35,10,1,0.7680473000000347,['n'],1,right,['e'],1,0.05187570000089181,0.2,1,0,FastAcc,32,18,Woman,Right,
36,10,1,1.6842861000004632,['n'],0,left,['u'],0,0.12893550000080722,0.4,1,0,FastAcc,32,18,Woman,Right,
37,10,1,0.8011088000002928,['n'],0,left,['u'],0,0.2698718000010558,0.1,1,0,FastAcc,32,18,Woman,Right,
38,10,1,0.9667614000009053,['c'],1,left,['u'],0,0.09484779999911552,0.4,0,0,FastAcc,32,18,Woman,Right,
39,10,1,1.5838270000003831,['c'],1,left,['u'],0,0.11034169999948062,0.2,0,0,FastAcc,32,18,Woman,Right,
40,10,1,1.7013414000011835,['n'],0,left,['u'],0,0.10482740000043123,0.1,1,0,FastAcc,32,18,Woman,Right,
41,10,1,0.7674132000011014,['n'],1,right,['e'],1,0.08880060000046797,0.4,1,0,FastAcc,32,18,Woman,Right,
42,10,1,1.201287500000035,['n'],0,left,['u'],0,0.1036469999999099,0.2,1,0,FastAcc,32,18,Woman,Right,
43,10,1,2.284593099999256,['n'],1,right,['e'],1,0.15459899999950721,0.2,1,0,FastAcc,32,18,Woman,Right,
44,10,1,0.8339065999989543,['n'],1,right,['e'],1,0.03754109999863431,0.4,1,0,FastAcc,32,18,Woman,Right,
45,10,1,0.9016319000002113,['n'],1,right,['e'],1,0.11456120000002556,0.1,1,0,FastAcc,32,18,Woman,Right,
46,10,1,0.9847072000011394,['n'],1,right,['e'],1,0.16841889999886916,0.4,1,0,FastAcc,32,18,Woman,Right,
47,10,1,2.034419399999024,['n'],0,left,['u'],0,0.3711513999987801,0.2,1,0,FastAcc,32,18,Woman,Right,
48,10,1,2.717713600000934,['n'],0,left,['u'],0,0.042426699999850825,0.2,1,0,FastAcc,32,18,Woman,Right,
49,10,1,1.3177235000002838,['n'],0,left,['u'],0,0.10244469999997818,0.1,1,0,FastAcc,32,18,Woman,Right,
50,10,1,1.8343839000008302,['n'],0,left,['u'],0,0.027764000000388478,0.4,1,0,FastAcc,32,18,Woman,Right,
51,10,1,2.1345541999999114,['c'],1,left,['u'],0,0.08745180000005348,0.4,0,0,FastAcc,32,18,Woman,Right,
52,10,1,1.1172127999998338,['n'],1,right,['e'],1,0.5216739000006783,0.4,1,0,FastAcc,32,18,Woman,Right,
53,10,1,0.983970400000544,['c'],1,left,['e'],1,0.047897299999021925,0.4,1,0,FastAcc,32,18,Woman,Right,
54,10,1,1.4497172999999748,['c'],1,left,['u'],0,0.11898099999962142,0.4,0,0,FastAcc,32,18,Woman,Right,
55,10,1,1.6839081999987684,['n'],1,right,['u'],0,0.17651079999996,0.1,0,0,FastAcc,32,18,Woman,Right,
56,10,1,0.8845708000008017,['n'],1,right,['e'],1,0.05690399999912188,0.4,1,0,FastAcc,32,18,Woman,Right,
57,10,1,1.317933099999209,['c'],1,left,['e'],1,0.08533619999980147,0.4,1,0,FastAcc,32,18,Woman,Right,
58,10,1,0.7340187999998307,['n'],1,right,['e'],1,0.08611289999862493,0.1,1,0,FastAcc,32,18,Woman,Right,
59,10,1,2.734148699999423,['c'],0,right,['e'],1,0.10415110000030836,0.1,0,0,FastAcc,32,18,Woman,Right,
0,11,1,1.2010827000012796,['n'],1,right,['e'],1,0.06213149999894085,0.1,1,0,FastFast,32,18,Woman,Right,
1,11,1,1.117872000000716,['c'],1,left,['u'],0,0.35330100000101083,0.4,0,0,FastFast,32,18,Woman,Right,
2,11,1,1.8672181000001729,['n'],1,right,['u'],0,0.13865290000103414,0.1,0,0,FastFast,32,18,Woman,Right,
3,11,1,1.1014013000003615,['c'],1,left,['e'],1,0.28369630000088364,0.4,1,0,FastFast,32,18,Woman,Right,
4,11,1,1.3681823000006261,['n'],1,right,['e'],1,0.10818119999930786,0.2,1,0,FastFast,32,18,Woman,Right,
5,11,1,0.8006578000004083,['n'],1,right,['e'],1,0.07434900000043854,0.4,1,0,FastFast,32,18,Woman,Right,
6,11,1,1.1849651000011363,['c'],1,left,['u'],0,0.058559699999022996,0.1,0,0,FastFast,32,18,Woman,Right,
7,11,1,1.683738199999425,['n'],0,left,['u'],0,0.039644299999054056,0.2,1,0,FastFast,32,18,Woman,Right,
8,11,1,1.6676867000005586,['c'],1,left,['u'],0,0.13451900000109163,0.2,0,0,FastFast,32,18,Woman,Right,
9,11,1,0.9685143000006065,['c'],1,left,['e'],1,0.12449540000125126,0.2,1,0,FastFast,32,18,Woman,Right,
10,11,1,0.801296600000569,['n'],1,right,['e'],1,0.041911100001016166,0.4,1,0,FastFast,32,18,Woman,Right,
11,11,1,0.8683249000005162,['n'],1,right,['e'],1,0.10448449999967124,0.4,1,0,FastFast,32,18,Woman,Right,
12,11,1,0.6517760999995517,['n'],1,right,['e'],1,0.09245600000031118,0.4,1,0,FastFast,32,18,Woman,Right,
13,11,1,1.7348390000006475,['c'],0,right,['u'],0,0.10202720000052068,0.1,1,0,FastFast,32,18,Woman,Right,
14,11,1,0.9328891999994084,['c'],1,left,['e'],1,0.39986709999902814,0.2,1,0,FastFast,32,18,Woman,Right,
15,11,1,1.5845797000001767,['n'],0,left,['u'],0,0.14598469999873487,0.1,1,0,FastFast,32,18,Woman,Right,
16,11,1,1.95057000000088,['n'],1,right,['e'],1,0.12841429999934917,0.1,1,0,FastFast,32,18,Woman,Right,
17,11,1,2.032413799999631,['n'],0,left,['u'],0,0.06100999999944179,0.2,1,0,FastFast,32,18,Woman,Right,
18,11,1,1.3681472999996913,['c'],1,left,['e'],1,0.022022799999831477,0.2,1,0,FastFast,32,18,Woman,Right,
19,11,1,1.2836931000001641,['n'],1,right,['e'],1,0.10038329999952111,0.1,1,0,FastFast,32,18,Woman,Right,
20,11,1,2.1348065999991377,['n'],0,left,['e'],1,0.0453427999982523,0.1,0,0,FastFast,32,18,Woman,Right,
21,11,1,0.8676262000008137,['n'],1,right,['e'],1,0.07516100000066217,0.2,1,0,FastFast,32,18,Woman,Right,
22,11,1,0.6014625999996497,['n'],1,right,['e'],1,0.09871530000054918,0.4,1,0,FastFast,32,18,Woman,Right,
23,11,1,1.9845358000002307,['n'],1,right,['e'],1,0.1136372000000847,0.1,1,0,FastFast,32,18,Woman,Right,
24,11,1,1.6344042000000627,['c'],1,left,['e'],1,0.11084429999937129,0.4,1,0,FastFast,32,18,Woman,Right,
25,11,1,0.9341812000002392,['n'],1,right,['u'],0,0.13617820000035863,0.1,0,0,FastFast,32,18,Woman,Right,
26,11,1,0.6178334000014729,['n'],1,right,['e'],1,0.21907999999893946,0.4,1,0,FastFast,32,18,Woman,Right,
27,11,1,0.9007261999995535,['n'],1,right,['e'],1,0.04881799999930081,0.4,1,0,FastFast,32,18,Woman,Right,
28,11,1,0.9008886999999959,['c'],1,left,['e'],1,0.12507580000055896,0.2,1,0,FastFast,32,18,Woman,Right,
29,11,1,1.1006567999993422,['n'],1,right,['u'],0,0.14257109999925888,0.1,0,0,FastFast,32,18,Woman,Right,
30,11,1,1.3675665999999183,['c'],1,left,['e'],1,0.11708609999914188,0.4,1,0,FastFast,32,18,Woman,Right,
31,11,1,0.9525499999999738,['n'],0,left,['e'],1,0.09273590000157128,0.2,0,0,FastFast,32,18,Woman,Right,
32,11,1,1.2349919000007503,['c'],0,right,['e'],1,0.18641960000059044,0.4,0,0,FastFast,32,18,Woman,Right,
33,11,1,1.367235099998652,['c'],0,right,['e'],1,0.12665590000142402,0.1,0,0,FastFast,32,18,Woman,Right,
34,11,1,1.2671938999992562,['c'],1,left,['u'],0,0.13792120000107388,0.2,0,0,FastFast,32,18,Woman,Right,
35,11,1,1.3844196000009106,['c'],1,left,['e'],1,0.06326000000080967,0.4,1,0,FastFast,32,18,Woman,Right,
36,11,1,1.4514832999993814,['n'],1,right,['u'],0,0.16500710000036634,0.1,0,0,FastFast,32,18,Woman,Right,
37,11,1,0.8173907000000327,['c'],1,left,['e'],1,0.12804569999934756,0.4,1,0,FastFast,32,18,Woman,Right,
38,11,1,1.467535300000236,['n'],0,left,['u'],0,0.14686169999913545,0.2,1,0,FastFast,32,18,Woman,Right,
39,11,1,1.018179799999416,['c'],1,left,['e'],1,0.11841400000048452,0.2,1,0,FastFast,32,18,Woman,Right,
40,11,1,0.7013867999994545,['n'],1,right,['e'],1,0.13638619999983348,0.4,1,0,FastFast,32,18,Woman,Right,
41,11,1,1.6180272000001423,['c'],0,right,['u'],0,0.10070719999930589,0.1,1,0,FastFast,32,18,Woman,Right,
42,11,1,0.6183721999987029,['n'],1,right,['e'],1,0.1539959000001545,0.2,1,0,FastFast,32,18,Woman,Right,
43,11,1,2.9838205999985803,['n'],1,right,['u'],0,0.14324709999891638,0.2,0,0,FastFast,32,18,Woman,Right,
44,11,1,0.734022399999958,['c'],1,left,['e'],1,0.12677530000109982,0.4,1,0,FastFast,32,18,Woman,Right,
45,11,1,0.6341162000007898,['n'],1,right,['e'],1,0.14722279999841703,0.2,1,0,FastFast,32,18,Woman,Right,
46,11,1,0.6682189999992261,['c'],1,left,['e'],1,0.08463930000107212,0.4,1,0,FastFast,32,18,Woman,Right,
47,11,1,1.0511392999997042,['n'],0,left,['u'],0,0.15351620000001276,0.1,1,0,FastFast,32,18,Woman,Right,
48,11,1,1.26886100000047,['n'],0,left,['u'],0,0.0832845000004454,0.1,1,0,FastFast,32,18,Woman,Right,
49,11,1,1.0000875999994605,['c'],1,left,['u'],0,0.15444490000118094,0.2,0,0,FastFast,32,18,Woman,Right,
50,11,1,1.7839408999989246,['n'],0,left,['u'],0,0.1432764999990468,0.4,1,0,FastFast,32,18,Woman,Right,
51,11,1,1.417830700000195,['n'],1,right,['e'],1,0.11563750000095752,0.1,1,0,FastFast,32,18,Woman,Right,
52,11,1,1.3010928999992757,['n'],1,right,['e'],1,0.17324890000054438,0.4,1,0,FastFast,32,18,Woman,Right,
53,11,1,1.168339100000594,['n'],0,left,['u'],0,0.15420549999907962,0.1,1,0,FastFast,32,18,Woman,Right,
54,11,1,1.016441699999632,['c'],1,left,['e'],1,0.11082019999957993,0.2,1,0,FastFast,32,18,Woman,Right,
55,11,1,1.584296600000016,['n'],0,left,['e'],1,0.12488769999981741,0.1,0,0,FastFast,32,18,Woman,Right,
56,11,1,2.766625899999781,['n'],1,right,['u'],0,0.07667609999953129,0.4,0,0,FastFast,32,18,Woman,Right,
57,11,1,1.8828340000000026,['c'],1,left,['u'],0,0.08047720000104164,0.2,0,0,FastFast,32,18,Woman,Right,
58,11,1,2.034267400000317,['n'],1,right,['u'],0,0.11012750000008964,0.2,0,0,FastFast,32,18,Woman,Right,
59,11,1,1.584399299999859,['n'],1,right,['u'],0,0.07733469999948284,0.1,0,0,FastFast,32,18,Woman,Right,
0,12,1,2.234237000000576,['n'],0,left,['e'],1,0.11649889999898733,0.1,0,0,AccFast,32,18,Woman,Right,
1,12,1,1.7152863000010257,['n'],1,right,['u'],0,0.12683950000064215,0.2,0,0,AccFast,32,18,Woman,Right,
2,12,1,1.968706800000291,['n'],1,right,['u'],0,0.4124885000001086,0.2,0,0,AccFast,32,18,Woman,Right,
3,12,1,1.9008196000013413,['n'],0,left,['u'],0,0.13003549999848474,0.1,1,0,AccFast,32,18,Woman,Right,
4,12,1,1.13474959999985,['c'],1,left,['e'],1,0.22565340000073775,0.1,1,0,AccFast,32,18,Woman,Right,
5,12,1,1.9179629999998724,['n'],1,right,['e'],1,0.07871410000007018,0.1,1,0,AccFast,32,18,Woman,Right,
6,12,1,1.750938600000154,['c'],1,left,['e'],1,0.08782909999899857,0.2,1,0,AccFast,32,18,Woman,Right,
7,12,1,3.151045000000522,['n'],0,left,['u'],0,0.07290240000111226,0.4,1,0,AccFast,32,18,Woman,Right,
8,12,1,1.5845446999992419,['n'],1,right,['e'],1,0.08955910000076983,0.2,1,0,AccFast,32,18,Woman,Right,
9,12,1,3.184423099999549,['n'],1,right,['u'],0,0.13726449999921897,0.1,0,0,AccFast,32,18,Woman,Right,
10,12,1,1.9841326999994635,['n'],1,right,['e'],1,0.11964900000020862,0.4,1,0,AccFast,32,18,Woman,Right,
11,12,1,1.5669593999991775,['c'],1,left,['e'],1,0.08649479999985488,0.4,1,0,AccFast,32,18,Woman,Right,
12,12,1,3.784238100000948,['n'],0,left,['e'],1,0.0938133999989077,0.4,0,0,AccFast,32,18,Woman,Right,
13,12,1,2.3843149000003905,['n'],0,left,['u'],0,0.15757420000045386,0.1,1,0,AccFast,32,18,Woman,Right,
14,12,1,1.7172033000006195,['c'],1,left,['u'],0,0.10119579999991402,0.2,0,0,AccFast,32,18,Woman,Right,
15,12,1,1.483442800001285,['n'],1,right,['e'],1,0.07280890000038198,0.2,1,0,AccFast,32,18,Woman,Right,
16,12,1,2.6503114999995887,['n'],1,right,['u'],0,0.030830200001219055,0.2,0,0,AccFast,32,18,Woman,Right,
17,12,1,2.1679533000005904,['n'],0,left,['e'],1,0.08892779999951017,0.2,0,0,AccFast,32,18,Woman,Right,
18,12,1,2.401023399999758,['c'],1,left,['u'],0,0.21569330000056652,0.4,0,0,AccFast,32,18,Woman,Right,
19,12,1,1.8678756000008434,['n'],1,right,['e'],1,0.08699929999966116,0.4,1,0,AccFast,32,18,Woman,Right,
20,12,1,1.967725700000301,['n'],1,right,['e'],1,0.055104600000049686,0.4,1,0,AccFast,32,18,Woman,Right,
21,12,1,1.7341716999999335,['c'],0,right,['u'],0,0.08210700000017823,0.2,1,0,AccFast,32,18,Woman,Right,
22,12,1,2.584389400000873,['c'],1,left,['u'],0,0.3459661999986565,0.4,0,0,AccFast,32,18,Woman,Right,
23,12,1,1.3173653999983799,['n'],1,right,['u'],0,0.15428929999870888,0.1,0,0,AccFast,32,18,Woman,Right,
24,12,1,1.6345443000009254,['c'],1,left,['u'],0,0.11681739999949059,0.1,0,0,AccFast,32,18,Woman,Right,
25,12,1,2.6164802000002965,['n'],0,left,['u'],0,0.04256549999990966,0.1,1,0,AccFast,32,18,Woman,Right,
26,12,1,2.000782999999501,['n'],0,left,['u'],0,0.1069350999987364,0.2,1,0,AccFast,32,18,Woman,Right,
27,12,1,2.116917299999841,['n'],0,left,['u'],0,0.06852690000050643,0.2,1,0,AccFast,32,18,Woman,Right,
28,12,1,1.8511455999996542,['n'],0,left,['u'],0,0.15458960000069055,0.1,1,0,AccFast,32,18,Woman,Right,
29,12,1,1.0844777999991493,['n'],1,right,['e'],1,0.09124900000097114,0.2,1,0,AccFast,32,18,Woman,Right,
30,12,1,0.8666376000001037,['n'],1,right,['e'],1,0.1524427000003925,0.4,1,0,AccFast,32,18,Woman,Right,
31,12,1,1.2006679999994958,['c'],1,left,['u'],0,0.14780679999967106,0.1,0,0,AccFast,32,18,Woman,Right,
32,12,1,0.7182327000009536,['n'],1,right,['e'],1,0.099338699999862,0.4,1,0,AccFast,32,18,Woman,Right,
33,12,1,2.7011483999995107,['c'],1,left,['e'],1,0.19789380000111123,0.4,1,0,AccFast,32,18,Woman,Right,
34,12,1,1.068241000000853,['n'],1,right,['e'],1,0.13318120000076306,0.4,1,0,AccFast,32,18,Woman,Right,
35,12,1,1.8683065000004717,['c'],0,right,['u'],0,0.15224459999990358,0.1,1,0,AccFast,32,18,Woman,Right,
36,12,1,1.0512387999988277,['n'],1,right,['e'],1,0.12217170000076294,0.1,1,0,AccFast,32,18,Woman,Right,
37,12,1,2.1337060000005295,['n'],1,right,['u'],0,0.14678710000043793,0.1,0,0,AccFast,32,18,Woman,Right,
38,12,1,2.1332640999989962,['n'],1,right,['u'],0,0.08986109999932523,0.2,0,0,AccFast,32,18,Woman,Right,
39,12,1,2.432636800000182,['c'],1,left,['u'],0,0.10377570000127889,0.1,0,0,AccFast,32,18,Woman,Right,
40,12,1,1.4839938999994047,['n'],1,right,['u'],0,0.07462379999924451,0.2,0,0,AccFast,32,18,Woman,Right,
41,12,1,1.4674525000009453,['n'],0,left,['u'],0,0.9915770000006887,0.2,1,0,AccFast,32,18,Woman,Right,
42,12,1,1.7348681000003126,['c'],1,left,['u'],0,0.08528470000055677,0.1,0,0,AccFast,32,18,Woman,Right,
43,12,1,1.1680173000004288,['n'],1,right,['e'],1,0.0696391000001313,0.4,1,0,AccFast,32,18,Woman,Right,
44,12,1,1.9679427999999461,['n'],1,right,['e'],1,0.07065049999982875,0.4,1,0,AccFast,32,18,Woman,Right,
45,12,1,1.234941800001252,['c'],1,left,['e'],1,0.1329673999989609,0.2,1,0,AccFast,32,18,Woman,Right,
46,12,1,1.7179832000001625,['c'],1,left,['u'],0,0.14135320000059437,0.1,0,0,AccFast,32,18,Woman,Right,
47,12,1,0.7517203000006702,['n'],1,right,['e'],1,0.14063119999991613,0.4,1,0,AccFast,32,18,Woman,Right,
48,12,1,1.1346684000000096,['c'],1,left,['e'],1,0.2198530000005121,0.4,1,0,AccFast,32,18,Woman,Right,
49,12,1,1.6336917000007816,['c'],1,left,['u'],0,0.1171186999999918,0.2,0,0,AccFast,32,18,Woman,Right,
50,12,1,1.8016107999992528,['n'],0,left,['u'],0,0.042133899998589186,0.2,1,0,AccFast,32,18,Woman,Right,
51,12,1,1.516644900000756,['n'],1,right,['e'],1,0.11131190000014612,0.4,1,0,AccFast,32,18,Woman,Right,
52,12,1,1.9672957000002498,['n'],0,left,['u'],0,0.062167500000214204,0.4,1,0,AccFast,32,18,Woman,Right,
53,12,1,2.4842745999994804,['n'],1,right,['u'],0,0.07451530000071216,0.1,0,0,AccFast,32,18,Woman,Right,
54,12,1,2.1843893000004755,['n'],1,right,['e'],1,0.08319250000022294,0.4,1,0,AccFast,32,18,Woman,Right,
55,12,1,2.3009672999996837,['n'],1,right,['u'],0,0.11819149999973888,0.1,0,0,AccFast,32,18,Woman,Right,
56,12,1,1.6346269000005123,['c'],1,left,['u'],0,0.0983498999994481,0.2,0,0,AccFast,32,18,Woman,Right,
57,12,1,1.7678798000015377,['n'],0,left,['u'],0,0.13831199999913224,0.2,1,0,AccFast,32,18,Woman,Right,
58,12,1,1.3345523000007233,['n'],1,right,['e'],1,0.09776939999937895,0.1,1,0,AccFast,32,18,Woman,Right,
59,12,1,1.1338577000005898,['n'],1,right,['e'],1,0.11478200000055949,0.4,1,0,AccFast,32,18,Woman,Right,
0,13,1,1.4511136000000988,['n'],1,right,['e'],1,0.6602899999998044,0.4,1,0,AccAcc,32,18,Woman,Right,
1,13,1,2.9846677000005,['n'],1,right,['u'],0,1.1728347000007489,0.1,0,0,AccAcc,32,18,Woman,Right,
2,13,1,1.4836755000014819,['n'],1,right,['e'],1,0.5412395000003016,0.4,1,0,AccAcc,32,18,Woman,Right,
3,13,1,3.467313200000717,['n'],0,left,['u'],0,0.5287595000008878,0.1,1,0,AccAcc,32,18,Woman,Right,
4,13,1,3.267990299998928,['n'],0,left,['u'],0,0.45902600000044913,0.2,1,0,AccAcc,32,18,Woman,Right,
5,13,1,1.3347924000008788,['n'],1,right,['e'],1,0.39014959999985876,0.4,1,0,AccAcc,32,18,Woman,Right,
6,13,1,1.9183691999987786,['c'],1,left,['e'],1,0.47647430000142776,0.4,1,0,AccAcc,32,18,Woman,Right,
7,13,1,3.3175747000004776,['n'],0,left,['u'],0,0.42401409999911266,0.1,1,0,AccAcc,32,18,Woman,Right,
8,13,1,2.2337801000012405,['n'],0,left,['e'],1,0.44823209999958635,0.4,0,0,AccAcc,32,18,Woman,Right,
9,13,1,2.1505364000004192,['c'],1,left,['e'],1,0.2829667999994854,0.1,1,0,AccAcc,32,18,Woman,Right,
10,13,1,2.4834780000001047,['c'],1,left,['e'],1,0.1905334999992192,0.4,1,0,AccAcc,32,18,Woman,Right,
11,13,1,2.0513074999998935,['n'],0,left,['u'],0,0.21560329999920214,0.2,1,0,AccAcc,32,18,Woman,Right,
12,13,1,2.3515268999999535,['c'],1,left,['u'],0,0.32337790000019595,0.1,0,0,AccAcc,32,18,Woman,Right,
13,13,1,2.2674244999998336,['n'],0,left,['u'],0,0.39853779999975814,0.1,1,0,AccAcc,32,18,Woman,Right,
14,13,1,2.084183500001018,['n'],1,right,['u'],0,0.5095824999989418,0.4,0,0,AccAcc,32,18,Woman,Right,
15,13,1,2.117775500000789,['c'],1,left,['u'],0,0.39130430000113847,0.4,0,0,AccAcc,32,18,Woman,Right,
16,13,1,2.3347623000008753,['n'],0,left,['u'],0,0.6052911999995558,0.2,1,0,AccAcc,32,18,Woman,Right,
17,13,1,2.5671977999991213,['n'],1,right,['e'],1,0.44893340000089665,0.4,1,0,AccAcc,32,18,Woman,Right,
18,13,1,2.2178627000012057,['n'],1,right,['e'],1,0.26470359999984794,0.2,1,0,AccAcc,32,18,Woman,Right,
19,13,1,3.1493976000001567,['n'],0,left,['u'],0,0.4201156999988598,0.2,1,0,AccAcc,32,18,Woman,Right,
20,13,1,2.3187316000003193,['c'],1,left,['u'],0,0.3919107999990956,0.2,0,0,AccAcc,32,18,Woman,Right,
21,13,1,2.3836133999993763,['c'],0,right,['e'],1,0.42767360000107146,0.2,0,0,AccAcc,32,18,Woman,Right,
22,13,1,2.384951900001397,['n'],1,right,['e'],1,0.3180086000011215,0.1,1,0,AccAcc,32,18,Woman,Right,
23,13,1,2.6842828999997437,['n'],1,right,['e'],1,0.4089423999994324,0.2,1,0,AccAcc,32,18,Woman,Right,
24,13,1,3.651342299999669,['n'],1,right,['e'],1,0.4892887999994855,0.2,1,0,AccAcc,32,18,Woman,Right,
25,13,1,2.067047399999865,['c'],1,left,['e'],1,0.39046130000133417,0.2,1,0,AccAcc,32,18,Woman,Right,
26,13,1,2.7182365999997273,['n'],1,right,['u'],0,0.44416070000079344,0.4,0,0,AccAcc,32,18,Woman,Right,
27,13,1,2.834634599999845,['n'],1,right,['e'],1,0.4921916000002966,0.4,1,0,AccAcc,32,18,Woman,Right,
28,13,1,2.9344495000004827,['n'],1,right,['u'],0,0.5979153999996925,0.1,0,0,AccAcc,32,18,Woman,Right,
29,13,1,2.250945399999182,['c'],1,left,['e'],1,0.43855169999915233,0.2,1,0,AccAcc,32,18,Woman,Right,
30,13,1,2.9009956999998394,['n'],0,left,['u'],0,0.43568989999948826,0.1,1,0,AccAcc,32,18,Woman,Right,
31,13,1,2.4014584999986255,['n'],1,right,['e'],1,0.6927355000007083,0.2,1,0,AccAcc,32,18,Woman,Right,
32,13,1,2.467705600000045,['n'],0,left,['u'],0,0.5214464999990014,0.4,1,0,AccAcc,32,18,Woman,Right,
33,13,1,1.934327699998903,['c'],1,left,['e'],1,0.36197859999992943,0.4,1,0,AccAcc,32,18,Woman,Right,
34,13,1,1.7183763000011822,['c'],1,left,['e'],1,0.4406159000009211,0.2,1,0,AccAcc,32,18,Woman,Right,
35,13,1,2.3841172000011284,['c'],1,left,['e'],1,0.42672440000023926,0.2,1,0,AccAcc,32,18,Woman,Right,
36,13,1,2.1675718999995297,['n'],1,right,['u'],0,0.38973579999947106,0.2,0,0,AccAcc,32,18,Woman,Right,
37,13,1,2.1510371999993367,['n'],1,right,['u'],0,0.33876690000033705,0.1,0,0,AccAcc,32,18,Woman,Right,
38,13,1,2.8160623000003397,['n'],0,left,['u'],0,0.5673808999999892,0.1,1,0,AccAcc,32,18,Woman,Right,
39,13,1,1.3169306000017968,['c'],1,left,['e'],1,0.478395799998907,0.4,1,0,AccAcc,32,18,Woman,Right,
40,13,1,1.9672721999995701,['n'],1,right,['e'],1,0.4149070000003121,0.2,1,0,AccAcc,32,18,Woman,Right,
41,13,1,1.5676435999994283,['n'],1,right,['e'],1,0.6898897000010038,0.4,1,0,AccAcc,32,18,Woman,Right,
42,13,1,2.0006826000008004,['c'],1,left,['e'],1,0.6017507999986265,0.4,1,0,AccAcc,32,18,Woman,Right,
43,13,1,1.7335392999993928,['n'],1,right,['e'],1,0.6386108000006061,0.1,1,0,AccAcc,32,18,Woman,Right,
44,13,1,3.1178025000008347,['n'],1,right,['u'],0,0.5067577999998321,0.1,0,0,AccAcc,32,18,Woman,Right,
45,13,1,2.8010596000003716,['n'],1,right,['u'],0,0.3773695999989286,0.2,0,0,AccAcc,32,18,Woman,Right,
46,13,1,1.8677449999995588,['c'],0,right,['u'],0,0.6423861000002944,0.2,1,0,AccAcc,32,18,Woman,Right,
47,13,1,1.917186099999526,['n'],1,right,['e'],1,0.5429290000010951,0.4,1,0,AccAcc,32,18,Woman,Right,
48,13,1,1.7514128999991954,['c'],1,left,['u'],0,0.5177389000000403,0.1,0,0,AccAcc,32,18,Woman,Right,
49,13,1,1.184955800001262,['n'],1,right,['e'],1,0.6282446000004711,0.1,1,0,AccAcc,32,18,Woman,Right,
50,13,1,2.0828462000008585,['n'],1,right,['e'],1,0.7465935000000172,0.1,1,0,AccAcc,32,18,Woman,Right,
51,13,1,3.567027199998847,['c'],1,left,['u'],0,0.4639874999993481,0.1,0,0,AccAcc,32,18,Woman,Right,
52,13,1,1.7008663000015076,['n'],1,right,['e'],1,0.6038121999990835,0.2,1,0,AccAcc,32,18,Woman,Right,
53,13,1,1.3502049000016996,['n'],1,right,['e'],1,0.8321534000006068,0.4,1,0,AccAcc,32,18,Woman,Right,
54,13,1,1.917542199998934,['c'],1,left,['e'],1,0.6605523000016547,0.1,1,0,AccAcc,32,18,Woman,Right,
55,13,1,2.451356499999747,['n'],1,right,['e'],1,0.45924729999933334,0.1,1,0,AccAcc,32,18,Woman,Right,
56,13,1,2.5682295999995404,['n'],0,left,['u'],0,0.5330924000008963,0.2,1,0,AccAcc,32,18,Woman,Right,
57,13,1,1.9011281999992207,['n'],0,left,['u'],0,0.4380105000000185,0.1,1,0,AccAcc,32,18,Woman,Right,
58,13,1,0.9840196000004653,['c'],1,left,['e'],1,0.527615799999694,0.4,1,0,AccAcc,32,18,Woman,Right,
59,13,1,1.1508176000006642,['n'],1,right,['e'],1,0.6234561000001122,0.4,1,0,AccAcc,32,18,Woman,Right,
0,14,1,1.3344608000006701,['n'],0,left,['u'],0,0.18670120000024326,0.1,1,0,FastAcc,32,18,Woman,Right,
1,14,1,1.3673636999992596,['n'],1,right,['u'],0,0.7992306999985885,0.2,0,0,FastAcc,32,18,Woman,Right,
2,14,1,1.5508959999988292,['n'],1,right,['u'],0,0.8358157000002393,0.1,0,0,FastAcc,32,18,Woman,Right,
3,14,1,0.7180788000005123,['c'],1,left,['e'],1,0.7439178999993601,0.4,1,0,FastAcc,32,18,Woman,Right,
4,14,1,0.9517034000000422,['c'],1,left,['e'],1,0.6628502000003209,0.1,1,0,FastAcc,32,18,Woman,Right,
5,14,1,1.0512235999995028,['c'],1,left,['u'],0,0.4533324999993056,0.2,0,0,FastAcc,32,18,Woman,Right,
6,14,1,1.3012822000000597,['c'],1,left,['e'],1,0.81688480000048,0.4,1,0,FastAcc,32,18,Woman,Right,
7,14,1,1.2828806999987137,['c'],1,left,['u'],0,0.8312542999992729,0.1,0,0,FastAcc,32,18,Woman,Right,
8,14,1,1.8516204999996262,['n'],1,right,['u'],0,0.4865088000005926,0.4,0,0,FastAcc,32,18,Woman,Right,
9,14,1,0.7852781000001414,['c'],1,left,['e'],1,0.5182234999992943,0.2,1,0,FastAcc,32,18,Woman,Right,
10,14,1,1.0846774999990885,['c'],1,left,['u'],0,0.4887823999997636,0.2,0,0,FastAcc,32,18,Woman,Right,
11,14,1,1.30131160000019,['c'],0,right,['u'],0,0.3874618999998347,0.2,1,0,FastAcc,32,18,Woman,Right,
12,14,1,0.6848451000005298,['n'],1,right,['e'],1,0.4910884000000806,0.4,1,0,FastAcc,32,18,Woman,Right,
13,14,1,0.9350948999999673,['c'],1,left,['e'],1,0.7247469000012643,0.1,1,0,FastAcc,32,18,Woman,Right,
14,14,1,1.1679845999988174,['n'],1,right,['u'],0,0.47586000000046624,0.1,0,0,FastAcc,32,18,Woman,Right,
15,14,1,1.151061300000947,['n'],1,right,['e'],1,0.49341959999946994,0.2,1,0,FastAcc,32,18,Woman,Right,
16,14,1,1.0324290999997174,['c'],1,left,['e'],1,0.5798869999998715,0.2,1,0,FastAcc,32,18,Woman,Right,
17,14,1,0.6010796999999002,['n'],1,right,['e'],1,0.9021871999993891,0.2,1,0,FastAcc,32,18,Woman,Right,
18,14,1,1.0503635000004579,['n'],1,right,['e'],1,0.28256969999893045,0.2,1,0,FastAcc,32,18,Woman,Right,
19,14,1,0.734648700001344,['n'],1,right,['e'],1,0.6441074000013032,0.4,1,0,FastAcc,32,18,Woman,Right,
20,14,1,2.1011949999992794,['n'],0,left,['u'],0,0.5693873000000167,0.1,1,0,FastAcc,32,18,Woman,Right,
21,14,1,1.4327032000001054,['c'],1,left,['e'],1,0.6688690000009956,0.1,1,0,FastAcc,32,18,Woman,Right,
22,14,1,1.2009434000010515,['n'],1,right,['u'],0,0.5793269999994664,0.2,0,0,FastAcc,32,18,Woman,Right,
23,14,1,2.418132800001331,['c'],1,left,['u'],0,0.5419306999992841,0.1,0,0,FastAcc,32,18,Woman,Right,
24,14,1,1.9174524000009114,['n'],1,right,['u'],0,0.7182926999994379,0.2,0,0,FastAcc,32,18,Woman,Right,
25,14,1,1.7344461000011506,['n'],0,left,['u'],0,0.7350147000015568,0.1,1,0,FastAcc,32,18,Woman,Right,
26,14,1,2.100345800001378,['n'],1,right,['u'],0,0.16013229999953182,0.1,0,0,FastAcc,32,18,Woman,Right,
27,14,1,1.0180734000005032,['n'],1,right,['u'],0,1.0115036000006512,0.4,0,0,FastAcc,32,18,Woman,Right,
28,14,1,1.434686900000088,['n'],1,right,['u'],0,0.7085030999987794,0.1,0,0,FastAcc,32,18,Woman,Right,
29,14,1,1.65107209999951,['c'],0,right,['u'],0,0.6970135000010487,0.2,1,0,FastAcc,32,18,Woman,Right,
30,14,1,2.1845071999996435,['n'],0,left,['e'],1,0.6161873000000924,0.1,0,0,FastAcc,32,18,Woman,Right,
31,14,1,0.6839897000008932,['n'],1,right,['e'],1,0.7583912999998574,0.4,1,0,FastAcc,32,18,Woman,Right,
32,14,1,0.8010697999998229,['n'],0,left,['u'],0,0.6348784000001615,0.2,1,0,FastAcc,32,18,Woman,Right,
33,14,1,0.8663293999998132,['c'],1,left,['u'],0,0.9464810000008583,0.4,0,0,FastAcc,32,18,Woman,Right,
34,14,1,1.0351270999999542,['n'],0,left,['u'],0,0.7404815999998391,0.2,1,0,FastAcc,32,18,Woman,Right,
35,14,1,0.8515141000007134,['c'],1,left,['e'],1,0.8561276000000362,0.4,1,0,FastAcc,32,18,Woman,Right,
36,14,1,1.3513924999988376,['n'],0,left,['u'],0,0.9137590000009368,0.4,1,0,FastAcc,32,18,Woman,Right,
37,14,1,1.3343377000001055,['n'],1,right,['e'],1,0.7469189000003098,0.4,1,0,FastAcc,32,18,Woman,Right,
38,14,1,0.8846929999999702,['c'],1,left,['e'],1,0.8752731999993557,0.4,1,0,FastAcc,32,18,Woman,Right,
39,14,1,0.8346676000001025,['n'],1,right,['e'],1,0.8412681999998313,0.4,1,0,FastAcc,32,18,Woman,Right,
40,14,1,0.7180914999989909,['n'],1,right,['e'],1,0.5258835000004183,0.4,1,0,FastAcc,32,18,Woman,Right,
41,14,1,1.6176298999998835,['n'],1,right,['u'],0,0.4276033999994979,0.1,0,0,FastAcc,32,18,Woman,Right,
42,14,1,1.1330296999985876,['n'],1,right,['u'],0,0.5591443000012077,0.1,0,0,FastAcc,32,18,Woman,Right,
43,14,1,1.4839517999989766,['n'],1,right,['u'],0,1.0243038999997225,0.4,0,0,FastAcc,32,18,Woman,Right,
44,14,1,1.2342617000012979,['n'],0,left,['u'],0,0.5849127999990742,0.1,1,0,FastAcc,32,18,Woman,Right,
45,14,1,2.63453539999864,['n'],1,right,['e'],1,0.34645110000019486,0.4,1,0,FastAcc,32,18,Woman,Right,
46,14,1,0.7333613999999216,['c'],1,left,['e'],1,0.5302379999993718,0.4,1,0,FastAcc,32,18,Woman,Right,
47,14,1,1.8341555999995762,['n'],1,right,['e'],1,0.8692289999999048,0.1,1,0,FastAcc,32,18,Woman,Right,
48,14,1,0.8177307000005385,['n'],1,right,['e'],1,0.5003667999990284,0.4,1,0,FastAcc,32,18,Woman,Right,
49,14,1,0.6343954999993002,['n'],1,right,['e'],1,0.569277399999919,0.4,1,0,FastAcc,32,18,Woman,Right,
50,14,1,0.6845940000002884,['n'],1,right,['e'],1,0.48944399999891175,0.4,1,0,FastAcc,32,18,Woman,Right,
51,14,1,0.96732990000055,['c'],1,left,['u'],0,0.5457861000013509,0.2,0,0,FastAcc,32,18,Woman,Right,
52,14,1,1.9175860000013927,['c'],1,left,['u'],0,0.36953209999956016,0.2,0,0,FastAcc,32,18,Woman,Right,
53,14,1,1.4682238000004872,['n'],0,left,['u'],0,0.8756055000012566,0.2,1,0,FastAcc,32,18,Woman,Right,
54,14,1,1.2012267999998585,['n'],0,left,['u'],0,0.6344416000010824,0.2,1,0,FastAcc,32,18,Woman,Right,
55,14,1,1.4842568000003666,['n'],1,right,['u'],0,0.5847814999997354,0.1,0,0,FastAcc,32,18,Woman,Right,
56,14,1,1.6680188000009366,['c'],1,left,['e'],1,0.6884461999998166,0.1,1,0,FastAcc,32,18,Woman,Right,
57,14,1,1.184906200000114,['n'],1,right,['u'],0,0.8242203000008885,0.2,0,0,FastAcc,32,18,Woman,Right,
58,14,1,1.8009158999993815,['n'],0,left,['u'],0,0.2419703000014124,0.2,1,0,FastAcc,32,18,Woman,Right,
59,14,1,1.7011241000000155,['n'],0,left,['u'],0,0.5831352000004699,0.1,1,0,FastAcc,32,18,Woman,Right,
0,15,1,1.133969700000307,['n'],1,right,['u'],0,0.48005080000075395,0.1,0,0,FastFast,32,18,Woman,Right,
1,15,1,1.2172841999999946,['n'],0,left,['u'],0,0.22242069999992964,0.1,1,0,FastFast,32,18,Woman,Right,
2,15,1,2.16786349999893,['c'],0,right,['u'],0,0.08188499999960186,0.1,1,0,FastFast,32,18,Woman,Right,
3,15,1,1.566630700001042,['c'],0,right,['u'],0,0.11449480000010226,0.4,1,0,FastFast,32,18,Woman,Right,
4,15,1,1.5507520999999542,['c'],0,right,['u'],0,0.16184399999838206,0.1,1,0,FastFast,32,18,Woman,Right,
5,15,1,1.1339688999996724,['c'],1,left,['e'],1,0.14376459999948565,0.4,1,0,FastFast,32,18,Woman,Right,
6,15,1,1.585750399999597,['c'],1,left,['u'],0,0.15743450000081793,0.4,0,0,FastFast,32,18,Woman,Right,
7,15,1,1.5349583000006533,['n'],1,right,['e'],1,0.1566802999986976,0.1,1,0,FastFast,32,18,Woman,Right,
8,15,1,1.1013337999993382,['c'],0,right,['e'],1,0.10883909999938624,0.2,0,0,FastFast,32,18,Woman,Right,
9,15,1,1.2006775999998354,['n'],0,left,['e'],1,0.13933329999963462,0.2,0,0,FastFast,32,18,Woman,Right,
10,15,1,1.034851999998864,['c'],1,left,['u'],0,0.446715399999448,0.4,0,0,FastFast,32,18,Woman,Right,
11,15,1,0.7340401000001293,['n'],1,right,['e'],1,0.11400640000101703,0.4,1,0,FastFast,32,18,Woman,Right,
12,15,1,1.117836499999612,['n'],1,right,['u'],0,0.17854600000100618,0.2,0,0,FastFast,32,18,Woman,Right,
13,15,1,0.6676595999997517,['n'],1,right,['e'],1,0.1628072000003158,0.4,1,0,FastFast,32,18,Woman,Right,
14,15,1,1.6002965999996377,['n'],1,right,['u'],0,0.11075849999906495,0.2,0,0,FastFast,32,18,Woman,Right,
15,15,1,0.8845521000002918,['c'],1,left,['e'],1,0.12200959999972838,0.4,1,0,FastFast,32,18,Woman,Right,
16,15,1,0.6512133000014728,['n'],1,right,['e'],1,0.1571843000001536,0.2,1,0,FastFast,32,18,Woman,Right,
17,15,1,0.7511457000000519,['c'],1,left,['e'],1,0.07553650000045309,0.2,1,0,FastFast,32,18,Woman,Right,
18,15,1,1.317984900000738,['n'],1,right,['e'],1,0.3263552000007621,0.2,1,0,FastFast,32,18,Woman,Right,
19,15,1,0.6347521000006964,['c'],1,left,['e'],1,0.1309291999987181,0.2,1,0,FastFast,32,18,Woman,Right,
20,15,1,1.2340445999998337,['c'],1,left,['e'],1,0.23864059999868914,0.2,1,0,FastFast,32,18,Woman,Right,
21,15,1,1.0340054000007513,['n'],0,left,['u'],0,0.17402629999924102,0.2,1,0,FastFast,32,18,Woman,Right,
22,15,1,1.618152099999861,['n'],0,left,['e'],1,0.08987170000000333,0.1,0,0,FastFast,32,18,Woman,Right,
23,15,1,0.7679535000006581,['n'],1,right,['e'],1,0.10552519999873766,0.4,1,0,FastFast,32,18,Woman,Right,
24,15,1,1.3511653000005026,['c'],1,left,['u'],0,0.11371559999861347,0.4,0,0,FastFast,32,18,Woman,Right,
25,15,1,2.2012054000006174,['n'],0,left,['e'],1,0.1516233000002103,0.1,0,0,FastFast,32,18,Woman,Right,
26,15,1,1.3833340999990469,['c'],1,left,['u'],0,0.15666869999949995,0.2,0,0,FastFast,32,18,Woman,Right,
27,15,1,0.8512883000003058,['c'],1,left,['e'],1,0.15114990000074613,0.4,1,0,FastFast,32,18,Woman,Right,
28,15,1,1.616454099999828,['n'],0,left,['e'],1,0.09922740000001795,0.4,0,0,FastFast,32,18,Woman,Right,
29,15,1,1.0172915999992256,['n'],1,right,['e'],1,0.15203230000042822,0.2,1,0,FastFast,32,18,Woman,Right,
30,15,1,0.8344071000010445,['n'],1,right,['e'],1,0.09897629999977653,0.4,1,0,FastFast,32,18,Woman,Right,
31,15,1,1.5509445000006963,['n'],1,right,['e'],1,0.13194810000095458,0.2,1,0,FastFast,32,18,Woman,Right,
32,15,1,1.9681106000007276,['c'],0,right,['e'],1,0.22596259999954782,0.1,0,0,FastFast,32,18,Woman,Right,
33,15,1,1.500279200001387,['c'],1,left,['u'],0,0.12754260000110662,0.1,0,0,FastFast,32,18,Woman,Right,
34,15,1,1.2670499000014388,['n'],1,right,['e'],1,0.13831149999896297,0.4,1,0,FastFast,32,18,Woman,Right,
35,15,1,1.8512580999995407,['c'],1,left,['u'],0,0.5732847999988735,0.2,0,0,FastFast,32,18,Woman,Right,
36,15,1,0.9009863000010228,['c'],1,left,['e'],1,0.1331596999989415,0.1,1,0,FastFast,32,18,Woman,Right,
37,15,1,1.2019433999994362,['n'],1,right,['e'],1,0.14605809999920893,0.2,1,0,FastFast,32,18,Woman,Right,
38,15,1,1.2008750999993936,['n'],0,left,['u'],0,0.15826840000045195,0.1,1,0,FastFast,32,18,Woman,Right,
39,15,1,1.0824271999990742,['n'],1,right,['u'],0,0.1599647000002733,0.2,0,0,FastFast,32,18,Woman,Right,
40,15,1,1.2010810000010679,['n'],1,right,['u'],0,0.20357900000090012,0.1,0,0,FastFast,32,18,Woman,Right,
41,15,1,0.7011985999997705,['c'],1,left,['e'],1,0.12190849999933562,0.4,1,0,FastFast,32,18,Woman,Right,
42,15,1,1.034301300000152,['n'],1,right,['e'],1,0.15915839999979653,0.1,1,0,FastFast,32,18,Woman,Right,
43,15,1,1.1837615999993432,['n'],0,left,['e'],1,0.10725319999983185,0.1,0,0,FastFast,32,18,Woman,Right,
44,15,1,0.684905100000833,['n'],1,right,['e'],1,0.12659639999947103,0.4,1,0,FastFast,32,18,Woman,Right,
45,15,1,2.167946800000209,['n'],1,right,['u'],0,0.8691705000001093,0.1,0,0,FastFast,32,18,Woman,Right,
46,15,1,1.5513081000008242,['c'],1,left,['u'],0,0.13498839999920165,0.4,0,0,FastFast,32,18,Woman,Right,
47,15,1,1.317378199999439,['n'],1,right,['u'],0,0.04720869999982824,0.1,0,0,FastFast,32,18,Woman,Right,
48,15,1,0.7506878999993205,['c'],1,left,['e'],1,0.1134453000013309,0.4,1,0,FastFast,32,18,Woman,Right,
49,15,1,1.0004480999996304,['n'],1,right,['u'],0,0.13584830000036163,0.2,0,0,FastFast,32,18,Woman,Right,
50,15,1,1.4677735999994184,['n'],1,right,['u'],0,0.1858245999992505,0.1,0,0,FastFast,32,18,Woman,Right,
51,15,1,0.9506596000010177,['n'],0,left,['u'],0,0.1904735999996774,0.4,1,0,FastFast,32,18,Woman,Right,
52,15,1,1.3851548999991792,['c'],1,left,['e'],1,0.3061016000010568,0.2,1,0,FastFast,32,18,Woman,Right,
53,15,1,0.7014675999998872,['n'],1,right,['e'],1,0.12467640000068059,0.4,1,0,FastFast,32,18,Woman,Right,
54,15,1,1.885002799999711,['c'],1,left,['u'],0,0.15884809999988647,0.4,0,0,FastFast,32,18,Woman,Right,
55,15,1,0.9344848000000638,['c'],1,left,['u'],0,0.10180570000011357,0.2,0,0,FastFast,32,18,Woman,Right,
56,15,1,0.6512567999998282,['n'],1,right,['e'],1,0.15434479999930772,0.1,1,0,FastFast,32,18,Woman,Right,
57,15,1,1.318086499999481,['c'],1,left,['u'],0,0.09751340000002529,0.2,0,0,FastFast,32,18,Woman,Right,
58,15,1,1.6171472000005451,['c'],1,left,['u'],0,0.143556199998784,0.1,0,0,FastFast,32,18,Woman,Right,
59,15,1,0.6997632000002341,['n'],1,right,['e'],1,0.17640840000058233,0.1,1,0,FastFast,32,18,Woman,Right,
