withinblocktrial,block,block_repetition,rt,resp,cor,cresp,conf_press,cj,rtconf,coherence,metacognition,slow_trial,manipulation,sub,age,gender,handedness,
0,1,1,1.4838702999986708,['n'],1,right,none,-99,-99,0.5,-99,0,none,31,18,Woman,Right,
1,1,1,0.8009261999995942,['c'],1,left,none,-99,-99,0.5,-99,0,none,31,18,Woman,Right,
2,1,1,0.9674114999997983,['n'],1,right,none,-99,-99,0.5,-99,0,none,31,18,Woman,Right,
3,1,1,0.8498042999999598,['n'],1,right,none,-99,-99,0.5,-99,0,none,31,18,Woman,Right,
4,1,1,0.8509873999992124,['c'],1,left,none,-99,-99,0.5,-99,0,none,31,18,Woman,Right,
5,1,1,0.9329514000000927,['n'],0,left,none,-99,-99,0.5,-99,0,none,31,18,Woman,Right,
6,1,1,0.9013807999999699,['n'],1,right,none,-99,-99,0.5,-99,0,none,31,18,Woman,Right,
7,1,1,0.5838356000003841,['c'],1,left,none,-99,-99,0.5,-99,0,none,31,18,Woman,Right,
8,1,1,0.4153698999998596,['n'],1,right,none,-99,-99,0.5,-99,0,none,31,18,Woman,Right,
9,1,1,0.4339008000006288,['c'],1,left,none,-99,-99,0.5,-99,0,none,31,18,Woman,Right,
10,1,1,0.551010099999985,['n'],1,right,none,-99,-99,0.5,-99,0,none,31,18,Woman,Right,
11,1,1,0.4659581000014441,['c'],1,left,none,-99,-99,0.5,-99,0,none,31,18,Woman,Right,
12,1,1,0.4834528000010323,['n'],1,right,none,-99,-99,0.5,-99,0,none,31,18,Woman,Right,
13,1,1,0.3994300000013027,['c'],1,left,none,-99,-99,0.5,-99,0,none,31,18,Woman,Right,
14,1,1,0.5158058000015444,['c'],1,left,none,-99,-99,0.5,-99,0,none,31,18,Woman,Right,
15,1,1,0.4184616000002279,['n'],1,right,none,-99,-99,0.5,-99,0,none,31,18,Woman,Right,
16,1,1,0.3167743000012706,['c'],1,left,none,-99,-99,0.5,-99,0,none,31,18,Woman,Right,
17,1,1,0.36881979999998293,['n'],1,right,none,-99,-99,0.5,-99,0,none,31,18,Woman,Right,
18,1,1,0.4335928000000422,['c'],1,left,none,-99,-99,0.5,-99,0,none,31,18,Woman,Right,
19,1,1,0.3845562999995309,['n'],0,left,none,-99,-99,0.5,-99,0,none,31,18,Woman,Right,
20,1,1,0.6847068000006402,['n'],1,right,none,-99,-99,0.5,-99,0,none,31,18,Woman,Right,
21,1,1,0.4844692999995459,['n'],1,right,none,-99,-99,0.5,-99,0,none,31,18,Woman,Right,
22,1,1,0.4510560999988229,['n'],1,right,none,-99,-99,0.5,-99,0,none,31,18,Woman,Right,
23,1,1,0.4665590999993583,['c'],1,left,none,-99,-99,0.5,-99,0,none,31,18,Woman,Right,
0,2,1,1.1678138000006584,['c'],1,left,none,-99,-99,0.2,-99,0,none,31,18,Woman,Right,
1,2,1,0.5506540000005771,['c'],1,left,none,-99,-99,0.2,-99,0,none,31,18,Woman,Right,
2,2,1,0.5834543000000849,['n'],1,right,none,-99,-99,0.2,-99,0,none,31,18,Woman,Right,
3,2,1,0.5510866999993596,['n'],1,right,none,-99,-99,0.2,-99,0,none,31,18,Woman,Right,
4,2,1,0.7008542000003217,['n'],0,left,none,-99,-99,0.2,-99,0,none,31,18,Woman,Right,
5,2,1,0.5342237000004388,['c'],1,left,none,-99,-99,0.4,-99,0,none,31,18,Woman,Right,
6,2,1,0.4994187000011152,['n'],1,right,none,-99,-99,0.4,-99,0,none,31,18,Woman,Right,
7,2,1,0.7494432999992569,['n'],1,right,none,-99,-99,0.2,-99,0,none,31,18,Woman,Right,
8,2,1,0.5168620999993436,['n'],1,right,none,-99,-99,0.4,-99,0,none,31,18,Woman,Right,
9,2,1,0.4000572999993892,['c'],1,left,none,-99,-99,0.1,-99,0,none,31,18,Woman,Right,
10,2,1,0.7171445999993011,['c'],1,left,none,-99,-99,0.1,-99,0,none,31,18,Woman,Right,
11,2,1,0.5507090000010066,['n'],1,right,none,-99,-99,0.4,-99,0,none,31,18,Woman,Right,
12,2,1,0.8659676999996009,['c'],0,right,none,-99,-99,0.1,-99,0,none,31,18,Woman,Right,
13,2,1,0.7331764000009571,['c'],0,right,none,-99,-99,0.1,-99,0,none,31,18,Woman,Right,
14,2,1,0.6999340000002121,['c'],1,left,none,-99,-99,0.2,-99,0,none,31,18,Woman,Right,
15,2,1,0.666657400000986,['c'],0,right,none,-99,-99,0.1,-99,0,none,31,18,Woman,Right,
16,2,1,0.4673688000002585,['n'],1,right,none,-99,-99,0.1,-99,0,none,31,18,Woman,Right,
17,2,1,0.817582500001663,['c'],1,left,none,-99,-99,0.4,-99,0,none,31,18,Woman,Right,
18,2,1,0.5328761999990093,['c'],1,left,none,-99,-99,0.2,-99,0,none,31,18,Woman,Right,
19,2,1,0.7004889999989246,['c'],1,left,none,-99,-99,0.4,-99,0,none,31,18,Woman,Right,
20,2,1,0.6507411999991746,['c'],1,left,none,-99,-99,0.4,-99,0,none,31,18,Woman,Right,
21,2,1,0.4332353999998304,['n'],1,right,none,-99,-99,0.4,-99,0,none,31,18,Woman,Right,
22,2,1,0.4682747999995627,['n'],1,right,none,-99,-99,0.1,-99,0,none,31,18,Woman,Right,
23,2,1,0.5677321999992273,['c'],1,left,none,-99,-99,0.1,-99,0,none,31,18,Woman,Right,
0,3,1,0.5341486999986955,['n'],1,right,['u'],1,0.8850710999995499,0.2,1,0,none,31,18,Woman,Right,
1,3,1,0.8664776000005077,['c'],1,left,['u'],1,0.8539980000005016,0.1,1,0,none,31,18,Woman,Right,
2,3,1,2.2166668999998365,['c'],1,left,['e'],0,0.7857886000001599,0.4,0,0,none,31,18,Woman,Right,
3,3,1,1.1517343999985314,['n'],0,left,['u'],1,0.4742538999998942,0.1,0,0,none,31,18,Woman,Right,
4,3,1,1.0344208999995317,['c'],1,left,['e'],0,1.140870699999141,0.2,0,0,none,31,18,Woman,Right,
5,3,1,0.8665836999989551,['n'],0,left,['u'],1,0.44270219999998517,0.1,0,0,none,31,18,Woman,Right,
6,3,1,1.7177560000000085,['c'],0,right,['e'],0,0.6670004000006884,0.1,1,0,none,31,18,Woman,Right,
7,3,1,1.0006733999998687,['n'],1,right,['u'],1,0.7504963000010321,0.1,1,0,none,31,18,Woman,Right,
8,3,1,1.1676891000006435,['c'],0,right,['u'],1,0.7283064000002923,0.1,0,0,none,31,18,Woman,Right,
9,3,1,1.2830149000001256,['n'],0,left,['e'],0,1.007084400000167,0.4,1,0,none,31,18,Woman,Right,
10,3,1,1.1835663999991084,['n'],1,right,['e'],0,0.9418241000003036,0.2,0,0,none,31,18,Woman,Right,
11,3,1,0.7016146999994817,['n'],1,right,['u'],1,0.8825677000004362,0.2,1,0,none,31,18,Woman,Right,
12,3,1,0.46697149999999965,['c'],1,left,['u'],1,0.7392884999990201,0.4,1,0,none,31,18,Woman,Right,
13,3,1,1.1340370000016264,['c'],1,left,['u'],1,1.3104454999993322,0.1,1,0,none,31,18,Woman,Right,
14,3,1,2.467327899999873,['n'],1,right,['e'],0,0.7502158000006602,0.2,0,0,none,31,18,Woman,Right,
15,3,1,0.8016339000005246,['c'],1,left,['u'],1,1.366519100000005,0.4,1,0,none,31,18,Woman,Right,
16,3,1,0.8515812000005099,['c'],1,left,['u'],1,0.404111699999703,0.4,1,0,none,31,18,Woman,Right,
17,3,1,0.683915600000546,['c'],1,left,['u'],1,0.3028991999999562,0.4,1,0,none,31,18,Woman,Right,
18,3,1,0.8680115000006481,['n'],1,right,['u'],1,0.5023700999990979,0.2,1,0,none,31,18,Woman,Right,
19,3,1,1.1013113000008161,['n'],1,right,['u'],1,0.38071359999958077,0.2,1,0,none,31,18,Woman,Right,
20,3,1,1.3169631000000663,['n'],1,right,['e'],0,0.335138200000074,0.4,0,0,none,31,18,Woman,Right,
21,3,1,1.468081799999709,['n'],1,right,['e'],0,0.6532932999998593,0.4,0,0,none,31,18,Woman,Right,
22,3,1,1.3847190000014962,['n'],1,right,['e'],0,0.32227989999955753,0.2,0,0,none,31,18,Woman,Right,
23,3,1,1.767938499999218,['c'],1,left,['u'],1,0.2779145000004064,0.1,1,0,none,31,18,Woman,Right,
0,4,1,3.965376900001502,['n'],1,right,['u'],1,3.051718799999435,0.2,1,0,AccFast,31,18,Woman,Right,
1,4,1,2.499781200000143,['c'],1,left,['u'],1,2.0950152999994316,0.4,1,0,AccFast,31,18,Woman,Right,
2,4,1,5.01544130000002,x,-99,left,none,-99,-99,0.1,-99,1,AccFast,31,18,Woman,Right,
3,4,1,0.6162045000000944,['c'],1,left,['u'],1,1.3755664999989676,0.4,1,0,AccFast,31,18,Woman,Right,
4,4,1,1.418300499999532,['n'],1,right,['e'],0,0.8501887000002171,0.4,0,0,AccFast,31,18,Woman,Right,
5,4,1,2.5342727999995986,['n'],0,left,['u'],1,0.42923250000058033,0.1,0,0,AccFast,31,18,Woman,Right,
6,4,1,0.8676548999992519,['c'],1,left,['u'],1,1.1315596999993431,0.2,1,0,AccFast,31,18,Woman,Right,
7,4,1,1.484443100000135,['c'],1,left,['u'],1,0.2772323999997752,0.4,1,0,AccFast,31,18,Woman,Right,
8,4,1,2.9840389999990293,['n'],1,right,['e'],0,0.8229338000001007,0.2,0,0,AccFast,31,18,Woman,Right,
9,4,1,1.4497964000001957,['c'],1,left,['e'],0,0.7022336999998515,0.1,0,0,AccFast,31,18,Woman,Right,
10,4,1,1.6512454000003345,['n'],1,right,['u'],1,0.4178350000001956,0.1,1,0,AccFast,31,18,Woman,Right,
11,4,1,0.7845878999996785,['c'],0,right,['u'],1,0.5962586999994528,0.1,0,0,AccFast,31,18,Woman,Right,
12,4,1,3.1504925999997795,['c'],1,left,['e'],0,0.9451582000001508,0.1,0,0,AccFast,31,18,Woman,Right,
13,4,1,1.51704620000055,['n'],1,right,['u'],1,0.3370560999992449,0.4,1,0,AccFast,31,18,Woman,Right,
14,4,1,3.0686317999989114,['n'],1,right,['u'],1,0.5244934000002104,0.2,1,0,AccFast,31,18,Woman,Right,
15,4,1,1.4836835999994946,['n'],1,right,['u'],1,0.526350399999501,0.2,1,0,AccFast,31,18,Woman,Right,
16,4,1,3.2669019000004482,['n'],1,right,['u'],1,0.4572712999997748,0.1,1,0,AccFast,31,18,Woman,Right,
17,4,1,1.4833591000005981,['n'],1,right,['u'],1,0.38263110000116285,0.4,1,0,AccFast,31,18,Woman,Right,
18,4,1,3.4995092999997723,['n'],1,right,['e'],0,1.1581371000011131,0.1,0,0,AccFast,31,18,Woman,Right,
19,4,1,1.7847309999997378,['n'],1,right,['u'],1,0.4350008000001253,0.2,1,0,AccFast,31,18,Woman,Right,
20,4,1,2.5166450000015175,['n'],1,right,['u'],1,0.8469533999996202,0.2,1,0,AccFast,31,18,Woman,Right,
21,4,1,2.5009644999990996,['n'],1,right,['u'],1,0.44343819999994594,0.4,1,0,AccFast,31,18,Woman,Right,
22,4,1,4.634411400000317,['n'],1,right,['e'],0,0.6433398999997735,0.4,0,0,AccFast,31,18,Woman,Right,
23,4,1,3.6187923999987106,['c'],1,left,['u'],1,0.8602167999997619,0.1,1,0,AccFast,31,18,Woman,Right,
24,4,1,4.384111199999097,['c'],1,left,['e'],0,0.8133914999998524,0.1,0,0,AccFast,31,18,Woman,Right,
25,4,1,3.3842635000000882,['c'],0,right,['u'],1,0.3923930000000837,0.1,0,0,AccFast,31,18,Woman,Right,
26,4,1,3.2844798999994964,['c'],0,right,['u'],1,0.5998304000004282,0.2,0,0,AccFast,31,18,Woman,Right,
27,4,1,3.017709700001433,['c'],1,left,['u'],1,0.5856450999999652,0.2,1,0,AccFast,31,18,Woman,Right,
28,4,1,1.567325099998925,['n'],1,right,['e'],0,0.6939695000000938,0.4,0,0,AccFast,31,18,Woman,Right,
29,4,1,1.3995446999997512,['n'],1,right,['u'],1,0.3422405000001163,0.4,1,0,AccFast,31,18,Woman,Right,
30,4,1,4.467437799999971,['n'],0,left,['u'],1,0.5358347000001231,0.2,0,0,AccFast,31,18,Woman,Right,
31,4,1,4.684119400000782,['n'],0,left,['e'],0,0.6179435000012745,0.2,1,0,AccFast,31,18,Woman,Right,
32,4,1,2.2346180000004097,['n'],0,left,['e'],0,1.0342539000012039,0.4,1,0,AccFast,31,18,Woman,Right,
33,4,1,1.3171261999996204,['n'],0,left,['u'],1,0.30249690000164264,0.1,0,0,AccFast,31,18,Woman,Right,
34,4,1,5.0004499000006035,x,-99,left,none,-99,-99,0.1,-99,1,AccFast,31,18,Woman,Right,
35,4,1,2.0160212999999203,['n'],1,right,['u'],1,0.33532689999992726,0.4,1,0,AccFast,31,18,Woman,Right,
36,4,1,1.6843551000001753,['n'],1,right,['u'],1,0.25688649999938207,0.4,1,0,AccFast,31,18,Woman,Right,
37,4,1,3.433262399999876,['n'],0,left,['u'],1,0.32061650000105146,0.1,0,0,AccFast,31,18,Woman,Right,
38,4,1,2.3012562000003527,['c'],1,left,['u'],1,0.570409899999504,0.4,1,0,AccFast,31,18,Woman,Right,
39,4,1,2.450794100001076,['n'],0,left,['u'],1,0.4036102000009123,0.2,0,0,AccFast,31,18,Woman,Right,
40,4,1,3.33234850000008,['n'],1,right,['u'],1,0.6581572000013693,0.4,1,0,AccFast,31,18,Woman,Right,
41,4,1,2.8176524999998946,['n'],0,left,['u'],1,0.31277009999939764,0.2,0,0,AccFast,31,18,Woman,Right,
42,4,1,2.850993899999594,['n'],1,right,['e'],0,0.33245239999996556,0.2,0,0,AccFast,31,18,Woman,Right,
43,4,1,3.3498110999989876,['n'],1,right,['u'],1,0.5876772999999957,0.2,1,0,AccFast,31,18,Woman,Right,
44,4,1,3.4166807000001427,['c'],1,left,['u'],1,0.39812979999987874,0.1,1,0,AccFast,31,18,Woman,Right,
45,4,1,2.1847273000003042,['c'],1,left,['u'],1,0.4412486000001081,0.1,1,0,AccFast,31,18,Woman,Right,
46,4,1,2.3841053000014654,['n'],1,right,['e'],0,0.6509984000003897,0.4,0,0,AccFast,31,18,Woman,Right,
47,4,1,3.184218200000032,['c'],1,left,['e'],0,1.0763962000000902,0.1,0,0,AccFast,31,18,Woman,Right,
48,4,1,3.1827724000013404,['c'],1,left,['u'],1,0.35013210000033723,0.2,1,0,AccFast,31,18,Woman,Right,
49,4,1,3.701003500000297,['n'],1,right,['e'],0,0.33322339999904216,0.2,0,0,AccFast,31,18,Woman,Right,
50,4,1,3.3012395999994624,['c'],1,left,['e'],0,0.6384219999999914,0.1,0,0,AccFast,31,18,Woman,Right,
51,4,1,3.4677910999998858,['c'],1,left,['u'],1,0.4610188999995444,0.1,1,0,AccFast,31,18,Woman,Right,
52,4,1,3.450719399999798,['c'],0,right,['e'],0,0.3715832000016235,0.2,1,0,AccFast,31,18,Woman,Right,
53,4,1,1.7509867999997368,['c'],1,left,['e'],0,0.37010519999967073,0.4,0,0,AccFast,31,18,Woman,Right,
54,4,1,2.5669646999995166,['n'],0,left,['e'],0,0.895827599999393,0.1,1,0,AccFast,31,18,Woman,Right,
55,4,1,3.5830673999989813,['n'],1,right,['e'],0,0.7510897000011028,0.4,0,0,AccFast,31,18,Woman,Right,
56,4,1,2.9832989999995334,['n'],1,right,['e'],0,0.7479132999997091,0.4,0,0,AccFast,31,18,Woman,Right,
57,4,1,2.934458800000357,['c'],1,left,['u'],1,0.9227336000003561,0.2,1,0,AccFast,31,18,Woman,Right,
58,4,1,4.7339850999997,['n'],0,left,['e'],0,0.38022449999880337,0.2,1,0,AccFast,31,18,Woman,Right,
59,4,1,1.2169706000004226,['n'],1,right,['e'],0,0.28583230000003823,0.4,0,0,AccFast,31,18,Woman,Right,
0,5,1,3.116528399999879,['n'],1,right,['u'],1,0.7747696999995242,0.2,1,0,AccAcc,31,18,Woman,Right,
1,5,1,3.4012588999994477,['n'],1,right,['u'],1,0.594415300000037,0.1,1,0,AccAcc,31,18,Woman,Right,
2,5,1,3.150477499999397,['n'],0,left,['e'],0,1.423231200000373,0.4,1,0,AccAcc,31,18,Woman,Right,
3,5,1,2.3675757000000885,['c'],1,left,['e'],0,0.714158500000849,0.1,0,0,AccAcc,31,18,Woman,Right,
4,5,1,2.2340401999990718,['c'],0,right,['e'],0,0.6308198000006087,0.1,1,0,AccAcc,31,18,Woman,Right,
5,5,1,3.4175417000005837,['c'],1,left,['e'],0,0.5832109999992099,0.2,0,0,AccAcc,31,18,Woman,Right,
6,5,1,3.6164024000008794,['n'],0,left,['e'],0,0.7699283999991167,0.1,1,0,AccAcc,31,18,Woman,Right,
7,5,1,3.951044899999033,['n'],1,right,['u'],1,0.5049768000008044,0.2,1,0,AccAcc,31,18,Woman,Right,
8,5,1,5.017038800000591,x,-99,left,none,-99,-99,0.4,-99,1,AccAcc,31,18,Woman,Right,
9,5,1,2.2505899999996473,['n'],1,right,['e'],0,0.9996340999987297,0.1,0,0,AccAcc,31,18,Woman,Right,
10,5,1,2.517718299999615,['n'],1,right,['e'],0,0.7162635000004229,0.1,0,0,AccAcc,31,18,Woman,Right,
11,5,1,4.500604999999268,['n'],1,right,['e'],0,1.2463265999995201,0.1,0,0,AccAcc,31,18,Woman,Right,
12,5,1,3.6325210999984847,['c'],1,left,['u'],1,0.7344465000005584,0.2,1,0,AccAcc,31,18,Woman,Right,
13,5,1,3.6007566999996925,['c'],0,right,['u'],1,0.6914582999997947,0.2,0,0,AccAcc,31,18,Woman,Right,
14,5,1,1.0664757000013196,['c'],1,left,['u'],1,0.4798545000012382,0.4,1,0,AccAcc,31,18,Woman,Right,
15,5,1,1.9345135999992635,['n'],1,right,['u'],1,1.3130816000011691,0.4,1,0,AccAcc,31,18,Woman,Right,
16,5,1,3.6668449999997392,['c'],1,left,['e'],0,0.7962521999997989,0.2,0,0,AccAcc,31,18,Woman,Right,
17,5,1,0.7007209999992483,['c'],1,left,['u'],1,0.6426152999993064,0.4,1,0,AccAcc,31,18,Woman,Right,
18,5,1,2.2519471000014164,['c'],1,left,['e'],0,0.6258462999994663,0.4,0,0,AccAcc,31,18,Woman,Right,
19,5,1,2.4669282999984716,['c'],0,right,['e'],0,0.4733808000000863,0.1,1,0,AccAcc,31,18,Woman,Right,
20,5,1,0.8505328000010195,['c'],1,left,['u'],1,0.40639550000014424,0.4,1,0,AccAcc,31,18,Woman,Right,
21,5,1,0.6857915000000503,['c'],1,left,['u'],1,0.7653821000003518,0.4,1,0,AccAcc,31,18,Woman,Right,
22,5,1,2.3840347999994265,['n'],0,left,['e'],0,0.5617872000002535,0.2,1,0,AccAcc,31,18,Woman,Right,
23,5,1,2.634394299999258,['c'],0,right,['e'],0,0.7884474000002228,0.1,1,0,AccAcc,31,18,Woman,Right,
24,5,1,3.2167252999988705,['c'],0,right,['e'],0,1.1430858000003354,0.1,1,0,AccAcc,31,18,Woman,Right,
25,5,1,2.000818300000901,['c'],1,left,['u'],1,0.7002448000002914,0.4,1,0,AccAcc,31,18,Woman,Right,
26,5,1,2.566856600000392,['c'],1,left,['u'],1,0.4124830999990081,0.2,1,0,AccAcc,31,18,Woman,Right,
27,5,1,2.6835202000002027,['n'],0,left,['e'],0,0.4662127999999939,0.2,1,0,AccAcc,31,18,Woman,Right,
28,5,1,1.2842251000001852,['n'],1,right,['u'],1,0.46254099999896425,0.2,1,0,AccAcc,31,18,Woman,Right,
29,5,1,2.2165787999983877,['n'],1,right,['u'],1,0.470325899999807,0.2,1,0,AccAcc,31,18,Woman,Right,
30,5,1,0.6847249000002193,['c'],1,left,['u'],1,0.5540130999997928,0.2,1,0,AccAcc,31,18,Woman,Right,
31,5,1,0.9986099999987346,['n'],0,left,['u'],1,0.3676949999990029,0.2,0,0,AccAcc,31,18,Woman,Right,
32,5,1,0.6661722000008012,['n'],1,right,['u'],1,0.3445030000002589,0.4,1,0,AccAcc,31,18,Woman,Right,
33,5,1,2.184185600001001,['n'],0,left,['u'],1,0.3248908000005031,0.1,0,0,AccAcc,31,18,Woman,Right,
34,5,1,0.8504778999995324,['c'],1,left,['u'],1,0.5213902000014059,0.2,1,0,AccAcc,31,18,Woman,Right,
35,5,1,1.1510189999989962,['n'],1,right,['u'],1,0.31221820000064326,0.1,1,0,AccAcc,31,18,Woman,Right,
36,5,1,1.0501082999999198,['n'],1,right,['u'],1,0.7718289000004006,0.4,1,0,AccAcc,31,18,Woman,Right,
37,5,1,0.9331692999985535,['c'],0,right,['u'],1,0.6114360999999917,0.1,0,0,AccAcc,31,18,Woman,Right,
38,5,1,0.8497846999998728,['c'],1,left,['u'],1,0.4912147000013647,0.1,1,0,AccAcc,31,18,Woman,Right,
39,5,1,0.6669519000006403,['c'],1,left,['u'],1,0.35142369999994116,0.4,1,0,AccAcc,31,18,Woman,Right,
40,5,1,1.134422799999811,['c'],1,left,['u'],1,0.3741093999997247,0.2,1,0,AccAcc,31,18,Woman,Right,
41,5,1,0.601462000000538,['c'],0,right,['u'],1,0.3692751999988104,0.1,0,0,AccAcc,31,18,Woman,Right,
42,5,1,0.5504841000001761,['c'],1,left,['u'],1,0.39874219999910565,0.4,1,0,AccAcc,31,18,Woman,Right,
43,5,1,0.41742689999955473,['n'],1,right,['u'],1,0.4488400999998703,0.1,1,0,AccAcc,31,18,Woman,Right,
44,5,1,0.5000640999987809,['c'],0,right,['u'],1,0.47742289999951026,0.1,0,0,AccAcc,31,18,Woman,Right,
45,5,1,0.8010303999999451,['n'],1,right,['u'],1,0.4123436000008951,0.4,1,0,AccAcc,31,18,Woman,Right,
46,5,1,0.8159779999987222,['n'],1,right,['u'],1,0.44653329999891866,0.2,1,0,AccAcc,31,18,Woman,Right,
47,5,1,0.7837463000014395,['c'],1,left,['u'],1,0.7028077999984816,0.1,1,0,AccAcc,31,18,Woman,Right,
48,5,1,0.5008714000014152,['n'],1,right,['u'],1,0.5765572000000247,0.4,1,0,AccAcc,31,18,Woman,Right,
49,5,1,0.46824389999892446,['c'],1,left,['u'],1,0.4256225999997696,0.4,1,0,AccAcc,31,18,Woman,Right,
50,5,1,0.5498387000006915,['n'],1,right,['u'],1,0.5494270999988657,0.4,1,0,AccAcc,31,18,Woman,Right,
51,5,1,0.5684744000009232,['c'],0,right,['u'],1,0.41101290000005974,0.4,0,0,AccAcc,31,18,Woman,Right,
52,5,1,0.4996182000013505,['n'],1,right,['u'],1,0.4741340000000491,0.4,1,0,AccAcc,31,18,Woman,Right,
53,5,1,2.533395299999029,['c'],0,right,['u'],1,0.3719135000010283,0.2,0,0,AccAcc,31,18,Woman,Right,
54,5,1,2.284302399999433,['n'],1,right,['e'],0,0.36429820000012114,0.2,0,0,AccAcc,31,18,Woman,Right,
55,5,1,2.1344971999988047,['c'],1,left,['u'],1,0.6342417999985628,0.1,1,0,AccAcc,31,18,Woman,Right,
56,5,1,1.7006529999998747,['n'],1,right,['u'],1,1.3273963000010554,0.2,1,0,AccAcc,31,18,Woman,Right,
57,5,1,0.6996412999997119,['c'],1,left,['u'],1,0.4022499999991851,0.2,1,0,AccAcc,31,18,Woman,Right,
58,5,1,0.6675324999996519,['c'],1,left,['u'],1,0.4086086000006617,0.4,1,0,AccAcc,31,18,Woman,Right,
59,5,1,0.6830898999996862,['c'],1,left,['u'],1,0.41628579999996873,0.1,1,0,AccAcc,31,18,Woman,Right,
0,6,1,1.0840468000005785,['c'],1,left,['u'],1,8.619040900000982,0.4,1,0,FastAcc,31,18,Woman,Right,
1,6,1,1.117556199998944,['c'],1,left,['u'],1,0.729097699999329,0.2,1,0,FastAcc,31,18,Woman,Right,
2,6,1,1.2666251999999076,['n'],1,right,['u'],1,0.3799098999988928,0.1,1,0,FastAcc,31,18,Woman,Right,
3,6,1,0.6177891999996064,['c'],1,left,['u'],1,0.3737560999998095,0.1,1,0,FastAcc,31,18,Woman,Right,
4,6,1,0.8174530999986018,['c'],1,left,['u'],1,0.28017219999856025,0.2,1,0,FastAcc,31,18,Woman,Right,
5,6,1,0.7838105999999243,['n'],1,right,['u'],1,0.3203327999999601,0.2,1,0,FastAcc,31,18,Woman,Right,
6,6,1,0.6509127000008448,['c'],1,left,['u'],1,0.347620000000461,0.2,1,0,FastAcc,31,18,Woman,Right,
7,6,1,0.4834541000000172,['n'],1,right,['u'],1,0.39708840000093915,0.2,1,0,FastAcc,31,18,Woman,Right,
8,6,1,0.5347887999996601,['c'],1,left,['u'],1,0.40998749999926076,0.4,1,0,FastAcc,31,18,Woman,Right,
9,6,1,0.601504099999147,['c'],0,right,['u'],1,0.35553339999933087,0.1,0,0,FastAcc,31,18,Woman,Right,
10,6,1,0.5835005000008096,['c'],1,left,['u'],1,0.4170570000005682,0.4,1,0,FastAcc,31,18,Woman,Right,
11,6,1,0.5343821000005846,['n'],0,left,['u'],1,0.39772849999826576,0.2,0,0,FastAcc,31,18,Woman,Right,
12,6,1,0.7004082000003109,['c'],1,left,['u'],1,0.43604210000012245,0.4,1,0,FastAcc,31,18,Woman,Right,
13,6,1,0.9335661999994045,['n'],1,right,['u'],1,0.41476349999902595,0.1,1,0,FastAcc,31,18,Woman,Right,
14,6,1,0.6841085999985808,['c'],1,left,['u'],1,0.42105350000019826,0.4,1,0,FastAcc,31,18,Woman,Right,
15,6,1,0.7503591000004235,['c'],1,left,['u'],1,0.34477379999952973,0.4,1,0,FastAcc,31,18,Woman,Right,
16,6,1,0.9513056999985565,['c'],1,left,['u'],1,0.5036579000006896,0.4,1,0,FastAcc,31,18,Woman,Right,
17,6,1,0.9005137999993167,['c'],1,left,['u'],1,0.48221170000033453,0.2,1,0,FastAcc,31,18,Woman,Right,
18,6,1,2.5338517999989563,['n'],1,right,['u'],1,0.36354620000020077,0.2,1,0,FastAcc,31,18,Woman,Right,
19,6,1,3.200777800000651,['c'],1,left,['u'],1,0.4953240000013466,0.4,1,0,FastAcc,31,18,Woman,Right,
20,6,1,1.2009178000007523,['c'],1,left,['u'],1,0.3657562999997026,0.4,1,0,FastAcc,31,18,Woman,Right,
21,6,1,2.317308800000319,['n'],1,right,['u'],1,0.324925600001734,0.1,1,0,FastAcc,31,18,Woman,Right,
22,6,1,0.8852365999991889,['n'],0,left,['u'],1,0.34321360000103596,0.2,0,0,FastAcc,31,18,Woman,Right,
23,6,1,0.8177868000002491,['n'],1,right,['u'],1,0.347469700000147,0.4,1,0,FastAcc,31,18,Woman,Right,
24,6,1,0.7839946999993117,['n'],0,left,['u'],1,0.4482781000006071,0.1,0,0,FastAcc,31,18,Woman,Right,
25,6,1,1.017793499999243,['c'],1,left,['u'],1,0.36004569999931846,0.2,1,0,FastAcc,31,18,Woman,Right,
26,6,1,0.9178067999982886,['c'],1,left,['u'],1,0.3596871999998257,0.4,1,0,FastAcc,31,18,Woman,Right,
27,6,1,0.7513861999996152,['n'],1,right,['u'],1,0.34980589999941003,0.1,1,0,FastAcc,31,18,Woman,Right,
28,6,1,1.0843836999993073,['c'],1,left,['u'],1,0.48726630000055593,0.4,1,0,FastAcc,31,18,Woman,Right,
29,6,1,0.6996918999993795,['n'],1,right,['u'],1,0.3790125999985321,0.2,1,0,FastAcc,31,18,Woman,Right,
30,6,1,0.5509098000002268,['c'],0,right,['u'],1,0.4871757000000798,0.1,0,0,FastAcc,31,18,Woman,Right,
31,6,1,1.5175572000007378,['n'],1,right,['u'],1,0.3133622000004834,0.4,1,0,FastAcc,31,18,Woman,Right,
32,6,1,0.9995486000007077,['c'],1,left,['u'],1,0.42385939999985567,0.2,1,0,FastAcc,31,18,Woman,Right,
33,6,1,1.7015654999995604,['n'],1,right,['u'],1,0.3884507000002486,0.1,1,0,FastAcc,31,18,Woman,Right,
34,6,1,1.6166038000010303,['c'],1,left,['u'],1,0.4068170000009559,0.2,1,0,FastAcc,31,18,Woman,Right,
35,6,1,1.6344167999995989,['n'],0,left,['u'],1,0.34374990000105754,0.4,0,0,FastAcc,31,18,Woman,Right,
36,6,1,3.216398200000185,['n'],0,left,['u'],1,0.3168587000000116,0.4,0,0,FastAcc,31,18,Woman,Right,
37,6,1,1.8836083000005601,['n'],1,right,['u'],1,0.6320386000006692,0.4,1,0,FastAcc,31,18,Woman,Right,
38,6,1,1.233173100001295,['c'],1,left,['u'],1,0.943568900000173,0.1,1,0,FastAcc,31,18,Woman,Right,
39,6,1,1.9844680999995035,['n'],1,right,['u'],1,0.36406220000026224,0.2,1,0,FastAcc,31,18,Woman,Right,
40,6,1,1.0171059999993304,['c'],1,left,['u'],1,0.311897500001578,0.2,1,0,FastAcc,31,18,Woman,Right,
41,6,1,0.8684153000012884,['n'],0,left,['e'],0,0.37864640000043437,0.1,1,0,FastAcc,31,18,Woman,Right,
42,6,1,2.218120600000475,['c'],0,right,['e'],0,0.501120599999922,0.1,1,0,FastAcc,31,18,Woman,Right,
43,6,1,2.2997810000015306,['c'],1,left,['e'],0,1.0326262999988103,0.4,0,0,FastAcc,31,18,Woman,Right,
44,6,1,2.7170432999992045,['n'],1,right,['u'],1,0.30815029999939725,0.2,1,0,FastAcc,31,18,Woman,Right,
45,6,1,0.999463599999217,['n'],1,right,['u'],1,0.3711830000011105,0.4,1,0,FastAcc,31,18,Woman,Right,
46,6,1,0.7512360000000626,['c'],1,left,['u'],1,0.519913500000257,0.2,1,0,FastAcc,31,18,Woman,Right,
47,6,1,1.0507032999994408,['n'],1,right,['u'],1,0.3482483999996475,0.1,1,0,FastAcc,31,18,Woman,Right,
48,6,1,1.0664559999986523,['n'],1,right,['u'],1,0.3263913999999204,0.4,1,0,FastAcc,31,18,Woman,Right,
49,6,1,2.199330999999802,['c'],0,right,['e'],0,0.32414369999969495,0.1,1,0,FastAcc,31,18,Woman,Right,
50,6,1,2.0498103000008996,['c'],0,right,['e'],0,0.9359668999986752,0.4,1,0,FastAcc,31,18,Woman,Right,
51,6,1,1.6336924999995972,['c'],0,right,['u'],1,1.2677081000001635,0.1,0,0,FastAcc,31,18,Woman,Right,
52,6,1,2.2833824000008462,['c'],0,right,['e'],0,0.8882343000004767,0.2,1,0,FastAcc,31,18,Woman,Right,
53,6,1,2.1506294000009802,['c'],0,right,['e'],0,0.6414692999987892,0.1,1,0,FastAcc,31,18,Woman,Right,
54,6,1,1.9331849999998667,['n'],1,right,['u'],1,0.39689329999964684,0.1,1,0,FastAcc,31,18,Woman,Right,
55,6,1,2.9162853000016185,['n'],1,right,['u'],1,0.41098239999882935,0.1,1,0,FastAcc,31,18,Woman,Right,
56,6,1,3.032589700000244,['c'],0,right,['e'],0,0.6120169000005262,0.1,1,0,FastAcc,31,18,Woman,Right,
57,6,1,2.666167700001097,['c'],0,right,['e'],0,0.9958611000001838,0.1,1,0,FastAcc,31,18,Woman,Right,
58,6,1,2.866528099999414,['c'],1,left,['e'],0,0.6364023000005545,0.2,0,0,FastAcc,31,18,Woman,Right,
59,6,1,2.6664964000010514,['n'],1,right,['u'],1,0.28281629999946745,0.2,1,0,FastAcc,31,18,Woman,Right,
0,7,1,1.3326999000000797,['c'],1,left,['u'],1,1.114694599998984,0.1,1,0,FastFast,31,18,Woman,Right,
1,7,1,2.966830299999856,['c'],0,right,['e'],0,1.2100436000000627,0.2,1,0,FastFast,31,18,Woman,Right,
2,7,1,2.850145700000212,['n'],1,right,['u'],1,0.2665385000000242,0.2,1,0,FastFast,31,18,Woman,Right,
3,7,1,3.600153399998817,['c'],0,right,['e'],0,0.5456477000006998,0.4,1,0,FastFast,31,18,Woman,Right,
4,7,1,2.066121400001066,['n'],0,left,['e'],0,1.1647569999986445,0.4,1,0,FastFast,31,18,Woman,Right,
5,7,1,2.23421960000087,['n'],0,left,['u'],1,0.37451919999875827,0.4,0,0,FastFast,31,18,Woman,Right,
6,7,1,1.4181969000001118,['n'],1,right,['u'],1,0.27286950000052457,0.4,1,0,FastFast,31,18,Woman,Right,
7,7,1,2.367870000000039,['n'],1,right,['u'],1,0.2505799999998999,0.1,1,0,FastFast,31,18,Woman,Right,
8,7,1,2.8344773999997415,['c'],0,right,['u'],1,0.7531414999994013,0.4,0,0,FastFast,31,18,Woman,Right,
9,7,1,1.1012267999994947,['n'],1,right,['u'],1,0.2975067000006675,0.2,1,0,FastFast,31,18,Woman,Right,
10,7,1,0.916364100001374,['c'],1,left,['u'],1,0.30010720000063884,0.4,1,0,FastFast,31,18,Woman,Right,
11,7,1,0.8666124000010313,['c'],1,left,['u'],1,0.19128139999884297,0.4,1,0,FastFast,31,18,Woman,Right,
12,7,1,2.0011737999993784,['n'],0,left,['u'],1,0.23371029999907478,0.1,0,0,FastFast,31,18,Woman,Right,
13,7,1,1.9341640999991796,['n'],1,right,['u'],1,0.19761620000099356,0.2,1,0,FastFast,31,18,Woman,Right,
14,7,1,0.8331409000002168,['c'],1,left,['u'],1,0.19155009999849426,0.4,1,0,FastFast,31,18,Woman,Right,
15,7,1,0.9347388000005594,['n'],1,right,['u'],1,0.1958052999998472,0.2,1,0,FastFast,31,18,Woman,Right,
16,7,1,2.416992200000095,['n'],0,left,['u'],1,0.1591333999986091,0.2,0,0,FastFast,31,18,Woman,Right,
17,7,1,1.8830312000009144,['n'],1,right,['u'],1,0.12716269999873475,0.1,1,0,FastFast,31,18,Woman,Right,
18,7,1,3.5337940999997954,['c'],1,left,['u'],1,0.22335630000088713,0.4,1,0,FastFast,31,18,Woman,Right,
19,7,1,0.8999821999987034,['n'],1,right,['u'],1,0.2448240000012447,0.4,1,0,FastFast,31,18,Woman,Right,
20,7,1,1.3176573000000644,['n'],1,right,['u'],1,0.2013673999990715,0.2,1,0,FastFast,31,18,Woman,Right,
21,7,1,1.750763599999118,['n'],1,right,['u'],1,0.17357800000172574,0.2,1,0,FastFast,31,18,Woman,Right,
22,7,1,0.6841901000007056,['c'],1,left,['u'],1,0.22223159999884956,0.1,1,0,FastFast,31,18,Woman,Right,
23,7,1,1.333635900000445,['n'],1,right,['u'],1,0.21090389999881154,0.2,1,0,FastFast,31,18,Woman,Right,
24,7,1,1.7333572000006825,['n'],1,right,['u'],1,0.18381240000053367,0.2,1,0,FastFast,31,18,Woman,Right,
25,7,1,0.6846132999999099,['c'],1,left,['u'],1,0.23053890000119281,0.4,1,0,FastFast,31,18,Woman,Right,
26,7,1,1.2347083000004204,['n'],1,right,['u'],1,0.1904813999990438,0.2,1,0,FastFast,31,18,Woman,Right,
27,7,1,0.6339310999992449,['c'],1,left,['u'],1,0.17570949999935692,0.2,1,0,FastFast,31,18,Woman,Right,
28,7,1,2.5681886000002123,['n'],0,left,['u'],1,0.1968737000006513,0.1,0,0,FastFast,31,18,Woman,Right,
29,7,1,2.6513701000003493,['n'],1,right,['e'],0,0.27785299999959534,0.1,0,0,FastFast,31,18,Woman,Right,
30,7,1,1.0685487000009743,['n'],1,right,['u'],1,0.1462546000002476,0.2,1,0,FastFast,31,18,Woman,Right,
31,7,1,0.700306200000341,['c'],1,left,['u'],1,0.17963629999940167,0.1,1,0,FastFast,31,18,Woman,Right,
32,7,1,1.3001369000012346,['c'],1,left,['u'],1,0.12221839999983786,0.1,1,0,FastFast,31,18,Woman,Right,
33,7,1,2.217979099999866,['n'],0,left,['u'],1,0.20667569999932311,0.1,0,0,FastFast,31,18,Woman,Right,
34,7,1,2.2666524999985995,['c'],0,right,['u'],1,0.175312399998802,0.2,0,0,FastFast,31,18,Woman,Right,
35,7,1,0.8179056999997556,['c'],1,left,['u'],1,0.1532284000004438,0.1,1,0,FastFast,31,18,Woman,Right,
36,7,1,1.2514258999999583,['n'],1,right,['e'],0,0.21162340000046242,0.1,0,0,FastFast,31,18,Woman,Right,
37,7,1,1.4348851999984618,['c'],1,left,['u'],1,0.1803753999993205,0.4,1,0,FastFast,31,18,Woman,Right,
38,7,1,2.4500807999993413,['c'],1,left,['u'],1,0.1742142999992211,0.2,1,0,FastFast,31,18,Woman,Right,
39,7,1,0.834378800000195,['n'],1,right,['u'],1,0.18371190000107163,0.4,1,0,FastFast,31,18,Woman,Right,
40,7,1,0.7010153999999602,['n'],1,right,['u'],1,0.1831650999993144,0.2,1,0,FastFast,31,18,Woman,Right,
41,7,1,2.0326194999997824,['n'],1,right,['u'],1,0.20900449999862758,0.2,1,0,FastFast,31,18,Woman,Right,
42,7,1,2.1508209999992687,['n'],1,right,['u'],1,0.1333875000000262,0.1,1,0,FastFast,31,18,Woman,Right,
43,7,1,2.833276499999556,['n'],0,left,['u'],1,0.14464009999937844,0.1,0,0,FastFast,31,18,Woman,Right,
44,7,1,0.7836811999986821,['c'],1,left,['u'],1,0.09510579999914626,0.4,1,0,FastFast,31,18,Woman,Right,
45,7,1,2.6179630999995425,['n'],1,right,['u'],1,0.11654749999979686,0.1,1,0,FastFast,31,18,Woman,Right,
46,7,1,2.9000338000005286,['n'],0,left,['u'],1,0.14304429999901913,0.1,0,0,FastFast,31,18,Woman,Right,
47,7,1,2.56665780000003,['n'],1,right,['u'],1,0.13324780000039027,0.1,1,0,FastFast,31,18,Woman,Right,
48,7,1,2.7342038999995566,['n'],1,right,['u'],1,0.13292809999984456,0.4,1,0,FastFast,31,18,Woman,Right,
49,7,1,4.983002900000429,['c'],1,left,['u'],1,0.12331989999984216,0.1,1,0,FastFast,31,18,Woman,Right,
50,7,1,2.1333840000006603,['c'],1,left,['u'],1,0.1483368999997765,0.1,1,0,FastFast,31,18,Woman,Right,
51,7,1,1.9689051999994263,['c'],1,left,['u'],1,0.12881179999931192,0.2,1,0,FastFast,31,18,Woman,Right,
52,7,1,3.9332509000014397,['n'],1,right,['u'],1,0.24112539999987348,0.1,1,0,FastFast,31,18,Woman,Right,
53,7,1,1.0009649000003265,['c'],1,left,['u'],1,0.12974779999967723,0.4,1,0,FastFast,31,18,Woman,Right,
54,7,1,2.7505000999990443,['n'],1,right,['e'],0,0.17694080000001122,0.4,0,0,FastFast,31,18,Woman,Right,
55,7,1,0.8331861999995454,['n'],1,right,['u'],1,0.18751700000029814,0.4,1,0,FastFast,31,18,Woman,Right,
56,7,1,0.6178584000008414,['c'],1,left,['u'],1,0.23730620000060298,0.4,1,0,FastFast,31,18,Woman,Right,
57,7,1,0.899759300000369,['c'],1,left,['u'],1,0.14687700000104087,0.2,1,0,FastFast,31,18,Woman,Right,
58,7,1,2.0679442999989988,['n'],0,left,['u'],1,0.33170780000000377,0.2,0,0,FastFast,31,18,Woman,Right,
59,7,1,2.7667438999997103,['c'],1,left,['e'],0,0.2588674999988143,0.4,0,0,FastFast,31,18,Woman,Right,
0,8,1,2.5166621999997005,['c'],1,left,['u'],1,3.895159199999398,0.4,1,0,AccFast,31,18,Woman,Right,
1,8,1,2.3674503000002005,['c'],1,left,['u'],1,0.39944570000079693,0.4,1,0,AccFast,31,18,Woman,Right,
2,8,1,1.8340136000006169,['c'],0,right,['u'],1,0.26491229999919597,0.4,0,0,AccFast,31,18,Woman,Right,
3,8,1,3.1674540000003617,['n'],1,right,['e'],0,0.38550500000019383,0.1,0,0,AccFast,31,18,Woman,Right,
4,8,1,3.566642399999182,['c'],1,left,['e'],0,0.3913119999997434,0.4,0,0,AccFast,31,18,Woman,Right,
5,8,1,3.150942899999791,['n'],1,right,['e'],0,0.3321634999992966,0.1,0,0,AccFast,31,18,Woman,Right,
6,8,1,2.0692398000010144,['c'],1,left,['u'],1,0.6216808999997738,0.4,1,0,AccFast,31,18,Woman,Right,
7,8,1,3.699633600001107,['c'],1,left,['e'],0,0.48455549999926006,0.1,0,0,AccFast,31,18,Woman,Right,
8,8,1,3.8497229000004154,['n'],1,right,['u'],1,0.9534342999995715,0.1,1,0,AccFast,31,18,Woman,Right,
9,8,1,2.9842207999990933,['n'],1,right,['u'],1,1.358748699998614,0.1,1,0,AccFast,31,18,Woman,Right,
10,8,1,4.298621199999616,['n'],1,right,['e'],0,0.2073921999999584,0.2,0,0,AccFast,31,18,Woman,Right,
11,8,1,2.33368370000062,['n'],1,right,['u'],1,0.23616840000067896,0.4,1,0,AccFast,31,18,Woman,Right,
12,8,1,1.9012139000005845,['n'],1,right,['u'],1,0.2653524999986985,0.1,1,0,AccFast,31,18,Woman,Right,
13,8,1,1.0179281000000628,['c'],1,left,['u'],1,1.1280888999990566,0.4,1,0,AccFast,31,18,Woman,Right,
14,8,1,3.6676940000015748,['c'],1,left,['e'],0,0.587275399999271,0.2,0,0,AccFast,31,18,Woman,Right,
15,8,1,2.3504143999998632,['c'],0,right,['u'],1,0.23244479999993928,0.4,0,0,AccFast,31,18,Woman,Right,
16,8,1,1.1011576999990211,['n'],1,right,['u'],1,0.29335340000034194,0.4,1,0,AccFast,31,18,Woman,Right,
17,8,1,0.9339631000002555,['c'],1,left,['u'],1,0.5028676000001724,0.2,1,0,AccFast,31,18,Woman,Right,
18,8,1,2.634372299999086,['n'],0,left,['e'],0,0.172508800000287,0.2,1,0,AccFast,31,18,Woman,Right,
19,8,1,0.9836426000001666,['c'],1,left,['u'],1,0.6570150000006834,0.4,1,0,AccFast,31,18,Woman,Right,
20,8,1,0.784444099999746,['n'],1,right,['u'],1,0.5700415999999677,0.4,1,0,AccFast,31,18,Woman,Right,
21,8,1,1.466371700000309,['c'],1,left,['u'],1,0.39431790000162437,0.2,1,0,AccFast,31,18,Woman,Right,
22,8,1,1.016659200000504,['c'],0,right,['u'],1,0.35719950000020617,0.1,0,0,AccFast,31,18,Woman,Right,
23,8,1,1.4505676999997377,['c'],1,left,['e'],0,0.46283969999967667,0.2,0,0,AccFast,31,18,Woman,Right,
24,8,1,0.7347035999991931,['n'],1,right,['u'],1,0.385223400000541,0.1,1,0,AccFast,31,18,Woman,Right,
25,8,1,1.8675638000004255,['c'],1,left,['u'],1,0.2976371000004292,0.1,1,0,AccFast,31,18,Woman,Right,
26,8,1,1.9831409999987955,['n'],1,right,['e'],0,0.6411330999999336,0.1,0,0,AccFast,31,18,Woman,Right,
27,8,1,0.8343881000000692,['c'],1,left,['u'],1,0.3124169999991864,0.4,1,0,AccFast,31,18,Woman,Right,
28,8,1,0.6845862999998644,['n'],1,right,['u'],1,0.5144799999998213,0.1,1,0,AccFast,31,18,Woman,Right,
29,8,1,1.250583099999858,['c'],1,left,['e'],0,0.3664394999996148,0.1,0,0,AccFast,31,18,Woman,Right,
30,8,1,1.400797500000408,['c'],1,left,['u'],1,0.21854370000073686,0.4,1,0,AccFast,31,18,Woman,Right,
31,8,1,1.0014272000007622,['c'],0,right,['u'],1,0.42753199999970093,0.4,0,0,AccFast,31,18,Woman,Right,
32,8,1,1.0344023999987257,['c'],1,left,['u'],1,0.2916437000003498,0.4,1,0,AccFast,31,18,Woman,Right,
33,8,1,0.7516924000010476,['c'],1,left,['u'],1,0.3167481000000407,0.2,1,0,AccFast,31,18,Woman,Right,
34,8,1,0.4848538999995071,['n'],1,right,['u'],1,0.4632756999999401,0.1,1,0,AccFast,31,18,Woman,Right,
35,8,1,2.516347200000382,['n'],1,right,['u'],1,0.3787377999997261,0.2,1,0,AccFast,31,18,Woman,Right,
36,8,1,2.2345064000001003,['c'],1,left,['u'],1,0.2762444999989384,0.2,1,0,AccFast,31,18,Woman,Right,
37,8,1,3.2186204999998154,['c'],0,right,['e'],0,0.44370080000044254,0.2,1,0,AccFast,31,18,Woman,Right,
38,8,1,3.6678333999989263,['c'],0,right,['u'],1,0.6022498999991512,0.1,0,0,AccFast,31,18,Woman,Right,
39,8,1,4.750777400000516,['c'],0,right,['e'],0,0.5350202000008721,0.4,1,0,AccFast,31,18,Woman,Right,
40,8,1,1.5177723999986483,['c'],0,right,['e'],0,0.23175240000091435,0.2,1,0,AccFast,31,18,Woman,Right,
41,8,1,2.817438999998558,['c'],0,right,['u'],1,0.22358750000057626,0.2,0,0,AccFast,31,18,Woman,Right,
42,8,1,1.083047300000544,['c'],1,left,['u'],1,0.22267039999860572,0.1,1,0,AccFast,31,18,Woman,Right,
43,8,1,0.9347227999987808,['c'],1,left,['u'],1,0.25824119999924733,0.2,1,0,AccFast,31,18,Woman,Right,
44,8,1,0.68401939999967,['c'],1,left,['u'],1,0.2879376000000775,0.1,1,0,AccFast,31,18,Woman,Right,
45,8,1,3.7170284999992873,['n'],1,right,['e'],0,0.5619275999997626,0.2,0,0,AccFast,31,18,Woman,Right,
46,8,1,1.7835713000004034,['c'],0,right,['u'],1,0.6627413999995042,0.2,0,0,AccFast,31,18,Woman,Right,
47,8,1,3.166959500000303,['n'],1,right,['e'],0,0.5435611999982939,0.1,0,0,AccFast,31,18,Woman,Right,
48,8,1,1.2016755000004196,['n'],1,right,['u'],1,0.4283636000000115,0.2,1,0,AccFast,31,18,Woman,Right,
49,8,1,1.0840673000002425,['c'],1,left,['e'],0,0.8187299000001076,0.4,0,0,AccFast,31,18,Woman,Right,
50,8,1,1.1010179000004428,['c'],1,left,['e'],0,0.4884098999991693,0.2,0,0,AccFast,31,18,Woman,Right,
51,8,1,2.9834852000003593,['c'],0,right,['e'],0,0.5281589000005624,0.1,1,0,AccFast,31,18,Woman,Right,
52,8,1,2.733810600000652,['c'],0,right,['e'],0,0.3685901000008016,0.1,1,0,AccFast,31,18,Woman,Right,
53,8,1,3.88422250000076,['c'],1,left,['e'],0,0.602121800000532,0.2,0,0,AccFast,31,18,Woman,Right,
54,8,1,1.4510733999995864,['n'],0,left,['u'],1,0.45742150000114634,0.4,0,0,AccFast,31,18,Woman,Right,
55,8,1,2.8510615000013786,['c'],1,left,['e'],0,0.4240948999995453,0.1,0,0,AccFast,31,18,Woman,Right,
56,8,1,4.350154999998267,['c'],0,right,['e'],0,6.092846199999258,0.4,1,0,AccFast,31,18,Woman,Right,
57,8,1,0.9178694999991421,['c'],1,left,['u'],1,0.166863899999953,0.2,1,0,AccFast,31,18,Woman,Right,
58,8,1,0.617728300001545,['c'],1,left,['u'],1,0.15393530000073952,0.2,1,0,AccFast,31,18,Woman,Right,
59,8,1,1.6676229999993666,['c'],1,left,['u'],1,0.48346239999955287,0.4,1,0,AccFast,31,18,Woman,Right,
0,9,1,3.9331872000002477,['c'],1,left,['u'],1,1.4087190000009286,0.4,1,0,AccAcc,31,18,Woman,Right,
1,9,1,4.682752599999731,['c'],1,left,['u'],1,0.6234678000000713,0.2,1,0,AccAcc,31,18,Woman,Right,
2,9,1,3.617209099998945,['n'],1,right,['u'],1,0.3928187999990769,0.2,1,0,AccAcc,31,18,Woman,Right,
3,9,1,1.9337583000015002,['c'],0,right,['e'],0,0.33505330000116373,0.1,1,0,AccAcc,31,18,Woman,Right,
4,9,1,1.733539999999266,['n'],1,right,['u'],1,0.3180799999990995,0.2,1,0,AccAcc,31,18,Woman,Right,
5,9,1,3.7849068000014086,['c'],0,right,['e'],0,0.3966985000006389,0.2,1,0,AccAcc,31,18,Woman,Right,
6,9,1,3.13402700000006,['n'],0,left,['u'],1,0.4018281999997271,0.1,0,0,AccAcc,31,18,Woman,Right,
7,9,1,2.2178177000005235,['n'],1,right,['e'],0,0.7156185999992886,0.1,0,0,AccAcc,31,18,Woman,Right,
8,9,1,2.6349142999988544,['n'],1,right,['u'],1,0.5679921999999351,0.4,1,0,AccAcc,31,18,Woman,Right,
9,9,1,1.384590900001058,['c'],1,left,['e'],0,0.6362991999994847,0.1,0,0,AccAcc,31,18,Woman,Right,
10,9,1,2.750374600000214,['c'],0,right,['u'],1,0.3756663000003755,0.1,0,0,AccAcc,31,18,Woman,Right,
11,9,1,1.3010653000001184,['n'],1,right,['u'],1,0.47131719999924826,0.4,1,0,AccAcc,31,18,Woman,Right,
12,9,1,0.8158946000003198,['c'],0,right,['e'],0,0.4396543999991991,0.1,1,0,AccAcc,31,18,Woman,Right,
13,9,1,0.7001851000004535,['c'],1,left,['u'],1,0.37914199999977427,0.4,1,0,AccAcc,31,18,Woman,Right,
14,9,1,3.200935599999866,['n'],0,left,['u'],1,1.0542579000011756,0.1,0,0,AccAcc,31,18,Woman,Right,
15,9,1,1.30120050000005,['c'],0,right,['u'],1,0.3228960999986157,0.1,0,0,AccAcc,31,18,Woman,Right,
16,9,1,1.7671850000006089,['n'],1,right,['u'],1,0.2736598999999842,0.4,1,0,AccAcc,31,18,Woman,Right,
17,9,1,1.3514262000007875,['c'],0,right,['u'],1,0.49944809999942663,0.2,0,0,AccAcc,31,18,Woman,Right,
18,9,1,2.4165912000007665,['c'],1,left,['e'],0,1.3784734000000753,0.2,0,0,AccAcc,31,18,Woman,Right,
19,9,1,2.117575400001442,['n'],1,right,['u'],1,0.5209814999998343,0.4,1,0,AccAcc,31,18,Woman,Right,
20,9,1,0.7838391999994201,['c'],0,right,['e'],0,2.2307301000000734,0.2,1,0,AccAcc,31,18,Woman,Right,
21,9,1,0.8511543000004167,['n'],1,right,['u'],1,0.349821099998735,0.4,1,0,AccAcc,31,18,Woman,Right,
22,9,1,0.717924700000367,['c'],1,left,['u'],1,0.3734069999991334,0.4,1,0,AccAcc,31,18,Woman,Right,
23,9,1,0.668107699999382,['c'],1,left,['u'],1,0.36688110000068264,0.4,1,0,AccAcc,31,18,Woman,Right,
24,9,1,3.299275299999863,['c'],1,left,['e'],0,0.5750503999988723,0.4,0,0,AccAcc,31,18,Woman,Right,
25,9,1,3.266480700000102,['n'],1,right,['e'],0,0.7607119999993301,0.2,0,0,AccAcc,31,18,Woman,Right,
26,9,1,2.2683283999995183,['n'],1,right,['u'],1,0.3849749000000884,0.1,1,0,AccAcc,31,18,Woman,Right,
27,9,1,1.1018595000005007,['c'],1,left,['e'],0,0.36009390000072017,0.4,0,0,AccAcc,31,18,Woman,Right,
28,9,1,2.0857480999984546,['c'],0,right,['u'],1,0.3130801999996038,0.1,0,0,AccAcc,31,18,Woman,Right,
29,9,1,1.7328166000006604,['n'],1,right,['u'],1,0.506829199999629,0.1,1,0,AccAcc,31,18,Woman,Right,
30,9,1,0.6164009000003716,['c'],0,right,['u'],1,0.30304359999900043,0.1,0,0,AccAcc,31,18,Woman,Right,
31,9,1,0.9506124000017735,['c'],1,left,['u'],1,0.3353127000009408,0.4,1,0,AccAcc,31,18,Woman,Right,
32,9,1,0.7013161000013497,['n'],1,right,['u'],1,0.23216909999973723,0.4,1,0,AccAcc,31,18,Woman,Right,
33,9,1,0.7325025000009191,['c'],0,right,['u'],1,0.22870239999974729,0.2,0,0,AccAcc,31,18,Woman,Right,
34,9,1,3.250690699998813,['n'],0,left,['e'],0,0.3800403000004735,0.2,1,0,AccAcc,31,18,Woman,Right,
35,9,1,2.133538000000044,['n'],0,left,['e'],0,0.37743760000012117,0.4,1,0,AccAcc,31,18,Woman,Right,
36,9,1,3.265712000000349,['n'],0,left,['u'],1,0.6832797999995819,0.1,0,0,AccAcc,31,18,Woman,Right,
37,9,1,3.6177758000012545,['c'],1,left,['e'],0,0.48134769999887794,0.2,0,0,AccAcc,31,18,Woman,Right,
38,9,1,0.9168313999998645,['n'],0,left,['u'],1,0.34780379999938305,0.1,0,0,AccAcc,31,18,Woman,Right,
39,9,1,1.6002532999991672,['c'],1,left,['u'],1,0.38398330000018177,0.2,1,0,AccAcc,31,18,Woman,Right,
40,9,1,0.8345048999999563,['n'],1,right,['u'],1,0.2733296000005794,0.4,1,0,AccAcc,31,18,Woman,Right,
41,9,1,1.883636900000056,['c'],1,left,['u'],1,0.2059798000009323,0.4,1,0,AccAcc,31,18,Woman,Right,
42,9,1,2.65039440000146,['c'],1,left,['e'],0,0.5423097999992024,0.1,0,0,AccAcc,31,18,Woman,Right,
43,9,1,0.8175246999999217,['n'],1,right,['u'],1,0.3624407000006613,0.2,1,0,AccAcc,31,18,Woman,Right,
44,9,1,1.5668920999996772,['n'],1,right,['e'],0,0.19149540000034904,0.1,0,0,AccAcc,31,18,Woman,Right,
45,9,1,0.7513956999991933,['n'],0,left,['u'],1,0.3164568000011059,0.2,0,0,AccAcc,31,18,Woman,Right,
46,9,1,2.817625699999553,['c'],1,left,['e'],0,0.41852920000019367,0.2,0,0,AccAcc,31,18,Woman,Right,
47,9,1,0.8011102000000392,['c'],1,left,['u'],1,0.547256699999707,0.4,1,0,AccAcc,31,18,Woman,Right,
48,9,1,2.3502720999986195,['n'],0,left,['u'],1,0.5143360000001849,0.1,0,0,AccAcc,31,18,Woman,Right,
49,9,1,3.4341112000001885,['c'],1,left,['e'],0,0.5662976999992679,0.2,0,0,AccAcc,31,18,Woman,Right,
50,9,1,1.4345713000002434,['c'],1,left,['u'],1,0.31266230000073847,0.2,1,0,AccAcc,31,18,Woman,Right,
51,9,1,0.8837960999990173,['c'],1,left,['u'],1,0.17092679999950633,0.4,1,0,AccAcc,31,18,Woman,Right,
52,9,1,3.1845439999997325,['n'],1,right,['e'],0,0.31121429999984684,0.4,0,0,AccAcc,31,18,Woman,Right,
53,9,1,4.184352699998271,['n'],1,right,['e'],0,0.598850800000946,0.2,0,0,AccAcc,31,18,Woman,Right,
54,9,1,1.451491999998325,['n'],1,right,['u'],1,0.16773509999984526,0.2,1,0,AccAcc,31,18,Woman,Right,
55,9,1,3.017779600000722,['n'],0,left,['e'],0,0.45798719999947934,0.4,1,0,AccAcc,31,18,Woman,Right,
56,9,1,1.5167333999997936,['n'],0,left,['u'],1,0.6380735999991884,0.1,0,0,AccAcc,31,18,Woman,Right,
57,9,1,1.2347422000002553,['c'],0,right,['u'],1,0.3253340000010212,0.1,0,0,AccAcc,31,18,Woman,Right,
58,9,1,1.4014886999993905,['n'],0,left,['e'],0,0.7713481999999203,0.1,1,0,AccAcc,31,18,Woman,Right,
59,9,1,0.7848840000006021,['n'],1,right,['u'],1,0.2955093000000488,0.2,1,0,AccAcc,31,18,Woman,Right,
0,10,1,1.2681480999999621,['n'],0,left,['u'],1,0.6813234999990527,0.2,0,0,FastAcc,31,18,Woman,Right,
1,10,1,1.3014285000008385,['n'],0,left,['u'],1,0.3483656999997038,0.2,0,0,FastAcc,31,18,Woman,Right,
2,10,1,2.0335854000004474,['n'],1,right,['u'],1,0.2712857999995322,0.1,1,0,FastAcc,31,18,Woman,Right,
3,10,1,0.7352018000001408,['n'],1,right,['u'],1,0.26558379999914905,0.4,1,0,FastAcc,31,18,Woman,Right,
4,10,1,0.8172035999996297,['n'],1,right,['u'],1,0.256608600000618,0.2,1,0,FastAcc,31,18,Woman,Right,
5,10,1,1.5507940000006784,['n'],1,right,['u'],1,0.21883229999912146,0.1,1,0,FastAcc,31,18,Woman,Right,
6,10,1,1.551127799999449,['n'],1,right,['u'],1,0.26251199999933306,0.4,1,0,FastAcc,31,18,Woman,Right,
7,10,1,2.5845561000005546,['n'],1,right,['u'],1,0.4710408999999345,0.4,1,0,FastAcc,31,18,Woman,Right,
8,10,1,2.250074499999755,['c'],0,right,['u'],1,0.4449365999989823,0.1,0,0,FastAcc,31,18,Woman,Right,
9,10,1,4.0176486000000295,['c'],0,right,['u'],1,0.9573417999999947,0.2,0,0,FastAcc,31,18,Woman,Right,
10,10,1,1.8836544000005233,['n'],0,left,['u'],1,0.20649190000040107,0.2,0,0,FastAcc,31,18,Woman,Right,
11,10,1,2.899590699998953,['n'],0,left,['u'],1,0.18098229999850446,0.1,0,0,FastAcc,31,18,Woman,Right,
12,10,1,3.515687600000092,['n'],1,right,['u'],1,0.2286521999994875,0.2,1,0,FastAcc,31,18,Woman,Right,
13,10,1,2.884294299999965,['c'],0,right,['u'],1,0.2500947999997152,0.1,0,0,FastAcc,31,18,Woman,Right,
14,10,1,2.0507261000002472,['c'],1,left,['u'],1,0.3042265000003681,0.4,1,0,FastAcc,31,18,Woman,Right,
15,10,1,3.1343160000014905,['n'],0,left,['u'],1,0.5053608999987773,0.4,0,0,FastAcc,31,18,Woman,Right,
16,10,1,1.5676253000001452,['n'],0,left,['u'],1,0.23380379999980505,0.2,0,0,FastAcc,31,18,Woman,Right,
17,10,1,1.7010152000002563,['n'],1,right,['u'],1,0.38221940000039467,0.2,1,0,FastAcc,31,18,Woman,Right,
18,10,1,1.017886699999508,['c'],0,right,['u'],1,1.6565070999986347,0.2,0,0,FastAcc,31,18,Woman,Right,
19,10,1,2.8679045000008045,['n'],1,right,['e'],0,0.3904958999992232,0.2,0,0,FastAcc,31,18,Woman,Right,
20,10,1,1.0009315999996033,['c'],0,right,['u'],1,0.17735320000065258,0.4,0,0,FastAcc,31,18,Woman,Right,
21,10,1,0.5517330999991827,['c'],0,right,['u'],1,0.35922539999955916,0.1,0,0,FastAcc,31,18,Woman,Right,
22,10,1,0.5347548999998253,['c'],1,left,['u'],1,0.1818700000003446,0.4,1,0,FastAcc,31,18,Woman,Right,
23,10,1,0.5844887000002927,['n'],1,right,['u'],1,0.16948500000034983,0.2,1,0,FastAcc,31,18,Woman,Right,
24,10,1,0.6009711999995488,['n'],0,left,['u'],1,0.14095289999931992,0.1,0,0,FastAcc,31,18,Woman,Right,
25,10,1,0.6179696999988664,['n'],1,right,['e'],0,0.49721049999971,0.4,0,0,FastAcc,31,18,Woman,Right,
26,10,1,0.8004338000009739,['n'],1,right,['u'],1,0.19141830000080517,0.4,1,0,FastAcc,31,18,Woman,Right,
27,10,1,0.4841926000008243,['c'],1,left,['u'],1,0.2788957999982813,0.4,1,0,FastAcc,31,18,Woman,Right,
28,10,1,0.433790000000954,['n'],1,right,['u'],1,0.25324910000017553,0.1,1,0,FastAcc,31,18,Woman,Right,
29,10,1,0.6178885000008449,['c'],0,right,['u'],1,0.1887483999998949,0.2,0,0,FastAcc,31,18,Woman,Right,
30,10,1,0.5512858999991295,['c'],1,left,['u'],1,0.14507450000019162,0.1,1,0,FastAcc,31,18,Woman,Right,
31,10,1,0.4508738999993511,['n'],1,right,['u'],1,0.20388830000047165,0.2,1,0,FastAcc,31,18,Woman,Right,
32,10,1,0.4505871000001207,['c'],1,left,['u'],1,0.22823559999960708,0.1,1,0,FastAcc,31,18,Woman,Right,
33,10,1,0.6837684999991325,['c'],1,left,['u'],1,0.9302984000005381,0.2,1,0,FastAcc,31,18,Woman,Right,
34,10,1,0.6679555999999138,['n'],0,left,['u'],1,0.708717000001343,0.4,0,0,FastAcc,31,18,Woman,Right,
35,10,1,0.6513244999987364,['n'],1,right,['u'],1,0.7051247999988846,0.1,1,0,FastAcc,31,18,Woman,Right,
36,10,1,0.48337960000026214,['c'],0,right,['u'],1,0.548539499999606,0.1,0,0,FastAcc,31,18,Woman,Right,
37,10,1,0.5171310999994603,['n'],1,right,['u'],1,0.31535709999843675,0.4,1,0,FastAcc,31,18,Woman,Right,
38,10,1,0.5338775000000169,['c'],1,left,['u'],1,0.23627850000048056,0.2,1,0,FastAcc,31,18,Woman,Right,
39,10,1,0.6680664999985311,['c'],1,left,['u'],1,0.1857361000002129,0.1,1,0,FastAcc,31,18,Woman,Right,
40,10,1,0.5507192999994004,['n'],1,right,['u'],1,0.15948349999962375,0.1,1,0,FastAcc,31,18,Woman,Right,
41,10,1,0.7011849999998958,['n'],0,left,['u'],1,0.1751418999992893,0.4,0,0,FastAcc,31,18,Woman,Right,
42,10,1,0.5178857999999309,['n'],0,left,['u'],1,0.18200230000002193,0.1,0,0,FastAcc,31,18,Woman,Right,
43,10,1,0.7009796999991522,['n'],0,left,['u'],1,0.5010363000001234,0.2,0,0,FastAcc,31,18,Woman,Right,
44,10,1,0.6192984000008437,['n'],0,left,['u'],1,0.3306118000000424,0.1,0,0,FastAcc,31,18,Woman,Right,
45,10,1,1.08466000000044,['n'],1,right,['u'],1,0.18016979999993055,0.4,1,0,FastAcc,31,18,Woman,Right,
46,10,1,3.6167950999988534,['n'],0,left,['e'],0,1.2307693000002473,0.4,1,0,FastAcc,31,18,Woman,Right,
47,10,1,2.2017389000011462,['c'],1,left,['u'],1,0.1518898000012996,0.1,1,0,FastAcc,31,18,Woman,Right,
48,10,1,3.017431899999792,['n'],1,right,['u'],1,0.17222320000109903,0.2,1,0,FastAcc,31,18,Woman,Right,
49,10,1,0.9012717000005068,['n'],1,right,['u'],1,0.14702820000093197,0.2,1,0,FastAcc,31,18,Woman,Right,
50,10,1,0.9346527999987302,['c'],1,left,['u'],1,0.45801850000134436,0.2,1,0,FastAcc,31,18,Woman,Right,
51,10,1,2.334188999999242,['n'],0,left,['u'],1,0.253295700000308,0.4,0,0,FastAcc,31,18,Woman,Right,
52,10,1,2.0505448000003526,['n'],0,left,['u'],1,0.16496700000061537,0.1,0,0,FastAcc,31,18,Woman,Right,
53,10,1,2.2172513999994408,['c'],1,left,['u'],1,0.11865749999924446,0.1,1,0,FastAcc,31,18,Woman,Right,
54,10,1,3.0498766000000614,['c'],1,left,['u'],1,0.12312969999948109,0.4,1,0,FastAcc,31,18,Woman,Right,
55,10,1,3.0508348000003025,['c'],1,left,['u'],1,0.17436520000046585,0.4,1,0,FastAcc,31,18,Woman,Right,
56,10,1,0.9336542999990343,['n'],1,right,['u'],1,0.16522969999823545,0.2,1,0,FastAcc,31,18,Woman,Right,
57,10,1,1.3514099000003625,['c'],1,left,['u'],1,0.1380458000003273,0.1,1,0,FastAcc,31,18,Woman,Right,
58,10,1,0.734484299999167,['c'],1,left,['u'],1,0.15365200000087498,0.4,1,0,FastAcc,31,18,Woman,Right,
59,10,1,0.5011957000006078,['n'],1,right,['u'],1,0.14660960000037448,0.4,1,0,FastAcc,31,18,Woman,Right,
0,11,1,1.2349987000015972,['n'],1,right,['u'],1,0.2528246999991097,0.4,1,0,FastFast,31,18,Woman,Right,
1,11,1,0.6343953999985388,['c'],0,right,['u'],1,0.187440499999866,0.1,0,0,FastFast,31,18,Woman,Right,
2,11,1,0.8837911999999051,['c'],1,left,['u'],1,0.19489380000050005,0.4,1,0,FastFast,31,18,Woman,Right,
3,11,1,2.8669231999992917,['n'],0,left,['u'],1,0.4271235999985947,0.1,0,0,FastFast,31,18,Woman,Right,
4,11,1,0.5684837999997399,['n'],1,right,['e'],0,0.2942289999991772,0.4,0,0,FastFast,31,18,Woman,Right,
5,11,1,0.5012031999995088,['c'],1,left,['u'],1,0.2812104000004183,0.2,1,0,FastFast,31,18,Woman,Right,
6,11,1,0.6844348999984504,['c'],1,left,['u'],1,0.3247080000001006,0.4,1,0,FastFast,31,18,Woman,Right,
7,11,1,0.4016885999990336,['n'],0,left,['e'],0,0.602321899999879,0.4,1,0,FastFast,31,18,Woman,Right,
8,11,1,0.6502651000009791,['n'],1,right,['e'],0,0.3624869999985094,0.4,0,0,FastFast,31,18,Woman,Right,
9,11,1,1.784461299999748,['n'],0,left,['u'],1,0.34278639999865845,0.2,0,0,FastFast,31,18,Woman,Right,
10,11,1,0.5351781999997911,['c'],1,left,['u'],1,0.5343917999998666,0.4,1,0,FastFast,31,18,Woman,Right,
11,11,1,1.3845466000002489,['n'],0,left,['u'],1,0.22004129999913857,0.4,0,0,FastFast,31,18,Woman,Right,
12,11,1,1.017883200000142,['c'],0,right,['u'],1,0.1729635000010603,0.1,0,0,FastFast,31,18,Woman,Right,
13,11,1,0.651343800000177,['n'],1,right,['u'],1,0.2228049999994255,0.4,1,0,FastFast,31,18,Woman,Right,
14,11,1,0.935043699999369,['n'],1,right,['u'],1,0.16273940000064613,0.1,1,0,FastFast,31,18,Woman,Right,
15,11,1,0.7502392000005784,['n'],1,right,['u'],1,0.2730909999991127,0.1,1,0,FastFast,31,18,Woman,Right,
16,11,1,2.134498399998847,['n'],1,right,['u'],1,0.1787825999999768,0.2,1,0,FastFast,31,18,Woman,Right,
17,11,1,0.8509248999998817,['n'],1,right,['u'],1,0.07567019999987679,0.4,1,0,FastFast,31,18,Woman,Right,
18,11,1,0.7845139999990351,['c'],0,right,['u'],1,0.1239808999998786,0.1,0,0,FastFast,31,18,Woman,Right,
19,11,1,2.2000801999984105,['c'],0,right,['e'],0,0.11425200000121549,0.2,1,0,FastFast,31,18,Woman,Right,
20,11,1,1.1511625000002823,['n'],0,left,['u'],1,0.14530240000021877,0.1,0,0,FastFast,31,18,Woman,Right,
21,11,1,0.6843927999998414,['c'],1,left,['u'],1,0.19402999999874737,0.4,1,0,FastFast,31,18,Woman,Right,
22,11,1,2.4507655999987037,['c'],0,right,['e'],0,0.4912113999998837,0.2,1,0,FastFast,31,18,Woman,Right,
23,11,1,0.5850974000004499,['n'],1,right,['u'],1,0.131025699998645,0.4,1,0,FastFast,31,18,Woman,Right,
24,11,1,0.885001699998611,['c'],1,left,['u'],1,0.1563705000007758,0.1,1,0,FastFast,31,18,Woman,Right,
25,11,1,1.6842845999999554,['n'],0,left,['u'],1,0.16554340000038792,0.1,0,0,FastFast,31,18,Woman,Right,
26,11,1,0.7010710000013205,['n'],1,right,['u'],1,0.14907470000071044,0.4,1,0,FastFast,31,18,Woman,Right,
27,11,1,0.849754100001519,['n'],0,left,['u'],1,0.14389519999895128,0.1,0,0,FastFast,31,18,Woman,Right,
28,11,1,1.650804999999309,['c'],1,left,['u'],1,0.09077270000125282,0.2,1,0,FastFast,31,18,Woman,Right,
29,11,1,1.0339424000012514,['n'],1,right,['u'],1,0.1278883000013593,0.2,1,0,FastFast,31,18,Woman,Right,
30,11,1,1.1694936000003509,['n'],1,right,['u'],1,0.14287700000022596,0.1,1,0,FastFast,31,18,Woman,Right,
31,11,1,1.3178752999992867,['n'],1,right,['u'],1,0.11911209999925632,0.2,1,0,FastFast,31,18,Woman,Right,
32,11,1,1.434064999999464,['n'],1,right,['u'],1,0.1554869999999937,0.4,1,0,FastFast,31,18,Woman,Right,
33,11,1,2.284923200000776,['n'],0,left,['u'],1,0.12439999999878637,0.2,0,0,FastFast,31,18,Woman,Right,
34,11,1,1.5177041000006284,['n'],0,left,['u'],1,0.17339949999950477,0.1,0,0,FastFast,31,18,Woman,Right,
35,11,1,2.3680889000006573,['n'],0,left,['u'],1,0.09047449999889068,0.1,0,0,FastFast,31,18,Woman,Right,
36,11,1,2.7840374000006705,['n'],1,right,['u'],1,0.20227470000099856,0.4,1,0,FastFast,31,18,Woman,Right,
37,11,1,0.7348594000013691,['n'],1,right,['u'],1,0.15125839999927848,0.2,1,0,FastFast,31,18,Woman,Right,
38,11,1,1.9010111000006873,['n'],1,right,['u'],1,0.1195635999993101,0.1,1,0,FastFast,31,18,Woman,Right,
39,11,1,1.2346512999993138,['n'],1,right,['u'],1,0.16391680000015185,0.4,1,0,FastFast,31,18,Woman,Right,
40,11,1,0.5346090999992157,['c'],1,left,['u'],1,0.17007559999910882,0.2,1,0,FastFast,31,18,Woman,Right,
41,11,1,2.0348372000007657,['c'],0,right,['u'],1,0.08453019999979006,0.4,0,0,FastFast,31,18,Woman,Right,
42,11,1,1.5847525999997742,['n'],1,right,['u'],1,0.14845340000101714,0.2,1,0,FastFast,31,18,Woman,Right,
43,11,1,0.6176145999997971,['c'],1,left,['u'],1,0.08776819999911822,0.4,1,0,FastFast,31,18,Woman,Right,
44,11,1,1.9011580000005779,['c'],1,left,['u'],1,0.044188300000314484,0.2,1,0,FastFast,31,18,Woman,Right,
45,11,1,1.1328051000000414,['n'],1,right,['u'],1,0.19099170000117738,0.1,1,0,FastFast,31,18,Woman,Right,
46,11,1,2.719048800001474,['n'],1,right,['u'],1,1.4366737000000285,0.1,1,0,FastFast,31,18,Woman,Right,
47,11,1,0.6667938999999024,['c'],1,left,['u'],1,0.09155189999910363,0.2,1,0,FastFast,31,18,Woman,Right,
48,11,1,2.266072999998869,['n'],1,right,['e'],0,0.22498559999985446,0.1,0,0,FastFast,31,18,Woman,Right,
49,11,1,0.7847258999991027,['n'],0,left,['u'],1,0.1381212999986019,0.1,0,0,FastFast,31,18,Woman,Right,
50,11,1,0.5344478000006347,['c'],1,left,['u'],1,0.12934619999941788,0.1,1,0,FastFast,31,18,Woman,Right,
51,11,1,1.484701600000335,['n'],0,left,['e'],0,0.09915160000127798,0.2,1,0,FastFast,31,18,Woman,Right,
52,11,1,0.6011008000004949,['c'],1,left,['u'],1,0.10515549999945506,0.4,1,0,FastFast,31,18,Woman,Right,
53,11,1,1.1011027000004106,['c'],0,right,['u'],1,0.059346400001231814,0.1,0,0,FastFast,31,18,Woman,Right,
54,11,1,1.3347414999989269,['n'],1,right,['u'],1,0.10242140000082145,0.2,1,0,FastFast,31,18,Woman,Right,
55,11,1,1.333305999998629,['c'],1,left,['u'],1,0.1278435999993235,0.2,1,0,FastFast,31,18,Woman,Right,
56,11,1,1.3344386999997369,['c'],1,left,['u'],1,0.13599780000004102,0.2,1,0,FastFast,31,18,Woman,Right,
57,11,1,1.0169243999989703,['c'],1,left,['u'],1,0.12439480000102776,0.2,1,0,FastFast,31,18,Woman,Right,
58,11,1,1.2842641000006552,['c'],1,left,['u'],1,0.15040659999976924,0.4,1,0,FastFast,31,18,Woman,Right,
59,11,1,1.6017270000011194,['c'],1,left,['u'],1,0.1466762000000017,0.2,1,0,FastFast,31,18,Woman,Right,
0,12,1,1.8009404999993421,['c'],1,left,['u'],1,1.1709386999991693,0.2,1,0,AccFast,31,18,Woman,Right,
1,12,1,2.649534300000596,['c'],0,right,['u'],1,0.3811995999985811,0.1,0,0,AccFast,31,18,Woman,Right,
2,12,1,2.0519885000012437,['c'],1,left,['e'],0,0.18983939999998256,0.1,0,0,AccFast,31,18,Woman,Right,
3,12,1,1.9847254999986035,['c'],0,right,['e'],0,0.2974278999990929,0.2,1,0,AccFast,31,18,Woman,Right,
4,12,1,1.3678212000013446,['c'],1,left,['e'],0,0.23300279999966733,0.2,0,0,AccFast,31,18,Woman,Right,
5,12,1,1.1680305999998382,['c'],1,left,['u'],1,0.4353372000005038,0.2,1,0,AccFast,31,18,Woman,Right,
6,12,1,3.2511213999987376,['n'],0,left,['e'],0,0.3065960999992967,0.4,1,0,AccFast,31,18,Woman,Right,
7,12,1,3.134672499998487,['n'],1,right,['e'],0,0.33170160000008764,0.2,0,0,AccFast,31,18,Woman,Right,
8,12,1,2.8497502999998687,['n'],1,right,['e'],0,0.2394490999995469,0.2,0,0,AccFast,31,18,Woman,Right,
9,12,1,2.1506878999989567,['n'],0,left,['u'],1,0.3219757999995636,0.1,0,0,AccFast,31,18,Woman,Right,
10,12,1,1.617487200001051,['n'],1,right,['u'],1,0.3749587000002066,0.1,1,0,AccFast,31,18,Woman,Right,
11,12,1,1.3845252999999502,['c'],1,left,['u'],1,0.24328760000025795,0.1,1,0,AccFast,31,18,Woman,Right,
12,12,1,0.6339656999989529,['c'],1,left,['u'],1,0.16344019999996817,0.4,1,0,AccFast,31,18,Woman,Right,
13,12,1,1.067909999999756,['c'],1,left,['u'],1,0.11573219999991124,0.4,1,0,AccFast,31,18,Woman,Right,
14,12,1,1.6014210999983334,['c'],1,left,['u'],1,0.2100252999989607,0.4,1,0,AccFast,31,18,Woman,Right,
15,12,1,1.9508506000001944,['n'],1,right,['u'],1,0.41390529999989667,0.2,1,0,AccFast,31,18,Woman,Right,
16,12,1,2.4830767000003107,['n'],1,right,['u'],1,0.23674109999956272,0.1,1,0,AccFast,31,18,Woman,Right,
17,12,1,2.4843631999992795,['n'],1,right,['u'],1,0.16209340000023076,0.4,1,0,AccFast,31,18,Woman,Right,
18,12,1,1.2014672000004794,['c'],0,right,['u'],1,0.3336003000003984,0.1,0,0,AccFast,31,18,Woman,Right,
19,12,1,1.5662075000000186,['n'],0,left,['e'],0,0.1334129999995639,0.2,1,0,AccFast,31,18,Woman,Right,
20,12,1,0.8494477999993251,['n'],0,left,['e'],0,0.2551620999984152,0.2,1,0,AccFast,31,18,Woman,Right,
21,12,1,1.0181740000007267,['c'],0,right,['u'],1,0.1904261999989103,0.1,0,0,AccFast,31,18,Woman,Right,
22,12,1,0.6501326999987214,['c'],1,left,['u'],1,0.3040316000005987,0.4,1,0,AccFast,31,18,Woman,Right,
23,12,1,0.6178779000001668,['n'],0,left,['u'],1,0.33300770000096236,0.1,0,0,AccFast,31,18,Woman,Right,
24,12,1,0.6178713000008429,['c'],1,left,['u'],1,0.5051540000004024,0.2,1,0,AccFast,31,18,Woman,Right,
25,12,1,0.5837467000001197,['n'],1,right,['u'],1,0.2401012999998784,0.4,1,0,AccFast,31,18,Woman,Right,
26,12,1,0.7680579999996553,['n'],1,right,['u'],1,0.3305766000012227,0.4,1,0,AccFast,31,18,Woman,Right,
27,12,1,1.1514733000003616,['n'],0,left,['u'],1,0.2255246000004263,0.2,0,0,AccFast,31,18,Woman,Right,
28,12,1,0.7173388000010164,['c'],1,left,['u'],1,0.20710590000089724,0.1,1,0,AccFast,31,18,Woman,Right,
29,12,1,0.6843406000007235,['n'],0,left,['u'],1,0.23730049999903713,0.1,0,0,AccFast,31,18,Woman,Right,
30,12,1,0.9011126000004879,['n'],1,right,['u'],1,0.22628609999992477,0.4,1,0,AccFast,31,18,Woman,Right,
31,12,1,0.7677469000009296,['n'],1,right,['u'],1,0.28520690000004834,0.2,1,0,AccFast,31,18,Woman,Right,
32,12,1,0.6511088999995991,['n'],1,right,['u'],1,0.31398300000000745,0.4,1,0,AccFast,31,18,Woman,Right,
33,12,1,0.9507577999993373,['n'],1,right,['u'],1,0.2656096000009711,0.4,1,0,AccFast,31,18,Woman,Right,
34,12,1,0.5844532000010076,['n'],1,right,['u'],1,0.2018934999996418,0.4,1,0,AccFast,31,18,Woman,Right,
35,12,1,0.44945189999998547,['c'],1,left,['e'],0,0.9781246000002284,0.4,0,0,AccFast,31,18,Woman,Right,
36,12,1,0.6181433000001562,['n'],0,left,['u'],1,0.27718060000006517,0.1,0,0,AccFast,31,18,Woman,Right,
37,12,1,0.5014338000000862,['c'],1,left,['u'],1,0.2807757999999012,0.4,1,0,AccFast,31,18,Woman,Right,
38,12,1,0.5679183000011108,['n'],1,right,['u'],1,0.4571309000002657,0.2,1,0,AccFast,31,18,Woman,Right,
39,12,1,0.6839376000007178,['c'],1,left,['e'],0,0.3017798999990191,0.2,0,0,AccFast,31,18,Woman,Right,
40,12,1,0.5336453999989317,['n'],1,right,['e'],0,0.3187190999997256,0.2,0,0,AccFast,31,18,Woman,Right,
41,12,1,1.7178119999989576,['c'],0,right,['e'],0,0.3358317000001989,0.2,1,0,AccFast,31,18,Woman,Right,
42,12,1,0.7177033999996638,['c'],1,left,['e'],0,0.43989239999973506,0.1,0,0,AccFast,31,18,Woman,Right,
43,12,1,2.98484180000014,['c'],1,left,['u'],1,0.4977554000015516,0.1,1,0,AccFast,31,18,Woman,Right,
44,12,1,3.5845604999994976,['c'],1,left,['e'],0,0.5132783999997628,0.1,0,0,AccFast,31,18,Woman,Right,
45,12,1,2.9007789000006596,['n'],1,right,['e'],0,0.4749522000001889,0.4,0,0,AccFast,31,18,Woman,Right,
46,12,1,0.6672878000008495,['n'],1,right,['u'],1,0.30369639999844367,0.1,1,0,AccFast,31,18,Woman,Right,
47,12,1,0.7679545999999391,['n'],1,right,['u'],1,0.15132090000042808,0.4,1,0,AccFast,31,18,Woman,Right,
48,12,1,1.367840899998555,['n'],1,right,['u'],1,0.1571103000005678,0.2,1,0,AccFast,31,18,Woman,Right,
49,12,1,1.9170986999997695,['n'],1,right,['u'],1,0.18872940000073868,0.1,1,0,AccFast,31,18,Woman,Right,
50,12,1,2.6002592999993794,['n'],1,right,['u'],1,0.12773010000091745,0.2,1,0,AccFast,31,18,Woman,Right,
51,12,1,1.234444199999416,['n'],1,right,['u'],1,0.1720556000000215,0.4,1,0,AccFast,31,18,Woman,Right,
52,12,1,1.7172511999997369,['n'],0,left,['u'],1,0.16324659999918367,0.4,0,0,AccFast,31,18,Woman,Right,
53,12,1,0.7674513000001753,['c'],1,left,['u'],1,0.17591710000124294,0.4,1,0,AccFast,31,18,Woman,Right,
54,12,1,4.918812499998239,['c'],1,left,['u'],1,0.13538989999869955,0.2,1,0,AccFast,31,18,Woman,Right,
55,12,1,4.749892699999691,['c'],1,left,['u'],1,0.18281500000011874,0.1,1,0,AccFast,31,18,Woman,Right,
56,12,1,4.900089700000535,['c'],0,right,['u'],1,0.1261517000002641,0.1,0,0,AccFast,31,18,Woman,Right,
57,12,1,5.015970200000083,x,-99,right,none,-99,-99,0.1,-99,1,AccFast,31,18,Woman,Right,
58,12,1,1.6176195000007283,['n'],1,right,['u'],1,0.6612137999982224,0.4,1,0,AccFast,31,18,Woman,Right,
59,12,1,1.2503538000000844,['c'],1,left,['u'],1,0.44371350000074017,0.2,1,0,AccFast,31,18,Woman,Right,
0,13,1,1.2494040000001405,['c'],0,right,['u'],1,1.3425550000010844,0.1,0,0,AccAcc,31,18,Woman,Right,
1,13,1,1.8836190000001807,['n'],1,right,['u'],1,0.33608819999972184,0.4,1,0,AccAcc,31,18,Woman,Right,
2,13,1,1.9181840000001102,['n'],1,right,['u'],1,1.0163135000002512,0.1,1,0,AccAcc,31,18,Woman,Right,
3,13,1,1.0679464000004373,['n'],1,right,['u'],1,0.951388000001316,0.4,1,0,AccAcc,31,18,Woman,Right,
4,13,1,1.0009395999986737,['c'],1,left,['u'],1,0.587670300001264,0.4,1,0,AccAcc,31,18,Woman,Right,
5,13,1,0.8515377000003355,['n'],0,left,['u'],1,0.9007409999994707,0.1,0,0,AccAcc,31,18,Woman,Right,
6,13,1,1.584261999998489,['n'],1,right,['e'],0,0.5157505999995919,0.4,0,0,AccAcc,31,18,Woman,Right,
7,13,1,0.8009602000001905,['c'],1,left,['e'],0,0.46550110000134737,0.4,0,0,AccAcc,31,18,Woman,Right,
8,13,1,2.96680170000036,['n'],0,left,['e'],0,0.6983552000001509,0.2,1,0,AccAcc,31,18,Woman,Right,
9,13,1,0.966613900000084,['n'],1,right,['e'],0,0.4753825000007055,0.1,0,0,AccAcc,31,18,Woman,Right,
10,13,1,0.8679785000003903,['n'],1,right,['e'],0,0.3756720999990648,0.2,0,0,AccAcc,31,18,Woman,Right,
11,13,1,1.3677794000013819,['n'],1,right,['e'],0,0.3721875999999611,0.4,0,0,AccAcc,31,18,Woman,Right,
12,13,1,2.6344177999999374,['n'],1,right,['e'],0,0.7029288000012457,0.2,0,0,AccAcc,31,18,Woman,Right,
13,13,1,1.0843096999997215,['n'],0,left,['e'],0,0.2976823000008153,0.4,1,0,AccAcc,31,18,Woman,Right,
14,13,1,0.8847693000006984,['n'],0,left,['e'],0,0.9245752999995602,0.2,1,0,AccAcc,31,18,Woman,Right,
15,13,1,0.6162057000001369,['n'],1,right,['u'],1,0.6101612000002206,0.2,1,0,AccAcc,31,18,Woman,Right,
16,13,1,3.467468999999255,['n'],0,left,['e'],0,0.36928569999872707,0.2,1,0,AccAcc,31,18,Woman,Right,
17,13,1,0.8673190999998042,['n'],1,right,['e'],0,0.3865245999986655,0.2,0,0,AccAcc,31,18,Woman,Right,
18,13,1,1.3012617000003956,['n'],0,left,['u'],1,0.3213348999997834,0.2,0,0,AccAcc,31,18,Woman,Right,
19,13,1,0.8007589999997435,['c'],1,left,['u'],1,0.43904350000048,0.1,1,0,AccAcc,31,18,Woman,Right,
20,13,1,3.416649500000858,['n'],0,left,['e'],0,0.3675621999991563,0.2,1,0,AccAcc,31,18,Woman,Right,
21,13,1,1.9180983000005654,['c'],1,left,['u'],1,0.6144484000014927,0.1,1,0,AccAcc,31,18,Woman,Right,
22,13,1,0.8849082000015187,['c'],1,left,['u'],1,0.3169397999990906,0.2,1,0,AccAcc,31,18,Woman,Right,
23,13,1,1.8011103000008006,['n'],1,right,['e'],0,0.5225817999998981,0.2,0,0,AccAcc,31,18,Woman,Right,
24,13,1,3.1676102000001265,['n'],1,right,['u'],1,0.8743240000003425,0.4,1,0,AccAcc,31,18,Woman,Right,
25,13,1,2.0176205999996455,['n'],1,right,['e'],0,0.37697149999985413,0.2,0,0,AccAcc,31,18,Woman,Right,
26,13,1,2.8841301999982534,['n'],0,left,['e'],0,0.5694290999999794,0.1,1,0,AccAcc,31,18,Woman,Right,
27,13,1,4.034663700000237,['n'],0,left,['e'],0,0.5320095999995829,0.2,1,0,AccAcc,31,18,Woman,Right,
28,13,1,0.6683001000001241,['n'],0,left,['e'],0,0.23017319999962638,0.2,1,0,AccAcc,31,18,Woman,Right,
29,13,1,0.8687018000000535,['n'],1,right,['e'],0,0.22066420000010112,0.2,0,0,AccAcc,31,18,Woman,Right,
30,13,1,1.517084300001443,['n'],1,right,['e'],0,0.345418899998549,0.1,0,0,AccAcc,31,18,Woman,Right,
31,13,1,2.1842156999991857,['n'],0,left,['e'],0,0.3106026000004931,0.1,1,0,AccAcc,31,18,Woman,Right,
32,13,1,1.4322823000002245,['c'],1,left,['u'],1,0.9800821999997424,0.4,1,0,AccAcc,31,18,Woman,Right,
33,13,1,2.400328799998533,['c'],1,left,['u'],1,0.30267280000043684,0.4,1,0,AccAcc,31,18,Woman,Right,
34,13,1,1.6678236000007018,['c'],1,left,['u'],1,0.25818709999839484,0.4,1,0,AccAcc,31,18,Woman,Right,
35,13,1,0.8851735000007466,['c'],0,right,['u'],1,0.2953244000000268,0.4,0,0,AccAcc,31,18,Woman,Right,
36,13,1,0.8172315000010713,['n'],1,right,['e'],0,0.34883389999959036,0.4,0,0,AccAcc,31,18,Woman,Right,
37,13,1,0.618029999999635,['c'],1,left,['u'],1,0.3605164999989938,0.1,1,0,AccAcc,31,18,Woman,Right,
38,13,1,0.8514804999995249,['c'],0,right,['e'],0,0.4588094999999157,0.2,1,0,AccAcc,31,18,Woman,Right,
39,13,1,0.751712100000077,['c'],1,left,['u'],1,0.4931622000003699,0.4,1,0,AccAcc,31,18,Woman,Right,
40,13,1,2.667026799999803,['n'],1,right,['e'],0,0.5773787000016455,0.4,0,0,AccAcc,31,18,Woman,Right,
41,13,1,0.7335392999993928,['c'],1,left,['u'],1,0.2877934999996796,0.4,1,0,AccAcc,31,18,Woman,Right,
42,13,1,1.2849077000009856,['c'],1,left,['u'],1,0.275248099998862,0.1,1,0,AccAcc,31,18,Woman,Right,
43,13,1,2.3511347000003298,['c'],0,right,['e'],0,0.6210016999993968,0.1,1,0,AccAcc,31,18,Woman,Right,
44,13,1,0.9008567999990191,['c'],1,left,['u'],1,0.5309000000015658,0.1,1,0,AccAcc,31,18,Woman,Right,
45,13,1,1.5502868999992643,['n'],0,left,['e'],0,0.4178998000006686,0.1,1,0,AccAcc,31,18,Woman,Right,
46,13,1,1.1012490000011894,['c'],1,left,['u'],1,0.29537170000003243,0.4,1,0,AccAcc,31,18,Woman,Right,
47,13,1,1.150417799999559,['n'],1,right,['e'],0,0.559966799999529,0.1,0,0,AccAcc,31,18,Woman,Right,
48,13,1,0.7845416000000114,['n'],1,right,['u'],1,0.25273249999918335,0.2,1,0,AccAcc,31,18,Woman,Right,
49,13,1,1.7681455000001733,['n'],1,right,['u'],1,0.20625210000071093,0.2,1,0,AccAcc,31,18,Woman,Right,
50,13,1,1.1676183999989007,['n'],0,left,['u'],1,0.17000329999973474,0.1,0,0,AccAcc,31,18,Woman,Right,
51,13,1,2.4676333000006707,['n'],0,left,['e'],0,0.41901059999872814,0.2,1,0,AccAcc,31,18,Woman,Right,
52,13,1,0.7352134000011574,['n'],1,right,['e'],0,0.16730730000017502,0.4,0,0,AccAcc,31,18,Woman,Right,
53,13,1,1.9180042000007234,['c'],0,right,['e'],0,0.2462773000006564,0.1,1,0,AccAcc,31,18,Woman,Right,
54,13,1,0.9009385000008479,['c'],1,left,['e'],0,0.18672669999978098,0.1,0,0,AccAcc,31,18,Woman,Right,
55,13,1,0.9333817000006093,['c'],0,right,['e'],0,0.20840280000084022,0.1,1,0,AccAcc,31,18,Woman,Right,
56,13,1,1.2678082000002178,['c'],0,right,['e'],0,0.1361598999992566,0.4,1,0,AccAcc,31,18,Woman,Right,
57,13,1,2.5174306999997498,['n'],1,right,['u'],1,0.3045507999995607,0.1,1,0,AccAcc,31,18,Woman,Right,
58,13,1,0.7181624000004376,['c'],1,left,['e'],0,0.21789480000006733,0.2,0,0,AccAcc,31,18,Woman,Right,
59,13,1,3.033001499999955,['c'],0,right,['u'],1,0.2508927999988373,0.4,0,0,AccAcc,31,18,Woman,Right,
0,14,1,0.7011667999995552,['c'],1,left,['u'],1,4.049212500000067,0.4,1,0,FastAcc,31,18,Woman,Right,
1,14,1,1.9676645999988978,['n'],1,right,['u'],1,0.7072774999996909,0.4,1,0,FastAcc,31,18,Woman,Right,
2,14,1,2.0839724999987084,['n'],1,right,['u'],1,0.5505779000013717,0.2,1,0,FastAcc,31,18,Woman,Right,
3,14,1,1.6174491999991005,['n'],1,right,['e'],0,0.7226690999996208,0.2,0,0,FastAcc,31,18,Woman,Right,
4,14,1,1.8003924999993615,['n'],1,right,['u'],1,0.5922133000003669,0.4,1,0,FastAcc,31,18,Woman,Right,
5,14,1,0.7010513000004721,['c'],1,left,['u'],1,0.3507680000002438,0.2,1,0,FastAcc,31,18,Woman,Right,
6,14,1,1.751372500000798,['n'],1,right,['u'],1,0.36506759999974747,0.4,1,0,FastAcc,31,18,Woman,Right,
7,14,1,0.6344721999994363,['c'],0,right,['u'],1,0.7913095000003523,0.2,0,0,FastAcc,31,18,Woman,Right,
8,14,1,0.7005051999985881,['c'],1,left,['u'],1,0.6701253000010183,0.4,1,0,FastAcc,31,18,Woman,Right,
9,14,1,0.8840627000008681,['c'],1,left,['u'],1,0.8184199999996054,0.2,1,0,FastAcc,31,18,Woman,Right,
10,14,1,0.7174559999984922,['n'],0,left,['e'],0,0.15228120000028866,0.1,1,0,FastAcc,31,18,Woman,Right,
11,14,1,1.366692300000068,['c'],1,left,['u'],1,0.30151500000101805,0.2,1,0,FastAcc,31,18,Woman,Right,
12,14,1,1.2003966000011133,['c'],0,right,['e'],0,0.7876828999997088,0.2,1,0,FastAcc,31,18,Woman,Right,
13,14,1,0.8172564999986207,['c'],1,left,['u'],1,0.4697924000010971,0.4,1,0,FastAcc,31,18,Woman,Right,
14,14,1,1.6841798999994353,['n'],1,right,['u'],1,0.49816050000117684,0.1,1,0,FastAcc,31,18,Woman,Right,
15,14,1,1.0674703000004229,['c'],1,left,['u'],1,0.46989810000013676,0.4,1,0,FastAcc,31,18,Woman,Right,
16,14,1,0.8344949000002089,['n'],1,right,['u'],1,0.4681822000002285,0.2,1,0,FastAcc,31,18,Woman,Right,
17,14,1,2.4831104000004416,['n'],1,right,['u'],1,0.35235220000140544,0.1,1,0,FastAcc,31,18,Woman,Right,
18,14,1,0.5681315999991057,['c'],1,left,['u'],1,0.4298990999996022,0.4,1,0,FastAcc,31,18,Woman,Right,
19,14,1,0.6177588999998989,['n'],1,right,['u'],1,0.4063052000001335,0.4,1,0,FastAcc,31,18,Woman,Right,
20,14,1,0.8016377000003558,['n'],1,right,['u'],1,0.44052080000074056,0.2,1,0,FastAcc,31,18,Woman,Right,
21,14,1,0.9500410000000556,['n'],0,left,['u'],1,0.3401223000000755,0.1,0,0,FastAcc,31,18,Woman,Right,
22,14,1,1.5174447999997938,['n'],1,right,['u'],1,0.3638307999990502,0.1,1,0,FastAcc,31,18,Woman,Right,
23,14,1,0.900562999999238,['n'],1,right,['u'],1,0.4120510999982798,0.4,1,0,FastAcc,31,18,Woman,Right,
24,14,1,1.2508768999996391,['n'],0,left,['u'],1,0.395875199999864,0.4,0,0,FastAcc,31,18,Woman,Right,
25,14,1,0.8005649999995512,['c'],0,right,['u'],1,0.30203380000057223,0.1,0,0,FastAcc,31,18,Woman,Right,
26,14,1,2.2013700000006793,['n'],1,right,['u'],1,0.3325446999988344,0.1,1,0,FastAcc,31,18,Woman,Right,
27,14,1,1.400203600000168,['n'],0,left,['u'],1,0.4574443000001338,0.2,0,0,FastAcc,31,18,Woman,Right,
28,14,1,2.5676029000005656,['n'],0,left,['u'],1,0.3552080000008573,0.2,0,0,FastAcc,31,18,Woman,Right,
29,14,1,2.0165568000011262,['n'],0,left,['u'],1,0.31159239999942656,0.1,0,0,FastAcc,31,18,Woman,Right,
30,14,1,1.2675273000004381,['n'],0,left,['u'],1,0.5079817000005278,0.1,0,0,FastAcc,31,18,Woman,Right,
31,14,1,1.6010420000002341,['n'],0,left,['u'],1,0.26496619999852555,0.2,0,0,FastAcc,31,18,Woman,Right,
32,14,1,2.117053699999815,['c'],0,right,['u'],1,0.23612839999987045,0.1,0,0,FastAcc,31,18,Woman,Right,
33,14,1,1.6012068,['n'],1,right,['u'],1,0.24507740000080958,0.2,1,0,FastAcc,31,18,Woman,Right,
34,14,1,0.6843155000005936,['c'],0,right,['u'],1,0.16208910000023025,0.1,0,0,FastAcc,31,18,Woman,Right,
35,14,1,1.3508437999989837,['n'],1,right,['u'],1,0.29557240000031015,0.1,1,0,FastAcc,31,18,Woman,Right,
36,14,1,0.6674189999994269,['c'],1,left,['u'],1,0.3565326999996614,0.4,1,0,FastAcc,31,18,Woman,Right,
37,14,1,3.2675445999993826,['c'],0,right,['u'],1,0.1976144000000204,0.1,0,0,FastAcc,31,18,Woman,Right,
38,14,1,2.0333434000003763,['c'],0,right,['u'],1,0.5902427000000898,0.2,0,0,FastAcc,31,18,Woman,Right,
39,14,1,1.784683199999563,['n'],0,left,['u'],1,0.369749800000136,0.4,0,0,FastAcc,31,18,Woman,Right,
40,14,1,1.2679239999997662,['n'],0,left,['u'],1,0.49948980000044685,0.1,0,0,FastAcc,31,18,Woman,Right,
41,14,1,1.566935699998794,['n'],0,left,['u'],1,0.3867405000000872,0.1,0,0,FastAcc,31,18,Woman,Right,
42,14,1,2.0671763000009378,['c'],1,left,['u'],1,0.43507580000004964,0.4,1,0,FastAcc,31,18,Woman,Right,
43,14,1,2.050239000000147,['n'],1,right,['u'],1,0.3700264999988576,0.2,1,0,FastAcc,31,18,Woman,Right,
44,14,1,1.766307300000335,['n'],1,right,['u'],1,0.5274857000003976,0.4,1,0,FastAcc,31,18,Woman,Right,
45,14,1,3.8846893000009004,['n'],0,left,['e'],0,0.24146830000245245,0.4,1,0,FastAcc,31,18,Woman,Right,
46,14,1,1.1177936999993108,['n'],1,right,['e'],0,0.6703557000000728,0.1,0,0,FastAcc,31,18,Woman,Right,
47,14,1,1.165933500000392,['c'],1,left,['e'],0,0.2794759999997041,0.1,0,0,FastAcc,31,18,Woman,Right,
48,14,1,2.4518535999995947,['c'],1,left,['e'],0,0.28392410000014934,0.2,0,0,FastAcc,31,18,Woman,Right,
49,14,1,2.8671355999977095,['n'],1,right,['e'],0,0.2883473000001686,0.4,0,0,FastAcc,31,18,Woman,Right,
50,14,1,2.5506219000017154,['c'],0,right,['e'],0,1.041466999999102,0.1,1,0,FastAcc,31,18,Woman,Right,
51,14,1,1.834607099997811,['n'],0,left,['u'],1,0.5935481999986223,0.1,0,0,FastAcc,31,18,Woman,Right,
52,14,1,2.017499499997939,['c'],0,right,['u'],1,0.2518376000007265,0.2,0,0,FastAcc,31,18,Woman,Right,
53,14,1,0.900393100000656,['c'],1,left,['u'],1,0.2885458999990078,0.4,1,0,FastAcc,31,18,Woman,Right,
54,14,1,1.55123729999832,['n'],1,right,['e'],0,0.4411708000006911,0.2,0,0,FastAcc,31,18,Woman,Right,
55,14,1,1.3503391000012925,['c'],0,right,['e'],0,0.5639195999974618,0.1,1,0,FastAcc,31,18,Woman,Right,
56,14,1,0.7342262000020128,['c'],1,left,['u'],1,0.3704108999991149,0.4,1,0,FastAcc,31,18,Woman,Right,
57,14,1,2.100943699999334,['n'],0,left,['u'],1,0.2741028999989794,0.2,0,0,FastAcc,31,18,Woman,Right,
58,14,1,1.317984900000738,['n'],0,left,['u'],1,0.30975539999781176,0.4,0,0,FastAcc,31,18,Woman,Right,
59,14,1,0.6830345999987912,['c'],1,left,['u'],1,0.4806352000014158,0.2,1,0,FastAcc,31,18,Woman,Right,
0,15,1,1.1179566999999224,['c'],1,left,['u'],1,0.6217999000000418,0.2,1,0,FastFast,31,18,Woman,Right,
1,15,1,0.5679367000011553,['n'],1,right,['u'],1,0.2568117999981041,0.2,1,0,FastFast,31,18,Woman,Right,
2,15,1,1.2013766999989457,['c'],1,left,['u'],1,0.18501520000063465,0.4,1,0,FastFast,31,18,Woman,Right,
3,15,1,0.6516029999984312,['n'],1,right,['u'],1,0.21773799999937182,0.2,1,0,FastFast,31,18,Woman,Right,
4,15,1,2.5678208000026643,['c'],0,right,['e'],0,0.6054447999995318,0.1,1,0,FastFast,31,18,Woman,Right,
5,15,1,0.584633099999337,['c'],1,left,['u'],1,0.20779709999987972,0.4,1,0,FastFast,31,18,Woman,Right,
6,15,1,0.566083499998058,['c'],1,left,['u'],1,0.18080960000224877,0.4,1,0,FastFast,31,18,Woman,Right,
7,15,1,0.5178816000006918,['n'],1,right,['u'],1,0.21778899999844725,0.1,1,0,FastFast,31,18,Woman,Right,
8,15,1,1.550949499996932,['n'],0,left,['u'],1,0.21333940000113216,0.1,0,0,FastFast,31,18,Woman,Right,
9,15,1,0.5847985000000335,['c'],1,left,['u'],1,0.24755830000140122,0.2,1,0,FastFast,31,18,Woman,Right,
10,15,1,0.6004637000005459,['c'],1,left,['u'],1,0.23190909999902942,0.4,1,0,FastFast,31,18,Woman,Right,
11,15,1,2.250968999996985,['c'],0,right,['u'],1,0.16684699999677832,0.1,0,0,FastFast,31,18,Woman,Right,
12,15,1,2.168098199999804,['n'],1,right,['u'],1,0.17179609999948298,0.2,1,0,FastFast,31,18,Woman,Right,
13,15,1,2.8177246999985073,['c'],1,left,['u'],1,0.1189927000013995,0.2,1,0,FastFast,31,18,Woman,Right,
14,15,1,2.367448400000285,['c'],0,right,['e'],0,0.18213620000096853,0.4,1,0,FastFast,31,18,Woman,Right,
15,15,1,0.6846777999999176,['c'],1,left,['u'],1,0.21381119999932707,0.4,1,0,FastFast,31,18,Woman,Right,
16,15,1,0.7348371000007319,['c'],1,left,['u'],1,0.09801410000000033,0.2,1,0,FastFast,31,18,Woman,Right,
17,15,1,2.667560499998217,['n'],0,left,['u'],1,0.21365919999880134,0.1,0,0,FastFast,31,18,Woman,Right,
18,15,1,4.016504999999597,['n'],0,left,['e'],0,0.5271834999985003,0.2,1,0,FastFast,31,18,Woman,Right,
19,15,1,0.601496600000246,['n'],1,right,['u'],1,0.1644587999981013,0.4,1,0,FastFast,31,18,Woman,Right,
20,15,1,0.500262900000962,['c'],1,left,['u'],1,0.15616180000142776,0.4,1,0,FastFast,31,18,Woman,Right,
21,15,1,2.451391099999455,['c'],0,right,['u'],1,0.26265110000167624,0.1,0,0,FastFast,31,18,Woman,Right,
22,15,1,0.684304999998858,['c'],1,left,['u'],1,0.14731539999775123,0.4,1,0,FastFast,31,18,Woman,Right,
23,15,1,2.851141600000119,['n'],1,right,['u'],1,0.23805709999942337,0.1,1,0,FastFast,31,18,Woman,Right,
24,15,1,1.2513256999991427,['n'],0,left,['u'],1,0.14802810000037425,0.1,0,0,FastFast,31,18,Woman,Right,
25,15,1,1.451556799998798,['n'],1,right,['u'],1,0.16643889999977546,0.2,1,0,FastFast,31,18,Woman,Right,
26,15,1,2.9827435000006517,['c'],0,right,['u'],1,0.3798654999991413,0.1,0,0,FastFast,31,18,Woman,Right,
27,15,1,0.9510330000011891,['c'],1,left,['u'],1,0.16783469999791123,0.1,1,0,FastFast,31,18,Woman,Right,
28,15,1,2.4505959000016446,['c'],0,right,['u'],1,0.14562900000237278,0.4,0,0,FastFast,31,18,Woman,Right,
29,15,1,1.4179039999980887,['n'],1,right,['u'],1,0.1815150000002177,0.1,1,0,FastFast,31,18,Woman,Right,
30,15,1,0.8676995999994688,['c'],1,left,['u'],1,0.17351760000019567,0.1,1,0,FastFast,31,18,Woman,Right,
31,15,1,1.9338158999998996,['n'],1,right,['u'],1,0.2840204000021913,0.2,1,0,FastFast,31,18,Woman,Right,
32,15,1,0.8676030999995419,['c'],1,left,['u'],1,0.1449533999984851,0.4,1,0,FastFast,31,18,Woman,Right,
33,15,1,2.4012597000000824,['n'],1,right,['u'],1,0.4932399000026635,0.4,1,0,FastFast,31,18,Woman,Right,
34,15,1,0.7337871999989147,['n'],1,right,['u'],1,0.1587256000020716,0.4,1,0,FastFast,31,18,Woman,Right,
35,15,1,0.551118299998052,['c'],1,left,['e'],0,0.2612197999987984,0.4,0,0,FastFast,31,18,Woman,Right,
36,15,1,0.6681209999987914,['c'],1,left,['u'],1,0.21088420000160113,0.1,1,0,FastFast,31,18,Woman,Right,
37,15,1,0.5842824999999721,['c'],1,left,['u'],1,0.1495961000000534,0.4,1,0,FastFast,31,18,Woman,Right,
38,15,1,2.4837285000030533,['n'],1,right,['e'],0,0.7508984999985842,0.2,0,0,FastFast,31,18,Woman,Right,
39,15,1,0.6177254000031098,['c'],1,left,['u'],1,0.23442910000085249,0.2,1,0,FastFast,31,18,Woman,Right,
40,15,1,0.5846458999985771,['c'],0,right,['u'],1,0.12395230000038282,0.1,0,0,FastFast,31,18,Woman,Right,
41,15,1,3.483067299999675,['c'],0,right,['u'],1,0.20725260000108392,0.2,0,0,FastFast,31,18,Woman,Right,
42,15,1,3.2010856000015337,['c'],0,right,['u'],1,0.1689585000021907,0.2,0,0,FastFast,31,18,Woman,Right,
43,15,1,1.800461800001358,['c'],0,right,['u'],1,0.12443390000044019,0.1,0,0,FastFast,31,18,Woman,Right,
44,15,1,1.9850903000005928,['c'],1,left,['u'],1,0.10782589999871561,0.4,1,0,FastFast,31,18,Woman,Right,
45,15,1,3.234029499999451,['n'],1,right,['u'],1,0.13591169999926933,0.1,1,0,FastFast,31,18,Woman,Right,
46,15,1,1.201196699999855,['n'],1,right,['u'],1,0.13311790000079782,0.2,1,0,FastFast,31,18,Woman,Right,
47,15,1,1.484848799998872,['n'],0,left,['u'],1,0.1029889000019466,0.4,0,0,FastFast,31,18,Woman,Right,
48,15,1,3.7842964000010397,['c'],1,left,['e'],0,0.7498619999969378,0.2,0,0,FastFast,31,18,Woman,Right,
49,15,1,0.9009605999999621,['n'],1,right,['u'],1,0.14233919999969658,0.1,1,0,FastFast,31,18,Woman,Right,
50,15,1,1.2011615000010352,['n'],1,right,['u'],1,0.18710649999775342,0.2,1,0,FastFast,31,18,Woman,Right,
51,15,1,0.6510474999995495,['c'],1,left,['u'],1,0.14005600000018603,0.1,1,0,FastFast,31,18,Woman,Right,
52,15,1,1.3343882999979542,['n'],1,right,['u'],1,0.1316493000012997,0.1,1,0,FastFast,31,18,Woman,Right,
53,15,1,0.9510855000007723,['n'],1,right,['u'],1,0.1068215000013879,0.2,1,0,FastFast,31,18,Woman,Right,
54,15,1,0.8176499999972293,['n'],1,right,['u'],1,0.1042068000024301,0.4,1,0,FastFast,31,18,Woman,Right,
55,15,1,2.9171208000007027,['c'],1,left,['u'],1,0.3060987999997451,0.4,1,0,FastFast,31,18,Woman,Right,
56,15,1,1.1833165000025474,['n'],1,right,['u'],1,0.105595800003357,0.2,1,0,FastFast,31,18,Woman,Right,
57,15,1,3.984028400001989,['c'],1,left,['u'],1,0.10404510000080336,0.2,1,0,FastFast,31,18,Woman,Right,
58,15,1,4.26759370000218,['n'],0,left,['e'],0,0.42810480000116513,0.4,1,0,FastFast,31,18,Woman,Right,
59,15,1,1.2847536000008404,['n'],0,left,['u'],1,0.10648840000067139,0.1,0,0,FastFast,31,18,Woman,Right,
