withinblocktrial,block,block_repetition,rt,resp,cor,cresp,conf_press,cj,rtconf,coherence,metacognition,slow_trial,manipulation,sub,age,gender,handedness,
0,1,1,2.1160125999995216,['c'],1,left,none,-99,-99,0.5,-99,0,none,36,18,Woman,Right,
1,1,1,0.9668197999999393,['n'],0,left,none,-99,-99,0.5,-99,0,none,36,18,Woman,Right,
2,1,1,1.316795999999158,['c'],1,left,none,-99,-99,0.5,-99,0,none,36,18,Woman,Right,
3,1,1,1.0673243000001094,['c'],1,left,none,-99,-99,0.5,-99,0,none,36,18,Woman,Right,
4,1,1,1.1166377999998076,['c'],1,left,none,-99,-99,0.5,-99,0,none,36,18,Woman,Right,
5,1,1,0.7513125999994372,['n'],1,right,none,-99,-99,0.5,-99,0,none,36,18,Woman,Right,
6,1,1,1.2336302000003343,['n'],1,right,none,-99,-99,0.5,-99,0,none,36,18,Woman,Right,
7,1,1,0.9843199999995704,['c'],1,left,none,-99,-99,0.5,-99,0,none,36,18,Woman,Right,
8,1,1,0.7003918999998859,['n'],1,right,none,-99,-99,0.5,-99,0,none,36,18,Woman,Right,
9,1,1,0.5842162999997527,['c'],1,left,none,-99,-99,0.5,-99,0,none,36,18,Woman,Right,
10,1,1,0.7176502000002074,['n'],1,right,none,-99,-99,0.5,-99,0,none,36,18,Woman,Right,
11,1,1,0.8672435999997106,['c'],1,left,none,-99,-99,0.5,-99,0,none,36,18,Woman,Right,
12,1,1,1.2338615999997273,['c'],1,left,none,-99,-99,0.5,-99,0,none,36,18,Woman,Right,
13,1,1,0.93497539999953,['c'],0,right,none,-99,-99,0.5,-99,0,none,36,18,Woman,Right,
14,1,1,1.3328567000007752,['n'],1,right,none,-99,-99,0.5,-99,0,none,36,18,Woman,Right,
15,1,1,1.2162408999993204,['n'],1,right,none,-99,-99,0.5,-99,0,none,36,18,Woman,Right,
16,1,1,0.6674554000001081,['n'],1,right,none,-99,-99,0.5,-99,0,none,36,18,Woman,Right,
17,1,1,0.9167851000001974,['n'],1,right,none,-99,-99,0.5,-99,0,none,36,18,Woman,Right,
18,1,1,1.0337068999997427,['n'],0,left,none,-99,-99,0.5,-99,0,none,36,18,Woman,Right,
19,1,1,0.8996855000004871,['n'],1,right,none,-99,-99,0.5,-99,0,none,36,18,Woman,Right,
20,1,1,0.7834676000002219,['c'],1,left,none,-99,-99,0.5,-99,0,none,36,18,Woman,Right,
21,1,1,0.6663067000008596,['n'],1,right,none,-99,-99,0.5,-99,0,none,36,18,Woman,Right,
22,1,1,0.7664974999988772,['n'],1,right,none,-99,-99,0.5,-99,0,none,36,18,Woman,Right,
23,1,1,1.1163092000006145,['c'],1,left,none,-99,-99,0.5,-99,0,none,36,18,Woman,Right,
0,2,1,1.3514893999999913,['c'],1,left,none,-99,-99,0.4,-99,0,none,36,18,Woman,Right,
1,2,1,0.9834769999997661,['n'],1,right,none,-99,-99,0.1,-99,0,none,36,18,Woman,Right,
2,2,1,1.6837223000002268,['n'],0,left,none,-99,-99,0.1,-99,0,none,36,18,Woman,Right,
3,2,1,1.4008543999989342,['n'],0,left,none,-99,-99,0.2,-99,0,none,36,18,Woman,Right,
4,2,1,0.7348722999995516,['c'],1,left,none,-99,-99,0.1,-99,0,none,36,18,Woman,Right,
5,2,1,0.6010265000004438,['n'],1,right,none,-99,-99,0.2,-99,0,none,36,18,Woman,Right,
6,2,1,0.8499955000006594,['c'],0,right,none,-99,-99,0.2,-99,0,none,36,18,Woman,Right,
7,2,1,1.2842087000008178,['n'],0,left,none,-99,-99,0.2,-99,0,none,36,18,Woman,Right,
8,2,1,1.5837198999997781,['c'],0,right,none,-99,-99,0.2,-99,0,none,36,18,Woman,Right,
9,2,1,0.7661227999997209,['n'],1,right,none,-99,-99,0.2,-99,0,none,36,18,Woman,Right,
10,2,1,0.8842189000006329,['n'],0,left,none,-99,-99,0.1,-99,0,none,36,18,Woman,Right,
11,2,1,1.1169908000010764,['n'],1,right,none,-99,-99,0.4,-99,0,none,36,18,Woman,Right,
12,2,1,1.167659900000217,['c'],1,left,none,-99,-99,0.4,-99,0,none,36,18,Woman,Right,
13,2,1,0.8984893999986525,['n'],1,right,none,-99,-99,0.4,-99,0,none,36,18,Woman,Right,
14,2,1,1.9825455999998667,['c'],0,right,none,-99,-99,0.1,-99,0,none,36,18,Woman,Right,
15,2,1,1.6176541999993788,['c'],0,right,none,-99,-99,0.4,-99,0,none,36,18,Woman,Right,
16,2,1,1.6174866999990627,['c'],1,left,none,-99,-99,0.4,-99,0,none,36,18,Woman,Right,
17,2,1,0.9839590999999928,['c'],0,right,none,-99,-99,0.1,-99,0,none,36,18,Woman,Right,
18,2,1,1.6158293000007689,['c'],1,left,none,-99,-99,0.4,-99,0,none,36,18,Woman,Right,
19,2,1,1.7336022999988927,['n'],1,right,none,-99,-99,0.4,-99,0,none,36,18,Woman,Right,
20,2,1,1.6502268000003824,['c'],1,left,none,-99,-99,0.2,-99,0,none,36,18,Woman,Right,
21,2,1,2.2839602999993076,['c'],1,left,none,-99,-99,0.2,-99,0,none,36,18,Woman,Right,
22,2,1,1.9981218999982957,['n'],1,right,none,-99,-99,0.1,-99,0,none,36,18,Woman,Right,
23,2,1,1.7153359000003547,['c'],1,left,none,-99,-99,0.1,-99,0,none,36,18,Woman,Right,
0,3,1,1.584640400000353,['c'],1,left,['e'],1,0.8286981000001106,0.1,1,0,none,36,18,Woman,Right,
1,3,1,1.8343191000003571,['c'],1,left,['e'],1,0.4726931999994122,0.1,1,0,none,36,18,Woman,Right,
2,3,1,2.234516700000313,['c'],1,left,['u'],0,0.4829394999997021,0.2,0,0,none,36,18,Woman,Right,
3,3,1,2.116707299999689,['c'],1,left,['e'],1,0.5463629999994737,0.2,1,0,none,36,18,Woman,Right,
4,3,1,2.517660600000454,['n'],0,left,['u'],0,0.6372707999998966,0.4,1,0,none,36,18,Woman,Right,
5,3,1,2.7169598000000406,['c'],0,right,['u'],0,0.8776592000012897,0.4,1,0,none,36,18,Woman,Right,
6,3,1,2.7508514000001014,['n'],1,right,['u'],0,0.532398600000306,0.2,0,0,none,36,18,Woman,Right,
7,3,1,1.3504946000011842,['c'],1,left,['e'],1,0.46311099999911676,0.2,1,0,none,36,18,Woman,Right,
8,3,1,3.7004070000002685,['c'],1,left,['u'],0,0.46253149999938614,0.4,0,0,none,36,18,Woman,Right,
9,3,1,1.5833634999999049,['n'],1,right,['e'],1,0.3396092000002682,0.4,1,0,none,36,18,Woman,Right,
10,3,1,1.9828849999994418,['c'],0,right,['e'],1,0.5580213000012009,0.4,0,0,none,36,18,Woman,Right,
11,3,1,2.634919099999024,['c'],1,left,['u'],0,0.40413470000021334,0.4,0,0,none,36,18,Woman,Right,
12,3,1,2.4007433999995555,['n'],0,left,['u'],0,0.44256029999996827,0.2,1,0,none,36,18,Woman,Right,
13,3,1,3.649612799999886,['n'],1,right,['u'],0,0.43012979999912204,0.2,0,0,none,36,18,Woman,Right,
14,3,1,3.4171644000016386,['c'],0,right,['u'],0,0.8262448999994376,0.1,1,0,none,36,18,Woman,Right,
15,3,1,3.232779300000402,['c'],0,right,['u'],0,0.3515308999994886,0.1,1,0,none,36,18,Woman,Right,
16,3,1,1.95084610000049,['c'],0,right,['e'],1,0.36127740000119957,0.1,0,0,none,36,18,Woman,Right,
17,3,1,1.7186713999999483,['c'],1,left,['e'],1,0.3968836999993073,0.2,1,0,none,36,18,Woman,Right,
18,3,1,1.1499717000006058,['n'],1,right,['e'],1,0.34183540000049106,0.4,1,0,none,36,18,Woman,Right,
19,3,1,2.5013897999997425,['c'],0,right,['u'],0,0.33042440000099305,0.1,1,0,none,36,18,Woman,Right,
20,3,1,2.217906800000492,['n'],1,right,['u'],0,0.44255560000055993,0.2,0,0,none,36,18,Woman,Right,
21,3,1,1.8179034000004322,['c'],1,left,['e'],1,0.3589085999992676,0.4,1,0,none,36,18,Woman,Right,
22,3,1,3.084418000000369,['c'],1,left,['e'],1,0.8522945999993681,0.1,1,0,none,36,18,Woman,Right,
23,3,1,3.1187995999989653,['n'],1,right,['u'],0,0.7484084999996412,0.1,0,0,none,36,18,Woman,Right,
0,4,1,5.000014600000213,x,-99,right,none,-99,-99,0.4,-99,1,AccFast,36,18,Woman,Right,
1,4,1,2.3172524999990856,['n'],0,left,['e'],1,1.4126065999989805,0.4,0,0,AccFast,36,18,Woman,Right,
2,4,1,4.5665647000005265,['n'],1,right,['e'],1,0.8881931000014447,0.2,1,0,AccFast,36,18,Woman,Right,
3,4,1,3.416169699999955,['c'],1,left,['u'],0,0.6718141000001197,0.4,0,0,AccFast,36,18,Woman,Right,
4,4,1,2.616845299999113,['c'],0,right,['e'],1,0.574102499998844,0.1,0,0,AccFast,36,18,Woman,Right,
5,4,1,3.4669628999999986,['c'],1,left,['e'],1,0.5272796000008384,0.4,1,0,AccFast,36,18,Woman,Right,
6,4,1,3.8521628999988025,['c'],1,left,['e'],1,0.5632764000001771,0.4,1,0,AccFast,36,18,Woman,Right,
7,4,1,1.7340125999999145,['n'],1,right,['e'],1,0.6178655000003346,0.4,1,0,AccFast,36,18,Woman,Right,
8,4,1,5.000041000001147,x,-99,left,none,-99,-99,0.1,-99,1,AccFast,36,18,Woman,Right,
9,4,1,1.882416700000249,['n'],1,right,['u'],0,0.9958683999993809,0.4,0,0,AccFast,36,18,Woman,Right,
10,4,1,2.817542000000685,['n'],1,right,['u'],0,0.5572893999997177,0.1,0,0,AccFast,36,18,Woman,Right,
11,4,1,2.4507664000011573,['n'],0,left,['e'],1,0.4554664999996021,0.2,0,0,AccFast,36,18,Woman,Right,
12,4,1,1.768304100000023,['n'],0,left,['e'],1,0.7053833000009035,0.1,0,0,AccFast,36,18,Woman,Right,
13,4,1,3.017106799999965,['n'],1,right,['e'],1,0.4312592999995104,0.4,1,0,AccFast,36,18,Woman,Right,
14,4,1,4.417874700000539,['n'],0,left,['u'],0,0.8641702999993868,0.1,1,0,AccFast,36,18,Woman,Right,
15,4,1,2.317167799999879,['c'],1,left,['e'],1,0.49925119999898016,0.4,1,0,AccFast,36,18,Woman,Right,
16,4,1,3.5497083000009297,['n'],0,left,['e'],1,0.5803364999992482,0.2,0,0,AccFast,36,18,Woman,Right,
17,4,1,4.316152299999885,['c'],1,left,['u'],0,0.4349511000000348,0.1,0,0,AccFast,36,18,Woman,Right,
18,4,1,2.6176444000011543,['n'],0,left,['e'],1,0.5711120000014489,0.2,0,0,AccFast,36,18,Woman,Right,
19,4,1,2.633829999998852,['n'],1,right,['e'],1,0.47836180000012973,0.1,1,0,AccFast,36,18,Woman,Right,
20,4,1,2.7012713000003714,['n'],0,left,['u'],0,0.6576838000000862,0.1,1,0,AccFast,36,18,Woman,Right,
21,4,1,2.900628200000938,['n'],0,left,['e'],1,0.5662150000007387,0.2,0,0,AccFast,36,18,Woman,Right,
22,4,1,5.016236700001173,x,-99,right,none,-99,-99,0.1,-99,1,AccFast,36,18,Woman,Right,
23,4,1,3.449946300001102,['n'],1,right,['u'],0,0.6267194000010932,0.2,0,0,AccFast,36,18,Woman,Right,
24,4,1,2.6510328999993362,['c'],1,left,['e'],1,0.6583717000012257,0.2,1,0,AccFast,36,18,Woman,Right,
25,4,1,1.8345079999999143,['n'],1,right,['e'],1,0.6737006999992445,0.4,1,0,AccFast,36,18,Woman,Right,
26,4,1,2.217305400001351,['c'],1,left,['e'],1,0.44942970000010973,0.2,1,0,AccFast,36,18,Woman,Right,
27,4,1,1.335116399999606,['n'],1,right,['e'],1,0.5085911999995005,0.4,1,0,AccFast,36,18,Woman,Right,
28,4,1,3.4836013999993156,['c'],1,left,['u'],0,0.911216800001057,0.4,0,0,AccFast,36,18,Woman,Right,
29,4,1,3.1493924999995215,['n'],1,right,['e'],1,0.6079769000007218,0.2,1,0,AccFast,36,18,Woman,Right,
30,4,1,2.617645700000139,['c'],1,left,['e'],1,0.48239420000027167,0.2,1,0,AccFast,36,18,Woman,Right,
31,4,1,2.0994439000005514,['c'],1,left,['e'],1,0.54133389999879,0.2,1,0,AccFast,36,18,Woman,Right,
32,4,1,1.3168301999994583,['n'],1,right,['e'],1,0.4851693999989948,0.4,1,0,AccFast,36,18,Woman,Right,
33,4,1,2.2838665999988734,['c'],1,left,['e'],1,0.4410310999992362,0.1,1,0,AccFast,36,18,Woman,Right,
34,4,1,1.8342527000004338,['c'],1,left,['e'],1,0.35359579999931157,0.4,1,0,AccFast,36,18,Woman,Right,
35,4,1,1.4178358000008302,['n'],1,right,['e'],1,0.38056499999947846,0.2,1,0,AccFast,36,18,Woman,Right,
36,4,1,3.717123600001287,['n'],1,right,['e'],1,0.7791109999998298,0.1,1,0,AccFast,36,18,Woman,Right,
37,4,1,3.1332605999996304,['n'],1,right,['u'],0,0.4334176000011212,0.1,0,0,AccFast,36,18,Woman,Right,
38,4,1,2.499107699999513,['n'],1,right,['e'],1,0.5428573999997752,0.1,1,0,AccFast,36,18,Woman,Right,
39,4,1,2.483034199998656,['n'],1,right,['e'],1,0.7128333000000566,0.4,1,0,AccFast,36,18,Woman,Right,
40,4,1,1.8841327999998612,['n'],1,right,['e'],1,0.3547000999988086,0.2,1,0,AccFast,36,18,Woman,Right,
41,4,1,3.01769940000122,['c'],0,right,['u'],0,0.6223955000004935,0.1,1,0,AccFast,36,18,Woman,Right,
42,4,1,2.7162594000001263,['n'],0,left,['u'],0,0.5244122999993124,0.2,1,0,AccFast,36,18,Woman,Right,
43,4,1,3.2346480999985943,['n'],1,right,['e'],1,0.4405348000000231,0.1,1,0,AccFast,36,18,Woman,Right,
44,4,1,3.500867400000061,['n'],1,right,['u'],0,0.3656824999998207,0.1,0,0,AccFast,36,18,Woman,Right,
45,4,1,3.9331512000007933,['c'],1,left,['u'],0,0.3725338999993255,0.1,0,0,AccFast,36,18,Woman,Right,
46,4,1,3.9675845999990997,['c'],1,left,['u'],0,0.5856438999999227,0.2,0,0,AccFast,36,18,Woman,Right,
47,4,1,2.600614400000268,['n'],1,right,['e'],1,0.4776846000004298,0.2,1,0,AccFast,36,18,Woman,Right,
48,4,1,3.550134099999923,['c'],1,left,['u'],0,0.590606800000387,0.4,0,0,AccFast,36,18,Woman,Right,
49,4,1,1.8838199000001623,['n'],1,right,['e'],1,0.3995503000005556,0.4,1,0,AccFast,36,18,Woman,Right,
50,4,1,2.6173546000009082,['c'],1,left,['e'],1,0.5845808000012767,0.2,1,0,AccFast,36,18,Woman,Right,
51,4,1,2.500697899999068,['c'],1,left,['e'],1,0.4955373000011605,0.4,1,0,AccFast,36,18,Woman,Right,
52,4,1,3.2508715999993,['c'],1,left,['u'],0,0.588401300001351,0.1,0,0,AccFast,36,18,Woman,Right,
53,4,1,3.049613600000157,['c'],1,left,['u'],0,0.7343822000002547,0.1,0,0,AccFast,36,18,Woman,Right,
54,4,1,3.551106599999912,['c'],0,right,['u'],0,0.37324420000004466,0.1,1,0,AccFast,36,18,Woman,Right,
55,4,1,2.8835395999994944,['c'],0,right,['e'],1,0.40549040000041714,0.2,0,0,AccFast,36,18,Woman,Right,
56,4,1,3.4840700999993715,['n'],1,right,['e'],1,0.7167640999996365,0.2,1,0,AccFast,36,18,Woman,Right,
57,4,1,2.5842992999987473,['n'],1,right,['u'],0,0.6833144000011089,0.4,0,0,AccFast,36,18,Woman,Right,
58,4,1,2.016690700000254,['c'],1,left,['e'],1,0.609767699999793,0.4,1,0,AccFast,36,18,Woman,Right,
59,4,1,2.1506756999988283,['n'],1,right,['e'],1,0.42213300000003073,0.2,1,0,AccFast,36,18,Woman,Right,
0,5,1,2.8826404999999795,['n'],0,left,['u'],0,2.943262099999629,0.2,1,0,AccAcc,36,18,Woman,Right,
1,5,1,2.1002148000006855,['n'],0,left,['e'],1,1.865284999999858,0.2,0,0,AccAcc,36,18,Woman,Right,
2,5,1,3.417009599999801,['n'],1,right,['e'],1,2.519552700001441,0.2,1,0,AccAcc,36,18,Woman,Right,
3,5,1,2.799957600000198,['c'],1,left,['e'],1,2.2299927999993088,0.1,1,0,AccAcc,36,18,Woman,Right,
4,5,1,2.8677475999993476,['c'],1,left,['e'],1,0.5892708000010316,0.1,1,0,AccAcc,36,18,Woman,Right,
5,5,1,3.7675075000006473,['n'],0,left,['u'],0,2.7531065000002855,0.1,1,0,AccAcc,36,18,Woman,Right,
6,5,1,4.6839047000012215,['n'],0,left,['u'],0,2.891167800000403,0.2,1,0,AccAcc,36,18,Woman,Right,
7,5,1,3.283026400000381,['n'],0,left,['e'],1,3.0955862999999226,0.1,0,0,AccAcc,36,18,Woman,Right,
8,5,1,3.350253700000394,['n'],0,left,['e'],1,2.7763708000002225,0.4,0,0,AccAcc,36,18,Woman,Right,
9,5,1,3.783680700000332,['n'],1,right,['u'],0,3.124671900000976,0.2,0,0,AccAcc,36,18,Woman,Right,
10,5,1,4.367722400000275,['c'],0,right,['u'],0,2.7164211999988765,0.1,1,0,AccAcc,36,18,Woman,Right,
11,5,1,4.550248999999894,['c'],1,left,['u'],0,2.5568705999994563,0.1,0,0,AccAcc,36,18,Woman,Right,
12,5,1,2.8508469999997033,['c'],1,left,['e'],1,2.3276141000005737,0.4,1,0,AccAcc,36,18,Woman,Right,
13,5,1,4.1321093999995355,['n'],1,right,['u'],0,2.3771316000002116,0.2,0,0,AccAcc,36,18,Woman,Right,
14,5,1,3.4999306999998225,['c'],1,left,['u'],0,2.97674779999943,0.1,0,0,AccAcc,36,18,Woman,Right,
15,5,1,3.2511359000000084,['c'],0,right,['u'],0,2.714871599999242,0.2,1,0,AccAcc,36,18,Woman,Right,
16,5,1,3.284819200000129,['c'],1,left,['e'],1,2.078279499999553,0.1,1,0,AccAcc,36,18,Woman,Right,
17,5,1,2.900798399999985,['c'],0,right,['e'],1,1.9467672999999195,0.1,0,0,AccAcc,36,18,Woman,Right,
18,5,1,3.4342054999997345,['c'],1,left,['u'],0,2.261172300000908,0.1,0,0,AccAcc,36,18,Woman,Right,
19,5,1,3.251207399998748,['n'],1,right,['u'],0,2.6681542999995145,0.4,0,0,AccAcc,36,18,Woman,Right,
20,5,1,3.4841570000007778,['n'],1,right,['u'],0,2.8569874000004347,0.2,0,0,AccAcc,36,18,Woman,Right,
21,5,1,3.4177168999995047,['c'],0,right,['e'],1,2.769404900000154,0.2,0,0,AccAcc,36,18,Woman,Right,
22,5,1,3.400985500000388,['n'],0,left,['u'],0,2.126621699999305,0.1,1,0,AccAcc,36,18,Woman,Right,
23,5,1,3.1848774000009143,['c'],1,left,['u'],0,2.5243379999992612,0.2,0,0,AccAcc,36,18,Woman,Right,
24,5,1,2.617973399999755,['n'],1,right,['e'],1,2.0816949999989447,0.2,1,0,AccAcc,36,18,Woman,Right,
25,5,1,1.6330872000016825,['n'],1,right,['e'],1,1.92087889999857,0.4,1,0,AccAcc,36,18,Woman,Right,
26,5,1,3.1664768000009644,['n'],1,right,['u'],0,2.5512672000004386,0.1,0,0,AccAcc,36,18,Woman,Right,
27,5,1,2.250887899999725,['n'],1,right,['e'],1,2.185735000000932,0.1,1,0,AccAcc,36,18,Woman,Right,
28,5,1,2.6671065999998973,['c'],1,left,['u'],0,2.5704573999992135,0.4,0,0,AccAcc,36,18,Woman,Right,
29,5,1,2.334403900000325,['n'],1,right,['e'],1,2.297195600000123,0.4,1,0,AccAcc,36,18,Woman,Right,
30,5,1,2.799299300000712,['n'],0,left,['u'],0,2.6893461999989086,0.1,1,0,AccAcc,36,18,Woman,Right,
31,5,1,3.6329497000006086,['n'],0,left,['u'],0,2.9990085999997973,0.1,1,0,AccAcc,36,18,Woman,Right,
32,5,1,2.450582099998428,['c'],1,left,['e'],1,2.6391703999997844,0.4,1,0,AccAcc,36,18,Woman,Right,
33,5,1,3.5500209000001632,['c'],1,left,['u'],0,2.93928810000034,0.2,0,0,AccAcc,36,18,Woman,Right,
34,5,1,2.34958750000078,['n'],1,right,['e'],1,1.6753310000003694,0.4,1,0,AccAcc,36,18,Woman,Right,
35,5,1,1.9663605999994616,['n'],1,right,['e'],1,1.148575700000947,0.4,1,0,AccAcc,36,18,Woman,Right,
36,5,1,2.9493438999998034,['n'],1,right,['u'],0,2.4906336999993073,0.4,0,0,AccAcc,36,18,Woman,Right,
37,5,1,3.848749199998565,['n'],0,left,['u'],0,2.3687921000000642,0.2,1,0,AccAcc,36,18,Woman,Right,
38,5,1,3.249418000001242,['c'],0,right,['u'],0,2.627652899998793,0.2,1,0,AccAcc,36,18,Woman,Right,
39,5,1,3.3825908999988314,['c'],0,right,['u'],0,2.7728325000007317,0.2,1,0,AccAcc,36,18,Woman,Right,
40,5,1,3.7327583999995113,['c'],1,left,['u'],0,2.4366479000000254,0.4,0,0,AccAcc,36,18,Woman,Right,
41,5,1,3.266853600000104,['c'],1,left,['e'],1,2.7072473999996873,0.1,1,0,AccAcc,36,18,Woman,Right,
42,5,1,3.1491685999990295,['c'],0,right,['e'],1,2.060372100000677,0.4,0,0,AccAcc,36,18,Woman,Right,
43,5,1,4.19984839999961,['c'],1,left,['u'],0,3.0452681000006123,0.4,0,0,AccAcc,36,18,Woman,Right,
44,5,1,3.368876700000328,['n'],1,right,['e'],1,2.422828600001594,0.2,1,0,AccAcc,36,18,Woman,Right,
45,5,1,2.299251700000241,['n'],1,right,['e'],1,1.374195400001554,0.4,1,0,AccAcc,36,18,Woman,Right,
46,5,1,2.166105800000878,['n'],1,right,['e'],1,1.85900170000059,0.4,1,0,AccAcc,36,18,Woman,Right,
47,5,1,2.7829517999998643,['n'],1,right,['e'],1,2.3799238999999943,0.1,1,0,AccAcc,36,18,Woman,Right,
48,5,1,2.01779660000102,['n'],1,right,['e'],1,1.5503637000001618,0.4,1,0,AccAcc,36,18,Woman,Right,
49,5,1,3.1323904000000766,['n'],0,left,['u'],0,2.3584382999997615,0.1,1,0,AccAcc,36,18,Woman,Right,
50,5,1,3.0506731000004947,['n'],0,left,['u'],0,2.0324817999990046,0.4,1,0,AccAcc,36,18,Woman,Right,
51,5,1,3.9001829999997426,['n'],0,left,['u'],0,1.3820759000009275,0.4,1,0,AccAcc,36,18,Woman,Right,
52,5,1,2.9997768000012,['n'],0,left,['e'],1,2.0580090999992535,0.2,0,0,AccAcc,36,18,Woman,Right,
53,5,1,3.283410600000934,['n'],1,right,['u'],0,2.72748650000176,0.1,0,0,AccAcc,36,18,Woman,Right,
54,5,1,2.782841099999132,['c'],1,left,['u'],0,2.1900301999994554,0.4,0,0,AccAcc,36,18,Woman,Right,
55,5,1,2.5668071000000054,['n'],1,right,['e'],1,1.730539600001066,0.1,1,0,AccAcc,36,18,Woman,Right,
56,5,1,2.4847375999997894,['n'],1,right,['e'],1,1.8689147000004596,0.2,1,0,AccAcc,36,18,Woman,Right,
57,5,1,2.983499699999811,['n'],1,right,['e'],1,1.7897197000002052,0.2,1,0,AccAcc,36,18,Woman,Right,
58,5,1,3.2844624999997905,['n'],1,right,['u'],0,1.9890997999991669,0.2,0,0,AccAcc,36,18,Woman,Right,
59,5,1,3.233531800000492,['c'],1,left,['e'],1,2.0556856999992306,0.4,1,0,AccAcc,36,18,Woman,Right,
0,6,1,2.050392400000419,['n'],1,right,['e'],1,4.080418699999427,0.4,1,0,FastAcc,36,18,Woman,Right,
1,6,1,1.0172287000004872,['c'],1,left,['u'],0,2.6631217999984074,0.2,0,0,FastAcc,36,18,Woman,Right,
2,6,1,1.0843545999996422,['c'],0,right,['e'],1,1.7628542999991623,0.2,0,0,FastAcc,36,18,Woman,Right,
3,6,1,1.1001804000006814,['c'],1,left,['e'],1,1.3465856999991956,0.4,1,0,FastAcc,36,18,Woman,Right,
4,6,1,1.4333957999988343,['c'],1,left,['e'],1,1.0297736000011355,0.2,1,0,FastAcc,36,18,Woman,Right,
5,6,1,1.1835460000002058,['n'],1,right,['e'],1,1.5196796999989601,0.4,1,0,FastAcc,36,18,Woman,Right,
6,6,1,1.534556699998575,['c'],1,left,['e'],1,2.1049877000004926,0.4,1,0,FastAcc,36,18,Woman,Right,
7,6,1,1.2683527000008326,['n'],0,left,['u'],0,2.9478612000002613,0.1,1,0,FastAcc,36,18,Woman,Right,
8,6,1,0.9508860999994795,['c'],1,left,['e'],1,1.2905002999996213,0.2,1,0,FastAcc,36,18,Woman,Right,
9,6,1,0.7179259000004095,['c'],1,left,['u'],0,2.4610145000006014,0.2,0,0,FastAcc,36,18,Woman,Right,
10,6,1,0.8345513999993273,['n'],1,right,['e'],1,1.5963066000003892,0.1,1,0,FastAcc,36,18,Woman,Right,
11,6,1,0.9339639000008901,['n'],1,right,['u'],0,2.2973493999998027,0.4,0,0,FastAcc,36,18,Woman,Right,
12,6,1,0.9503459000006842,['n'],1,right,['e'],1,0.8583299999991141,0.4,1,0,FastAcc,36,18,Woman,Right,
13,6,1,1.5171057999996265,['c'],1,left,['u'],0,1.5336996000005456,0.4,0,0,FastAcc,36,18,Woman,Right,
14,6,1,1.151208700001007,['n'],1,right,['u'],0,2.0367315000003146,0.1,0,0,FastAcc,36,18,Woman,Right,
15,6,1,1.650820400000157,['c'],1,left,['u'],0,1.8761479999993753,0.2,0,0,FastAcc,36,18,Woman,Right,
16,6,1,2.1014418999984628,['c'],1,left,['u'],0,1.8646828000000824,0.4,0,0,FastAcc,36,18,Woman,Right,
17,6,1,0.717875099999219,['n'],0,left,['e'],1,1.507144100000005,0.4,0,0,FastAcc,36,18,Woman,Right,
18,6,1,1.867127800000162,['n'],1,right,['u'],0,0.991094000000885,0.1,0,0,FastAcc,36,18,Woman,Right,
19,6,1,1.185098600000856,['n'],0,left,['e'],1,1.691035699999702,0.2,0,0,FastAcc,36,18,Woman,Right,
20,6,1,1.5846443000009458,['n'],1,right,['u'],0,1.370657100000244,0.1,0,0,FastAcc,36,18,Woman,Right,
21,6,1,1.5166375000007974,['n'],0,left,['u'],0,1.9791963000006945,0.1,1,0,FastAcc,36,18,Woman,Right,
22,6,1,0.9844142000001739,['n'],1,right,['e'],1,1.270979200000511,0.4,1,0,FastAcc,36,18,Woman,Right,
23,6,1,1.4343972000006033,['n'],1,right,['e'],1,1.5170283999996172,0.4,1,0,FastAcc,36,18,Woman,Right,
24,6,1,1.1510576000000583,['n'],1,right,['e'],1,1.2852705999994214,0.2,1,0,FastAcc,36,18,Woman,Right,
25,6,1,1.6824909999995725,['c'],1,left,['u'],0,1.3137679999999818,0.1,0,0,FastAcc,36,18,Woman,Right,
26,6,1,0.7347641999986081,['n'],0,left,['e'],1,1.168959899998299,0.2,0,0,FastAcc,36,18,Woman,Right,
27,6,1,0.6829640000014479,['c'],0,right,['u'],0,1.6424492999994982,0.1,1,0,FastAcc,36,18,Woman,Right,
28,6,1,0.6499624000007316,['n'],1,right,['e'],1,1.0410852000004525,0.4,1,0,FastAcc,36,18,Woman,Right,
29,6,1,1.0334898000000976,['c'],0,right,['u'],0,1.1848231999993004,0.2,1,0,FastAcc,36,18,Woman,Right,
30,6,1,0.8177009999999427,['n'],0,left,['u'],0,2.738696499998696,0.4,1,0,FastAcc,36,18,Woman,Right,
31,6,1,1.4513115999998263,['n'],0,left,['u'],0,2.6378655999997136,0.1,1,0,FastAcc,36,18,Woman,Right,
32,6,1,0.850121699999363,['n'],1,right,['e'],1,0.9017396999988705,0.4,1,0,FastAcc,36,18,Woman,Right,
33,6,1,1.601133199999822,['c'],0,right,['u'],0,1.5394431999993685,0.1,1,0,FastAcc,36,18,Woman,Right,
34,6,1,0.9832637999988947,['n'],1,right,['e'],1,1.4901078000002599,0.1,1,0,FastAcc,36,18,Woman,Right,
35,6,1,0.9340441000003921,['c'],1,left,['u'],0,1.9232838999996602,0.1,0,0,FastAcc,36,18,Woman,Right,
36,6,1,1.6010411999995995,['c'],1,left,['u'],0,2.00912789999893,0.4,0,0,FastAcc,36,18,Woman,Right,
37,6,1,2.134024599999975,['n'],1,right,['u'],0,1.7825156999988394,0.1,0,0,FastAcc,36,18,Woman,Right,
38,6,1,1.168174700000236,['n'],1,right,['u'],0,2.3237277999996877,0.2,0,0,FastAcc,36,18,Woman,Right,
39,6,1,2.500991200000499,['n'],1,right,['u'],0,1.557628599999589,0.2,0,0,FastAcc,36,18,Woman,Right,
40,6,1,0.983311699999831,['n'],0,left,['e'],1,1.346566599999278,0.2,0,0,FastAcc,36,18,Woman,Right,
41,6,1,1.5489924000012252,['n'],0,left,['u'],0,1.5378376999997272,0.2,1,0,FastAcc,36,18,Woman,Right,
42,6,1,2.417725100000098,['c'],1,left,['u'],0,1.7812697999997908,0.2,0,0,FastAcc,36,18,Woman,Right,
43,6,1,2.433774099999937,['c'],1,left,['u'],0,1.5515154999993683,0.1,0,0,FastAcc,36,18,Woman,Right,
44,6,1,0.9665602000004583,['n'],1,right,['e'],1,1.2611120000001392,0.2,1,0,FastAcc,36,18,Woman,Right,
45,6,1,1.583659699999771,['c'],1,left,['e'],1,1.7741046999999526,0.1,1,0,FastAcc,36,18,Woman,Right,
46,6,1,0.684556899999734,['n'],1,right,['e'],1,1.6946599000002607,0.2,1,0,FastAcc,36,18,Woman,Right,
47,6,1,2.5173842000003788,['c'],0,right,['u'],0,1.4493179000000964,0.1,1,0,FastAcc,36,18,Woman,Right,
48,6,1,2.265618400000676,['n'],0,left,['u'],0,1.6078149999993911,0.2,1,0,FastAcc,36,18,Woman,Right,
49,6,1,2.051521200000934,['n'],0,left,['e'],1,1.0638307999997778,0.1,0,0,FastAcc,36,18,Woman,Right,
50,6,1,2.415983500000948,['n'],1,right,['e'],1,0.959324800000104,0.4,1,0,FastAcc,36,18,Woman,Right,
51,6,1,1.5006268000015552,['n'],1,right,['e'],1,1.6314796000006027,0.4,1,0,FastAcc,36,18,Woman,Right,
52,6,1,2.800548399998661,['n'],0,left,['u'],0,1.4570366999996622,0.4,1,0,FastAcc,36,18,Woman,Right,
53,6,1,1.0182289999993372,['n'],1,right,['e'],1,1.4406195000010484,0.4,1,0,FastAcc,36,18,Woman,Right,
54,6,1,2.2497731000003114,['n'],0,left,['e'],1,1.5685453999994934,0.2,0,0,FastAcc,36,18,Woman,Right,
55,6,1,1.1505632000007608,['n'],1,right,['e'],1,1.9740350000010949,0.1,1,0,FastAcc,36,18,Woman,Right,
56,6,1,0.8347926999995252,['n'],1,right,['e'],1,1.8962746000015613,0.4,1,0,FastAcc,36,18,Woman,Right,
57,6,1,0.7339517999989766,['n'],0,left,['e'],1,2.0500413999998273,0.1,0,0,FastAcc,36,18,Woman,Right,
58,6,1,1.6501828000000387,['c'],0,right,['u'],0,1.791985099998783,0.1,1,0,FastAcc,36,18,Woman,Right,
59,6,1,1.9333537000002252,['n'],0,left,['u'],0,1.9819566999995004,0.2,1,0,FastAcc,36,18,Woman,Right,
0,7,1,1.3499995000001945,['c'],0,right,['u'],0,2.043061200000011,0.1,1,0,FastFast,36,18,Woman,Right,
1,7,1,0.7340709000000061,['c'],1,left,['e'],1,0.6224791000004188,0.1,1,0,FastFast,36,18,Woman,Right,
2,7,1,0.6666341999989527,['n'],1,right,['u'],0,0.5104210999998031,0.2,0,0,FastFast,36,18,Woman,Right,
3,7,1,0.667954099999406,['c'],1,left,['e'],1,0.4501834000002418,0.4,1,0,FastFast,36,18,Woman,Right,
4,7,1,1.016624199999569,['n'],1,right,['u'],0,0.9537949999994453,0.2,0,0,FastFast,36,18,Woman,Right,
5,7,1,0.6348892000005435,['c'],1,left,['e'],1,0.49212989999978163,0.4,1,0,FastFast,36,18,Woman,Right,
6,7,1,0.917995300000257,['n'],0,left,['u'],0,0.6464414999991277,0.1,1,0,FastFast,36,18,Woman,Right,
7,7,1,1.1154999999998836,['c'],0,right,['e'],1,0.48352540000087174,0.4,0,0,FastFast,36,18,Woman,Right,
8,7,1,0.7339556000006269,['c'],1,left,['u'],0,0.9799306000004435,0.2,0,0,FastFast,36,18,Woman,Right,
9,7,1,0.7010274000003847,['c'],0,right,['e'],1,0.8669953000007808,0.2,0,0,FastFast,36,18,Woman,Right,
10,7,1,1.2185605999984546,['c'],1,left,['u'],0,1.1541336999998748,0.4,0,0,FastFast,36,18,Woman,Right,
11,7,1,0.9179266000010102,['c'],0,right,['e'],1,0.6418456999999762,0.1,0,0,FastFast,36,18,Woman,Right,
12,7,1,1.9004864999988058,['n'],1,right,['u'],0,0.830797700000403,0.2,0,0,FastFast,36,18,Woman,Right,
13,7,1,1.7669024000006175,['c'],0,right,['u'],0,0.5213003999997454,0.4,1,0,FastFast,36,18,Woman,Right,
14,7,1,1.0342526000004,['n'],1,right,['e'],1,0.36570600000050035,0.4,1,0,FastFast,36,18,Woman,Right,
15,7,1,1.25176300000021,['c'],0,right,['u'],0,0.8953480999989551,0.1,1,0,FastFast,36,18,Woman,Right,
16,7,1,1.483989099999235,['c'],1,left,['e'],1,0.32260110000061104,0.2,1,0,FastFast,36,18,Woman,Right,
17,7,1,0.9007897000010416,['n'],1,right,['e'],1,0.30808729999989737,0.4,1,0,FastFast,36,18,Woman,Right,
18,7,1,1.5175574999993842,['c'],0,right,['u'],0,0.7019228999997722,0.1,1,0,FastFast,36,18,Woman,Right,
19,7,1,1.6678651000001992,['c'],0,right,['e'],1,0.6896240000005491,0.4,0,0,FastFast,36,18,Woman,Right,
20,7,1,1.5340689000004204,['c'],1,left,['u'],0,0.4760548000012932,0.2,0,0,FastFast,36,18,Woman,Right,
21,7,1,1.8510653000012098,['c'],1,left,['u'],0,0.6730191999995441,0.2,0,0,FastFast,36,18,Woman,Right,
22,7,1,1.4169505999998364,['n'],1,right,['e'],1,0.44824490000064543,0.1,1,0,FastFast,36,18,Woman,Right,
23,7,1,1.9174831000000268,['c'],1,left,['u'],0,0.5007463000001735,0.2,0,0,FastFast,36,18,Woman,Right,
24,7,1,2.7661527000000206,['n'],0,left,['u'],0,0.7885771000001114,0.2,1,0,FastFast,36,18,Woman,Right,
25,7,1,0.7178853999994317,['n'],1,right,['e'],1,0.31400290000055975,0.4,1,0,FastFast,36,18,Woman,Right,
26,7,1,1.634731500000271,['c'],1,left,['u'],0,0.3034139999999752,0.2,0,0,FastFast,36,18,Woman,Right,
27,7,1,1.4853813999998238,['n'],0,left,['u'],0,0.3457928999996511,0.4,1,0,FastFast,36,18,Woman,Right,
28,7,1,0.9512644999995246,['n'],1,right,['e'],1,0.2639835999998468,0.1,1,0,FastFast,36,18,Woman,Right,
29,7,1,1.4344299999993382,['n'],0,left,['u'],0,0.34236170000076527,0.2,1,0,FastFast,36,18,Woman,Right,
30,7,1,1.0841891000000032,['n'],0,left,['e'],1,0.3198554000009608,0.4,0,0,FastFast,36,18,Woman,Right,
31,7,1,1.1345740999986447,['n'],0,left,['u'],0,0.4245154999989609,0.2,1,0,FastFast,36,18,Woman,Right,
32,7,1,0.7842454999990878,['n'],0,left,['e'],1,0.2826505000011821,0.4,0,0,FastFast,36,18,Woman,Right,
33,7,1,1.1678075999989233,['n'],1,right,['u'],0,0.4512037999993481,0.2,0,0,FastFast,36,18,Woman,Right,
34,7,1,1.1345175000005838,['c'],1,left,['e'],1,0.29383919999963837,0.4,1,0,FastFast,36,18,Woman,Right,
35,7,1,0.9180512000002636,['n'],1,right,['u'],0,0.6961719999999332,0.2,0,0,FastFast,36,18,Woman,Right,
36,7,1,1.3174026999986381,['n'],1,right,['u'],0,0.37878169999930833,0.2,0,0,FastFast,36,18,Woman,Right,
37,7,1,0.717750599998908,['n'],1,right,['e'],1,0.3051456000011967,0.4,1,0,FastFast,36,18,Woman,Right,
38,7,1,1.1846721000001708,['n'],0,left,['u'],0,0.4561023000005662,0.2,1,0,FastFast,36,18,Woman,Right,
39,7,1,1.4839370000008785,['c'],0,right,['u'],0,0.31728089999887743,0.1,1,0,FastFast,36,18,Woman,Right,
40,7,1,1.0011023999995814,['n'],0,left,['e'],1,0.3307853999995132,0.1,0,0,FastFast,36,18,Woman,Right,
41,7,1,1.2334136999998009,['n'],0,left,['e'],1,0.2224750999994285,0.2,0,0,FastFast,36,18,Woman,Right,
42,7,1,0.9176265000005515,['n'],0,left,['u'],0,0.29156049999983225,0.1,1,0,FastFast,36,18,Woman,Right,
43,7,1,1.1014126999998552,['n'],1,right,['e'],1,0.35059259999979986,0.4,1,0,FastFast,36,18,Woman,Right,
44,7,1,1.4993056999992405,['c'],0,right,['u'],0,0.3595232000006945,0.2,1,0,FastFast,36,18,Woman,Right,
45,7,1,0.8345360999992408,['n'],1,right,['e'],1,0.28240440000081435,0.4,1,0,FastFast,36,18,Woman,Right,
46,7,1,1.1346647999998822,['n'],1,right,['e'],1,0.2754672999999457,0.4,1,0,FastFast,36,18,Woman,Right,
47,7,1,0.8846622000000934,['n'],0,left,['e'],1,0.26375999999982014,0.4,0,0,FastFast,36,18,Woman,Right,
48,7,1,1.2666520000002492,['n'],0,left,['e'],1,0.2856363999999303,0.1,0,0,FastFast,36,18,Woman,Right,
49,7,1,0.9335690999996586,['c'],1,left,['e'],1,0.255086899998787,0.4,1,0,FastFast,36,18,Woman,Right,
50,7,1,1.401630499998646,['n'],0,left,['e'],1,0.2227104000012332,0.1,0,0,FastFast,36,18,Woman,Right,
51,7,1,0.8323689999997441,['c'],1,left,['e'],1,0.23265749999882246,0.1,1,0,FastFast,36,18,Woman,Right,
52,7,1,0.8496580999999424,['n'],1,right,['e'],1,0.2867688000005728,0.4,1,0,FastFast,36,18,Woman,Right,
53,7,1,0.716880999998466,['c'],0,right,['e'],1,0.2646703999998863,0.1,0,0,FastFast,36,18,Woman,Right,
54,7,1,1.9182868999996572,['n'],1,right,['e'],1,0.5475231000000349,0.1,1,0,FastFast,36,18,Woman,Right,
55,7,1,1.0684079000002384,['c'],1,left,['e'],1,0.1813624999995227,0.1,1,0,FastFast,36,18,Woman,Right,
56,7,1,1.2328975000000355,['n'],1,right,['u'],0,0.3203209000002971,0.2,0,0,FastFast,36,18,Woman,Right,
57,7,1,0.7002253999999084,['c'],0,right,['e'],1,0.2645874999998341,0.1,0,0,FastFast,36,18,Woman,Right,
58,7,1,1.3664526000011392,['n'],0,left,['u'],0,0.29839410000022326,0.1,1,0,FastFast,36,18,Woman,Right,
59,7,1,0.617922900000849,['c'],1,left,['e'],1,0.2630085999990115,0.1,1,0,FastFast,36,18,Woman,Right,
0,8,1,2.1819323999989138,['n'],0,left,['e'],1,0.30908830000043963,0.2,0,0,AccFast,36,18,Woman,Right,
1,8,1,1.1176360000008572,['c'],0,right,['e'],1,0.31749889999991865,0.2,0,0,AccFast,36,18,Woman,Right,
2,8,1,1.8189821999985725,['c'],0,right,['e'],1,0.2677027999998245,0.2,0,0,AccFast,36,18,Woman,Right,
3,8,1,0.9012695999990683,['n'],1,right,['e'],1,0.30226720000064233,0.4,1,0,AccFast,36,18,Woman,Right,
4,8,1,1.417212099999233,['c'],0,right,['e'],1,0.2201774999994086,0.1,0,0,AccFast,36,18,Woman,Right,
5,8,1,1.0994125000015629,['c'],1,left,['e'],1,0.3147589000000153,0.4,1,0,AccFast,36,18,Woman,Right,
6,8,1,1.8338442000003852,['c'],0,right,['e'],1,0.4542798999991646,0.1,0,0,AccFast,36,18,Woman,Right,
7,8,1,2.099251399999048,['c'],0,right,['u'],0,0.3238805000000866,0.2,1,0,AccFast,36,18,Woman,Right,
8,8,1,1.0339156999998522,['c'],1,left,['e'],1,0.5439248999991833,0.4,1,0,AccFast,36,18,Woman,Right,
9,8,1,1.216358499999842,['n'],0,left,['e'],1,0.2844882999997935,0.4,0,0,AccFast,36,18,Woman,Right,
10,8,1,1.8660042000010435,['n'],1,right,['u'],0,0.4246889000005467,0.4,0,0,AccFast,36,18,Woman,Right,
11,8,1,1.2013656999988598,['c'],1,left,['e'],1,0.34674400000039896,0.2,1,0,AccFast,36,18,Woman,Right,
12,8,1,1.5181671999998798,['c'],0,right,['e'],1,0.33709819999967294,0.4,0,0,AccFast,36,18,Woman,Right,
13,8,1,1.217502700001205,['n'],1,right,['e'],1,0.3413749999999709,0.2,1,0,AccFast,36,18,Woman,Right,
14,8,1,1.3350081000007776,['c'],1,left,['e'],1,0.34097810000093887,0.2,1,0,AccFast,36,18,Woman,Right,
15,8,1,1.0828998999986652,['c'],1,left,['e'],1,0.36745999999948253,0.4,1,0,AccFast,36,18,Woman,Right,
16,8,1,1.3513272000000143,['c'],1,left,['e'],1,0.3964276999995491,0.4,1,0,AccFast,36,18,Woman,Right,
17,8,1,1.1832836000012321,['c'],1,left,['e'],1,0.3513130999999703,0.2,1,0,AccFast,36,18,Woman,Right,
18,8,1,1.485097600001609,['c'],1,left,['u'],0,0.4084681999993336,0.2,0,0,AccFast,36,18,Woman,Right,
19,8,1,1.1020766000001458,['c'],0,right,['e'],1,0.3188449000008404,0.1,0,0,AccFast,36,18,Woman,Right,
20,8,1,1.4676755000000412,['c'],1,left,['e'],1,0.3139661999994132,0.1,1,0,AccFast,36,18,Woman,Right,
21,8,1,1.7338758999994752,['c'],1,left,['e'],1,0.6343457000002672,0.4,1,0,AccFast,36,18,Woman,Right,
22,8,1,2.000959500001045,['c'],1,left,['u'],0,0.7237181999989843,0.4,0,0,AccFast,36,18,Woman,Right,
23,8,1,1.9678967999989254,['c'],0,right,['e'],1,0.45855479999954696,0.1,0,0,AccFast,36,18,Woman,Right,
24,8,1,1.9501337000001513,['n'],1,right,['u'],0,0.41312720000132686,0.2,0,0,AccFast,36,18,Woman,Right,
25,8,1,1.4174102999986644,['n'],1,right,['e'],1,0.3739322000001266,0.2,1,0,AccFast,36,18,Woman,Right,
26,8,1,1.2675500000004831,['n'],1,right,['e'],1,0.3432905000008759,0.1,1,0,AccFast,36,18,Woman,Right,
27,8,1,1.8343512999999803,['c'],1,left,['u'],0,0.33886559999882593,0.4,0,0,AccFast,36,18,Woman,Right,
28,8,1,1.684818900001119,['n'],1,right,['u'],0,0.9165614000012283,0.2,0,0,AccFast,36,18,Woman,Right,
29,8,1,1.1511399999999412,['n'],0,left,['e'],1,0.5324660999995103,0.1,0,0,AccFast,36,18,Woman,Right,
30,8,1,1.3663878000006662,['n'],1,right,['e'],1,0.44340120000015304,0.2,1,0,AccFast,36,18,Woman,Right,
31,8,1,2.3666345000001456,['n'],0,left,['e'],1,0.493270200000552,0.1,0,0,AccFast,36,18,Woman,Right,
32,8,1,2.0676034999996773,['n'],0,left,['e'],1,0.34565199999997276,0.1,0,0,AccFast,36,18,Woman,Right,
33,8,1,1.3838770000002114,['n'],1,right,['e'],1,0.4388223999994807,0.2,1,0,AccFast,36,18,Woman,Right,
34,8,1,2.367470900000626,['c'],1,left,['u'],0,0.36132289999841305,0.4,0,0,AccFast,36,18,Woman,Right,
35,8,1,2.3510456000003614,['n'],1,right,['u'],0,0.399801400000797,0.1,0,0,AccFast,36,18,Woman,Right,
36,8,1,2.2176627999997436,['n'],0,left,['u'],0,0.39433269999972254,0.1,1,0,AccFast,36,18,Woman,Right,
37,8,1,1.6165415000014036,['n'],1,right,['e'],1,0.3486336999994819,0.4,1,0,AccFast,36,18,Woman,Right,
38,8,1,1.667130100000577,['n'],0,left,['e'],1,0.4624377000000095,0.1,0,0,AccFast,36,18,Woman,Right,
39,8,1,1.7011333000009472,['n'],1,right,['e'],1,0.3935827999994217,0.4,1,0,AccFast,36,18,Woman,Right,
40,8,1,1.9169249000005948,['c'],1,left,['u'],0,0.36776129999998375,0.4,0,0,AccFast,36,18,Woman,Right,
41,8,1,1.2849974000000657,['n'],1,right,['e'],1,0.3523387000004732,0.1,1,0,AccFast,36,18,Woman,Right,
42,8,1,1.5678499999994528,['c'],1,left,['e'],1,0.37506089999988035,0.4,1,0,AccFast,36,18,Woman,Right,
43,8,1,1.751256600000488,['c'],0,right,['u'],0,0.29196460000093793,0.1,1,0,AccFast,36,18,Woman,Right,
44,8,1,1.668345899999622,['n'],0,left,['e'],1,0.3119910000004893,0.2,0,0,AccFast,36,18,Woman,Right,
45,8,1,1.784239799999341,['n'],0,left,['u'],0,0.4064882000002399,0.1,1,0,AccFast,36,18,Woman,Right,
46,8,1,1.7509788000006665,['n'],1,right,['u'],0,0.4989574999999604,0.4,0,0,AccFast,36,18,Woman,Right,
47,8,1,2.0841870000003837,['c'],0,right,['u'],0,0.2540382999995927,0.2,1,0,AccFast,36,18,Woman,Right,
48,8,1,1.8506068999995477,['n'],1,right,['e'],1,0.3485653000007005,0.2,1,0,AccFast,36,18,Woman,Right,
49,8,1,2.066654500000368,['c'],1,left,['u'],0,0.4304745000008552,0.1,0,0,AccFast,36,18,Woman,Right,
50,8,1,2.0331365000001824,['c'],0,right,['u'],0,0.3020269999997254,0.1,1,0,AccFast,36,18,Woman,Right,
51,8,1,2.3344417000007525,['c'],1,left,['u'],0,0.5673241999993479,0.2,0,0,AccFast,36,18,Woman,Right,
52,8,1,1.5166059999992285,['n'],1,right,['e'],1,0.2789262000005692,0.1,1,0,AccFast,36,18,Woman,Right,
53,8,1,1.5504485000001296,['c'],1,left,['e'],1,0.3193983000001026,0.4,1,0,AccFast,36,18,Woman,Right,
54,8,1,1.866983200001414,['n'],0,left,['e'],1,0.2826125999999931,0.2,0,0,AccFast,36,18,Woman,Right,
55,8,1,1.3332301000009465,['n'],1,right,['e'],1,0.34819319999951404,0.4,1,0,AccFast,36,18,Woman,Right,
56,8,1,1.98360810000122,['n'],0,left,['e'],1,0.2573437000010017,0.1,0,0,AccFast,36,18,Woman,Right,
57,8,1,1.4496565999997983,['n'],0,left,['e'],1,0.27219610000065586,0.1,0,0,AccFast,36,18,Woman,Right,
58,8,1,2.134184800001094,['n'],1,right,['u'],0,0.25800060000074154,0.4,0,0,AccFast,36,18,Woman,Right,
59,8,1,1.6847080999996251,['c'],0,right,['u'],0,0.24704689999998664,0.2,1,0,AccFast,36,18,Woman,Right,
0,9,1,1.5507889000000432,['n'],0,left,['u'],0,1.6310238999994908,0.2,1,0,AccAcc,36,18,Woman,Right,
1,9,1,1.7012254000001121,['n'],0,left,['e'],1,1.5803188000008959,0.1,0,0,AccAcc,36,18,Woman,Right,
2,9,1,2.017213000000993,['c'],1,left,['e'],1,1.3268840000000637,0.2,1,0,AccAcc,36,18,Woman,Right,
3,9,1,1.5675386000002618,['n'],1,right,['e'],1,1.4861331000010978,0.4,1,0,AccAcc,36,18,Woman,Right,
4,9,1,1.6345782999997027,['n'],1,right,['e'],1,1.7159673000005569,0.4,1,0,AccAcc,36,18,Woman,Right,
5,9,1,1.766222000000198,['n'],0,left,['u'],0,1.947406299999784,0.1,1,0,AccAcc,36,18,Woman,Right,
6,9,1,1.7502504999993107,['n'],0,left,['e'],1,1.8343473999993876,0.1,0,0,AccAcc,36,18,Woman,Right,
7,9,1,1.91707789999964,['c'],1,left,['u'],0,2.2464614999989863,0.2,0,0,AccAcc,36,18,Woman,Right,
8,9,1,1.7337881999992533,['n'],1,right,['e'],1,1.6100824999994074,0.4,1,0,AccAcc,36,18,Woman,Right,
9,9,1,1.5680773999993107,['n'],1,right,['e'],1,1.629764699999214,0.2,1,0,AccAcc,36,18,Woman,Right,
10,9,1,1.7844313999994483,['n'],1,right,['e'],1,1.095478400000502,0.2,1,0,AccAcc,36,18,Woman,Right,
11,9,1,1.801095599999826,['n'],0,left,['u'],0,1.909937099999297,0.1,1,0,AccAcc,36,18,Woman,Right,
12,9,1,1.5169012999995175,['c'],0,right,['u'],0,1.0080131999984587,0.1,1,0,AccAcc,36,18,Woman,Right,
13,9,1,1.5007249999998749,['c'],1,left,['e'],1,1.9503747999988263,0.1,1,0,AccAcc,36,18,Woman,Right,
14,9,1,1.9335824999998295,['n'],1,right,['u'],0,2.1975826999987476,0.4,0,0,AccAcc,36,18,Woman,Right,
15,9,1,1.6170913000005385,['c'],1,left,['e'],1,1.5517190999999002,0.4,1,0,AccAcc,36,18,Woman,Right,
16,9,1,1.9995925000002899,['c'],1,left,['e'],1,1.8133503000008204,0.4,1,0,AccAcc,36,18,Woman,Right,
17,9,1,2.417425900001035,['c'],1,left,['e'],1,1.5174718000016583,0.2,1,0,AccAcc,36,18,Woman,Right,
18,9,1,2.400799000000916,['c'],1,left,['u'],0,1.6515051999995194,0.2,0,0,AccAcc,36,18,Woman,Right,
19,9,1,2.067610500000228,['c'],1,left,['e'],1,1.8093442999997933,0.4,1,0,AccAcc,36,18,Woman,Right,
20,9,1,2.0825838999990083,['n'],1,right,['u'],0,1.9780166000000463,0.1,0,0,AccAcc,36,18,Woman,Right,
21,9,1,2.417713200000435,['n'],1,right,['u'],0,1.7079300000004878,0.2,0,0,AccAcc,36,18,Woman,Right,
22,9,1,1.7675478999990446,['n'],1,right,['u'],0,2.7732479000005696,0.4,0,0,AccAcc,36,18,Woman,Right,
23,9,1,2.249859200001083,['n'],1,right,['e'],1,1.694608599998901,0.2,1,0,AccAcc,36,18,Woman,Right,
24,9,1,1.650862299999062,['n'],1,right,['e'],1,1.1152053000005253,0.1,1,0,AccAcc,36,18,Woman,Right,
25,9,1,2.4326612999993813,['n'],1,right,['e'],1,2.495906999998624,0.2,1,0,AccAcc,36,18,Woman,Right,
26,9,1,3.3176342000006116,['c'],1,left,['u'],0,2.16984820000107,0.1,0,0,AccAcc,36,18,Woman,Right,
27,9,1,2.917667600000641,['n'],0,left,['u'],0,1.5853335000010702,0.2,1,0,AccAcc,36,18,Woman,Right,
28,9,1,2.5671937000006437,['n'],0,left,['u'],0,2.1582146999990073,0.2,1,0,AccAcc,36,18,Woman,Right,
29,9,1,2.8343244999996386,['n'],1,right,['e'],1,2.6494914000013523,0.1,1,0,AccAcc,36,18,Woman,Right,
30,9,1,2.2676254000016343,['n'],1,right,['e'],1,1.719592699999339,0.4,1,0,AccAcc,36,18,Woman,Right,
31,9,1,2.217694400000255,['c'],1,left,['u'],0,1.8219678000004933,0.4,0,0,AccAcc,36,18,Woman,Right,
32,9,1,2.4675865000008343,['c'],1,left,['u'],0,2.0200203000003967,0.4,0,0,AccAcc,36,18,Woman,Right,
33,9,1,3.617589499999667,['c'],1,left,['e'],1,1.845673000001625,0.2,1,0,AccAcc,36,18,Woman,Right,
34,9,1,2.534390599999824,['c'],1,left,['e'],1,1.2731471000006422,0.4,1,0,AccAcc,36,18,Woman,Right,
35,9,1,2.0341755999997986,['c'],0,right,['e'],1,1.8962279000006674,0.2,0,0,AccAcc,36,18,Woman,Right,
36,9,1,2.1845118000001094,['n'],1,right,['e'],1,2.038852300000144,0.1,1,0,AccAcc,36,18,Woman,Right,
37,9,1,2.4512411000014254,['c'],0,right,['u'],0,2.0063122999999905,0.1,1,0,AccAcc,36,18,Woman,Right,
38,9,1,1.9843753999994078,['c'],1,left,['e'],1,1.9454931000000215,0.4,1,0,AccAcc,36,18,Woman,Right,
39,9,1,1.784216899999592,['n'],1,right,['e'],1,2.630911100000958,0.4,1,0,AccAcc,36,18,Woman,Right,
40,9,1,2.634641399999964,['c'],1,left,['u'],0,1.9908453000007285,0.4,0,0,AccAcc,36,18,Woman,Right,
41,9,1,3.1012080000000424,['c'],0,right,['u'],0,2.206913500000155,0.2,1,0,AccAcc,36,18,Woman,Right,
42,9,1,2.917954999998983,['n'],1,right,['u'],0,1.7003021000000444,0.1,0,0,AccAcc,36,18,Woman,Right,
43,9,1,2.534440800000084,['c'],1,left,['e'],1,1.8537789999991219,0.4,1,0,AccAcc,36,18,Woman,Right,
44,9,1,3.0012707999994745,['c'],1,left,['u'],0,1.93445199999951,0.1,0,0,AccAcc,36,18,Woman,Right,
45,9,1,3.101333300000988,['c'],1,left,['u'],0,2.1040919000006397,0.1,0,0,AccAcc,36,18,Woman,Right,
46,9,1,3.0002297999999428,['c'],0,right,['u'],0,1.7586576000012428,0.1,1,0,AccAcc,36,18,Woman,Right,
47,9,1,2.3004648000005545,['n'],1,right,['e'],1,1.7112556000010954,0.2,1,0,AccAcc,36,18,Woman,Right,
48,9,1,1.734386699999959,['n'],1,right,['e'],1,2.536554199999955,0.4,1,0,AccAcc,36,18,Woman,Right,
49,9,1,2.7833785000002536,['c'],1,left,['u'],0,1.990862599999673,0.2,0,0,AccAcc,36,18,Woman,Right,
50,9,1,2.184574999999313,['n'],0,left,['e'],1,1.5225902000001952,0.1,0,0,AccAcc,36,18,Woman,Right,
51,9,1,2.3501316999991104,['n'],0,left,['e'],1,2.2505133999984537,0.1,0,0,AccAcc,36,18,Woman,Right,
52,9,1,2.2843410999994376,['n'],0,left,['u'],0,2.4238406000004034,0.1,1,0,AccAcc,36,18,Woman,Right,
53,9,1,1.5012754999988829,['n'],1,right,['e'],1,1.5499971999997797,0.4,1,0,AccAcc,36,18,Woman,Right,
54,9,1,1.6176974999998492,['n'],1,right,['e'],1,1.8098434999992605,0.4,1,0,AccAcc,36,18,Woman,Right,
55,9,1,2.7182910999999876,['n'],1,right,['u'],0,1.8244594000007055,0.2,0,0,AccAcc,36,18,Woman,Right,
56,9,1,2.5333992000014405,['n'],1,right,['e'],1,2.4203818000005413,0.2,1,0,AccAcc,36,18,Woman,Right,
57,9,1,2.633806600000753,['n'],1,right,['u'],0,2.0133710999998584,0.1,0,0,AccAcc,36,18,Woman,Right,
58,9,1,2.800483200000599,['c'],1,left,['u'],0,2.0951089999998658,0.2,0,0,AccAcc,36,18,Woman,Right,
59,9,1,2.000022700000045,['n'],1,right,['e'],1,2.0939091999989614,0.4,1,0,AccAcc,36,18,Woman,Right,
0,10,1,1.4010570000009466,['c'],1,left,['e'],1,1.7839788000001136,0.4,1,0,FastAcc,36,18,Woman,Right,
1,10,1,0.5509531000006973,['c'],0,right,['e'],1,1.6610154999998485,0.1,0,0,FastAcc,36,18,Woman,Right,
2,10,1,0.7500254999995377,['c'],1,left,['e'],1,1.9193852999997034,0.4,1,0,FastAcc,36,18,Woman,Right,
3,10,1,0.8521490000002814,['c'],0,right,['u'],0,1.6514406999995117,0.1,1,0,FastAcc,36,18,Woman,Right,
4,10,1,0.8672477000000072,['n'],0,left,['e'],1,1.3609560000004421,0.2,0,0,FastAcc,36,18,Woman,Right,
5,10,1,0.7845555999992939,['n'],1,right,['e'],1,1.662131600000066,0.2,1,0,FastAcc,36,18,Woman,Right,
6,10,1,0.9177887000005285,['n'],1,right,['u'],0,1.5612333999997645,0.4,0,0,FastAcc,36,18,Woman,Right,
7,10,1,0.8002667000000656,['n'],1,right,['e'],1,1.613815099999556,0.1,1,0,FastAcc,36,18,Woman,Right,
8,10,1,0.6020372000002681,['c'],1,left,['e'],1,2.039495500001067,0.1,1,0,FastAcc,36,18,Woman,Right,
9,10,1,1.0008968000001914,['n'],0,left,['u'],0,1.504702800000814,0.1,1,0,FastAcc,36,18,Woman,Right,
10,10,1,1.017933199998879,['c'],1,left,['e'],1,1.8227669999996579,0.1,1,0,FastAcc,36,18,Woman,Right,
11,10,1,0.4509352000004583,['n'],1,right,['e'],1,1.1580890000004729,0.2,1,0,FastAcc,36,18,Woman,Right,
12,10,1,1.0169277999993938,['n'],1,right,['e'],1,2.001955399999133,0.2,1,0,FastAcc,36,18,Woman,Right,
13,10,1,1.117655600000944,['c'],1,left,['e'],1,1.3997498000007909,0.2,1,0,FastAcc,36,18,Woman,Right,
14,10,1,1.1170731000001979,['n'],0,left,['u'],0,1.7341833999998926,0.1,1,0,FastAcc,36,18,Woman,Right,
15,10,1,1.2511207000006834,['c'],0,right,['e'],1,1.984755600000426,0.1,0,0,FastAcc,36,18,Woman,Right,
16,10,1,0.4836953000012727,['c'],0,right,['e'],1,1.8406322999999247,0.4,0,0,FastAcc,36,18,Woman,Right,
17,10,1,0.8350121000003128,['n'],1,right,['e'],1,1.640594599999531,0.4,1,0,FastAcc,36,18,Woman,Right,
18,10,1,0.6846353999990242,['n'],1,right,['e'],1,1.6142116000009992,0.2,1,0,FastAcc,36,18,Woman,Right,
19,10,1,0.9003740999996808,['n'],1,right,['e'],1,2.0773645999997825,0.4,1,0,FastAcc,36,18,Woman,Right,
20,10,1,1.0839336999997613,['c'],0,right,['e'],1,1.7126619999999093,0.2,0,0,FastAcc,36,18,Woman,Right,
21,10,1,1.0845351999996637,['n'],1,right,['e'],1,1.7629847999996855,0.4,1,0,FastAcc,36,18,Woman,Right,
22,10,1,1.0346921999989718,['n'],1,right,['u'],0,1.7335742999985086,0.4,0,0,FastAcc,36,18,Woman,Right,
23,10,1,1.3835236000013538,['c'],1,left,['u'],0,1.8353115999998408,0.2,0,0,FastAcc,36,18,Woman,Right,
24,10,1,0.6678095000006579,['c'],0,right,['e'],1,2.185797999998613,0.1,0,0,FastAcc,36,18,Woman,Right,
25,10,1,0.7012303999999858,['n'],1,right,['e'],1,1.8009971999999834,0.4,1,0,FastAcc,36,18,Woman,Right,
26,10,1,0.8833266000001458,['n'],1,right,['u'],0,2.176679199999853,0.1,0,0,FastAcc,36,18,Woman,Right,
27,10,1,0.8512625999992451,['c'],1,left,['u'],0,1.8180342000014207,0.2,0,0,FastAcc,36,18,Woman,Right,
28,10,1,1.051160400000299,['c'],0,right,['e'],1,1.6738710999998148,0.2,0,0,FastAcc,36,18,Woman,Right,
29,10,1,0.9677260000007664,['c'],1,left,['u'],0,2.0195091999994474,0.4,0,0,FastAcc,36,18,Woman,Right,
30,10,1,0.9001566999995703,['c'],0,right,['u'],0,1.8888798999996652,0.2,1,0,FastAcc,36,18,Woman,Right,
31,10,1,0.9348119000005681,['c'],0,right,['u'],0,2.1626467000005505,0.1,1,0,FastAcc,36,18,Woman,Right,
32,10,1,0.7343725000009727,['c'],1,left,['e'],1,1.697336400000495,0.1,1,0,FastAcc,36,18,Woman,Right,
33,10,1,0.7680534999999509,['n'],1,right,['e'],1,1.7451318000003084,0.2,1,0,FastAcc,36,18,Woman,Right,
34,10,1,0.9181362999988778,['c'],1,left,['e'],1,1.912766699999338,0.2,1,0,FastAcc,36,18,Woman,Right,
35,10,1,1.5843301999993855,['c'],0,right,['u'],0,1.5993599000012182,0.4,1,0,FastAcc,36,18,Woman,Right,
36,10,1,1.6668674999982613,['c'],0,right,['u'],0,1.8069118000003073,0.4,1,0,FastAcc,36,18,Woman,Right,
37,10,1,0.9678600999995979,['c'],0,right,['e'],1,1.5070295999994414,0.4,0,0,FastAcc,36,18,Woman,Right,
38,10,1,0.9519610000006651,['n'],0,left,['e'],1,1.50772920000054,0.2,0,0,FastAcc,36,18,Woman,Right,
39,10,1,1.2843413000009605,['n'],1,right,['u'],0,1.5906075999992026,0.1,0,0,FastAcc,36,18,Woman,Right,
40,10,1,1.7009892000005493,['n'],0,left,['u'],0,1.749869100000069,0.1,1,0,FastAcc,36,18,Woman,Right,
41,10,1,1.850936200000433,['n'],1,right,['e'],1,1.6725096000009216,0.2,1,0,FastAcc,36,18,Woman,Right,
42,10,1,0.5339241999990918,['n'],1,right,['u'],0,1.794923800000106,0.1,0,0,FastAcc,36,18,Woman,Right,
43,10,1,0.43366059999971185,['c'],1,left,['u'],0,1.9960356000010506,0.4,0,0,FastAcc,36,18,Woman,Right,
44,10,1,0.7345605999998952,['n'],0,left,['e'],1,1.6172105000005104,0.2,0,0,FastAcc,36,18,Woman,Right,
45,10,1,0.8344574000002467,['n'],0,left,['u'],0,1.8257463999998436,0.1,1,0,FastAcc,36,18,Woman,Right,
46,10,1,0.43385679999846616,['c'],1,left,['e'],1,1.434189300000071,0.4,1,0,FastAcc,36,18,Woman,Right,
47,10,1,0.6675901999988127,['c'],1,left,['u'],0,1.6405705999986822,0.4,0,0,FastAcc,36,18,Woman,Right,
48,10,1,1.7330113999996684,['c'],1,left,['u'],0,1.604990000001635,0.4,0,0,FastAcc,36,18,Woman,Right,
49,10,1,1.016983599998639,['c'],1,left,['e'],1,1.1822183999993285,0.4,1,0,FastAcc,36,18,Woman,Right,
50,10,1,1.201622700000371,['c'],1,left,['u'],0,1.6332094999997935,0.2,0,0,FastAcc,36,18,Woman,Right,
51,10,1,1.0859182000003784,['n'],0,left,['e'],1,1.4631563000002643,0.4,0,0,FastAcc,36,18,Woman,Right,
52,10,1,0.6677132000004349,['n'],0,left,['e'],1,2.3721150000001217,0.4,0,0,FastAcc,36,18,Woman,Right,
53,10,1,1.084529100000509,['n'],1,right,['u'],0,1.8527690000009898,0.2,0,0,FastAcc,36,18,Woman,Right,
54,10,1,1.4174490999994305,['c'],1,left,['u'],0,1.6766604000004008,0.1,0,0,FastAcc,36,18,Woman,Right,
55,10,1,2.0176107000006596,['n'],0,left,['u'],0,1.9639688000006572,0.2,1,0,FastAcc,36,18,Woman,Right,
56,10,1,1.6004850000008446,['n'],0,left,['u'],0,2.01594920000025,0.1,1,0,FastAcc,36,18,Woman,Right,
57,10,1,1.4843531000005896,['n'],0,left,['u'],0,1.5106059000008827,0.1,1,0,FastAcc,36,18,Woman,Right,
58,10,1,1.2010849000016606,['n'],1,right,['e'],1,1.6287806000000273,0.2,1,0,FastAcc,36,18,Woman,Right,
59,10,1,0.7013095000002068,['n'],0,left,['e'],1,1.3140690999989602,0.1,0,0,FastAcc,36,18,Woman,Right,
0,11,1,0.8677091999998083,['n'],1,right,['e'],1,0.7591640000009647,0.4,1,0,FastFast,36,18,Woman,Right,
1,11,1,0.6182141000008414,['n'],1,right,['u'],0,0.7547087000002648,0.2,0,0,FastFast,36,18,Woman,Right,
2,11,1,1.0681585000002087,['n'],1,right,['e'],1,0.6525757999988855,0.1,1,0,FastFast,36,18,Woman,Right,
3,11,1,0.584588800000347,['n'],1,right,['e'],1,0.541337200000271,0.4,1,0,FastFast,36,18,Woman,Right,
4,11,1,0.6340983000009146,['n'],0,left,['e'],1,0.8811450999983208,0.2,0,0,FastFast,36,18,Woman,Right,
5,11,1,0.5330298000008042,['n'],1,right,['e'],1,0.844119999999748,0.1,1,0,FastFast,36,18,Woman,Right,
6,11,1,0.7170549999991636,['c'],0,right,['e'],1,0.9912067000004754,0.2,0,0,FastFast,36,18,Woman,Right,
7,11,1,0.8682733000005101,['c'],0,right,['e'],1,1.0155933999994886,0.4,0,0,FastFast,36,18,Woman,Right,
8,11,1,0.8171668999984831,['n'],0,left,['u'],0,0.8325070999999298,0.2,1,0,FastFast,36,18,Woman,Right,
9,11,1,0.7346125000003667,['n'],1,right,['e'],1,0.5001931000006152,0.4,1,0,FastFast,36,18,Woman,Right,
10,11,1,0.8010505000002013,['n'],1,right,['u'],0,0.45078950000061013,0.1,0,0,FastFast,36,18,Woman,Right,
11,11,1,0.5504141000001255,['n'],1,right,['e'],1,0.42905790000077104,0.2,1,0,FastFast,36,18,Woman,Right,
12,11,1,0.5677181999999448,['c'],1,left,['e'],1,0.48716009999952803,0.2,1,0,FastFast,36,18,Woman,Right,
13,11,1,0.9505667000012181,['c'],1,left,['u'],0,0.4160310000006575,0.2,0,0,FastFast,36,18,Woman,Right,
14,11,1,0.5331581999998889,['n'],0,left,['u'],0,0.7170236000001751,0.4,1,0,FastFast,36,18,Woman,Right,
15,11,1,1.117905900000551,['n'],1,right,['u'],0,0.357584900000802,0.1,0,0,FastFast,36,18,Woman,Right,
16,11,1,0.7669313999995211,['n'],1,right,['e'],1,0.2837667000003421,0.2,1,0,FastFast,36,18,Woman,Right,
17,11,1,0.849992999999813,['c'],1,left,['e'],1,0.30475789999945846,0.4,1,0,FastFast,36,18,Woman,Right,
18,11,1,0.8510855000004085,['c'],0,right,['e'],1,0.5164129999993747,0.2,0,0,FastFast,36,18,Woman,Right,
19,11,1,1.3674253999997745,['n'],1,right,['u'],0,0.6355469999998604,0.2,0,0,FastFast,36,18,Woman,Right,
20,11,1,0.7173846000005142,['n'],1,right,['e'],1,0.23180180000053952,0.4,1,0,FastFast,36,18,Woman,Right,
21,11,1,0.9846030999997311,['n'],1,right,['u'],0,0.28144520000023476,0.1,0,0,FastFast,36,18,Woman,Right,
22,11,1,1.1996760000001814,['c'],1,left,['e'],1,0.3045555999997305,0.2,1,0,FastFast,36,18,Woman,Right,
23,11,1,1.1001444999983505,['c'],1,left,['e'],1,0.2354254999991099,0.2,1,0,FastFast,36,18,Woman,Right,
24,11,1,0.8327903999997943,['c'],1,left,['e'],1,0.25968339999963064,0.1,1,0,FastFast,36,18,Woman,Right,
25,11,1,1.1344275999999809,['n'],1,right,['u'],0,0.3335606000000553,0.4,0,0,FastFast,36,18,Woman,Right,
26,11,1,1.2010021000005509,['n'],0,left,['e'],1,0.17987129999892204,0.4,0,0,FastFast,36,18,Woman,Right,
27,11,1,1.1338429000006727,['n'],0,left,['u'],0,0.3203647999998793,0.1,1,0,FastFast,36,18,Woman,Right,
28,11,1,1.1854152999985672,['c'],1,left,['u'],0,0.24654700000064622,0.4,0,0,FastFast,36,18,Woman,Right,
29,11,1,0.8177237999989302,['c'],1,left,['e'],1,0.285909600001105,0.4,1,0,FastFast,36,18,Woman,Right,
30,11,1,1.0007230999999592,['n'],1,right,['e'],1,0.26930840000022727,0.1,1,0,FastFast,36,18,Woman,Right,
31,11,1,0.851237000000765,['n'],1,right,['e'],1,0.21064819999992324,0.1,1,0,FastFast,36,18,Woman,Right,
32,11,1,0.9351220999997167,['n'],1,right,['e'],1,0.24782779999986815,0.4,1,0,FastFast,36,18,Woman,Right,
33,11,1,1.1165225000004284,['c'],1,left,['u'],0,0.1959233999987191,0.2,0,0,FastFast,36,18,Woman,Right,
34,11,1,0.7844850000001315,['c'],1,left,['u'],0,0.31827940000039234,0.1,0,0,FastFast,36,18,Woman,Right,
35,11,1,0.634438200000659,['n'],1,right,['e'],1,0.28254869999909715,0.2,1,0,FastFast,36,18,Woman,Right,
36,11,1,0.534742499999993,['c'],1,left,['e'],1,0.2680216999997356,0.2,1,0,FastFast,36,18,Woman,Right,
37,11,1,0.517395699998815,['n'],1,right,['e'],1,0.2711491999998543,0.4,1,0,FastFast,36,18,Woman,Right,
38,11,1,0.6012501999994129,['c'],1,left,['e'],1,0.3346846000004007,0.4,1,0,FastFast,36,18,Woman,Right,
39,11,1,0.6844786000001477,['n'],0,left,['e'],1,0.20043299999997544,0.1,0,0,FastFast,36,18,Woman,Right,
40,11,1,0.6177050999995117,['c'],1,left,['e'],1,0.3619518000014068,0.4,1,0,FastFast,36,18,Woman,Right,
41,11,1,0.634324699998615,['n'],0,left,['e'],1,0.2918857000004209,0.1,0,0,FastFast,36,18,Woman,Right,
42,11,1,0.6172862000003079,['n'],1,right,['e'],1,0.2910296999998536,0.4,1,0,FastFast,36,18,Woman,Right,
43,11,1,0.6338424999994459,['c'],1,left,['e'],1,0.28807899999992514,0.4,1,0,FastFast,36,18,Woman,Right,
44,11,1,0.8511235000005399,['n'],1,right,['u'],0,0.3570555999995122,0.4,0,0,FastFast,36,18,Woman,Right,
45,11,1,0.5840509999998176,['c'],1,left,['e'],1,0.2741109000016877,0.4,1,0,FastFast,36,18,Woman,Right,
46,11,1,0.9009370999992825,['c'],1,left,['u'],0,0.27775020000080985,0.4,0,0,FastFast,36,18,Woman,Right,
47,11,1,0.5184275999999954,['n'],0,left,['e'],1,0.2965910000002623,0.1,0,0,FastFast,36,18,Woman,Right,
48,11,1,0.6840252000001783,['c'],1,left,['u'],0,0.4515497000011237,0.1,0,0,FastFast,36,18,Woman,Right,
49,11,1,0.61765910000031,['c'],0,right,['u'],0,0.49197889999959443,0.2,1,0,FastFast,36,18,Woman,Right,
50,11,1,0.5846974000014598,['c'],1,left,['u'],0,0.3868233999983204,0.1,0,0,FastFast,36,18,Woman,Right,
51,11,1,0.5330950999996276,['n'],1,right,['e'],1,0.2891712999989977,0.2,1,0,FastFast,36,18,Woman,Right,
52,11,1,0.6345124999988911,['c'],0,right,['e'],1,0.30215760000101,0.1,0,0,FastFast,36,18,Woman,Right,
53,11,1,1.0009699999991426,['c'],0,right,['e'],1,0.44429830000080983,0.1,0,0,FastFast,36,18,Woman,Right,
54,11,1,0.5344005999995716,['c'],1,left,['e'],1,0.24803430000065418,0.1,1,0,FastFast,36,18,Woman,Right,
55,11,1,0.4838409000003594,['c'],1,left,['e'],1,0.3011242000011407,0.2,1,0,FastFast,36,18,Woman,Right,
56,11,1,0.6008913000005123,['c'],0,right,['e'],1,0.2191754999985278,0.2,0,0,FastFast,36,18,Woman,Right,
57,11,1,0.7001344000000245,['c'],0,right,['e'],1,0.24950340000032156,0.2,0,0,FastFast,36,18,Woman,Right,
58,11,1,0.9680478999998741,['n'],0,left,['u'],0,0.29846360000010463,0.1,1,0,FastFast,36,18,Woman,Right,
59,11,1,0.8999337999994168,['n'],0,left,['u'],0,0.26939300000049116,0.1,1,0,FastFast,36,18,Woman,Right,
0,12,1,0.9510685999994166,['n'],1,right,['e'],1,0.5964080000012473,0.4,1,0,AccFast,36,18,Woman,Right,
1,12,1,1.183659299998908,['c'],0,right,['e'],1,0.3193818999989162,0.1,0,0,AccFast,36,18,Woman,Right,
2,12,1,1.1334722000010515,['n'],1,right,['e'],1,0.24771850000070117,0.2,1,0,AccFast,36,18,Woman,Right,
3,12,1,1.1674604999989242,['c'],0,right,['e'],1,0.2581225000012637,0.1,0,0,AccFast,36,18,Woman,Right,
4,12,1,1.4009158000008028,['c'],1,left,['e'],1,0.2421011999995244,0.4,1,0,AccFast,36,18,Woman,Right,
5,12,1,1.3510829000006197,['n'],1,right,['e'],1,0.24492210000062187,0.2,1,0,AccFast,36,18,Woman,Right,
6,12,1,1.1016919999983656,['n'],0,left,['e'],1,0.2739485000001878,0.1,0,0,AccFast,36,18,Woman,Right,
7,12,1,1.8995620999994571,['n'],1,right,['u'],0,0.3669133999992482,0.1,0,0,AccFast,36,18,Woman,Right,
8,12,1,1.4676171999999497,['n'],1,right,['e'],1,0.21460579999984475,0.2,1,0,AccFast,36,18,Woman,Right,
9,12,1,1.2507576000007248,['n'],1,right,['e'],1,0.3023061999992933,0.4,1,0,AccFast,36,18,Woman,Right,
10,12,1,1.4180539000008139,['n'],0,left,['u'],0,0.3640255000009347,0.1,1,0,AccFast,36,18,Woman,Right,
11,12,1,1.0502104000006511,['n'],1,right,['e'],1,0.35769559999971534,0.1,1,0,AccFast,36,18,Woman,Right,
12,12,1,1.6672954999994545,['c'],1,left,['e'],1,0.31161509999947157,0.4,1,0,AccFast,36,18,Woman,Right,
13,12,1,1.284151899999415,['n'],1,right,['e'],1,0.34636429999955,0.1,1,0,AccFast,36,18,Woman,Right,
14,12,1,1.300279999999475,['c'],1,left,['e'],1,0.3151366000001872,0.2,1,0,AccFast,36,18,Woman,Right,
15,12,1,1.3669470999993791,['n'],1,right,['e'],1,0.3938206999991962,0.1,1,0,AccFast,36,18,Woman,Right,
16,12,1,1.383730800000194,['c'],1,left,['e'],1,0.3415999000008014,0.1,1,0,AccFast,36,18,Woman,Right,
17,12,1,1.3501267999999982,['c'],1,left,['u'],0,0.30864540000038687,0.2,0,0,AccFast,36,18,Woman,Right,
18,12,1,0.8678541999997833,['n'],1,right,['e'],1,0.3122082000008959,0.4,1,0,AccFast,36,18,Woman,Right,
19,12,1,1.8176241000001028,['c'],1,left,['e'],1,0.4693578999995225,0.4,1,0,AccFast,36,18,Woman,Right,
20,12,1,1.8676733000011154,['n'],0,left,['u'],0,0.3465419000003749,0.2,1,0,AccFast,36,18,Woman,Right,
21,12,1,1.200275799999872,['n'],1,right,['e'],1,0.3187803000000713,0.2,1,0,AccFast,36,18,Woman,Right,
22,12,1,1.2842174999987037,['n'],1,right,['e'],1,0.2413087999993877,0.2,1,0,AccFast,36,18,Woman,Right,
23,12,1,1.2343433000005462,['n'],0,left,['e'],1,0.4411106999996264,0.1,0,0,AccFast,36,18,Woman,Right,
24,12,1,1.100585599999249,['n'],1,right,['e'],1,0.3819305999986682,0.4,1,0,AccFast,36,18,Woman,Right,
25,12,1,1.6502256999992824,['n'],1,right,['u'],0,0.5428991999997379,0.2,0,0,AccFast,36,18,Woman,Right,
26,12,1,0.8176205999989179,['n'],1,right,['e'],1,0.2831640000003972,0.2,1,0,AccFast,36,18,Woman,Right,
27,12,1,1.4010082000004331,['n'],0,left,['u'],0,0.34624729999995907,0.2,1,0,AccFast,36,18,Woman,Right,
28,12,1,1.034392100000332,['c'],1,left,['e'],1,0.29350440000052913,0.1,1,0,AccFast,36,18,Woman,Right,
29,12,1,1.7837713999997504,['c'],1,left,['e'],1,0.27690679999977874,0.1,1,0,AccFast,36,18,Woman,Right,
30,12,1,1.167590700000801,['n'],1,right,['e'],1,0.3020235000003595,0.4,1,0,AccFast,36,18,Woman,Right,
31,12,1,1.1165871000011975,['c'],1,left,['e'],1,0.26379610000003595,0.2,1,0,AccFast,36,18,Woman,Right,
32,12,1,1.333271199999217,['n'],0,left,['e'],1,0.26670279999962077,0.1,0,0,AccFast,36,18,Woman,Right,
33,12,1,1.249268999999913,['c'],1,left,['e'],1,0.3050784000006388,0.4,1,0,AccFast,36,18,Woman,Right,
34,12,1,1.3671695000011823,['n'],0,left,['e'],1,0.25543759999891336,0.4,0,0,AccFast,36,18,Woman,Right,
35,12,1,1.4680927999997948,['c'],1,left,['e'],1,0.3169441000009101,0.1,1,0,AccFast,36,18,Woman,Right,
36,12,1,1.3346421000005648,['c'],1,left,['e'],1,0.30144409999957134,0.4,1,0,AccFast,36,18,Woman,Right,
37,12,1,2.084391799999139,['n'],1,right,['u'],0,0.5605725000004895,0.1,0,0,AccFast,36,18,Woman,Right,
38,12,1,1.7845974000010756,['c'],1,left,['u'],0,0.3258366999998543,0.4,0,0,AccFast,36,18,Woman,Right,
39,12,1,1.650919800000338,['n'],0,left,['u'],0,0.3455990999991627,0.1,1,0,AccFast,36,18,Woman,Right,
40,12,1,1.1007938000002468,['c'],1,left,['e'],1,0.2899312000008649,0.4,1,0,AccFast,36,18,Woman,Right,
41,12,1,1.2672234999990906,['n'],1,right,['e'],1,0.34229899999991176,0.4,1,0,AccFast,36,18,Woman,Right,
42,12,1,1.4352701999996498,['c'],0,right,['u'],0,0.41773210000064864,0.4,1,0,AccFast,36,18,Woman,Right,
43,12,1,1.9846684000003734,['c'],1,left,['u'],0,0.35636370000065654,0.1,0,0,AccFast,36,18,Woman,Right,
44,12,1,1.317957999999635,['n'],1,right,['e'],1,0.2118055999999342,0.1,1,0,AccFast,36,18,Woman,Right,
45,12,1,1.9007082000007358,['c'],0,right,['e'],1,0.24171639999985928,0.4,0,0,AccFast,36,18,Woman,Right,
46,12,1,2.101120899998932,['c'],1,left,['u'],0,0.27945700000054785,0.2,0,0,AccFast,36,18,Woman,Right,
47,12,1,2.383505800000421,['c'],0,right,['u'],0,0.20747700000174518,0.2,1,0,AccFast,36,18,Woman,Right,
48,12,1,3.050230000000738,['n'],1,right,['u'],0,0.49524360000032175,0.2,0,0,AccFast,36,18,Woman,Right,
49,12,1,3.23439640000106,['n'],1,right,['u'],0,0.300417300000845,0.2,0,0,AccFast,36,18,Woman,Right,
50,12,1,3.1178432000015164,['c'],1,left,['e'],1,0.23045540000020992,0.2,1,0,AccFast,36,18,Woman,Right,
51,12,1,3.184062400001494,['n'],1,right,['u'],0,0.20811159999902884,0.2,0,0,AccFast,36,18,Woman,Right,
52,12,1,1.9166113999999652,['c'],1,left,['e'],1,0.23879280000073777,0.2,1,0,AccFast,36,18,Woman,Right,
53,12,1,3.216285099999368,['c'],1,left,['u'],0,0.2631760999975086,0.2,0,0,AccFast,36,18,Woman,Right,
54,12,1,1.783960599997954,['c'],1,left,['e'],1,0.31101919999855454,0.1,1,0,AccFast,36,18,Woman,Right,
55,12,1,2.267807799998991,['c'],1,left,['e'],1,0.24271609999777866,0.4,1,0,AccFast,36,18,Woman,Right,
56,12,1,2.0332229000014195,['n'],1,right,['e'],1,0.3626148999974248,0.4,1,0,AccFast,36,18,Woman,Right,
57,12,1,2.451211699997657,['c'],1,left,['u'],0,0.1883711000009498,0.4,0,0,AccFast,36,18,Woman,Right,
58,12,1,1.9324180000003253,['n'],1,right,['e'],1,0.29963280000083614,0.1,1,0,AccFast,36,18,Woman,Right,
59,12,1,1.8846651000021666,['n'],1,right,['e'],1,0.2612375000026077,0.4,1,0,AccFast,36,18,Woman,Right,
0,13,1,2.717590199998085,['c'],0,right,['u'],0,1.5111764000030234,0.2,1,0,AccAcc,36,18,Woman,Right,
1,13,1,1.7342045000004873,['n'],1,right,['e'],1,1.5285000000003492,0.4,1,0,AccAcc,36,18,Woman,Right,
2,13,1,2.3840769000016735,['n'],0,left,['e'],1,1.1022771999996621,0.1,0,0,AccAcc,36,18,Woman,Right,
3,13,1,2.367620499997429,['n'],1,right,['u'],0,2.2781842999975197,0.2,0,0,AccAcc,36,18,Woman,Right,
4,13,1,2.3837200999987544,['n'],1,right,['e'],1,1.694285999998101,0.4,1,0,AccAcc,36,18,Woman,Right,
5,13,1,2.3343340000028547,['c'],0,right,['e'],1,1.8081908999993175,0.1,0,0,AccAcc,36,18,Woman,Right,
6,13,1,2.316991200001212,['n'],0,left,['u'],0,1.662242200000037,0.2,1,0,AccAcc,36,18,Woman,Right,
7,13,1,2.117859599999065,['c'],0,right,['e'],1,1.6895613000015146,0.1,0,0,AccAcc,36,18,Woman,Right,
8,13,1,2.016934700001002,['c'],1,left,['e'],1,1.5280577000012272,0.4,1,0,AccAcc,36,18,Woman,Right,
9,13,1,2.0346924000004947,['c'],0,right,['e'],1,1.4686519000024418,0.2,0,0,AccAcc,36,18,Woman,Right,
10,13,1,2.1002165999998397,['c'],1,left,['e'],1,1.5527813000007882,0.2,1,0,AccAcc,36,18,Woman,Right,
11,13,1,1.9845055999976466,['c'],1,left,['e'],1,1.9415664000007382,0.1,1,0,AccAcc,36,18,Woman,Right,
12,13,1,2.2180808000011893,['c'],1,left,['e'],1,1.330583499999193,0.1,1,0,AccAcc,36,18,Woman,Right,
13,13,1,2.4511383999997634,['c'],1,left,['u'],0,2.0937565000022005,0.1,0,0,AccAcc,36,18,Woman,Right,
14,13,1,2.0680130000000645,['n'],1,right,['e'],1,2.6184283000002324,0.1,1,0,AccAcc,36,18,Woman,Right,
15,13,1,2.13366120000137,['c'],1,left,['e'],1,1.6792479999967327,0.2,1,0,AccAcc,36,18,Woman,Right,
16,13,1,2.015356799998699,['n'],0,left,['u'],0,2.254417000000103,0.2,1,0,AccAcc,36,18,Woman,Right,
17,13,1,2.117860499998642,['n'],1,right,['u'],0,1.8577736000006553,0.4,0,0,AccAcc,36,18,Woman,Right,
18,13,1,2.2175816999988456,['n'],1,right,['u'],0,1.985782299998391,0.1,0,0,AccAcc,36,18,Woman,Right,
19,13,1,2.7843256999985897,['c'],1,left,['u'],0,1.6539197999991302,0.1,0,0,AccAcc,36,18,Woman,Right,
20,13,1,3.149270499998238,['c'],0,right,['u'],0,1.4330932999982906,0.1,1,0,AccAcc,36,18,Woman,Right,
21,13,1,2.366327199997613,['c'],0,right,['e'],1,1.5076910999996471,0.2,0,0,AccAcc,36,18,Woman,Right,
22,13,1,3.1506236999994144,['n'],1,right,['e'],1,1.6438868000004732,0.4,1,0,AccAcc,36,18,Woman,Right,
23,13,1,2.2675172999988717,['n'],1,right,['e'],1,1.7625528999997186,0.1,1,0,AccAcc,36,18,Woman,Right,
24,13,1,2.350153199997294,['n'],0,left,['u'],0,2.2404440000027535,0.2,1,0,AccAcc,36,18,Woman,Right,
25,13,1,2.784294000000955,['c'],1,left,['u'],0,2.234408899999835,0.4,0,0,AccAcc,36,18,Woman,Right,
26,13,1,2.6164863999983936,['n'],0,left,['u'],0,1.9478054999999586,0.1,1,0,AccAcc,36,18,Woman,Right,
27,13,1,2.850665400001162,['n'],1,right,['e'],1,1.837915999996767,0.1,1,0,AccAcc,36,18,Woman,Right,
28,13,1,3.251683900001808,['c'],1,left,['u'],0,1.9413056999983382,0.2,0,0,AccAcc,36,18,Woman,Right,
29,13,1,2.0510020999972767,['c'],1,left,['e'],1,1.5928171000014117,0.4,1,0,AccAcc,36,18,Woman,Right,
30,13,1,2.318372300000192,['n'],1,right,['u'],0,2.3831147999990208,0.4,0,0,AccAcc,36,18,Woman,Right,
31,13,1,2.0178411999986565,['n'],0,left,['e'],1,1.5379868999989412,0.2,0,0,AccAcc,36,18,Woman,Right,
32,13,1,1.8343979999990552,['n'],1,right,['e'],1,1.3099612000005436,0.4,1,0,AccAcc,36,18,Woman,Right,
33,13,1,2.2017264000023715,['n'],0,left,['e'],1,2.132512099997257,0.2,0,0,AccAcc,36,18,Woman,Right,
34,13,1,1.7177631999984442,['n'],0,left,['u'],0,2.3649874000002455,0.4,1,0,AccAcc,36,18,Woman,Right,
35,13,1,2.917677499997808,['c'],1,left,['e'],1,1.9485371999980998,0.1,1,0,AccAcc,36,18,Woman,Right,
36,13,1,3.6839504999989003,['c'],1,left,['e'],1,1.6141041000009864,0.2,1,0,AccAcc,36,18,Woman,Right,
37,13,1,1.734162799999467,['n'],0,left,['e'],1,1.8664074000007531,0.4,0,0,AccAcc,36,18,Woman,Right,
38,13,1,3.0506635999990976,['n'],0,left,['u'],0,2.217282500001602,0.2,1,0,AccAcc,36,18,Woman,Right,
39,13,1,1.784605400000146,['n'],1,right,['e'],1,1.8351935999999114,0.4,1,0,AccAcc,36,18,Woman,Right,
40,13,1,1.7150169999986247,['c'],1,left,['e'],1,1.152627899999061,0.4,1,0,AccAcc,36,18,Woman,Right,
41,13,1,1.483755099998234,['c'],1,left,['e'],1,1.7368619999979273,0.4,1,0,AccAcc,36,18,Woman,Right,
42,13,1,2.1670018000004347,['n'],1,right,['u'],0,1.4395966999982193,0.1,0,0,AccAcc,36,18,Woman,Right,
43,13,1,2.300930100002006,['n'],1,right,['u'],0,1.1809766999977,0.2,0,0,AccAcc,36,18,Woman,Right,
44,13,1,2.634248500002286,['n'],1,right,['e'],1,2.0225905000006605,0.1,1,0,AccAcc,36,18,Woman,Right,
45,13,1,1.7176727000005485,['n'],1,right,['e'],1,1.6839376000025368,0.4,1,0,AccAcc,36,18,Woman,Right,
46,13,1,3.3003069999977015,['c'],1,left,['u'],0,1.6155949999993027,0.2,0,0,AccAcc,36,18,Woman,Right,
47,13,1,2.7341688000014983,['n'],1,right,['u'],0,2.1481555000027583,0.4,0,0,AccAcc,36,18,Woman,Right,
48,13,1,2.150868199998513,['n'],1,right,['e'],1,1.5788958999983151,0.4,1,0,AccAcc,36,18,Woman,Right,
49,13,1,4.217248000000836,['n'],1,right,['u'],0,2.3255951999999525,0.2,0,0,AccAcc,36,18,Woman,Right,
50,13,1,3.6323176000005333,['c'],1,left,['u'],0,1.6117584999992687,0.2,0,0,AccAcc,36,18,Woman,Right,
51,13,1,3.6010754000017187,['c'],1,left,['u'],0,2.1252975999996124,0.4,0,0,AccAcc,36,18,Woman,Right,
52,13,1,2.167232100000547,['n'],1,right,['e'],1,1.33305190000101,0.4,1,0,AccAcc,36,18,Woman,Right,
53,13,1,2.534675099999731,['n'],1,right,['e'],1,1.1806271000023116,0.4,1,0,AccAcc,36,18,Woman,Right,
54,13,1,3.18351629999961,['c'],1,left,['u'],0,1.3284701999982644,0.1,0,0,AccAcc,36,18,Woman,Right,
55,13,1,2.700940899998386,['c'],1,left,['u'],0,1.4098103999967861,0.1,0,0,AccAcc,36,18,Woman,Right,
56,13,1,3.4511726000018825,['c'],1,left,['e'],1,1.3306732999990345,0.2,1,0,AccAcc,36,18,Woman,Right,
57,13,1,2.983355100001063,['c'],0,right,['u'],0,1.73668539999926,0.2,1,0,AccAcc,36,18,Woman,Right,
58,13,1,2.384325800001534,['n'],1,right,['e'],1,0.9665977999975439,0.1,1,0,AccAcc,36,18,Woman,Right,
59,13,1,2.8006851999998617,['n'],1,right,['e'],1,2.402532100000826,0.1,1,0,AccAcc,36,18,Woman,Right,
0,14,1,2.0005290000008245,['c'],0,right,['u'],0,2.033219900000404,0.2,1,0,FastAcc,36,18,Woman,Right,
1,14,1,0.7844016000017291,['c'],0,right,['e'],1,1.3792125999971176,0.1,0,0,FastAcc,36,18,Woman,Right,
2,14,1,1.2004710000001069,['c'],1,left,['e'],1,1.678207900000416,0.1,1,0,FastAcc,36,18,Woman,Right,
3,14,1,0.9677852999993775,['c'],1,left,['e'],1,1.6867445999996562,0.2,1,0,FastAcc,36,18,Woman,Right,
4,14,1,0.6675499000011769,['n'],0,left,['u'],0,1.8672200000000885,0.1,1,0,FastAcc,36,18,Woman,Right,
5,14,1,0.8500523000002431,['c'],1,left,['e'],1,1.5692576000001281,0.2,1,0,FastAcc,36,18,Woman,Right,
6,14,1,0.8175750999980664,['c'],1,left,['e'],1,1.3001584000012372,0.4,1,0,FastAcc,36,18,Woman,Right,
7,14,1,0.6011811999997008,['c'],1,left,['e'],1,1.6265224000017042,0.4,1,0,FastAcc,36,18,Woman,Right,
8,14,1,0.4014653999984148,['n'],1,right,['u'],0,1.9002002000015636,0.4,0,0,FastAcc,36,18,Woman,Right,
9,14,1,0.5678213999999571,['n'],1,right,['e'],1,1.628011400000105,0.1,1,0,FastAcc,36,18,Woman,Right,
10,14,1,0.6015112999994017,['n'],1,right,['u'],0,1.5897274000017205,0.4,0,0,FastAcc,36,18,Woman,Right,
11,14,1,0.6504343999986304,['n'],0,left,['u'],0,1.6468324000015855,0.1,1,0,FastAcc,36,18,Woman,Right,
12,14,1,0.5845875000013621,['c'],1,left,['u'],0,1.735919599999761,0.2,0,0,FastAcc,36,18,Woman,Right,
13,14,1,1.1177403000001505,['c'],1,left,['u'],0,1.7203788999977405,0.2,0,0,FastAcc,36,18,Woman,Right,
14,14,1,0.9838109999982407,['n'],1,right,['e'],1,0.9588923000010254,0.4,1,0,FastAcc,36,18,Woman,Right,
15,14,1,1.050847700000304,['c'],0,right,['u'],0,1.521510099999432,0.4,1,0,FastAcc,36,18,Woman,Right,
16,14,1,1.0343580000007933,['n'],1,right,['e'],1,1.053810199999134,0.2,1,0,FastAcc,36,18,Woman,Right,
17,14,1,1.3506515000008221,['n'],1,right,['u'],0,1.3930286999966484,0.1,0,0,FastAcc,36,18,Woman,Right,
18,14,1,0.6348542000014277,['n'],0,left,['u'],0,1.1859307999984594,0.1,1,0,FastAcc,36,18,Woman,Right,
19,14,1,0.933862499998213,['n'],1,right,['u'],0,2.0318146999998135,0.4,0,0,FastAcc,36,18,Woman,Right,
20,14,1,0.46803149999686866,['c'],1,left,['u'],0,1.2782727000012528,0.4,0,0,FastAcc,36,18,Woman,Right,
21,14,1,0.7840642000010121,['c'],1,left,['e'],1,1.4226334999984829,0.1,1,0,FastAcc,36,18,Woman,Right,
22,14,1,1.033976700000494,['n'],1,right,['u'],0,1.2310483000001113,0.1,0,0,FastAcc,36,18,Woman,Right,
23,14,1,1.2671922000008635,['c'],0,right,['u'],0,1.6775539000009303,0.2,1,0,FastAcc,36,18,Woman,Right,
24,14,1,1.0004394999996293,['c'],1,left,['e'],1,1.5095733999987715,0.4,1,0,FastAcc,36,18,Woman,Right,
25,14,1,1.5507011000008788,['c'],1,left,['u'],0,1.7899017999989155,0.4,0,0,FastAcc,36,18,Woman,Right,
26,14,1,0.6677926000011212,['c'],1,left,['e'],1,1.3582518000002892,0.1,1,0,FastAcc,36,18,Woman,Right,
27,14,1,0.8843715000002703,['c'],1,left,['e'],1,1.5116067999988445,0.2,1,0,FastAcc,36,18,Woman,Right,
28,14,1,0.8174226999981329,['c'],1,left,['e'],1,1.3093722000012349,0.1,1,0,FastAcc,36,18,Woman,Right,
29,14,1,0.9178570999974909,['c'],0,right,['e'],1,1.4629951999995683,0.2,0,0,FastAcc,36,18,Woman,Right,
30,14,1,1.2005401999995229,['n'],1,right,['u'],0,1.0388727999998082,0.4,0,0,FastAcc,36,18,Woman,Right,
31,14,1,0.8178520000001299,['c'],0,right,['e'],1,1.2713356000022031,0.1,0,0,FastAcc,36,18,Woman,Right,
32,14,1,1.0018817000018316,['c'],1,left,['e'],1,1.2949986000021454,0.1,1,0,FastAcc,36,18,Woman,Right,
33,14,1,0.7837867000016558,['n'],1,right,['e'],1,1.4227222999979858,0.4,1,0,FastAcc,36,18,Woman,Right,
34,14,1,0.9510456000025442,['n'],1,right,['e'],1,1.6338340000002063,0.1,1,0,FastAcc,36,18,Woman,Right,
35,14,1,1.6510391000010713,['n'],0,left,['u'],0,1.0570544000001973,0.1,1,0,FastAcc,36,18,Woman,Right,
36,14,1,1.101071299999603,['n'],1,right,['u'],0,1.3094997000007425,0.2,0,0,FastAcc,36,18,Woman,Right,
37,14,1,1.600388999999268,['c'],1,left,['e'],1,1.276405299999169,0.1,1,0,FastAcc,36,18,Woman,Right,
38,14,1,1.2677440000006754,['c'],1,left,['u'],0,1.7852382999990368,0.2,0,0,FastAcc,36,18,Woman,Right,
39,14,1,0.885076200000185,['c'],1,left,['e'],1,1.5849252000007255,0.2,1,0,FastAcc,36,18,Woman,Right,
40,14,1,0.73347830000057,['n'],1,right,['e'],1,1.63866169999892,0.4,1,0,FastAcc,36,18,Woman,Right,
41,14,1,0.983805100000609,['n'],0,left,['u'],0,1.6163715000002412,0.4,1,0,FastAcc,36,18,Woman,Right,
42,14,1,0.7677618999987317,['n'],1,right,['e'],1,1.2835859000006167,0.2,1,0,FastAcc,36,18,Woman,Right,
43,14,1,0.5345538000001397,['n'],0,left,['e'],1,1.2135671000032744,0.4,0,0,FastAcc,36,18,Woman,Right,
44,14,1,0.533948700001929,['n'],0,left,['u'],0,1.0336623000002874,0.2,1,0,FastAcc,36,18,Woman,Right,
45,14,1,0.7683342000018456,['n'],0,left,['e'],1,1.139967399998568,0.2,0,0,FastAcc,36,18,Woman,Right,
46,14,1,1.3682112999995297,['c'],0,right,['u'],0,0.979252400000405,0.2,1,0,FastAcc,36,18,Woman,Right,
47,14,1,0.8345085000000836,['n'],1,right,['e'],1,1.1003477000012936,0.4,1,0,FastAcc,36,18,Woman,Right,
48,14,1,0.5518334000007599,['c'],1,left,['e'],1,1.196761700000934,0.1,1,0,FastAcc,36,18,Woman,Right,
49,14,1,0.9512907000025734,['n'],1,right,['e'],1,1.5291201,0.2,1,0,FastAcc,36,18,Woman,Right,
50,14,1,1.082744700001058,['n'],1,right,['u'],0,1.5722887000010815,0.4,0,0,FastAcc,36,18,Woman,Right,
51,14,1,0.7174133000007714,['c'],1,left,['e'],1,1.4820084999992105,0.4,1,0,FastAcc,36,18,Woman,Right,
52,14,1,1.0847290999990946,['n'],1,right,['u'],0,1.589826899999025,0.1,0,0,FastAcc,36,18,Woman,Right,
53,14,1,0.9680281000000832,['n'],1,right,['e'],1,1.058292399997299,0.2,1,0,FastAcc,36,18,Woman,Right,
54,14,1,1.3510489000000234,['c'],1,left,['u'],0,1.0767201999988174,0.2,0,0,FastAcc,36,18,Woman,Right,
55,14,1,0.45098700000016834,['n'],1,right,['e'],1,1.1783458999998402,0.4,1,0,FastAcc,36,18,Woman,Right,
56,14,1,0.6668382999996538,['n'],1,right,['e'],1,1.490649300001678,0.4,1,0,FastAcc,36,18,Woman,Right,
57,14,1,1.4847846000011486,['c'],1,left,['e'],1,1.374592299998767,0.1,1,0,FastAcc,36,18,Woman,Right,
58,14,1,0.6838090000019292,['n'],1,right,['e'],1,1.4549674999980198,0.2,1,0,FastAcc,36,18,Woman,Right,
59,14,1,0.6180123000012827,['n'],1,right,['e'],1,1.694697900002211,0.1,1,0,FastAcc,36,18,Woman,Right,
0,15,1,0.6179009000006772,['c'],1,left,['e'],1,1.1960221999979694,0.2,1,0,FastFast,36,18,Woman,Right,
1,15,1,0.7673461999984283,['n'],0,left,['u'],0,0.3995617000000493,0.1,1,0,FastFast,36,18,Woman,Right,
2,15,1,0.5843792999985453,['n'],0,left,['e'],1,0.8905019000012544,0.2,0,0,FastFast,36,18,Woman,Right,
3,15,1,0.5342867999970622,['c'],1,left,['e'],1,0.5161205000003974,0.2,1,0,FastFast,36,18,Woman,Right,
4,15,1,0.4838772000002791,['c'],1,left,['e'],1,0.3343522999966808,0.4,1,0,FastFast,36,18,Woman,Right,
5,15,1,0.41788699999960954,['c'],0,right,['e'],1,0.2909104999998817,0.2,0,0,FastFast,36,18,Woman,Right,
6,15,1,0.48419250000006286,['c'],0,right,['e'],1,0.2781286999997974,0.1,0,0,FastFast,36,18,Woman,Right,
7,15,1,0.400493600001937,['c'],0,right,['e'],1,0.23790340000050492,0.2,0,0,FastFast,36,18,Woman,Right,
8,15,1,0.3662284999991243,['c'],0,right,['e'],1,0.2488320999982534,0.4,0,0,FastFast,36,18,Woman,Right,
9,15,1,0.5011505999973451,['c'],1,left,['e'],1,0.22056660000089323,0.4,1,0,FastFast,36,18,Woman,Right,
10,15,1,0.8331312999980582,['c'],0,right,['u'],0,0.21334419999766396,0.1,1,0,FastFast,36,18,Woman,Right,
11,15,1,0.501197300000058,['c'],0,right,['e'],1,0.298202099998889,0.2,0,0,FastFast,36,18,Woman,Right,
12,15,1,0.5677279999981693,['c'],0,right,['u'],0,0.4417911999989883,0.4,1,0,FastFast,36,18,Woman,Right,
13,15,1,0.4849863000017649,['c'],1,left,['e'],1,0.3113985000018147,0.4,1,0,FastFast,36,18,Woman,Right,
14,15,1,0.38494429999991553,['c'],0,right,['e'],1,0.3183290000015404,0.1,0,0,FastFast,36,18,Woman,Right,
15,15,1,0.6844780999999784,['n'],1,right,['e'],1,0.2966850999982853,0.4,1,0,FastFast,36,18,Woman,Right,
16,15,1,1.017780700000003,['c'],1,left,['u'],0,0.262328199998592,0.4,0,0,FastFast,36,18,Woman,Right,
17,15,1,0.784648400000151,['n'],0,left,['e'],1,0.22241050000229734,0.2,0,0,FastFast,36,18,Woman,Right,
18,15,1,0.7015172999999777,['c'],1,left,['e'],1,0.26819909999903757,0.2,1,0,FastFast,36,18,Woman,Right,
19,15,1,0.9672611999994842,['n'],1,right,['e'],1,0.2533737000012479,0.2,1,0,FastFast,36,18,Woman,Right,
20,15,1,1.0177670000011858,['c'],1,left,['e'],1,0.26886580000063987,0.4,1,0,FastFast,36,18,Woman,Right,
21,15,1,0.8012097999999241,['n'],0,left,['e'],1,0.2446681000001263,0.2,0,0,FastFast,36,18,Woman,Right,
22,15,1,1.0847392000032414,['c'],1,left,['e'],1,0.25820500000190805,0.1,1,0,FastFast,36,18,Woman,Right,
23,15,1,1.1674755999993067,['c'],1,left,['e'],1,0.21992769999997108,0.4,1,0,FastFast,36,18,Woman,Right,
24,15,1,1.151582900001813,['c'],1,left,['u'],0,0.1512386000031256,0.4,0,0,FastFast,36,18,Woman,Right,
25,15,1,0.9510264999989886,['n'],1,right,['e'],1,0.2697471999999834,0.1,1,0,FastFast,36,18,Woman,Right,
26,15,1,0.8342675999992935,['c'],1,left,['e'],1,0.21217560000150115,0.1,1,0,FastFast,36,18,Woman,Right,
27,15,1,1.1497739999977057,['n'],1,right,['e'],1,0.22383330000229762,0.1,1,0,FastFast,36,18,Woman,Right,
28,15,1,1.167615599999408,['n'],1,right,['u'],0,0.28284339999663644,0.2,0,0,FastFast,36,18,Woman,Right,
29,15,1,1.0673042000016721,['c'],1,left,['u'],0,0.21503169999778038,0.4,0,0,FastFast,36,18,Woman,Right,
30,15,1,0.6514762999977393,['n'],1,right,['e'],1,0.2307357999998203,0.1,1,0,FastFast,36,18,Woman,Right,
31,15,1,0.8164261000019906,['n'],1,right,['e'],1,0.28771620000043185,0.1,1,0,FastFast,36,18,Woman,Right,
32,15,1,0.7844258000004629,['c'],1,left,['u'],0,0.3585215999992215,0.1,0,0,FastFast,36,18,Woman,Right,
33,15,1,0.6834388999996008,['n'],0,left,['e'],1,0.3202874000016891,0.4,0,0,FastFast,36,18,Woman,Right,
34,15,1,0.6181557999989309,['n'],1,right,['e'],1,0.20455109999966226,0.4,1,0,FastFast,36,18,Woman,Right,
35,15,1,0.9350319000004674,['n'],0,left,['u'],0,0.33742179999899236,0.1,1,0,FastFast,36,18,Woman,Right,
36,15,1,1.0162936999986414,['n'],0,left,['u'],0,0.2386194999999134,0.1,1,0,FastFast,36,18,Woman,Right,
37,15,1,0.6010227000006125,['c'],1,left,['e'],1,0.25488160000168136,0.2,1,0,FastFast,36,18,Woman,Right,
38,15,1,1.0169773999987228,['n'],1,right,['e'],1,0.3343158999996376,0.1,1,0,FastFast,36,18,Woman,Right,
39,15,1,0.7508718999997654,['c'],0,right,['u'],0,0.42148939999970025,0.1,1,0,FastFast,36,18,Woman,Right,
40,15,1,0.684376400000474,['n'],1,right,['e'],1,0.20379270000194083,0.4,1,0,FastFast,36,18,Woman,Right,
41,15,1,0.9003355999993801,['c'],0,right,['e'],1,0.24205369999981485,0.2,0,0,FastFast,36,18,Woman,Right,
42,15,1,0.6010193000001891,['n'],1,right,['e'],1,0.2270301999997173,0.4,1,0,FastFast,36,18,Woman,Right,
43,15,1,0.9182136000017636,['n'],0,left,['u'],0,0.23197259999869857,0.2,1,0,FastFast,36,18,Woman,Right,
44,15,1,1.0844112999984645,['c'],1,left,['e'],1,0.19753770000170334,0.1,1,0,FastFast,36,18,Woman,Right,
45,15,1,0.9678926000015053,['n'],0,left,['u'],0,0.24902780000047642,0.2,1,0,FastFast,36,18,Woman,Right,
46,15,1,0.9676498000007996,['c'],0,right,['u'],0,0.15488600000026054,0.2,1,0,FastFast,36,18,Woman,Right,
47,15,1,0.534399600001052,['c'],0,right,['e'],1,0.33774309999716934,0.1,0,0,FastFast,36,18,Woman,Right,
48,15,1,1.0678673999973398,['n'],1,right,['e'],1,0.2041334999994433,0.4,1,0,FastFast,36,18,Woman,Right,
49,15,1,0.7999178000027314,['c'],0,right,['e'],1,0.1831071000015072,0.1,0,0,FastFast,36,18,Woman,Right,
50,15,1,0.9335458000023209,['c'],1,left,['e'],1,0.2199871999982861,0.2,1,0,FastFast,36,18,Woman,Right,
51,15,1,0.6344310999993468,['c'],1,left,['e'],1,0.22029719999773079,0.4,1,0,FastFast,36,18,Woman,Right,
52,15,1,0.8668801000021631,['c'],0,right,['u'],0,0.22739910000018426,0.2,1,0,FastFast,36,18,Woman,Right,
53,15,1,0.7504155999995419,['n'],1,right,['e'],1,0.1588207999993756,0.4,1,0,FastFast,36,18,Woman,Right,
54,15,1,0.6179647000026307,['c'],1,left,['e'],1,0.17836819999865838,0.4,1,0,FastFast,36,18,Woman,Right,
55,15,1,0.8508967000016128,['n'],1,right,['e'],1,0.15527300000030664,0.2,1,0,FastFast,36,18,Woman,Right,
56,15,1,1.0999788000008266,['n'],1,right,['u'],0,0.18828279999797815,0.4,0,0,FastFast,36,18,Woman,Right,
57,15,1,0.7516255000009551,['c'],1,left,['e'],1,0.16881439999997383,0.1,1,0,FastFast,36,18,Woman,Right,
58,15,1,0.7513342999991437,['c'],1,left,['e'],1,0.18226359999971464,0.2,1,0,FastFast,36,18,Woman,Right,
59,15,1,1.268274999998539,['n'],1,right,['u'],0,0.2864905999995244,0.1,0,0,FastFast,36,18,Woman,Right,
