withinblocktrial,block,block_repetition,rt,resp,cor,cresp,conf_press,cj,rtconf,coherence,metacognition,slow_trial,manipulation,sub,age,gender,handedness,
0,1,1,1.4836781000003612,['c'],0,right,none,-99,-99,0.5,-99,0,none,27,18,Woman,Right,
1,1,1,1.5021840999997949,['c'],1,left,none,-99,-99,0.5,-99,0,none,27,18,Woman,Right,
2,1,1,1.216350799999418,['n'],0,left,none,-99,-99,0.5,-99,0,none,27,18,Woman,Right,
3,1,1,1.2499316000003091,['c'],1,left,none,-99,-99,0.5,-99,0,none,27,18,Woman,Right,
4,1,1,1.3671253000002253,['c'],1,left,none,-99,-99,0.5,-99,0,none,27,18,Woman,Right,
5,1,1,1.4506209000001036,['c'],1,left,none,-99,-99,0.5,-99,0,none,27,18,Woman,Right,
6,1,1,0.9847452999993038,['n'],1,right,none,-99,-99,0.5,-99,0,none,27,18,Woman,Right,
7,1,1,0.9159491999998863,['n'],1,right,none,-99,-99,0.5,-99,0,none,27,18,Woman,Right,
8,1,1,0.9509093999995457,['n'],1,right,none,-99,-99,0.5,-99,0,none,27,18,Woman,Right,
9,1,1,0.8496725000004517,['c'],0,right,none,-99,-99,0.5,-99,0,none,27,18,Woman,Right,
10,1,1,0.900572600000487,['n'],0,left,none,-99,-99,0.5,-99,0,none,27,18,Woman,Right,
11,1,1,0.8344466999997167,['n'],1,right,none,-99,-99,0.5,-99,0,none,27,18,Woman,Right,
12,1,1,0.8670686000004935,['c'],1,left,none,-99,-99,0.5,-99,0,none,27,18,Woman,Right,
13,1,1,0.8349696999994194,['c'],1,left,none,-99,-99,0.5,-99,0,none,27,18,Woman,Right,
14,1,1,0.9008340000000317,['c'],1,left,none,-99,-99,0.5,-99,0,none,27,18,Woman,Right,
15,1,1,1.0346099999997023,['c'],1,left,none,-99,-99,0.5,-99,0,none,27,18,Woman,Right,
16,1,1,0.782998000000589,['c'],1,left,none,-99,-99,0.5,-99,0,none,27,18,Woman,Right,
17,1,1,0.9322339999998803,['n'],1,right,none,-99,-99,0.5,-99,0,none,27,18,Woman,Right,
18,1,1,1.9007692000004681,['n'],1,right,none,-99,-99,0.5,-99,0,none,27,18,Woman,Right,
19,1,1,1.2330455000001166,['n'],1,right,none,-99,-99,0.5,-99,0,none,27,18,Woman,Right,
20,1,1,1.2511423999994804,['n'],1,right,none,-99,-99,0.5,-99,0,none,27,18,Woman,Right,
21,1,1,1.083861899999647,['n'],1,right,none,-99,-99,0.5,-99,0,none,27,18,Woman,Right,
22,1,1,1.7672499000000244,['c'],0,right,none,-99,-99,0.5,-99,0,none,27,18,Woman,Right,
23,1,1,0.783300799999779,['c'],1,left,none,-99,-99,0.5,-99,0,none,27,18,Woman,Right,
0,1,2,0.7846140000001469,['c'],1,left,none,-99,-99,0.5,-99,0,none,27,18,Woman,Right,
1,1,2,0.883401999999478,['n'],1,right,none,-99,-99,0.5,-99,0,none,27,18,Woman,Right,
2,1,2,0.5006207000005816,['c'],1,left,none,-99,-99,0.5,-99,0,none,27,18,Woman,Right,
3,1,2,0.6672546999998303,['c'],1,left,none,-99,-99,0.5,-99,0,none,27,18,Woman,Right,
4,1,2,0.5001400999999532,['c'],0,right,none,-99,-99,0.5,-99,0,none,27,18,Woman,Right,
5,1,2,0.5665012999997998,['n'],1,right,none,-99,-99,0.5,-99,0,none,27,18,Woman,Right,
6,1,2,0.6152781000000687,['n'],1,right,none,-99,-99,0.5,-99,0,none,27,18,Woman,Right,
7,1,2,0.6021762999998828,['c'],1,left,none,-99,-99,0.5,-99,0,none,27,18,Woman,Right,
8,1,2,0.8168636000000333,['c'],0,right,none,-99,-99,0.5,-99,0,none,27,18,Woman,Right,
9,1,2,0.6001164999997854,['c'],0,right,none,-99,-99,0.5,-99,0,none,27,18,Woman,Right,
10,1,2,0.7153613000000405,['c'],1,left,none,-99,-99,0.5,-99,0,none,27,18,Woman,Right,
11,1,2,0.7505347999995138,['n'],1,right,none,-99,-99,0.5,-99,0,none,27,18,Woman,Right,
12,1,2,0.7336997000002157,['n'],1,right,none,-99,-99,0.5,-99,0,none,27,18,Woman,Right,
13,1,2,0.7340474000002359,['c'],0,right,none,-99,-99,0.5,-99,0,none,27,18,Woman,Right,
14,1,2,0.8328024000002188,['c'],1,left,none,-99,-99,0.5,-99,0,none,27,18,Woman,Right,
15,1,2,0.5839515000006941,['c'],1,left,none,-99,-99,0.5,-99,0,none,27,18,Woman,Right,
16,1,2,0.584968399999525,['c'],1,left,none,-99,-99,0.5,-99,0,none,27,18,Woman,Right,
17,1,2,0.9334286000002976,['n'],1,right,none,-99,-99,0.5,-99,0,none,27,18,Woman,Right,
18,1,2,0.9175590000004377,['c'],0,right,none,-99,-99,0.5,-99,0,none,27,18,Woman,Right,
19,1,2,0.6681446000002325,['c'],1,left,none,-99,-99,0.5,-99,0,none,27,18,Woman,Right,
20,1,2,0.6843355000000884,['c'],1,left,none,-99,-99,0.5,-99,0,none,27,18,Woman,Right,
21,1,2,0.8166633999999249,['c'],0,right,none,-99,-99,0.5,-99,0,none,27,18,Woman,Right,
22,1,2,0.6513911000001826,['c'],1,left,none,-99,-99,0.5,-99,0,none,27,18,Woman,Right,
23,1,2,0.7342125000004671,['c'],1,left,none,-99,-99,0.5,-99,0,none,27,18,Woman,Right,
0,1,3,1.31841440000062,['c'],1,left,none,-99,-99,0.5,-99,0,none,27,18,Woman,Right,
1,1,3,0.8835636000003433,['n'],1,right,none,-99,-99,0.5,-99,0,none,27,18,Woman,Right,
2,1,3,0.5506467999994129,['c'],1,left,none,-99,-99,0.5,-99,0,none,27,18,Woman,Right,
3,1,3,1.0667461000002731,['c'],1,left,none,-99,-99,0.5,-99,0,none,27,18,Woman,Right,
4,1,3,0.74923950000084,['c'],1,left,none,-99,-99,0.5,-99,0,none,27,18,Woman,Right,
5,1,3,0.48431970000001456,['n'],1,right,none,-99,-99,0.5,-99,0,none,27,18,Woman,Right,
6,1,3,0.48349289999987377,['c'],1,left,none,-99,-99,0.5,-99,0,none,27,18,Woman,Right,
7,1,3,0.531950799999322,['c'],1,left,none,-99,-99,0.5,-99,0,none,27,18,Woman,Right,
8,1,3,0.5161954000004698,['c'],1,left,none,-99,-99,0.5,-99,0,none,27,18,Woman,Right,
9,1,3,0.6341816999993171,['n'],1,right,none,-99,-99,0.5,-99,0,none,27,18,Woman,Right,
10,1,3,0.5155914000006305,['n'],1,right,none,-99,-99,0.5,-99,0,none,27,18,Woman,Right,
11,1,3,0.4660546000004615,['n'],1,right,none,-99,-99,0.5,-99,0,none,27,18,Woman,Right,
12,1,3,0.5152543999993213,['n'],1,right,none,-99,-99,0.5,-99,0,none,27,18,Woman,Right,
13,1,3,0.4157890000005864,['n'],0,left,none,-99,-99,0.5,-99,0,none,27,18,Woman,Right,
14,1,3,0.5161151000002064,['n'],1,right,none,-99,-99,0.5,-99,0,none,27,18,Woman,Right,
15,1,3,0.6013911000000007,['n'],0,left,none,-99,-99,0.5,-99,0,none,27,18,Woman,Right,
16,1,3,0.6501365000003716,['n'],1,right,none,-99,-99,0.5,-99,0,none,27,18,Woman,Right,
17,1,3,0.49864830000024085,['n'],1,right,none,-99,-99,0.5,-99,0,none,27,18,Woman,Right,
18,1,3,0.4821107000007032,['n'],1,right,none,-99,-99,0.5,-99,0,none,27,18,Woman,Right,
19,1,3,0.38483889999952225,['n'],0,left,none,-99,-99,0.5,-99,0,none,27,18,Woman,Right,
20,1,3,0.6669893000007505,['n'],1,right,none,-99,-99,0.5,-99,0,none,27,18,Woman,Right,
21,1,3,0.4328244000007544,['c'],1,left,none,-99,-99,0.5,-99,0,none,27,18,Woman,Right,
22,1,3,0.5158245000002353,['n'],1,right,none,-99,-99,0.5,-99,0,none,27,18,Woman,Right,
23,1,3,0.482947299999978,['n'],0,left,none,-99,-99,0.5,-99,0,none,27,18,Woman,Right,
0,1,4,0.5327150000002803,['n'],1,right,none,-99,-99,0.5,-99,0,none,27,18,Woman,Right,
1,1,4,0.4829461999997875,['n'],1,right,none,-99,-99,0.5,-99,0,none,27,18,Woman,Right,
2,1,4,0.7177972999998019,['n'],1,right,none,-99,-99,0.5,-99,0,none,27,18,Woman,Right,
3,1,4,0.6662744999994175,['c'],1,left,none,-99,-99,0.5,-99,0,none,27,18,Woman,Right,
4,1,4,0.4513558999997258,['n'],1,right,none,-99,-99,0.5,-99,0,none,27,18,Woman,Right,
5,1,4,0.5514808999996603,['n'],1,right,none,-99,-99,0.5,-99,0,none,27,18,Woman,Right,
6,1,4,0.602126099999623,['n'],1,right,none,-99,-99,0.5,-99,0,none,27,18,Woman,Right,
7,1,4,0.4181960000005347,['c'],1,left,none,-99,-99,0.5,-99,0,none,27,18,Woman,Right,
8,1,4,0.468852699999843,['n'],1,right,none,-99,-99,0.5,-99,0,none,27,18,Woman,Right,
9,1,4,0.7851905999996234,['c'],1,left,none,-99,-99,0.5,-99,0,none,27,18,Woman,Right,
10,1,4,0.35060410000005504,['n'],1,right,none,-99,-99,0.5,-99,0,none,27,18,Woman,Right,
11,1,4,0.6655988000002253,['c'],1,left,none,-99,-99,0.5,-99,0,none,27,18,Woman,Right,
12,1,4,0.46829560000060155,['n'],1,right,none,-99,-99,0.5,-99,0,none,27,18,Woman,Right,
13,1,4,0.5327366999999867,['n'],1,right,none,-99,-99,0.5,-99,0,none,27,18,Woman,Right,
14,1,4,0.5680998000007094,['c'],1,left,none,-99,-99,0.5,-99,0,none,27,18,Woman,Right,
15,1,4,0.6671312999997099,['n'],0,left,none,-99,-99,0.5,-99,0,none,27,18,Woman,Right,
16,1,4,0.9683456999991904,['c'],1,left,none,-99,-99,0.5,-99,0,none,27,18,Woman,Right,
17,1,4,0.8683894999994664,['c'],1,left,none,-99,-99,0.5,-99,0,none,27,18,Woman,Right,
18,1,4,0.5352273000007699,['n'],1,right,none,-99,-99,0.5,-99,0,none,27,18,Woman,Right,
19,1,4,0.700524800000494,['c'],1,left,none,-99,-99,0.5,-99,0,none,27,18,Woman,Right,
20,1,4,0.8000455999999758,['c'],1,left,none,-99,-99,0.5,-99,0,none,27,18,Woman,Right,
21,1,4,0.983270700000503,['n'],0,left,none,-99,-99,0.5,-99,0,none,27,18,Woman,Right,
22,1,4,1.0178689000003942,['c'],0,right,none,-99,-99,0.5,-99,0,none,27,18,Woman,Right,
23,1,4,1.1831007999999201,['c'],1,left,none,-99,-99,0.5,-99,0,none,27,18,Woman,Right,
0,2,1,0.9682035999994696,['n'],1,right,none,-99,-99,0.2,-99,0,none,27,18,Woman,Right,
1,2,1,0.9690692000003764,['c'],1,left,none,-99,-99,0.4,-99,0,none,27,18,Woman,Right,
2,2,1,2.249979899999744,['c'],1,left,none,-99,-99,0.1,-99,0,none,27,18,Woman,Right,
3,2,1,1.2498393000005308,['c'],1,left,none,-99,-99,0.1,-99,0,none,27,18,Woman,Right,
4,2,1,1.3506196000007549,['c'],0,right,none,-99,-99,0.1,-99,0,none,27,18,Woman,Right,
5,2,1,1.2492582000004404,['n'],1,right,none,-99,-99,0.4,-99,0,none,27,18,Woman,Right,
6,2,1,0.7516608999994787,['n'],0,left,none,-99,-99,0.4,-99,0,none,27,18,Woman,Right,
7,2,1,1.7826589000005697,['c'],1,left,none,-99,-99,0.2,-99,0,none,27,18,Woman,Right,
8,2,1,0.5481933999999455,['n'],0,left,none,-99,-99,0.4,-99,0,none,27,18,Woman,Right,
9,2,1,1.4013881999999285,['n'],0,left,none,-99,-99,0.2,-99,0,none,27,18,Woman,Right,
10,2,1,0.7005441999999675,['c'],0,right,none,-99,-99,0.2,-99,0,none,27,18,Woman,Right,
11,2,1,0.9814216000004308,['c'],1,left,none,-99,-99,0.1,-99,0,none,27,18,Woman,Right,
12,2,1,0.9671575000002122,['c'],0,right,none,-99,-99,0.2,-99,0,none,27,18,Woman,Right,
13,2,1,0.8663747000000512,['n'],1,right,none,-99,-99,0.4,-99,0,none,27,18,Woman,Right,
14,2,1,0.7517366000001857,['c'],1,left,none,-99,-99,0.4,-99,0,none,27,18,Woman,Right,
15,2,1,0.9337660000001051,['c'],0,right,none,-99,-99,0.1,-99,0,none,27,18,Woman,Right,
16,2,1,1.0002764000000752,['c'],1,left,none,-99,-99,0.1,-99,0,none,27,18,Woman,Right,
17,2,1,0.9326223999996728,['c'],0,right,none,-99,-99,0.2,-99,0,none,27,18,Woman,Right,
18,2,1,0.8499122999992323,['n'],1,right,none,-99,-99,0.4,-99,0,none,27,18,Woman,Right,
19,2,1,1.4845499000002746,['c'],1,left,none,-99,-99,0.2,-99,0,none,27,18,Woman,Right,
20,2,1,0.8000873000000865,['c'],1,left,none,-99,-99,0.1,-99,0,none,27,18,Woman,Right,
21,2,1,0.783187199999702,['n'],1,right,none,-99,-99,0.2,-99,0,none,27,18,Woman,Right,
22,2,1,1.048996999999872,['c'],0,right,none,-99,-99,0.4,-99,0,none,27,18,Woman,Right,
23,2,1,0.8172412000003533,['n'],1,right,none,-99,-99,0.1,-99,0,none,27,18,Woman,Right,
0,3,1,2.5993028000002596,['c'],1,left,['e'],0,2.508278799999971,0.4,0,0,none,27,18,Woman,Right,
1,3,1,2.184817899999871,['n'],0,left,['u'],1,0.7591222999999445,0.4,0,0,none,27,18,Woman,Right,
2,3,1,4.799500899999657,['n'],1,right,['e'],0,0.8644744000002902,0.2,0,0,none,27,18,Woman,Right,
3,3,1,1.4515624999994543,['c'],1,left,['u'],1,0.8573115999997754,0.2,1,0,none,27,18,Woman,Right,
4,3,1,1.1331934999998339,['n'],1,right,['u'],1,0.5764588000001822,0.4,1,0,none,27,18,Woman,Right,
5,3,1,1.518366799999967,['n'],0,left,['u'],1,1.4434078000003865,0.2,0,0,none,27,18,Woman,Right,
6,3,1,3.349816400000236,['c'],0,right,['e'],0,1.1792664000004152,0.2,1,0,none,27,18,Woman,Right,
7,3,1,1.484068999999181,['n'],0,left,['u'],1,0.39238320000004023,0.2,0,0,none,27,18,Woman,Right,
8,3,1,1.5663036000005377,['c'],0,right,['e'],0,0.7525660999999673,0.4,1,0,none,27,18,Woman,Right,
9,3,1,2.5334719000002224,['n'],1,right,['u'],1,0.46625850000054925,0.4,1,0,none,27,18,Woman,Right,
10,3,1,1.866959400000269,['n'],1,right,['u'],1,0.9081305999998222,0.4,1,0,none,27,18,Woman,Right,
11,3,1,1.1507590000001073,['c'],1,left,['u'],1,0.46442209999986517,0.2,1,0,none,27,18,Woman,Right,
12,3,1,4.765585699999974,['c'],1,left,['e'],0,0.2774614999998448,0.1,0,0,none,27,18,Woman,Right,
13,3,1,0.9011936999995669,['c'],0,right,['e'],0,0.4124165000002904,0.1,1,0,none,27,18,Woman,Right,
14,3,1,1.934969899999487,['n'],0,left,['e'],0,0.2607354000001578,0.1,1,0,none,27,18,Woman,Right,
15,3,1,4.598584400000618,['c'],0,right,['e'],0,0.3141652000003887,0.1,1,0,none,27,18,Woman,Right,
16,3,1,1.1346942000000126,['n'],0,left,['u'],1,0.3577423999995517,0.2,0,0,none,27,18,Woman,Right,
17,3,1,1.651522500000283,['n'],1,right,['u'],1,0.4920514000004914,0.1,1,0,none,27,18,Woman,Right,
18,3,1,3.567966399999932,['c'],0,right,['e'],0,0.33725740000045334,0.4,1,0,none,27,18,Woman,Right,
19,3,1,3.784278899999663,['c'],0,right,['e'],0,0.7062211000002208,0.4,1,0,none,27,18,Woman,Right,
20,3,1,1.5505354000006264,['n'],0,left,['u'],1,0.7026286999998774,0.1,0,0,none,27,18,Woman,Right,
21,3,1,3.2333643000001757,['c'],1,left,['e'],0,0.9043136000000231,0.1,0,0,none,27,18,Woman,Right,
22,3,1,5.000458999999864,x,-99,left,none,-99,-99,0.2,-99,1,none,27,18,Woman,Right,
23,3,1,0.5336421000001792,['n'],1,right,['u'],1,0.45154530000036175,0.1,1,0,none,27,18,Woman,Right,
0,4,1,2.083641700000044,['c'],1,left,['e'],0,0.8309607999999571,0.4,0,0,AccAcc,27,18,Woman,Right,
1,4,1,1.2176993000002767,['n'],0,left,['u'],1,0.73462599999948,0.4,0,0,AccAcc,27,18,Woman,Right,
2,4,1,1.5345902999997634,['c'],1,left,['u'],1,0.6462834000003568,0.4,1,0,AccAcc,27,18,Woman,Right,
3,4,1,1.2516046999999162,['n'],1,right,['u'],1,0.7487265999998272,0.1,1,0,AccAcc,27,18,Woman,Right,
4,4,1,1.8512891000000309,['c'],0,right,['e'],0,0.5671456000000035,0.1,1,0,AccAcc,27,18,Woman,Right,
5,4,1,1.9345088000000032,['c'],1,left,['u'],1,0.5654174999999668,0.4,1,0,AccAcc,27,18,Woman,Right,
6,4,1,0.7851194000004398,['n'],1,right,['u'],1,0.4336827000006451,0.1,1,0,AccAcc,27,18,Woman,Right,
7,4,1,1.5341232000000673,['n'],1,right,['u'],1,0.5980632000000696,0.2,1,0,AccAcc,27,18,Woman,Right,
8,4,1,0.9681409000004351,['c'],1,left,['u'],1,0.47373199999947246,0.4,1,0,AccAcc,27,18,Woman,Right,
9,4,1,1.5680525999996462,['n'],1,right,['e'],0,0.5859909000000698,0.4,0,0,AccAcc,27,18,Woman,Right,
10,4,1,1.1658608999996432,['n'],0,left,['u'],1,0.5830300999996325,0.1,0,0,AccAcc,27,18,Woman,Right,
11,4,1,0.9347816000008606,['c'],1,left,['u'],1,0.4926713999993808,0.4,1,0,AccAcc,27,18,Woman,Right,
12,4,1,1.5347704999994676,['c'],1,left,['u'],1,0.9734780999997383,0.2,1,0,AccAcc,27,18,Woman,Right,
13,4,1,1.235265399999662,['n'],1,right,['e'],0,0.5521275999999489,0.2,0,0,AccAcc,27,18,Woman,Right,
14,4,1,1.6001255999999557,['c'],1,left,['u'],1,0.8364971000000878,0.4,1,0,AccAcc,27,18,Woman,Right,
15,4,1,1.500139499999932,['n'],0,left,['e'],0,1.225796800000353,0.4,1,0,AccAcc,27,18,Woman,Right,
16,4,1,2.284176099999968,['c'],0,right,['e'],0,0.7038468000000648,0.4,1,0,AccAcc,27,18,Woman,Right,
17,4,1,2.4848739999997633,['n'],1,right,['e'],0,0.4511378000006516,0.2,0,0,AccAcc,27,18,Woman,Right,
18,4,1,2.500841600000058,['n'],0,left,['e'],0,0.5914175999996587,0.1,1,0,AccAcc,27,18,Woman,Right,
19,4,1,2.3176433999997244,['n'],1,right,['e'],0,0.30175770000005286,0.2,0,0,AccAcc,27,18,Woman,Right,
20,4,1,1.0344536000002336,['c'],1,left,['u'],1,0.4430140999993455,0.2,1,0,AccAcc,27,18,Woman,Right,
21,4,1,1.2682801999999356,['n'],1,right,['u'],1,0.8899128000002747,0.4,1,0,AccAcc,27,18,Woman,Right,
22,4,1,2.3512288000001718,['c'],1,left,['e'],0,0.554257000000689,0.1,0,0,AccAcc,27,18,Woman,Right,
23,4,1,1.451483300000291,['n'],0,left,['u'],1,0.49257330000000366,0.2,0,0,AccAcc,27,18,Woman,Right,
24,4,1,1.2849922999994305,['n'],1,right,['u'],1,0.440449599999738,0.2,1,0,AccAcc,27,18,Woman,Right,
25,4,1,1.3492829999995593,['c'],0,right,['u'],1,0.7082503000001452,0.1,0,0,AccAcc,27,18,Woman,Right,
26,4,1,2.4837373999998817,['c'],0,right,['e'],0,0.47030089999952907,0.2,1,0,AccAcc,27,18,Woman,Right,
27,4,1,1.084846299999299,['c'],1,left,['u'],1,0.3634509000003163,0.4,1,0,AccAcc,27,18,Woman,Right,
28,4,1,1.2516734000000724,['c'],1,left,['e'],0,0.8283910999998625,0.2,0,0,AccAcc,27,18,Woman,Right,
29,4,1,1.3337916000000405,['c'],1,left,['e'],0,0.6000733000000764,0.2,0,0,AccAcc,27,18,Woman,Right,
30,4,1,2.0011931999997614,['c'],1,left,['e'],0,0.5302996000000348,0.1,0,0,AccAcc,27,18,Woman,Right,
31,4,1,1.7011035000004995,['n'],0,left,['u'],1,0.4915043999999398,0.1,0,0,AccAcc,27,18,Woman,Right,
32,4,1,1.1012473000000682,['c'],1,left,['u'],1,0.3825083000001541,0.4,1,0,AccAcc,27,18,Woman,Right,
33,4,1,2.301869299999453,['n'],1,right,['e'],0,0.325627500000337,0.1,0,0,AccAcc,27,18,Woman,Right,
34,4,1,1.8002268000000186,['c'],1,left,['u'],1,0.7080226000007315,0.1,1,0,AccAcc,27,18,Woman,Right,
35,4,1,1.2510219000005236,['c'],1,left,['u'],1,0.36035639999954583,0.2,1,0,AccAcc,27,18,Woman,Right,
36,4,1,1.1510244999999486,['c'],1,left,['u'],1,0.6386652999999569,0.2,1,0,AccAcc,27,18,Woman,Right,
37,4,1,1.8330243999998856,['n'],1,right,['u'],1,0.7501993999994738,0.4,1,0,AccAcc,27,18,Woman,Right,
38,4,1,0.618029999999635,['c'],1,left,['u'],1,0.457132399999864,0.4,1,0,AccAcc,27,18,Woman,Right,
39,4,1,2.1178045999995447,['n'],1,right,['e'],0,0.30889980000029027,0.2,0,0,AccAcc,27,18,Woman,Right,
40,4,1,1.2349478000005547,['c'],0,right,['u'],1,0.49075009999978647,0.1,0,0,AccAcc,27,18,Woman,Right,
41,4,1,2.11635699999988,['c'],0,right,['e'],0,0.45234679999975924,0.1,1,0,AccAcc,27,18,Woman,Right,
42,4,1,1.8177194999998392,['c'],1,left,['e'],0,0.6363533000003372,0.2,0,0,AccAcc,27,18,Woman,Right,
43,4,1,1.4678666999998313,['n'],1,right,['u'],1,0.31429000000025553,0.1,1,0,AccAcc,27,18,Woman,Right,
44,4,1,2.050638199999412,['c'],1,left,['e'],0,0.7980618000001414,0.1,0,0,AccAcc,27,18,Woman,Right,
45,4,1,1.6346756000002642,['n'],1,right,['e'],0,0.6711059999997815,0.2,0,0,AccAcc,27,18,Woman,Right,
46,4,1,1.3505320999993273,['n'],1,right,['u'],1,0.44882529999995313,0.4,1,0,AccAcc,27,18,Woman,Right,
47,4,1,1.6842066000008344,['c'],0,right,['u'],1,0.4138840000005075,0.2,0,0,AccAcc,27,18,Woman,Right,
48,4,1,1.367664400000649,['c'],1,left,['u'],1,0.3290043000006335,0.1,1,0,AccAcc,27,18,Woman,Right,
49,4,1,1.9848904000000402,['n'],0,left,['e'],0,0.27057650000006106,0.1,1,0,AccAcc,27,18,Woman,Right,
50,4,1,2.4006749000000127,['n'],1,right,['e'],0,0.3103518999996595,0.2,0,0,AccAcc,27,18,Woman,Right,
51,4,1,1.268044800000098,['n'],1,right,['u'],1,0.5700016999999207,0.4,1,0,AccAcc,27,18,Woman,Right,
52,4,1,0.9183128999993642,['n'],1,right,['u'],1,0.32094510000024457,0.1,1,0,AccAcc,27,18,Woman,Right,
53,4,1,0.8841771999996126,['n'],1,right,['u'],1,0.33998590000010154,0.2,1,0,AccAcc,27,18,Woman,Right,
54,4,1,0.8344090999999025,['n'],1,right,['u'],1,0.35912139999982173,0.1,1,0,AccAcc,27,18,Woman,Right,
55,4,1,0.5178435000007084,['c'],0,right,['u'],1,0.47029879999990953,0.4,0,0,AccAcc,27,18,Woman,Right,
56,4,1,1.8331484999998793,['c'],0,right,['e'],0,0.31773040000007313,0.2,1,0,AccAcc,27,18,Woman,Right,
57,4,1,0.8834600000000137,['n'],1,right,['u'],1,0.3837779999994382,0.4,1,0,AccAcc,27,18,Woman,Right,
58,4,1,1.3344897000006313,['c'],1,left,['e'],0,0.556780400000207,0.4,0,0,AccAcc,27,18,Woman,Right,
59,4,1,0.9512577000004967,['c'],1,left,['u'],1,0.3068336999995154,0.1,1,0,AccAcc,27,18,Woman,Right,
0,5,1,0.9013247000002593,['c'],1,left,['u'],1,1.1058579999998983,0.1,1,0,FastAcc,27,18,Woman,Right,
1,5,1,1.3860144999998738,['n'],1,right,['e'],0,0.44908359999953973,0.2,0,0,FastAcc,27,18,Woman,Right,
2,5,1,0.7157979000003252,['c'],1,left,['u'],1,0.6140167000003203,0.4,1,0,FastAcc,27,18,Woman,Right,
3,5,1,0.6361290000004374,['c'],0,right,['u'],1,0.7088179000002128,0.2,0,0,FastAcc,27,18,Woman,Right,
4,5,1,1.100490499999978,['c'],1,left,['e'],0,0.6711218000000372,0.1,0,0,FastAcc,27,18,Woman,Right,
5,5,1,0.7832527000000482,['c'],1,left,['u'],1,0.7449532999999064,0.4,1,0,FastAcc,27,18,Woman,Right,
6,5,1,2.3680995999993684,['c'],1,left,['e'],0,0.4619286999995893,0.2,0,0,FastAcc,27,18,Woman,Right,
7,5,1,1.0687728000002608,['n'],1,right,['u'],1,1.2829725000001417,0.2,1,0,FastAcc,27,18,Woman,Right,
8,5,1,1.6678639000001567,['n'],1,right,['u'],1,0.2393898000000263,0.1,1,0,FastAcc,27,18,Woman,Right,
9,5,1,1.849087800000234,['n'],1,right,['e'],0,0.17517979999956879,0.2,0,0,FastAcc,27,18,Woman,Right,
10,5,1,1.884897699999783,['c'],0,right,['e'],0,0.6548813999997947,0.1,1,0,FastAcc,27,18,Woman,Right,
11,5,1,1.2510730000003605,['c'],0,right,['u'],1,0.32633069999974396,0.4,0,0,FastAcc,27,18,Woman,Right,
12,5,1,1.6162780000004204,['c'],0,right,['e'],0,0.8749485999996978,0.1,1,0,FastAcc,27,18,Woman,Right,
13,5,1,1.449370899999849,['n'],0,left,['e'],0,0.48051440000017465,0.4,1,0,FastAcc,27,18,Woman,Right,
14,5,1,2.16657320000013,['c'],0,right,['e'],0,0.6645746999993207,0.4,1,0,FastAcc,27,18,Woman,Right,
15,5,1,2.4845266000002084,['c'],1,left,['e'],0,0.4607249000000593,0.1,0,0,FastAcc,27,18,Woman,Right,
16,5,1,1.2337290999994366,['n'],1,right,['e'],0,0.6211019000002125,0.2,0,0,FastAcc,27,18,Woman,Right,
17,5,1,1.9500559999996767,['c'],0,right,['u'],1,0.24879000000055385,0.1,0,0,FastAcc,27,18,Woman,Right,
18,5,1,2.13281730000017,['c'],1,left,['u'],1,0.4744160999998712,0.1,1,0,FastAcc,27,18,Woman,Right,
19,5,1,1.3020908999997118,['n'],1,right,['u'],1,0.5994361000002755,0.2,1,0,FastAcc,27,18,Woman,Right,
20,5,1,2.09942989999945,['c'],1,left,['e'],0,1.373668400000497,0.4,0,0,FastAcc,27,18,Woman,Right,
21,5,1,1.850148900000022,['c'],0,right,['e'],0,0.4951406999998653,0.1,1,0,FastAcc,27,18,Woman,Right,
22,5,1,1.3489124000006996,['n'],0,left,['e'],0,0.6640237999999954,0.1,1,0,FastAcc,27,18,Woman,Right,
23,5,1,1.5839085999996314,['n'],0,left,['u'],1,0.4484177999993335,0.4,0,0,FastAcc,27,18,Woman,Right,
24,5,1,1.2679512000004252,['n'],0,left,['u'],1,0.7172773000002053,0.1,0,0,FastAcc,27,18,Woman,Right,
25,5,1,1.4836594000007608,['c'],0,right,['e'],0,1.0956664999994246,0.4,1,0,FastAcc,27,18,Woman,Right,
26,5,1,1.3849374999999782,['n'],1,right,['u'],1,0.7908168999992995,0.1,1,0,FastAcc,27,18,Woman,Right,
27,5,1,1.1675674999996772,['n'],1,right,['u'],1,0.3631920000007085,0.2,1,0,FastAcc,27,18,Woman,Right,
28,5,1,1.317902800000411,['c'],1,left,['e'],0,0.8099540000002889,0.1,0,0,FastAcc,27,18,Woman,Right,
29,5,1,1.4684532999999647,['c'],1,left,['u'],1,0.753716400000485,0.4,1,0,FastAcc,27,18,Woman,Right,
30,5,1,1.984665899999527,['c'],1,left,['e'],0,0.5349322000001848,0.4,0,0,FastAcc,27,18,Woman,Right,
31,5,1,1.967618699999548,['n'],1,right,['e'],0,0.581322299999556,0.4,0,0,FastAcc,27,18,Woman,Right,
32,5,1,1.6171266000001197,['n'],0,left,['u'],1,0.4156548999999359,0.2,0,0,FastAcc,27,18,Woman,Right,
33,5,1,1.1660427000006166,['n'],0,left,['u'],1,0.467947400000412,0.2,0,0,FastAcc,27,18,Woman,Right,
34,5,1,1.8181142000003092,['n'],0,left,['e'],0,0.617841899999803,0.1,1,0,FastAcc,27,18,Woman,Right,
35,5,1,2.268031300000075,['n'],1,right,['e'],0,0.53679319999992,0.2,0,0,FastAcc,27,18,Woman,Right,
36,5,1,2.4510409000004074,['c'],1,left,['u'],1,0.7397966999997152,0.4,1,0,FastAcc,27,18,Woman,Right,
37,5,1,1.2180085999998482,['n'],1,right,['u'],1,0.9040642999998454,0.2,1,0,FastAcc,27,18,Woman,Right,
38,5,1,1.7354361000006975,['n'],0,left,['u'],1,0.6580467999992834,0.1,0,0,FastAcc,27,18,Woman,Right,
39,5,1,1.28448600000047,['c'],1,left,['e'],0,0.5343832000007751,0.1,0,0,FastAcc,27,18,Woman,Right,
40,5,1,1.0345917000004192,['c'],1,left,['u'],1,0.28180869999960123,0.2,1,0,FastAcc,27,18,Woman,Right,
41,5,1,3.6670505000001867,['c'],1,left,['e'],0,0.542449999999917,0.2,0,0,FastAcc,27,18,Woman,Right,
42,5,1,2.100985600000058,['n'],1,right,['e'],0,1.0794464000000517,0.2,0,0,FastAcc,27,18,Woman,Right,
43,5,1,2.649894299999687,['c'],1,left,['e'],0,1.0455464999995456,0.4,0,0,FastAcc,27,18,Woman,Right,
44,5,1,0.8006502999996883,['n'],0,left,['e'],0,0.9098242000000027,0.2,1,0,FastAcc,27,18,Woman,Right,
45,5,1,2.4841519000001426,['n'],0,left,['e'],0,0.2968768999999156,0.2,1,0,FastAcc,27,18,Woman,Right,
46,5,1,2.9176815999999235,['c'],0,right,['u'],1,0.8587385000000722,0.4,0,0,FastAcc,27,18,Woman,Right,
47,5,1,1.7845938999998907,['c'],0,right,['u'],1,0.691735499999595,0.2,0,0,FastAcc,27,18,Woman,Right,
48,5,1,3.6005431000003227,['c'],1,left,['e'],0,1.2429982000003292,0.4,0,0,FastAcc,27,18,Woman,Right,
49,5,1,1.450877500000388,['c'],0,right,['e'],0,0.5621952000001329,0.4,1,0,FastAcc,27,18,Woman,Right,
50,5,1,2.7331836000003022,['n'],1,right,['e'],0,0.4173921000001428,0.4,0,0,FastAcc,27,18,Woman,Right,
51,5,1,1.4159083000004102,['c'],0,right,['e'],0,0.5062500000003638,0.1,1,0,FastAcc,27,18,Woman,Right,
52,5,1,1.9506455999999162,['n'],1,right,['u'],1,0.7459021000004213,0.4,1,0,FastAcc,27,18,Woman,Right,
53,5,1,2.6000005999994755,['c'],0,right,['e'],0,0.5663822999995318,0.4,1,0,FastAcc,27,18,Woman,Right,
54,5,1,2.2847416999993584,['n'],0,left,['e'],0,0.24770119999993767,0.2,1,0,FastAcc,27,18,Woman,Right,
55,5,1,2.8849614000000656,['n'],0,left,['e'],0,0.7160011999994822,0.4,1,0,FastAcc,27,18,Woman,Right,
56,5,1,1.1510872999997446,['n'],1,right,['e'],0,0.6276324999998906,0.1,0,0,FastAcc,27,18,Woman,Right,
57,5,1,2.283525400000144,['c'],1,left,['e'],0,0.4189329999999245,0.1,0,0,FastAcc,27,18,Woman,Right,
58,5,1,1.9517238999997062,['c'],0,right,['e'],0,0.3899018000001888,0.1,1,0,FastAcc,27,18,Woman,Right,
59,5,1,2.1681565999997474,['n'],1,right,['e'],0,0.3702498000002379,0.2,0,0,FastAcc,27,18,Woman,Right,
0,6,1,1.5345312000008562,['n'],0,left,['e'],0,0.5399668999998539,0.4,1,0,FastFast,27,18,Woman,Right,
1,6,1,1.4842281999999614,['c'],1,left,['u'],1,0.5253406000001632,0.1,1,0,FastFast,27,18,Woman,Right,
2,6,1,1.2350139999998646,['n'],1,right,['u'],1,0.34569530000044324,0.2,1,0,FastFast,27,18,Woman,Right,
3,6,1,1.6180364000001646,['c'],1,left,['u'],1,0.5574267000001782,0.2,1,0,FastFast,27,18,Woman,Right,
4,6,1,1.3514135000004899,['c'],0,right,['e'],0,0.7876730000007228,0.1,1,0,FastFast,27,18,Woman,Right,
5,6,1,1.1343128999997134,['n'],1,right,['u'],1,0.24962580000010348,0.2,1,0,FastFast,27,18,Woman,Right,
6,6,1,1.1179497000002812,['n'],0,left,['u'],1,0.3092343999996956,0.4,0,0,FastFast,27,18,Woman,Right,
7,6,1,0.8191881000002468,['n'],1,right,['u'],1,0.2506613000005018,0.4,1,0,FastFast,27,18,Woman,Right,
8,6,1,0.633679900000061,['c'],1,left,['u'],1,0.7455651000000216,0.1,1,0,FastFast,27,18,Woman,Right,
9,6,1,0.7668180000000575,['n'],1,right,['u'],1,0.3031834000003073,0.4,1,0,FastFast,27,18,Woman,Right,
10,6,1,0.9836864999997488,['c'],0,right,['u'],1,0.350200799999584,0.2,0,0,FastFast,27,18,Woman,Right,
11,6,1,1.0001498999999967,['n'],1,right,['u'],1,0.3472725999999966,0.2,1,0,FastFast,27,18,Woman,Right,
12,6,1,0.8512651000000915,['n'],1,right,['e'],0,0.9247379999997065,0.2,0,0,FastFast,27,18,Woman,Right,
13,6,1,1.66636329999983,['c'],1,left,['e'],0,1.3688288000003013,0.2,0,0,FastFast,27,18,Woman,Right,
14,6,1,2.1510011000000304,['c'],1,left,['e'],0,0.5575998000003892,0.1,0,0,FastFast,27,18,Woman,Right,
15,6,1,0.7838498999999501,['n'],1,right,['u'],1,0.41058759999941685,0.1,1,0,FastFast,27,18,Woman,Right,
16,6,1,0.8506748999998308,['n'],1,right,['u'],1,0.2508159999997588,0.2,1,0,FastFast,27,18,Woman,Right,
17,6,1,1.26767049999944,['c'],1,left,['u'],1,0.3363651999998183,0.4,1,0,FastFast,27,18,Woman,Right,
18,6,1,1.517894200000228,['n'],1,right,['u'],1,0.3447846999997637,0.1,1,0,FastFast,27,18,Woman,Right,
19,6,1,1.6024866999996448,['c'],1,left,['e'],0,0.3818677999997817,0.1,0,0,FastFast,27,18,Woman,Right,
20,6,1,1.3846854999992502,['n'],1,right,['u'],1,0.6816090000002077,0.2,1,0,FastFast,27,18,Woman,Right,
21,6,1,1.8170001000007687,['c'],1,left,['e'],0,0.7279135999997379,0.2,0,0,FastFast,27,18,Woman,Right,
22,6,1,0.7012267999998585,['n'],1,right,['u'],1,0.545449500000359,0.4,1,0,FastFast,27,18,Woman,Right,
23,6,1,1.2177456999997958,['c'],0,right,['u'],1,0.8291435999999521,0.2,0,0,FastFast,27,18,Woman,Right,
24,6,1,2.1175869999997303,['n'],1,right,['e'],0,0.2817598999999973,0.1,0,0,FastFast,27,18,Woman,Right,
25,6,1,0.9682910000001357,['c'],1,left,['e'],0,1.097881700000471,0.2,0,0,FastFast,27,18,Woman,Right,
26,6,1,2.301066500000161,['c'],0,right,['e'],0,1.028286499999922,0.1,1,0,FastFast,27,18,Woman,Right,
27,6,1,1.1844444999996995,['n'],1,right,['u'],1,0.39797400000043126,0.1,1,0,FastFast,27,18,Woman,Right,
28,6,1,1.4179992999997921,['c'],1,left,['e'],0,0.8717219000000114,0.4,0,0,FastFast,27,18,Woman,Right,
29,6,1,1.9341921999994156,['n'],0,left,['u'],1,1.1623541999997542,0.1,0,0,FastFast,27,18,Woman,Right,
30,6,1,1.7676055000001725,['c'],1,left,['u'],1,0.23127459999977873,0.4,1,0,FastFast,27,18,Woman,Right,
31,6,1,1.5002396999998382,['n'],1,right,['u'],1,0.4844010000006165,0.2,1,0,FastFast,27,18,Woman,Right,
32,6,1,2.4349017000004096,['n'],0,left,['e'],0,0.7219484999995984,0.4,1,0,FastFast,27,18,Woman,Right,
33,6,1,1.466611699999703,['n'],1,right,['e'],0,0.6700165000002016,0.2,0,0,FastFast,27,18,Woman,Right,
34,6,1,1.367401599999539,['n'],1,right,['e'],0,0.31807109999954264,0.4,0,0,FastFast,27,18,Woman,Right,
35,6,1,1.817770599999676,['c'],1,left,['u'],1,0.3312019999993936,0.2,1,0,FastFast,27,18,Woman,Right,
36,6,1,2.084503699999914,['n'],1,right,['e'],0,0.33274119999987306,0.1,0,0,FastFast,27,18,Woman,Right,
37,6,1,2.7172221999999238,['n'],1,right,['e'],0,0.6133573000006436,0.1,0,0,FastFast,27,18,Woman,Right,
38,6,1,1.217526700000235,['c'],1,left,['e'],0,0.7664251999995031,0.4,0,0,FastFast,27,18,Woman,Right,
39,6,1,1.0344823999994333,['c'],1,left,['e'],0,0.7926589999997304,0.4,0,0,FastFast,27,18,Woman,Right,
40,6,1,2.5181668999994145,['n'],0,left,['e'],0,0.6151669999999285,0.1,1,0,FastFast,27,18,Woman,Right,
41,6,1,1.7841719999996712,['n'],0,left,['e'],0,0.2500956000003498,0.1,1,0,FastFast,27,18,Woman,Right,
42,6,1,2.0846443999998883,['n'],1,right,['e'],0,0.4625086999994892,0.2,0,0,FastFast,27,18,Woman,Right,
43,6,1,0.7840391999998246,['c'],1,left,['u'],1,0.4630251999997199,0.4,1,0,FastFast,27,18,Woman,Right,
44,6,1,1.9343048999999155,['n'],1,right,['u'],1,0.7211356000007072,0.4,1,0,FastFast,27,18,Woman,Right,
45,6,1,0.8846686999995654,['n'],1,right,['u'],1,0.32348819999970146,0.4,1,0,FastFast,27,18,Woman,Right,
46,6,1,0.8992670999996335,['c'],1,left,['u'],1,0.5344048999995721,0.4,1,0,FastFast,27,18,Woman,Right,
47,6,1,0.8508016000014322,['c'],1,left,['u'],1,1.3122131000000081,0.4,1,0,FastFast,27,18,Woman,Right,
48,6,1,1.8994538999995711,['n'],0,left,['e'],0,0.13044839999929536,0.1,1,0,FastFast,27,18,Woman,Right,
49,6,1,1.4181155000005674,['c'],1,left,['u'],1,0.23018640000009327,0.2,1,0,FastFast,27,18,Woman,Right,
50,6,1,0.9518207000000984,['c'],1,left,['u'],1,0.12107710000054794,0.1,1,0,FastFast,27,18,Woman,Right,
51,6,1,1.0513148000009096,['c'],1,left,['u'],1,0.17267549999996845,0.1,1,0,FastFast,27,18,Woman,Right,
52,6,1,1.40054119999877,['n'],0,left,['e'],0,0.1761147000015626,0.2,1,0,FastFast,27,18,Woman,Right,
53,6,1,1.9172211999994033,['n'],1,right,['e'],0,0.5112795999993978,0.2,0,0,FastFast,27,18,Woman,Right,
54,6,1,1.784546800001408,['c'],1,left,['e'],0,0.2783868000005896,0.2,0,0,FastFast,27,18,Woman,Right,
55,6,1,1.1671076999991783,['n'],1,right,['e'],0,0.2549068999996962,0.1,0,0,FastFast,27,18,Woman,Right,
56,6,1,1.5185351000000082,['n'],0,left,['e'],0,0.298298400000931,0.1,1,0,FastFast,27,18,Woman,Right,
57,6,1,0.8340243000002374,['n'],1,right,['e'],0,0.3192362999998295,0.4,0,0,FastFast,27,18,Woman,Right,
58,6,1,1.284741400000712,['n'],1,right,['e'],0,0.28968039999926987,0.4,0,0,FastFast,27,18,Woman,Right,
59,6,1,0.8015967999999702,['n'],1,right,['e'],0,0.21662930000093183,0.4,0,0,FastFast,27,18,Woman,Right,
0,7,1,0.8169578999986697,['n'],1,right,['u'],1,0.7651937000009639,0.2,1,0,AccFast,27,18,Woman,Right,
1,7,1,1.4513233999987278,['c'],1,left,['u'],1,0.8860378000008495,0.4,1,0,AccFast,27,18,Woman,Right,
2,7,1,1.7340114999988145,['n'],1,right,['e'],0,0.19194450000031793,0.1,0,0,AccFast,27,18,Woman,Right,
3,7,1,1.5183797999998205,['n'],0,left,['e'],0,0.5260596999996778,0.4,1,0,AccFast,27,18,Woman,Right,
4,7,1,0.9843486999998277,['c'],1,left,['u'],1,0.308288199999879,0.4,1,0,AccFast,27,18,Woman,Right,
5,7,1,1.0343050000010408,['n'],1,right,['u'],1,0.2741736999996647,0.2,1,0,AccFast,27,18,Woman,Right,
6,7,1,0.9185930000003282,['n'],1,right,['u'],1,0.2922560999995767,0.4,1,0,AccFast,27,18,Woman,Right,
7,7,1,1.366543799998908,['c'],1,left,['u'],1,0.7415926000012405,0.4,1,0,AccFast,27,18,Woman,Right,
8,7,1,1.384910899998431,['n'],1,right,['u'],1,0.5303743999993458,0.1,1,0,AccFast,27,18,Woman,Right,
9,7,1,1.418026400000599,['n'],1,right,['u'],1,0.5027807999995275,0.2,1,0,AccFast,27,18,Woman,Right,
10,7,1,0.9508485999995173,['n'],1,right,['e'],0,0.8469402999999147,0.4,0,0,AccFast,27,18,Woman,Right,
11,7,1,1.3845858000004228,['c'],0,right,['e'],0,0.3768147000009776,0.1,1,0,AccFast,27,18,Woman,Right,
12,7,1,1.9681674999992538,['n'],1,right,['e'],0,0.42911110000022745,0.2,0,0,AccFast,27,18,Woman,Right,
13,7,1,0.9347004000010202,['c'],1,left,['u'],1,0.24858409999978903,0.4,1,0,AccFast,27,18,Woman,Right,
14,7,1,1.4492300000001705,['c'],1,left,['e'],0,0.37563260000024457,0.2,0,0,AccFast,27,18,Woman,Right,
15,7,1,1.7670350999997027,['c'],0,right,['e'],0,0.5959548999999242,0.1,1,0,AccFast,27,18,Woman,Right,
16,7,1,1.6843527000000904,['n'],1,right,['e'],0,0.5069291999989218,0.1,0,0,AccFast,27,18,Woman,Right,
17,7,1,1.2849808000009943,['c'],1,left,['u'],1,0.3260742999991635,0.2,1,0,AccFast,27,18,Woman,Right,
18,7,1,1.2178755000004458,['n'],0,left,['e'],0,1.4992357999999513,0.2,1,0,AccFast,27,18,Woman,Right,
19,7,1,1.834510999999111,['n'],1,right,['u'],1,0.4561021999998047,0.1,1,0,AccFast,27,18,Woman,Right,
20,7,1,2.2171177999989595,['n'],1,right,['e'],0,0.49592089999896416,0.1,0,0,AccFast,27,18,Woman,Right,
21,7,1,1.9346287000007578,['n'],0,left,['e'],0,0.25686769999992975,0.4,1,0,AccFast,27,18,Woman,Right,
22,7,1,1.7345390999998926,['n'],1,right,['e'],0,0.3239778999995906,0.2,0,0,AccFast,27,18,Woman,Right,
23,7,1,0.9511335000006511,['n'],0,left,['e'],0,0.3395180999996228,0.4,1,0,AccFast,27,18,Woman,Right,
24,7,1,1.4849076999998942,['n'],0,left,['e'],0,0.3972269999994751,0.2,1,0,AccFast,27,18,Woman,Right,
25,7,1,2.150586200001271,['n'],1,right,['u'],1,0.31379329999981564,0.4,1,0,AccFast,27,18,Woman,Right,
26,7,1,1.3506400999995094,['n'],0,left,['u'],1,0.24969579999924463,0.4,0,0,AccFast,27,18,Woman,Right,
27,7,1,1.351288800000475,['n'],1,right,['u'],1,0.2996192000009614,0.2,1,0,AccFast,27,18,Woman,Right,
28,7,1,0.8504766000005475,['n'],0,left,['u'],1,0.3358972000005451,0.4,0,0,AccFast,27,18,Woman,Right,
29,7,1,1.2839435999994748,['n'],1,right,['u'],1,0.28967259999990347,0.1,1,0,AccFast,27,18,Woman,Right,
30,7,1,1.6013886000000639,['n'],1,right,['u'],1,0.29644980000011856,0.2,1,0,AccFast,27,18,Woman,Right,
31,7,1,2.984364600000845,['n'],0,left,['e'],0,0.4238476000009541,0.2,1,0,AccFast,27,18,Woman,Right,
32,7,1,1.2845341000011103,['c'],1,left,['e'],0,0.40616810000028636,0.4,0,0,AccFast,27,18,Woman,Right,
33,7,1,2.1182535999996617,['n'],1,right,['e'],0,1.4276362999989942,0.1,0,0,AccFast,27,18,Woman,Right,
34,7,1,0.7668864999996003,['n'],0,left,['e'],0,0.3515421000010974,0.1,1,0,AccFast,27,18,Woman,Right,
35,7,1,0.8180983000002016,['n'],0,left,['e'],0,0.32232160000057775,0.2,1,0,AccFast,27,18,Woman,Right,
36,7,1,1.7347090000002936,['n'],0,left,['e'],0,0.29098619999967923,0.4,1,0,AccFast,27,18,Woman,Right,
37,7,1,1.2179195999997319,['c'],0,right,['e'],0,0.3288812999999209,0.1,1,0,AccFast,27,18,Woman,Right,
38,7,1,2.2341378000000987,['c'],0,right,['e'],0,0.6130510999992111,0.4,1,0,AccFast,27,18,Woman,Right,
39,7,1,1.784450299999662,['n'],1,right,['u'],1,0.34303340000042226,0.2,1,0,AccFast,27,18,Woman,Right,
40,7,1,1.6846286999989388,['c'],0,right,['u'],1,0.2967006000017136,0.4,0,0,AccFast,27,18,Woman,Right,
41,7,1,2.8169862999984616,['n'],0,left,['u'],1,0.49481359999845154,0.2,0,0,AccFast,27,18,Woman,Right,
42,7,1,2.151178300000538,['c'],0,right,['e'],0,0.5674832999993669,0.1,1,0,AccFast,27,18,Woman,Right,
43,7,1,1.9175756000004185,['n'],0,left,['e'],0,1.1586790999990626,0.4,1,0,AccFast,27,18,Woman,Right,
44,7,1,1.9342316000002029,['n'],0,left,['e'],0,0.7658861999989313,0.2,1,0,AccFast,27,18,Woman,Right,
45,7,1,2.8661123999991105,['n'],1,right,['u'],1,1.151003099999798,0.4,1,0,AccFast,27,18,Woman,Right,
46,7,1,1.3675044999999955,['c'],0,right,['u'],1,0.30100640000091516,0.2,0,0,AccFast,27,18,Woman,Right,
47,7,1,0.968297999999777,['c'],1,left,['u'],1,0.2845619000017905,0.1,1,0,AccFast,27,18,Woman,Right,
48,7,1,0.9173680999992939,['n'],0,left,['u'],1,0.7506692999995721,0.1,0,0,AccFast,27,18,Woman,Right,
49,7,1,1.9177123999998003,['c'],1,left,['u'],1,0.8225241999989521,0.2,1,0,AccFast,27,18,Woman,Right,
50,7,1,2.617210200000045,['n'],0,left,['u'],1,0.46372489999885147,0.1,0,0,AccFast,27,18,Woman,Right,
51,7,1,2.817733200001385,['n'],1,right,['e'],0,0.2227536999998847,0.2,0,0,AccFast,27,18,Woman,Right,
52,7,1,2.633737899999687,['c'],0,right,['e'],0,0.6230491000005713,0.4,1,0,AccFast,27,18,Woman,Right,
53,7,1,1.267941800000699,['n'],0,left,['u'],1,0.7261797999999544,0.2,0,0,AccFast,27,18,Woman,Right,
54,7,1,1.8024174999991374,['n'],0,left,['e'],0,0.4840395000010176,0.1,1,0,AccFast,27,18,Woman,Right,
55,7,1,2.483732199998485,['c'],0,right,['e'],0,0.3515299999999115,0.1,1,0,AccFast,27,18,Woman,Right,
56,7,1,1.2013311999999132,['n'],0,left,['e'],0,0.6278844999997091,0.1,1,0,AccFast,27,18,Woman,Right,
57,7,1,2.5181175000016083,['n'],1,right,['e'],0,0.3291910999996617,0.1,0,0,AccFast,27,18,Woman,Right,
58,7,1,1.7346815999990213,['n'],0,left,['u'],1,0.32873190000100294,0.1,0,0,AccFast,27,18,Woman,Right,
59,7,1,1.500107100000605,['c'],1,left,['u'],1,0.7545547999998234,0.4,1,0,AccFast,27,18,Woman,Right,
0,8,1,1.1847956999990856,['n'],0,left,['e'],0,0.5038552999994863,0.1,1,0,AccAcc,27,18,Woman,Right,
1,8,1,1.4174622999998974,['c'],1,left,['e'],0,0.509895699999106,0.4,0,0,AccAcc,27,18,Woman,Right,
2,8,1,1.3344777000002068,['n'],1,right,['e'],0,0.3907208000000537,0.2,0,0,AccAcc,27,18,Woman,Right,
3,8,1,1.600995900000271,['n'],0,left,['e'],0,0.26545809999879566,0.4,1,0,AccAcc,27,18,Woman,Right,
4,8,1,1.4175618000008399,['n'],1,right,['u'],1,0.2645875000016531,0.1,1,0,AccAcc,27,18,Woman,Right,
5,8,1,1.23382760000095,['n'],1,right,['u'],1,0.46279150000009395,0.2,1,0,AccAcc,27,18,Woman,Right,
6,8,1,0.9513319999987289,['c'],1,left,['u'],1,0.4884360999985802,0.4,1,0,AccAcc,27,18,Woman,Right,
7,8,1,0.9513124000004609,['n'],1,right,['u'],1,0.2893205999989732,0.1,1,0,AccAcc,27,18,Woman,Right,
8,8,1,1.1016236000014032,['c'],1,left,['e'],0,0.7164188000006106,0.1,0,0,AccAcc,27,18,Woman,Right,
9,8,1,0.7660832999990816,['n'],0,left,['u'],1,0.4366418999998132,0.4,0,0,AccAcc,27,18,Woman,Right,
10,8,1,1.8674791000012192,['c'],1,left,['e'],0,0.346394500000315,0.1,0,0,AccAcc,27,18,Woman,Right,
11,8,1,1.199790299999222,['n'],0,left,['e'],0,1.1828471000007994,0.2,1,0,AccAcc,27,18,Woman,Right,
12,8,1,0.8677150000003166,['n'],1,right,['e'],0,0.6865244999989955,0.4,0,0,AccAcc,27,18,Woman,Right,
13,8,1,1.3664601000000403,['c'],1,left,['u'],1,1.6305439999996452,0.2,1,0,AccAcc,27,18,Woman,Right,
14,8,1,1.1678986000006262,['c'],1,left,['e'],0,1.057077900000877,0.1,0,0,AccAcc,27,18,Woman,Right,
15,8,1,0.8337836999999126,['n'],1,right,['u'],1,1.335971000000427,0.4,1,0,AccAcc,27,18,Woman,Right,
16,8,1,2.0844734000002063,['c'],1,left,['e'],0,0.5139715000004799,0.2,0,0,AccAcc,27,18,Woman,Right,
17,8,1,0.9682038000009925,['n'],1,right,['u'],1,0.8729055000003427,0.4,1,0,AccAcc,27,18,Woman,Right,
18,8,1,0.6841638999994757,['c'],1,left,['u'],1,0.3173480000004929,0.1,1,0,AccAcc,27,18,Woman,Right,
19,8,1,0.8345881000004738,['c'],1,left,['u'],1,0.2414773000000423,0.4,1,0,AccAcc,27,18,Woman,Right,
20,8,1,0.7843514999985928,['n'],1,right,['u'],1,0.4910813999995298,0.2,1,0,AccAcc,27,18,Woman,Right,
21,8,1,1.9014330000009068,['n'],0,left,['e'],0,0.7669580000001588,0.1,1,0,AccAcc,27,18,Woman,Right,
22,8,1,1.451702899999873,['c'],1,left,['e'],0,1.2562978999994812,0.2,0,0,AccAcc,27,18,Woman,Right,
23,8,1,1.134506499998679,['c'],1,left,['e'],0,0.6669911999997566,0.4,0,0,AccAcc,27,18,Woman,Right,
24,8,1,1.3847551999988355,['n'],1,right,['u'],1,0.49118600000110746,0.2,1,0,AccAcc,27,18,Woman,Right,
25,8,1,0.6504724000005808,['n'],1,right,['u'],1,0.6401117999994312,0.1,1,0,AccAcc,27,18,Woman,Right,
26,8,1,0.5681588999996166,['c'],1,left,['u'],1,0.3544077999995352,0.4,1,0,AccAcc,27,18,Woman,Right,
27,8,1,0.8514063999991777,['n'],1,right,['u'],1,0.24466250000114087,0.2,1,0,AccAcc,27,18,Woman,Right,
28,8,1,1.4013382000011916,['c'],1,left,['e'],0,0.27787830000124814,0.1,0,0,AccAcc,27,18,Woman,Right,
29,8,1,1.2341200999999273,['n'],1,right,['u'],1,0.3639399000003323,0.4,1,0,AccAcc,27,18,Woman,Right,
30,8,1,0.7670566000015242,['n'],1,right,['u'],1,0.2729252000008273,0.4,1,0,AccAcc,27,18,Woman,Right,
31,8,1,0.6681736999998975,['n'],1,right,['u'],1,0.6377904000000854,0.1,1,0,AccAcc,27,18,Woman,Right,
32,8,1,0.8014655000006314,['n'],1,right,['u'],1,0.24677390000033483,0.2,1,0,AccAcc,27,18,Woman,Right,
33,8,1,1.1009844999989582,['c'],1,left,['u'],1,0.4832394999993994,0.4,1,0,AccAcc,27,18,Woman,Right,
34,8,1,0.8504508999994869,['n'],1,right,['u'],1,0.4000010999989172,0.4,1,0,AccAcc,27,18,Woman,Right,
35,8,1,0.6851076000002649,['n'],1,right,['u'],1,0.2949175000012474,0.4,1,0,AccAcc,27,18,Woman,Right,
36,8,1,1.3345296999996208,['c'],0,right,['e'],0,0.503810500000327,0.1,1,0,AccAcc,27,18,Woman,Right,
37,8,1,0.9851309000005131,['n'],0,left,['e'],0,0.46275229999992007,0.4,1,0,AccAcc,27,18,Woman,Right,
38,8,1,1.1673910999998043,['c'],0,right,['e'],0,0.33580389999951876,0.1,1,0,AccAcc,27,18,Woman,Right,
39,8,1,0.6345801000006759,['n'],1,right,['u'],1,0.23533800000041083,0.4,1,0,AccAcc,27,18,Woman,Right,
40,8,1,1.18474839999908,['c'],1,left,['u'],1,0.2129052000000229,0.2,1,0,AccAcc,27,18,Woman,Right,
41,8,1,1.3334405000005063,['n'],0,left,['e'],0,0.4575683000002755,0.2,1,0,AccAcc,27,18,Woman,Right,
42,8,1,0.818130999999994,['c'],1,left,['e'],0,0.8088545999999042,0.1,0,0,AccAcc,27,18,Woman,Right,
43,8,1,1.3835295000008045,['c'],1,left,['u'],1,0.6447836000006646,0.2,1,0,AccAcc,27,18,Woman,Right,
44,8,1,0.8340676999996504,['c'],0,right,['u'],1,0.39558469999974477,0.4,0,0,AccAcc,27,18,Woman,Right,
45,8,1,1.017859399998997,['c'],1,left,['e'],0,1.4939948999999615,0.2,0,0,AccAcc,27,18,Woman,Right,
46,8,1,2.6681619999999384,['c'],1,left,['e'],0,0.9619354999995267,0.1,0,0,AccAcc,27,18,Woman,Right,
47,8,1,1.717562399999224,['n'],1,right,['e'],0,0.5690217999999732,0.1,0,0,AccAcc,27,18,Woman,Right,
48,8,1,0.9513157999990653,['n'],1,right,['e'],0,0.5904657999999472,0.1,0,0,AccAcc,27,18,Woman,Right,
49,8,1,1.1512014999989333,['c'],1,left,['e'],0,1.2114887999996427,0.4,0,0,AccAcc,27,18,Woman,Right,
50,8,1,1.8839620999988256,['n'],1,right,['e'],0,0.4019076999993558,0.2,0,0,AccAcc,27,18,Woman,Right,
51,8,1,0.9336536999999225,['n'],1,right,['e'],0,0.49519250000048487,0.2,0,0,AccAcc,27,18,Woman,Right,
52,8,1,1.051158199999918,['n'],1,right,['e'],0,0.49952699999994365,0.1,0,0,AccAcc,27,18,Woman,Right,
53,8,1,0.8840517999997246,['n'],0,left,['e'],0,0.3822259999997186,0.2,1,0,AccAcc,27,18,Woman,Right,
54,8,1,1.3021067999998195,['n'],1,right,['u'],1,0.34906100000080187,0.4,1,0,AccAcc,27,18,Woman,Right,
55,8,1,1.5513499999997293,['n'],1,right,['e'],0,0.5794729999997799,0.2,0,0,AccAcc,27,18,Woman,Right,
56,8,1,1.3512759000004735,['n'],0,left,['e'],0,0.36051299999962794,0.2,1,0,AccAcc,27,18,Woman,Right,
57,8,1,1.1510942000004434,['n'],1,right,['e'],0,0.27076560000023164,0.2,0,0,AccAcc,27,18,Woman,Right,
58,8,1,2.501173099999505,['n'],0,left,['u'],1,0.6904775999992125,0.1,0,0,AccAcc,27,18,Woman,Right,
59,8,1,1.0167811999999685,['n'],1,right,['u'],1,0.32100399999944784,0.1,1,0,AccAcc,27,18,Woman,Right,
0,9,1,1.1511604999996052,['c'],1,left,['u'],1,0.8329153000013321,0.4,1,0,FastAcc,27,18,Woman,Right,
1,9,1,1.05154229999971,['c'],1,left,['u'],1,0.3598997999997664,0.1,1,0,FastAcc,27,18,Woman,Right,
2,9,1,1.318581900000936,['c'],0,right,['u'],1,0.199324199998955,0.1,0,0,FastAcc,27,18,Woman,Right,
3,9,1,1.1014627000004111,['c'],0,right,['u'],1,0.4695805000010296,0.2,0,0,FastAcc,27,18,Woman,Right,
4,9,1,1.1354787000000215,['c'],1,left,['u'],1,0.24814260000130162,0.2,1,0,FastAcc,27,18,Woman,Right,
5,9,1,2.351564700000381,['c'],0,right,['e'],0,0.29039770000053977,0.2,1,0,FastAcc,27,18,Woman,Right,
6,9,1,1.0343152999994345,['c'],0,right,['u'],1,0.4799139999995532,0.2,0,0,FastAcc,27,18,Woman,Right,
7,9,1,1.9181786000008287,['c'],0,right,['u'],1,0.3542983999996068,0.4,0,0,FastAcc,27,18,Woman,Right,
8,9,1,0.7002143999998225,['c'],0,right,['u'],1,0.2348124000000098,0.4,0,0,FastAcc,27,18,Woman,Right,
9,9,1,1.08423269999912,['c'],1,left,['e'],0,0.4401860999987548,0.1,0,0,FastAcc,27,18,Woman,Right,
10,9,1,2.4836246999984724,['n'],0,left,['e'],0,0.9507312000005186,0.2,1,0,FastAcc,27,18,Woman,Right,
11,9,1,1.60118699999839,['c'],0,right,['e'],0,0.7863933000007819,0.4,1,0,FastAcc,27,18,Woman,Right,
12,9,1,1.7837454000000434,['c'],1,left,['u'],1,0.39826779999930295,0.4,1,0,FastAcc,27,18,Woman,Right,
13,9,1,1.4515563999993901,['c'],0,right,['e'],0,1.5905640000000858,0.1,1,0,FastAcc,27,18,Woman,Right,
14,9,1,1.3843727999992552,['n'],1,right,['e'],0,4.466318200000387,0.2,0,0,FastAcc,27,18,Woman,Right,
15,9,1,1.1847089000002597,['n'],0,left,['e'],0,0.43489799999952083,0.1,1,0,FastAcc,27,18,Woman,Right,
16,9,1,1.0179380999998102,['n'],1,right,['e'],0,0.8113066000005347,0.4,0,0,FastAcc,27,18,Woman,Right,
17,9,1,1.868043899999975,['n'],0,left,['u'],1,0.35527209999963816,0.4,0,0,FastAcc,27,18,Woman,Right,
18,9,1,1.3830046999992192,['n'],1,right,['u'],1,0.3998636999986047,0.1,1,0,FastAcc,27,18,Woman,Right,
19,9,1,1.2333097999999154,['n'],1,right,['u'],1,0.4177120999993349,0.2,1,0,FastAcc,27,18,Woman,Right,
20,9,1,1.0014422999993258,['n'],0,left,['u'],1,0.3633764999995037,0.1,0,0,FastAcc,27,18,Woman,Right,
21,9,1,1.4683554999992339,['n'],1,right,['e'],0,0.3714025000008405,0.2,0,0,FastAcc,27,18,Woman,Right,
22,9,1,1.5014866999990772,['n'],1,right,['u'],1,0.6032918000000791,0.1,1,0,FastAcc,27,18,Woman,Right,
23,9,1,1.051666400000613,['n'],1,right,['u'],1,0.31561209999927087,0.2,1,0,FastAcc,27,18,Woman,Right,
24,9,1,1.50210479999987,['n'],1,right,['e'],0,0.5011453999995865,0.2,0,0,FastAcc,27,18,Woman,Right,
25,9,1,1.5677080000004935,['n'],1,right,['e'],0,0.4530782999991061,0.2,0,0,FastAcc,27,18,Woman,Right,
26,9,1,1.1682006000010006,['n'],0,left,['e'],0,0.7264324000007036,0.2,1,0,FastAcc,27,18,Woman,Right,
27,9,1,1.2693685999984154,['c'],1,left,['e'],0,0.6174473999999464,0.1,0,0,FastAcc,27,18,Woman,Right,
28,9,1,1.6840881000007357,['c'],1,left,['u'],1,0.5599745999988954,0.4,1,0,FastAcc,27,18,Woman,Right,
29,9,1,0.7847277000000759,['c'],1,left,['u'],1,0.4768350000013015,0.1,1,0,FastAcc,27,18,Woman,Right,
30,9,1,1.5343091999984608,['n'],0,left,['e'],0,0.5751328999995167,0.1,1,0,FastAcc,27,18,Woman,Right,
31,9,1,0.9518609999995533,['c'],0,right,['u'],1,0.30878560000019206,0.2,0,0,FastAcc,27,18,Woman,Right,
32,9,1,0.985028400000374,['c'],1,left,['u'],1,0.803917299999739,0.4,1,0,FastAcc,27,18,Woman,Right,
33,9,1,0.7839968000007502,['c'],1,left,['u'],1,0.5667345999991085,0.2,1,0,FastAcc,27,18,Woman,Right,
34,9,1,0.8013362000001507,['n'],0,left,['u'],1,0.7224063000012393,0.1,0,0,FastAcc,27,18,Woman,Right,
35,9,1,1.185116200000266,['c'],1,left,['u'],1,0.7447838999996748,0.2,1,0,FastAcc,27,18,Woman,Right,
36,9,1,1.33586699999978,['n'],1,right,['e'],0,0.5524201999996876,0.4,0,0,FastAcc,27,18,Woman,Right,
37,9,1,1.1841920999995637,['n'],1,right,['e'],0,0.5173844999990251,0.1,0,0,FastAcc,27,18,Woman,Right,
38,9,1,0.7156064999999217,['n'],1,right,['e'],0,0.2958417999998346,0.1,0,0,FastAcc,27,18,Woman,Right,
39,9,1,0.8513387999992119,['c'],0,right,['e'],0,0.651449799999682,0.2,1,0,FastAcc,27,18,Woman,Right,
40,9,1,0.7010026999996626,['c'],1,left,['u'],1,0.9839628000008815,0.4,1,0,FastAcc,27,18,Woman,Right,
41,9,1,0.7346467999996094,['n'],1,right,['u'],1,0.5012549000002764,0.4,1,0,FastAcc,27,18,Woman,Right,
42,9,1,1.4343723000001773,['n'],1,right,['u'],1,0.2982437000009668,0.2,1,0,FastAcc,27,18,Woman,Right,
43,9,1,1.5008522999996785,['c'],1,left,['e'],0,0.5005041999993409,0.1,0,0,FastAcc,27,18,Woman,Right,
44,9,1,1.0181814000006852,['n'],0,left,['u'],1,0.6190114000000904,0.1,0,0,FastAcc,27,18,Woman,Right,
45,9,1,1.651631400000042,['n'],1,right,['u'],1,0.2899039999992965,0.2,1,0,FastAcc,27,18,Woman,Right,
46,9,1,0.8015623000010237,['c'],1,left,['u'],1,0.2808822999995755,0.4,1,0,FastAcc,27,18,Woman,Right,
47,9,1,1.2681446000005963,['c'],1,left,['e'],0,0.44509670000115875,0.4,0,0,FastAcc,27,18,Woman,Right,
48,9,1,0.8516960000015388,['n'],1,right,['u'],1,0.28337549999923795,0.4,1,0,FastAcc,27,18,Woman,Right,
49,9,1,2.1007530000006227,['n'],1,right,['u'],1,0.2384662999993452,0.4,1,0,FastAcc,27,18,Woman,Right,
50,9,1,1.4512632000005397,['n'],1,right,['u'],1,0.3016282000007777,0.4,1,0,FastAcc,27,18,Woman,Right,
51,9,1,0.7348473999991256,['c'],0,right,['u'],1,0.27836759999991045,0.1,0,0,FastAcc,27,18,Woman,Right,
52,9,1,0.8011286000000837,['c'],1,left,['u'],1,0.2373414000012417,0.1,1,0,FastAcc,27,18,Woman,Right,
53,9,1,0.7349672000000282,['c'],1,left,['u'],1,0.2972208999999566,0.4,1,0,FastAcc,27,18,Woman,Right,
54,9,1,0.7839512999998988,['c'],1,left,['u'],1,0.2717407000000094,0.4,1,0,FastAcc,27,18,Woman,Right,
55,9,1,0.6510883000009926,['c'],1,left,['e'],0,0.6854109999985667,0.1,0,0,FastAcc,27,18,Woman,Right,
56,9,1,1.3680163999997603,['c'],1,left,['u'],1,0.38174849999995786,0.2,1,0,FastAcc,27,18,Woman,Right,
57,9,1,2.2170725999985734,['n'],0,left,['e'],0,0.712084099999629,0.1,1,0,FastAcc,27,18,Woman,Right,
58,9,1,1.8179435000001831,['c'],1,left,['e'],0,0.46913409999979194,0.2,0,0,FastAcc,27,18,Woman,Right,
59,9,1,1.0838684999998804,['n'],1,right,['u'],1,0.713490099999035,0.4,1,0,FastAcc,27,18,Woman,Right,
0,10,1,0.8514001999992615,['c'],1,left,['e'],0,0.6107897000001685,0.2,0,0,FastFast,27,18,Woman,Right,
1,10,1,1.0182553000013286,['n'],1,right,['e'],0,0.6125360999994882,0.4,0,0,FastFast,27,18,Woman,Right,
2,10,1,1.2180109999990236,['c'],1,left,['e'],0,0.3974538999991637,0.1,0,0,FastFast,27,18,Woman,Right,
3,10,1,0.7181715999995504,['n'],1,right,['u'],1,0.3070759000001999,0.4,1,0,FastFast,27,18,Woman,Right,
4,10,1,0.8333170000005339,['c'],1,left,['u'],1,0.5206217000013567,0.4,1,0,FastFast,27,18,Woman,Right,
5,10,1,1.168135900001289,['c'],1,left,['u'],1,0.3268977999996423,0.1,1,0,FastFast,27,18,Woman,Right,
6,10,1,0.8852316000011342,['n'],1,right,['e'],0,1.11336620000111,0.4,0,0,FastFast,27,18,Woman,Right,
7,10,1,1.0513675000001967,['n'],1,right,['u'],1,0.3250606000001426,0.4,1,0,FastFast,27,18,Woman,Right,
8,10,1,0.7176161999996111,['c'],1,left,['u'],1,0.2699444999998377,0.4,1,0,FastFast,27,18,Woman,Right,
9,10,1,0.9172832999993261,['n'],0,left,['u'],1,0.3207805999991251,0.1,0,0,FastFast,27,18,Woman,Right,
10,10,1,0.7179667000000336,['n'],1,right,['u'],1,0.2816082000008464,0.4,1,0,FastFast,27,18,Woman,Right,
11,10,1,0.5518404000013106,['c'],0,right,['u'],1,0.36252559999957157,0.1,0,0,FastFast,27,18,Woman,Right,
12,10,1,1.1011976999998296,['c'],1,left,['e'],0,0.6264197000000422,0.1,0,0,FastFast,27,18,Woman,Right,
13,10,1,0.7008344000005309,['c'],1,left,['e'],0,0.5599332000001596,0.4,0,0,FastFast,27,18,Woman,Right,
14,10,1,1.3670492000001104,['c'],1,left,['e'],0,0.486258099999759,0.2,0,0,FastFast,27,18,Woman,Right,
15,10,1,1.3847449999993842,['c'],1,left,['u'],1,0.22116809999897669,0.4,1,0,FastFast,27,18,Woman,Right,
16,10,1,1.3347634999990987,['c'],1,left,['e'],0,0.30544800000097894,0.1,0,0,FastFast,27,18,Woman,Right,
17,10,1,1.2348223999997572,['c'],0,right,['u'],1,0.5506121999987954,0.2,0,0,FastFast,27,18,Woman,Right,
18,10,1,0.8665987999993376,['n'],1,right,['e'],0,0.6082600000008824,0.2,0,0,FastFast,27,18,Woman,Right,
19,10,1,0.9842969999990601,['n'],1,right,['e'],0,0.6279293999996298,0.4,0,0,FastFast,27,18,Woman,Right,
20,10,1,1.084371099999771,['n'],1,right,['u'],1,0.2573775000000751,0.2,1,0,FastFast,27,18,Woman,Right,
21,10,1,0.8170031999998173,['c'],1,left,['u'],1,0.6010205000002316,0.4,1,0,FastFast,27,18,Woman,Right,
22,10,1,0.7841758000013215,['n'],1,right,['e'],0,0.467911699999604,0.2,0,0,FastFast,27,18,Woman,Right,
23,10,1,1.1501674999999523,['n'],1,right,['e'],0,0.4865040000004228,0.4,0,0,FastFast,27,18,Woman,Right,
24,10,1,0.7345783000000665,['n'],1,right,['u'],1,0.29602169999998296,0.1,1,0,FastFast,27,18,Woman,Right,
25,10,1,0.7502979000000778,['c'],1,left,['u'],1,0.4797092999997403,0.4,1,0,FastFast,27,18,Woman,Right,
26,10,1,0.7010447000011482,['n'],1,right,['u'],1,0.3224508999992395,0.2,1,0,FastFast,27,18,Woman,Right,
27,10,1,1.584514099999069,['n'],1,right,['e'],0,0.3926744000000326,0.1,0,0,FastFast,27,18,Woman,Right,
28,10,1,0.9519399999990128,['c'],1,left,['e'],0,0.4536238000000594,0.1,0,0,FastFast,27,18,Woman,Right,
29,10,1,0.6178446000012627,['n'],1,right,['u'],1,0.26925070000106643,0.2,1,0,FastFast,27,18,Woman,Right,
30,10,1,1.4328480000003765,['c'],1,left,['u'],1,0.25146370000038587,0.2,1,0,FastFast,27,18,Woman,Right,
31,10,1,0.8170279000005394,['c'],1,left,['u'],1,0.9639429999988351,0.2,1,0,FastFast,27,18,Woman,Right,
32,10,1,1.0838741999996273,['c'],1,left,['u'],1,0.37154609999925015,0.2,1,0,FastFast,27,18,Woman,Right,
33,10,1,1.3513662999994267,['n'],1,right,['e'],0,0.3693010000006325,0.2,0,0,FastFast,27,18,Woman,Right,
34,10,1,1.934686900000088,['c'],0,right,['e'],0,0.4236804000011034,0.1,1,0,FastFast,27,18,Woman,Right,
35,10,1,1.0506562999999005,['n'],0,left,['e'],0,0.44723420000082115,0.1,1,0,FastFast,27,18,Woman,Right,
36,10,1,1.1673671999997168,['n'],0,left,['e'],0,0.8808113000013691,0.1,1,0,FastFast,27,18,Woman,Right,
37,10,1,1.4846419000004971,['n'],0,left,['e'],0,0.2766587999994954,0.1,1,0,FastFast,27,18,Woman,Right,
38,10,1,1.117266600000221,['c'],1,left,['e'],0,0.43154080000022077,0.4,0,0,FastFast,27,18,Woman,Right,
39,10,1,0.8659720000014204,['n'],0,left,['e'],0,0.38258999999925436,0.1,1,0,FastFast,27,18,Woman,Right,
40,10,1,1.0348209000003408,['n'],0,left,['e'],0,0.3753904000004695,0.2,1,0,FastFast,27,18,Woman,Right,
41,10,1,1.684456199998749,['n'],0,left,['e'],0,0.3119713000014599,0.1,1,0,FastFast,27,18,Woman,Right,
42,10,1,1.1340669999990496,['n'],1,right,['e'],0,0.28806449999865436,0.1,0,0,FastFast,27,18,Woman,Right,
43,10,1,0.9515358999997261,['n'],1,right,['e'],0,0.5610073000007105,0.2,0,0,FastFast,27,18,Woman,Right,
44,10,1,1.0344351999992796,['n'],0,left,['e'],0,0.8039355999990221,0.4,1,0,FastFast,27,18,Woman,Right,
45,10,1,0.9666081000013946,['c'],1,left,['u'],1,0.19261270000060904,0.4,1,0,FastFast,27,18,Woman,Right,
46,10,1,1.2675472000009904,['n'],1,right,['u'],1,0.3598025000010239,0.2,1,0,FastFast,27,18,Woman,Right,
47,10,1,0.8342460000003484,['n'],1,right,['u'],1,0.2830601999994542,0.4,1,0,FastFast,27,18,Woman,Right,
48,10,1,1.600782800000161,['n'],1,right,['u'],1,0.14588709999952698,0.2,1,0,FastFast,27,18,Woman,Right,
49,10,1,1.1841183999986242,['n'],0,left,['u'],1,0.2548745999993116,0.1,0,0,FastFast,27,18,Woman,Right,
50,10,1,1.0846621000000596,['n'],1,right,['e'],0,0.5877999999993335,0.4,0,0,FastFast,27,18,Woman,Right,
51,10,1,1.2177941999998438,['c'],1,left,['u'],1,0.3421593999992183,0.2,1,0,FastFast,27,18,Woman,Right,
52,10,1,1.2171220000000176,['n'],1,right,['u'],1,0.3309021999994002,0.2,1,0,FastFast,27,18,Woman,Right,
53,10,1,1.1678826000006666,['c'],1,left,['u'],1,0.46553750000020955,0.2,1,0,FastFast,27,18,Woman,Right,
54,10,1,0.8172818000002735,['n'],1,right,['u'],1,0.39968300000145973,0.1,1,0,FastFast,27,18,Woman,Right,
55,10,1,1.551162400000976,['n'],1,right,['u'],1,0.29211669999858714,0.1,1,0,FastFast,27,18,Woman,Right,
56,10,1,1.0679008000006434,['n'],1,right,['u'],1,0.19256760000098438,0.4,1,0,FastFast,27,18,Woman,Right,
57,10,1,0.734397700000045,['n'],1,right,['u'],1,0.30178609999893524,0.4,1,0,FastFast,27,18,Woman,Right,
58,10,1,2.1172843000003922,['c'],1,left,['e'],0,0.49568380000164325,0.2,0,0,FastFast,27,18,Woman,Right,
59,10,1,1.5166540999998688,['c'],0,right,['u'],1,0.41804919999958656,0.1,0,0,FastFast,27,18,Woman,Right,
0,11,1,1.1847431999995024,['n'],0,left,['u'],1,0.9173773000002257,0.2,0,0,AccFast,27,18,Woman,Right,
1,11,1,1.0345918000002712,['n'],1,right,['u'],1,0.5536306000012701,0.2,1,0,AccFast,27,18,Woman,Right,
2,11,1,2.3510868000012124,['c'],0,right,['e'],0,0.5041809999984252,0.1,1,0,AccFast,27,18,Woman,Right,
3,11,1,1.3506336999998894,['c'],1,left,['u'],1,0.2096414999996341,0.1,1,0,AccFast,27,18,Woman,Right,
4,11,1,2.1681210000006104,['c'],0,right,['e'],0,0.7883308999989822,0.1,1,0,AccFast,27,18,Woman,Right,
5,11,1,1.0846199999996315,['n'],1,right,['u'],1,0.36366199999974924,0.4,1,0,AccFast,27,18,Woman,Right,
6,11,1,2.000582200000281,['n'],1,right,['e'],0,0.19138380000003963,0.4,0,0,AccFast,27,18,Woman,Right,
7,11,1,1.0996350000004895,['c'],1,left,['u'],1,0.5750663000017084,0.4,1,0,AccFast,27,18,Woman,Right,
8,11,1,1.6008251000002929,['n'],0,left,['e'],0,1.1461772000002384,0.4,1,0,AccFast,27,18,Woman,Right,
9,11,1,1.4509570999998687,['c'],1,left,['e'],0,0.4684058000002551,0.4,0,0,AccFast,27,18,Woman,Right,
10,11,1,1.4511223000008613,['n'],0,left,['e'],0,0.2820859000003111,0.2,1,0,AccFast,27,18,Woman,Right,
11,11,1,1.6336761999991722,['n'],1,right,['e'],0,0.27200079999965965,0.1,0,0,AccFast,27,18,Woman,Right,
12,11,1,1.7844026000002486,['c'],1,left,['e'],0,0.3523927000005642,0.4,0,0,AccFast,27,18,Woman,Right,
13,11,1,1.2511415999997553,['c'],1,left,['u'],1,0.2104922999988048,0.4,1,0,AccFast,27,18,Woman,Right,
14,11,1,1.500884800001586,['c'],1,left,['u'],1,0.6729765000000043,0.2,1,0,AccFast,27,18,Woman,Right,
15,11,1,1.4512285000000702,['c'],0,right,['e'],0,0.5584395000005316,0.4,1,0,AccFast,27,18,Woman,Right,
16,11,1,1.1351226000006136,['n'],0,left,['u'],1,0.6854786000003514,0.2,0,0,AccFast,27,18,Woman,Right,
17,11,1,1.0512829999988753,['c'],1,left,['u'],1,0.2824144999995042,0.4,1,0,AccFast,27,18,Woman,Right,
18,11,1,0.9185763999994379,['n'],0,left,['u'],1,0.31668600000011793,0.4,0,0,AccFast,27,18,Woman,Right,
19,11,1,1.0504424999999173,['n'],1,right,['u'],1,0.6326929000006203,0.1,1,0,AccFast,27,18,Woman,Right,
20,11,1,0.9512781999983417,['n'],0,left,['u'],1,1.0512641000004805,0.1,0,0,AccFast,27,18,Woman,Right,
21,11,1,0.867727200000445,['c'],0,right,['u'],1,0.6411169000002701,0.2,0,0,AccFast,27,18,Woman,Right,
22,11,1,1.1336202000002231,['n'],0,left,['u'],1,0.7815026999996917,0.4,0,0,AccFast,27,18,Woman,Right,
23,11,1,1.2174450000002253,['n'],0,left,['u'],1,1.135034099999757,0.1,0,0,AccFast,27,18,Woman,Right,
24,11,1,1.1845615999991423,['c'],0,right,['e'],0,0.6926925999996456,0.2,1,0,AccFast,27,18,Woman,Right,
25,11,1,1.268187100000432,['n'],0,left,['u'],1,0.42495190000045113,0.2,0,0,AccFast,27,18,Woman,Right,
26,11,1,0.9014320999995107,['n'],0,left,['u'],1,0.2312619000003906,0.1,0,0,AccFast,27,18,Woman,Right,
27,11,1,0.8173740000001999,['c'],1,left,['u'],1,0.3989259000009042,0.2,1,0,AccFast,27,18,Woman,Right,
28,11,1,0.8831394000008004,['n'],0,left,['u'],1,0.3819738000001962,0.1,0,0,AccFast,27,18,Woman,Right,
29,11,1,0.5180688999989798,['c'],0,right,['u'],1,0.28404520000003686,0.1,0,0,AccFast,27,18,Woman,Right,
30,11,1,1.168023499998526,['n'],1,right,['e'],0,0.26034119999894756,0.1,0,0,AccFast,27,18,Woman,Right,
31,11,1,1.202089899999919,['n'],1,right,['u'],1,0.413568199999645,0.1,1,0,AccFast,27,18,Woman,Right,
32,11,1,0.8007808999991539,['n'],1,right,['u'],1,0.3183355000001029,0.2,1,0,AccFast,27,18,Woman,Right,
33,11,1,0.9339048999991064,['c'],1,left,['e'],0,0.5586186000000453,0.2,0,0,AccFast,27,18,Woman,Right,
34,11,1,0.8845500000006723,['n'],0,left,['u'],1,0.37550780000128725,0.1,0,0,AccFast,27,18,Woman,Right,
35,11,1,0.7006191000000399,['n'],1,right,['u'],1,0.27113720000124886,0.1,1,0,AccFast,27,18,Woman,Right,
36,11,1,0.6191366999992169,['n'],1,right,['u'],1,0.35002150000036636,0.2,1,0,AccFast,27,18,Woman,Right,
37,11,1,0.701800099999673,['n'],0,left,['u'],1,0.3263279999991937,0.4,0,0,AccFast,27,18,Woman,Right,
38,11,1,0.6999502999988181,['n'],0,left,['u'],1,0.24056039999959467,0.2,0,0,AccFast,27,18,Woman,Right,
39,11,1,0.5848200000000361,['n'],1,right,['u'],1,0.28937500000029104,0.1,1,0,AccFast,27,18,Woman,Right,
40,11,1,0.6513236000009783,['n'],1,right,['e'],0,0.6063930000000255,0.2,0,0,AccFast,27,18,Woman,Right,
41,11,1,0.6174814000005426,['n'],1,right,['u'],1,0.4321042999999918,0.4,1,0,AccFast,27,18,Woman,Right,
42,11,1,1.2333113999993657,['c'],0,right,['e'],0,0.35158290000072157,0.2,1,0,AccFast,27,18,Woman,Right,
43,11,1,0.8180363999999827,['c'],0,right,['u'],1,0.1951917999995203,0.1,0,0,AccFast,27,18,Woman,Right,
44,11,1,0.7685541999999259,['c'],1,left,['u'],1,0.2068756000007852,0.2,1,0,AccFast,27,18,Woman,Right,
45,11,1,0.7347049999989395,['n'],0,left,['u'],1,0.41163180000148714,0.2,0,0,AccFast,27,18,Woman,Right,
46,11,1,0.8170541999988927,['n'],1,right,['u'],1,0.2527460000001156,0.2,1,0,AccFast,27,18,Woman,Right,
47,11,1,0.9006327000006422,['n'],1,right,['e'],0,0.5290039000010438,0.4,0,0,AccFast,27,18,Woman,Right,
48,11,1,1.0179599000002781,['n'],1,right,['e'],0,0.2932345000008354,0.4,0,0,AccFast,27,18,Woman,Right,
49,11,1,0.8342506000008143,['c'],1,left,['e'],0,0.5549707000009221,0.2,0,0,AccFast,27,18,Woman,Right,
50,11,1,0.7010234000008495,['n'],0,left,['u'],1,0.779167900000175,0.2,0,0,AccFast,27,18,Woman,Right,
51,11,1,1.2341997000003175,['c'],0,right,['e'],0,0.6847283999995852,0.1,1,0,AccFast,27,18,Woman,Right,
52,11,1,1.334411199999522,['c'],1,left,['u'],1,0.9107155999990937,0.4,1,0,AccFast,27,18,Woman,Right,
53,11,1,1.1676793999995425,['n'],1,right,['e'],0,0.5260987999990903,0.1,0,0,AccFast,27,18,Woman,Right,
54,11,1,1.2860055999990436,['n'],1,right,['e'],0,0.6644985000002634,0.1,0,0,AccFast,27,18,Woman,Right,
55,11,1,1.1340734000004886,['c'],1,left,['e'],0,0.6108353999989049,0.4,0,0,AccFast,27,18,Woman,Right,
56,11,1,1.150581100000636,['n'],1,right,['u'],1,1.6951296999995975,0.4,1,0,AccFast,27,18,Woman,Right,
57,11,1,1.0998836000017036,['n'],1,right,['u'],1,0.6105024999997113,0.4,1,0,AccFast,27,18,Woman,Right,
58,11,1,0.9348178999989614,['n'],1,right,['u'],1,0.406452299999728,0.1,1,0,AccFast,27,18,Woman,Right,
59,11,1,0.8510139999998501,['c'],1,left,['u'],1,0.6947626999990462,0.4,1,0,AccFast,27,18,Woman,Right,
0,12,1,1.201224700000239,['n'],0,left,['e'],0,0.508942800001023,0.1,1,0,AccAcc,27,18,Woman,Right,
1,12,1,1.2679702000004909,['n'],1,right,['u'],1,0.3285345000003872,0.4,1,0,AccAcc,27,18,Woman,Right,
2,12,1,1.018150699999751,['c'],1,left,['u'],1,0.7247803000009299,0.4,1,0,AccAcc,27,18,Woman,Right,
3,12,1,0.7669905000002473,['c'],1,left,['u'],1,0.3164157000010164,0.4,1,0,AccAcc,27,18,Woman,Right,
4,12,1,0.7847512000007555,['n'],1,right,['e'],0,0.5139438999995036,0.1,0,0,AccAcc,27,18,Woman,Right,
5,12,1,1.0675873000000138,['n'],1,right,['u'],1,0.46903589999965334,0.2,1,0,AccAcc,27,18,Woman,Right,
6,12,1,0.8171493999998347,['c'],1,left,['u'],1,0.43585219999840774,0.4,1,0,AccAcc,27,18,Woman,Right,
7,12,1,0.9006030000000464,['c'],1,left,['u'],1,0.2736395000010816,0.4,1,0,AccAcc,27,18,Woman,Right,
8,12,1,0.8013805000009597,['n'],1,right,['u'],1,0.4094015999999101,0.4,1,0,AccAcc,27,18,Woman,Right,
9,12,1,0.8347842000002856,['n'],1,right,['u'],1,0.3293967000008706,0.2,1,0,AccAcc,27,18,Woman,Right,
10,12,1,0.9180956000000151,['n'],1,right,['u'],1,0.313523200000418,0.2,1,0,AccAcc,27,18,Woman,Right,
11,12,1,0.9345064999997703,['c'],1,left,['u'],1,0.2819877000001725,0.1,1,0,AccAcc,27,18,Woman,Right,
12,12,1,0.6678241000008711,['c'],1,left,['u'],1,0.31020840000019234,0.4,1,0,AccAcc,27,18,Woman,Right,
13,12,1,1.1332719000001816,['c'],0,right,['e'],0,0.7671235999987402,0.1,1,0,AccAcc,27,18,Woman,Right,
14,12,1,0.7681804999992892,['c'],1,left,['u'],1,0.42003680000016175,0.2,1,0,AccAcc,27,18,Woman,Right,
15,12,1,0.635037399999419,['n'],0,left,['e'],0,1.164275400000406,0.4,1,0,AccAcc,27,18,Woman,Right,
16,12,1,1.1834811999997328,['c'],1,left,['u'],1,0.2568236999995861,0.4,1,0,AccAcc,27,18,Woman,Right,
17,12,1,0.7011496000013722,['n'],1,right,['u'],1,0.31720969999878434,0.1,1,0,AccAcc,27,18,Woman,Right,
18,12,1,0.7678892999992968,['c'],1,left,['u'],1,0.29185659999893687,0.2,1,0,AccAcc,27,18,Woman,Right,
19,12,1,0.750236899999436,['n'],0,left,['u'],1,0.3169727000004059,0.4,0,0,AccAcc,27,18,Woman,Right,
20,12,1,0.6169300000001385,['c'],1,left,['u'],1,0.31384629999956815,0.4,1,0,AccAcc,27,18,Woman,Right,
21,12,1,1.3511662999990222,['n'],1,right,['u'],1,0.28133489999891026,0.1,1,0,AccAcc,27,18,Woman,Right,
22,12,1,0.7184830999995029,['c'],1,left,['u'],1,0.5162925999993604,0.4,1,0,AccAcc,27,18,Woman,Right,
23,12,1,0.8172769000011613,['c'],1,left,['u'],1,0.35257070000079693,0.2,1,0,AccAcc,27,18,Woman,Right,
24,12,1,0.8509747000007337,['c'],1,left,['u'],1,0.6588318000012805,0.2,1,0,AccAcc,27,18,Woman,Right,
25,12,1,2.0681656999986444,['n'],0,left,['e'],0,0.42452810000031604,0.1,1,0,AccAcc,27,18,Woman,Right,
26,12,1,1.5847009000008256,['n'],1,right,['e'],0,0.6989321999990352,0.2,0,0,AccAcc,27,18,Woman,Right,
27,12,1,1.2507862000002206,['n'],1,right,['e'],0,0.4152603000002273,0.2,0,0,AccAcc,27,18,Woman,Right,
28,12,1,1.3344731999986834,['c'],0,right,['e'],0,0.5235707000010734,0.1,1,0,AccAcc,27,18,Woman,Right,
29,12,1,0.9017228000011528,['c'],1,left,['u'],1,0.6451397000000725,0.4,1,0,AccAcc,27,18,Woman,Right,
30,12,1,0.900001500000144,['n'],1,right,['u'],1,0.5864438999997219,0.2,1,0,AccAcc,27,18,Woman,Right,
31,12,1,1.4179103999995277,['c'],1,left,['e'],0,0.7173602999991999,0.1,0,0,AccAcc,27,18,Woman,Right,
32,12,1,0.7682571999994252,['n'],1,right,['e'],0,0.4030662000004668,0.4,0,0,AccAcc,27,18,Woman,Right,
33,12,1,0.83468399999947,['n'],1,right,['e'],0,0.40380240000013146,0.4,0,0,AccAcc,27,18,Woman,Right,
34,12,1,1.634663200000432,['c'],0,right,['u'],1,0.9167407000004459,0.1,0,0,AccAcc,27,18,Woman,Right,
35,12,1,1.1180874000001495,['c'],0,right,['u'],1,0.27785799999946903,0.4,0,0,AccAcc,27,18,Woman,Right,
36,12,1,1.31807900000058,['c'],1,left,['u'],1,0.2967693999999028,0.4,1,0,AccAcc,27,18,Woman,Right,
37,12,1,1.1349127999983466,['n'],0,left,['u'],1,0.33783349999976053,0.1,0,0,AccAcc,27,18,Woman,Right,
38,12,1,1.6006464999991294,['c'],1,left,['u'],1,0.6627136999995855,0.2,1,0,AccAcc,27,18,Woman,Right,
39,12,1,1.3683151999994152,['n'],1,right,['e'],0,0.5357423000004928,0.4,0,0,AccAcc,27,18,Woman,Right,
40,12,1,1.2350159000015992,['n'],1,right,['e'],0,0.6274210999999923,0.2,0,0,AccAcc,27,18,Woman,Right,
41,12,1,1.3182106999993266,['n'],1,right,['u'],1,0.6485701999990852,0.1,1,0,AccAcc,27,18,Woman,Right,
42,12,1,1.3342014999998355,['n'],0,left,['e'],0,0.49157199999899603,0.2,1,0,AccAcc,27,18,Woman,Right,
43,12,1,1.3848484999998618,['n'],0,left,['e'],0,0.2591089000015927,0.1,1,0,AccAcc,27,18,Woman,Right,
44,12,1,0.9178149999988818,['n'],1,right,['e'],0,0.45472760000120616,0.1,0,0,AccAcc,27,18,Woman,Right,
45,12,1,1.0685631999986072,['c'],0,right,['e'],0,0.444429900000614,0.2,1,0,AccAcc,27,18,Woman,Right,
46,12,1,1.2014059999983147,['c'],0,right,['u'],1,0.8293620999993436,0.2,0,0,AccAcc,27,18,Woman,Right,
47,12,1,1.1672786999988602,['n'],0,left,['e'],0,0.35180659999969066,0.4,1,0,AccAcc,27,18,Woman,Right,
48,12,1,1.8327267999993637,['n'],0,left,['e'],0,0.5237249000001611,0.4,1,0,AccAcc,27,18,Woman,Right,
49,12,1,1.7330280999995011,['c'],0,right,['e'],0,0.580556400000205,0.1,1,0,AccAcc,27,18,Woman,Right,
50,12,1,1.0178720000003523,['c'],0,right,['u'],1,0.7734060000002501,0.1,0,0,AccAcc,27,18,Woman,Right,
51,12,1,1.8334723000007216,['c'],0,right,['u'],1,0.5123803000005864,0.1,0,0,AccAcc,27,18,Woman,Right,
52,12,1,1.0828619999992952,['c'],1,left,['u'],1,0.531608100000085,0.2,1,0,AccAcc,27,18,Woman,Right,
53,12,1,1.3513804999984131,['n'],1,right,['u'],1,0.31325509999987844,0.2,1,0,AccAcc,27,18,Woman,Right,
54,12,1,1.2175514999998995,['n'],1,right,['u'],1,0.3981534000013198,0.1,1,0,AccAcc,27,18,Woman,Right,
55,12,1,0.8341670999998314,['n'],0,left,['u'],1,0.4481107999999949,0.1,0,0,AccAcc,27,18,Woman,Right,
56,12,1,1.5837881000006746,['n'],1,right,['u'],1,0.35211510000044655,0.2,1,0,AccAcc,27,18,Woman,Right,
57,12,1,1.2012604999999894,['c'],1,left,['u'],1,0.3723617999985436,0.2,1,0,AccAcc,27,18,Woman,Right,
58,12,1,1.2670609999986482,['c'],1,left,['u'],1,0.40560420000110753,0.2,1,0,AccAcc,27,18,Woman,Right,
59,12,1,0.8677965999995649,['n'],1,right,['u'],1,0.32497289999992063,0.1,1,0,AccAcc,27,18,Woman,Right,
0,13,1,1.1846879000004265,['c'],1,left,['u'],1,0.39455289999932575,0.4,1,0,FastAcc,27,18,Woman,Right,
1,13,1,1.1682507999994414,['n'],1,right,['u'],1,0.47864429999935965,0.2,1,0,FastAcc,27,18,Woman,Right,
2,13,1,1.301635300000271,['c'],1,left,['e'],0,0.3776022000001831,0.1,0,0,FastAcc,27,18,Woman,Right,
3,13,1,1.2849086000005627,['c'],1,left,['u'],1,0.3298391999996966,0.1,1,0,FastAcc,27,18,Woman,Right,
4,13,1,1.034118599998692,['n'],0,left,['u'],1,0.3417542000006506,0.4,0,0,FastAcc,27,18,Woman,Right,
5,13,1,1.0840270999997301,['c'],1,left,['u'],1,0.4312876000003598,0.1,1,0,FastAcc,27,18,Woman,Right,
6,13,1,1.2169436999993195,['n'],0,left,['u'],1,0.335587100000339,0.2,0,0,FastAcc,27,18,Woman,Right,
7,13,1,1.0015991000000213,['n'],0,left,['u'],1,0.348456100000476,0.2,0,0,FastAcc,27,18,Woman,Right,
8,13,1,1.633896500001356,['c'],1,left,['e'],0,0.44744790000004286,0.1,0,0,FastAcc,27,18,Woman,Right,
9,13,1,1.28533729999981,['c'],1,left,['u'],1,0.476631700001235,0.2,1,0,FastAcc,27,18,Woman,Right,
10,13,1,1.0513793000009173,['n'],0,left,['e'],0,0.5461214000006294,0.2,1,0,FastAcc,27,18,Woman,Right,
11,13,1,1.1507821999985026,['c'],1,left,['u'],1,0.3363976000000548,0.2,1,0,FastAcc,27,18,Woman,Right,
12,13,1,0.9846309999993537,['n'],0,left,['u'],1,0.4140659000004234,0.2,0,0,FastAcc,27,18,Woman,Right,
13,13,1,1.1674438999998529,['c'],0,right,['e'],0,0.4009738999993715,0.1,1,0,FastAcc,27,18,Woman,Right,
14,13,1,1.3005713000002288,['c'],0,right,['e'],0,0.4633295999992697,0.4,1,0,FastAcc,27,18,Woman,Right,
15,13,1,0.7840404999988095,['n'],1,right,['u'],1,0.6395617999987735,0.4,1,0,FastAcc,27,18,Woman,Right,
16,13,1,1.100937299999714,['c'],1,left,['e'],0,0.5574438999992708,0.4,0,0,FastAcc,27,18,Woman,Right,
17,13,1,1.1014354000017192,['c'],1,left,['e'],0,0.5729523000009067,0.2,0,0,FastAcc,27,18,Woman,Right,
18,13,1,0.9845306999995955,['n'],1,right,['e'],0,0.418083900000056,0.2,0,0,FastAcc,27,18,Woman,Right,
19,13,1,1.1680047000008926,['n'],1,right,['u'],1,0.30827449999924283,0.4,1,0,FastAcc,27,18,Woman,Right,
20,13,1,0.8678967999985616,['n'],0,left,['u'],1,0.3599108999987948,0.1,0,0,FastAcc,27,18,Woman,Right,
21,13,1,1.3508060000003752,['c'],1,left,['e'],0,0.37495160000071337,0.1,0,0,FastAcc,27,18,Woman,Right,
22,13,1,1.0341865999998845,['n'],1,right,['e'],0,0.3844361999999819,0.4,0,0,FastAcc,27,18,Woman,Right,
23,13,1,1.2503197000005457,['n'],0,left,['e'],0,0.6574823999999353,0.4,1,0,FastAcc,27,18,Woman,Right,
24,13,1,0.9677568999995856,['n'],1,right,['e'],0,0.49907899999925576,0.4,0,0,FastAcc,27,18,Woman,Right,
25,13,1,1.4686817999991035,['c'],0,right,['e'],0,0.534738300000754,0.1,1,0,FastAcc,27,18,Woman,Right,
26,13,1,1.116401399998722,['n'],1,right,['e'],0,0.8878311999997095,0.1,0,0,FastAcc,27,18,Woman,Right,
27,13,1,1.3176780999983748,['n'],1,right,['e'],0,0.3533621000005951,0.1,0,0,FastAcc,27,18,Woman,Right,
28,13,1,0.9842914999990171,['n'],1,right,['e'],0,0.4782396000009612,0.2,0,0,FastAcc,27,18,Woman,Right,
29,13,1,0.8993737000000692,['c'],1,left,['u'],1,0.21861059999901045,0.4,1,0,FastAcc,27,18,Woman,Right,
30,13,1,0.8841663000002882,['n'],1,right,['u'],1,0.2875122999994346,0.1,1,0,FastAcc,27,18,Woman,Right,
31,13,1,0.7512743000006594,['c'],1,left,['u'],1,0.20050319999973,0.2,1,0,FastAcc,27,18,Woman,Right,
32,13,1,1.0846013999998831,['n'],1,right,['u'],1,0.24770680000074208,0.4,1,0,FastAcc,27,18,Woman,Right,
33,13,1,0.7351722999992489,['c'],1,left,['u'],1,0.35426489999917976,0.4,1,0,FastAcc,27,18,Woman,Right,
34,13,1,0.818086499999481,['n'],1,right,['u'],1,0.5018576000002213,0.4,1,0,FastAcc,27,18,Woman,Right,
35,13,1,0.9340153000011924,['n'],1,right,['u'],1,0.366881400001148,0.2,1,0,FastAcc,27,18,Woman,Right,
36,13,1,0.7014328999994177,['c'],1,left,['u'],1,0.3111997000014526,0.4,1,0,FastAcc,27,18,Woman,Right,
37,13,1,1.034878700000263,['n'],1,right,['u'],1,0.547465600000578,0.4,1,0,FastAcc,27,18,Woman,Right,
38,13,1,0.9013763999992079,['c'],1,left,['u'],1,0.8117889999994077,0.1,1,0,FastAcc,27,18,Woman,Right,
39,13,1,1.1842938999998296,['n'],1,right,['u'],1,0.4140802000001713,0.4,1,0,FastAcc,27,18,Woman,Right,
40,13,1,1.3840632000010373,['c'],0,right,['e'],0,0.4084175000007235,0.2,1,0,FastAcc,27,18,Woman,Right,
41,13,1,1.3174472999999125,['n'],1,right,['u'],1,0.614039000000048,0.4,1,0,FastAcc,27,18,Woman,Right,
42,13,1,1.1510085000008985,['c'],0,right,['u'],1,1.0256270000008954,0.4,0,0,FastAcc,27,18,Woman,Right,
43,13,1,1.051781199999823,['c'],1,left,['u'],1,0.3534261000004335,0.2,1,0,FastAcc,27,18,Woman,Right,
44,13,1,1.3847297000011167,['n'],1,right,['u'],1,0.46236529999987397,0.1,1,0,FastAcc,27,18,Woman,Right,
45,13,1,1.3844444999995176,['n'],1,right,['e'],0,0.21494440000060422,0.1,0,0,FastAcc,27,18,Woman,Right,
46,13,1,1.1013838999988366,['n'],1,right,['e'],0,0.516574599998421,0.1,0,0,FastAcc,27,18,Woman,Right,
47,13,1,1.6670147999993787,['c'],1,left,['e'],0,0.43141649999961373,0.1,0,0,FastAcc,27,18,Woman,Right,
48,13,1,0.7345574999999371,['n'],1,right,['e'],0,0.27498670000022685,0.2,0,0,FastAcc,27,18,Woman,Right,
49,13,1,0.6332758000007743,['c'],0,right,['e'],0,0.48259479999978794,0.2,1,0,FastAcc,27,18,Woman,Right,
50,13,1,1.0514680000014778,['n'],0,left,['e'],0,0.48704929999985325,0.2,1,0,FastAcc,27,18,Woman,Right,
51,13,1,1.08389089999946,['c'],0,right,['e'],0,0.3618296000004193,0.1,1,0,FastAcc,27,18,Woman,Right,
52,13,1,1.0341459000010218,['c'],1,left,['e'],0,0.3241870000001654,0.2,0,0,FastAcc,27,18,Woman,Right,
53,13,1,0.7350556000001234,['c'],1,left,['e'],0,0.39647230000082345,0.2,0,0,FastAcc,27,18,Woman,Right,
54,13,1,0.8346875000006548,['c'],1,left,['e'],0,0.3652866000011272,0.2,0,0,FastAcc,27,18,Woman,Right,
55,13,1,1.751464599999963,['c'],0,right,['e'],0,0.5389042999995581,0.1,1,0,FastAcc,27,18,Woman,Right,
56,13,1,1.0497947000003478,['n'],1,right,['u'],1,0.6383009000001039,0.1,1,0,FastAcc,27,18,Woman,Right,
57,13,1,1.134520399999019,['c'],1,left,['u'],1,0.28164250000008906,0.1,1,0,FastAcc,27,18,Woman,Right,
58,13,1,1.0680742000004102,['n'],1,right,['e'],0,0.4059962999999698,0.4,0,0,FastAcc,27,18,Woman,Right,
59,13,1,0.9838923000006616,['c'],1,left,['u'],1,0.2728341999991244,0.4,1,0,FastAcc,27,18,Woman,Right,
0,14,1,0.9834103999983199,['n'],1,right,['e'],0,0.5583624999999302,0.2,0,0,FastFast,27,18,Woman,Right,
1,14,1,1.2012273999989702,['c'],1,left,['e'],0,0.9225067999996099,0.2,0,0,FastFast,27,18,Woman,Right,
2,14,1,1.051393800000369,['n'],1,right,['u'],1,0.270227299999533,0.4,1,0,FastFast,27,18,Woman,Right,
3,14,1,0.7181873999998061,['c'],1,left,['u'],1,0.36107499999889114,0.1,1,0,FastFast,27,18,Woman,Right,
4,14,1,0.8187030000008235,['n'],1,right,['u'],1,0.2848747000007279,0.2,1,0,FastFast,27,18,Woman,Right,
5,14,1,1.2509061000000656,['c'],1,left,['e'],0,0.3055516999993415,0.4,0,0,FastFast,27,18,Woman,Right,
6,14,1,1.117871999998897,['n'],1,right,['e'],0,0.33172519999970973,0.2,0,0,FastFast,27,18,Woman,Right,
7,14,1,1.1179503999992448,['n'],0,left,['e'],0,0.803611399998772,0.1,1,0,FastFast,27,18,Woman,Right,
8,14,1,0.9842989999997371,['n'],1,right,['u'],1,1.0385495999998966,0.1,1,0,FastFast,27,18,Woman,Right,
9,14,1,0.9177052000013646,['n'],0,left,['u'],1,0.43503400000008696,0.2,0,0,FastFast,27,18,Woman,Right,
10,14,1,0.9339675999999599,['n'],0,left,['u'],1,0.4147023999994417,0.4,0,0,FastFast,27,18,Woman,Right,
11,14,1,0.934537499999351,['n'],1,right,['u'],1,0.37901919999967504,0.2,1,0,FastFast,27,18,Woman,Right,
12,14,1,1.0172321000009106,['n'],1,right,['u'],1,0.4052876000005199,0.4,1,0,FastFast,27,18,Woman,Right,
13,14,1,1.717719299998862,['n'],0,left,['u'],1,0.530896299998858,0.2,0,0,FastFast,27,18,Woman,Right,
14,14,1,0.7840938000008464,['n'],0,left,['u'],1,0.35255859999961103,0.1,0,0,FastFast,27,18,Woman,Right,
15,14,1,0.6837313000014547,['n'],0,left,['u'],1,0.37806669999918086,0.2,0,0,FastFast,27,18,Woman,Right,
16,14,1,0.6351193999998941,['c'],1,left,['u'],1,0.27569519999997283,0.2,1,0,FastFast,27,18,Woman,Right,
17,14,1,0.9180932999988727,['c'],0,right,['u'],1,0.2945349999990867,0.4,0,0,FastFast,27,18,Woman,Right,
18,14,1,0.8511268000002019,['c'],1,left,['u'],1,0.45983720000003814,0.4,1,0,FastFast,27,18,Woman,Right,
19,14,1,0.985063899999659,['n'],1,right,['u'],1,0.356572500000766,0.4,1,0,FastFast,27,18,Woman,Right,
20,14,1,0.7345822000006592,['c'],1,left,['u'],1,0.36338550000073155,0.1,1,0,FastFast,27,18,Woman,Right,
21,14,1,1.1513326000003872,['n'],0,left,['e'],0,0.5609958000004553,0.1,1,0,FastFast,27,18,Woman,Right,
22,14,1,0.9360275999988517,['c'],0,right,['e'],0,0.35993690000032075,0.2,1,0,FastFast,27,18,Woman,Right,
23,14,1,0.8684900000007474,['c'],0,right,['e'],0,0.5857036999987031,0.1,1,0,FastFast,27,18,Woman,Right,
24,14,1,1.0513231000004453,['c'],0,right,['e'],0,0.3144974999995611,0.2,1,0,FastFast,27,18,Woman,Right,
25,14,1,0.8845480999989377,['n'],0,left,['u'],1,0.3008680999992066,0.4,0,0,FastFast,27,18,Woman,Right,
26,14,1,1.1846941000003426,['c'],1,left,['u'],1,0.4518074000006891,0.1,1,0,FastFast,27,18,Woman,Right,
27,14,1,1.2682571999994252,['c'],1,left,['e'],0,0.33740380000017467,0.2,0,0,FastFast,27,18,Woman,Right,
28,14,1,1.2515088000000105,['n'],1,right,['e'],0,0.26034570000047097,0.2,0,0,FastFast,27,18,Woman,Right,
29,14,1,1.0518248000007588,['c'],0,right,['e'],0,0.418711300000723,0.4,1,0,FastFast,27,18,Woman,Right,
30,14,1,0.8513306000004377,['n'],1,right,['e'],0,0.46628319999945234,0.4,0,0,FastFast,27,18,Woman,Right,
31,14,1,0.8178987999999663,['n'],1,right,['e'],0,0.2732066999997187,0.4,0,0,FastFast,27,18,Woman,Right,
32,14,1,0.9176901999999245,['n'],1,right,['e'],0,0.34021910000046773,0.4,0,0,FastFast,27,18,Woman,Right,
33,14,1,0.6679203999992751,['c'],1,left,['u'],1,0.3664677999986452,0.2,1,0,FastFast,27,18,Woman,Right,
34,14,1,1.117968500000643,['c'],0,right,['u'],1,0.3414436000002752,0.1,0,0,FastFast,27,18,Woman,Right,
35,14,1,0.701335999998264,['n'],1,right,['u'],1,0.3344608999996126,0.4,1,0,FastFast,27,18,Woman,Right,
36,14,1,0.8343797999987146,['n'],1,right,['u'],1,0.3389771000001929,0.4,1,0,FastFast,27,18,Woman,Right,
37,14,1,0.7847321999997803,['n'],0,left,['u'],1,0.3114461000004667,0.2,0,0,FastFast,27,18,Woman,Right,
38,14,1,0.9846976999997423,['n'],1,right,['u'],1,0.3740271999995457,0.4,1,0,FastFast,27,18,Woman,Right,
39,14,1,1.084533699999156,['n'],1,right,['e'],0,0.3660513000013452,0.4,0,0,FastFast,27,18,Woman,Right,
40,14,1,0.9180500999991636,['n'],0,left,['e'],0,0.3171245000012277,0.2,1,0,FastFast,27,18,Woman,Right,
41,14,1,1.1346090999995795,['n'],0,left,['e'],0,0.27720829999998386,0.1,1,0,FastFast,27,18,Woman,Right,
42,14,1,1.0513891999999032,['n'],0,left,['e'],0,0.41894090000096185,0.1,1,0,FastFast,27,18,Woman,Right,
43,14,1,0.8347642000007909,['n'],0,left,['e'],0,0.4675537000002805,0.4,1,0,FastFast,27,18,Woman,Right,
44,14,1,0.9846306999988883,['n'],0,left,['e'],0,0.363384500000393,0.2,1,0,FastFast,27,18,Woman,Right,
45,14,1,0.8171863000006852,['c'],1,left,['e'],0,0.398475400001189,0.4,0,0,FastFast,27,18,Woman,Right,
46,14,1,0.8519058000001678,['c'],1,left,['e'],0,0.44671460000063234,0.1,0,0,FastFast,27,18,Woman,Right,
47,14,1,1.0844777000002068,['n'],1,right,['e'],0,0.7557510000006005,0.1,0,0,FastFast,27,18,Woman,Right,
48,14,1,0.784749100001136,['n'],1,right,['e'],0,0.3286874999994325,0.1,0,0,FastFast,27,18,Woman,Right,
49,14,1,0.9335301999999501,['n'],0,left,['e'],0,0.4247173000003386,0.2,1,0,FastFast,27,18,Woman,Right,
50,14,1,0.9014342000009492,['n'],1,right,['e'],0,0.40583479999986594,0.4,0,0,FastFast,27,18,Woman,Right,
51,14,1,0.7514566000008926,['c'],0,right,['e'],0,0.6021655999993527,0.1,1,0,FastFast,27,18,Woman,Right,
52,14,1,1.250398199999836,['n'],0,left,['e'],0,0.3384626999995817,0.2,1,0,FastFast,27,18,Woman,Right,
53,14,1,0.6661537999989378,['c'],0,right,['u'],1,0.3336301999988791,0.2,0,0,FastFast,27,18,Woman,Right,
54,14,1,1.7011837999998534,['c'],1,left,['e'],0,0.5416969000016252,0.1,0,0,FastFast,27,18,Woman,Right,
55,14,1,1.1683336999994935,['n'],0,left,['e'],0,0.7800210000004881,0.1,1,0,FastFast,27,18,Woman,Right,
56,14,1,0.8342505999989953,['n'],1,right,['u'],1,0.4616749999986496,0.4,1,0,FastFast,27,18,Woman,Right,
57,14,1,1.867623600001025,['c'],0,right,['e'],0,0.3067465000003722,0.1,1,0,FastFast,27,18,Woman,Right,
58,14,1,1.6012164000003395,['n'],1,right,['e'],0,1.0011005999986082,0.1,0,0,FastFast,27,18,Woman,Right,
59,14,1,1.7171586000004027,['c'],1,left,['e'],0,0.4948782999999821,0.1,0,0,FastFast,27,18,Woman,Right,
0,15,1,1.101264099999753,['n'],0,left,['e'],0,0.37424509999982547,0.2,1,0,AccFast,27,18,Woman,Right,
1,15,1,1.0177617000008468,['c'],1,left,['e'],0,0.609287299999778,0.2,0,0,AccFast,27,18,Woman,Right,
2,15,1,0.9681332999989536,['n'],1,right,['e'],0,0.48478830000021844,0.1,0,0,AccFast,27,18,Woman,Right,
3,15,1,0.968002699999488,['n'],1,right,['u'],1,0.5252261999994516,0.2,1,0,AccFast,27,18,Woman,Right,
4,15,1,1.0171202000001358,['c'],1,left,['e'],0,0.49788059999991674,0.4,0,0,AccFast,27,18,Woman,Right,
5,15,1,0.9171111000014207,['n'],1,right,['e'],0,0.33170130000144127,0.1,0,0,AccFast,27,18,Woman,Right,
6,15,1,1.58546589999969,['n'],1,right,['u'],1,0.2894414999991568,0.2,1,0,AccFast,27,18,Woman,Right,
7,15,1,0.9168015000013838,['n'],1,right,['e'],0,0.4685205000005226,0.4,0,0,AccFast,27,18,Woman,Right,
8,15,1,1.3339833999998518,['c'],1,left,['e'],0,0.4140330999998696,0.2,0,0,AccFast,27,18,Woman,Right,
9,15,1,0.8347479000003659,['n'],1,right,['e'],0,0.30225790000076813,0.1,0,0,AccFast,27,18,Woman,Right,
10,15,1,0.9341777000008733,['n'],1,right,['e'],0,0.28708869999900344,0.2,0,0,AccFast,27,18,Woman,Right,
11,15,1,0.851627499998358,['n'],1,right,['e'],0,0.32410820000040985,0.4,0,0,AccFast,27,18,Woman,Right,
12,15,1,0.7003789999998844,['n'],1,right,['e'],0,0.30212609999944107,0.4,0,0,AccFast,27,18,Woman,Right,
13,15,1,0.8351480999990599,['n'],1,right,['e'],0,0.35459329999866895,0.2,0,0,AccFast,27,18,Woman,Right,
14,15,1,1.0344660000009753,['n'],0,left,['u'],1,0.3975096999984089,0.1,0,0,AccFast,27,18,Woman,Right,
15,15,1,0.8514833999997791,['n'],1,right,['u'],1,0.4459432999992714,0.2,1,0,AccFast,27,18,Woman,Right,
16,15,1,1.217749699999331,['c'],1,left,['e'],0,0.49338709999938146,0.1,0,0,AccFast,27,18,Woman,Right,
17,15,1,0.8021004000001994,['c'],1,left,['e'],0,0.5723865999989357,0.4,0,0,AccFast,27,18,Woman,Right,
18,15,1,0.9676995999998326,['n'],0,left,['e'],0,0.28943600000093284,0.4,1,0,AccFast,27,18,Woman,Right,
19,15,1,1.200796099999934,['n'],0,left,['u'],1,0.6163658000004943,0.4,0,0,AccFast,27,18,Woman,Right,
20,15,1,0.6840895000004821,['n'],0,left,['e'],0,0.7745826000009401,0.4,1,0,AccFast,27,18,Woman,Right,
21,15,1,1.0347774999991088,['c'],0,right,['e'],0,0.35294040000007953,0.1,1,0,AccFast,27,18,Woman,Right,
22,15,1,0.968049199998859,['c'],0,right,['e'],0,0.3665788000016619,0.2,1,0,AccFast,27,18,Woman,Right,
23,15,1,1.0016395000002376,['n'],1,right,['e'],0,0.2821940999983781,0.4,0,0,AccFast,27,18,Woman,Right,
24,15,1,1.0335179999983666,['n'],0,left,['e'],0,0.26391549999971176,0.2,1,0,AccFast,27,18,Woman,Right,
25,15,1,1.0179533999998966,['n'],0,left,['e'],0,0.27873799999906623,0.2,1,0,AccFast,27,18,Woman,Right,
26,15,1,0.9509742000009282,['c'],1,left,['e'],0,0.3758818999995128,0.2,0,0,AccFast,27,18,Woman,Right,
27,15,1,1.2014653999995062,['n'],0,left,['u'],1,0.28337219999957597,0.1,0,0,AccFast,27,18,Woman,Right,
28,15,1,0.801372399999309,['n'],0,left,['u'],1,0.2742335999992065,0.4,0,0,AccFast,27,18,Woman,Right,
29,15,1,0.8682749999989028,['n'],0,left,['u'],1,0.8399005999999645,0.4,0,0,AccFast,27,18,Woman,Right,
30,15,1,0.8681866000006266,['c'],1,left,['u'],1,0.2615568999990501,0.2,1,0,AccFast,27,18,Woman,Right,
31,15,1,0.9680028999991919,['n'],1,right,['u'],1,0.3748161000003165,0.1,1,0,AccFast,27,18,Woman,Right,
32,15,1,0.7010424000000057,['n'],0,left,['u'],1,0.3341395999996166,0.4,0,0,AccFast,27,18,Woman,Right,
33,15,1,0.8348098999995273,['n'],1,right,['u'],1,0.3856715999991138,0.2,1,0,AccFast,27,18,Woman,Right,
34,15,1,0.9169206999995367,['n'],1,right,['u'],1,0.28776579999976093,0.1,1,0,AccFast,27,18,Woman,Right,
35,15,1,1.2507196999995358,['c'],0,right,['u'],1,0.27680940000027476,0.1,0,0,AccFast,27,18,Woman,Right,
36,15,1,0.784880899998825,['c'],0,right,['u'],1,0.44527759999982663,0.4,0,0,AccFast,27,18,Woman,Right,
37,15,1,0.9010610000004817,['c'],1,left,['u'],1,0.28135420000035083,0.4,1,0,AccFast,27,18,Woman,Right,
38,15,1,0.8514479999994364,['c'],0,right,['u'],1,0.2543254000011075,0.2,0,0,AccFast,27,18,Woman,Right,
39,15,1,0.7661771999992197,['c'],1,left,['u'],1,0.2814211000004434,0.4,1,0,AccFast,27,18,Woman,Right,
40,15,1,1.0177598999998736,['n'],1,right,['e'],0,0.27816040000107023,0.4,0,0,AccFast,27,18,Woman,Right,
41,15,1,0.9178427000006195,['n'],0,left,['e'],0,0.4404076000009809,0.2,1,0,AccFast,27,18,Woman,Right,
42,15,1,0.6842981999998301,['n'],1,right,['e'],0,0.2860249000004842,0.4,0,0,AccFast,27,18,Woman,Right,
43,15,1,0.651160000001255,['n'],1,right,['u'],1,0.39507620000040333,0.4,1,0,AccFast,27,18,Woman,Right,
44,15,1,1.3678791999991518,['c'],0,right,['e'],0,0.630687200000466,0.1,1,0,AccFast,27,18,Woman,Right,
45,15,1,1.2664037000013195,['c'],0,right,['u'],1,0.397739800000636,0.4,0,0,AccFast,27,18,Woman,Right,
46,15,1,1.134625099999539,['n'],0,left,['u'],1,0.4660975000006147,0.2,0,0,AccFast,27,18,Woman,Right,
47,15,1,1.667313899999499,['c'],1,left,['e'],0,0.36688649999996414,0.1,0,0,AccFast,27,18,Woman,Right,
48,15,1,1.7014437999987422,['c'],1,left,['u'],1,0.3346735000013723,0.2,1,0,AccFast,27,18,Woman,Right,
49,15,1,1.5346793999997317,['c'],0,right,['e'],0,0.4063025999985257,0.1,1,0,AccFast,27,18,Woman,Right,
50,15,1,0.9524292000005516,['c'],1,left,['e'],0,0.402658999999403,0.4,0,0,AccFast,27,18,Woman,Right,
51,15,1,1.2176808999993227,['c'],1,left,['e'],0,0.3883373999997275,0.1,0,0,AccFast,27,18,Woman,Right,
52,15,1,0.8840322000014567,['c'],1,left,['u'],1,0.2597793000004458,0.2,1,0,AccFast,27,18,Woman,Right,
53,15,1,0.850640900000144,['c'],1,left,['u'],1,0.8260924999995041,0.1,1,0,AccFast,27,18,Woman,Right,
54,15,1,0.851225099999283,['c'],0,right,['u'],1,0.601923700000043,0.1,0,0,AccFast,27,18,Woman,Right,
55,15,1,0.9006146000010631,['c'],1,left,['u'],1,0.48025520000010147,0.2,1,0,AccFast,27,18,Woman,Right,
56,15,1,0.9010747000011179,['c'],0,right,['u'],1,0.3470029000000068,0.1,0,0,AccFast,27,18,Woman,Right,
57,15,1,1.018077100001392,['c'],0,right,['e'],0,0.39060739999877114,0.1,1,0,AccFast,27,18,Woman,Right,
58,15,1,0.9514349000000948,['c'],1,left,['e'],0,0.48374730000068666,0.1,0,0,AccFast,27,18,Woman,Right,
59,15,1,1.0344825000011042,['c'],0,right,['e'],0,0.36137129999951867,0.1,1,0,AccFast,27,18,Woman,Right,
