withinblocktrial,block,block_repetition,rt,resp,cor,cresp,conf_press,cj,rtconf,coherence,metacognition,slow_trial,manipulation,sub,age,gender,handedness,
0,1,1,1.8174794999995356,['n'],0,left,none,-99,-99,0.5,-99,0,none,28,17,Woman,Right,
1,1,1,1.9996090000004187,['n'],0,left,none,-99,-99,0.5,-99,0,none,28,17,Woman,Right,
2,1,1,2.4334337000000232,['c'],0,right,none,-99,-99,0.5,-99,0,none,28,17,Woman,Right,
3,1,1,1.5179026000005251,['n'],0,left,none,-99,-99,0.5,-99,0,none,28,17,Woman,Right,
4,1,1,4.4337209000004805,['c'],0,right,none,-99,-99,0.5,-99,0,none,28,17,Woman,Right,
5,1,1,4.931726099999651,['c'],1,left,none,-99,-99,0.5,-99,0,none,28,17,Woman,Right,
6,1,1,1.417088000000149,['n'],1,right,none,-99,-99,0.5,-99,0,none,28,17,Woman,Right,
7,1,1,4.100179600000047,['c'],0,right,none,-99,-99,0.5,-99,0,none,28,17,Woman,Right,
8,1,1,5.000278100000287,x,-99,right,none,-99,-99,0.5,-99,1,none,28,17,Woman,Right,
9,1,1,0.9336371000008512,['c'],1,left,none,-99,-99,0.5,-99,0,none,28,17,Woman,Right,
10,1,1,0.8007261999991897,['n'],0,left,none,-99,-99,0.5,-99,0,none,28,17,Woman,Right,
11,1,1,0.6676991000003909,['c'],1,left,none,-99,-99,0.5,-99,0,none,28,17,Woman,Right,
12,1,1,0.7667251999992004,['c'],1,left,none,-99,-99,0.5,-99,0,none,28,17,Woman,Right,
13,1,1,0.7838408999996318,['c'],1,left,none,-99,-99,0.5,-99,0,none,28,17,Woman,Right,
14,1,1,0.9667551999991701,['n'],1,right,none,-99,-99,0.5,-99,0,none,28,17,Woman,Right,
15,1,1,0.884171099998639,['c'],0,right,none,-99,-99,0.5,-99,0,none,28,17,Woman,Right,
16,1,1,2.201329199999236,['n'],1,right,none,-99,-99,0.5,-99,0,none,28,17,Woman,Right,
17,1,1,0.7338376999996399,['c'],0,right,none,-99,-99,0.5,-99,0,none,28,17,Woman,Right,
18,1,1,2.100175200001104,['n'],0,left,none,-99,-99,0.5,-99,0,none,28,17,Woman,Right,
19,1,1,0.8333562000007078,['c'],1,left,none,-99,-99,0.5,-99,0,none,28,17,Woman,Right,
20,1,1,0.7511066999995819,['c'],0,right,none,-99,-99,0.5,-99,0,none,28,17,Woman,Right,
21,1,1,3.1004803000014363,['n'],0,left,none,-99,-99,0.5,-99,0,none,28,17,Woman,Right,
22,1,1,3.134242500000255,['c'],0,right,none,-99,-99,0.5,-99,0,none,28,17,Woman,Right,
23,1,1,2.7001887999995233,['n'],1,right,none,-99,-99,0.5,-99,0,none,28,17,Woman,Right,
0,1,2,1.117849500000375,['c'],1,left,none,-99,-99,0.5,-99,0,none,28,17,Woman,Right,
1,1,2,0.6511049000000639,['c'],0,right,none,-99,-99,0.5,-99,0,none,28,17,Woman,Right,
2,1,2,1.6343108000000939,['n'],1,right,none,-99,-99,0.5,-99,0,none,28,17,Woman,Right,
3,1,2,0.6155190000008588,['c'],1,left,none,-99,-99,0.5,-99,0,none,28,17,Woman,Right,
4,1,2,2.0348513000008097,['c'],0,right,none,-99,-99,0.5,-99,0,none,28,17,Woman,Right,
5,1,2,1.6343847999996797,['c'],1,left,none,-99,-99,0.5,-99,0,none,28,17,Woman,Right,
6,1,2,2.1843977000007726,['c'],1,left,none,-99,-99,0.5,-99,0,none,28,17,Woman,Right,
7,1,2,3.183273900000131,['c'],1,left,none,-99,-99,0.5,-99,0,none,28,17,Woman,Right,
8,1,2,3.016400299999077,['n'],0,left,none,-99,-99,0.5,-99,0,none,28,17,Woman,Right,
9,1,2,0.7341670999994676,['c'],1,left,none,-99,-99,0.5,-99,0,none,28,17,Woman,Right,
10,1,2,0.4678284999990865,['c'],0,right,none,-99,-99,0.5,-99,0,none,28,17,Woman,Right,
11,1,2,0.8328882000005251,['n'],0,left,none,-99,-99,0.5,-99,0,none,28,17,Woman,Right,
12,1,2,2.983660500000042,['n'],1,right,none,-99,-99,0.5,-99,0,none,28,17,Woman,Right,
13,1,2,1.1327998999986448,['c'],1,left,none,-99,-99,0.5,-99,0,none,28,17,Woman,Right,
14,1,2,2.368438600000445,['c'],0,right,none,-99,-99,0.5,-99,0,none,28,17,Woman,Right,
15,1,2,0.7340463000000454,['n'],0,left,none,-99,-99,0.5,-99,0,none,28,17,Woman,Right,
16,1,2,2.5515030000005936,['n'],0,left,none,-99,-99,0.5,-99,0,none,28,17,Woman,Right,
17,1,2,2.550005400000373,['c'],0,right,none,-99,-99,0.5,-99,0,none,28,17,Woman,Right,
18,1,2,3.41731609999988,['n'],1,right,none,-99,-99,0.5,-99,0,none,28,17,Woman,Right,
19,1,2,1.3676713000004384,['n'],1,right,none,-99,-99,0.5,-99,0,none,28,17,Woman,Right,
20,1,2,2.1826100000016595,['n'],1,right,none,-99,-99,0.5,-99,0,none,28,17,Woman,Right,
21,1,2,1.4669384000007994,['n'],1,right,none,-99,-99,0.5,-99,0,none,28,17,Woman,Right,
22,1,2,0.6845728999996936,['n'],1,right,none,-99,-99,0.5,-99,0,none,28,17,Woman,Right,
23,1,2,0.7505836999989697,['n'],0,left,none,-99,-99,0.5,-99,0,none,28,17,Woman,Right,
0,1,3,2.6677589999999327,['c'],0,right,none,-99,-99,0.5,-99,0,none,28,17,Woman,Right,
1,1,3,0.7505823999999848,['n'],0,left,none,-99,-99,0.5,-99,0,none,28,17,Woman,Right,
2,1,3,2.3832644000012806,['n'],0,left,none,-99,-99,0.5,-99,0,none,28,17,Woman,Right,
3,1,3,2.4831813000000693,['n'],0,left,none,-99,-99,0.5,-99,0,none,28,17,Woman,Right,
4,1,3,1.8005229999998846,['c'],0,right,none,-99,-99,0.5,-99,0,none,28,17,Woman,Right,
5,1,3,2.7000645999996777,['c'],0,right,none,-99,-99,0.5,-99,0,none,28,17,Woman,Right,
6,1,3,1.5184248000005027,['n'],1,right,none,-99,-99,0.5,-99,0,none,28,17,Woman,Right,
7,1,3,1.1522658999983832,['n'],0,left,none,-99,-99,0.5,-99,0,none,28,17,Woman,Right,
8,1,3,2.0169581999998627,['c'],0,right,none,-99,-99,0.5,-99,0,none,28,17,Woman,Right,
9,1,3,3.050163899999461,['c'],1,left,none,-99,-99,0.5,-99,0,none,28,17,Woman,Right,
10,1,3,1.4502959000001283,['n'],0,left,none,-99,-99,0.5,-99,0,none,28,17,Woman,Right,
11,1,3,2.8665228999998362,['n'],1,right,none,-99,-99,0.5,-99,0,none,28,17,Woman,Right,
12,1,3,2.5174601999988226,['c'],0,right,none,-99,-99,0.5,-99,0,none,28,17,Woman,Right,
13,1,3,1.8158827999995992,['n'],1,right,none,-99,-99,0.5,-99,0,none,28,17,Woman,Right,
14,1,3,0.717531100000997,['n'],1,right,none,-99,-99,0.5,-99,0,none,28,17,Woman,Right,
15,1,3,0.5835213999998814,['c'],1,left,none,-99,-99,0.5,-99,0,none,28,17,Woman,Right,
16,1,3,0.49936110000089684,['n'],1,right,none,-99,-99,0.5,-99,0,none,28,17,Woman,Right,
17,1,3,0.5493606999989424,['c'],1,left,none,-99,-99,0.5,-99,0,none,28,17,Woman,Right,
18,1,3,0.7667154000009759,['n'],0,left,none,-99,-99,0.5,-99,0,none,28,17,Woman,Right,
19,1,3,0.7176528999989387,['n'],0,left,none,-99,-99,0.5,-99,0,none,28,17,Woman,Right,
20,1,3,1.6679722000008042,['n'],0,left,none,-99,-99,0.5,-99,0,none,28,17,Woman,Right,
21,1,3,3.0834680999996635,['c'],1,left,none,-99,-99,0.5,-99,0,none,28,17,Woman,Right,
22,1,3,2.415698599999814,['c'],0,right,none,-99,-99,0.5,-99,0,none,28,17,Woman,Right,
23,1,3,1.5511218999999983,['c'],0,right,none,-99,-99,0.5,-99,0,none,28,17,Woman,Right,
0,1,4,0.7167768999988766,['n'],0,left,none,-99,-99,0.5,-99,0,none,28,17,Woman,Right,
1,1,4,3.7005740999993577,['n'],1,right,none,-99,-99,0.5,-99,0,none,28,17,Woman,Right,
2,1,4,3.0005983999999444,['c'],1,left,none,-99,-99,0.5,-99,0,none,28,17,Woman,Right,
3,1,4,0.9843368999991071,['n'],0,left,none,-99,-99,0.5,-99,0,none,28,17,Woman,Right,
4,1,4,1.3510375999994721,['c'],1,left,none,-99,-99,0.5,-99,0,none,28,17,Woman,Right,
5,1,4,1.9155845000004774,['n'],1,right,none,-99,-99,0.5,-99,0,none,28,17,Woman,Right,
6,1,4,1.0163989000011497,['c'],1,left,none,-99,-99,0.5,-99,0,none,28,17,Woman,Right,
7,1,4,0.7341301000014937,['n'],1,right,none,-99,-99,0.5,-99,0,none,28,17,Woman,Right,
8,1,4,0.8161821000012424,['c'],0,right,none,-99,-99,0.5,-99,0,none,28,17,Woman,Right,
9,1,4,2.6329623000001448,['n'],1,right,none,-99,-99,0.5,-99,0,none,28,17,Woman,Right,
10,1,4,2.099864499999967,['c'],1,left,none,-99,-99,0.5,-99,0,none,28,17,Woman,Right,
11,1,4,0.616455200000928,['n'],0,left,none,-99,-99,0.5,-99,0,none,28,17,Woman,Right,
12,1,4,2.817785499999445,['c'],1,left,none,-99,-99,0.5,-99,0,none,28,17,Woman,Right,
13,1,4,0.7676430999999866,['n'],0,left,none,-99,-99,0.5,-99,0,none,28,17,Woman,Right,
14,1,4,1.7508409000001848,['c'],0,right,none,-99,-99,0.5,-99,0,none,28,17,Woman,Right,
15,1,4,3.300458500001696,['n'],0,left,none,-99,-99,0.5,-99,0,none,28,17,Woman,Right,
16,1,4,3.383547200000976,['n'],0,left,none,-99,-99,0.5,-99,0,none,28,17,Woman,Right,
17,1,4,4.08341289999953,['c'],0,right,none,-99,-99,0.5,-99,0,none,28,17,Woman,Right,
18,1,4,3.9339901999992435,['c'],1,left,none,-99,-99,0.5,-99,0,none,28,17,Woman,Right,
19,1,4,4.4827156999999715,['n'],1,right,none,-99,-99,0.5,-99,0,none,28,17,Woman,Right,
20,1,4,1.033791600000768,['c'],0,right,none,-99,-99,0.5,-99,0,none,28,17,Woman,Right,
21,1,4,1.9007947999998578,['n'],1,right,none,-99,-99,0.5,-99,0,none,28,17,Woman,Right,
22,1,4,3.7660298999999213,['n'],1,right,none,-99,-99,0.5,-99,0,none,28,17,Woman,Right,
23,1,4,0.8498732000007294,['c'],0,right,none,-99,-99,0.5,-99,0,none,28,17,Woman,Right,
0,1,5,2.867329400000017,['n'],0,left,none,-99,-99,0.5,-99,0,none,28,17,Woman,Right,
1,1,5,2.933663099998739,['n'],0,left,none,-99,-99,0.5,-99,0,none,28,17,Woman,Right,
2,1,5,0.3342867999999726,['c'],0,right,none,-99,-99,0.5,-99,0,none,28,17,Woman,Right,
3,1,5,4.983011399999668,['n'],0,left,none,-99,-99,0.5,-99,0,none,28,17,Woman,Right,
4,1,5,2.5159070000008796,['n'],1,right,none,-99,-99,0.5,-99,0,none,28,17,Woman,Right,
5,1,5,2.882536399998571,['n'],1,right,none,-99,-99,0.5,-99,0,none,28,17,Woman,Right,
6,1,5,3.7672603000009985,['n'],0,left,none,-99,-99,0.5,-99,0,none,28,17,Woman,Right,
7,1,5,3.183515599999737,['c'],0,right,none,-99,-99,0.5,-99,0,none,28,17,Woman,Right,
8,1,5,2.399612499999421,['n'],1,right,none,-99,-99,0.5,-99,0,none,28,17,Woman,Right,
9,1,5,2.6165871000011975,['c'],1,left,none,-99,-99,0.5,-99,0,none,28,17,Woman,Right,
10,1,5,1.4333879999994679,['n'],1,right,none,-99,-99,0.5,-99,0,none,28,17,Woman,Right,
11,1,5,1.1507536999997683,['n'],1,right,none,-99,-99,0.5,-99,0,none,28,17,Woman,Right,
12,1,5,1.533024899999873,['c'],1,left,none,-99,-99,0.5,-99,0,none,28,17,Woman,Right,
13,1,5,1.3170596999989357,['n'],0,left,none,-99,-99,0.5,-99,0,none,28,17,Woman,Right,
14,1,5,1.6509411999995791,['n'],1,right,none,-99,-99,0.5,-99,0,none,28,17,Woman,Right,
15,1,5,1.4828192999993917,['c'],1,left,none,-99,-99,0.5,-99,0,none,28,17,Woman,Right,
16,1,5,1.368552500000078,['n'],1,right,none,-99,-99,0.5,-99,0,none,28,17,Woman,Right,
17,1,5,2.3331304000003,['c'],1,left,none,-99,-99,0.5,-99,0,none,28,17,Woman,Right,
18,1,5,0.6987198000006174,['n'],1,right,none,-99,-99,0.5,-99,0,none,28,17,Woman,Right,
19,1,5,1.7175174000003608,['c'],1,left,none,-99,-99,0.5,-99,0,none,28,17,Woman,Right,
20,1,5,0.5831412999996246,['n'],0,left,none,-99,-99,0.5,-99,0,none,28,17,Woman,Right,
21,1,5,1.300920200001201,['c'],0,right,none,-99,-99,0.5,-99,0,none,28,17,Woman,Right,
22,1,5,2.916153899999699,['c'],1,left,none,-99,-99,0.5,-99,0,none,28,17,Woman,Right,
23,1,5,2.1164294999998674,['c'],0,right,none,-99,-99,0.5,-99,0,none,28,17,Woman,Right,
0,1,6,0.684380600001532,['n'],0,left,none,-99,-99,0.5,-99,0,none,28,17,Woman,Right,
1,1,6,0.7335130999999819,['n'],1,right,none,-99,-99,0.5,-99,0,none,28,17,Woman,Right,
2,1,6,2.001830700000937,['c'],1,left,none,-99,-99,0.5,-99,0,none,28,17,Woman,Right,
3,1,6,0.6488941000006889,['n'],1,right,none,-99,-99,0.5,-99,0,none,28,17,Woman,Right,
4,1,6,0.7322132999997848,['n'],0,left,none,-99,-99,0.5,-99,0,none,28,17,Woman,Right,
5,1,6,0.6837059000008594,['c'],0,right,none,-99,-99,0.5,-99,0,none,28,17,Woman,Right,
6,1,6,2.2007978999990883,['n'],0,left,none,-99,-99,0.5,-99,0,none,28,17,Woman,Right,
7,1,6,2.984580999998798,['c'],1,left,none,-99,-99,0.5,-99,0,none,28,17,Woman,Right,
8,1,6,0.6335311000002548,['n'],1,right,none,-99,-99,0.5,-99,0,none,28,17,Woman,Right,
9,1,6,1.7488145000006625,['n'],0,left,none,-99,-99,0.5,-99,0,none,28,17,Woman,Right,
10,1,6,1.5675845999994635,['c'],0,right,none,-99,-99,0.5,-99,0,none,28,17,Woman,Right,
11,1,6,3.6685266999993473,['n'],1,right,none,-99,-99,0.5,-99,0,none,28,17,Woman,Right,
12,1,6,1.1666341999989527,['c'],1,left,none,-99,-99,0.5,-99,0,none,28,17,Woman,Right,
13,1,6,0.6836550999996689,['n'],0,left,none,-99,-99,0.5,-99,0,none,28,17,Woman,Right,
14,1,6,0.6998511000001599,['n'],1,right,none,-99,-99,0.5,-99,0,none,28,17,Woman,Right,
15,1,6,1.299044800000047,['c'],1,left,none,-99,-99,0.5,-99,0,none,28,17,Woman,Right,
16,1,6,0.6676888000001782,['n'],1,right,none,-99,-99,0.5,-99,0,none,28,17,Woman,Right,
17,1,6,0.7172819000006712,['n'],1,right,none,-99,-99,0.5,-99,0,none,28,17,Woman,Right,
18,1,6,0.49922700000024633,['c'],1,left,none,-99,-99,0.5,-99,0,none,28,17,Woman,Right,
19,1,6,0.600248400000055,['n'],1,right,none,-99,-99,0.5,-99,0,none,28,17,Woman,Right,
20,1,6,0.3826305999991746,['c'],1,left,none,-99,-99,0.5,-99,0,none,28,17,Woman,Right,
21,1,6,0.7154035000003205,['c'],1,left,none,-99,-99,0.5,-99,0,none,28,17,Woman,Right,
22,1,6,0.4674546000005648,['n'],1,right,none,-99,-99,0.5,-99,0,none,28,17,Woman,Right,
23,1,6,0.7503703999991558,['n'],1,right,none,-99,-99,0.5,-99,0,none,28,17,Woman,Right,
0,1,7,1.867185299999619,['n'],0,left,none,-99,-99,0.5,-99,0,none,28,17,Woman,Right,
1,1,7,3.3158317000015813,['n'],0,left,none,-99,-99,0.5,-99,0,none,28,17,Woman,Right,
2,1,7,0.9161803999995755,['c'],1,left,none,-99,-99,0.5,-99,0,none,28,17,Woman,Right,
3,1,7,0.5487274999995861,['n'],0,left,none,-99,-99,0.5,-99,0,none,28,17,Woman,Right,
4,1,7,1.2014541999997164,['n'],0,left,none,-99,-99,0.5,-99,0,none,28,17,Woman,Right,
5,1,7,2.8682196000008844,['n'],1,right,none,-99,-99,0.5,-99,0,none,28,17,Woman,Right,
6,1,7,1.8013307000001078,['c'],0,right,none,-99,-99,0.5,-99,0,none,28,17,Woman,Right,
7,1,7,1.035630599999422,['n'],0,left,none,-99,-99,0.5,-99,0,none,28,17,Woman,Right,
8,1,7,2.217235800000708,['c'],1,left,none,-99,-99,0.5,-99,0,none,28,17,Woman,Right,
9,1,7,0.8502740000003541,['c'],0,right,none,-99,-99,0.5,-99,0,none,28,17,Woman,Right,
10,1,7,0.7843996999999945,['n'],1,right,none,-99,-99,0.5,-99,0,none,28,17,Woman,Right,
11,1,7,1.9834976000001916,['c'],0,right,none,-99,-99,0.5,-99,0,none,28,17,Woman,Right,
12,1,7,0.48381849999896076,['n'],0,left,none,-99,-99,0.5,-99,0,none,28,17,Woman,Right,
13,1,7,0.5670523000007961,['n'],1,right,none,-99,-99,0.5,-99,0,none,28,17,Woman,Right,
14,1,7,0.7168428000004496,['c'],1,left,none,-99,-99,0.5,-99,0,none,28,17,Woman,Right,
15,1,7,0.5502263999987917,['c'],0,right,none,-99,-99,0.5,-99,0,none,28,17,Woman,Right,
16,1,7,1.3678803000002517,['c'],0,right,none,-99,-99,0.5,-99,0,none,28,17,Woman,Right,
17,1,7,0.6167404999996506,['n'],1,right,none,-99,-99,0.5,-99,0,none,28,17,Woman,Right,
18,1,7,0.5501810000005207,['c'],0,right,none,-99,-99,0.5,-99,0,none,28,17,Woman,Right,
19,1,7,1.3176521999994293,['n'],1,right,none,-99,-99,0.5,-99,0,none,28,17,Woman,Right,
20,1,7,0.9829745000006369,['n'],0,left,none,-99,-99,0.5,-99,0,none,28,17,Woman,Right,
21,1,7,1.7508281999998871,['n'],0,left,none,-99,-99,0.5,-99,0,none,28,17,Woman,Right,
22,1,7,1.383070099998804,['c'],1,left,none,-99,-99,0.5,-99,0,none,28,17,Woman,Right,
23,1,7,3.3827879000000394,['c'],0,right,none,-99,-99,0.5,-99,0,none,28,17,Woman,Right,
0,1,8,1.8171829999992042,['n'],0,left,none,-99,-99,0.5,-99,0,none,28,17,Woman,Right,
1,1,8,0.6337616999990132,['c'],1,left,none,-99,-99,0.5,-99,0,none,28,17,Woman,Right,
2,1,8,0.7498914999996487,['c'],0,right,none,-99,-99,0.5,-99,0,none,28,17,Woman,Right,
3,1,8,2.432504099999278,['n'],0,left,none,-99,-99,0.5,-99,0,none,28,17,Woman,Right,
4,1,8,4.251587500000824,['n'],0,left,none,-99,-99,0.5,-99,0,none,28,17,Woman,Right,
5,1,8,1.3839923000014096,['c'],1,left,none,-99,-99,0.5,-99,0,none,28,17,Woman,Right,
6,1,8,0.7824158999992505,['n'],0,left,none,-99,-99,0.5,-99,0,none,28,17,Woman,Right,
7,1,8,0.949556699999448,['n'],0,left,none,-99,-99,0.5,-99,0,none,28,17,Woman,Right,
8,1,8,3.2511634999991657,['c'],1,left,none,-99,-99,0.5,-99,0,none,28,17,Woman,Right,
9,1,8,1.2503567000003386,['n'],1,right,none,-99,-99,0.5,-99,0,none,28,17,Woman,Right,
10,1,8,1.0661574000005203,['c'],0,right,none,-99,-99,0.5,-99,0,none,28,17,Woman,Right,
11,1,8,0.5506676999993942,['n'],0,left,none,-99,-99,0.5,-99,0,none,28,17,Woman,Right,
12,1,8,3.4987495000004856,['n'],1,right,none,-99,-99,0.5,-99,0,none,28,17,Woman,Right,
13,1,8,2.383049799998844,['n'],1,right,none,-99,-99,0.5,-99,0,none,28,17,Woman,Right,
14,1,8,1.7494447999997647,['c'],1,left,none,-99,-99,0.5,-99,0,none,28,17,Woman,Right,
15,1,8,2.566067199999452,['c'],0,right,none,-99,-99,0.5,-99,0,none,28,17,Woman,Right,
16,1,8,1.3988933000000543,['n'],1,right,none,-99,-99,0.5,-99,0,none,28,17,Woman,Right,
17,1,8,0.7336526999988564,['n'],0,left,none,-99,-99,0.5,-99,0,none,28,17,Woman,Right,
18,1,8,1.133558699999412,['c'],0,right,none,-99,-99,0.5,-99,0,none,28,17,Woman,Right,
19,1,8,2.233865899999728,['n'],1,right,none,-99,-99,0.5,-99,0,none,28,17,Woman,Right,
20,1,8,0.6509569999998348,['n'],1,right,none,-99,-99,0.5,-99,0,none,28,17,Woman,Right,
21,1,8,0.750137299999551,['c'],0,right,none,-99,-99,0.5,-99,0,none,28,17,Woman,Right,
22,1,8,0.7827895999998873,['c'],1,left,none,-99,-99,0.5,-99,0,none,28,17,Woman,Right,
23,1,8,0.6004101999988052,['n'],1,right,none,-99,-99,0.5,-99,0,none,28,17,Woman,Right,
0,1,9,0.5675866000001406,['n'],1,right,none,-99,-99,0.5,-99,0,none,28,17,Woman,Right,
1,1,9,0.5000923000006878,['n'],1,right,none,-99,-99,0.5,-99,0,none,28,17,Woman,Right,
2,1,9,0.6331757000007201,['n'],0,left,none,-99,-99,0.5,-99,0,none,28,17,Woman,Right,
3,1,9,0.5497911999991629,['n'],0,left,none,-99,-99,0.5,-99,0,none,28,17,Woman,Right,
4,1,9,0.6172439999991184,['n'],0,left,none,-99,-99,0.5,-99,0,none,28,17,Woman,Right,
5,1,9,1.1515273000004527,['c'],1,left,none,-99,-99,0.5,-99,0,none,28,17,Woman,Right,
6,1,9,1.9678476999997656,['c'],1,left,none,-99,-99,0.5,-99,0,none,28,17,Woman,Right,
7,1,9,0.7667751999997563,['n'],0,left,none,-99,-99,0.5,-99,0,none,28,17,Woman,Right,
8,1,9,0.6347732000012911,['n'],1,right,none,-99,-99,0.5,-99,0,none,28,17,Woman,Right,
9,1,9,0.500229199999012,['n'],1,right,none,-99,-99,0.5,-99,0,none,28,17,Woman,Right,
10,1,9,0.5489651999996568,['n'],0,left,none,-99,-99,0.5,-99,0,none,28,17,Woman,Right,
11,1,9,1.4332831000010628,['c'],0,right,none,-99,-99,0.5,-99,0,none,28,17,Woman,Right,
12,1,9,1.8839922000006482,['n'],0,left,none,-99,-99,0.5,-99,0,none,28,17,Woman,Right,
13,1,9,3.5150228000002244,['c'],0,right,none,-99,-99,0.5,-99,0,none,28,17,Woman,Right,
14,1,9,0.8009552999992593,['n'],0,left,none,-99,-99,0.5,-99,0,none,28,17,Woman,Right,
15,1,9,1.984084100000473,['n'],0,left,none,-99,-99,0.5,-99,0,none,28,17,Woman,Right,
16,1,9,3.249414199999592,['c'],1,left,none,-99,-99,0.5,-99,0,none,28,17,Woman,Right,
17,1,9,2.7992109000006167,['n'],1,right,none,-99,-99,0.5,-99,0,none,28,17,Woman,Right,
18,1,9,1.0324092999999266,['n'],1,right,none,-99,-99,0.5,-99,0,none,28,17,Woman,Right,
19,1,9,1.3339632000006532,['c'],0,right,none,-99,-99,0.5,-99,0,none,28,17,Woman,Right,
20,1,9,2.101249600000301,['c'],1,left,none,-99,-99,0.5,-99,0,none,28,17,Woman,Right,
21,1,9,2.6011113000004116,['c'],0,right,none,-99,-99,0.5,-99,0,none,28,17,Woman,Right,
22,1,9,3.4170051000000967,['n'],1,right,none,-99,-99,0.5,-99,0,none,28,17,Woman,Right,
23,1,9,0.8164794000003894,['n'],1,right,none,-99,-99,0.5,-99,0,none,28,17,Woman,Right,
0,1,10,0.699557799998729,['n'],1,right,none,-99,-99,0.5,-99,0,none,28,17,Woman,Right,
1,1,10,0.5831171999998332,['n'],1,right,none,-99,-99,0.5,-99,0,none,28,17,Woman,Right,
2,1,10,0.5839176000008592,['c'],1,left,none,-99,-99,0.5,-99,0,none,28,17,Woman,Right,
3,1,10,0.751265599999897,['n'],1,right,none,-99,-99,0.5,-99,0,none,28,17,Woman,Right,
4,1,10,0.783417600001485,['n'],0,left,none,-99,-99,0.5,-99,0,none,28,17,Woman,Right,
5,1,10,0.6821899999995367,['n'],1,right,none,-99,-99,0.5,-99,0,none,28,17,Woman,Right,
6,1,10,0.8175031000009767,['c'],1,left,none,-99,-99,0.5,-99,0,none,28,17,Woman,Right,
7,1,10,1.684310299999197,['n'],0,left,none,-99,-99,0.5,-99,0,none,28,17,Woman,Right,
8,1,10,2.9823336000008567,['n'],1,right,none,-99,-99,0.5,-99,0,none,28,17,Woman,Right,
9,1,10,1.6662379999997938,['c'],1,left,none,-99,-99,0.5,-99,0,none,28,17,Woman,Right,
10,1,10,2.6325932999989163,['n'],1,right,none,-99,-99,0.5,-99,0,none,28,17,Woman,Right,
11,1,10,0.6340956000003644,['n'],1,right,none,-99,-99,0.5,-99,0,none,28,17,Woman,Right,
12,1,10,0.7004376999993838,['n'],0,left,none,-99,-99,0.5,-99,0,none,28,17,Woman,Right,
13,1,10,2.95020199999999,['n'],0,left,none,-99,-99,0.5,-99,0,none,28,17,Woman,Right,
14,1,10,1.6170963000004122,['c'],0,right,none,-99,-99,0.5,-99,0,none,28,17,Woman,Right,
15,1,10,4.034116500000891,['n'],1,right,none,-99,-99,0.5,-99,0,none,28,17,Woman,Right,
16,1,10,0.7007597000010719,['n'],1,right,none,-99,-99,0.5,-99,0,none,28,17,Woman,Right,
17,1,10,0.7340105999992375,['c'],1,left,none,-99,-99,0.5,-99,0,none,28,17,Woman,Right,
18,1,10,0.7335715000008349,['n'],1,right,none,-99,-99,0.5,-99,0,none,28,17,Woman,Right,
19,1,10,1.4003341000006913,['n'],0,left,none,-99,-99,0.5,-99,0,none,28,17,Woman,Right,
20,1,10,1.0504034999994474,['c'],1,left,none,-99,-99,0.5,-99,0,none,28,17,Woman,Right,
21,1,10,2.216244799999913,['n'],0,left,none,-99,-99,0.5,-99,0,none,28,17,Woman,Right,
22,1,10,0.6665099000001646,['n'],1,right,none,-99,-99,0.5,-99,0,none,28,17,Woman,Right,
23,1,10,0.5839900000009948,['n'],0,left,none,-99,-99,0.5,-99,0,none,28,17,Woman,Right,
0,1,11,0.8510028000000602,['c'],1,left,none,-99,-99,0.5,-99,0,none,28,17,Woman,Right,
1,1,11,0.6332320000001346,['n'],1,right,none,-99,-99,0.5,-99,0,none,28,17,Woman,Right,
2,1,11,0.583732000000964,['n'],0,left,none,-99,-99,0.5,-99,0,none,28,17,Woman,Right,
3,1,11,1.417022999999972,['c'],1,left,none,-99,-99,0.5,-99,0,none,28,17,Woman,Right,
4,1,11,0.6332406000001356,['n'],1,right,none,-99,-99,0.5,-99,0,none,28,17,Woman,Right,
5,1,11,0.49932260000059614,['n'],1,right,none,-99,-99,0.5,-99,0,none,28,17,Woman,Right,
6,1,11,0.41740460000073654,['c'],1,left,none,-99,-99,0.5,-99,0,none,28,17,Woman,Right,
7,1,11,0.5673474000013812,['n'],1,right,none,-99,-99,0.5,-99,0,none,28,17,Woman,Right,
8,1,11,0.34997549999934563,['c'],0,right,none,-99,-99,0.5,-99,0,none,28,17,Woman,Right,
9,1,11,0.7505232000003161,['c'],0,right,none,-99,-99,0.5,-99,0,none,28,17,Woman,Right,
10,1,11,0.8330151999998634,['n'],1,right,none,-99,-99,0.5,-99,0,none,28,17,Woman,Right,
11,1,11,0.7327265000003536,['n'],0,left,none,-99,-99,0.5,-99,0,none,28,17,Woman,Right,
12,1,11,0.8494385999983933,['n'],0,left,none,-99,-99,0.5,-99,0,none,28,17,Woman,Right,
13,1,11,0.8677217999993445,['c'],1,left,none,-99,-99,0.5,-99,0,none,28,17,Woman,Right,
14,1,11,1.23428530000092,['c'],1,left,none,-99,-99,0.5,-99,0,none,28,17,Woman,Right,
15,1,11,1.5672706999994261,['c'],0,right,none,-99,-99,0.5,-99,0,none,28,17,Woman,Right,
16,1,11,2.516215400000874,['c'],1,left,none,-99,-99,0.5,-99,0,none,28,17,Woman,Right,
17,1,11,0.7825427000007039,['n'],1,right,none,-99,-99,0.5,-99,0,none,28,17,Woman,Right,
18,1,11,0.5335529999993014,['n'],1,right,none,-99,-99,0.5,-99,0,none,28,17,Woman,Right,
19,1,11,1.233396300000095,['n'],0,left,none,-99,-99,0.5,-99,0,none,28,17,Woman,Right,
20,1,11,1.1855660999990505,['c'],1,left,none,-99,-99,0.5,-99,0,none,28,17,Woman,Right,
21,1,11,0.6007279000004928,['n'],1,right,none,-99,-99,0.5,-99,0,none,28,17,Woman,Right,
22,1,11,0.5015794000009919,['n'],0,left,none,-99,-99,0.5,-99,0,none,28,17,Woman,Right,
23,1,11,0.5841995999999199,['n'],1,right,none,-99,-99,0.5,-99,0,none,28,17,Woman,Right,
0,1,12,0.9172959999996237,['n'],1,right,none,-99,-99,0.5,-99,0,none,28,17,Woman,Right,
1,1,12,0.6998400000011316,['c'],0,right,none,-99,-99,0.5,-99,0,none,28,17,Woman,Right,
2,1,12,0.6502370999987761,['n'],0,left,none,-99,-99,0.5,-99,0,none,28,17,Woman,Right,
3,1,12,2.3156562999993184,['n'],0,left,none,-99,-99,0.5,-99,0,none,28,17,Woman,Right,
4,1,12,1.532985899999403,['c'],1,left,none,-99,-99,0.5,-99,0,none,28,17,Woman,Right,
5,1,12,0.5001702999998088,['n'],1,right,none,-99,-99,0.5,-99,0,none,28,17,Woman,Right,
6,1,12,0.6507112000017514,['c'],0,right,none,-99,-99,0.5,-99,0,none,28,17,Woman,Right,
7,1,12,0.9675478000008297,['n'],0,left,none,-99,-99,0.5,-99,0,none,28,17,Woman,Right,
8,1,12,1.3507358999995631,['c'],0,right,none,-99,-99,0.5,-99,0,none,28,17,Woman,Right,
9,1,12,4.316964800000278,['c'],0,right,none,-99,-99,0.5,-99,0,none,28,17,Woman,Right,
10,1,12,3.03358069999922,['n'],0,left,none,-99,-99,0.5,-99,0,none,28,17,Woman,Right,
11,1,12,3.683329600000434,['n'],0,left,none,-99,-99,0.5,-99,0,none,28,17,Woman,Right,
12,1,12,2.7006827000004705,['c'],0,right,none,-99,-99,0.5,-99,0,none,28,17,Woman,Right,
13,1,12,1.4669711999995343,['n'],0,left,none,-99,-99,0.5,-99,0,none,28,17,Woman,Right,
14,1,12,1.7994326999996701,['c'],1,left,none,-99,-99,0.5,-99,0,none,28,17,Woman,Right,
15,1,12,0.6336887999987084,['c'],1,left,none,-99,-99,0.5,-99,0,none,28,17,Woman,Right,
16,1,12,0.6178890999999567,['n'],1,right,none,-99,-99,0.5,-99,0,none,28,17,Woman,Right,
17,1,12,0.5996378999989247,['c'],1,left,none,-99,-99,0.5,-99,0,none,28,17,Woman,Right,
18,1,12,0.4333515000016632,['n'],1,right,none,-99,-99,0.5,-99,0,none,28,17,Woman,Right,
19,1,12,1.2669197999985045,['c'],0,right,none,-99,-99,0.5,-99,0,none,28,17,Woman,Right,
20,1,12,0.7336682000004657,['n'],1,right,none,-99,-99,0.5,-99,0,none,28,17,Woman,Right,
21,1,12,0.8174875999993674,['n'],0,left,none,-99,-99,0.5,-99,0,none,28,17,Woman,Right,
22,1,12,3.3168533999996725,['c'],0,right,none,-99,-99,0.5,-99,0,none,28,17,Woman,Right,
23,1,12,1.9010493000005226,['c'],1,left,none,-99,-99,0.5,-99,0,none,28,17,Woman,Right,
0,1,13,0.7503735000009328,['n'],0,left,none,-99,-99,0.5,-99,0,none,28,17,Woman,Right,
1,1,13,0.6504184999994322,['n'],1,right,none,-99,-99,0.5,-99,0,none,28,17,Woman,Right,
2,1,13,0.7993233999986842,['c'],0,right,none,-99,-99,0.5,-99,0,none,28,17,Woman,Right,
3,1,13,1.4335234000009223,['n'],0,left,none,-99,-99,0.5,-99,0,none,28,17,Woman,Right,
4,1,13,0.6162524999999732,['n'],1,right,none,-99,-99,0.5,-99,0,none,28,17,Woman,Right,
5,1,13,0.6006082000003516,['c'],0,right,none,-99,-99,0.5,-99,0,none,28,17,Woman,Right,
6,1,13,0.5491707000001043,['n'],1,right,none,-99,-99,0.5,-99,0,none,28,17,Woman,Right,
7,1,13,1.1332239000003028,['c'],1,left,none,-99,-99,0.5,-99,0,none,28,17,Woman,Right,
8,1,13,0.5828641999996762,['n'],1,right,none,-99,-99,0.5,-99,0,none,28,17,Woman,Right,
9,1,13,1.2493300999994972,['c'],0,right,none,-99,-99,0.5,-99,0,none,28,17,Woman,Right,
10,1,13,0.5664977000014915,['n'],0,left,none,-99,-99,0.5,-99,0,none,28,17,Woman,Right,
11,1,13,3.1018019000002823,['n'],1,right,none,-99,-99,0.5,-99,0,none,28,17,Woman,Right,
12,1,13,1.800301400000535,['c'],1,left,none,-99,-99,0.5,-99,0,none,28,17,Woman,Right,
13,1,13,2.282175399999687,['n'],1,right,none,-99,-99,0.5,-99,0,none,28,17,Woman,Right,
14,1,13,0.6834032000006118,['c'],1,left,none,-99,-99,0.5,-99,0,none,28,17,Woman,Right,
15,1,13,1.7345708000011655,['c'],1,left,none,-99,-99,0.5,-99,0,none,28,17,Woman,Right,
16,1,13,0.8828694000003452,['n'],0,left,none,-99,-99,0.5,-99,0,none,28,17,Woman,Right,
17,1,13,1.8349343000008957,['c'],0,right,none,-99,-99,0.5,-99,0,none,28,17,Woman,Right,
18,1,13,1.4829742000001715,['c'],1,left,none,-99,-99,0.5,-99,0,none,28,17,Woman,Right,
19,1,13,2.134457999998631,['n'],1,right,none,-99,-99,0.5,-99,0,none,28,17,Woman,Right,
20,1,13,1.9335167000008369,['n'],1,right,none,-99,-99,0.5,-99,0,none,28,17,Woman,Right,
21,1,13,0.7339835000002495,['n'],0,left,none,-99,-99,0.5,-99,0,none,28,17,Woman,Right,
22,1,13,1.7336138999999093,['n'],0,left,none,-99,-99,0.5,-99,0,none,28,17,Woman,Right,
23,1,13,1.1656605999996827,['c'],1,left,none,-99,-99,0.5,-99,0,none,28,17,Woman,Right,
0,1,14,0.5687192999994295,['n'],0,left,none,-99,-99,0.5,-99,0,none,28,17,Woman,Right,
1,1,14,1.2844108999997843,['c'],0,right,none,-99,-99,0.5,-99,0,none,28,17,Woman,Right,
2,1,14,4.04840139999942,['c'],1,left,none,-99,-99,0.5,-99,0,none,28,17,Woman,Right,
3,1,14,1.9990000999987387,['c'],0,right,none,-99,-99,0.5,-99,0,none,28,17,Woman,Right,
4,1,14,1.4170292999988305,['c'],1,left,none,-99,-99,0.5,-99,0,none,28,17,Woman,Right,
5,1,14,1.7852718000012828,['n'],1,right,none,-99,-99,0.5,-99,0,none,28,17,Woman,Right,
6,1,14,0.6006186999984493,['n'],0,left,none,-99,-99,0.5,-99,0,none,28,17,Woman,Right,
7,1,14,2.4983922999999777,['c'],1,left,none,-99,-99,0.5,-99,0,none,28,17,Woman,Right,
8,1,14,3.6984734999987268,['c'],1,left,none,-99,-99,0.5,-99,0,none,28,17,Woman,Right,
9,1,14,1.8830445999992662,['n'],1,right,none,-99,-99,0.5,-99,0,none,28,17,Woman,Right,
10,1,14,2.167123100000026,['c'],0,right,none,-99,-99,0.5,-99,0,none,28,17,Woman,Right,
11,1,14,5.0151793000004545,x,-99,right,none,-99,-99,0.5,-99,1,none,28,17,Woman,Right,
12,1,14,1.7501690000008239,['n'],0,left,none,-99,-99,0.5,-99,0,none,28,17,Woman,Right,
13,1,14,1.1835207999993145,['c'],0,right,none,-99,-99,0.5,-99,0,none,28,17,Woman,Right,
14,1,14,2.5665699999990466,['n'],0,left,none,-99,-99,0.5,-99,0,none,28,17,Woman,Right,
15,1,14,2.183047799999258,['c'],0,right,none,-99,-99,0.5,-99,0,none,28,17,Woman,Right,
16,1,14,3.3003896000009263,['c'],1,left,none,-99,-99,0.5,-99,0,none,28,17,Woman,Right,
17,1,14,0.7680939000001672,['c'],0,right,none,-99,-99,0.5,-99,0,none,28,17,Woman,Right,
18,1,14,4.032471399999849,['c'],0,right,none,-99,-99,0.5,-99,0,none,28,17,Woman,Right,
19,1,14,2.4832653000012215,['n'],1,right,none,-99,-99,0.5,-99,0,none,28,17,Woman,Right,
20,1,14,1.3331375999987358,['c'],1,left,none,-99,-99,0.5,-99,0,none,28,17,Woman,Right,
21,1,14,0.8007503999997425,['c'],1,left,none,-99,-99,0.5,-99,0,none,28,17,Woman,Right,
22,1,14,0.7831471000008605,['n'],0,left,none,-99,-99,0.5,-99,0,none,28,17,Woman,Right,
23,1,14,1.8335685000001831,['c'],0,right,none,-99,-99,0.5,-99,0,none,28,17,Woman,Right,
0,1,15,0.6001114000009693,['n'],0,left,none,-99,-99,0.5,-99,0,none,28,17,Woman,Right,
1,1,15,3.482975400000214,['n'],1,right,none,-99,-99,0.5,-99,0,none,28,17,Woman,Right,
2,1,15,1.5502516999986256,['c'],1,left,none,-99,-99,0.5,-99,0,none,28,17,Woman,Right,
3,1,15,0.5168474999991304,['n'],0,left,none,-99,-99,0.5,-99,0,none,28,17,Woman,Right,
4,1,15,2.850458900000376,['c'],1,left,none,-99,-99,0.5,-99,0,none,28,17,Woman,Right,
5,1,15,0.8503877000002831,['n'],0,left,none,-99,-99,0.5,-99,0,none,28,17,Woman,Right,
6,1,15,3.016817399999127,['n'],1,right,none,-99,-99,0.5,-99,0,none,28,17,Woman,Right,
7,1,15,3.248474300000453,['n'],0,left,none,-99,-99,0.5,-99,0,none,28,17,Woman,Right,
8,1,15,1.968124999999418,['c'],0,right,none,-99,-99,0.5,-99,0,none,28,17,Woman,Right,
9,1,15,3.5658170000006066,['c'],1,left,none,-99,-99,0.5,-99,0,none,28,17,Woman,Right,
10,1,15,1.300886700000774,['c'],0,right,none,-99,-99,0.5,-99,0,none,28,17,Woman,Right,
11,1,15,2.565868600000613,['c'],0,right,none,-99,-99,0.5,-99,0,none,28,17,Woman,Right,
12,1,15,1.3669411999999284,['n'],0,left,none,-99,-99,0.5,-99,0,none,28,17,Woman,Right,
13,1,15,0.6998755000004167,['n'],1,right,none,-99,-99,0.5,-99,0,none,28,17,Woman,Right,
14,1,15,3.1331936000005953,['n'],1,right,none,-99,-99,0.5,-99,0,none,28,17,Woman,Right,
15,1,15,0.9833805999987817,['c'],0,right,none,-99,-99,0.5,-99,0,none,28,17,Woman,Right,
16,1,15,2.533603999998377,['c'],1,left,none,-99,-99,0.5,-99,0,none,28,17,Woman,Right,
17,1,15,0.5669886999985465,['n'],1,right,none,-99,-99,0.5,-99,0,none,28,17,Woman,Right,
18,1,15,1.0187836999994033,['c'],0,right,none,-99,-99,0.5,-99,0,none,28,17,Woman,Right,
19,1,15,0.9832917999992787,['n'],1,right,none,-99,-99,0.5,-99,0,none,28,17,Woman,Right,
20,1,15,2.782364699998652,['c'],0,right,none,-99,-99,0.5,-99,0,none,28,17,Woman,Right,
21,1,15,1.8006559999994352,['n'],0,left,none,-99,-99,0.5,-99,0,none,28,17,Woman,Right,
22,1,15,1.633958000000348,['c'],1,left,none,-99,-99,0.5,-99,0,none,28,17,Woman,Right,
23,1,15,2.184393999999884,['n'],0,left,none,-99,-99,0.5,-99,0,none,28,17,Woman,Right,
0,1,16,1.2840142000004562,['n'],1,right,none,-99,-99,0.5,-99,0,none,28,17,Woman,Right,
1,1,16,0.6673270999999659,['c'],0,right,none,-99,-99,0.5,-99,0,none,28,17,Woman,Right,
2,1,16,2.066854599999715,['c'],1,left,none,-99,-99,0.5,-99,0,none,28,17,Woman,Right,
3,1,16,0.6159791999998561,['n'],0,left,none,-99,-99,0.5,-99,0,none,28,17,Woman,Right,
4,1,16,1.4504001999994216,['c'],0,right,none,-99,-99,0.5,-99,0,none,28,17,Woman,Right,
5,1,16,1.4341865000005782,['c'],0,right,none,-99,-99,0.5,-99,0,none,28,17,Woman,Right,
6,1,16,3.3670211999997264,['c'],1,left,none,-99,-99,0.5,-99,0,none,28,17,Woman,Right,
7,1,16,0.6008126000015181,['c'],1,left,none,-99,-99,0.5,-99,0,none,28,17,Woman,Right,
8,1,16,0.9497695999998541,['n'],0,left,none,-99,-99,0.5,-99,0,none,28,17,Woman,Right,
9,1,16,3.15009579999969,['n'],1,right,none,-99,-99,0.5,-99,0,none,28,17,Woman,Right,
10,1,16,1.2503713999994943,['c'],1,left,none,-99,-99,0.5,-99,0,none,28,17,Woman,Right,
11,1,16,0.550217199999679,['c'],1,left,none,-99,-99,0.5,-99,0,none,28,17,Woman,Right,
12,1,16,0.9838371000005282,['n'],0,left,none,-99,-99,0.5,-99,0,none,28,17,Woman,Right,
13,1,16,1.2837866000008944,['n'],1,right,none,-99,-99,0.5,-99,0,none,28,17,Woman,Right,
14,1,16,0.9503827999997156,['c'],1,left,none,-99,-99,0.5,-99,0,none,28,17,Woman,Right,
15,1,16,0.749731800000518,['n'],0,left,none,-99,-99,0.5,-99,0,none,28,17,Woman,Right,
16,1,16,0.7502619999995659,['n'],1,right,none,-99,-99,0.5,-99,0,none,28,17,Woman,Right,
17,1,16,1.016009800001484,['n'],1,right,none,-99,-99,0.5,-99,0,none,28,17,Woman,Right,
18,1,16,0.6837369000004401,['n'],0,left,none,-99,-99,0.5,-99,0,none,28,17,Woman,Right,
19,1,16,1.283155799999804,['c'],0,right,none,-99,-99,0.5,-99,0,none,28,17,Woman,Right,
20,1,16,2.40034039999955,['n'],0,left,none,-99,-99,0.5,-99,0,none,28,17,Woman,Right,
21,1,16,1.5004773000000569,['c'],0,right,none,-99,-99,0.5,-99,0,none,28,17,Woman,Right,
22,1,16,3.4831197999992582,['n'],1,right,none,-99,-99,0.5,-99,0,none,28,17,Woman,Right,
23,1,16,2.634706799999549,['n'],1,right,none,-99,-99,0.5,-99,0,none,28,17,Woman,Right,
0,1,17,0.8349534999997559,['n'],1,right,none,-99,-99,0.5,-99,0,none,28,17,Woman,Right,
1,1,17,1.1664815999993152,['c'],0,right,none,-99,-99,0.5,-99,0,none,28,17,Woman,Right,
2,1,17,1.1658906999982719,['n'],0,left,none,-99,-99,0.5,-99,0,none,28,17,Woman,Right,
3,1,17,4.7166592000012315,['n'],1,right,none,-99,-99,0.5,-99,0,none,28,17,Woman,Right,
4,1,17,2.366876299998694,['n'],1,right,none,-99,-99,0.5,-99,0,none,28,17,Woman,Right,
5,1,17,0.9171693999996933,['n'],1,right,none,-99,-99,0.5,-99,0,none,28,17,Woman,Right,
6,1,17,0.666409700001168,['n'],0,left,none,-99,-99,0.5,-99,0,none,28,17,Woman,Right,
7,1,17,1.750832600000649,['c'],0,right,none,-99,-99,0.5,-99,0,none,28,17,Woman,Right,
8,1,17,3.2831179999993765,['n'],1,right,none,-99,-99,0.5,-99,0,none,28,17,Woman,Right,
9,1,17,2.116421500000797,['c'],1,left,none,-99,-99,0.5,-99,0,none,28,17,Woman,Right,
10,1,17,2.416790499999479,['c'],1,left,none,-99,-99,0.5,-99,0,none,28,17,Woman,Right,
11,1,17,1.6835414999986824,['n'],1,right,none,-99,-99,0.5,-99,0,none,28,17,Woman,Right,
12,1,17,0.8172023999995872,['n'],0,left,none,-99,-99,0.5,-99,0,none,28,17,Woman,Right,
13,1,17,2.8829841000006127,['c'],1,left,none,-99,-99,0.5,-99,0,none,28,17,Woman,Right,
14,1,17,1.5832699999991746,['n'],1,right,none,-99,-99,0.5,-99,0,none,28,17,Woman,Right,
15,1,17,1.0997922999995353,['c'],1,left,none,-99,-99,0.5,-99,0,none,28,17,Woman,Right,
16,1,17,0.6006778999999369,['n'],1,right,none,-99,-99,0.5,-99,0,none,28,17,Woman,Right,
17,1,17,1.1173212000012427,['c'],1,left,none,-99,-99,0.5,-99,0,none,28,17,Woman,Right,
18,1,17,0.9840359000008903,['c'],1,left,none,-99,-99,0.5,-99,0,none,28,17,Woman,Right,
19,1,17,1.0838409999996657,['c'],1,left,none,-99,-99,0.5,-99,0,none,28,17,Woman,Right,
20,1,17,0.7675818999996409,['c'],0,right,none,-99,-99,0.5,-99,0,none,28,17,Woman,Right,
21,1,17,0.750456400000985,['c'],1,left,none,-99,-99,0.5,-99,0,none,28,17,Woman,Right,
22,1,17,0.6338648999990255,['n'],0,left,none,-99,-99,0.5,-99,0,none,28,17,Woman,Right,
23,1,17,0.7332855999993626,['n'],1,right,none,-99,-99,0.5,-99,0,none,28,17,Woman,Right,
0,1,18,0.7344640999999683,['n'],1,right,none,-99,-99,0.5,-99,0,none,28,17,Woman,Right,
1,1,18,0.5003130999994028,['n'],1,right,none,-99,-99,0.5,-99,0,none,28,17,Woman,Right,
2,1,18,0.9496521999990364,['c'],1,left,none,-99,-99,0.5,-99,0,none,28,17,Woman,Right,
3,1,18,0.6168803999989905,['n'],0,left,none,-99,-99,0.5,-99,0,none,28,17,Woman,Right,
4,1,18,0.7844827999997506,['c'],1,left,none,-99,-99,0.5,-99,0,none,28,17,Woman,Right,
5,1,18,0.5838332000002993,['n'],0,left,none,-99,-99,0.5,-99,0,none,28,17,Woman,Right,
6,1,18,2.7838919999994687,['c'],1,left,none,-99,-99,0.5,-99,0,none,28,17,Woman,Right,
7,1,18,0.8339178000005631,['c'],1,left,none,-99,-99,0.5,-99,0,none,28,17,Woman,Right,
8,1,18,0.7670480000015232,['n'],1,right,none,-99,-99,0.5,-99,0,none,28,17,Woman,Right,
9,1,18,0.6675655999988521,['n'],0,left,none,-99,-99,0.5,-99,0,none,28,17,Woman,Right,
10,1,18,0.9002356999990297,['c'],1,left,none,-99,-99,0.5,-99,0,none,28,17,Woman,Right,
11,1,18,0.6494373999994423,['n'],1,right,none,-99,-99,0.5,-99,0,none,28,17,Woman,Right,
12,1,18,0.5504742999983137,['c'],1,left,none,-99,-99,0.5,-99,0,none,28,17,Woman,Right,
13,1,18,0.46687109999948007,['n'],1,right,none,-99,-99,0.5,-99,0,none,28,17,Woman,Right,
14,1,18,0.6339970999997604,['c'],0,right,none,-99,-99,0.5,-99,0,none,28,17,Woman,Right,
15,1,18,0.45121450000078767,['n'],1,right,none,-99,-99,0.5,-99,0,none,28,17,Woman,Right,
16,1,18,1.7004997999993066,['n'],1,right,none,-99,-99,0.5,-99,0,none,28,17,Woman,Right,
17,1,18,0.9669825000000856,['c'],1,left,none,-99,-99,0.5,-99,0,none,28,17,Woman,Right,
18,1,18,0.6007819000005838,['n'],1,right,none,-99,-99,0.5,-99,0,none,28,17,Woman,Right,
19,1,18,0.7504238999990775,['n'],1,right,none,-99,-99,0.5,-99,0,none,28,17,Woman,Right,
20,1,18,0.6339487000004738,['n'],1,right,none,-99,-99,0.5,-99,0,none,28,17,Woman,Right,
21,1,18,0.6337297999998555,['c'],1,left,none,-99,-99,0.5,-99,0,none,28,17,Woman,Right,
22,1,18,0.5659872999985964,['n'],0,left,none,-99,-99,0.5,-99,0,none,28,17,Woman,Right,
23,1,18,0.6006741000001057,['n'],1,right,none,-99,-99,0.5,-99,0,none,28,17,Woman,Right,
0,1,19,0.8839321000014024,['n'],1,right,none,-99,-99,0.5,-99,0,none,28,17,Woman,Right,
1,1,19,0.7172038000007888,['n'],1,right,none,-99,-99,0.5,-99,0,none,28,17,Woman,Right,
2,1,19,0.48368329999902926,['n'],1,right,none,-99,-99,0.5,-99,0,none,28,17,Woman,Right,
3,1,19,0.7506300000004558,['c'],1,left,none,-99,-99,0.5,-99,0,none,28,17,Woman,Right,
4,1,19,0.4675035999989632,['n'],0,left,none,-99,-99,0.5,-99,0,none,28,17,Woman,Right,
5,1,19,0.9174048999993829,['c'],0,right,none,-99,-99,0.5,-99,0,none,28,17,Woman,Right,
6,1,19,2.065847500000018,['c'],1,left,none,-99,-99,0.5,-99,0,none,28,17,Woman,Right,
7,1,19,0.48422410000057425,['n'],1,right,none,-99,-99,0.5,-99,0,none,28,17,Woman,Right,
8,1,19,0.6669267999986914,['n'],0,left,none,-99,-99,0.5,-99,0,none,28,17,Woman,Right,
9,1,19,2.416787000000113,['c'],1,left,none,-99,-99,0.5,-99,0,none,28,17,Woman,Right,
10,1,19,0.5343907999995281,['n'],0,left,none,-99,-99,0.5,-99,0,none,28,17,Woman,Right,
11,1,19,3.7992269999995187,['c'],1,left,none,-99,-99,0.5,-99,0,none,28,17,Woman,Right,
12,1,19,2.250355199999831,['n'],1,right,none,-99,-99,0.5,-99,0,none,28,17,Woman,Right,
13,1,19,1.7834944000005635,['n'],1,right,none,-99,-99,0.5,-99,0,none,28,17,Woman,Right,
14,1,19,0.6509165999996185,['n'],0,left,none,-99,-99,0.5,-99,0,none,28,17,Woman,Right,
15,1,19,0.8341641999995772,['n'],1,right,none,-99,-99,0.5,-99,0,none,28,17,Woman,Right,
16,1,19,0.6839777000004688,['n'],0,left,none,-99,-99,0.5,-99,0,none,28,17,Woman,Right,
17,1,19,0.6998776000000362,['n'],1,right,none,-99,-99,0.5,-99,0,none,28,17,Woman,Right,
18,1,19,0.8511590999987675,['n'],1,right,none,-99,-99,0.5,-99,0,none,28,17,Woman,Right,
19,1,19,0.6512000000002445,['n'],1,right,none,-99,-99,0.5,-99,0,none,28,17,Woman,Right,
20,1,19,1.9176972999994177,['n'],0,left,none,-99,-99,0.5,-99,0,none,28,17,Woman,Right,
21,1,19,3.5500566999999137,['n'],0,left,none,-99,-99,0.5,-99,0,none,28,17,Woman,Right,
22,1,19,2.3334530000011,['c'],0,right,none,-99,-99,0.5,-99,0,none,28,17,Woman,Right,
23,1,19,3.333989400000064,['c'],1,left,none,-99,-99,0.5,-99,0,none,28,17,Woman,Right,
0,1,20,0.6175954999998794,['n'],0,left,none,-99,-99,0.5,-99,0,none,28,17,Woman,Right,
1,1,20,1.4827128999986599,['n'],1,right,none,-99,-99,0.5,-99,0,none,28,17,Woman,Right,
2,1,20,0.6841311999996833,['c'],0,right,none,-99,-99,0.5,-99,0,none,28,17,Woman,Right,
3,1,20,4.183183799999824,['c'],1,left,none,-99,-99,0.5,-99,0,none,28,17,Woman,Right,
4,1,20,0.8666182000015397,['n'],1,right,none,-99,-99,0.5,-99,0,none,28,17,Woman,Right,
5,1,20,1.8005109000005177,['c'],1,left,none,-99,-99,0.5,-99,0,none,28,17,Woman,Right,
6,1,20,2.533400000000256,['c'],0,right,none,-99,-99,0.5,-99,0,none,28,17,Woman,Right,
7,1,20,4.916793799999141,['n'],1,right,none,-99,-99,0.5,-99,0,none,28,17,Woman,Right,
8,1,20,0.5336351000005379,['n'],1,right,none,-99,-99,0.5,-99,0,none,28,17,Woman,Right,
9,1,20,0.9000043999985792,['c'],1,left,none,-99,-99,0.5,-99,0,none,28,17,Woman,Right,
10,1,20,0.7832892000005813,['n'],0,left,none,-99,-99,0.5,-99,0,none,28,17,Woman,Right,
11,1,20,2.1172212999990734,['n'],1,right,none,-99,-99,0.5,-99,0,none,28,17,Woman,Right,
12,1,20,5.016091299999971,x,-99,left,none,-99,-99,0.5,-99,1,none,28,17,Woman,Right,
13,1,20,0.7177284999997937,['n'],1,right,none,-99,-99,0.5,-99,0,none,28,17,Woman,Right,
14,1,20,3.183491399999184,['c'],1,left,none,-99,-99,0.5,-99,0,none,28,17,Woman,Right,
15,1,20,0.5671354999994946,['n'],1,right,none,-99,-99,0.5,-99,0,none,28,17,Woman,Right,
16,1,20,0.6492940000007366,['n'],0,left,none,-99,-99,0.5,-99,0,none,28,17,Woman,Right,
17,1,20,0.5838469000009354,['n'],0,left,none,-99,-99,0.5,-99,0,none,28,17,Woman,Right,
18,1,20,0.6670118000001821,['n'],1,right,none,-99,-99,0.5,-99,0,none,28,17,Woman,Right,
19,1,20,1.5671305999985634,['c'],0,right,none,-99,-99,0.5,-99,0,none,28,17,Woman,Right,
20,1,20,2.683950399999958,['n'],0,left,none,-99,-99,0.5,-99,0,none,28,17,Woman,Right,
21,1,20,1.7004937999990943,['c'],0,right,none,-99,-99,0.5,-99,0,none,28,17,Woman,Right,
22,1,20,2.6511598999986745,['n'],0,left,none,-99,-99,0.5,-99,0,none,28,17,Woman,Right,
23,1,20,3.6832716000008077,['n'],0,left,none,-99,-99,0.5,-99,0,none,28,17,Woman,Right,
0,1,21,0.7009407999994437,['n'],1,right,none,-99,-99,0.5,-99,0,none,28,17,Woman,Right,
1,1,21,0.8506141999987449,['c'],1,left,none,-99,-99,0.5,-99,0,none,28,17,Woman,Right,
2,1,21,0.6169702999995934,['c'],1,left,none,-99,-99,0.5,-99,0,none,28,17,Woman,Right,
3,1,21,1.3336380000000645,['n'],0,left,none,-99,-99,0.5,-99,0,none,28,17,Woman,Right,
4,1,21,1.701973299999736,['n'],1,right,none,-99,-99,0.5,-99,0,none,28,17,Woman,Right,
5,1,21,0.8344028999999864,['n'],0,left,none,-99,-99,0.5,-99,0,none,28,17,Woman,Right,
6,1,21,2.4325341999992816,['c'],1,left,none,-99,-99,0.5,-99,0,none,28,17,Woman,Right,
7,1,21,1.7675137000005634,['n'],1,right,none,-99,-99,0.5,-99,0,none,28,17,Woman,Right,
8,1,21,1.334120299999995,['n'],1,right,none,-99,-99,0.5,-99,0,none,28,17,Woman,Right,
9,1,21,0.6343552999987878,['c'],1,left,none,-99,-99,0.5,-99,0,none,28,17,Woman,Right,
10,1,21,0.5845354000011866,['n'],0,left,none,-99,-99,0.5,-99,0,none,28,17,Woman,Right,
11,1,21,2.8498789000004763,['n'],0,left,none,-99,-99,0.5,-99,0,none,28,17,Woman,Right,
12,1,21,2.4671650000000227,['n'],1,right,none,-99,-99,0.5,-99,0,none,28,17,Woman,Right,
13,1,21,0.6835368000010931,['n'],1,right,none,-99,-99,0.5,-99,0,none,28,17,Woman,Right,
14,1,21,0.7338187000004837,['n'],1,right,none,-99,-99,0.5,-99,0,none,28,17,Woman,Right,
15,1,21,1.1175010000006296,['c'],1,left,none,-99,-99,0.5,-99,0,none,28,17,Woman,Right,
16,1,21,0.5003383999992366,['n'],1,right,none,-99,-99,0.5,-99,0,none,28,17,Woman,Right,
17,1,21,0.5836611000013363,['c'],1,left,none,-99,-99,0.5,-99,0,none,28,17,Woman,Right,
18,1,21,0.9501076999986253,['n'],0,left,none,-99,-99,0.5,-99,0,none,28,17,Woman,Right,
19,1,21,0.7661626000008255,['n'],1,right,none,-99,-99,0.5,-99,0,none,28,17,Woman,Right,
20,1,21,1.7170511999993323,['n'],1,right,none,-99,-99,0.5,-99,0,none,28,17,Woman,Right,
21,1,21,1.0000157000013132,['n'],1,right,none,-99,-99,0.5,-99,0,none,28,17,Woman,Right,
22,1,21,0.6342318000006344,['n'],0,left,none,-99,-99,0.5,-99,0,none,28,17,Woman,Right,
23,1,21,0.6505288000007567,['n'],1,right,none,-99,-99,0.5,-99,0,none,28,17,Woman,Right,
0,1,22,0.8343274999988353,['c'],1,left,none,-99,-99,0.5,-99,0,none,28,17,Woman,Right,
1,1,22,0.45004229999904055,['n'],1,right,none,-99,-99,0.5,-99,0,none,28,17,Woman,Right,
2,1,22,0.8333033999988402,['c'],1,left,none,-99,-99,0.5,-99,0,none,28,17,Woman,Right,
3,1,22,0.4320005999998102,['n'],1,right,none,-99,-99,0.5,-99,0,none,28,17,Woman,Right,
4,1,22,0.5342607000002317,['n'],0,left,none,-99,-99,0.5,-99,0,none,28,17,Woman,Right,
5,1,22,0.6003349999991769,['n'],1,right,none,-99,-99,0.5,-99,0,none,28,17,Woman,Right,
6,1,22,0.8168998000001011,['c'],1,left,none,-99,-99,0.5,-99,0,none,28,17,Woman,Right,
7,1,22,0.5668954999982816,['n'],1,right,none,-99,-99,0.5,-99,0,none,28,17,Woman,Right,
8,1,22,0.6834448999998131,['c'],0,right,none,-99,-99,0.5,-99,0,none,28,17,Woman,Right,
9,1,22,0.8672817999995459,['c'],1,left,none,-99,-99,0.5,-99,0,none,28,17,Woman,Right,
10,1,22,0.567474299999958,['c'],1,left,none,-99,-99,0.5,-99,0,none,28,17,Woman,Right,
11,1,22,0.49994779999906314,['n'],1,right,none,-99,-99,0.5,-99,0,none,28,17,Woman,Right,
12,1,22,0.5509863999996014,['c'],1,left,none,-99,-99,0.5,-99,0,none,28,17,Woman,Right,
13,1,22,0.35049790000084613,['n'],1,right,none,-99,-99,0.5,-99,0,none,28,17,Woman,Right,
14,1,22,0.5669950000010431,['c'],1,left,none,-99,-99,0.5,-99,0,none,28,17,Woman,Right,
15,1,22,0.28385309999976016,['n'],0,left,none,-99,-99,0.5,-99,0,none,28,17,Woman,Right,
16,1,22,0.4669606000006752,['n'],1,right,none,-99,-99,0.5,-99,0,none,28,17,Woman,Right,
17,1,22,1.9155817000009847,['c'],0,right,none,-99,-99,0.5,-99,0,none,28,17,Woman,Right,
18,1,22,0.7163522999999259,['c'],1,left,none,-99,-99,0.5,-99,0,none,28,17,Woman,Right,
19,1,22,0.5501724000005197,['n'],1,right,none,-99,-99,0.5,-99,0,none,28,17,Woman,Right,
20,1,22,0.5843978999982937,['c'],1,left,none,-99,-99,0.5,-99,0,none,28,17,Woman,Right,
21,1,22,0.6503223999989132,['c'],1,left,none,-99,-99,0.5,-99,0,none,28,17,Woman,Right,
22,1,22,0.6340976000010414,['n'],1,right,none,-99,-99,0.5,-99,0,none,28,17,Woman,Right,
23,1,22,0.4671159000008629,['c'],0,right,none,-99,-99,0.5,-99,0,none,28,17,Woman,Right,
0,1,23,0.750790700001744,['n'],0,left,none,-99,-99,0.5,-99,0,none,28,17,Woman,Right,
1,1,23,0.5333981000003405,['n'],1,right,none,-99,-99,0.5,-99,0,none,28,17,Woman,Right,
2,1,23,0.6830705000011221,['c'],0,right,none,-99,-99,0.5,-99,0,none,28,17,Woman,Right,
3,1,23,0.41679780000049504,['c'],1,left,none,-99,-99,0.5,-99,0,none,28,17,Woman,Right,
4,1,23,1.0503757000005862,['n'],0,left,none,-99,-99,0.5,-99,0,none,28,17,Woman,Right,
5,1,23,1.4668563999985054,['c'],0,right,none,-99,-99,0.5,-99,0,none,28,17,Woman,Right,
6,1,23,3.1669228000009753,['c'],0,right,none,-99,-99,0.5,-99,0,none,28,17,Woman,Right,
7,1,23,2.3345463999994536,['n'],1,right,none,-99,-99,0.5,-99,0,none,28,17,Woman,Right,
8,1,23,0.5834288999994897,['c'],0,right,none,-99,-99,0.5,-99,0,none,28,17,Woman,Right,
9,1,23,2.5655036000007385,['c'],1,left,none,-99,-99,0.5,-99,0,none,28,17,Woman,Right,
10,1,23,0.6837426000001869,['c'],1,left,none,-99,-99,0.5,-99,0,none,28,17,Woman,Right,
11,1,23,0.6675565000005008,['c'],0,right,none,-99,-99,0.5,-99,0,none,28,17,Woman,Right,
12,1,23,0.7167110000009416,['c'],1,left,none,-99,-99,0.5,-99,0,none,28,17,Woman,Right,
13,1,23,0.7002799000001687,['n'],0,left,none,-99,-99,0.5,-99,0,none,28,17,Woman,Right,
14,1,23,0.8826177999999345,['n'],1,right,none,-99,-99,0.5,-99,0,none,28,17,Woman,Right,
15,1,23,0.6508594999995694,['c'],1,left,none,-99,-99,0.5,-99,0,none,28,17,Woman,Right,
16,1,23,0.5661584999998013,['c'],1,left,none,-99,-99,0.5,-99,0,none,28,17,Woman,Right,
17,1,23,0.7015525000006164,['c'],1,left,none,-99,-99,0.5,-99,0,none,28,17,Woman,Right,
18,1,23,0.7166978999994171,['n'],0,left,none,-99,-99,0.5,-99,0,none,28,17,Woman,Right,
19,1,23,0.9497436999990896,['c'],0,right,none,-99,-99,0.5,-99,0,none,28,17,Woman,Right,
20,1,23,2.2166292000001704,['n'],0,left,none,-99,-99,0.5,-99,0,none,28,17,Woman,Right,
21,1,23,0.7003399999994144,['c'],0,right,none,-99,-99,0.5,-99,0,none,28,17,Woman,Right,
22,1,23,3.950054499999169,['n'],1,right,none,-99,-99,0.5,-99,0,none,28,17,Woman,Right,
23,1,23,0.8504345000001194,['c'],0,right,none,-99,-99,0.5,-99,0,none,28,17,Woman,Right,
0,1,24,0.5840530000004946,['n'],0,left,none,-99,-99,0.5,-99,0,none,28,17,Woman,Right,
1,1,24,0.7005341999993107,['n'],0,left,none,-99,-99,0.5,-99,0,none,28,17,Woman,Right,
2,1,24,2.7172083999994356,['n'],0,left,none,-99,-99,0.5,-99,0,none,28,17,Woman,Right,
3,1,24,0.8502793000006932,['c'],0,right,none,-99,-99,0.5,-99,0,none,28,17,Woman,Right,
4,1,24,0.5667383999989397,['n'],0,left,none,-99,-99,0.5,-99,0,none,28,17,Woman,Right,
5,1,24,5.016421700000137,x,-99,right,none,-99,-99,0.5,-99,1,none,28,17,Woman,Right,
6,1,24,0.9343446000002587,['n'],1,right,none,-99,-99,0.5,-99,0,none,28,17,Woman,Right,
7,1,24,1.218161599999803,['c'],0,right,none,-99,-99,0.5,-99,0,none,28,17,Woman,Right,
8,1,24,1.4675678000003245,['c'],0,right,none,-99,-99,0.5,-99,0,none,28,17,Woman,Right,
9,1,24,1.0497408000010182,['n'],1,right,none,-99,-99,0.5,-99,0,none,28,17,Woman,Right,
10,1,24,1.0837987999984762,['c'],0,right,none,-99,-99,0.5,-99,0,none,28,17,Woman,Right,
11,1,24,1.1824503999996523,['c'],1,left,none,-99,-99,0.5,-99,0,none,28,17,Woman,Right,
12,1,24,1.03378850000081,['n'],0,left,none,-99,-99,0.5,-99,0,none,28,17,Woman,Right,
13,1,24,2.1175186000000394,['n'],1,right,none,-99,-99,0.5,-99,0,none,28,17,Woman,Right,
14,1,24,0.9508473000005324,['c'],0,right,none,-99,-99,0.5,-99,0,none,28,17,Woman,Right,
15,1,24,0.8160848999996233,['c'],1,left,none,-99,-99,0.5,-99,0,none,28,17,Woman,Right,
16,1,24,0.6173577999998088,['n'],1,right,none,-99,-99,0.5,-99,0,none,28,17,Woman,Right,
17,1,24,0.8005658000001858,['c'],1,left,none,-99,-99,0.5,-99,0,none,28,17,Woman,Right,
18,1,24,0.7512689000013779,['c'],1,left,none,-99,-99,0.5,-99,0,none,28,17,Woman,Right,
19,1,24,0.8842322999989847,['n'],1,right,none,-99,-99,0.5,-99,0,none,28,17,Woman,Right,
20,1,24,0.46695590000126685,['c'],0,right,none,-99,-99,0.5,-99,0,none,28,17,Woman,Right,
21,1,24,1.515871399999014,['n'],0,left,none,-99,-99,0.5,-99,0,none,28,17,Woman,Right,
22,1,24,2.766294500001095,['c'],1,left,none,-99,-99,0.5,-99,0,none,28,17,Woman,Right,
23,1,24,0.6340180999995937,['n'],0,left,none,-99,-99,0.5,-99,0,none,28,17,Woman,Right,
0,1,25,0.6007779999999912,['n'],1,right,none,-99,-99,0.5,-99,0,none,28,17,Woman,Right,
1,1,25,0.6994093000012072,['n'],1,right,none,-99,-99,0.5,-99,0,none,28,17,Woman,Right,
2,1,25,0.5669558999998117,['c'],1,left,none,-99,-99,0.5,-99,0,none,28,17,Woman,Right,
3,1,25,0.6510254999993776,['c'],1,left,none,-99,-99,0.5,-99,0,none,28,17,Woman,Right,
4,1,25,0.4503809999987425,['n'],1,right,none,-99,-99,0.5,-99,0,none,28,17,Woman,Right,
5,1,25,0.46741689999907976,['c'],0,right,none,-99,-99,0.5,-99,0,none,28,17,Woman,Right,
6,1,25,0.49979330000132904,['n'],0,left,none,-99,-99,0.5,-99,0,none,28,17,Woman,Right,
7,1,25,1.1172135999986494,['n'],1,right,none,-99,-99,0.5,-99,0,none,28,17,Woman,Right,
8,1,25,0.6344753999983368,['c'],0,right,none,-99,-99,0.5,-99,0,none,28,17,Woman,Right,
9,1,25,0.6509229000002961,['n'],1,right,none,-99,-99,0.5,-99,0,none,28,17,Woman,Right,
10,1,25,0.8491793000011967,['c'],1,left,none,-99,-99,0.5,-99,0,none,28,17,Woman,Right,
11,1,25,0.7331947000002401,['n'],0,left,none,-99,-99,0.5,-99,0,none,28,17,Woman,Right,
12,1,25,0.6836617999997543,['c'],1,left,none,-99,-99,0.5,-99,0,none,28,17,Woman,Right,
13,1,25,1.1001684999991994,['n'],0,left,none,-99,-99,0.5,-99,0,none,28,17,Woman,Right,
14,1,25,2.484014899999238,['n'],1,right,none,-99,-99,0.5,-99,0,none,28,17,Woman,Right,
15,1,25,0.8508920999993279,['c'],0,right,none,-99,-99,0.5,-99,0,none,28,17,Woman,Right,
16,1,25,3.1341430000011314,['n'],0,left,none,-99,-99,0.5,-99,0,none,28,17,Woman,Right,
17,1,25,3.3497637000000395,['n'],0,left,none,-99,-99,0.5,-99,0,none,28,17,Woman,Right,
18,1,25,2.850870300000679,['c'],0,right,none,-99,-99,0.5,-99,0,none,28,17,Woman,Right,
19,1,25,0.70154360000015,['n'],0,left,none,-99,-99,0.5,-99,0,none,28,17,Woman,Right,
20,1,25,3.700812400000359,['n'],1,right,none,-99,-99,0.5,-99,0,none,28,17,Woman,Right,
21,1,25,0.8985080999991624,['n'],1,right,none,-99,-99,0.5,-99,0,none,28,17,Woman,Right,
22,1,25,0.8006922000004124,['c'],1,left,none,-99,-99,0.5,-99,0,none,28,17,Woman,Right,
23,1,25,0.5828337000002648,['n'],0,left,none,-99,-99,0.5,-99,0,none,28,17,Woman,Right,
0,1,26,0.5846136000000115,['n'],0,left,none,-99,-99,0.5,-99,0,none,28,17,Woman,Right,
1,1,26,1.4002657999990333,['n'],1,right,none,-99,-99,0.5,-99,0,none,28,17,Woman,Right,
2,1,26,1.8670277999990503,['n'],1,right,none,-99,-99,0.5,-99,0,none,28,17,Woman,Right,
3,1,26,2.78427019999981,['c'],0,right,none,-99,-99,0.5,-99,0,none,28,17,Woman,Right,
4,1,26,0.7342882000011741,['n'],1,right,none,-99,-99,0.5,-99,0,none,28,17,Woman,Right,
5,1,26,1.1170612000005349,['c'],1,left,none,-99,-99,0.5,-99,0,none,28,17,Woman,Right,
6,1,26,1.017273400000704,['c'],1,left,none,-99,-99,0.5,-99,0,none,28,17,Woman,Right,
7,1,26,0.6342774999993708,['n'],1,right,none,-99,-99,0.5,-99,0,none,28,17,Woman,Right,
8,1,26,0.6677067999989958,['n'],1,right,none,-99,-99,0.5,-99,0,none,28,17,Woman,Right,
9,1,26,0.8012861000006524,['n'],1,right,none,-99,-99,0.5,-99,0,none,28,17,Woman,Right,
10,1,26,0.5333272999996552,['c'],1,left,none,-99,-99,0.5,-99,0,none,28,17,Woman,Right,
11,1,26,0.5337848999988637,['c'],1,left,none,-99,-99,0.5,-99,0,none,28,17,Woman,Right,
12,1,26,0.5505712999984098,['n'],0,left,none,-99,-99,0.5,-99,0,none,28,17,Woman,Right,
13,1,26,1.100396699999692,['n'],0,left,none,-99,-99,0.5,-99,0,none,28,17,Woman,Right,
14,1,26,3.1667057999984536,['n'],1,right,none,-99,-99,0.5,-99,0,none,28,17,Woman,Right,
15,1,26,0.600744900000791,['n'],0,left,none,-99,-99,0.5,-99,0,none,28,17,Woman,Right,
16,1,26,0.6003227000001061,['n'],1,right,none,-99,-99,0.5,-99,0,none,28,17,Woman,Right,
17,1,26,0.6663920999999391,['n'],1,right,none,-99,-99,0.5,-99,0,none,28,17,Woman,Right,
18,1,26,0.6004381000002468,['c'],1,left,none,-99,-99,0.5,-99,0,none,28,17,Woman,Right,
19,1,26,0.6001871999997093,['n'],0,left,none,-99,-99,0.5,-99,0,none,28,17,Woman,Right,
20,1,26,0.700355099999797,['n'],1,right,none,-99,-99,0.5,-99,0,none,28,17,Woman,Right,
21,1,26,0.5821141000014904,['c'],1,left,none,-99,-99,0.5,-99,0,none,28,17,Woman,Right,
22,1,26,0.6008093000000372,['n'],0,left,none,-99,-99,0.5,-99,0,none,28,17,Woman,Right,
23,1,26,1.217452900000353,['n'],1,right,none,-99,-99,0.5,-99,0,none,28,17,Woman,Right,
0,1,27,1.3003896000009263,['c'],1,left,none,-99,-99,0.5,-99,0,none,28,17,Woman,Right,
1,1,27,0.6507566000000224,['n'],1,right,none,-99,-99,0.5,-99,0,none,28,17,Woman,Right,
2,1,27,0.565959000001385,['n'],1,right,none,-99,-99,0.5,-99,0,none,28,17,Woman,Right,
3,1,27,0.51760749999994,['n'],0,left,none,-99,-99,0.5,-99,0,none,28,17,Woman,Right,
4,1,27,0.566330099998595,['n'],0,left,none,-99,-99,0.5,-99,0,none,28,17,Woman,Right,
5,1,27,1.265801300000021,['c'],0,right,none,-99,-99,0.5,-99,0,none,28,17,Woman,Right,
6,1,27,4.233292000000802,['n'],1,right,none,-99,-99,0.5,-99,0,none,28,17,Woman,Right,
7,1,27,0.6161990000000515,['n'],0,left,none,-99,-99,0.5,-99,0,none,28,17,Woman,Right,
8,1,27,2.083732899998722,['n'],1,right,none,-99,-99,0.5,-99,0,none,28,17,Woman,Right,
9,1,27,0.6331593000013527,['n'],0,left,none,-99,-99,0.5,-99,0,none,28,17,Woman,Right,
10,1,27,1.3841840000004595,['n'],0,left,none,-99,-99,0.5,-99,0,none,28,17,Woman,Right,
11,1,27,1.0834362999994482,['c'],0,right,none,-99,-99,0.5,-99,0,none,28,17,Woman,Right,
12,1,27,4.150846900000033,['c'],1,left,none,-99,-99,0.5,-99,0,none,28,17,Woman,Right,
13,1,27,0.6335086999988562,['n'],1,right,none,-99,-99,0.5,-99,0,none,28,17,Woman,Right,
14,1,27,1.1171992999989016,['c'],0,right,none,-99,-99,0.5,-99,0,none,28,17,Woman,Right,
15,1,27,1.167464200001632,['c'],1,left,none,-99,-99,0.5,-99,0,none,28,17,Woman,Right,
16,1,27,0.5673356000006606,['n'],0,left,none,-99,-99,0.5,-99,0,none,28,17,Woman,Right,
17,1,27,3.350117899999532,['c'],0,right,none,-99,-99,0.5,-99,0,none,28,17,Woman,Right,
18,1,27,0.6004807000008441,['n'],1,right,none,-99,-99,0.5,-99,0,none,28,17,Woman,Right,
19,1,27,0.7172580999995262,['c'],1,left,none,-99,-99,0.5,-99,0,none,28,17,Woman,Right,
20,1,27,1.5496692000015173,['n'],1,right,none,-99,-99,0.5,-99,0,none,28,17,Woman,Right,
21,1,27,0.9004303000001528,['c'],1,left,none,-99,-99,0.5,-99,0,none,28,17,Woman,Right,
22,1,27,0.6675694999994448,['c'],0,right,none,-99,-99,0.5,-99,0,none,28,17,Woman,Right,
23,1,27,0.7011581999995542,['c'],1,left,none,-99,-99,0.5,-99,0,none,28,17,Woman,Right,
0,1,28,1.833888899998783,['c'],1,left,none,-99,-99,0.5,-99,0,none,28,17,Woman,Right,
1,1,28,0.8501519000001281,['c'],1,left,none,-99,-99,0.5,-99,0,none,28,17,Woman,Right,
2,1,28,0.8672120999999606,['n'],1,right,none,-99,-99,0.5,-99,0,none,28,17,Woman,Right,
3,1,28,0.4505601000000752,['c'],1,left,none,-99,-99,0.5,-99,0,none,28,17,Woman,Right,
4,1,28,0.5837392000012187,['n'],0,left,none,-99,-99,0.5,-99,0,none,28,17,Woman,Right,
5,1,28,1.3175093999998353,['c'],0,right,none,-99,-99,0.5,-99,0,none,28,17,Woman,Right,
6,1,28,2.099690600000031,['n'],0,left,none,-99,-99,0.5,-99,0,none,28,17,Woman,Right,
7,1,28,1.5503379999991012,['n'],1,right,none,-99,-99,0.5,-99,0,none,28,17,Woman,Right,
8,1,28,2.65007549999973,['c'],1,left,none,-99,-99,0.5,-99,0,none,28,17,Woman,Right,
9,1,28,1.4837429000017437,['n'],0,left,none,-99,-99,0.5,-99,0,none,28,17,Woman,Right,
10,1,28,1.0511472999987745,['n'],1,right,none,-99,-99,0.5,-99,0,none,28,17,Woman,Right,
11,1,28,0.6669715999996697,['c'],1,left,none,-99,-99,0.5,-99,0,none,28,17,Woman,Right,
12,1,28,1.815867999999682,['n'],1,right,none,-99,-99,0.5,-99,0,none,28,17,Woman,Right,
13,1,28,1.4175458999998227,['c'],0,right,none,-99,-99,0.5,-99,0,none,28,17,Woman,Right,
14,1,28,2.950092900000527,['c'],1,left,none,-99,-99,0.5,-99,0,none,28,17,Woman,Right,
15,1,28,0.833060300001307,['n'],1,right,none,-99,-99,0.5,-99,0,none,28,17,Woman,Right,
16,1,28,0.7168576000003668,['c'],1,left,none,-99,-99,0.5,-99,0,none,28,17,Woman,Right,
17,1,28,0.7003616000001784,['n'],1,right,none,-99,-99,0.5,-99,0,none,28,17,Woman,Right,
18,1,28,0.6665911000000051,['n'],1,right,none,-99,-99,0.5,-99,0,none,28,17,Woman,Right,
19,1,28,0.6840061000002606,['c'],1,left,none,-99,-99,0.5,-99,0,none,28,17,Woman,Right,
20,1,28,0.5834491000005073,['n'],1,right,none,-99,-99,0.5,-99,0,none,28,17,Woman,Right,
21,1,28,0.6178976999999577,['n'],1,right,none,-99,-99,0.5,-99,0,none,28,17,Woman,Right,
22,1,28,0.5842033000008087,['n'],1,right,none,-99,-99,0.5,-99,0,none,28,17,Woman,Right,
23,1,28,0.48396300000058545,['c'],1,left,none,-99,-99,0.5,-99,0,none,28,17,Woman,Right,
0,1,29,0.4676072000002023,['n'],1,right,none,-99,-99,0.5,-99,0,none,28,17,Woman,Right,
1,1,29,0.6009252000003471,['n'],0,left,none,-99,-99,0.5,-99,0,none,28,17,Woman,Right,
2,1,29,0.5163329999995767,['c'],1,left,none,-99,-99,0.5,-99,0,none,28,17,Woman,Right,
3,1,29,0.4998749999995198,['n'],0,left,none,-99,-99,0.5,-99,0,none,28,17,Woman,Right,
4,1,29,0.5344728000000032,['n'],1,right,none,-99,-99,0.5,-99,0,none,28,17,Woman,Right,
5,1,29,0.483566000000792,['c'],1,left,none,-99,-99,0.5,-99,0,none,28,17,Woman,Right,
6,1,29,0.5667147000003752,['c'],1,left,none,-99,-99,0.5,-99,0,none,28,17,Woman,Right,
7,1,29,0.6842319999996107,['n'],0,left,none,-99,-99,0.5,-99,0,none,28,17,Woman,Right,
8,1,29,1.8672019000005093,['n'],1,right,none,-99,-99,0.5,-99,0,none,28,17,Woman,Right,
9,1,29,1.9838282000000618,['c'],0,right,none,-99,-99,0.5,-99,0,none,28,17,Woman,Right,
10,1,29,2.333208600000944,['c'],1,left,none,-99,-99,0.5,-99,0,none,28,17,Woman,Right,
11,1,29,0.6676657000007253,['n'],0,left,none,-99,-99,0.5,-99,0,none,28,17,Woman,Right,
12,1,29,2.7502307999984623,['n'],1,right,none,-99,-99,0.5,-99,0,none,28,17,Woman,Right,
13,1,29,0.6823802999988402,['c'],0,right,none,-99,-99,0.5,-99,0,none,28,17,Woman,Right,
14,1,29,0.8001399999993737,['n'],1,right,none,-99,-99,0.5,-99,0,none,28,17,Woman,Right,
15,1,29,0.7497316000008141,['c'],1,left,none,-99,-99,0.5,-99,0,none,28,17,Woman,Right,
16,1,29,0.7182832999988022,['c'],1,left,none,-99,-99,0.5,-99,0,none,28,17,Woman,Right,
17,1,29,0.7339663999991899,['n'],0,left,none,-99,-99,0.5,-99,0,none,28,17,Woman,Right,
18,1,29,0.6834619000001112,['n'],1,right,none,-99,-99,0.5,-99,0,none,28,17,Woman,Right,
19,1,29,0.7178476999997656,['c'],1,left,none,-99,-99,0.5,-99,0,none,28,17,Woman,Right,
20,1,29,0.48332959999970626,['n'],1,right,none,-99,-99,0.5,-99,0,none,28,17,Woman,Right,
21,1,29,0.5839355999996769,['c'],0,right,none,-99,-99,0.5,-99,0,none,28,17,Woman,Right,
22,1,29,1.7838173000000097,['n'],1,right,none,-99,-99,0.5,-99,0,none,28,17,Woman,Right,
23,1,29,2.099290399999518,['n'],1,right,none,-99,-99,0.5,-99,0,none,28,17,Woman,Right,
0,1,30,0.6175390999997035,['n'],1,right,none,-99,-99,0.5,-99,0,none,28,17,Woman,Right,
1,1,30,0.5835900000001857,['c'],1,left,none,-99,-99,0.5,-99,0,none,28,17,Woman,Right,
2,1,30,0.45060730000113836,['n'],1,right,none,-99,-99,0.5,-99,0,none,28,17,Woman,Right,
3,1,30,0.4837446999990789,['c'],1,left,none,-99,-99,0.5,-99,0,none,28,17,Woman,Right,
4,1,30,0.5507206000002043,['c'],1,left,none,-99,-99,0.5,-99,0,none,28,17,Woman,Right,
5,1,30,0.5172609999990527,['n'],1,right,none,-99,-99,0.5,-99,0,none,28,17,Woman,Right,
6,1,30,0.5501375999992888,['c'],1,left,none,-99,-99,0.5,-99,0,none,28,17,Woman,Right,
7,1,30,1.1835376999988512,['c'],0,right,none,-99,-99,0.5,-99,0,none,28,17,Woman,Right,
8,1,30,0.6669753000005585,['n'],1,right,none,-99,-99,0.5,-99,0,none,28,17,Woman,Right,
9,1,30,0.5004134000009799,['c'],1,left,none,-99,-99,0.5,-99,0,none,28,17,Woman,Right,
10,1,30,0.6000091999994766,['c'],1,left,none,-99,-99,0.5,-99,0,none,28,17,Woman,Right,
11,1,30,1.0677343000006658,['n'],1,right,none,-99,-99,0.5,-99,0,none,28,17,Woman,Right,
12,1,30,1.4334084000001894,['c'],1,left,none,-99,-99,0.5,-99,0,none,28,17,Woman,Right,
13,1,30,1.7678020000003016,['c'],1,left,none,-99,-99,0.5,-99,0,none,28,17,Woman,Right,
14,1,30,0.5668218000009801,['n'],1,right,none,-99,-99,0.5,-99,0,none,28,17,Woman,Right,
15,1,30,0.5666534999982105,['n'],1,right,none,-99,-99,0.5,-99,0,none,28,17,Woman,Right,
16,1,30,0.7508780000007391,['c'],0,right,none,-99,-99,0.5,-99,0,none,28,17,Woman,Right,
17,1,30,0.7009582999999111,['c'],1,left,none,-99,-99,0.5,-99,0,none,28,17,Woman,Right,
18,1,30,0.5170242000003782,['n'],1,right,none,-99,-99,0.5,-99,0,none,28,17,Woman,Right,
19,1,30,0.617022000000361,['c'],1,left,none,-99,-99,0.5,-99,0,none,28,17,Woman,Right,
20,1,30,0.5171348999992915,['n'],1,right,none,-99,-99,0.5,-99,0,none,28,17,Woman,Right,
21,1,30,0.7503575999999157,['n'],1,right,none,-99,-99,0.5,-99,0,none,28,17,Woman,Right,
22,1,30,0.6168378999991546,['n'],0,left,none,-99,-99,0.5,-99,0,none,28,17,Woman,Right,
23,1,30,0.6670920999986265,['n'],0,left,none,-99,-99,0.5,-99,0,none,28,17,Woman,Right,
0,1,31,0.4837838000003103,['n'],0,left,none,-99,-99,0.5,-99,0,none,28,17,Woman,Right,
1,1,31,0.6840699000003951,['n'],0,left,none,-99,-99,0.5,-99,0,none,28,17,Woman,Right,
2,1,31,1.2001815999992687,['c'],1,left,none,-99,-99,0.5,-99,0,none,28,17,Woman,Right,
3,1,31,0.8173707999994804,['n'],1,right,none,-99,-99,0.5,-99,0,none,28,17,Woman,Right,
4,1,31,0.5170811000007234,['c'],1,left,none,-99,-99,0.5,-99,0,none,28,17,Woman,Right,
5,1,31,0.6175251999993634,['n'],1,right,none,-99,-99,0.5,-99,0,none,28,17,Woman,Right,
6,1,31,0.43436150000161433,['c'],0,right,none,-99,-99,0.5,-99,0,none,28,17,Woman,Right,
7,1,31,1.333075700000336,['n'],0,left,none,-99,-99,0.5,-99,0,none,28,17,Woman,Right,
8,1,31,1.0348438000000897,['c'],1,left,none,-99,-99,0.5,-99,0,none,28,17,Woman,Right,
9,1,31,0.6994819000010466,['n'],1,right,none,-99,-99,0.5,-99,0,none,28,17,Woman,Right,
10,1,31,0.7175187000011647,['c'],0,right,none,-99,-99,0.5,-99,0,none,28,17,Woman,Right,
11,1,31,0.5501655000007304,['n'],1,right,none,-99,-99,0.5,-99,0,none,28,17,Woman,Right,
12,1,31,0.6512168999997812,['n'],1,right,none,-99,-99,0.5,-99,0,none,28,17,Woman,Right,
13,1,31,0.9001144000012573,['n'],1,right,none,-99,-99,0.5,-99,0,none,28,17,Woman,Right,
14,1,31,0.6342482000000018,['c'],1,left,none,-99,-99,0.5,-99,0,none,28,17,Woman,Right,
15,1,31,0.65041999999994,['n'],0,left,none,-99,-99,0.5,-99,0,none,28,17,Woman,Right,
16,1,31,0.6500162000011187,['n'],1,right,none,-99,-99,0.5,-99,0,none,28,17,Woman,Right,
17,1,31,0.5661215000000084,['c'],1,left,none,-99,-99,0.5,-99,0,none,28,17,Woman,Right,
18,1,31,0.5504782999996678,['c'],1,left,none,-99,-99,0.5,-99,0,none,28,17,Woman,Right,
19,1,31,0.6831307000011293,['n'],1,right,none,-99,-99,0.5,-99,0,none,28,17,Woman,Right,
20,1,31,0.8172311999987869,['n'],0,left,none,-99,-99,0.5,-99,0,none,28,17,Woman,Right,
21,1,31,0.48295320000033826,['c'],0,right,none,-99,-99,0.5,-99,0,none,28,17,Woman,Right,
22,1,31,1.3491900000008172,['c'],0,right,none,-99,-99,0.5,-99,0,none,28,17,Woman,Right,
23,1,31,0.9996289999999135,['n'],0,left,none,-99,-99,0.5,-99,0,none,28,17,Woman,Right,
0,1,32,0.7839703999998164,['n'],0,left,none,-99,-99,0.5,-99,0,none,28,17,Woman,Right,
1,1,32,3.11767940000027,['c'],0,right,none,-99,-99,0.5,-99,0,none,28,17,Woman,Right,
2,1,32,1.5841663999999582,['n'],1,right,none,-99,-99,0.5,-99,0,none,28,17,Woman,Right,
3,1,32,0.6839646000007633,['c'],0,right,none,-99,-99,0.5,-99,0,none,28,17,Woman,Right,
4,1,32,4.215772600000491,['c'],1,left,none,-99,-99,0.5,-99,0,none,28,17,Woman,Right,
5,1,32,0.767667000000074,['n'],0,left,none,-99,-99,0.5,-99,0,none,28,17,Woman,Right,
6,1,32,2.0498532999990857,['c'],0,right,none,-99,-99,0.5,-99,0,none,28,17,Woman,Right,
7,1,32,3.8656307000001107,['n'],0,left,none,-99,-99,0.5,-99,0,none,28,17,Woman,Right,
8,1,32,1.9179026000001613,['c'],0,right,none,-99,-99,0.5,-99,0,none,28,17,Woman,Right,
9,1,32,4.017661699999735,['c'],1,left,none,-99,-99,0.5,-99,0,none,28,17,Woman,Right,
10,1,32,2.4005191000014747,['n'],0,left,none,-99,-99,0.5,-99,0,none,28,17,Woman,Right,
11,1,32,0.5835030999987794,['n'],0,left,none,-99,-99,0.5,-99,0,none,28,17,Woman,Right,
12,1,32,1.532971800001178,['c'],1,left,none,-99,-99,0.5,-99,0,none,28,17,Woman,Right,
13,1,32,1.1342755000005127,['n'],1,right,none,-99,-99,0.5,-99,0,none,28,17,Woman,Right,
14,1,32,0.6004305000005843,['n'],0,left,none,-99,-99,0.5,-99,0,none,28,17,Woman,Right,
15,1,32,0.9002420000015263,['c'],0,right,none,-99,-99,0.5,-99,0,none,28,17,Woman,Right,
16,1,32,2.932824299999993,['c'],0,right,none,-99,-99,0.5,-99,0,none,28,17,Woman,Right,
17,1,32,0.6667686000000685,['n'],1,right,none,-99,-99,0.5,-99,0,none,28,17,Woman,Right,
18,1,32,0.5660514999999577,['n'],1,right,none,-99,-99,0.5,-99,0,none,28,17,Woman,Right,
19,1,32,0.5003414999991946,['c'],0,right,none,-99,-99,0.5,-99,0,none,28,17,Woman,Right,
20,1,32,0.6840737999991688,['n'],1,right,none,-99,-99,0.5,-99,0,none,28,17,Woman,Right,
21,1,32,0.8170988999991096,['c'],1,left,none,-99,-99,0.5,-99,0,none,28,17,Woman,Right,
22,1,32,0.5342677000007825,['n'],0,left,none,-99,-99,0.5,-99,0,none,28,17,Woman,Right,
23,1,32,0.650269699999626,['n'],0,left,none,-99,-99,0.5,-99,0,none,28,17,Woman,Right,
0,1,33,0.9178334999996878,['n'],1,right,none,-99,-99,0.5,-99,0,none,28,17,Woman,Right,
1,1,33,0.6657145999997738,['c'],1,left,none,-99,-99,0.5,-99,0,none,28,17,Woman,Right,
2,1,33,0.53369990000283,['n'],1,right,none,-99,-99,0.5,-99,0,none,28,17,Woman,Right,
3,1,33,0.701088300000265,['c'],1,left,none,-99,-99,0.5,-99,0,none,28,17,Woman,Right,
4,1,33,1.4836359000000812,['n'],0,left,none,-99,-99,0.5,-99,0,none,28,17,Woman,Right,
5,1,33,1.2167418999997608,['c'],1,left,none,-99,-99,0.5,-99,0,none,28,17,Woman,Right,
6,1,33,0.8345513999993273,['n'],0,left,none,-99,-99,0.5,-99,0,none,28,17,Woman,Right,
7,1,33,1.0503147000017634,['c'],1,left,none,-99,-99,0.5,-99,0,none,28,17,Woman,Right,
8,1,33,0.700306200000341,['c'],1,left,none,-99,-99,0.5,-99,0,none,28,17,Woman,Right,
9,1,33,0.6170594000031997,['n'],1,right,none,-99,-99,0.5,-99,0,none,28,17,Woman,Right,
10,1,33,0.6337311000024783,['n'],1,right,none,-99,-99,0.5,-99,0,none,28,17,Woman,Right,
11,1,33,0.6338219000026584,['n'],1,right,none,-99,-99,0.5,-99,0,none,28,17,Woman,Right,
12,1,33,0.6669636999977229,['n'],0,left,none,-99,-99,0.5,-99,0,none,28,17,Woman,Right,
13,1,33,0.6833781999994244,['c'],1,left,none,-99,-99,0.5,-99,0,none,28,17,Woman,Right,
14,1,33,0.6677356000000145,['n'],1,right,none,-99,-99,0.5,-99,0,none,28,17,Woman,Right,
15,1,33,0.4999270999978762,['c'],1,left,none,-99,-99,0.5,-99,0,none,28,17,Woman,Right,
16,1,33,0.6024423000017123,['n'],1,right,none,-99,-99,0.5,-99,0,none,28,17,Woman,Right,
17,1,33,0.5171408999995037,['c'],0,right,none,-99,-99,0.5,-99,0,none,28,17,Woman,Right,
18,1,33,0.4668478000021423,['n'],0,left,none,-99,-99,0.5,-99,0,none,28,17,Woman,Right,
19,1,33,1.250334100001055,['n'],1,right,none,-99,-99,0.5,-99,0,none,28,17,Woman,Right,
20,1,33,0.6334066999988863,['n'],1,right,none,-99,-99,0.5,-99,0,none,28,17,Woman,Right,
21,1,33,0.5170987999990757,['n'],1,right,none,-99,-99,0.5,-99,0,none,28,17,Woman,Right,
22,1,33,0.800832699998864,['c'],1,left,none,-99,-99,0.5,-99,0,none,28,17,Woman,Right,
23,1,33,0.5004225000011502,['n'],1,right,none,-99,-99,0.5,-99,0,none,28,17,Woman,Right,
0,1,34,0.6842819000012241,['c'],1,left,none,-99,-99,0.5,-99,0,none,28,17,Woman,Right,
1,1,34,0.46778039999844623,['n'],1,right,none,-99,-99,0.5,-99,0,none,28,17,Woman,Right,
2,1,34,0.6499454000004334,['n'],1,right,none,-99,-99,0.5,-99,0,none,28,17,Woman,Right,
3,1,34,0.4163533999999345,['c'],1,left,none,-99,-99,0.5,-99,0,none,28,17,Woman,Right,
4,1,34,0.5657661000004737,['n'],0,left,none,-99,-99,0.5,-99,0,none,28,17,Woman,Right,
5,1,34,0.8656110000010813,['c'],0,right,none,-99,-99,0.5,-99,0,none,28,17,Woman,Right,
6,1,34,0.16709959999934654,['n'],1,right,none,-99,-99,0.5,-99,0,none,28,17,Woman,Right,
7,1,34,0.46689629999673343,['n'],0,left,none,-99,-99,0.5,-99,0,none,28,17,Woman,Right,
8,1,34,0.8843972000031499,['c'],1,left,none,-99,-99,0.5,-99,0,none,28,17,Woman,Right,
9,1,34,0.5837704000005033,['n'],1,right,none,-99,-99,0.5,-99,0,none,28,17,Woman,Right,
10,1,34,0.667446799998288,['n'],1,right,none,-99,-99,0.5,-99,0,none,28,17,Woman,Right,
11,1,34,0.4669486999991932,['c'],1,left,none,-99,-99,0.5,-99,0,none,28,17,Woman,Right,
12,1,34,0.4831621000012092,['c'],1,left,none,-99,-99,0.5,-99,0,none,28,17,Woman,Right,
13,1,34,0.5834618000008049,['n'],0,left,none,-99,-99,0.5,-99,0,none,28,17,Woman,Right,
14,1,34,0.5677619999987655,['c'],1,left,none,-99,-99,0.5,-99,0,none,28,17,Woman,Right,
15,1,34,0.9008202999975765,['c'],1,left,none,-99,-99,0.5,-99,0,none,28,17,Woman,Right,
16,1,34,0.6670974000007845,['c'],1,left,none,-99,-99,0.5,-99,0,none,28,17,Woman,Right,
17,1,34,0.5836787999978696,['n'],1,right,none,-99,-99,0.5,-99,0,none,28,17,Woman,Right,
18,1,34,0.7507043999976304,['n'],0,left,none,-99,-99,0.5,-99,0,none,28,17,Woman,Right,
19,1,34,0.7675917999986268,['n'],1,right,none,-99,-99,0.5,-99,0,none,28,17,Woman,Right,
20,1,34,0.649855399999069,['n'],1,right,none,-99,-99,0.5,-99,0,none,28,17,Woman,Right,
21,1,34,0.5511919999989914,['n'],1,right,none,-99,-99,0.5,-99,0,none,28,17,Woman,Right,
22,1,34,0.6009033000009367,['c'],0,right,none,-99,-99,0.5,-99,0,none,28,17,Woman,Right,
23,1,34,0.9003370999998879,['c'],0,right,none,-99,-99,0.5,-99,0,none,28,17,Woman,Right,
0,1,35,0.6842218000019784,['c'],0,right,none,-99,-99,0.5,-99,0,none,28,17,Woman,Right,
1,1,35,0.6173212000030617,['n'],1,right,none,-99,-99,0.5,-99,0,none,28,17,Woman,Right,
2,1,35,0.5000197999979719,['c'],0,right,none,-99,-99,0.5,-99,0,none,28,17,Woman,Right,
3,1,35,0.6835541000000376,['n'],1,right,none,-99,-99,0.5,-99,0,none,28,17,Woman,Right,
4,1,35,0.5997250000000349,['c'],1,left,none,-99,-99,0.5,-99,0,none,28,17,Woman,Right,
5,1,35,0.917649099999835,['c'],1,left,none,-99,-99,0.5,-99,0,none,28,17,Woman,Right,
6,1,35,0.4843795000015234,['n'],1,right,none,-99,-99,0.5,-99,0,none,28,17,Woman,Right,
7,1,35,0.8674498999971547,['n'],0,left,none,-99,-99,0.5,-99,0,none,28,17,Woman,Right,
8,1,35,0.6341981999976269,['c'],1,left,none,-99,-99,0.5,-99,0,none,28,17,Woman,Right,
9,1,35,0.5505799999991723,['n'],1,right,none,-99,-99,0.5,-99,0,none,28,17,Woman,Right,
10,1,35,0.833053900001687,['n'],0,left,none,-99,-99,0.5,-99,0,none,28,17,Woman,Right,
11,1,35,0.5668394999993325,['n'],1,right,none,-99,-99,0.5,-99,0,none,28,17,Woman,Right,
12,1,35,1.0009829000009631,['c'],0,right,none,-99,-99,0.5,-99,0,none,28,17,Woman,Right,
13,1,35,0.7167312999990827,['n'],1,right,none,-99,-99,0.5,-99,0,none,28,17,Woman,Right,
14,1,35,0.6328614000012749,['n'],1,right,none,-99,-99,0.5,-99,0,none,28,17,Woman,Right,
15,1,35,0.767783999999665,['c'],1,left,none,-99,-99,0.5,-99,0,none,28,17,Woman,Right,
16,1,35,0.46701979999852483,['n'],0,left,none,-99,-99,0.5,-99,0,none,28,17,Woman,Right,
17,1,35,0.4837571000025491,['c'],1,left,none,-99,-99,0.5,-99,0,none,28,17,Woman,Right,
18,1,35,0.4178055999982462,['c'],1,left,none,-99,-99,0.5,-99,0,none,28,17,Woman,Right,
19,1,35,0.4004156000009971,['c'],1,left,none,-99,-99,0.5,-99,0,none,28,17,Woman,Right,
20,1,35,0.4504056000005221,['n'],1,right,none,-99,-99,0.5,-99,0,none,28,17,Woman,Right,
21,1,35,0.6504896999977063,['n'],1,right,none,-99,-99,0.5,-99,0,none,28,17,Woman,Right,
22,1,35,0.6004520000024058,['c'],1,left,none,-99,-99,0.5,-99,0,none,28,17,Woman,Right,
23,1,35,0.43248419999872567,['c'],1,left,none,-99,-99,0.5,-99,0,none,28,17,Woman,Right,
0,1,36,0.6008631999975478,['n'],1,right,none,-99,-99,0.5,-99,0,none,28,17,Woman,Right,
1,1,36,0.51643089999925,['c'],1,left,none,-99,-99,0.5,-99,0,none,28,17,Woman,Right,
2,1,36,0.5670775999969919,['n'],1,right,none,-99,-99,0.5,-99,0,none,28,17,Woman,Right,
3,1,36,0.6503566999999748,['n'],0,left,none,-99,-99,0.5,-99,0,none,28,17,Woman,Right,
4,1,36,0.6993521999975201,['n'],1,right,none,-99,-99,0.5,-99,0,none,28,17,Woman,Right,
5,1,36,0.5840000000025611,['n'],1,right,none,-99,-99,0.5,-99,0,none,28,17,Woman,Right,
6,1,36,0.5002222000002803,['c'],0,right,none,-99,-99,0.5,-99,0,none,28,17,Woman,Right,
7,1,36,0.5003534999996191,['n'],1,right,none,-99,-99,0.5,-99,0,none,28,17,Woman,Right,
8,1,36,0.6505694999978004,['c'],0,right,none,-99,-99,0.5,-99,0,none,28,17,Woman,Right,
9,1,36,1.1839312000010977,['c'],1,left,none,-99,-99,0.5,-99,0,none,28,17,Woman,Right,
10,1,36,0.500102699999843,['c'],1,left,none,-99,-99,0.5,-99,0,none,28,17,Woman,Right,
11,1,36,0.4338887000012619,['c'],1,left,none,-99,-99,0.5,-99,0,none,28,17,Woman,Right,
12,1,36,0.5324470000014117,['c'],1,left,none,-99,-99,0.5,-99,0,none,28,17,Woman,Right,
13,1,36,0.43373589999828255,['c'],1,left,none,-99,-99,0.5,-99,0,none,28,17,Woman,Right,
14,1,36,0.8012000000016997,['c'],1,left,none,-99,-99,0.5,-99,0,none,28,17,Woman,Right,
15,1,36,0.44878679999965243,['c'],0,right,none,-99,-99,0.5,-99,0,none,28,17,Woman,Right,
16,1,36,0.6501567000013893,['n'],0,left,none,-99,-99,0.5,-99,0,none,28,17,Woman,Right,
17,1,36,0.5995632999984082,['c'],1,left,none,-99,-99,0.5,-99,0,none,28,17,Woman,Right,
18,1,36,0.6999640000030922,['n'],1,right,none,-99,-99,0.5,-99,0,none,28,17,Woman,Right,
19,1,36,0.6171850000027916,['c'],1,left,none,-99,-99,0.5,-99,0,none,28,17,Woman,Right,
20,1,36,0.5999859000003198,['n'],1,right,none,-99,-99,0.5,-99,0,none,28,17,Woman,Right,
21,1,36,0.34953540000060457,['c'],1,left,none,-99,-99,0.5,-99,0,none,28,17,Woman,Right,
22,1,36,0.6166400999973121,['n'],1,right,none,-99,-99,0.5,-99,0,none,28,17,Woman,Right,
23,1,36,0.5006854999992356,['c'],0,right,none,-99,-99,0.5,-99,0,none,28,17,Woman,Right,
0,1,37,0.5676697999988392,['n'],0,left,none,-99,-99,0.5,-99,0,none,28,17,Woman,Right,
1,1,37,0.6508756000002904,['n'],1,right,none,-99,-99,0.5,-99,0,none,28,17,Woman,Right,
2,1,37,0.5836471999973583,['c'],0,right,none,-99,-99,0.5,-99,0,none,28,17,Woman,Right,
3,1,37,0.715841499997623,['c'],0,right,none,-99,-99,0.5,-99,0,none,28,17,Woman,Right,
4,1,37,0.6508909000003769,['n'],0,left,none,-99,-99,0.5,-99,0,none,28,17,Woman,Right,
5,1,37,0.700410199999169,['n'],1,right,none,-99,-99,0.5,-99,0,none,28,17,Woman,Right,
6,1,37,0.5504269000011845,['c'],0,right,none,-99,-99,0.5,-99,0,none,28,17,Woman,Right,
7,1,37,0.650831000002654,['c'],1,left,none,-99,-99,0.5,-99,0,none,28,17,Woman,Right,
8,1,37,0.7160301000003528,['n'],1,right,none,-99,-99,0.5,-99,0,none,28,17,Woman,Right,
9,1,37,0.7351052999983949,['c'],0,right,none,-99,-99,0.5,-99,0,none,28,17,Woman,Right,
10,1,37,0.9346046000027854,['c'],1,left,none,-99,-99,0.5,-99,0,none,28,17,Woman,Right,
11,1,37,0.5336138999991817,['c'],1,left,none,-99,-99,0.5,-99,0,none,28,17,Woman,Right,
12,1,37,0.5327923000004375,['c'],1,left,none,-99,-99,0.5,-99,0,none,28,17,Woman,Right,
13,1,37,0.567039500001556,['c'],1,left,none,-99,-99,0.5,-99,0,none,28,17,Woman,Right,
14,1,37,0.633569699999498,['n'],0,left,none,-99,-99,0.5,-99,0,none,28,17,Woman,Right,
15,1,37,0.5828552999992098,['c'],1,left,none,-99,-99,0.5,-99,0,none,28,17,Woman,Right,
16,1,37,0.5003053000000364,['c'],0,right,none,-99,-99,0.5,-99,0,none,28,17,Woman,Right,
17,1,37,0.6003635000015493,['n'],0,left,none,-99,-99,0.5,-99,0,none,28,17,Woman,Right,
18,1,37,0.6007688999998209,['n'],1,right,none,-99,-99,0.5,-99,0,none,28,17,Woman,Right,
19,1,37,0.6165940999999293,['n'],0,left,none,-99,-99,0.5,-99,0,none,28,17,Woman,Right,
20,1,37,1.2175941000023158,['c'],1,left,none,-99,-99,0.5,-99,0,none,28,17,Woman,Right,
21,1,37,0.666574099999707,['n'],1,right,none,-99,-99,0.5,-99,0,none,28,17,Woman,Right,
22,1,37,0.583930100001453,['n'],1,right,none,-99,-99,0.5,-99,0,none,28,17,Woman,Right,
23,1,37,0.701170500000444,['n'],1,right,none,-99,-99,0.5,-99,0,none,28,17,Woman,Right,
0,1,38,0.6843822000009823,['n'],0,left,none,-99,-99,0.5,-99,0,none,28,17,Woman,Right,
1,1,38,0.9171146999979101,['c'],1,left,none,-99,-99,0.5,-99,0,none,28,17,Woman,Right,
2,1,38,0.4994068999985757,['c'],1,left,none,-99,-99,0.5,-99,0,none,28,17,Woman,Right,
3,1,38,0.7166983000024629,['n'],1,right,none,-99,-99,0.5,-99,0,none,28,17,Woman,Right,
4,1,38,0.2832641999993939,['c'],0,right,none,-99,-99,0.5,-99,0,none,28,17,Woman,Right,
5,1,38,0.45068170000013197,['c'],1,left,none,-99,-99,0.5,-99,0,none,28,17,Woman,Right,
6,1,38,0.43366969999988214,['n'],1,right,none,-99,-99,0.5,-99,0,none,28,17,Woman,Right,
7,1,38,0.4007875999996031,['c'],1,left,none,-99,-99,0.5,-99,0,none,28,17,Woman,Right,
8,1,38,0.31664309999905527,['n'],1,right,none,-99,-99,0.5,-99,0,none,28,17,Woman,Right,
9,1,38,0.38360870000178693,['c'],1,left,none,-99,-99,0.5,-99,0,none,28,17,Woman,Right,
10,1,38,0.3002667000000656,['n'],1,right,none,-99,-99,0.5,-99,0,none,28,17,Woman,Right,
11,1,38,0.5509693000021798,['c'],1,left,none,-99,-99,0.5,-99,0,none,28,17,Woman,Right,
12,1,38,0.3505089999998745,['n'],1,right,none,-99,-99,0.5,-99,0,none,28,17,Woman,Right,
13,1,38,0.3004737000010209,['c'],0,right,none,-99,-99,0.5,-99,0,none,28,17,Woman,Right,
14,1,38,0.5836736999990535,['c'],1,left,none,-99,-99,0.5,-99,0,none,28,17,Woman,Right,
15,1,38,0.7004636999990907,['n'],1,right,none,-99,-99,0.5,-99,0,none,28,17,Woman,Right,
16,1,38,0.4175748999987263,['c'],1,left,none,-99,-99,0.5,-99,0,none,28,17,Woman,Right,
17,1,38,0.38305810000019846,['n'],0,left,none,-99,-99,0.5,-99,0,none,28,17,Woman,Right,
18,1,38,0.550646699997742,['n'],1,right,none,-99,-99,0.5,-99,0,none,28,17,Woman,Right,
19,1,38,0.6666525000000547,['n'],1,right,none,-99,-99,0.5,-99,0,none,28,17,Woman,Right,
20,1,38,0.46704719999979716,['c'],0,right,none,-99,-99,0.5,-99,0,none,28,17,Woman,Right,
21,1,38,0.6493227999999363,['c'],1,left,none,-99,-99,0.5,-99,0,none,28,17,Woman,Right,
22,1,38,0.8489173999987543,['n'],1,right,none,-99,-99,0.5,-99,0,none,28,17,Woman,Right,
23,1,38,0.6506344000008539,['c'],1,left,none,-99,-99,0.5,-99,0,none,28,17,Woman,Right,
0,1,39,0.5177800999990723,['n'],1,right,none,-99,-99,0.5,-99,0,none,28,17,Woman,Right,
1,1,39,0.4503727999981493,['n'],0,left,none,-99,-99,0.5,-99,0,none,28,17,Woman,Right,
2,1,39,0.7168707000018912,['c'],1,left,none,-99,-99,0.5,-99,0,none,28,17,Woman,Right,
3,1,39,0.6670405999975628,['n'],1,right,none,-99,-99,0.5,-99,0,none,28,17,Woman,Right,
4,1,39,0.48374320000220905,['c'],0,right,none,-99,-99,0.5,-99,0,none,28,17,Woman,Right,
5,1,39,1.7834903000002669,['c'],1,left,none,-99,-99,0.5,-99,0,none,28,17,Woman,Right,
6,1,39,0.6666718000014953,['c'],1,left,none,-99,-99,0.5,-99,0,none,28,17,Woman,Right,
7,1,39,1.0168524000000616,['n'],0,left,none,-99,-99,0.5,-99,0,none,28,17,Woman,Right,
8,1,39,0.5842428000032669,['c'],1,left,none,-99,-99,0.5,-99,0,none,28,17,Woman,Right,
9,1,39,0.5342730000011215,['n'],0,left,none,-99,-99,0.5,-99,0,none,28,17,Woman,Right,
10,1,39,4.266950199998973,['c'],1,left,none,-99,-99,0.5,-99,0,none,28,17,Woman,Right,
11,1,39,0.6511320999998134,['n'],0,left,none,-99,-99,0.5,-99,0,none,28,17,Woman,Right,
12,1,39,0.617208199997549,['n'],0,left,none,-99,-99,0.5,-99,0,none,28,17,Woman,Right,
13,1,39,0.667299799999455,['n'],1,right,none,-99,-99,0.5,-99,0,none,28,17,Woman,Right,
14,1,39,0.5841013999997813,['n'],1,right,none,-99,-99,0.5,-99,0,none,28,17,Woman,Right,
15,1,39,0.6001324000026216,['n'],1,right,none,-99,-99,0.5,-99,0,none,28,17,Woman,Right,
16,1,39,0.5838145000016084,['n'],1,right,none,-99,-99,0.5,-99,0,none,28,17,Woman,Right,
17,1,39,0.8170385000012175,['n'],0,left,none,-99,-99,0.5,-99,0,none,28,17,Woman,Right,
18,1,39,0.6998373999995238,['n'],1,right,none,-99,-99,0.5,-99,0,none,28,17,Woman,Right,
19,1,39,1.1832558999994944,['n'],1,right,none,-99,-99,0.5,-99,0,none,28,17,Woman,Right,
20,1,39,0.5677328999991005,['n'],1,right,none,-99,-99,0.5,-99,0,none,28,17,Woman,Right,
21,1,39,0.5855057999979181,['n'],1,right,none,-99,-99,0.5,-99,0,none,28,17,Woman,Right,
22,1,39,0.617146500000672,['c'],0,right,none,-99,-99,0.5,-99,0,none,28,17,Woman,Right,
23,1,39,1.3342262000005576,['c'],1,left,none,-99,-99,0.5,-99,0,none,28,17,Woman,Right,
0,1,40,0.9510725000000093,['c'],1,left,none,-99,-99,0.5,-99,0,none,28,17,Woman,Right,
1,1,40,0.5338933000020916,['n'],1,right,none,-99,-99,0.5,-99,0,none,28,17,Woman,Right,
2,1,40,0.4171310999990965,['c'],1,left,none,-99,-99,0.5,-99,0,none,28,17,Woman,Right,
3,1,40,0.6003851999994367,['n'],0,left,none,-99,-99,0.5,-99,0,none,28,17,Woman,Right,
4,1,40,0.6003945000011299,['c'],0,right,none,-99,-99,0.5,-99,0,none,28,17,Woman,Right,
5,1,40,0.7670198000014352,['n'],1,right,none,-99,-99,0.5,-99,0,none,28,17,Woman,Right,
6,1,40,0.7666062999996939,['c'],1,left,none,-99,-99,0.5,-99,0,none,28,17,Woman,Right,
7,1,40,0.6997790000023087,['c'],1,left,none,-99,-99,0.5,-99,0,none,28,17,Woman,Right,
8,1,40,0.7343751000007614,['n'],0,left,none,-99,-99,0.5,-99,0,none,28,17,Woman,Right,
9,1,40,1.866750299999694,['c'],1,left,none,-99,-99,0.5,-99,0,none,28,17,Woman,Right,
10,1,40,0.4674112000029709,['n'],1,right,none,-99,-99,0.5,-99,0,none,28,17,Woman,Right,
11,1,40,0.6341715000016848,['n'],1,right,none,-99,-99,0.5,-99,0,none,28,17,Woman,Right,
12,1,40,0.6843370999995386,['c'],0,right,none,-99,-99,0.5,-99,0,none,28,17,Woman,Right,
13,1,40,0.550585000000865,['c'],0,right,none,-99,-99,0.5,-99,0,none,28,17,Woman,Right,
14,1,40,0.5675612999984878,['c'],1,left,none,-99,-99,0.5,-99,0,none,28,17,Woman,Right,
15,1,40,0.6664834000002884,['c'],1,left,none,-99,-99,0.5,-99,0,none,28,17,Woman,Right,
16,1,40,0.6174963999983447,['n'],0,left,none,-99,-99,0.5,-99,0,none,28,17,Woman,Right,
17,1,40,0.7499922999995761,['n'],1,right,none,-99,-99,0.5,-99,0,none,28,17,Woman,Right,
18,1,40,0.5841452999993635,['n'],0,left,none,-99,-99,0.5,-99,0,none,28,17,Woman,Right,
19,1,40,1.0170609999986482,['n'],1,right,none,-99,-99,0.5,-99,0,none,28,17,Woman,Right,
20,1,40,0.6003536000025633,['n'],1,right,none,-99,-99,0.5,-99,0,none,28,17,Woman,Right,
21,1,40,0.5675250999993295,['c'],1,left,none,-99,-99,0.5,-99,0,none,28,17,Woman,Right,
22,1,40,0.8495889000005263,['c'],0,right,none,-99,-99,0.5,-99,0,none,28,17,Woman,Right,
23,1,40,0.6170907000014267,['c'],0,right,none,-99,-99,0.5,-99,0,none,28,17,Woman,Right,
0,1,41,0.7001682000009168,['c'],1,left,none,-99,-99,0.5,-99,0,none,28,17,Woman,Right,
1,1,41,0.6174496999992698,['n'],0,left,none,-99,-99,0.5,-99,0,none,28,17,Woman,Right,
2,1,41,0.8171297000008053,['c'],1,left,none,-99,-99,0.5,-99,0,none,28,17,Woman,Right,
3,1,41,0.6835415999994439,['c'],0,right,none,-99,-99,0.5,-99,0,none,28,17,Woman,Right,
4,1,41,1.2002042999993137,['c'],1,left,none,-99,-99,0.5,-99,0,none,28,17,Woman,Right,
5,1,41,0.7672601000012946,['c'],1,left,none,-99,-99,0.5,-99,0,none,28,17,Woman,Right,
6,1,41,0.750765800003137,['c'],0,right,none,-99,-99,0.5,-99,0,none,28,17,Woman,Right,
7,1,41,0.7669691000010062,['c'],1,left,none,-99,-99,0.5,-99,0,none,28,17,Woman,Right,
8,1,41,0.8006262000017159,['c'],0,right,none,-99,-99,0.5,-99,0,none,28,17,Woman,Right,
9,1,41,0.6511190999990504,['c'],0,right,none,-99,-99,0.5,-99,0,none,28,17,Woman,Right,
10,1,41,0.6503871999993862,['c'],0,right,none,-99,-99,0.5,-99,0,none,28,17,Woman,Right,
11,1,41,0.8004223000025377,['n'],0,left,none,-99,-99,0.5,-99,0,none,28,17,Woman,Right,
12,1,41,0.7335944999977073,['n'],1,right,none,-99,-99,0.5,-99,0,none,28,17,Woman,Right,
13,1,41,0.7490710000020044,['n'],0,left,none,-99,-99,0.5,-99,0,none,28,17,Woman,Right,
14,1,41,1.5503413000005821,['c'],0,right,none,-99,-99,0.5,-99,0,none,28,17,Woman,Right,
15,1,41,0.5170204000023659,['n'],1,right,none,-99,-99,0.5,-99,0,none,28,17,Woman,Right,
16,1,41,0.5324670999980299,['c'],1,left,none,-99,-99,0.5,-99,0,none,28,17,Woman,Right,
17,1,41,0.617076200000156,['c'],0,right,none,-99,-99,0.5,-99,0,none,28,17,Woman,Right,
18,1,41,1.266626600001473,['n'],1,right,none,-99,-99,0.5,-99,0,none,28,17,Woman,Right,
19,1,41,0.4344612999993842,['c'],0,right,none,-99,-99,0.5,-99,0,none,28,17,Woman,Right,
20,1,41,0.4012120000006689,['n'],1,right,none,-99,-99,0.5,-99,0,none,28,17,Woman,Right,
21,1,41,0.7002247000018542,['c'],1,left,none,-99,-99,0.5,-99,0,none,28,17,Woman,Right,
22,1,41,0.6673090999975102,['n'],0,left,none,-99,-99,0.5,-99,0,none,28,17,Woman,Right,
23,1,41,0.6846046999999089,['c'],1,left,none,-99,-99,0.5,-99,0,none,28,17,Woman,Right,
0,1,42,0.5846219000013662,['c'],1,left,none,-99,-99,0.5,-99,0,none,28,17,Woman,Right,
1,1,42,0.5669392999989213,['n'],1,right,none,-99,-99,0.5,-99,0,none,28,17,Woman,Right,
2,1,42,0.533776600001147,['c'],1,left,none,-99,-99,0.5,-99,0,none,28,17,Woman,Right,
3,1,42,0.45038239999848884,['n'],0,left,none,-99,-99,0.5,-99,0,none,28,17,Woman,Right,
4,1,42,0.4835339999990538,['c'],0,right,none,-99,-99,0.5,-99,0,none,28,17,Woman,Right,
5,1,42,0.4836509999986447,['c'],1,left,none,-99,-99,0.5,-99,0,none,28,17,Woman,Right,
6,1,42,1.1827948999998625,['n'],1,right,none,-99,-99,0.5,-99,0,none,28,17,Woman,Right,
7,1,42,0.5843886000002385,['n'],1,right,none,-99,-99,0.5,-99,0,none,28,17,Woman,Right,
