withinblocktrial,block,block_repetition,rt,resp,cor,cresp,conf_press,cj,rtconf,coherence,metacognition,slow_trial,manipulation,sub,age,gender,handedness,
0,1,1,5.016096900000775,x,-99,left,none,-99,-99,0.5,-99,1,none,34,19,Man,Right,
1,1,1,1.9517499999983556,['c'],0,right,none,-99,-99,0.5,-99,0,none,34,19,Man,Right,
2,1,1,1.7506114000007074,['n'],0,left,none,-99,-99,0.5,-99,0,none,34,19,Man,Right,
3,1,1,2.7840075999993132,['c'],0,right,none,-99,-99,0.5,-99,0,none,34,19,Man,Right,
4,1,1,2.833096900001692,['c'],1,left,none,-99,-99,0.5,-99,0,none,34,19,Man,Right,
5,1,1,2.3656599999994796,['c'],0,right,none,-99,-99,0.5,-99,0,none,34,19,Man,Right,
6,1,1,0.9675760000009177,['n'],0,left,none,-99,-99,0.5,-99,0,none,34,19,Man,Right,
7,1,1,3.9498789999997825,['c'],1,left,none,-99,-99,0.5,-99,0,none,34,19,Man,Right,
8,1,1,0.9492687999991176,['n'],0,left,none,-99,-99,0.5,-99,0,none,34,19,Man,Right,
9,1,1,2.099767499999871,['n'],0,left,none,-99,-99,0.5,-99,0,none,34,19,Man,Right,
10,1,1,3.3843933000007382,['n'],1,right,none,-99,-99,0.5,-99,0,none,34,19,Man,Right,
11,1,1,2.433768599999894,['c'],0,right,none,-99,-99,0.5,-99,0,none,34,19,Man,Right,
12,1,1,3.1332048999993276,['n'],1,right,none,-99,-99,0.5,-99,0,none,34,19,Man,Right,
13,1,1,2.0338097999992897,['n'],0,left,none,-99,-99,0.5,-99,0,none,34,19,Man,Right,
14,1,1,3.200275600000168,['c'],0,right,none,-99,-99,0.5,-99,0,none,34,19,Man,Right,
15,1,1,3.7687579999983427,['n'],1,right,none,-99,-99,0.5,-99,0,none,34,19,Man,Right,
16,1,1,1.0819988000002922,['c'],1,left,none,-99,-99,0.5,-99,0,none,34,19,Man,Right,
17,1,1,1.598821499999758,['n'],1,right,none,-99,-99,0.5,-99,0,none,34,19,Man,Right,
18,1,1,0.7493202999994537,['c'],1,left,none,-99,-99,0.5,-99,0,none,34,19,Man,Right,
19,1,1,0.31586740000057034,['n'],0,left,none,-99,-99,0.5,-99,0,none,34,19,Man,Right,
20,1,1,1.7482101999994484,['c'],1,left,none,-99,-99,0.5,-99,0,none,34,19,Man,Right,
21,1,1,1.0510897000003752,['n'],1,right,none,-99,-99,0.5,-99,0,none,34,19,Man,Right,
22,1,1,1.815682000000379,['n'],1,right,none,-99,-99,0.5,-99,0,none,34,19,Man,Right,
23,1,1,1.7347616000006383,['n'],1,right,none,-99,-99,0.5,-99,0,none,34,19,Man,Right,
0,1,2,2.034681499999351,['n'],1,right,none,-99,-99,0.5,-99,0,none,34,19,Man,Right,
1,1,2,1.3667521999996097,['c'],1,left,none,-99,-99,0.5,-99,0,none,34,19,Man,Right,
2,1,2,1.965740100000403,['n'],0,left,none,-99,-99,0.5,-99,0,none,34,19,Man,Right,
3,1,2,1.849539900000309,['c'],1,left,none,-99,-99,0.5,-99,0,none,34,19,Man,Right,
4,1,2,1.69965190000039,['n'],0,left,none,-99,-99,0.5,-99,0,none,34,19,Man,Right,
5,1,2,1.8672148000005109,['n'],0,left,none,-99,-99,0.5,-99,0,none,34,19,Man,Right,
6,1,2,1.9506485000001703,['c'],1,left,none,-99,-99,0.5,-99,0,none,34,19,Man,Right,
7,1,2,1.7513913999991928,['c'],1,left,none,-99,-99,0.5,-99,0,none,34,19,Man,Right,
8,1,2,0.8503921999999875,['n'],1,right,none,-99,-99,0.5,-99,0,none,34,19,Man,Right,
9,1,2,0.7342700000008335,['n'],1,right,none,-99,-99,0.5,-99,0,none,34,19,Man,Right,
10,1,2,1.3172719000012876,['c'],0,right,none,-99,-99,0.5,-99,0,none,34,19,Man,Right,
11,1,2,0.9166440999997576,['c'],1,left,none,-99,-99,0.5,-99,0,none,34,19,Man,Right,
12,1,2,0.8337209999990591,['n'],1,right,none,-99,-99,0.5,-99,0,none,34,19,Man,Right,
13,1,2,0.9839709000007133,['c'],1,left,none,-99,-99,0.5,-99,0,none,34,19,Man,Right,
14,1,2,1.2330724000003102,['n'],0,left,none,-99,-99,0.5,-99,0,none,34,19,Man,Right,
15,1,2,1.915724999998929,['n'],1,right,none,-99,-99,0.5,-99,0,none,34,19,Man,Right,
16,1,2,2.1498509000011836,['n'],1,right,none,-99,-99,0.5,-99,0,none,34,19,Man,Right,
17,1,2,0.7682213999996748,['n'],1,right,none,-99,-99,0.5,-99,0,none,34,19,Man,Right,
18,1,2,2.0346877000010863,['c'],0,right,none,-99,-99,0.5,-99,0,none,34,19,Man,Right,
19,1,2,1.684499400000277,['n'],0,left,none,-99,-99,0.5,-99,0,none,34,19,Man,Right,
20,1,2,1.850990400000228,['n'],0,left,none,-99,-99,0.5,-99,0,none,34,19,Man,Right,
21,1,2,2.6159784000010404,['n'],1,right,none,-99,-99,0.5,-99,0,none,34,19,Man,Right,
22,1,2,0.9169513000015286,['n'],1,right,none,-99,-99,0.5,-99,0,none,34,19,Man,Right,
23,1,2,1.1013538999995944,['c'],0,right,none,-99,-99,0.5,-99,0,none,34,19,Man,Right,
0,1,3,1.366652200000317,['n'],0,left,none,-99,-99,0.5,-99,0,none,34,19,Man,Right,
1,1,3,1.2667779000003065,['n'],1,right,none,-99,-99,0.5,-99,0,none,34,19,Man,Right,
2,1,3,0.7827323000001343,['n'],1,right,none,-99,-99,0.5,-99,0,none,34,19,Man,Right,
3,1,3,1.2826521999995748,['c'],0,right,none,-99,-99,0.5,-99,0,none,34,19,Man,Right,
4,1,3,1.517079700000977,['n'],1,right,none,-99,-99,0.5,-99,0,none,34,19,Man,Right,
5,1,3,0.5511514999998326,['c'],1,left,none,-99,-99,0.5,-99,0,none,34,19,Man,Right,
6,1,3,0.8828960000009829,['n'],1,right,none,-99,-99,0.5,-99,0,none,34,19,Man,Right,
7,1,3,0.9668562999995629,['n'],1,right,none,-99,-99,0.5,-99,0,none,34,19,Man,Right,
8,1,3,0.6177486000015051,['c'],1,left,none,-99,-99,0.5,-99,0,none,34,19,Man,Right,
9,1,3,0.9003759999995964,['c'],1,left,none,-99,-99,0.5,-99,0,none,34,19,Man,Right,
10,1,3,0.6156253999997716,['n'],1,right,none,-99,-99,0.5,-99,0,none,34,19,Man,Right,
11,1,3,0.5664015999991534,['c'],1,left,none,-99,-99,0.5,-99,0,none,34,19,Man,Right,
12,1,3,0.6682531999995263,['n'],0,left,none,-99,-99,0.5,-99,0,none,34,19,Man,Right,
13,1,3,0.6489808999995148,['c'],1,left,none,-99,-99,0.5,-99,0,none,34,19,Man,Right,
14,1,3,0.6653210999993462,['n'],1,right,none,-99,-99,0.5,-99,0,none,34,19,Man,Right,
15,1,3,0.9514239000000089,['n'],1,right,none,-99,-99,0.5,-99,0,none,34,19,Man,Right,
16,1,3,0.7514485000010609,['n'],1,right,none,-99,-99,0.5,-99,0,none,34,19,Man,Right,
17,1,3,0.56683300000077,['c'],1,left,none,-99,-99,0.5,-99,0,none,34,19,Man,Right,
18,1,3,0.7177830999989965,['c'],1,left,none,-99,-99,0.5,-99,0,none,34,19,Man,Right,
19,1,3,0.43269150000014633,['n'],0,left,none,-99,-99,0.5,-99,0,none,34,19,Man,Right,
20,1,3,0.7671884000010323,['n'],1,right,none,-99,-99,0.5,-99,0,none,34,19,Man,Right,
21,1,3,1.4491056999995635,['n'],0,left,none,-99,-99,0.5,-99,0,none,34,19,Man,Right,
22,1,3,1.216915799999697,['c'],1,left,none,-99,-99,0.5,-99,0,none,34,19,Man,Right,
23,1,3,0.6667360999999801,['n'],1,right,none,-99,-99,0.5,-99,0,none,34,19,Man,Right,
0,1,4,0.7993843000003835,['n'],1,right,none,-99,-99,0.5,-99,0,none,34,19,Man,Right,
1,1,4,0.6001651999995374,['n'],1,right,none,-99,-99,0.5,-99,0,none,34,19,Man,Right,
2,1,4,0.484952599999815,['n'],1,right,none,-99,-99,0.5,-99,0,none,34,19,Man,Right,
3,1,4,1.7346187999992253,['n'],1,right,none,-99,-99,0.5,-99,0,none,34,19,Man,Right,
4,1,4,1.4014493999984552,['n'],1,right,none,-99,-99,0.5,-99,0,none,34,19,Man,Right,
5,1,4,1.2008529000013368,['c'],0,right,none,-99,-99,0.5,-99,0,none,34,19,Man,Right,
6,1,4,0.866403399999399,['c'],1,left,none,-99,-99,0.5,-99,0,none,34,19,Man,Right,
7,1,4,0.5504228999998304,['c'],1,left,none,-99,-99,0.5,-99,0,none,34,19,Man,Right,
8,1,4,1.801245700000436,['c'],1,left,none,-99,-99,0.5,-99,0,none,34,19,Man,Right,
9,1,4,0.6005160000004253,['n'],1,right,none,-99,-99,0.5,-99,0,none,34,19,Man,Right,
10,1,4,0.5677484999996523,['c'],1,left,none,-99,-99,0.5,-99,0,none,34,19,Man,Right,
11,1,4,0.550395700000081,['n'],1,right,none,-99,-99,0.5,-99,0,none,34,19,Man,Right,
12,1,4,1.0513262000004033,['n'],0,left,none,-99,-99,0.5,-99,0,none,34,19,Man,Right,
13,1,4,0.6830494999994698,['n'],1,right,none,-99,-99,0.5,-99,0,none,34,19,Man,Right,
14,1,4,1.1847404000000097,['c'],0,right,none,-99,-99,0.5,-99,0,none,34,19,Man,Right,
15,1,4,2.351469899998847,['c'],1,left,none,-99,-99,0.5,-99,0,none,34,19,Man,Right,
16,1,4,0.5831887000003917,['n'],1,right,none,-99,-99,0.5,-99,0,none,34,19,Man,Right,
17,1,4,1.38447719999931,['n'],1,right,none,-99,-99,0.5,-99,0,none,34,19,Man,Right,
18,1,4,1.3508200000014767,['c'],1,left,none,-99,-99,0.5,-99,0,none,34,19,Man,Right,
19,1,4,0.8837017999994714,['c'],1,left,none,-99,-99,0.5,-99,0,none,34,19,Man,Right,
20,1,4,0.7666667000012239,['c'],1,left,none,-99,-99,0.5,-99,0,none,34,19,Man,Right,
21,1,4,0.8179569999992964,['n'],0,left,none,-99,-99,0.5,-99,0,none,34,19,Man,Right,
22,1,4,1.2664335000008577,['n'],0,left,none,-99,-99,0.5,-99,0,none,34,19,Man,Right,
23,1,4,2.1007134999999835,['c'],1,left,none,-99,-99,0.5,-99,0,none,34,19,Man,Right,
0,1,5,0.6846989999994548,['n'],1,right,none,-99,-99,0.5,-99,0,none,34,19,Man,Right,
1,1,5,0.7488012000012532,['c'],1,left,none,-99,-99,0.5,-99,0,none,34,19,Man,Right,
2,1,5,0.6341454000012163,['n'],1,right,none,-99,-99,0.5,-99,0,none,34,19,Man,Right,
3,1,5,1.2354798000014853,['c'],1,left,none,-99,-99,0.5,-99,0,none,34,19,Man,Right,
4,1,5,0.8486477999995259,['n'],1,right,none,-99,-99,0.5,-99,0,none,34,19,Man,Right,
5,1,5,1.7186977000001207,['n'],1,right,none,-99,-99,0.5,-99,0,none,34,19,Man,Right,
6,1,5,0.633075400000962,['n'],1,right,none,-99,-99,0.5,-99,0,none,34,19,Man,Right,
7,1,5,0.7680497000001196,['n'],1,right,none,-99,-99,0.5,-99,0,none,34,19,Man,Right,
8,1,5,0.7673859000005905,['c'],1,left,none,-99,-99,0.5,-99,0,none,34,19,Man,Right,
9,1,5,0.8846481000000495,['n'],0,left,none,-99,-99,0.5,-99,0,none,34,19,Man,Right,
10,1,5,1.2005203000007896,['n'],0,left,none,-99,-99,0.5,-99,0,none,34,19,Man,Right,
11,1,5,1.4187136999989889,['c'],1,left,none,-99,-99,0.5,-99,0,none,34,19,Man,Right,
12,1,5,1.6666807000001427,['c'],0,right,none,-99,-99,0.5,-99,0,none,34,19,Man,Right,
13,1,5,2.449843399999736,['c'],1,left,none,-99,-99,0.5,-99,0,none,34,19,Man,Right,
14,1,5,0.6833590000005643,['n'],1,right,none,-99,-99,0.5,-99,0,none,34,19,Man,Right,
15,1,5,0.7180563000001712,['c'],1,left,none,-99,-99,0.5,-99,0,none,34,19,Man,Right,
16,1,5,0.7501953999999387,['c'],1,left,none,-99,-99,0.5,-99,0,none,34,19,Man,Right,
17,1,5,0.6832524000001285,['n'],1,right,none,-99,-99,0.5,-99,0,none,34,19,Man,Right,
18,1,5,0.601360200000272,['n'],1,right,none,-99,-99,0.5,-99,0,none,34,19,Man,Right,
19,1,5,0.631965599999603,['c'],1,left,none,-99,-99,0.5,-99,0,none,34,19,Man,Right,
20,1,5,0.8350873999988835,['n'],1,right,none,-99,-99,0.5,-99,0,none,34,19,Man,Right,
21,1,5,2.1495457000000897,['n'],0,left,none,-99,-99,0.5,-99,0,none,34,19,Man,Right,
22,1,5,0.7993030999987241,['n'],1,right,none,-99,-99,0.5,-99,0,none,34,19,Man,Right,
23,1,5,1.6320570000007137,['c'],1,left,none,-99,-99,0.5,-99,0,none,34,19,Man,Right,
0,1,6,0.7510182999994868,['n'],1,right,none,-99,-99,0.5,-99,0,none,34,19,Man,Right,
1,1,6,0.8172873000003165,['c'],1,left,none,-99,-99,0.5,-99,0,none,34,19,Man,Right,
2,1,6,0.5838994000005187,['n'],1,right,none,-99,-99,0.5,-99,0,none,34,19,Man,Right,
3,1,6,1.784882199999629,['c'],1,left,none,-99,-99,0.5,-99,0,none,34,19,Man,Right,
4,1,6,0.6178999999992811,['n'],1,right,none,-99,-99,0.5,-99,0,none,34,19,Man,Right,
5,1,6,0.5676446999987093,['c'],1,left,none,-99,-99,0.5,-99,0,none,34,19,Man,Right,
6,1,6,0.7678854000005231,['c'],1,left,none,-99,-99,0.5,-99,0,none,34,19,Man,Right,
7,1,6,0.8350057000006927,['n'],1,right,none,-99,-99,0.5,-99,0,none,34,19,Man,Right,
8,1,6,0.9336379999986093,['c'],1,left,none,-99,-99,0.5,-99,0,none,34,19,Man,Right,
9,1,6,1.4505093000007037,['n'],0,left,none,-99,-99,0.5,-99,0,none,34,19,Man,Right,
10,1,6,1.5159898999991128,['n'],1,right,none,-99,-99,0.5,-99,0,none,34,19,Man,Right,
11,1,6,1.232890999999654,['n'],1,right,none,-99,-99,0.5,-99,0,none,34,19,Man,Right,
12,1,6,1.2334692999993422,['n'],1,right,none,-99,-99,0.5,-99,0,none,34,19,Man,Right,
13,1,6,0.8659539000000223,['c'],1,left,none,-99,-99,0.5,-99,0,none,34,19,Man,Right,
14,1,6,0.8174422000010964,['n'],1,right,none,-99,-99,0.5,-99,0,none,34,19,Man,Right,
15,1,6,0.7339345999989746,['n'],1,right,none,-99,-99,0.5,-99,0,none,34,19,Man,Right,
16,1,6,0.8504133000005822,['n'],1,right,none,-99,-99,0.5,-99,0,none,34,19,Man,Right,
17,1,6,1.3345861999987392,['n'],0,left,none,-99,-99,0.5,-99,0,none,34,19,Man,Right,
18,1,6,0.6163723000008758,['c'],1,left,none,-99,-99,0.5,-99,0,none,34,19,Man,Right,
19,1,6,0.9336705999994592,['n'],0,left,none,-99,-99,0.5,-99,0,none,34,19,Man,Right,
20,1,6,1.734445300000516,['n'],0,left,none,-99,-99,0.5,-99,0,none,34,19,Man,Right,
21,1,6,1.700125899998966,['n'],0,left,none,-99,-99,0.5,-99,0,none,34,19,Man,Right,
22,1,6,2.4171415000000707,['c'],0,right,none,-99,-99,0.5,-99,0,none,34,19,Man,Right,
23,1,6,1.4510026999996626,['n'],1,right,none,-99,-99,0.5,-99,0,none,34,19,Man,Right,
0,1,7,2.866814799999702,['c'],1,left,none,-99,-99,0.5,-99,0,none,34,19,Man,Right,
1,1,7,1.1005052000000433,['n'],1,right,none,-99,-99,0.5,-99,0,none,34,19,Man,Right,
2,1,7,1.1998112000001129,['c'],0,right,none,-99,-99,0.5,-99,0,none,34,19,Man,Right,
3,1,7,2.0172483999995166,['n'],0,left,none,-99,-99,0.5,-99,0,none,34,19,Man,Right,
4,1,7,2.451434499998868,['n'],1,right,none,-99,-99,0.5,-99,0,none,34,19,Man,Right,
5,1,7,1.0015954000009515,['n'],0,left,none,-99,-99,0.5,-99,0,none,34,19,Man,Right,
6,1,7,2.6188708000008774,['n'],1,right,none,-99,-99,0.5,-99,0,none,34,19,Man,Right,
7,1,7,1.4013347000000067,['c'],1,left,none,-99,-99,0.5,-99,0,none,34,19,Man,Right,
8,1,7,0.6511726999997336,['c'],1,left,none,-99,-99,0.5,-99,0,none,34,19,Man,Right,
9,1,7,0.6012711000003037,['c'],1,left,none,-99,-99,0.5,-99,0,none,34,19,Man,Right,
10,1,7,1.0339462000010826,['c'],1,left,none,-99,-99,0.5,-99,0,none,34,19,Man,Right,
11,1,7,0.5670463000005839,['c'],0,right,none,-99,-99,0.5,-99,0,none,34,19,Man,Right,
12,1,7,0.6845448000003671,['n'],1,right,none,-99,-99,0.5,-99,0,none,34,19,Man,Right,
13,1,7,0.5162357999997766,['n'],1,right,none,-99,-99,0.5,-99,0,none,34,19,Man,Right,
14,1,7,0.3507994999999937,['n'],0,left,none,-99,-99,0.5,-99,0,none,34,19,Man,Right,
15,1,7,0.6840042999992875,['n'],1,right,none,-99,-99,0.5,-99,0,none,34,19,Man,Right,
16,1,7,0.6338109000007535,['n'],1,right,none,-99,-99,0.5,-99,0,none,34,19,Man,Right,
17,1,7,0.6180669999994279,['c'],1,left,none,-99,-99,0.5,-99,0,none,34,19,Man,Right,
18,1,7,0.8668746000003011,['n'],1,right,none,-99,-99,0.5,-99,0,none,34,19,Man,Right,
19,1,7,2.2170053999998345,['n'],1,right,none,-99,-99,0.5,-99,0,none,34,19,Man,Right,
20,1,7,0.5495307000001048,['c'],1,left,none,-99,-99,0.5,-99,0,none,34,19,Man,Right,
21,1,7,1.3675438000009308,['n'],0,left,none,-99,-99,0.5,-99,0,none,34,19,Man,Right,
22,1,7,1.5998595000000932,['n'],1,right,none,-99,-99,0.5,-99,0,none,34,19,Man,Right,
23,1,7,0.7169948999999178,['c'],1,left,none,-99,-99,0.5,-99,0,none,34,19,Man,Right,
0,1,8,1.983139800000572,['n'],1,right,none,-99,-99,0.5,-99,0,none,34,19,Man,Right,
1,1,8,1.1836686999995436,['c'],1,left,none,-99,-99,0.5,-99,0,none,34,19,Man,Right,
2,1,8,0.5519100000001345,['n'],0,left,none,-99,-99,0.5,-99,0,none,34,19,Man,Right,
3,1,8,1.684591500001261,['c'],1,left,none,-99,-99,0.5,-99,0,none,34,19,Man,Right,
4,1,8,0.7838385000013659,['n'],1,right,none,-99,-99,0.5,-99,0,none,34,19,Man,Right,
5,1,8,1.0845447000010608,['c'],0,right,none,-99,-99,0.5,-99,0,none,34,19,Man,Right,
6,1,8,2.2337180000013177,['c'],1,left,none,-99,-99,0.5,-99,0,none,34,19,Man,Right,
7,1,8,0.5173720000002504,['n'],1,right,none,-99,-99,0.5,-99,0,none,34,19,Man,Right,
8,1,8,1.2818647999993118,['c'],1,left,none,-99,-99,0.5,-99,0,none,34,19,Man,Right,
9,1,8,0.634611199999199,['n'],1,right,none,-99,-99,0.5,-99,0,none,34,19,Man,Right,
10,1,8,0.7681487999998353,['n'],1,right,none,-99,-99,0.5,-99,0,none,34,19,Man,Right,
11,1,8,1.3677962000001571,['n'],1,right,none,-99,-99,0.5,-99,0,none,34,19,Man,Right,
12,1,8,0.7340824999992037,['n'],0,left,none,-99,-99,0.5,-99,0,none,34,19,Man,Right,
13,1,8,1.5018044999997073,['n'],0,left,none,-99,-99,0.5,-99,0,none,34,19,Man,Right,
14,1,8,1.7179172999985894,['c'],1,left,none,-99,-99,0.5,-99,0,none,34,19,Man,Right,
15,1,8,1.3328058000006422,['c'],1,left,none,-99,-99,0.5,-99,0,none,34,19,Man,Right,
16,1,8,1.100439899999401,['c'],1,left,none,-99,-99,0.5,-99,0,none,34,19,Man,Right,
17,1,8,0.6674695999990945,['n'],1,right,none,-99,-99,0.5,-99,0,none,34,19,Man,Right,
18,1,8,1.300154399999883,['c'],1,left,none,-99,-99,0.5,-99,0,none,34,19,Man,Right,
19,1,8,0.7671776999995927,['n'],1,right,none,-99,-99,0.5,-99,0,none,34,19,Man,Right,
20,1,8,0.8014672999997856,['n'],1,right,none,-99,-99,0.5,-99,0,none,34,19,Man,Right,
21,1,8,0.5661184000000503,['n'],1,right,none,-99,-99,0.5,-99,0,none,34,19,Man,Right,
22,1,8,0.6674511000001075,['n'],1,right,none,-99,-99,0.5,-99,0,none,34,19,Man,Right,
23,1,8,0.6689267000001564,['c'],1,left,none,-99,-99,0.5,-99,0,none,34,19,Man,Right,
0,1,9,2.4676789000004646,['n'],1,right,none,-99,-99,0.5,-99,0,none,34,19,Man,Right,
1,1,9,1.4179278999999951,['n'],0,left,none,-99,-99,0.5,-99,0,none,34,19,Man,Right,
2,1,9,0.8847368999995524,['c'],1,left,none,-99,-99,0.5,-99,0,none,34,19,Man,Right,
3,1,9,1.499945800000205,['c'],0,right,none,-99,-99,0.5,-99,0,none,34,19,Man,Right,
4,1,9,0.6500737000005756,['n'],1,right,none,-99,-99,0.5,-99,0,none,34,19,Man,Right,
5,1,9,0.5672188999997161,['c'],1,left,none,-99,-99,0.5,-99,0,none,34,19,Man,Right,
6,1,9,1.2828300000001036,['n'],0,left,none,-99,-99,0.5,-99,0,none,34,19,Man,Right,
7,1,9,0.7178813999998965,['n'],1,right,none,-99,-99,0.5,-99,0,none,34,19,Man,Right,
8,1,9,0.8344190000007075,['c'],1,left,none,-99,-99,0.5,-99,0,none,34,19,Man,Right,
9,1,9,0.5834387000013521,['n'],1,right,none,-99,-99,0.5,-99,0,none,34,19,Man,Right,
10,1,9,1.1841676000003645,['c'],1,left,none,-99,-99,0.5,-99,0,none,34,19,Man,Right,
11,1,9,0.5513567999987572,['n'],1,right,none,-99,-99,0.5,-99,0,none,34,19,Man,Right,
12,1,9,1.2338987999992241,['n'],0,left,none,-99,-99,0.5,-99,0,none,34,19,Man,Right,
13,1,9,1.3834501000001183,['c'],1,left,none,-99,-99,0.5,-99,0,none,34,19,Man,Right,
14,1,9,0.6007055999998556,['n'],1,right,none,-99,-99,0.5,-99,0,none,34,19,Man,Right,
15,1,9,1.3328633000000991,['n'],1,right,none,-99,-99,0.5,-99,0,none,34,19,Man,Right,
16,1,9,0.5833615999999893,['c'],1,left,none,-99,-99,0.5,-99,0,none,34,19,Man,Right,
17,1,9,0.698645000000397,['n'],1,right,none,-99,-99,0.5,-99,0,none,34,19,Man,Right,
18,1,9,1.1682465000012598,['c'],1,left,none,-99,-99,0.5,-99,0,none,34,19,Man,Right,
19,1,9,1.083648699999685,['c'],1,left,none,-99,-99,0.5,-99,0,none,34,19,Man,Right,
20,1,9,0.6832923000001756,['n'],1,right,none,-99,-99,0.5,-99,0,none,34,19,Man,Right,
21,1,9,0.6517907999987074,['c'],1,left,none,-99,-99,0.5,-99,0,none,34,19,Man,Right,
22,1,9,0.6856174000004103,['n'],1,right,none,-99,-99,0.5,-99,0,none,34,19,Man,Right,
23,1,9,1.0501872999993793,['c'],0,right,none,-99,-99,0.5,-99,0,none,34,19,Man,Right,
0,1,10,1.9013730000006035,['n'],1,right,none,-99,-99,0.5,-99,0,none,34,19,Man,Right,
1,1,10,0.5342380000001867,['c'],1,left,none,-99,-99,0.5,-99,0,none,34,19,Man,Right,
2,1,10,2.282702000000427,['c'],1,left,none,-99,-99,0.5,-99,0,none,34,19,Man,Right,
3,1,10,0.7016629000008834,['n'],1,right,none,-99,-99,0.5,-99,0,none,34,19,Man,Right,
4,1,10,0.7351826000012807,['c'],1,left,none,-99,-99,0.5,-99,0,none,34,19,Man,Right,
5,1,10,0.59890919999998,['n'],1,right,none,-99,-99,0.5,-99,0,none,34,19,Man,Right,
6,1,10,0.8165202000000136,['c'],0,right,none,-99,-99,0.5,-99,0,none,34,19,Man,Right,
7,1,10,1.484668999999485,['n'],0,left,none,-99,-99,0.5,-99,0,none,34,19,Man,Right,
8,1,10,1.1170015999996394,['c'],0,right,none,-99,-99,0.5,-99,0,none,34,19,Man,Right,
9,1,10,0.7827601999997569,['n'],1,right,none,-99,-99,0.5,-99,0,none,34,19,Man,Right,
10,1,10,1.150397299999895,['n'],1,right,none,-99,-99,0.5,-99,0,none,34,19,Man,Right,
11,1,10,1.2668731000012485,['c'],1,left,none,-99,-99,0.5,-99,0,none,34,19,Man,Right,
12,1,10,0.6012934999998834,['c'],1,left,none,-99,-99,0.5,-99,0,none,34,19,Man,Right,
13,1,10,0.9342549000011786,['n'],1,right,none,-99,-99,0.5,-99,0,none,34,19,Man,Right,
14,1,10,0.44883779999872786,['c'],1,left,none,-99,-99,0.5,-99,0,none,34,19,Man,Right,
15,1,10,0.7350485000006302,['n'],1,right,none,-99,-99,0.5,-99,0,none,34,19,Man,Right,
16,1,10,1.0340259999993577,['n'],1,right,none,-99,-99,0.5,-99,0,none,34,19,Man,Right,
17,1,10,0.9152945999994699,['c'],1,left,none,-99,-99,0.5,-99,0,none,34,19,Man,Right,
18,1,10,0.7518600000003062,['n'],1,right,none,-99,-99,0.5,-99,0,none,34,19,Man,Right,
19,1,10,0.883363000000827,['c'],1,left,none,-99,-99,0.5,-99,0,none,34,19,Man,Right,
20,1,10,1.2340314999983093,['n'],0,left,none,-99,-99,0.5,-99,0,none,34,19,Man,Right,
21,1,10,2.267881899999338,['c'],1,left,none,-99,-99,0.5,-99,0,none,34,19,Man,Right,
22,1,10,0.7848357999992004,['c'],1,left,none,-99,-99,0.5,-99,0,none,34,19,Man,Right,
23,1,10,0.5842622000000119,['n'],1,right,none,-99,-99,0.5,-99,0,none,34,19,Man,Right,
0,1,11,1.6011347000003298,['n'],1,right,none,-99,-99,0.5,-99,0,none,34,19,Man,Right,
1,1,11,0.5165385999989667,['c'],1,left,none,-99,-99,0.5,-99,0,none,34,19,Man,Right,
2,1,11,0.5006807999998273,['n'],1,right,none,-99,-99,0.5,-99,0,none,34,19,Man,Right,
3,1,11,1.133183600000848,['c'],1,left,none,-99,-99,0.5,-99,0,none,34,19,Man,Right,
4,1,11,0.6167769999992743,['c'],1,left,none,-99,-99,0.5,-99,0,none,34,19,Man,Right,
5,1,11,0.5506120999998529,['n'],1,right,none,-99,-99,0.5,-99,0,none,34,19,Man,Right,
6,1,11,0.7354179000012664,['c'],1,left,none,-99,-99,0.5,-99,0,none,34,19,Man,Right,
7,1,11,1.533970299999055,['c'],1,left,none,-99,-99,0.5,-99,0,none,34,19,Man,Right,
8,1,11,0.6501630999991903,['c'],1,left,none,-99,-99,0.5,-99,0,none,34,19,Man,Right,
9,1,11,0.8505822999995871,['c'],1,left,none,-99,-99,0.5,-99,0,none,34,19,Man,Right,
10,1,11,0.6509614000005968,['c'],1,left,none,-99,-99,0.5,-99,0,none,34,19,Man,Right,
11,1,11,0.5503361000010045,['n'],1,right,none,-99,-99,0.5,-99,0,none,34,19,Man,Right,
12,1,11,0.5842281999994157,['c'],1,left,none,-99,-99,0.5,-99,0,none,34,19,Man,Right,
13,1,11,0.5347517000009248,['n'],1,right,none,-99,-99,0.5,-99,0,none,34,19,Man,Right,
14,1,11,0.6845623000008345,['n'],1,right,none,-99,-99,0.5,-99,0,none,34,19,Man,Right,
15,1,11,0.6165271999998367,['n'],1,right,none,-99,-99,0.5,-99,0,none,34,19,Man,Right,
16,1,11,0.882346399999733,['c'],0,right,none,-99,-99,0.5,-99,0,none,34,19,Man,Right,
17,1,11,0.7321502999984659,['n'],1,right,none,-99,-99,0.5,-99,0,none,34,19,Man,Right,
18,1,11,0.8497950000000856,['c'],1,left,none,-99,-99,0.5,-99,0,none,34,19,Man,Right,
19,1,11,0.5824267000007239,['n'],1,right,none,-99,-99,0.5,-99,0,none,34,19,Man,Right,
20,1,11,0.5998465000011493,['n'],0,left,none,-99,-99,0.5,-99,0,none,34,19,Man,Right,
21,1,11,0.9677897999990819,['n'],1,right,none,-99,-99,0.5,-99,0,none,34,19,Man,Right,
22,1,11,0.6178061999999045,['c'],1,left,none,-99,-99,0.5,-99,0,none,34,19,Man,Right,
23,1,11,1.2503400999994483,['n'],1,right,none,-99,-99,0.5,-99,0,none,34,19,Man,Right,
0,2,1,5.015297699999792,x,-99,right,none,-99,-99,0.2,-99,1,none,34,19,Man,Right,
1,2,1,0.7016810000004625,['c'],0,right,none,-99,-99,0.4,-99,0,none,34,19,Man,Right,
2,2,1,2.2157463999992615,['n'],0,left,none,-99,-99,0.4,-99,0,none,34,19,Man,Right,
3,2,1,2.966098499999134,['c'],0,right,none,-99,-99,0.2,-99,0,none,34,19,Man,Right,
4,2,1,3.667805300001419,['c'],1,left,none,-99,-99,0.1,-99,0,none,34,19,Man,Right,
5,2,1,2.2826062999993155,['c'],1,left,none,-99,-99,0.4,-99,0,none,34,19,Man,Right,
6,2,1,1.0502077999990433,['c'],1,left,none,-99,-99,0.1,-99,0,none,34,19,Man,Right,
7,2,1,0.8329893999998603,['c'],0,right,none,-99,-99,0.4,-99,0,none,34,19,Man,Right,
8,2,1,0.6006794000004447,['n'],0,left,none,-99,-99,0.4,-99,0,none,34,19,Man,Right,
9,2,1,2.316396399999576,['c'],1,left,none,-99,-99,0.2,-99,0,none,34,19,Man,Right,
10,2,1,1.4338862000004156,['n'],1,right,none,-99,-99,0.1,-99,0,none,34,19,Man,Right,
11,2,1,0.8496449000012944,['n'],1,right,none,-99,-99,0.2,-99,0,none,34,19,Man,Right,
12,2,1,0.966712200000984,['n'],0,left,none,-99,-99,0.4,-99,0,none,34,19,Man,Right,
13,2,1,0.7168870999994397,['c'],0,right,none,-99,-99,0.2,-99,0,none,34,19,Man,Right,
14,2,1,0.7847827999994479,['c'],1,left,none,-99,-99,0.4,-99,0,none,34,19,Man,Right,
15,2,1,1.4012530999989394,['n'],1,right,none,-99,-99,0.1,-99,0,none,34,19,Man,Right,
16,2,1,2.4511566999990464,['n'],0,left,none,-99,-99,0.1,-99,0,none,34,19,Man,Right,
17,2,1,1.4005732000005082,['n'],0,left,none,-99,-99,0.2,-99,0,none,34,19,Man,Right,
18,2,1,1.517787299999327,['c'],1,left,none,-99,-99,0.1,-99,0,none,34,19,Man,Right,
19,2,1,1.350395599998592,['c'],1,left,none,-99,-99,0.2,-99,0,none,34,19,Man,Right,
20,2,1,1.1680640000013227,['c'],0,right,none,-99,-99,0.1,-99,0,none,34,19,Man,Right,
21,2,1,0.7503551000008883,['c'],0,right,none,-99,-99,0.2,-99,0,none,34,19,Man,Right,
22,2,1,1.832279300000664,['n'],1,right,none,-99,-99,0.1,-99,0,none,34,19,Man,Right,
23,2,1,1.7332034000010026,['c'],0,right,none,-99,-99,0.4,-99,0,none,34,19,Man,Right,
0,2,2,0.8847955999990518,['n'],1,right,none,-99,-99,0.2,-99,0,none,34,19,Man,Right,
1,2,2,0.5008268000001408,['c'],1,left,none,-99,-99,0.4,-99,0,none,34,19,Man,Right,
2,2,2,0.7829328000007081,['n'],1,right,none,-99,-99,0.4,-99,0,none,34,19,Man,Right,
3,2,2,0.8499370999998064,['c'],1,left,none,-99,-99,0.2,-99,0,none,34,19,Man,Right,
4,2,2,0.9504149999993388,['c'],0,right,none,-99,-99,0.1,-99,0,none,34,19,Man,Right,
5,2,2,1.7315880000005563,['n'],1,right,none,-99,-99,0.4,-99,0,none,34,19,Man,Right,
6,2,2,0.568525699998645,['c'],0,right,none,-99,-99,0.1,-99,0,none,34,19,Man,Right,
7,2,2,0.534514400000262,['c'],1,left,none,-99,-99,0.4,-99,0,none,34,19,Man,Right,
8,2,2,0.5512767000000167,['c'],1,left,none,-99,-99,0.4,-99,0,none,34,19,Man,Right,
9,2,2,0.6499029000005976,['n'],1,right,none,-99,-99,0.2,-99,0,none,34,19,Man,Right,
10,2,2,1.2336776000011014,['n'],0,left,none,-99,-99,0.1,-99,0,none,34,19,Man,Right,
11,2,2,0.8851852000007057,['c'],1,left,none,-99,-99,0.2,-99,0,none,34,19,Man,Right,
12,2,2,0.5675692000004346,['c'],1,left,none,-99,-99,0.4,-99,0,none,34,19,Man,Right,
13,2,2,0.9178319000002375,['n'],1,right,none,-99,-99,0.2,-99,0,none,34,19,Man,Right,
14,2,2,0.884489100000792,['n'],1,right,none,-99,-99,0.4,-99,0,none,34,19,Man,Right,
15,2,2,0.8006550000009156,['n'],1,right,none,-99,-99,0.1,-99,0,none,34,19,Man,Right,
16,2,2,0.7167362000000139,['c'],1,left,none,-99,-99,0.1,-99,0,none,34,19,Man,Right,
17,2,2,2.783108900001025,['c'],1,left,none,-99,-99,0.2,-99,0,none,34,19,Man,Right,
18,2,2,1.0652264000000287,['n'],0,left,none,-99,-99,0.1,-99,0,none,34,19,Man,Right,
19,2,2,1.384679499999038,['n'],1,right,none,-99,-99,0.2,-99,0,none,34,19,Man,Right,
20,2,2,1.9334681000000273,['c'],1,left,none,-99,-99,0.1,-99,0,none,34,19,Man,Right,
21,2,2,1.201186800000869,['n'],0,left,none,-99,-99,0.2,-99,0,none,34,19,Man,Right,
22,2,2,0.6489579000008234,['c'],0,right,none,-99,-99,0.1,-99,0,none,34,19,Man,Right,
23,2,2,1.0660697999992408,['n'],1,right,none,-99,-99,0.4,-99,0,none,34,19,Man,Right,
0,3,1,3.5335900999998557,['c'],1,left,['u'],0,2.8979367000010825,0.1,0,0,none,34,19,Man,Right,
1,3,1,4.967333999999028,['n'],1,right,['u'],0,2.4382390000009764,0.2,0,0,none,34,19,Man,Right,
2,3,1,3.067962199998874,['c'],1,left,['e'],1,1.1208913999998913,0.1,1,0,none,34,19,Man,Right,
3,3,1,0.9344172000000981,['n'],1,right,['e'],1,0.7094049000006635,0.2,1,0,none,34,19,Man,Right,
4,3,1,1.2177358000008098,['n'],1,right,['e'],1,1.630527199999051,0.4,1,0,none,34,19,Man,Right,
5,3,1,3.9832808999999543,['n'],1,right,['u'],0,1.0376219999998284,0.4,0,0,none,34,19,Man,Right,
6,3,1,4.200582499999655,['n'],1,right,['u'],0,0.9697792999995727,0.1,0,0,none,34,19,Man,Right,
7,3,1,3.084400400000959,['c'],1,left,['e'],1,0.8142754000000423,0.1,1,0,none,34,19,Man,Right,
8,3,1,1.0011572999992495,['n'],1,right,['u'],0,0.7558978000015486,0.1,0,0,none,34,19,Man,Right,
9,3,1,5.000610200000665,x,-99,right,none,-99,-99,0.4,-99,1,none,34,19,Man,Right,
10,3,1,1.4684675999997125,['n'],1,right,['u'],0,1.1763814999994793,0.2,0,0,none,34,19,Man,Right,
11,3,1,2.6690781000015704,['c'],1,left,['e'],1,0.3815685999998095,0.4,1,0,none,34,19,Man,Right,
12,3,1,1.7334558999991714,['n'],0,left,['u'],0,0.44732250000015483,0.4,1,0,none,34,19,Man,Right,
13,3,1,4.133306399999128,['c'],0,right,['e'],1,0.8065544000000955,0.2,0,0,none,34,19,Man,Right,
14,3,1,3.9833376000005956,['n'],0,left,['u'],0,0.9496278999995411,0.2,1,0,none,34,19,Man,Right,
15,3,1,3.8178094000013516,['n'],1,right,['u'],0,0.7894771999999648,0.1,0,0,none,34,19,Man,Right,
16,3,1,4.751200300001074,['n'],0,left,['e'],1,0.9105429999999615,0.1,0,0,none,34,19,Man,Right,
17,3,1,3.315836300000228,['c'],0,right,['u'],0,2.1343486000005214,0.2,1,0,none,34,19,Man,Right,
18,3,1,0.9498249999996915,['c'],1,left,['u'],0,1.7842624000004434,0.4,0,0,none,34,19,Man,Right,
19,3,1,1.1829557000000932,['c'],1,left,['e'],1,0.4646195000004809,0.2,1,0,none,34,19,Man,Right,
20,3,1,4.83466270000099,['n'],0,left,['e'],1,0.8256731999990734,0.4,0,0,none,34,19,Man,Right,
21,3,1,1.1515799999997398,['c'],1,left,['e'],1,0.4414883999997983,0.2,1,0,none,34,19,Man,Right,
22,3,1,5.016084700000647,x,-99,left,none,-99,-99,0.1,-99,1,none,34,19,Man,Right,
23,3,1,1.000815600000351,['n'],1,right,['e'],1,0.4283413000011933,0.4,1,0,none,34,19,Man,Right,
0,4,1,5.015661200000977,x,-99,left,none,-99,-99,0.2,-99,1,AccFast,34,19,Man,Right,
1,4,1,1.8483171000007133,['c'],0,right,['e'],1,0.8027399000002333,0.1,0,0,AccFast,34,19,Man,Right,
2,4,1,3.6840517000000546,['n'],0,left,['u'],0,0.8173356999996031,0.4,1,0,AccFast,34,19,Man,Right,
3,4,1,2.9008121999995637,['c'],0,right,['u'],0,1.206863900000826,0.2,1,0,AccFast,34,19,Man,Right,
4,4,1,5.016673200001605,x,-99,left,none,-99,-99,0.4,-99,1,AccFast,34,19,Man,Right,
5,4,1,2.034206299998914,['c'],1,left,['u'],0,1.026926699998512,0.1,0,0,AccFast,34,19,Man,Right,
6,4,1,1.033644600000116,['c'],1,left,['e'],1,0.6026364999997895,0.4,1,0,AccFast,34,19,Man,Right,
7,4,1,2.9497702999997273,['c'],1,left,['e'],1,0.623299799999586,0.1,1,0,AccFast,34,19,Man,Right,
8,4,1,2.7828823999989254,['c'],1,left,['u'],0,0.6982903999996779,0.1,0,0,AccFast,34,19,Man,Right,
9,4,1,3.1339642999992066,['n'],1,right,['e'],1,1.1147176999984367,0.1,1,0,AccFast,34,19,Man,Right,
10,4,1,3.2823759999992035,['c'],1,left,['u'],0,1.0145506000008027,0.2,0,0,AccFast,34,19,Man,Right,
11,4,1,3.434887199999139,['c'],1,left,['u'],0,0.6937598999993497,0.2,0,0,AccFast,34,19,Man,Right,
12,4,1,1.5517990999996982,['n'],1,right,['u'],0,0.9828551999999036,0.4,0,0,AccFast,34,19,Man,Right,
13,4,1,3.5998764999985724,['c'],0,right,['u'],0,0.8833859999995184,0.2,1,0,AccFast,34,19,Man,Right,
14,4,1,2.6833985000012035,['c'],1,left,['e'],1,0.7177925000014511,0.1,1,0,AccFast,34,19,Man,Right,
15,4,1,3.1679944999996223,['n'],1,right,['e'],1,0.789091600001484,0.2,1,0,AccFast,34,19,Man,Right,
16,4,1,2.218027200000506,['c'],1,left,['e'],1,1.167339700001321,0.4,1,0,AccFast,34,19,Man,Right,
17,4,1,2.700631699999576,['n'],0,left,['e'],1,0.7031976000016584,0.1,0,0,AccFast,34,19,Man,Right,
18,4,1,4.850613700000395,['c'],1,left,['e'],1,0.8598767000003136,0.4,1,0,AccFast,34,19,Man,Right,
19,4,1,4.0843387999993865,['n'],0,left,['u'],0,0.5140851999985898,0.2,1,0,AccFast,34,19,Man,Right,
20,4,1,2.5009002999995573,['n'],1,right,['e'],1,0.4997126999987813,0.4,1,0,AccFast,34,19,Man,Right,
21,4,1,2.26645070000086,['n'],1,right,['e'],1,0.5435419000004913,0.4,1,0,AccFast,34,19,Man,Right,
22,4,1,5.016017100000681,x,-99,right,none,-99,-99,0.4,-99,1,AccFast,34,19,Man,Right,
23,4,1,2.334283099999084,['c'],0,right,['e'],1,7.688509999999951,0.2,0,0,AccFast,34,19,Man,Right,
24,4,1,2.351487600000837,['n'],0,left,['e'],1,0.9153322000001936,0.2,0,0,AccFast,34,19,Man,Right,
25,4,1,3.8678196000000753,['n'],0,left,['u'],0,0.8295956000001752,0.4,1,0,AccFast,34,19,Man,Right,
26,4,1,3.0996572000003653,['c'],0,right,['u'],0,0.9560317000014038,0.4,1,0,AccFast,34,19,Man,Right,
27,4,1,3.1659030000009807,['n'],0,left,['u'],0,0.6099556999997731,0.4,1,0,AccFast,34,19,Man,Right,
28,4,1,3.084388899998885,['n'],0,left,['u'],0,0.7117035999999644,0.1,1,0,AccFast,34,19,Man,Right,
29,4,1,2.1325479999995878,['n'],0,left,['u'],0,0.48154450000038196,0.1,1,0,AccFast,34,19,Man,Right,
30,4,1,2.93463840000004,['n'],1,right,['u'],0,0.355340600001,0.2,0,0,AccFast,34,19,Man,Right,
31,4,1,4.317854900000384,['n'],1,right,['u'],0,0.379258299999492,0.1,0,0,AccFast,34,19,Man,Right,
32,4,1,2.399728200000027,['c'],0,right,['e'],1,1.3821339000005537,0.2,0,0,AccFast,34,19,Man,Right,
33,4,1,3.1515336000011303,['n'],1,right,['u'],0,0.555020699999659,0.2,0,0,AccFast,34,19,Man,Right,
34,4,1,3.000665100000333,['c'],0,right,['u'],0,0.5839546000006521,0.1,1,0,AccFast,34,19,Man,Right,
35,4,1,3.3492666999991343,['n'],1,right,['u'],0,0.557906300000468,0.1,0,0,AccFast,34,19,Man,Right,
36,4,1,3.9848437999989983,['c'],1,left,['u'],0,0.48965559999851394,0.1,0,0,AccFast,34,19,Man,Right,
37,4,1,2.399419900000794,['n'],1,right,['u'],0,0.362106099999437,0.1,0,0,AccFast,34,19,Man,Right,
38,4,1,0.9521296000002621,['c'],1,left,['u'],0,0.35105789999943227,0.4,0,0,AccFast,34,19,Man,Right,
39,4,1,0.4840833999987808,['c'],1,left,['u'],0,0.3841145000005781,0.2,0,0,AccFast,34,19,Man,Right,
40,4,1,3.184037299999545,['n'],0,left,['u'],0,0.41162120000080904,0.1,1,0,AccFast,34,19,Man,Right,
41,4,1,1.7358022000007622,['c'],1,left,['e'],1,0.5440429999998742,0.4,1,0,AccFast,34,19,Man,Right,
42,4,1,2.1178909999998723,['c'],1,left,['e'],1,1.6498064000006707,0.4,1,0,AccFast,34,19,Man,Right,
43,4,1,0.9183361999985209,['n'],1,right,['e'],1,1.188611999999921,0.4,1,0,AccFast,34,19,Man,Right,
44,4,1,4.050256499998795,['n'],1,right,['u'],0,0.8221985999989556,0.2,0,0,AccFast,34,19,Man,Right,
45,4,1,3.149274499999592,['n'],1,right,['u'],0,0.8186322999990807,0.1,0,0,AccFast,34,19,Man,Right,
46,4,1,1.6173371999993833,['c'],1,left,['e'],1,0.6664915000001201,0.4,1,0,AccFast,34,19,Man,Right,
47,4,1,2.63304959999914,['c'],1,left,['u'],0,0.6497799999997369,0.1,0,0,AccFast,34,19,Man,Right,
48,4,1,3.516972800000076,['n'],1,right,['e'],1,0.7809375999986514,0.4,1,0,AccFast,34,19,Man,Right,
49,4,1,3.732224100000167,['n'],1,right,['u'],0,2.435876499999722,0.1,0,0,AccFast,34,19,Man,Right,
50,4,1,4.649805500001094,['c'],0,right,['u'],0,0.9708080000000336,0.1,1,0,AccFast,34,19,Man,Right,
51,4,1,3.4343450000014855,['n'],1,right,['e'],1,0.7805769999995391,0.4,1,0,AccFast,34,19,Man,Right,
52,4,1,2.882703600000241,['c'],1,left,['e'],1,1.2608208000001468,0.2,1,0,AccFast,34,19,Man,Right,
53,4,1,1.334982599999421,['n'],1,right,['e'],1,0.3434147000007215,0.2,1,0,AccFast,34,19,Man,Right,
54,4,1,3.5847143000009964,['n'],1,right,['e'],1,0.6451985999992758,0.2,1,0,AccFast,34,19,Man,Right,
55,4,1,2.617152500000884,['n'],1,right,['e'],1,0.7092721999997593,0.2,1,0,AccFast,34,19,Man,Right,
56,4,1,2.3679040999995777,['n'],1,right,['e'],1,0.4847472999990714,0.2,1,0,AccFast,34,19,Man,Right,
57,4,1,4.833919600001536,['c'],1,left,['e'],1,0.6987518000005366,0.2,1,0,AccFast,34,19,Man,Right,
58,4,1,4.167561700000078,['n'],0,left,['e'],1,0.7069866000001639,0.4,0,0,AccFast,34,19,Man,Right,
59,4,1,3.0348814999997558,['c'],0,right,['e'],1,0.6958966000001965,0.1,0,0,AccFast,34,19,Man,Right,
0,5,1,3.3346535000000586,['n'],1,right,['u'],0,1.4936231000010594,0.1,0,0,AccAcc,34,19,Man,Right,
1,5,1,5.016579500001171,x,-99,left,none,-99,-99,0.2,-99,1,AccAcc,34,19,Man,Right,
2,5,1,1.9832630999990215,['n'],1,right,['u'],0,1.3024268000008306,0.1,0,0,AccAcc,34,19,Man,Right,
3,5,1,3.383431800000835,['n'],1,right,['e'],1,0.510928599998806,0.2,1,0,AccAcc,34,19,Man,Right,
4,5,1,3.466940300000715,['c'],1,left,['e'],1,1.434310300001016,0.2,1,0,AccAcc,34,19,Man,Right,
5,5,1,1.3506985000003624,['n'],1,right,['e'],1,2.260737299999164,0.2,1,0,AccAcc,34,19,Man,Right,
6,5,1,1.5014226999992388,['n'],1,right,['e'],1,0.5130871999990632,0.1,1,0,AccAcc,34,19,Man,Right,
7,5,1,3.6331006000000343,['c'],0,right,['u'],0,1.014205999999831,0.2,1,0,AccAcc,34,19,Man,Right,
8,5,1,4.217337199999747,['c'],1,left,['u'],0,0.8552065000003495,0.1,0,0,AccAcc,34,19,Man,Right,
9,5,1,5.000218999999561,x,-99,right,none,-99,-99,0.4,-99,1,AccAcc,34,19,Man,Right,
10,5,1,1.3834389000003284,['c'],1,left,['u'],0,1.555048900001566,0.1,0,0,AccAcc,34,19,Man,Right,
11,5,1,0.8014067999993131,['c'],1,left,['e'],1,0.5676822999994329,0.2,1,0,AccAcc,34,19,Man,Right,
12,5,1,1.834625599998617,['n'],0,left,['u'],0,1.0656131000014284,0.2,1,0,AccAcc,34,19,Man,Right,
13,5,1,1.0011383999990358,['c'],1,left,['e'],1,0.5694060000005265,0.4,1,0,AccAcc,34,19,Man,Right,
14,5,1,3.1006221000006917,['c'],0,right,['u'],0,0.9210595000004105,0.1,1,0,AccAcc,34,19,Man,Right,
15,5,1,3.866808200000378,['c'],1,left,['u'],0,0.7489309000011417,0.1,0,0,AccAcc,34,19,Man,Right,
16,5,1,0.8512049000000843,['n'],1,right,['e'],1,0.646624699998938,0.4,1,0,AccAcc,34,19,Man,Right,
17,5,1,2.9830619000003935,['c'],1,left,['u'],0,0.7363270999994711,0.1,0,0,AccAcc,34,19,Man,Right,
18,5,1,2.0514222999991034,['n'],1,right,['e'],1,1.0348812000011094,0.4,1,0,AccAcc,34,19,Man,Right,
19,5,1,4.251135900000008,['c'],1,left,['u'],0,0.45799950000036915,0.1,0,0,AccAcc,34,19,Man,Right,
20,5,1,2.551425499999823,['c'],0,right,['u'],0,0.3563467000003584,0.1,1,0,AccAcc,34,19,Man,Right,
21,5,1,2.9846610999993572,['c'],1,left,['e'],1,1.0735050999992382,0.1,1,0,AccAcc,34,19,Man,Right,
22,5,1,2.8500621000002866,['n'],0,left,['u'],0,0.9522453000008682,0.1,1,0,AccAcc,34,19,Man,Right,
23,5,1,2.067459800000506,['n'],1,right,['e'],1,0.36932160000105796,0.4,1,0,AccAcc,34,19,Man,Right,
24,5,1,2.1844436999999743,['n'],1,right,['u'],0,0.3815248999999312,0.1,0,0,AccAcc,34,19,Man,Right,
25,5,1,2.750275200000033,['c'],1,left,['u'],0,0.979002500000206,0.4,0,0,AccAcc,34,19,Man,Right,
26,5,1,1.9180868000003102,['n'],1,right,['u'],0,0.6409590000002936,0.4,0,0,AccAcc,34,19,Man,Right,
27,5,1,3.7510767000003398,['c'],0,right,['e'],1,0.3323982999991131,0.1,0,0,AccAcc,34,19,Man,Right,
28,5,1,1.2338675999999396,['c'],1,left,['e'],1,0.3677762999996048,0.4,1,0,AccAcc,34,19,Man,Right,
29,5,1,1.3006482999990112,['n'],1,right,['e'],1,0.9998783000010008,0.4,1,0,AccAcc,34,19,Man,Right,
30,5,1,2.101196899999195,['c'],0,right,['u'],0,0.8059835999993084,0.2,1,0,AccAcc,34,19,Man,Right,
31,5,1,4.284694899999522,['c'],1,left,['e'],1,1.5012641999983316,0.1,1,0,AccAcc,34,19,Man,Right,
32,5,1,1.3344096000000718,['c'],1,left,['u'],0,0.3347095999997691,0.4,0,0,AccAcc,34,19,Man,Right,
33,5,1,2.3840180000006512,['c'],1,left,['u'],0,0.452362500000163,0.2,0,0,AccAcc,34,19,Man,Right,
34,5,1,3.249078599999848,['n'],1,right,['e'],1,0.7719111999995221,0.4,1,0,AccAcc,34,19,Man,Right,
35,5,1,1.5167998999986594,['n'],0,left,['u'],0,0.7622108000014123,0.2,1,0,AccAcc,34,19,Man,Right,
36,5,1,3.184207800000877,['n'],1,right,['u'],0,0.9100588000001153,0.2,0,0,AccAcc,34,19,Man,Right,
37,5,1,3.449858399999357,['c'],0,right,['e'],1,0.4512303999999858,0.4,0,0,AccAcc,34,19,Man,Right,
38,5,1,2.8502574999984063,['n'],0,left,['u'],0,0.6410319999995409,0.4,1,0,AccAcc,34,19,Man,Right,
39,5,1,3.635035400000561,['n'],1,right,['u'],0,1.1048716000004788,0.2,0,0,AccAcc,34,19,Man,Right,
40,5,1,2.8841591000000335,['c'],1,left,['e'],1,0.6361495999990439,0.2,1,0,AccAcc,34,19,Man,Right,
41,5,1,1.4681296999988263,['n'],1,right,['e'],1,0.6505175999991479,0.4,1,0,AccAcc,34,19,Man,Right,
42,5,1,3.4160527999993064,['c'],1,left,['u'],0,0.7229041999999026,0.4,0,0,AccAcc,34,19,Man,Right,
43,5,1,1.5344717000007222,['c'],1,left,['u'],0,1.2267428000013751,0.4,0,0,AccAcc,34,19,Man,Right,
44,5,1,3.566400399999111,['c'],0,right,['u'],0,0.34233669999957783,0.2,1,0,AccAcc,34,19,Man,Right,
45,5,1,3.0844324999998207,['n'],1,right,['u'],0,0.3436885999999504,0.4,0,0,AccAcc,34,19,Man,Right,
46,5,1,3.349011399999654,['c'],0,right,['u'],0,0.38359270000000834,0.2,1,0,AccAcc,34,19,Man,Right,
47,5,1,3.2001748999991833,['c'],1,left,['u'],0,0.37886280000020633,0.2,0,0,AccAcc,34,19,Man,Right,
48,5,1,3.0192535999995016,['c'],0,right,['u'],0,0.36503780000020924,0.1,1,0,AccAcc,34,19,Man,Right,
49,5,1,2.4496870999992097,['n'],1,right,['u'],0,0.9747898999994504,0.4,0,0,AccAcc,34,19,Man,Right,
50,5,1,3.617307599999549,['n'],0,left,['u'],0,1.6420392999989417,0.2,1,0,AccAcc,34,19,Man,Right,
51,5,1,2.9329588000000513,['n'],0,left,['u'],0,0.702562600001329,0.1,1,0,AccAcc,34,19,Man,Right,
52,5,1,2.4165053000015178,['c'],1,left,['u'],0,0.7963749000009557,0.2,0,0,AccAcc,34,19,Man,Right,
53,5,1,2.2001778000012564,['c'],0,right,['u'],0,0.8381960999995499,0.1,1,0,AccAcc,34,19,Man,Right,
54,5,1,2.284036600000036,['c'],1,left,['u'],0,0.40406480000092415,0.2,0,0,AccAcc,34,19,Man,Right,
55,5,1,5.016641099999106,x,-99,left,none,-99,-99,0.4,-99,1,AccAcc,34,19,Man,Right,
56,5,1,2.916928700000426,['n'],0,left,['u'],0,0.7166140000008454,0.1,1,0,AccAcc,34,19,Man,Right,
57,5,1,2.283795999999711,['c'],1,left,['u'],0,0.6302620000005845,0.2,0,0,AccAcc,34,19,Man,Right,
58,5,1,0.9189616999992722,['c'],0,right,['e'],1,1.4906289000009565,0.4,0,0,AccAcc,34,19,Man,Right,
59,5,1,0.4331712000002881,['n'],1,right,['u'],0,0.7523770000007062,0.1,0,0,AccAcc,34,19,Man,Right,
0,6,1,0.5161436999987927,['c'],0,right,['u'],0,1.2356528999989678,0.4,1,0,FastAcc,34,19,Man,Right,
1,6,1,2.401394500000606,['n'],1,right,['e'],1,0.39639419999912207,0.4,1,0,FastAcc,34,19,Man,Right,
2,6,1,1.901756100000057,['n'],1,right,['e'],1,1.2024576000003435,0.4,1,0,FastAcc,34,19,Man,Right,
3,6,1,2.284341900000072,['n'],1,right,['e'],1,0.7854102999990573,0.1,1,0,FastAcc,34,19,Man,Right,
4,6,1,3.6676989999996295,['n'],0,left,['u'],0,0.3619529000006878,0.1,1,0,FastAcc,34,19,Man,Right,
5,6,1,0.9835217999989254,['c'],1,left,['e'],1,0.5901635999998689,0.1,1,0,FastAcc,34,19,Man,Right,
6,6,1,2.816428000000087,['n'],1,right,['u'],0,0.6732795999996597,0.1,0,0,FastAcc,34,19,Man,Right,
7,6,1,0.467773300000772,['n'],0,left,['e'],1,0.38176819999898726,0.1,0,0,FastAcc,34,19,Man,Right,
8,6,1,0.8676367000007303,['c'],0,right,['u'],0,0.42189650000000256,0.2,1,0,FastAcc,34,19,Man,Right,
9,6,1,0.784497000000556,['c'],1,left,['u'],0,0.8321105000013631,0.4,0,0,FastAcc,34,19,Man,Right,
10,6,1,2.1515221999998175,['c'],1,left,['u'],0,0.4270799000005354,0.2,0,0,FastAcc,34,19,Man,Right,
11,6,1,1.0845255999993242,['n'],0,left,['e'],1,0.40183650000108173,0.4,0,0,FastAcc,34,19,Man,Right,
12,6,1,2.3176519999997254,['c'],1,left,['u'],0,0.5590797000004386,0.4,0,0,FastAcc,34,19,Man,Right,
13,6,1,0.8513305999986187,['n'],1,right,['e'],1,0.3774317000006704,0.1,1,0,FastAcc,34,19,Man,Right,
14,6,1,0.7846993999992264,['c'],0,right,['u'],0,1.029618999999002,0.2,1,0,FastAcc,34,19,Man,Right,
15,6,1,1.5841868999996223,['c'],0,right,['u'],0,0.6883507999991707,0.1,1,0,FastAcc,34,19,Man,Right,
16,6,1,2.1001614999986487,['n'],0,left,['e'],1,0.40390990000014426,0.2,0,0,FastAcc,34,19,Man,Right,
17,6,1,3.0506709000001138,['c'],1,left,['e'],1,0.6430608999999095,0.4,1,0,FastAcc,34,19,Man,Right,
18,6,1,1.3666470999996818,['n'],1,right,['u'],0,0.36526930000036373,0.2,0,0,FastAcc,34,19,Man,Right,
19,6,1,0.868311200001699,['c'],1,left,['u'],0,0.6062371999996685,0.2,0,0,FastAcc,34,19,Man,Right,
20,6,1,2.2663601000003837,['n'],0,left,['u'],0,0.7829545000004146,0.4,1,0,FastAcc,34,19,Man,Right,
21,6,1,0.7844458999989001,['c'],1,left,['e'],1,0.3615940999989107,0.1,1,0,FastAcc,34,19,Man,Right,
22,6,1,0.44997069999953965,['n'],1,right,['u'],0,0.5552365000003192,0.2,0,0,FastAcc,34,19,Man,Right,
23,6,1,0.4007958000001963,['n'],0,left,['u'],0,0.5194099000000278,0.4,1,0,FastAcc,34,19,Man,Right,
24,6,1,1.651237800000672,['n'],0,left,['e'],1,0.27496699999937846,0.1,0,0,FastAcc,34,19,Man,Right,
25,6,1,3.3677451999992627,['c'],0,right,['e'],1,0.6841243999988365,0.4,0,0,FastAcc,34,19,Man,Right,
26,6,1,1.3843746000002284,['n'],0,left,['u'],0,0.3398950999999215,0.1,1,0,FastAcc,34,19,Man,Right,
27,6,1,2.566664900001342,['c'],1,left,['e'],1,1.426714199998969,0.2,1,0,FastAcc,34,19,Man,Right,
28,6,1,4.232951300000423,['c'],1,left,['u'],0,0.9313863000006677,0.4,0,0,FastAcc,34,19,Man,Right,
29,6,1,0.5842315999998391,['c'],0,right,['u'],0,0.3925655999992159,0.2,1,0,FastAcc,34,19,Man,Right,
30,6,1,0.45041129999845,['c'],0,right,['u'],0,0.4420669999999518,0.1,1,0,FastAcc,34,19,Man,Right,
31,6,1,0.36822269999902346,['n'],0,left,['u'],0,0.41188639999927545,0.4,1,0,FastAcc,34,19,Man,Right,
32,6,1,4.250609599999734,['c'],0,right,['e'],1,0.4834909000001062,0.2,0,0,FastAcc,34,19,Man,Right,
33,6,1,2.349671699999817,['n'],0,left,['u'],0,0.885110999999597,0.4,1,0,FastAcc,34,19,Man,Right,
34,6,1,1.3330947999984346,['c'],0,right,['u'],0,0.7505898999988858,0.1,1,0,FastAcc,34,19,Man,Right,
35,6,1,0.35131100000035076,['c'],0,right,['e'],1,0.3326142999994772,0.1,0,0,FastAcc,34,19,Man,Right,
36,6,1,1.1012363999998342,['c'],1,left,['e'],1,0.3255883999991056,0.4,1,0,FastAcc,34,19,Man,Right,
37,6,1,0.9512666000009631,['n'],1,right,['u'],0,0.36555459999908635,0.1,0,0,FastAcc,34,19,Man,Right,
38,6,1,1.7180616000005102,['c'],0,right,['u'],0,2.076154399999723,0.1,1,0,FastAcc,34,19,Man,Right,
39,6,1,1.8181179000002885,['c'],0,right,['u'],0,0.8033610000002227,0.2,1,0,FastAcc,34,19,Man,Right,
40,6,1,2.2844441999986884,['n'],1,right,['u'],0,1.0424535000001924,0.2,0,0,FastAcc,34,19,Man,Right,
41,6,1,0.9172515000009298,['c'],1,left,['e'],1,0.6152251999992586,0.4,1,0,FastAcc,34,19,Man,Right,
42,6,1,1.8173839000010048,['n'],1,right,['u'],0,0.6800867999991169,0.1,0,0,FastAcc,34,19,Man,Right,
43,6,1,4.199899299999743,['c'],0,right,['u'],0,0.8721874000002572,0.1,1,0,FastAcc,34,19,Man,Right,
44,6,1,0.8179419999996753,['n'],0,left,['u'],0,0.7261994000000414,0.2,1,0,FastAcc,34,19,Man,Right,
45,6,1,0.8344726000013907,['c'],0,right,['u'],0,1.7462859999995999,0.1,1,0,FastAcc,34,19,Man,Right,
46,6,1,0.9835738000001584,['n'],1,right,['u'],0,0.9920845000015106,0.2,0,0,FastAcc,34,19,Man,Right,
47,6,1,0.9678864999987127,['c'],1,left,['e'],1,0.4372129000003042,0.4,1,0,FastAcc,34,19,Man,Right,
48,6,1,2.84964680000121,['n'],0,left,['u'],0,0.418966499999442,0.2,1,0,FastAcc,34,19,Man,Right,
49,6,1,0.9500387999996747,['c'],1,left,['e'],1,0.31197940000129165,0.1,1,0,FastAcc,34,19,Man,Right,
50,6,1,0.9684459000000061,['n'],0,left,['e'],1,0.9434537999986787,0.2,0,0,FastAcc,34,19,Man,Right,
51,6,1,0.6995842999986053,['c'],0,right,['u'],0,0.40023069999915606,0.4,1,0,FastAcc,34,19,Man,Right,
52,6,1,2.468902900000103,['c'],1,left,['u'],0,1.0465989000003901,0.4,0,0,FastAcc,34,19,Man,Right,
53,6,1,2.0497867000012775,['n'],1,right,['u'],0,1.3664850999994087,0.2,0,0,FastAcc,34,19,Man,Right,
54,6,1,3.6502213000003394,['c'],0,right,['u'],0,0.6884351000007882,0.2,1,0,FastAcc,34,19,Man,Right,
55,6,1,0.8179846000002726,['c'],0,right,['u'],0,1.853364300000976,0.1,1,0,FastAcc,34,19,Man,Right,
56,6,1,1.8010666000009223,['n'],0,left,['u'],0,0.725930900000094,0.2,1,0,FastAcc,34,19,Man,Right,
57,6,1,2.5839126000009855,['n'],1,right,['u'],0,0.37368770000102813,0.4,0,0,FastAcc,34,19,Man,Right,
58,6,1,5.001586499998666,x,-99,left,none,-99,-99,0.4,-99,1,FastAcc,34,19,Man,Right,
59,6,1,1.06768540000121,['c'],1,left,['u'],0,1.063950300000215,0.2,0,0,FastAcc,34,19,Man,Right,
0,7,1,2.867500000000291,['c'],1,left,['u'],0,1.5512254999994184,0.2,0,0,FastFast,34,19,Man,Right,
1,7,1,3.33462099999997,['n'],1,right,['u'],0,1.6621765999989293,0.1,0,0,FastFast,34,19,Man,Right,
2,7,1,2.934317600000213,['c'],0,right,['u'],0,0.6086085000006278,0.2,1,0,FastFast,34,19,Man,Right,
3,7,1,2.2668126999997185,['c'],0,right,['u'],0,0.42456119999951625,0.2,1,0,FastFast,34,19,Man,Right,
4,7,1,1.8839160999996238,['c'],1,left,['u'],0,0.4229061999994883,0.2,0,0,FastFast,34,19,Man,Right,
5,7,1,1.0844023999998171,['c'],1,left,['u'],0,0.34918430000107037,0.4,0,0,FastFast,34,19,Man,Right,
6,7,1,2.4345155999999406,['c'],1,left,['u'],0,0.6083408000013151,0.2,0,0,FastFast,34,19,Man,Right,
7,7,1,3.568361999999979,['c'],1,left,['e'],1,0.8920233999997436,0.1,1,0,FastFast,34,19,Man,Right,
8,7,1,1.7675354000002699,['c'],1,left,['u'],0,0.7009230000003299,0.4,0,0,FastFast,34,19,Man,Right,
9,7,1,2.584532599999875,['c'],0,right,['u'],0,0.6995929999993677,0.1,1,0,FastFast,34,19,Man,Right,
10,7,1,5.000303000000713,x,-99,left,none,-99,-99,0.2,-99,1,FastFast,34,19,Man,Right,
11,7,1,1.4652686999997968,['n'],1,right,['u'],0,0.515371800000139,0.1,0,0,FastFast,34,19,Man,Right,
12,7,1,3.319355599998744,['n'],0,left,['u'],0,0.97943640000085,0.1,1,0,FastFast,34,19,Man,Right,
13,7,1,2.467560900000535,['n'],1,right,['e'],1,0.9795815999987099,0.4,1,0,FastFast,34,19,Man,Right,
14,7,1,1.5659388999993098,['c'],1,left,['u'],0,0.513492000000042,0.4,0,0,FastFast,34,19,Man,Right,
15,7,1,2.234167599999637,['n'],0,left,['u'],0,0.36474830000042857,0.1,1,0,FastFast,34,19,Man,Right,
16,7,1,2.68385539999872,['c'],1,left,['u'],0,0.7488812000010512,0.2,0,0,FastFast,34,19,Man,Right,
17,7,1,0.9011553000000276,['n'],1,right,['e'],1,0.5250333999993018,0.4,1,0,FastFast,34,19,Man,Right,
18,7,1,0.8681379999998171,['c'],0,right,['u'],0,0.40817520000018703,0.4,1,0,FastFast,34,19,Man,Right,
19,7,1,0.41832390000126907,['n'],0,left,['e'],1,0.28973539999969944,0.4,0,0,FastFast,34,19,Man,Right,
20,7,1,1.6507622999997693,['c'],0,right,['u'],0,0.9506524999997055,0.2,1,0,FastFast,34,19,Man,Right,
21,7,1,0.9343358999994962,['n'],1,right,['u'],0,0.446019900000465,0.4,0,0,FastFast,34,19,Man,Right,
22,7,1,1.2504036999998789,['c'],1,left,['u'],0,0.6359616999998252,0.1,0,0,FastFast,34,19,Man,Right,
23,7,1,0.8010711000006268,['n'],1,right,['u'],0,0.7731528999993316,0.2,0,0,FastFast,34,19,Man,Right,
24,7,1,3.10153469999932,['n'],0,left,['u'],0,0.4850483999998687,0.2,1,0,FastFast,34,19,Man,Right,
25,7,1,3.5848225000008824,['c'],1,left,['u'],0,0.5165916999994806,0.1,0,0,FastFast,34,19,Man,Right,
26,7,1,3.567700600000535,['c'],0,right,['u'],0,3.219770600000629,0.1,1,0,FastFast,34,19,Man,Right,
27,7,1,3.183519399999568,['c'],1,left,['u'],0,0.34242839999933494,0.1,0,0,FastFast,34,19,Man,Right,
28,7,1,1.9024530999995477,['n'],1,right,['u'],0,0.2555754999993951,0.1,0,0,FastFast,34,19,Man,Right,
29,7,1,0.4005765000001702,['c'],1,left,['e'],1,0.34382410000034724,0.2,1,0,FastFast,34,19,Man,Right,
30,7,1,0.41802910000114935,['c'],1,left,['u'],0,0.22886949999883655,0.1,0,0,FastFast,34,19,Man,Right,
31,7,1,2.1012776999996277,['n'],1,right,['u'],0,0.59366030000092,0.4,0,0,FastFast,34,19,Man,Right,
32,7,1,2.9514514000002237,['n'],1,right,['u'],0,0.35092530000110855,0.1,0,0,FastFast,34,19,Man,Right,
33,7,1,2.8511644000009255,['n'],1,right,['u'],0,0.5052034000000276,0.2,0,0,FastFast,34,19,Man,Right,
34,7,1,0.8171330000004673,['c'],1,left,['u'],0,0.38277759999982663,0.1,0,0,FastFast,34,19,Man,Right,
35,7,1,1.182385999998587,['n'],1,right,['u'],0,0.29899740000109887,0.2,0,0,FastFast,34,19,Man,Right,
36,7,1,0.9339117999988957,['c'],1,left,['u'],0,0.2912489000009373,0.4,0,0,FastFast,34,19,Man,Right,
37,7,1,3.151468299998669,['n'],1,right,['u'],0,0.3883690000002389,0.2,0,0,FastFast,34,19,Man,Right,
38,7,1,3.0840590999996493,['c'],0,right,['u'],0,0.4130664999993314,0.2,1,0,FastFast,34,19,Man,Right,
39,7,1,1.3004815999993298,['c'],0,right,['u'],0,0.43392990000029386,0.1,1,0,FastFast,34,19,Man,Right,
40,7,1,2.6498852999993687,['n'],0,left,['u'],0,0.64894699999968,0.1,1,0,FastFast,34,19,Man,Right,
41,7,1,3.8502408000003925,['n'],1,right,['u'],0,0.4315136999994138,0.4,0,0,FastFast,34,19,Man,Right,
42,7,1,2.1017463999996835,['n'],1,right,['u'],0,0.37264999999933934,0.1,0,0,FastFast,34,19,Man,Right,
43,7,1,2.9179041999996116,['c'],1,left,['u'],0,0.4358121999994182,0.2,0,0,FastFast,34,19,Man,Right,
44,7,1,2.11726439999984,['n'],0,left,['u'],0,0.4960614000010537,0.2,1,0,FastFast,34,19,Man,Right,
45,7,1,3.717402400001447,['c'],1,left,['u'],0,1.2579768000014155,0.4,0,0,FastFast,34,19,Man,Right,
46,7,1,1.5177619000005507,['c'],1,left,['u'],0,0.4218650000002526,0.2,0,0,FastFast,34,19,Man,Right,
47,7,1,1.4334161999995558,['n'],1,right,['u'],0,0.9349555000007967,0.4,0,0,FastFast,34,19,Man,Right,
48,7,1,0.9680188999991515,['c'],1,left,['u'],0,0.3405039000008401,0.4,0,0,FastFast,34,19,Man,Right,
49,7,1,0.6992883999992046,['n'],1,right,['u'],0,0.8221290999990742,0.4,0,0,FastFast,34,19,Man,Right,
50,7,1,2.034389200000078,['c'],0,right,['u'],0,0.3576094000000012,0.1,1,0,FastFast,34,19,Man,Right,
51,7,1,1.001191999999719,['c'],1,left,['u'],0,1.0338362000002235,0.4,0,0,FastFast,34,19,Man,Right,
52,7,1,4.334182799999326,['c'],1,left,['u'],0,0.6379228999994666,0.4,0,0,FastFast,34,19,Man,Right,
53,7,1,1.9672145999993518,['n'],1,right,['u'],0,0.31221670000013546,0.4,0,0,FastFast,34,19,Man,Right,
54,7,1,2.134243400001651,['c'],1,left,['u'],0,0.2648693999999523,0.4,0,0,FastFast,34,19,Man,Right,
55,7,1,1.217845600000146,['n'],1,right,['u'],0,0.2556294000005437,0.2,0,0,FastFast,34,19,Man,Right,
56,7,1,1.6836198000000877,['n'],1,right,['u'],0,0.2766245999991952,0.1,0,0,FastFast,34,19,Man,Right,
57,7,1,0.9345967999997811,['c'],0,right,['u'],0,0.36673850000079256,0.4,1,0,FastFast,34,19,Man,Right,
58,7,1,4.400056899999981,['c'],0,right,['u'],0,0.35584209999979066,0.1,1,0,FastFast,34,19,Man,Right,
59,7,1,1.8173212000001513,['n'],0,left,['u'],0,0.318338600000061,0.2,1,0,FastFast,34,19,Man,Right,
0,8,1,2.017693399999189,['n'],1,right,['e'],1,1.280238900000768,0.2,1,0,AccFast,34,19,Man,Right,
1,8,1,1.1839673000013136,['c'],0,right,['e'],1,1.095419999999649,0.2,0,0,AccFast,34,19,Man,Right,
2,8,1,0.6675551999996969,['n'],1,right,['e'],1,1.339999899999384,0.4,1,0,AccFast,34,19,Man,Right,
3,8,1,2.5510955000008835,['n'],1,right,['u'],0,0.3620874999996886,0.2,0,0,AccFast,34,19,Man,Right,
4,8,1,1.5513140999992174,['c'],0,right,['u'],0,0.9434934000000794,0.2,1,0,AccFast,34,19,Man,Right,
5,8,1,1.7853119999999763,['n'],1,right,['u'],0,0.36518810000052326,0.1,0,0,AccFast,34,19,Man,Right,
6,8,1,0.884592899999916,['n'],1,right,['u'],0,0.5577056000001903,0.2,0,0,AccFast,34,19,Man,Right,
7,8,1,2.6511821000003692,['n'],1,right,['u'],0,0.3198951999984274,0.1,0,0,AccFast,34,19,Man,Right,
8,8,1,1.2502454000004946,['c'],0,right,['u'],0,2.9397676000007777,0.1,1,0,AccFast,34,19,Man,Right,
9,8,1,2.2170365000001766,['n'],1,right,['u'],0,0.5523324999994657,0.2,0,0,AccFast,34,19,Man,Right,
10,8,1,1.0008613999998488,['c'],1,left,['u'],0,0.8684162000008655,0.1,0,0,AccFast,34,19,Man,Right,
11,8,1,1.5510709999998653,['c'],1,left,['e'],1,0.7909251999990374,0.4,1,0,AccFast,34,19,Man,Right,
12,8,1,2.0172025000010763,['n'],0,left,['u'],0,0.640674799999033,0.2,1,0,AccFast,34,19,Man,Right,
13,8,1,0.9168048000010458,['n'],0,left,['u'],0,0.31686460000128136,0.4,1,0,AccFast,34,19,Man,Right,
14,8,1,3.2668068000002677,['c'],1,left,['u'],0,0.6799416999983805,0.2,0,0,AccFast,34,19,Man,Right,
15,8,1,0.617940300000555,['n'],1,right,['u'],0,0.4622793999988062,0.1,0,0,AccFast,34,19,Man,Right,
16,8,1,1.1668585000006715,['c'],1,left,['e'],1,0.33524059999945166,0.4,1,0,AccFast,34,19,Man,Right,
17,8,1,0.9676489000012225,['n'],1,right,['e'],1,0.3093758000013622,0.2,1,0,AccFast,34,19,Man,Right,
18,8,1,2.6676800000004732,['c'],1,left,['u'],0,0.5453318999989278,0.1,0,0,AccFast,34,19,Man,Right,
19,8,1,1.434304799999154,['n'],1,right,['e'],1,0.23624089999975695,0.4,1,0,AccFast,34,19,Man,Right,
20,8,1,1.5337459000002127,['n'],1,right,['e'],1,0.4719468000002962,0.2,1,0,AccFast,34,19,Man,Right,
21,8,1,1.9001005000009172,['c'],1,left,['e'],1,0.4367943999986892,0.1,1,0,AccFast,34,19,Man,Right,
22,8,1,3.8328323000005184,['n'],0,left,['u'],0,0.7088518000000477,0.4,1,0,AccFast,34,19,Man,Right,
23,8,1,1.5502488000001904,['n'],1,right,['u'],0,0.38015440000162926,0.2,0,0,AccFast,34,19,Man,Right,
24,8,1,0.5016451999999845,['n'],1,right,['u'],0,0.44267730000137817,0.4,0,0,AccFast,34,19,Man,Right,
25,8,1,2.20111580000048,['c'],0,right,['e'],1,0.41185829999994894,0.2,0,0,AccFast,34,19,Man,Right,
26,8,1,1.4679717999988497,['n'],1,right,['u'],0,0.2988621999993484,0.4,0,0,AccFast,34,19,Man,Right,
27,8,1,1.1999224000010145,['c'],1,left,['e'],1,0.3697019999999611,0.2,1,0,AccFast,34,19,Man,Right,
28,8,1,1.2345080000013695,['n'],1,right,['e'],1,0.2193552999997337,0.4,1,0,AccFast,34,19,Man,Right,
29,8,1,0.7170375999994576,['n'],1,right,['e'],1,0.2640787000000273,0.4,1,0,AccFast,34,19,Man,Right,
30,8,1,1.1659109000011085,['n'],1,right,['e'],1,0.24171430000023975,0.1,1,0,AccFast,34,19,Man,Right,
31,8,1,1.1517101999997976,['n'],1,right,['e'],1,0.2602095999991434,0.1,1,0,AccFast,34,19,Man,Right,
32,8,1,2.817194400000517,['n'],1,right,['e'],1,0.30779160000020056,0.4,1,0,AccFast,34,19,Man,Right,
33,8,1,2.3346244000003935,['n'],1,right,['e'],1,0.30899289999979374,0.4,1,0,AccFast,34,19,Man,Right,
34,8,1,1.3659494000003178,['n'],0,left,['e'],1,1.0060880000000907,0.4,0,0,AccFast,34,19,Man,Right,
35,8,1,0.9177705000001879,['n'],0,left,['e'],1,0.44225960000039777,0.1,0,0,AccFast,34,19,Man,Right,
36,8,1,2.6010452000009536,['n'],0,left,['e'],1,0.2512406000005285,0.1,0,0,AccFast,34,19,Man,Right,
37,8,1,1.717163299999811,['c'],1,left,['u'],0,0.6709262000003946,0.2,0,0,AccFast,34,19,Man,Right,
38,8,1,0.5175516999988758,['n'],0,left,['e'],1,0.329851200000121,0.1,0,0,AccFast,34,19,Man,Right,
39,8,1,0.4008845999996993,['c'],0,right,['u'],0,0.9988100000009581,0.4,1,0,AccFast,34,19,Man,Right,
40,8,1,3.7178179000002274,['c'],1,left,['e'],1,0.7727099000003363,0.4,1,0,AccFast,34,19,Man,Right,
41,8,1,4.016963699999906,['c'],1,left,['u'],0,0.2878940999999031,0.2,0,0,AccFast,34,19,Man,Right,
42,8,1,0.6170540000002802,['n'],0,left,['u'],0,0.7108631999999488,0.1,1,0,AccFast,34,19,Man,Right,
43,8,1,3.1682874000016454,['c'],1,left,['u'],0,1.1659281000011106,0.4,0,0,AccFast,34,19,Man,Right,
44,8,1,1.3010168000000704,['c'],1,left,['e'],1,0.8535555000016757,0.4,1,0,AccFast,34,19,Man,Right,
45,8,1,4.051401500000793,['n'],0,left,['u'],0,1.6443333999995957,0.4,1,0,AccFast,34,19,Man,Right,
46,8,1,4.101009900001372,['n'],1,right,['u'],0,0.3865338999985397,0.1,0,0,AccFast,34,19,Man,Right,
47,8,1,1.251242899999852,['c'],1,left,['e'],1,0.27534639999976207,0.1,1,0,AccFast,34,19,Man,Right,
48,8,1,0.3513870999995561,['n'],1,right,['u'],0,0.3723227999998926,0.1,0,0,AccFast,34,19,Man,Right,
49,8,1,0.9846480000014708,['n'],1,right,['e'],1,0.488495999999941,0.1,1,0,AccFast,34,19,Man,Right,
50,8,1,0.7325702999987698,['c'],1,left,['u'],0,0.5316530000000057,0.2,0,0,AccFast,34,19,Man,Right,
51,8,1,0.36774940000032075,['c'],1,left,['u'],0,0.34415890000127547,0.2,0,0,AccFast,34,19,Man,Right,
52,8,1,0.6848049000000174,['n'],0,left,['e'],1,0.2738441999990755,0.4,0,0,AccFast,34,19,Man,Right,
53,8,1,1.1190022000009776,['c'],0,right,['u'],0,0.6607401000001119,0.1,1,0,AccFast,34,19,Man,Right,
54,8,1,3.717726099999709,['c'],1,left,['u'],0,0.41653670000050624,0.2,0,0,AccFast,34,19,Man,Right,
55,8,1,3.301132600001438,['n'],0,left,['u'],0,0.45441759999994247,0.2,1,0,AccFast,34,19,Man,Right,
56,8,1,4.767171899999084,['c'],1,left,['e'],1,0.688537300000462,0.4,1,0,AccFast,34,19,Man,Right,
57,8,1,3.6676286999991135,['n'],0,left,['e'],1,0.8610037999987981,0.2,0,0,AccFast,34,19,Man,Right,
58,8,1,1.433899300000121,['c'],0,right,['e'],1,0.2599872000009782,0.1,0,0,AccFast,34,19,Man,Right,
59,8,1,3.317703700000493,['n'],0,left,['u'],0,0.4717328999995516,0.1,1,0,AccFast,34,19,Man,Right,
0,9,1,2.517953500000658,['n'],0,left,['u'],0,2.8245072000008804,0.1,1,0,AccAcc,34,19,Man,Right,
1,9,1,1.1507775000009133,['c'],0,right,['u'],0,1.8844085000000632,0.4,1,0,AccAcc,34,19,Man,Right,
2,9,1,2.8491352000000916,['c'],0,right,['u'],0,0.859121800000139,0.2,1,0,AccAcc,34,19,Man,Right,
3,9,1,1.368191300000035,['n'],0,left,['u'],0,0.34727079999902344,0.2,1,0,AccAcc,34,19,Man,Right,
4,9,1,0.4341856999999436,['c'],0,right,['e'],1,0.31061159999990196,0.1,0,0,AccAcc,34,19,Man,Right,
5,9,1,0.31733689999964554,['n'],0,left,['u'],0,0.5037290999989636,0.1,1,0,AccAcc,34,19,Man,Right,
6,9,1,2.4678121999986615,['c'],1,left,['e'],1,0.3635002999999415,0.1,1,0,AccAcc,34,19,Man,Right,
7,9,1,0.884632799999963,['n'],1,right,['u'],0,0.5315669999999955,0.4,0,0,AccAcc,34,19,Man,Right,
8,9,1,1.5011340000000928,['c'],1,left,['e'],1,0.9088112999997975,0.4,1,0,AccAcc,34,19,Man,Right,
9,9,1,5.016988199999105,x,-99,right,none,-99,-99,0.1,-99,1,AccAcc,34,19,Man,Right,
10,9,1,2.317657400000826,['n'],1,right,['e'],1,0.2564964000011969,0.2,1,0,AccAcc,34,19,Man,Right,
11,9,1,1.067957799999931,['n'],1,right,['e'],1,0.25408360000074026,0.2,1,0,AccAcc,34,19,Man,Right,
12,9,1,1.3677931999991415,['c'],0,right,['u'],0,0.3038431999993918,0.2,1,0,AccAcc,34,19,Man,Right,
13,9,1,3.6170255999986693,['n'],0,left,['e'],1,0.39756040000065695,0.1,0,0,AccAcc,34,19,Man,Right,
14,9,1,5.000621099999989,x,-99,left,none,-99,-99,0.1,-99,1,AccAcc,34,19,Man,Right,
15,9,1,1.4671816999998555,['c'],0,right,['u'],0,0.5679404999991675,0.4,1,0,AccAcc,34,19,Man,Right,
16,9,1,2.1338384999999107,['n'],0,left,['u'],0,1.1505323000001226,0.4,1,0,AccAcc,34,19,Man,Right,
17,9,1,2.332473399999799,['c'],0,right,['u'],0,1.5428778000004968,0.1,1,0,AccAcc,34,19,Man,Right,
18,9,1,1.7345208000006096,['c'],1,left,['u'],0,0.8776717000000644,0.4,0,0,AccAcc,34,19,Man,Right,
19,9,1,2.0183072999989236,['c'],0,right,['u'],0,0.5006458999996539,0.1,1,0,AccAcc,34,19,Man,Right,
20,9,1,2.684694600000512,['n'],1,right,['e'],1,1.7915257000004203,0.4,1,0,AccAcc,34,19,Man,Right,
21,9,1,1.7178387000003568,['n'],1,right,['e'],1,0.7019517000007909,0.1,1,0,AccAcc,34,19,Man,Right,
22,9,1,1.0846775000009075,['n'],1,right,['e'],1,0.5529076999991958,0.4,1,0,AccAcc,34,19,Man,Right,
23,9,1,1.3499710999985837,['n'],1,right,['u'],0,0.36801980000018375,0.1,0,0,AccAcc,34,19,Man,Right,
24,9,1,0.8008818000016618,['n'],1,right,['u'],0,0.2749266999999236,0.2,0,0,AccAcc,34,19,Man,Right,
25,9,1,1.617839800001093,['c'],0,right,['e'],1,0.3379887000010058,0.2,0,0,AccAcc,34,19,Man,Right,
26,9,1,4.366561599999841,['n'],0,left,['u'],0,0.4003623999997217,0.1,1,0,AccAcc,34,19,Man,Right,
27,9,1,4.317509799999243,['n'],0,left,['u'],0,0.3504837000000407,0.4,1,0,AccAcc,34,19,Man,Right,
28,9,1,2.4181986000003235,['n'],1,right,['u'],0,0.30613369999991846,0.4,0,0,AccAcc,34,19,Man,Right,
29,9,1,0.9512367999996059,['n'],1,right,['e'],1,0.33853219999946305,0.4,1,0,AccAcc,34,19,Man,Right,
30,9,1,4.317387899998721,['c'],1,left,['u'],0,0.44375099999888334,0.1,0,0,AccAcc,34,19,Man,Right,
31,9,1,2.168097600002511,['n'],1,right,['e'],1,0.5094300999990082,0.4,1,0,AccAcc,34,19,Man,Right,
32,9,1,0.41668189999836613,['c'],0,right,['u'],0,0.30826319999687257,0.1,1,0,AccAcc,34,19,Man,Right,
33,9,1,0.4516937999978836,['n'],1,right,['u'],0,0.45539220000136993,0.1,0,0,AccAcc,34,19,Man,Right,
34,9,1,2.8328817000001436,['c'],1,left,['e'],1,0.702158000000054,0.2,1,0,AccAcc,34,19,Man,Right,
35,9,1,1.2011106999998447,['n'],0,left,['u'],0,0.30840339999849675,0.4,1,0,AccAcc,34,19,Man,Right,
36,9,1,3.567466599997715,['c'],0,right,['u'],0,0.9324637999998231,0.2,1,0,AccAcc,34,19,Man,Right,
37,9,1,1.5842974000006507,['c'],1,left,['u'],0,0.3941326000021945,0.1,0,0,AccAcc,34,19,Man,Right,
38,9,1,1.6349872999999207,['n'],1,right,['u'],0,0.37167849999968894,0.2,0,0,AccAcc,34,19,Man,Right,
39,9,1,1.6182955999975093,['n'],0,left,['u'],0,0.44659239999964484,0.1,1,0,AccAcc,34,19,Man,Right,
40,9,1,1.2170469000011508,['c'],1,left,['u'],0,0.4064075000023877,0.4,0,0,AccAcc,34,19,Man,Right,
41,9,1,1.26825319999989,['n'],0,left,['e'],1,0.9498706999984279,0.2,0,0,AccAcc,34,19,Man,Right,
42,9,1,1.5843099999983679,['c'],1,left,['e'],1,0.6430111999979999,0.4,1,0,AccAcc,34,19,Man,Right,
43,9,1,3.385217700000794,['c'],1,left,['u'],0,0.5729684999969322,0.2,0,0,AccAcc,34,19,Man,Right,
44,9,1,1.4849654999998165,['n'],1,right,['e'],1,0.3332503000019642,0.2,1,0,AccAcc,34,19,Man,Right,
45,9,1,1.617329000000609,['c'],1,left,['u'],0,0.3380695000014384,0.4,0,0,AccAcc,34,19,Man,Right,
46,9,1,1.2505109000012453,['n'],0,left,['e'],1,1.8126488999987487,0.2,0,0,AccAcc,34,19,Man,Right,
47,9,1,5.000596199999563,x,-99,left,none,-99,-99,0.2,-99,1,AccAcc,34,19,Man,Right,
48,9,1,1.2011061999983212,['c'],1,left,['e'],1,0.47296690000075614,0.4,1,0,AccAcc,34,19,Man,Right,
49,9,1,3.0505465000023833,['n'],1,right,['u'],0,0.7748068000000785,0.2,0,0,AccAcc,34,19,Man,Right,
50,9,1,1.883528499998647,['n'],0,left,['u'],0,0.3272705000017595,0.1,1,0,AccAcc,34,19,Man,Right,
51,9,1,0.4177563999983249,['c'],1,left,['e'],1,0.3241718999997829,0.1,1,0,AccAcc,34,19,Man,Right,
52,9,1,4.200357600002462,['c'],0,right,['u'],0,1.1779797000017425,0.2,1,0,AccAcc,34,19,Man,Right,
53,9,1,3.8178625000000466,['c'],1,left,['u'],0,0.5092718000014429,0.1,0,0,AccAcc,34,19,Man,Right,
54,9,1,5.000336999997671,x,-99,left,none,-99,-99,0.4,-99,1,AccAcc,34,19,Man,Right,
55,9,1,2.3008398999991186,['c'],1,left,['u'],0,0.7785734000026423,0.2,0,0,AccAcc,34,19,Man,Right,
56,9,1,4.367659800002002,['c'],1,left,['u'],0,0.2642653999973845,0.2,0,0,AccAcc,34,19,Man,Right,
57,9,1,5.016108600000734,x,-99,right,none,-99,-99,0.4,-99,1,AccAcc,34,19,Man,Right,
58,9,1,0.4669796000016504,['c'],0,right,['u'],0,3.7182291999997688,0.4,1,0,AccAcc,34,19,Man,Right,
59,9,1,2.067575000000943,['n'],1,right,['e'],1,0.705513199998677,0.2,1,0,AccAcc,34,19,Man,Right,
0,10,1,2.034709899999143,['n'],1,right,['u'],0,0.7317915999992692,0.1,0,0,FastAcc,34,19,Man,Right,
1,10,1,0.7848788000010245,['c'],1,left,['e'],1,2.0572447999984433,0.2,1,0,FastAcc,34,19,Man,Right,
2,10,1,1.2345879999993485,['c'],1,left,['u'],0,0.3846243999978469,0.4,0,0,FastAcc,34,19,Man,Right,
3,10,1,0.6011958999988565,['c'],0,right,['u'],0,0.5634614000009606,0.1,1,0,FastAcc,34,19,Man,Right,
4,10,1,0.35149420000016107,['n'],1,right,['u'],0,0.3129004000002169,0.4,0,0,FastAcc,34,19,Man,Right,
5,10,1,0.36700610000116285,['n'],0,left,['u'],0,0.4238337999995565,0.2,1,0,FastAcc,34,19,Man,Right,
6,10,1,1.318441499999608,['c'],0,right,['e'],1,1.3007571999987704,0.1,0,0,FastAcc,34,19,Man,Right,
7,10,1,2.0177911999999196,['n'],1,right,['u'],0,0.9706211000011535,0.4,0,0,FastAcc,34,19,Man,Right,
8,10,1,1.6176076000010653,['c'],0,right,['e'],1,3.6774668999969435,0.4,0,0,FastAcc,34,19,Man,Right,
9,10,1,3.4500679000011587,['n'],0,left,['u'],0,1.6286834999991697,0.4,1,0,FastAcc,34,19,Man,Right,
10,10,1,3.166846900003293,['n'],1,right,['u'],0,0.45494329999928595,0.2,0,0,FastAcc,34,19,Man,Right,
11,10,1,2.4342663000024913,['c'],1,left,['e'],1,0.374289300001692,0.2,1,0,FastAcc,34,19,Man,Right,
12,10,1,1.0499501999984204,['n'],0,left,['u'],0,0.30371199999717646,0.2,1,0,FastAcc,34,19,Man,Right,
13,10,1,1.434887700001127,['c'],0,right,['u'],0,1.4765140999988944,0.4,1,0,FastAcc,34,19,Man,Right,
14,10,1,0.9683611000000383,['c'],1,left,['u'],0,0.45393909999984317,0.1,0,0,FastAcc,34,19,Man,Right,
15,10,1,3.3824319999985164,['n'],0,left,['u'],0,0.36022289999891655,0.2,1,0,FastAcc,34,19,Man,Right,
16,10,1,1.3349769999986165,['c'],0,right,['u'],0,0.32570010000199545,0.2,1,0,FastAcc,34,19,Man,Right,
17,10,1,1.3178167000005487,['c'],1,left,['u'],0,0.2467190000024857,0.4,0,0,FastAcc,34,19,Man,Right,
18,10,1,0.9673666000016965,['n'],0,left,['u'],0,0.4722412999981316,0.1,1,0,FastAcc,34,19,Man,Right,
19,10,1,1.4007872000001953,['n'],1,right,['u'],0,0.5759876999982225,0.4,0,0,FastAcc,34,19,Man,Right,
20,10,1,2.1843566999996256,['c'],1,left,['u'],0,0.3967402999987826,0.4,0,0,FastAcc,34,19,Man,Right,
21,10,1,1.684523200001422,['n'],1,right,['u'],0,0.3153329999986454,0.2,0,0,FastAcc,34,19,Man,Right,
22,10,1,2.900874800001475,['c'],1,left,['u'],0,0.2933073999993212,0.2,0,0,FastAcc,34,19,Man,Right,
23,10,1,1.3161966999978176,['n'],0,left,['u'],0,0.5767195000007632,0.1,1,0,FastAcc,34,19,Man,Right,
24,10,1,2.35071340000286,['n'],1,right,['e'],1,1.3412358000023232,0.1,1,0,FastAcc,34,19,Man,Right,
25,10,1,1.0850021999976889,['n'],1,right,['e'],1,0.31096700000125566,0.4,1,0,FastAcc,34,19,Man,Right,
26,10,1,2.3173088999974425,['c'],0,right,['u'],0,0.7205889999968349,0.2,1,0,FastAcc,34,19,Man,Right,
27,10,1,1.3345628999995824,['c'],0,right,['e'],1,0.38497279999864986,0.4,0,0,FastAcc,34,19,Man,Right,
28,10,1,1.467898899998545,['n'],0,left,['u'],0,0.4412555000017164,0.4,1,0,FastAcc,34,19,Man,Right,
29,10,1,3.3181264999984705,['n'],1,right,['u'],0,0.4778194999998959,0.2,0,0,FastAcc,34,19,Man,Right,
30,10,1,2.101095300000452,['n'],0,left,['e'],1,0.7374660999994376,0.1,0,0,FastAcc,34,19,Man,Right,
31,10,1,1.101761500001885,['c'],0,right,['u'],0,0.35443380000288016,0.1,1,0,FastAcc,34,19,Man,Right,
32,10,1,0.8513548000009905,['c'],1,left,['u'],0,0.2606341999999131,0.4,0,0,FastAcc,34,19,Man,Right,
33,10,1,1.117335799997818,['n'],1,right,['u'],0,0.3444770999994944,0.2,0,0,FastAcc,34,19,Man,Right,
34,10,1,1.9512092000004486,['n'],1,right,['u'],0,0.3433325000005425,0.4,0,0,FastAcc,34,19,Man,Right,
35,10,1,1.2665414000002784,['c'],0,right,['u'],0,0.27387029999954393,0.4,1,0,FastAcc,34,19,Man,Right,
36,10,1,3.0012177000025986,['n'],1,right,['u'],0,3.0175486999978602,0.1,0,0,FastAcc,34,19,Man,Right,
37,10,1,2.599622999998246,['c'],1,left,['u'],0,0.33928459999879124,0.4,0,0,FastAcc,34,19,Man,Right,
38,10,1,0.8180869999996503,['n'],0,left,['u'],0,0.6317441999999573,0.2,1,0,FastAcc,34,19,Man,Right,
39,10,1,3.750443400000222,['c'],0,right,['e'],1,1.2592839000026288,0.1,0,0,FastAcc,34,19,Man,Right,
40,10,1,1.85127250000005,['n'],0,left,['u'],0,0.36929009999948903,0.2,1,0,FastAcc,34,19,Man,Right,
41,10,1,5.016479199999594,x,-99,left,none,-99,-99,0.1,-99,1,FastAcc,34,19,Man,Right,
42,10,1,1.2178028999987873,['n'],1,right,['u'],0,2.510405400000309,0.4,0,0,FastAcc,34,19,Man,Right,
43,10,1,1.4176367000000027,['n'],0,left,['u'],0,0.8362468000013905,0.1,1,0,FastAcc,34,19,Man,Right,
44,10,1,3.784534000002168,['c'],0,right,['u'],0,0.422450399997615,0.2,1,0,FastAcc,34,19,Man,Right,
45,10,1,3.8006413000002794,['n'],0,left,['u'],0,0.23189800000182004,0.2,1,0,FastAcc,34,19,Man,Right,
46,10,1,1.9165706999992835,['c'],0,right,['e'],1,0.41388759999972535,0.1,0,0,FastAcc,34,19,Man,Right,
47,10,1,3.451652899999317,['n'],0,left,['u'],0,0.9722829999991518,0.1,1,0,FastAcc,34,19,Man,Right,
48,10,1,1.7846046999984537,['c'],0,right,['u'],0,0.328620399999636,0.4,1,0,FastAcc,34,19,Man,Right,
49,10,1,1.0166105999996944,['n'],0,left,['u'],0,0.5014852999993309,0.1,1,0,FastAcc,34,19,Man,Right,
50,10,1,1.5169830000013462,['c'],0,right,['u'],0,0.334607100001449,0.1,1,0,FastAcc,34,19,Man,Right,
51,10,1,2.3335896999997203,['n'],1,right,['e'],1,0.35021530000085477,0.4,1,0,FastAcc,34,19,Man,Right,
52,10,1,2.7504644000000553,['c'],1,left,['u'],0,0.34862730000168085,0.2,0,0,FastAcc,34,19,Man,Right,
53,10,1,2.8680168999999296,['n'],0,left,['u'],0,0.6225076999980956,0.1,1,0,FastAcc,34,19,Man,Right,
54,10,1,0.6678393999973196,['c'],1,left,['e'],1,1.141634100000374,0.2,1,0,FastAcc,34,19,Man,Right,
55,10,1,0.30119460000059917,['c'],0,right,['u'],0,0.21449619999839342,0.2,1,0,FastAcc,34,19,Man,Right,
56,10,1,0.1672632000008889,['c'],1,left,['e'],1,0.4731157999995048,0.1,1,0,FastAcc,34,19,Man,Right,
57,10,1,2.284649299999728,['c'],1,left,['u'],0,0.23762730000089505,0.4,0,0,FastAcc,34,19,Man,Right,
58,10,1,0.501612700001715,['n'],0,left,['u'],0,0.2744961999997031,0.2,1,0,FastAcc,34,19,Man,Right,
59,10,1,0.26737709999724757,['c'],0,right,['u'],0,0.23213119999854825,0.1,1,0,FastAcc,34,19,Man,Right,
0,11,1,0.4845315999991726,['c'],0,right,['u'],0,0.27575789999900735,0.4,1,0,FastFast,34,19,Man,Right,
1,11,1,1.9344955999986269,['c'],0,right,['u'],0,0.31870019999769283,0.2,1,0,FastFast,34,19,Man,Right,
2,11,1,0.4007501999985834,['n'],0,left,['u'],0,0.6594239000005473,0.2,1,0,FastFast,34,19,Man,Right,
3,11,1,0.8505025999984355,['c'],1,left,['u'],0,0.28981650000059744,0.4,0,0,FastFast,34,19,Man,Right,
4,11,1,0.5679044000025897,['n'],1,right,['u'],0,0.3061383999993268,0.2,0,0,FastFast,34,19,Man,Right,
5,11,1,0.668456999999762,['c'],1,left,['u'],0,0.20546969999850262,0.1,0,0,FastFast,34,19,Man,Right,
6,11,1,0.3016308000005665,['n'],1,right,['u'],0,0.3156788000014785,0.4,0,0,FastFast,34,19,Man,Right,
7,11,1,0.35122799999953713,['c'],0,right,['u'],0,0.25916090000100667,0.1,1,0,FastFast,34,19,Man,Right,
8,11,1,0.917083399999683,['c'],1,left,['u'],0,0.8469248999972478,0.2,0,0,FastFast,34,19,Man,Right,
9,11,1,0.4684463000012329,['n'],1,right,['e'],1,0.10034550000273157,0.1,1,0,FastFast,34,19,Man,Right,
10,11,1,1.8011294999996608,['c'],0,right,['u'],0,1.722875199997361,0.2,1,0,FastFast,34,19,Man,Right,
11,11,1,0.9342887999991945,['c'],1,left,['u'],0,0.15527149999979883,0.1,0,0,FastFast,34,19,Man,Right,
12,11,1,0.7507317000017792,['n'],1,right,['u'],0,0.2653372999993735,0.1,0,0,FastFast,34,19,Man,Right,
13,11,1,0.7184926000009,['c'],1,left,['u'],0,0.2122345999996469,0.4,0,0,FastFast,34,19,Man,Right,
14,11,1,0.7839151000007405,['c'],1,left,['u'],0,0.21532529999967664,0.1,0,0,FastFast,34,19,Man,Right,
15,11,1,1.2509848999980022,['c'],1,left,['u'],0,0.1660154999990482,0.4,0,0,FastFast,34,19,Man,Right,
16,11,1,0.6333391000007396,['n'],1,right,['u'],0,0.24023920000036014,0.4,0,0,FastFast,34,19,Man,Right,
17,11,1,1.201700300000084,['n'],1,right,['u'],0,0.20140449999962584,0.4,0,0,FastFast,34,19,Man,Right,
18,11,1,0.6179255999995803,['c'],1,left,['u'],0,0.11475969999810332,0.1,0,0,FastFast,34,19,Man,Right,
19,11,1,2.100298000001203,['c'],1,left,['u'],0,0.14850149999983842,0.1,0,0,FastFast,34,19,Man,Right,
20,11,1,0.751952300000994,['n'],1,right,['e'],1,0.24283189999914612,0.1,1,0,FastFast,34,19,Man,Right,
21,11,1,0.9525568000026396,['c'],1,left,['u'],0,0.13371439999900758,0.1,0,0,FastFast,34,19,Man,Right,
22,11,1,0.9016287000013108,['c'],1,left,['u'],0,0.16649379999944358,0.4,0,0,FastFast,34,19,Man,Right,
23,11,1,2.0177029999977094,['c'],0,right,['u'],0,0.19352160000198637,0.4,1,0,FastFast,34,19,Man,Right,
24,11,1,2.2821447999995144,['c'],0,right,['u'],0,0.2020762000029208,0.1,1,0,FastFast,34,19,Man,Right,
25,11,1,0.9679261000019324,['c'],0,right,['u'],0,0.19686120000187657,0.2,1,0,FastFast,34,19,Man,Right,
26,11,1,1.4180158999988635,['n'],1,right,['e'],1,0.2785087999982352,0.2,1,0,FastFast,34,19,Man,Right,
27,11,1,2.3007294999988517,['c'],1,left,['u'],0,0.16968139999880805,0.4,0,0,FastFast,34,19,Man,Right,
28,11,1,0.4677324000003864,['c'],1,left,['u'],0,0.194454799999221,0.4,0,0,FastFast,34,19,Man,Right,
29,11,1,0.7512826999991375,['c'],1,left,['u'],0,0.1353527999999642,0.1,0,0,FastFast,34,19,Man,Right,
30,11,1,3.617553500000213,['n'],1,right,['u'],0,0.35590989999764133,0.2,0,0,FastFast,34,19,Man,Right,
31,11,1,4.86647240000093,['c'],0,right,['u'],0,0.27802970000266214,0.2,1,0,FastFast,34,19,Man,Right,
32,11,1,1.0175391000011587,['n'],1,right,['u'],0,0.300698499999271,0.4,0,0,FastFast,34,19,Man,Right,
33,11,1,0.566982199998165,['c'],1,left,['u'],0,0.25224189999789814,0.1,0,0,FastFast,34,19,Man,Right,
34,11,1,0.9514827999992121,['n'],0,left,['e'],1,0.2713385000024573,0.1,0,0,FastFast,34,19,Man,Right,
35,11,1,3.000460600000224,['c'],0,right,['u'],0,0.22247409999908996,0.2,1,0,FastFast,34,19,Man,Right,
36,11,1,1.6513551999996707,['n'],1,right,['u'],0,0.20593240000016522,0.2,0,0,FastFast,34,19,Man,Right,
37,11,1,1.266649500001222,['c'],1,left,['u'],0,0.15783720000035828,0.1,0,0,FastFast,34,19,Man,Right,
38,11,1,1.1336897000001045,['n'],1,right,['u'],0,0.4125120999997307,0.4,0,0,FastFast,34,19,Man,Right,
39,11,1,0.6001845999999205,['c'],1,left,['u'],0,0.2700944000025629,0.4,0,0,FastFast,34,19,Man,Right,
40,11,1,0.3346318000003521,['n'],1,right,['u'],0,0.2883155999988958,0.4,0,0,FastFast,34,19,Man,Right,
41,11,1,2.201156200000696,['c'],1,left,['u'],0,0.2152010000027076,0.1,0,0,FastFast,34,19,Man,Right,
42,11,1,0.784999899999093,['c'],0,right,['e'],1,0.3936413999981596,0.2,0,0,FastFast,34,19,Man,Right,
43,11,1,3.185102800001914,['n'],0,left,['u'],0,0.24524770000061835,0.2,1,0,FastFast,34,19,Man,Right,
44,11,1,0.5862450000022363,['c'],1,left,['u'],0,0.19027959999948507,0.1,0,0,FastFast,34,19,Man,Right,
45,11,1,0.301807199997711,['n'],0,left,['u'],0,0.22131029999945895,0.2,1,0,FastFast,34,19,Man,Right,
46,11,1,0.5664840999997978,['n'],1,right,['u'],0,0.41597799999726703,0.1,0,0,FastFast,34,19,Man,Right,
47,11,1,0.30019759999777307,['c'],1,left,['u'],0,0.16547739999805344,0.2,0,0,FastFast,34,19,Man,Right,
48,11,1,0.28333009999914793,['n'],0,left,['u'],0,0.21427899999980582,0.2,1,0,FastFast,34,19,Man,Right,
49,11,1,0.2665409000001091,['c'],0,right,['u'],0,0.17280659999960335,0.1,1,0,FastFast,34,19,Man,Right,
50,11,1,0.7345630999989226,['c'],1,left,['u'],0,0.17876279999836697,0.2,0,0,FastFast,34,19,Man,Right,
51,11,1,0.5842841000012413,['c'],1,left,['u'],0,0.28630940000221017,0.4,0,0,FastFast,34,19,Man,Right,
52,11,1,2.1672590999987733,['n'],1,right,['u'],0,0.25472330000047805,0.4,0,0,FastFast,34,19,Man,Right,
53,11,1,0.6180291000018769,['c'],0,right,['u'],0,0.25448030000188737,0.4,1,0,FastFast,34,19,Man,Right,
54,11,1,1.2683209999995597,['c'],1,left,['u'],0,0.25185810000039055,0.2,0,0,FastFast,34,19,Man,Right,
55,11,1,0.6013666999970155,['c'],1,left,['u'],0,0.1880390999976953,0.2,0,0,FastFast,34,19,Man,Right,
56,11,1,0.8184581999994407,['n'],1,right,['u'],0,0.20700620000206982,0.4,0,0,FastFast,34,19,Man,Right,
57,11,1,0.3505031000022427,['c'],0,right,['u'],0,0.18646090000038384,0.4,1,0,FastFast,34,19,Man,Right,
58,11,1,0.634488899999269,['n'],1,right,['u'],0,0.35619990000122925,0.1,0,0,FastFast,34,19,Man,Right,
59,11,1,1.4010577000008198,['c'],1,left,['u'],0,0.2004244000017934,0.2,0,0,FastFast,34,19,Man,Right,
0,12,1,1.0011812999982794,['c'],1,left,['u'],0,0.19274810000206344,0.4,0,0,AccFast,34,19,Man,Right,
1,12,1,0.3006453000016336,['n'],1,right,['e'],1,0.247502500002156,0.2,1,0,AccFast,34,19,Man,Right,
2,12,1,0.399225999997725,['c'],1,left,['u'],0,0.3124810000008438,0.4,0,0,AccFast,34,19,Man,Right,
3,12,1,0.33404280000104336,['c'],0,right,['u'],0,0.19996780000292347,0.4,1,0,AccFast,34,19,Man,Right,
4,12,1,0.31833450000340235,['n'],1,right,['e'],1,0.1974091000010958,0.2,1,0,AccFast,34,19,Man,Right,
5,12,1,0.28473830000075395,['c'],0,right,['u'],0,0.24436659999992116,0.2,1,0,AccFast,34,19,Man,Right,
6,12,1,1.8674696999987646,['c'],1,left,['u'],0,0.8746549999996205,0.2,0,0,AccFast,34,19,Man,Right,
7,12,1,2.9009637999988627,['n'],0,left,['u'],0,0.5587481000002299,0.4,1,0,AccFast,34,19,Man,Right,
8,12,1,4.234065799999371,['c'],1,left,['u'],0,0.3138084999991406,0.2,0,0,AccFast,34,19,Man,Right,
9,12,1,0.26614279999921564,['n'],0,left,['e'],1,0.30126949999976205,0.2,0,0,AccFast,34,19,Man,Right,
10,12,1,0.3183525999993435,['c'],1,left,['u'],0,0.28589479999936884,0.4,0,0,AccFast,34,19,Man,Right,
11,12,1,0.3173577999987174,['n'],0,left,['u'],0,0.3121336000003794,0.1,1,0,AccFast,34,19,Man,Right,
12,12,1,0.5847073000004457,['c'],1,left,['u'],0,0.3745334000013827,0.1,0,0,AccFast,34,19,Man,Right,
13,12,1,0.8676887000001443,['n'],1,right,['u'],0,0.23950859999968088,0.2,0,0,AccFast,34,19,Man,Right,
14,12,1,0.7169239000031666,['c'],1,left,['u'],0,0.1963781000013114,0.1,0,0,AccFast,34,19,Man,Right,
15,12,1,0.23503359999813256,['n'],0,left,['u'],0,0.2684685999993235,0.2,1,0,AccFast,34,19,Man,Right,
16,12,1,0.3340179000006174,['c'],1,left,['u'],0,0.2945843999987119,0.2,0,0,AccFast,34,19,Man,Right,
17,12,1,1.818274699999165,['c'],0,right,['u'],0,0.25305550000121,0.1,1,0,AccFast,34,19,Man,Right,
18,12,1,0.967862099998456,['c'],1,left,['u'],0,0.26283239999975194,0.4,0,0,AccFast,34,19,Man,Right,
19,12,1,0.9677833999994618,['c'],1,left,['u'],0,0.199407500000234,0.4,0,0,AccFast,34,19,Man,Right,
20,12,1,1.284818299998733,['n'],1,right,['u'],0,0.19841079999969224,0.2,0,0,AccFast,34,19,Man,Right,
21,12,1,0.7503842000005534,['n'],1,right,['u'],0,0.2667615999998816,0.4,0,0,AccFast,34,19,Man,Right,
22,12,1,1.001668700002483,['c'],1,left,['u'],0,0.23445359999823268,0.1,0,0,AccFast,34,19,Man,Right,
23,12,1,0.8673287999990862,['c'],0,right,['u'],0,0.18450789999769768,0.1,1,0,AccFast,34,19,Man,Right,
24,12,1,2.1015273999983037,['n'],1,right,['u'],0,0.2234755999998015,0.4,0,0,AccFast,34,19,Man,Right,
25,12,1,1.4677695999998832,['c'],1,left,['e'],1,0.43076529999962077,0.1,1,0,AccFast,34,19,Man,Right,
26,12,1,0.9175059999979567,['n'],1,right,['u'],0,0.9468257000007725,0.4,0,0,AccFast,34,19,Man,Right,
27,12,1,1.1510644000009052,['n'],0,left,['u'],0,0.7612907000002451,0.2,1,0,AccFast,34,19,Man,Right,
28,12,1,1.4345227000012528,['n'],1,right,['u'],0,0.29224539999995613,0.1,0,0,AccFast,34,19,Man,Right,
29,12,1,0.8518223999999464,['c'],1,left,['u'],0,1.0250585999965551,0.2,0,0,AccFast,34,19,Man,Right,
30,12,1,0.8182153999987349,['c'],1,left,['u'],0,0.24215190000177245,0.1,0,0,AccFast,34,19,Man,Right,
31,12,1,3.0683781999978237,['n'],1,right,['u'],0,0.8484753999982786,0.1,0,0,AccFast,34,19,Man,Right,
32,12,1,2.1678738000009616,['c'],0,right,['u'],0,0.2902448999993794,0.1,1,0,AccFast,34,19,Man,Right,
33,12,1,0.4511665999998513,['n'],1,right,['u'],0,0.3119385999998485,0.4,0,0,AccFast,34,19,Man,Right,
34,12,1,0.7850327000014659,['c'],1,left,['u'],0,0.5101451000009547,0.2,0,0,AccFast,34,19,Man,Right,
35,12,1,0.4516094999999041,['n'],0,left,['e'],1,0.33819080000102986,0.1,0,0,AccFast,34,19,Man,Right,
36,12,1,0.35088550000000396,['c'],0,right,['u'],0,0.24123169999802485,0.2,1,0,AccFast,34,19,Man,Right,
37,12,1,0.351597099997889,['n'],1,right,['e'],1,0.307980999998108,0.2,1,0,AccFast,34,19,Man,Right,
38,12,1,1.1011743000017304,['c'],0,right,['u'],0,0.1823340000009921,0.1,1,0,AccFast,34,19,Man,Right,
39,12,1,0.6679207000015595,['c'],0,right,['u'],0,0.5024459999985993,0.4,1,0,AccFast,34,19,Man,Right,
40,12,1,1.0348068000021158,['n'],1,right,['u'],0,0.28354159999798867,0.1,0,0,AccFast,34,19,Man,Right,
41,12,1,0.7519799000001512,['n'],1,right,['u'],0,0.252422800000204,0.2,0,0,AccFast,34,19,Man,Right,
42,12,1,1.151676999998017,['n'],1,right,['u'],0,0.2308378999987326,0.4,0,0,AccFast,34,19,Man,Right,
43,12,1,1.0345539000009012,['n'],1,right,['u'],0,0.24637989999973797,0.4,0,0,AccFast,34,19,Man,Right,
44,12,1,0.7346305999999458,['c'],0,right,['u'],0,0.23389899999892805,0.4,1,0,AccFast,34,19,Man,Right,
45,12,1,0.5663501000017277,['c'],1,left,['u'],0,0.300075499999366,0.4,0,0,AccFast,34,19,Man,Right,
46,12,1,1.501048300000548,['n'],1,right,['u'],0,0.4935970000005909,0.2,0,0,AccFast,34,19,Man,Right,
47,12,1,0.5683710999983305,['c'],1,left,['u'],0,0.30992549999791663,0.1,0,0,AccFast,34,19,Man,Right,
48,12,1,0.9513888000001316,['n'],1,right,['u'],0,0.639017600002262,0.4,0,0,AccFast,34,19,Man,Right,
49,12,1,0.7009070999993128,['c'],1,left,['u'],0,0.5950847000021895,0.1,0,0,AccFast,34,19,Man,Right,
50,12,1,0.6008590999990702,['c'],1,left,['u'],0,0.4774990000005346,0.2,0,0,AccFast,34,19,Man,Right,
51,12,1,0.5673408999973617,['n'],1,right,['u'],0,0.358802899998409,0.1,0,0,AccFast,34,19,Man,Right,
52,12,1,0.6351322999980766,['c'],1,left,['e'],1,0.9052793000009842,0.2,1,0,AccFast,34,19,Man,Right,
53,12,1,0.5510811000021931,['n'],1,right,['e'],1,0.36982519999946817,0.4,1,0,AccFast,34,19,Man,Right,
54,12,1,1.1345174000016414,['n'],0,left,['u'],0,0.9917496999987634,0.1,1,0,AccFast,34,19,Man,Right,
55,12,1,0.4014242000012018,['c'],1,left,['e'],1,0.25886650000029476,0.1,1,0,AccFast,34,19,Man,Right,
56,12,1,0.3182980999990832,['n'],1,right,['u'],0,0.35108970000146655,0.4,0,0,AccFast,34,19,Man,Right,
57,12,1,0.6177877000009175,['c'],1,left,['u'],0,1.6819202000006044,0.1,0,0,AccFast,34,19,Man,Right,
58,12,1,3.834391999997024,['c'],0,right,['u'],0,1.5197388000015053,0.4,1,0,AccFast,34,19,Man,Right,
59,12,1,2.216469800001505,['n'],0,left,['u'],0,0.5015767000004416,0.2,1,0,AccFast,34,19,Man,Right,
