withinblocktrial,block,block_repetition,rt,resp,cor,cresp,conf_press,cj,rtconf,coherence,metacognition,slow_trial,manipulation,sub,age,gender,handedness,
0,1,1,1.9334007999996174,['c'],0,right,none,-99,-99,0.5,-99,0,none,35,18,Man,Right,
1,1,1,0.7502260999999635,['c'],1,left,none,-99,-99,0.5,-99,0,none,35,18,Man,Right,
2,1,1,2.349488200000451,['n'],1,right,none,-99,-99,0.5,-99,0,none,35,18,Man,Right,
3,1,1,0.6167248000001564,['c'],1,left,none,-99,-99,0.5,-99,0,none,35,18,Man,Right,
4,1,1,1.5335667999997895,['n'],1,right,none,-99,-99,0.5,-99,0,none,35,18,Man,Right,
5,1,1,0.5666819999996733,['c'],1,left,none,-99,-99,0.5,-99,0,none,35,18,Man,Right,
6,1,1,0.6165248999996038,['c'],1,left,none,-99,-99,0.5,-99,0,none,35,18,Man,Right,
7,1,1,0.6836322999997719,['c'],1,left,none,-99,-99,0.5,-99,0,none,35,18,Man,Right,
8,1,1,1.0161813000004258,['n'],1,right,none,-99,-99,0.5,-99,0,none,35,18,Man,Right,
9,1,1,0.9491398999998637,['n'],1,right,none,-99,-99,0.5,-99,0,none,35,18,Man,Right,
10,1,1,1.117497000000185,['c'],0,right,none,-99,-99,0.5,-99,0,none,35,18,Man,Right,
11,1,1,1.1009331999994174,['c'],0,right,none,-99,-99,0.5,-99,0,none,35,18,Man,Right,
12,1,1,1.4006688999998005,['c'],1,left,none,-99,-99,0.5,-99,0,none,35,18,Man,Right,
13,1,1,0.7490982999997868,['c'],1,left,none,-99,-99,0.5,-99,0,none,35,18,Man,Right,
14,1,1,0.8499397000005047,['n'],1,right,none,-99,-99,0.5,-99,0,none,35,18,Man,Right,
15,1,1,1.132630699999936,['n'],1,right,none,-99,-99,0.5,-99,0,none,35,18,Man,Right,
16,1,1,0.9998109999996814,['c'],0,right,none,-99,-99,0.5,-99,0,none,35,18,Man,Right,
17,1,1,0.8840499999996609,['n'],1,right,none,-99,-99,0.5,-99,0,none,35,18,Man,Right,
18,1,1,0.5839636999999129,['c'],1,left,none,-99,-99,0.5,-99,0,none,35,18,Man,Right,
19,1,1,0.5335710000008476,['c'],0,right,none,-99,-99,0.5,-99,0,none,35,18,Man,Right,
20,1,1,1.115856200000053,['c'],1,left,none,-99,-99,0.5,-99,0,none,35,18,Man,Right,
21,1,1,0.650291400000242,['c'],1,left,none,-99,-99,0.5,-99,0,none,35,18,Man,Right,
22,1,1,0.5829014000000825,['c'],1,left,none,-99,-99,0.5,-99,0,none,35,18,Man,Right,
23,1,1,0.5668018000005759,['c'],1,left,none,-99,-99,0.5,-99,0,none,35,18,Man,Right,
0,1,2,1.5173869000000195,['c'],0,right,none,-99,-99,0.5,-99,0,none,35,18,Man,Right,
1,1,2,1.516893799999707,['c'],0,right,none,-99,-99,0.5,-99,0,none,35,18,Man,Right,
2,1,2,0.9842183000000659,['c'],0,right,none,-99,-99,0.5,-99,0,none,35,18,Man,Right,
3,1,2,0.6331231000003754,['c'],1,left,none,-99,-99,0.5,-99,0,none,35,18,Man,Right,
4,1,2,0.5501274999996895,['c'],1,left,none,-99,-99,0.5,-99,0,none,35,18,Man,Right,
5,1,2,0.9987983999999415,['n'],1,right,none,-99,-99,0.5,-99,0,none,35,18,Man,Right,
6,1,2,0.5999081999998452,['c'],1,left,none,-99,-99,0.5,-99,0,none,35,18,Man,Right,
7,1,2,0.6153143999999884,['c'],1,left,none,-99,-99,0.5,-99,0,none,35,18,Man,Right,
8,1,2,1.0019318000004205,['n'],1,right,none,-99,-99,0.5,-99,0,none,35,18,Man,Right,
9,1,2,0.5512795000004189,['c'],1,left,none,-99,-99,0.5,-99,0,none,35,18,Man,Right,
10,1,2,0.9334713999996893,['c'],0,right,none,-99,-99,0.5,-99,0,none,35,18,Man,Right,
11,1,2,0.5156207999998514,['c'],1,left,none,-99,-99,0.5,-99,0,none,35,18,Man,Right,
12,1,2,0.46689580000020214,['c'],1,left,none,-99,-99,0.5,-99,0,none,35,18,Man,Right,
13,1,2,0.6328208000004452,['c'],1,left,none,-99,-99,0.5,-99,0,none,35,18,Man,Right,
14,1,2,0.6165733999996519,['c'],1,left,none,-99,-99,0.5,-99,0,none,35,18,Man,Right,
15,1,2,0.66715159999967,['c'],1,left,none,-99,-99,0.5,-99,0,none,35,18,Man,Right,
16,1,2,0.684130899999218,['n'],1,right,none,-99,-99,0.5,-99,0,none,35,18,Man,Right,
17,1,2,0.8845131000007314,['n'],1,right,none,-99,-99,0.5,-99,0,none,35,18,Man,Right,
18,1,2,0.5675899999996545,['c'],0,right,none,-99,-99,0.5,-99,0,none,35,18,Man,Right,
19,1,2,0.6834463000004689,['n'],1,right,none,-99,-99,0.5,-99,0,none,35,18,Man,Right,
20,1,2,0.43447699999978795,['c'],1,left,none,-99,-99,0.5,-99,0,none,35,18,Man,Right,
21,1,2,0.6513614000004964,['n'],1,right,none,-99,-99,0.5,-99,0,none,35,18,Man,Right,
22,1,2,0.45079750000058993,['c'],0,right,none,-99,-99,0.5,-99,0,none,35,18,Man,Right,
23,1,2,0.6828008000002228,['c'],1,left,none,-99,-99,0.5,-99,0,none,35,18,Man,Right,
0,1,3,1.0674192999995284,['c'],1,left,none,-99,-99,0.5,-99,0,none,35,18,Man,Right,
1,1,3,0.683660300000156,['c'],1,left,none,-99,-99,0.5,-99,0,none,35,18,Man,Right,
2,1,3,0.5828746999995928,['n'],1,right,none,-99,-99,0.5,-99,0,none,35,18,Man,Right,
3,1,3,0.7839697999997952,['n'],1,right,none,-99,-99,0.5,-99,0,none,35,18,Man,Right,
4,1,3,0.7001909000000524,['c'],1,left,none,-99,-99,0.5,-99,0,none,35,18,Man,Right,
5,1,3,0.43413460000010673,['c'],1,left,none,-99,-99,0.5,-99,0,none,35,18,Man,Right,
6,1,3,0.49984309999945253,['n'],1,right,none,-99,-99,0.5,-99,0,none,35,18,Man,Right,
7,1,3,0.4324750000005224,['c'],1,left,none,-99,-99,0.5,-99,0,none,35,18,Man,Right,
8,1,3,0.5155052000000069,['n'],1,right,none,-99,-99,0.5,-99,0,none,35,18,Man,Right,
9,1,3,0.30085800000051677,['c'],0,right,none,-99,-99,0.5,-99,0,none,35,18,Man,Right,
10,1,3,0.8013956000004328,['c'],0,right,none,-99,-99,0.5,-99,0,none,35,18,Man,Right,
11,1,3,0.517106799999965,['c'],1,left,none,-99,-99,0.5,-99,0,none,35,18,Man,Right,
12,1,3,0.6173150000004171,['n'],1,right,none,-99,-99,0.5,-99,0,none,35,18,Man,Right,
13,1,3,0.38346659999933763,['c'],1,left,none,-99,-99,0.5,-99,0,none,35,18,Man,Right,
14,1,3,0.5007721000001766,['n'],1,right,none,-99,-99,0.5,-99,0,none,35,18,Man,Right,
15,1,3,0.35030430000006163,['c'],1,left,none,-99,-99,0.5,-99,0,none,35,18,Man,Right,
16,1,3,0.6159396000002744,['n'],1,right,none,-99,-99,0.5,-99,0,none,35,18,Man,Right,
17,1,3,0.5505349000004571,['n'],1,right,none,-99,-99,0.5,-99,0,none,35,18,Man,Right,
18,1,3,0.3167783999997482,['c'],1,left,none,-99,-99,0.5,-99,0,none,35,18,Man,Right,
19,1,3,0.46667600000000675,['c'],1,left,none,-99,-99,0.5,-99,0,none,35,18,Man,Right,
20,1,3,0.5004043999997521,['c'],1,left,none,-99,-99,0.5,-99,0,none,35,18,Man,Right,
21,1,3,0.46787749999930384,['c'],1,left,none,-99,-99,0.5,-99,0,none,35,18,Man,Right,
22,1,3,0.5672734999998283,['n'],1,right,none,-99,-99,0.5,-99,0,none,35,18,Man,Right,
23,1,3,0.38382739999997284,['c'],0,right,none,-99,-99,0.5,-99,0,none,35,18,Man,Right,
0,2,1,0.9172908000000461,['c'],1,left,none,-99,-99,0.1,-99,0,none,35,18,Man,Right,
1,2,1,0.7675342000002274,['n'],1,right,none,-99,-99,0.4,-99,0,none,35,18,Man,Right,
2,2,1,0.43380419999994047,['c'],1,left,none,-99,-99,0.4,-99,0,none,35,18,Man,Right,
3,2,1,0.4669721000000209,['n'],1,right,none,-99,-99,0.2,-99,0,none,35,18,Man,Right,
4,2,1,0.33347349999985454,['c'],1,left,none,-99,-99,0.2,-99,0,none,35,18,Man,Right,
5,2,1,0.4835711000005176,['c'],1,left,none,-99,-99,0.4,-99,0,none,35,18,Man,Right,
6,2,1,0.5006766000005882,['n'],1,right,none,-99,-99,0.4,-99,0,none,35,18,Man,Right,
7,2,1,0.3175051000007443,['c'],0,right,none,-99,-99,0.1,-99,0,none,35,18,Man,Right,
8,2,1,0.4500890999997864,['c'],0,right,none,-99,-99,0.1,-99,0,none,35,18,Man,Right,
9,2,1,0.48362139999971987,['c'],1,left,none,-99,-99,0.1,-99,0,none,35,18,Man,Right,
10,2,1,0.6004526000006081,['n'],0,left,none,-99,-99,0.2,-99,0,none,35,18,Man,Right,
11,2,1,0.6836041999995359,['n'],1,right,none,-99,-99,0.4,-99,0,none,35,18,Man,Right,
12,2,1,0.6001058000001649,['n'],0,left,none,-99,-99,0.4,-99,0,none,35,18,Man,Right,
13,2,1,0.8339986999999383,['c'],1,left,none,-99,-99,0.2,-99,0,none,35,18,Man,Right,
14,2,1,0.5503439999993134,['c'],1,left,none,-99,-99,0.1,-99,0,none,35,18,Man,Right,
15,2,1,0.4158155999994051,['n'],1,right,none,-99,-99,0.4,-99,0,none,35,18,Man,Right,
16,2,1,0.5004214000000502,['c'],0,right,none,-99,-99,0.4,-99,0,none,35,18,Man,Right,
17,2,1,0.3838132000000769,['c'],0,right,none,-99,-99,0.2,-99,0,none,35,18,Man,Right,
18,2,1,0.6501925000002302,['n'],1,right,none,-99,-99,0.2,-99,0,none,35,18,Man,Right,
19,2,1,0.7163959999998042,['n'],0,left,none,-99,-99,0.2,-99,0,none,35,18,Man,Right,
20,2,1,0.7336689000003389,['c'],1,left,none,-99,-99,0.1,-99,0,none,35,18,Man,Right,
21,2,1,0.7995528000001286,['n'],0,left,none,-99,-99,0.1,-99,0,none,35,18,Man,Right,
22,2,1,0.7173466000003828,['c'],0,right,none,-99,-99,0.1,-99,0,none,35,18,Man,Right,
23,2,1,0.733629700000165,['c'],0,right,none,-99,-99,0.2,-99,0,none,35,18,Man,Right,
0,2,2,0.5671256000005087,['n'],1,right,none,-99,-99,0.1,-99,0,none,35,18,Man,Right,
1,2,2,0.7168075999998109,['n'],1,right,none,-99,-99,0.4,-99,0,none,35,18,Man,Right,
2,2,2,0.5001464999995733,['c'],0,right,none,-99,-99,0.4,-99,0,none,35,18,Man,Right,
3,2,2,1.0834154000003764,['n'],1,right,none,-99,-99,0.2,-99,0,none,35,18,Man,Right,
4,2,2,0.6829028000001927,['n'],0,left,none,-99,-99,0.2,-99,0,none,35,18,Man,Right,
5,2,2,0.7502128999994966,['c'],0,right,none,-99,-99,0.4,-99,0,none,35,18,Man,Right,
6,2,2,0.6834601999998995,['c'],0,right,none,-99,-99,0.4,-99,0,none,35,18,Man,Right,
7,2,2,0.5833708000000115,['n'],1,right,none,-99,-99,0.1,-99,0,none,35,18,Man,Right,
8,2,2,0.667370000000119,['c'],0,right,none,-99,-99,0.1,-99,0,none,35,18,Man,Right,
9,2,2,1.0829045000000406,['n'],0,left,none,-99,-99,0.1,-99,0,none,35,18,Man,Right,
10,2,2,1.5668323999998393,['n'],0,left,none,-99,-99,0.2,-99,0,none,35,18,Man,Right,
11,2,2,1.4492860000000292,['c'],1,left,none,-99,-99,0.4,-99,0,none,35,18,Man,Right,
12,2,2,1.017180599999847,['n'],1,right,none,-99,-99,0.4,-99,0,none,35,18,Man,Right,
13,2,2,0.8177096999997957,['c'],1,left,none,-99,-99,0.2,-99,0,none,35,18,Man,Right,
14,2,2,1.7004905000003419,['n'],1,right,none,-99,-99,0.1,-99,0,none,35,18,Man,Right,
15,2,2,0.8501039000002493,['c'],1,left,none,-99,-99,0.4,-99,0,none,35,18,Man,Right,
16,2,2,0.7994826000003741,['c'],1,left,none,-99,-99,0.4,-99,0,none,35,18,Man,Right,
17,2,2,0.699074300000575,['c'],1,left,none,-99,-99,0.2,-99,0,none,35,18,Man,Right,
18,2,2,0.6179696999997759,['c'],1,left,none,-99,-99,0.2,-99,0,none,35,18,Man,Right,
19,2,2,0.6660726000000068,['n'],0,left,none,-99,-99,0.2,-99,0,none,35,18,Man,Right,
20,2,2,0.7487811999999394,['n'],0,left,none,-99,-99,0.1,-99,0,none,35,18,Man,Right,
21,2,2,0.9672460000001593,['n'],1,right,none,-99,-99,0.1,-99,0,none,35,18,Man,Right,
22,2,2,0.8823541000001569,['c'],1,left,none,-99,-99,0.1,-99,0,none,35,18,Man,Right,
23,2,2,0.7496625000003405,['c'],0,right,none,-99,-99,0.2,-99,0,none,35,18,Man,Right,
0,2,3,0.5507736999998087,['n'],1,right,none,-99,-99,0.1,-99,0,none,35,18,Man,Right,
1,2,3,0.5335676000004241,['c'],1,left,none,-99,-99,0.4,-99,0,none,35,18,Man,Right,
2,2,3,0.6004095999996935,['n'],1,right,none,-99,-99,0.4,-99,0,none,35,18,Man,Right,
3,2,3,0.6007011000001512,['c'],0,right,none,-99,-99,0.2,-99,0,none,35,18,Man,Right,
4,2,3,0.9502071000006254,['c'],1,left,none,-99,-99,0.2,-99,0,none,35,18,Man,Right,
5,2,3,0.7336003000000346,['c'],1,left,none,-99,-99,0.4,-99,0,none,35,18,Man,Right,
6,2,3,0.5337262000002738,['n'],1,right,none,-99,-99,0.4,-99,0,none,35,18,Man,Right,
7,2,3,0.49996120000014344,['c'],1,left,none,-99,-99,0.1,-99,0,none,35,18,Man,Right,
8,2,3,0.4173598999996102,['c'],1,left,none,-99,-99,0.1,-99,0,none,35,18,Man,Right,
9,2,3,0.5502610000003187,['n'],0,left,none,-99,-99,0.1,-99,0,none,35,18,Man,Right,
10,2,3,0.6669301000001724,['c'],0,right,none,-99,-99,0.2,-99,0,none,35,18,Man,Right,
11,2,3,0.7668810000004669,['n'],1,right,none,-99,-99,0.4,-99,0,none,35,18,Man,Right,
12,2,3,0.6174605000005613,['c'],1,left,none,-99,-99,0.4,-99,0,none,35,18,Man,Right,
13,2,3,0.500017299999854,['n'],1,right,none,-99,-99,0.2,-99,0,none,35,18,Man,Right,
14,2,3,0.3835893000004944,['c'],1,left,none,-99,-99,0.1,-99,0,none,35,18,Man,Right,
15,2,3,0.33330910000040603,['n'],1,right,none,-99,-99,0.4,-99,0,none,35,18,Man,Right,
16,2,3,0.3671087000002444,['c'],1,left,none,-99,-99,0.4,-99,0,none,35,18,Man,Right,
17,2,3,0.4332146000006105,['n'],0,left,none,-99,-99,0.2,-99,0,none,35,18,Man,Right,
18,2,3,0.5329896000002918,['n'],1,right,none,-99,-99,0.2,-99,0,none,35,18,Man,Right,
19,2,3,0.5673729999998613,['c'],0,right,none,-99,-99,0.2,-99,0,none,35,18,Man,Right,
20,2,3,0.46744979999948555,['n'],1,right,none,-99,-99,0.1,-99,0,none,35,18,Man,Right,
21,2,3,0.6333821999996871,['n'],0,left,none,-99,-99,0.1,-99,0,none,35,18,Man,Right,
22,2,3,0.6335360000002765,['n'],0,left,none,-99,-99,0.1,-99,0,none,35,18,Man,Right,
23,2,3,0.6995554000004631,['c'],0,right,none,-99,-99,0.2,-99,0,none,35,18,Man,Right,
0,3,1,1.067491599999812,['n'],1,right,['e'],0,1.1090432999999393,0.2,0,0,none,35,18,Man,Right,
1,3,1,1.2004970000007233,['n'],1,right,['e'],0,0.7356700999998793,0.2,0,0,none,35,18,Man,Right,
2,3,1,1.033377699999619,['c'],1,left,['u'],1,0.48005879999982426,0.1,1,0,none,35,18,Man,Right,
3,3,1,1.1340884000001097,['c'],1,left,['u'],1,0.3572009999998045,0.2,1,0,none,35,18,Man,Right,
4,3,1,0.8843799999995099,['c'],0,right,['u'],1,0.2982531999996354,0.1,0,0,none,35,18,Man,Right,
5,3,1,0.6343347000001813,['n'],1,right,['u'],1,0.2514307999999801,0.4,1,0,none,35,18,Man,Right,
6,3,1,0.7007156999998188,['n'],1,right,['e'],0,0.651659699999982,0.4,0,0,none,35,18,Man,Right,
7,3,1,0.8679542999998375,['c'],0,right,['e'],0,0.26142370000070514,0.4,1,0,none,35,18,Man,Right,
8,3,1,0.7345628000002762,['c'],1,left,['u'],1,0.26055820000055974,0.1,1,0,none,35,18,Man,Right,
9,3,1,0.7180495000002338,['c'],1,left,['u'],1,0.30823830000008456,0.4,1,0,none,35,18,Man,Right,
10,3,1,1.4346742999996422,['c'],1,left,['u'],1,0.8054707999999664,0.4,1,0,none,35,18,Man,Right,
11,3,1,1.3675616000000446,['n'],1,right,['e'],0,0.37332789999982197,0.4,0,0,none,35,18,Man,Right,
12,3,1,0.7338279000005059,['c'],0,right,['u'],1,0.6556734000005235,0.4,0,0,none,35,18,Man,Right,
13,3,1,1.1674681000004057,['c'],1,left,['u'],1,0.797457000000577,0.4,1,0,none,35,18,Man,Right,
14,3,1,0.6172148000005109,['c'],1,left,['u'],1,0.4275057000004381,0.1,1,0,none,35,18,Man,Right,
15,3,1,1.1674368000003597,['c'],1,left,['u'],1,0.4347029000000475,0.2,1,0,none,35,18,Man,Right,
16,3,1,1.6344060999999783,['c'],1,left,['u'],1,0.502545100000134,0.1,1,0,none,35,18,Man,Right,
17,3,1,1.251021000000037,['c'],1,left,['u'],1,0.32697149999967223,0.2,1,0,none,35,18,Man,Right,
18,3,1,2.167020500000035,['n'],0,left,['u'],1,1.4822864999996455,0.1,0,0,none,35,18,Man,Right,
19,3,1,0.5838739999999234,['c'],0,right,['u'],1,1.2303330999993705,0.2,0,0,none,35,18,Man,Right,
20,3,1,1.0003851000001305,['n'],1,right,['e'],0,2.012112000000343,0.1,0,0,none,35,18,Man,Right,
21,3,1,0.9508562000000893,['n'],1,right,['e'],0,0.6203213999997388,0.1,0,0,none,35,18,Man,Right,
22,3,1,1.3176682000002984,['n'],0,left,['e'],0,2.3094241999997394,0.2,1,0,none,35,18,Man,Right,
23,3,1,0.8506855999994514,['c'],0,right,['u'],1,0.41430809999928897,0.2,0,0,none,35,18,Man,Right,
0,4,1,2.6337960999990173,['c'],1,left,['u'],1,0.3965647999993962,0.4,1,0,AccFast,35,18,Man,Right,
1,4,1,4.382395999999062,['c'],1,left,['u'],1,0.7683039999992616,0.2,1,0,AccFast,35,18,Man,Right,
2,4,1,0.7173222999990685,['n'],1,right,['u'],1,0.34362719999990077,0.1,1,0,AccFast,35,18,Man,Right,
3,4,1,0.6845175999987987,['c'],1,left,['u'],1,0.3692568000005849,0.2,1,0,AccFast,35,18,Man,Right,
4,4,1,2.816977799999222,['n'],1,right,['u'],1,0.10089390000030107,0.1,1,0,AccFast,35,18,Man,Right,
5,4,1,2.5498829999996815,['c'],0,right,['u'],1,0.046004900001207716,0.2,0,0,AccFast,35,18,Man,Right,
6,4,1,2.7663728000006813,['n'],1,right,['u'],1,0.04785230000015872,0.4,1,0,AccFast,35,18,Man,Right,
7,4,1,2.0504359000005934,['n'],0,left,['u'],1,0.07845389999965846,0.4,0,0,AccFast,35,18,Man,Right,
8,4,1,1.067473199998858,['c'],0,right,['u'],1,0.03498299999955634,0.1,0,0,AccFast,35,18,Man,Right,
9,4,1,3.3819056000011187,['c'],0,right,['u'],1,0.01431380000030913,0.4,0,0,AccFast,35,18,Man,Right,
10,4,1,4.500342599998476,['n'],1,right,['e'],0,0.044014099999913014,0.1,0,0,AccFast,35,18,Man,Right,
11,4,1,3.1499038000001747,['c'],0,right,['u'],1,0.04702270000052522,0.2,0,0,AccFast,35,18,Man,Right,
12,4,1,0.8666384000007383,['c'],0,right,['u'],1,0.045760599999994156,0.2,0,0,AccFast,35,18,Man,Right,
13,4,1,0.6676065000010567,['c'],1,left,['u'],1,0.035035199998674216,0.2,1,0,AccFast,35,18,Man,Right,
14,4,1,2.2836528999996517,['c'],1,left,['u'],1,0.12062310000146681,0.1,1,0,AccFast,35,18,Man,Right,
15,4,1,1.8485347000005277,['c'],0,right,['u'],1,0.25404319999870495,0.1,0,0,AccFast,35,18,Man,Right,
16,4,1,1.7500727999995433,['c'],1,left,['u'],1,0.7201882999997906,0.2,1,0,AccFast,35,18,Man,Right,
17,4,1,2.633868099999745,['c'],0,right,['u'],1,0.1242456999989372,0.2,0,0,AccFast,35,18,Man,Right,
18,4,1,2.050535200000013,['n'],1,right,['u'],1,0.10433730000113428,0.4,1,0,AccFast,35,18,Man,Right,
19,4,1,4.633459700000458,['c'],0,right,['u'],1,0.0465319000013551,0.1,0,0,AccFast,35,18,Man,Right,
20,4,1,2.733549500000663,['n'],0,left,['u'],1,0.06611270000030345,0.1,0,0,AccFast,35,18,Man,Right,
21,4,1,5.01628460000029,x,-99,left,none,-99,-99,0.1,-99,1,AccFast,35,18,Man,Right,
22,4,1,0.7502825999999914,['c'],1,left,['u'],1,0.09470780000083323,0.2,1,0,AccFast,35,18,Man,Right,
23,4,1,1.350673500000994,['n'],1,right,['u'],1,0.0558084999993298,0.1,1,0,AccFast,35,18,Man,Right,
24,4,1,1.500535299999683,['c'],0,right,['u'],1,0.15613940000002913,0.1,0,0,AccFast,35,18,Man,Right,
25,4,1,1.4334269999999378,['n'],1,right,['u'],1,0.07999919999929261,0.4,1,0,AccFast,35,18,Man,Right,
26,4,1,1.9665636000008817,['n'],1,right,['e'],0,0.17598410000027798,0.2,0,0,AccFast,35,18,Man,Right,
27,4,1,1.01746490000005,['c'],1,left,['u'],1,0.09935170000062499,0.4,1,0,AccFast,35,18,Man,Right,
28,4,1,0.9010271999995894,['c'],1,left,['u'],1,0.14176669999869773,0.4,1,0,AccFast,35,18,Man,Right,
29,4,1,1.9667468999996345,['n'],0,left,['e'],0,0.1083758000004309,0.2,1,0,AccFast,35,18,Man,Right,
30,4,1,3.783606000000873,['c'],1,left,['e'],0,0.4680164000001241,0.1,0,0,AccFast,35,18,Man,Right,
31,4,1,1.3166127999993478,['c'],1,left,['u'],1,0.048315500000171596,0.4,1,0,AccFast,35,18,Man,Right,
32,4,1,1.9669865999985632,['n'],1,right,['e'],0,0.14554990000033285,0.4,0,0,AccFast,35,18,Man,Right,
33,4,1,2.2339303999997355,['c'],0,right,['u'],1,0.06912809999994352,0.1,0,0,AccFast,35,18,Man,Right,
34,4,1,3.666189300000042,['n'],1,right,['e'],0,0.11438509999970847,0.2,0,0,AccFast,35,18,Man,Right,
35,4,1,2.8329718000004505,['c'],1,left,['u'],1,0.09532490000128746,0.2,1,0,AccFast,35,18,Man,Right,
36,4,1,1.2506421999987651,['c'],1,left,['u'],1,0.10784750000129861,0.1,1,0,AccFast,35,18,Man,Right,
37,4,1,1.1000051999999414,['c'],1,left,['u'],1,0.17439779999949678,0.4,1,0,AccFast,35,18,Man,Right,
38,4,1,2.300521100001788,['n'],0,left,['e'],0,0.6705010000005132,0.4,1,0,AccFast,35,18,Man,Right,
39,4,1,1.2340488999998342,['n'],1,right,['u'],1,0.19750440000098024,0.2,1,0,AccFast,35,18,Man,Right,
40,4,1,1.0508057000006374,['c'],0,right,['u'],1,0.10197250000055647,0.1,0,0,AccFast,35,18,Man,Right,
41,4,1,2.033613699999478,['n'],0,left,['e'],0,0.14691169999969134,0.2,1,0,AccFast,35,18,Man,Right,
42,4,1,3.40045900000041,['c'],1,left,['u'],1,0.18393469999864465,0.1,1,0,AccFast,35,18,Man,Right,
43,4,1,2.8833866999993916,['n'],1,right,['e'],0,0.20860849999917264,0.1,0,0,AccFast,35,18,Man,Right,
44,4,1,2.550199799999973,['n'],0,left,['e'],0,0.16478549999919778,0.2,1,0,AccFast,35,18,Man,Right,
45,4,1,2.5336580999992293,['n'],1,right,['e'],0,0.1396549999990384,0.2,0,0,AccFast,35,18,Man,Right,
46,4,1,3.998475899999903,['n'],0,left,['e'],0,0.4575246000003972,0.4,1,0,AccFast,35,18,Man,Right,
47,4,1,3.166171700000632,['n'],1,right,['e'],0,0.44362120000005234,0.4,0,0,AccFast,35,18,Man,Right,
48,4,1,1.1505615000005491,['c'],1,left,['u'],1,0.19089999999960128,0.4,1,0,AccFast,35,18,Man,Right,
49,4,1,1.2001433000004909,['n'],0,left,['u'],1,0.23427260000062233,0.1,0,0,AccFast,35,18,Man,Right,
50,4,1,1.0670109000002412,['c'],1,left,['u'],1,0.10460440000133531,0.4,1,0,AccFast,35,18,Man,Right,
51,4,1,0.7841795000003913,['c'],1,left,['u'],1,0.11979880000035337,0.4,1,0,AccFast,35,18,Man,Right,
52,4,1,0.7509062999997695,['c'],1,left,['u'],1,0.13543790000039735,0.4,1,0,AccFast,35,18,Man,Right,
53,4,1,1.051037900000665,['n'],1,right,['e'],0,0.18673999999919033,0.4,0,0,AccFast,35,18,Man,Right,
54,4,1,1.3666687999993883,['c'],1,left,['u'],1,0.27122810000037134,0.2,1,0,AccFast,35,18,Man,Right,
55,4,1,0.9174008999998478,['c'],1,left,['u'],1,0.7708251000003656,0.1,1,0,AccFast,35,18,Man,Right,
56,4,1,4.016751299999669,['n'],1,right,['e'],0,0.7103468000004796,0.4,0,0,AccFast,35,18,Man,Right,
57,4,1,1.1161689000000479,['c'],0,right,['u'],1,0.08024859999932232,0.1,0,0,AccFast,35,18,Man,Right,
58,4,1,1.9005110999987664,['c'],0,right,['e'],0,0.30766339999900083,0.2,1,0,AccFast,35,18,Man,Right,
59,4,1,2.0001718000003166,['n'],1,right,['e'],0,0.3143017999991571,0.2,0,0,AccFast,35,18,Man,Right,
0,5,1,2.816662000001088,['c'],0,right,['u'],1,1.470119199999317,0.2,0,0,AccAcc,35,18,Man,Right,
1,5,1,1.383266700000604,['n'],1,right,['u'],1,0.7988988999986759,0.1,1,0,AccAcc,35,18,Man,Right,
2,5,1,1.3178904999986116,['c'],1,left,['e'],0,2.7808492999993177,0.2,0,0,AccAcc,35,18,Man,Right,
3,5,1,2.217162400000234,['n'],1,right,['e'],0,2.9840745000001334,0.4,0,0,AccAcc,35,18,Man,Right,
4,5,1,3.1503908000013325,['n'],1,right,['e'],0,1.302088399999775,0.1,0,0,AccAcc,35,18,Man,Right,
5,5,1,1.033440299999711,['n'],0,left,['u'],1,0.8598267000015767,0.2,0,0,AccAcc,35,18,Man,Right,
6,5,1,1.6676735000000917,['c'],1,left,['e'],0,2.0577927000013005,0.2,0,0,AccAcc,35,18,Man,Right,
7,5,1,2.5505262999995466,['n'],0,left,['e'],0,0.4207573000003322,0.1,1,0,AccAcc,35,18,Man,Right,
8,5,1,2.3169534999997268,['n'],0,left,['e'],0,2.010255999999572,0.4,1,0,AccAcc,35,18,Man,Right,
9,5,1,1.0670448999990185,['c'],1,left,['u'],1,1.9070114999994985,0.4,1,0,AccAcc,35,18,Man,Right,
10,5,1,0.800797900001271,['c'],1,left,['u'],1,2.1214380000001256,0.4,1,0,AccAcc,35,18,Man,Right,
11,5,1,1.3506522999996378,['c'],1,left,['u'],1,3.5056150000000343,0.4,1,0,AccAcc,35,18,Man,Right,
12,5,1,1.9171793999994406,['n'],1,right,['u'],1,0.8441906999996718,0.1,1,0,AccAcc,35,18,Man,Right,
13,5,1,1.5339366999996855,['c'],1,left,['e'],0,0.6886936000009882,0.1,0,0,AccAcc,35,18,Man,Right,
14,5,1,3.200678799999878,['n'],1,right,['e'],0,0.7438700999991852,0.1,0,0,AccAcc,35,18,Man,Right,
15,5,1,1.732884600000034,['n'],1,right,['e'],0,0.3450572000001557,0.1,0,0,AccAcc,35,18,Man,Right,
16,5,1,2.234033900000213,['c'],1,left,['e'],0,0.548195699999269,0.1,0,0,AccAcc,35,18,Man,Right,
17,5,1,2.717775099999926,['c'],0,right,['u'],1,0.3886073000012402,0.4,0,0,AccAcc,35,18,Man,Right,
18,5,1,3.4166990000012447,['n'],1,right,['e'],0,1.4711668999989342,0.4,0,0,AccAcc,35,18,Man,Right,
19,5,1,1.6165706000010687,['n'],1,right,['e'],0,0.9669838999998319,0.1,0,0,AccAcc,35,18,Man,Right,
20,5,1,2.6673250000003463,['c'],0,right,['u'],1,0.376516399999673,0.1,0,0,AccAcc,35,18,Man,Right,
21,5,1,3.5663091000005807,['c'],1,left,['e'],0,1.2781391000007716,0.1,0,0,AccAcc,35,18,Man,Right,
22,5,1,2.5175013999996736,['n'],1,right,['e'],0,1.9939088000010088,0.2,0,0,AccAcc,35,18,Man,Right,
23,5,1,1.1173928000007436,['c'],1,left,['u'],1,0.448653600000398,0.4,1,0,AccAcc,35,18,Man,Right,
24,5,1,1.4340573999998014,['c'],1,left,['u'],1,0.6159611999992194,0.4,1,0,AccAcc,35,18,Man,Right,
25,5,1,3.2658863000015117,['c'],0,right,['e'],0,0.44795560000056867,0.1,1,0,AccAcc,35,18,Man,Right,
26,5,1,2.5006783999997424,['n'],0,left,['e'],0,1.1484517000008054,0.1,1,0,AccAcc,35,18,Man,Right,
27,5,1,5.015944200000376,x,-99,right,none,-99,-99,0.2,-99,1,AccAcc,35,18,Man,Right,
28,5,1,3.066977600001337,['n'],0,left,['e'],0,1.1058365000008052,0.1,1,0,AccAcc,35,18,Man,Right,
29,5,1,1.4167473000015889,['c'],1,left,['e'],0,0.6239771999989898,0.2,0,0,AccAcc,35,18,Man,Right,
30,5,1,2.0503475999994407,['c'],1,left,['e'],0,0.9520293999994465,0.2,0,0,AccAcc,35,18,Man,Right,
31,5,1,2.5998715000005177,['c'],1,left,['e'],0,0.5249696000009862,0.1,0,0,AccAcc,35,18,Man,Right,
32,5,1,2.500720199999705,['n'],1,right,['e'],0,0.4551327000008314,0.4,0,0,AccAcc,35,18,Man,Right,
33,5,1,2.683679100000518,['c'],0,right,['e'],0,0.49253630000021076,0.4,1,0,AccAcc,35,18,Man,Right,
34,5,1,3.7005260000005364,['n'],1,right,['e'],0,0.9203176000009989,0.4,0,0,AccAcc,35,18,Man,Right,
35,5,1,1.0837778000004619,['c'],1,left,['u'],1,0.3310381999999663,0.4,1,0,AccAcc,35,18,Man,Right,
36,5,1,0.8501495000000432,['c'],1,left,['u'],1,0.5102115999998205,0.4,1,0,AccAcc,35,18,Man,Right,
37,5,1,1.2509528000009595,['c'],0,right,['u'],1,0.6188211999997293,0.1,0,0,AccAcc,35,18,Man,Right,
38,5,1,0.9339848999989044,['c'],1,left,['u'],1,0.41544620000058785,0.2,1,0,AccAcc,35,18,Man,Right,
39,5,1,1.2669350000014674,['c'],0,right,['e'],0,0.8785410000000411,0.4,1,0,AccAcc,35,18,Man,Right,
40,5,1,1.117302099999506,['c'],0,right,['u'],1,0.8493323999991844,0.2,0,0,AccAcc,35,18,Man,Right,
41,5,1,2.2671159000001353,['c'],0,right,['e'],0,1.2877000000007683,0.2,1,0,AccAcc,35,18,Man,Right,
42,5,1,0.9836575999997876,['c'],1,left,['u'],1,0.5755915999998251,0.4,1,0,AccAcc,35,18,Man,Right,
43,5,1,3.05012859999988,['c'],1,left,['e'],0,0.44977860000108194,0.2,0,0,AccAcc,35,18,Man,Right,
44,5,1,3.316408999999112,['c'],0,right,['e'],0,0.9741716999997152,0.1,1,0,AccAcc,35,18,Man,Right,
45,5,1,5.016085500001282,x,-99,right,none,-99,-99,0.1,-99,1,AccAcc,35,18,Man,Right,
46,5,1,1.8004197999998723,['n'],0,left,['u'],1,1.2292380999988382,0.2,0,0,AccAcc,35,18,Man,Right,
47,5,1,3.433057900001586,['c'],0,right,['e'],0,1.077670799999396,0.2,1,0,AccAcc,35,18,Man,Right,
48,5,1,2.383835900000122,['n'],0,left,['e'],0,1.3106659999994008,0.2,1,0,AccAcc,35,18,Man,Right,
49,5,1,0.8503813999996055,['c'],1,left,['e'],0,3.355325200000152,0.2,0,0,AccAcc,35,18,Man,Right,
50,5,1,3.0833930000007967,['c'],1,left,['e'],0,0.5255350999996153,0.1,0,0,AccAcc,35,18,Man,Right,
51,5,1,1.6841222000002745,['c'],1,left,['u'],1,1.0961147999987588,0.4,1,0,AccAcc,35,18,Man,Right,
52,5,1,1.7172370000007504,['n'],1,right,['u'],1,1.0824020000000019,0.2,1,0,AccAcc,35,18,Man,Right,
53,5,1,3.749858099999983,['c'],1,left,['e'],0,1.6121195999985503,0.2,0,0,AccAcc,35,18,Man,Right,
54,5,1,1.8001769000002241,['n'],1,right,['u'],1,1.1745295000000624,0.2,1,0,AccAcc,35,18,Man,Right,
55,5,1,1.9674099999992904,['c'],1,left,['e'],0,2.4280335000003106,0.4,0,0,AccAcc,35,18,Man,Right,
56,5,1,2.299872499999765,['n'],1,right,['e'],0,0.8818586999987019,0.2,0,0,AccAcc,35,18,Man,Right,
57,5,1,4.600509699999748,"['n', 'c']",1,right,['e'],0,2.121679799998674,0.1,0,0,AccAcc,35,18,Man,Right,
58,5,1,1.4005572000005486,['c'],0,right,['e'],0,0.6401638000006642,0.4,1,0,AccAcc,35,18,Man,Right,
59,5,1,0.6670444999999745,['n'],1,right,['e'],0,0.46252280000044266,0.4,0,0,AccAcc,35,18,Man,Right,
0,6,1,0.8505712000005587,['n'],0,left,['e'],0,2.2290658999991138,0.1,1,0,FastAcc,35,18,Man,Right,
1,6,1,0.5672914999995555,['n'],1,right,['u'],1,0.48784929999965243,0.1,1,0,FastAcc,35,18,Man,Right,
2,6,1,0.8841378999986773,['c'],1,left,['u'],1,1.2198559999997087,0.4,1,0,FastAcc,35,18,Man,Right,
3,6,1,0.9171196000006603,['n'],1,right,['u'],1,0.5134140999998635,0.1,1,0,FastAcc,35,18,Man,Right,
4,6,1,0.6673445999986143,['c'],1,left,['u'],1,2.7881666000012046,0.4,1,0,FastAcc,35,18,Man,Right,
5,6,1,1.01684959999875,['c'],1,left,['u'],1,1.3593781999989005,0.2,1,0,FastAcc,35,18,Man,Right,
6,6,1,0.634054099999048,['n'],1,right,['u'],1,0.7226417000001675,0.4,1,0,FastAcc,35,18,Man,Right,
7,6,1,1.3835880999995425,['c'],0,right,['u'],1,0.7052082999998674,0.2,0,0,FastAcc,35,18,Man,Right,
8,6,1,0.8677212999991752,['c'],0,right,['e'],0,2.1331955999994534,0.1,1,0,FastAcc,35,18,Man,Right,
9,6,1,0.8343578999993042,['c'],1,left,['e'],0,0.5776108999998542,0.1,0,0,FastAcc,35,18,Man,Right,
10,6,1,0.46730959999877086,['c'],1,left,['u'],1,1.6584317999986524,0.1,1,0,FastAcc,35,18,Man,Right,
11,6,1,0.6834216000006563,['c'],1,left,['u'],1,0.9120349000004353,0.1,1,0,FastAcc,35,18,Man,Right,
12,6,1,0.8172369000003528,['c'],1,left,['e'],0,0.7171271000006527,0.2,0,0,FastAcc,35,18,Man,Right,
13,6,1,0.7839481999999407,['c'],1,left,['e'],0,0.7235630999985005,0.4,0,0,FastAcc,35,18,Man,Right,
14,6,1,1.08411150000029,['n'],1,right,['e'],0,0.5266062999999122,0.4,0,0,FastAcc,35,18,Man,Right,
15,6,1,0.949202099998729,['c'],1,left,['e'],0,0.5193665000006149,0.1,0,0,FastAcc,35,18,Man,Right,
16,6,1,0.8503920000002836,['c'],1,left,['e'],0,0.6423634000002494,0.4,0,0,FastAcc,35,18,Man,Right,
17,6,1,0.5345254000003479,['c'],1,left,['e'],0,1.8139850000006845,0.4,0,0,FastAcc,35,18,Man,Right,
18,6,1,0.9167952999996487,['n'],1,right,['e'],0,1.0676585000001069,0.2,0,0,FastAcc,35,18,Man,Right,
19,6,1,0.6676244999998744,['c'],0,right,['e'],0,3.161199200001647,0.2,1,0,FastAcc,35,18,Man,Right,
20,6,1,0.6673510000000533,['c'],0,right,['u'],1,1.3311342999986664,0.2,0,0,FastAcc,35,18,Man,Right,
21,6,1,1.583958299999722,['n'],1,right,['e'],0,1.0092234000003373,0.4,0,0,FastAcc,35,18,Man,Right,
22,6,1,1.9843101000005845,['c'],0,right,['u'],1,0.5246738999994704,0.1,0,0,FastAcc,35,18,Man,Right,
23,6,1,4.332446099999288,['c'],1,left,['e'],0,2.4618987000012567,0.1,0,0,FastAcc,35,18,Man,Right,
24,6,1,0.6506301999997959,['c'],1,left,['e'],0,0.5640594999986206,0.2,0,0,FastAcc,35,18,Man,Right,
25,6,1,0.8343726000002789,['n'],1,right,['u'],1,0.7825916999991023,0.4,1,0,FastAcc,35,18,Man,Right,
26,6,1,0.8006797999987612,['c'],1,left,['u'],1,0.40200410000034026,0.1,1,0,FastAcc,35,18,Man,Right,
27,6,1,0.46754560000044876,['c'],0,right,['e'],0,0.5295607000007294,0.4,1,0,FastAcc,35,18,Man,Right,
28,6,1,0.934247499999401,['n'],0,left,['e'],0,0.5217321000000084,0.2,1,0,FastAcc,35,18,Man,Right,
29,6,1,0.6168963000000076,['c'],1,left,['e'],0,0.46270210000147927,0.1,0,0,FastAcc,35,18,Man,Right,
30,6,1,0.6164287999999942,['c'],1,left,['u'],1,0.6942285000004631,0.2,1,0,FastAcc,35,18,Man,Right,
31,6,1,0.5680007999999361,['c'],1,left,['u'],1,0.6784629999983736,0.2,1,0,FastAcc,35,18,Man,Right,
32,6,1,0.6507375000001048,['c'],0,right,['e'],0,0.4997781000001851,0.1,1,0,FastAcc,35,18,Man,Right,
33,6,1,0.6338314000004175,['c'],1,left,['e'],0,0.504972299999281,0.1,0,0,FastAcc,35,18,Man,Right,
34,6,1,0.617417999999816,['c'],0,right,['e'],0,0.39858189999904425,0.1,1,0,FastAcc,35,18,Man,Right,
35,6,1,0.6007150000004913,['c'],0,right,['e'],0,0.34512139999969804,0.2,1,0,FastAcc,35,18,Man,Right,
36,6,1,0.600947000000815,['n'],1,right,['u'],1,1.0454255000004196,0.2,1,0,FastAcc,35,18,Man,Right,
37,6,1,0.7673773000005895,['c'],0,right,['e'],0,0.39947809999830497,0.4,1,0,FastAcc,35,18,Man,Right,
38,6,1,0.7842729999993026,['n'],0,left,['e'],0,0.8186400000013236,0.4,1,0,FastAcc,35,18,Man,Right,
39,6,1,1.0835832000011578,['n'],1,right,['e'],0,0.5053148999995756,0.1,0,0,FastAcc,35,18,Man,Right,
40,6,1,0.5009076000005734,['c'],1,left,['u'],1,0.35576969999965513,0.4,1,0,FastAcc,35,18,Man,Right,
41,6,1,0.3672568999991199,['c'],1,left,['u'],1,2.4417910000011034,0.4,1,0,FastAcc,35,18,Man,Right,
42,6,1,0.6836571999992884,['c'],0,right,['e'],0,0.5437431999998807,0.2,1,0,FastAcc,35,18,Man,Right,
43,6,1,0.5171360000003915,['c'],1,left,['e'],0,1.1602230999997118,0.1,0,0,FastAcc,35,18,Man,Right,
44,6,1,0.767696299999443,['c'],0,right,['e'],0,0.6220830999991449,0.2,1,0,FastAcc,35,18,Man,Right,
45,6,1,0.633401999999478,['c'],1,left,['u'],1,0.5588212000002386,0.2,1,0,FastAcc,35,18,Man,Right,
46,6,1,0.9183527999994112,['c'],0,right,['e'],0,0.6625604999990173,0.4,1,0,FastAcc,35,18,Man,Right,
47,6,1,0.6176555000001827,['c'],1,left,['u'],1,0.4059997000003932,0.4,1,0,FastAcc,35,18,Man,Right,
48,6,1,0.6494546000012633,['n'],1,right,['u'],1,1.0388586000008218,0.4,1,0,FastAcc,35,18,Man,Right,
49,6,1,0.76738049999949,['c'],0,right,['u'],1,0.6330512999993516,0.1,0,0,FastAcc,35,18,Man,Right,
50,6,1,0.9840432999990298,['n'],0,left,['u'],1,0.3147423999998864,0.1,0,0,FastAcc,35,18,Man,Right,
51,6,1,0.5502035999998043,['c'],0,right,['u'],1,0.3305459000002884,0.2,0,0,FastAcc,35,18,Man,Right,
52,6,1,0.5345646000005218,['c'],1,left,['e'],0,0.602357399999164,0.4,0,0,FastAcc,35,18,Man,Right,
53,6,1,0.7176632999999129,['c'],1,left,['u'],1,0.23276090000035765,0.4,1,0,FastAcc,35,18,Man,Right,
54,6,1,0.683770599998752,['n'],1,right,['u'],1,0.4703821999992215,0.1,1,0,FastAcc,35,18,Man,Right,
55,6,1,0.7173172999991948,['n'],1,right,['u'],1,0.7133021999998164,0.2,1,0,FastAcc,35,18,Man,Right,
56,6,1,1.3009180999997625,['c'],0,right,['u'],1,0.8114327999992383,0.2,0,0,FastAcc,35,18,Man,Right,
57,6,1,1.8163250000015978,['n'],1,right,['e'],0,0.5333226000002469,0.2,0,0,FastAcc,35,18,Man,Right,
58,6,1,0.7839005999994697,['c'],1,left,['u'],1,0.27552970000033383,0.4,1,0,FastAcc,35,18,Man,Right,
59,6,1,1.117280300000857,['n'],1,right,['u'],1,0.4142878999991808,0.2,1,0,FastAcc,35,18,Man,Right,
0,7,1,0.7173743999992439,['c'],1,left,['u'],1,0.3251259000007849,0.2,1,0,FastFast,35,18,Man,Right,
1,7,1,0.70068369999899,['n'],1,right,['u'],1,0.2548378999999841,0.4,1,0,FastFast,35,18,Man,Right,
2,7,1,0.5999996999998984,['c'],1,left,['u'],1,0.3679437999999209,0.1,1,0,FastFast,35,18,Man,Right,
3,7,1,0.6009360999996716,['n'],1,right,['u'],1,0.2509085000001505,0.2,1,0,FastFast,35,18,Man,Right,
4,7,1,0.5343370999999024,['c'],0,right,['u'],1,0.2380888000006962,0.2,0,0,FastFast,35,18,Man,Right,
5,7,1,0.48417369999879156,['c'],1,left,['u'],1,0.24448709999887797,0.4,1,0,FastFast,35,18,Man,Right,
6,7,1,0.5004045000005135,['c'],1,left,['u'],1,0.23297759999877599,0.2,1,0,FastFast,35,18,Man,Right,
7,7,1,0.5005842999999004,['c'],1,left,['u'],1,0.2382054000008793,0.4,1,0,FastFast,35,18,Man,Right,
8,7,1,0.6677707999988343,['n'],0,left,['u'],1,0.2206573000003118,0.1,0,0,FastFast,35,18,Man,Right,
9,7,1,0.5996852999996918,['c'],1,left,['u'],1,0.2228334999999788,0.4,1,0,FastFast,35,18,Man,Right,
10,7,1,1.0333991999996215,['n'],0,left,['u'],1,0.1907909000001382,0.1,0,0,FastFast,35,18,Man,Right,
11,7,1,0.73436749999928,['n'],1,right,['u'],1,0.23682149999876856,0.4,1,0,FastFast,35,18,Man,Right,
12,7,1,0.600682099999176,['c'],1,left,['u'],1,0.2217438999996375,0.1,1,0,FastFast,35,18,Man,Right,
13,7,1,0.7842516000000614,['n'],1,right,['u'],1,0.15203500000097847,0.1,1,0,FastFast,35,18,Man,Right,
14,7,1,0.833424999998897,['c'],1,left,['u'],1,0.17940190000081202,0.4,1,0,FastFast,35,18,Man,Right,
15,7,1,0.7326141000012285,['c'],0,right,['e'],0,0.2101146000004519,0.2,1,0,FastFast,35,18,Man,Right,
16,7,1,0.8509543000000122,['n'],1,right,['u'],1,0.15359929999976885,0.4,1,0,FastFast,35,18,Man,Right,
17,7,1,0.5503640999995696,['c'],1,left,['u'],1,0.1759885999999824,0.2,1,0,FastFast,35,18,Man,Right,
18,7,1,0.9680089000012231,['n'],1,right,['u'],1,0.4052417000002606,0.2,1,0,FastFast,35,18,Man,Right,
19,7,1,0.7004505000004428,['n'],1,right,['u'],1,0.20377449999978126,0.1,1,0,FastFast,35,18,Man,Right,
20,7,1,0.6011607999989792,['c'],1,left,['u'],1,0.20616599999993923,0.4,1,0,FastFast,35,18,Man,Right,
21,7,1,0.7012768000004144,['n'],1,right,['u'],1,0.1726013999996212,0.1,1,0,FastFast,35,18,Man,Right,
22,7,1,0.6668364999986807,['n'],1,right,['u'],1,0.17385950000061712,0.1,1,0,FastFast,35,18,Man,Right,
23,7,1,0.900665500001196,['c'],0,right,['e'],0,0.197747200001686,0.1,1,0,FastFast,35,18,Man,Right,
24,7,1,0.6342581999997492,['n'],1,right,['u'],1,0.19854510000004666,0.2,1,0,FastFast,35,18,Man,Right,
25,7,1,0.8834475000003295,['n'],0,left,['e'],0,0.5104901000013342,0.4,1,0,FastFast,35,18,Man,Right,
26,7,1,0.85061400000086,['n'],1,right,['u'],1,0.15432139999938954,0.1,1,0,FastFast,35,18,Man,Right,
27,7,1,1.8167727000000014,['c'],1,left,['e'],0,0.8785028000002058,0.4,0,0,FastFast,35,18,Man,Right,
28,7,1,0.8007102999999915,['n'],1,right,['e'],0,0.26976639999884355,0.2,0,0,FastFast,35,18,Man,Right,
29,7,1,1.3007286000010936,['n'],0,left,['e'],0,0.2575840999998036,0.4,1,0,FastFast,35,18,Man,Right,
30,7,1,1.3505530000002182,['c'],1,left,['u'],1,0.19601650000004156,0.1,1,0,FastFast,35,18,Man,Right,
31,7,1,1.8665368000001763,['n'],1,right,['u'],1,0.4362306000002718,0.1,1,0,FastFast,35,18,Man,Right,
32,7,1,0.967525599999135,['c'],1,left,['u'],1,0.2551421999996819,0.4,1,0,FastFast,35,18,Man,Right,
33,7,1,0.7172006000000692,['c'],1,left,['u'],1,0.2984505000003992,0.2,1,0,FastFast,35,18,Man,Right,
34,7,1,0.6672020000005432,['n'],1,right,['u'],1,0.1502201999992394,0.4,1,0,FastFast,35,18,Man,Right,
35,7,1,0.7668128999994224,['c'],1,left,['u'],1,0.24412589999883494,0.4,1,0,FastFast,35,18,Man,Right,
36,7,1,0.8333899999997811,['n'],0,left,['u'],1,0.23634820000006584,0.1,0,0,FastFast,35,18,Man,Right,
37,7,1,1.2173266999998305,['c'],1,left,['u'],1,0.18050899999980174,0.2,1,0,FastFast,35,18,Man,Right,
38,7,1,0.5508625999991636,['c'],0,right,['e'],0,0.633649699999296,0.1,1,0,FastFast,35,18,Man,Right,
39,7,1,0.7163794000007329,['n'],0,left,['e'],0,0.4380261000005703,0.2,1,0,FastFast,35,18,Man,Right,
40,7,1,1.4344768000009935,['c'],1,left,['e'],0,0.5900273000006564,0.1,0,0,FastFast,35,18,Man,Right,
41,7,1,1.499900599999819,['n'],1,right,['u'],1,0.6379299000000174,0.4,1,0,FastFast,35,18,Man,Right,
42,7,1,1.4339041999992332,['c'],0,right,['u'],1,0.33340649999991,0.4,0,0,FastFast,35,18,Man,Right,
43,7,1,1.5664257999997062,['n'],0,left,['e'],0,0.5485287999999855,0.2,1,0,FastFast,35,18,Man,Right,
44,7,1,0.8168748999996751,['c'],0,right,['u'],1,0.28773849999925005,0.1,0,0,FastFast,35,18,Man,Right,
45,7,1,0.566999399999986,['c'],0,right,['u'],1,0.24016060000030848,0.2,0,0,FastFast,35,18,Man,Right,
46,7,1,0.5513234000009106,['c'],0,right,['u'],1,0.21154089999981807,0.4,0,0,FastFast,35,18,Man,Right,
47,7,1,0.5342891999989661,['c'],0,right,['u'],1,0.1845183999994333,0.1,0,0,FastFast,35,18,Man,Right,
48,7,1,0.5510534999993979,['c'],1,left,['u'],1,0.20574039999883098,0.2,1,0,FastFast,35,18,Man,Right,
49,7,1,0.5507472999997844,['c'],0,right,['u'],1,0.1620306000004348,0.1,0,0,FastFast,35,18,Man,Right,
50,7,1,0.4828216000005341,['c'],1,left,['u'],1,0.17166179999912856,0.2,1,0,FastFast,35,18,Man,Right,
51,7,1,0.5494285000004311,['c'],1,left,['u'],1,0.19335270000010496,0.1,1,0,FastFast,35,18,Man,Right,
52,7,1,0.6175696999998763,['c'],1,left,['e'],0,0.48273080000035407,0.2,0,0,FastFast,35,18,Man,Right,
53,7,1,0.6843607999999222,['c'],0,right,['u'],1,0.3264781999987463,0.1,0,0,FastFast,35,18,Man,Right,
54,7,1,0.6019228999994084,['c'],1,left,['u'],1,0.5165619999988849,0.2,1,0,FastFast,35,18,Man,Right,
55,7,1,1.3170541999988927,['c'],1,left,['u'],1,0.5414998999985983,0.4,1,0,FastFast,35,18,Man,Right,
56,7,1,1.7173214000013104,['c'],0,right,['e'],0,0.5664352999992843,0.4,1,0,FastFast,35,18,Man,Right,
57,7,1,0.751110700000936,['c'],0,right,['e'],0,0.5000756999997975,0.2,1,0,FastFast,35,18,Man,Right,
58,7,1,0.8008742000001803,['c'],0,right,['e'],0,0.3551814000002196,0.2,1,0,FastFast,35,18,Man,Right,
59,7,1,0.6341019999999844,['c'],0,right,['u'],1,0.3177353999999468,0.4,0,0,FastFast,35,18,Man,Right,
0,8,1,1.6166367000005266,['c'],0,right,['u'],1,0.28757450000011886,0.2,0,0,AccFast,35,18,Man,Right,
1,8,1,0.7670954999994137,['c'],1,left,['u'],1,0.3439033000013296,0.2,1,0,AccFast,35,18,Man,Right,
2,8,1,1.2505103000003146,['n'],0,left,['u'],1,0.2989472000008391,0.1,0,0,AccFast,35,18,Man,Right,
3,8,1,1.134235699999408,['c'],1,left,['u'],1,0.16429749999952037,0.4,1,0,AccFast,35,18,Man,Right,
4,8,1,1.6333656999995583,['n'],1,right,['u'],1,0.015318100000513368,0.2,1,0,AccFast,35,18,Man,Right,
5,8,1,3.0163267999996606,['c'],0,right,['u'],1,0.07287490000089747,0.2,0,0,AccFast,35,18,Man,Right,
6,8,1,2.216609499999322,['c'],0,right,['e'],0,0.5596722999998747,0.1,1,0,AccFast,35,18,Man,Right,
7,8,1,1.4844577000003483,['n'],0,left,['u'],1,0.04915729999993346,0.1,0,0,AccFast,35,18,Man,Right,
8,8,1,1.3506673000010778,['c'],0,right,['u'],1,0.05951610000010987,0.1,0,0,AccFast,35,18,Man,Right,
9,8,1,2.6504368999994767,['c'],0,right,['e'],0,0.05034630000045581,0.2,1,0,AccFast,35,18,Man,Right,
10,8,1,1.9672848999998678,['c'],0,right,['e'],0,0.05239160000019183,0.4,1,0,AccFast,35,18,Man,Right,
11,8,1,3.1162913000007393,['n'],0,left,['e'],0,0.104422299998987,0.2,1,0,AccFast,35,18,Man,Right,
12,8,1,2.0504940999999235,['n'],1,right,['u'],1,0.03730050000012852,0.2,1,0,AccFast,35,18,Man,Right,
13,8,1,1.9507045999998809,['c'],0,right,['u'],1,0.05702180000116641,0.4,0,0,AccFast,35,18,Man,Right,
14,8,1,1.133911499999158,['n'],1,right,['u'],1,0.02780250000068918,0.2,1,0,AccFast,35,18,Man,Right,
15,8,1,1.667372300000352,['c'],1,left,['u'],1,0.09043129999918165,0.2,1,0,AccFast,35,18,Man,Right,
16,8,1,0.9841548000003968,['c'],1,left,['u'],1,0.06648339999992459,0.4,1,0,AccFast,35,18,Man,Right,
17,8,1,1.0505381000002671,['n'],1,right,['u'],1,0.05634780000036699,0.2,1,0,AccFast,35,18,Man,Right,
18,8,1,1.0678716000002169,['c'],0,right,['u'],1,0.14185670000006212,0.4,0,0,AccFast,35,18,Man,Right,
19,8,1,0.7006624000005104,['c'],1,left,['u'],1,0.06330250000064552,0.4,1,0,AccFast,35,18,Man,Right,
20,8,1,0.650691499999084,['c'],0,right,['u'],1,0.05285270000058517,0.2,0,0,AccFast,35,18,Man,Right,
21,8,1,0.7839905000000726,['c'],1,left,['u'],1,0.02233870000054594,0.2,1,0,AccFast,35,18,Man,Right,
22,8,1,0.8996003000011115,['n'],1,right,['u'],1,0.02030940000076953,0.1,1,0,AccFast,35,18,Man,Right,
23,8,1,1.2170231000000058,['c'],0,right,['u'],1,0.03678789999867149,0.2,0,0,AccFast,35,18,Man,Right,
24,8,1,1.200593800000206,['n'],1,right,['e'],0,0.5019529000001057,0.4,0,0,AccFast,35,18,Man,Right,
25,8,1,0.9513171999988117,['c'],1,left,['u'],1,0.046532300000762916,0.1,1,0,AccFast,35,18,Man,Right,
26,8,1,0.6177685000002384,['c'],1,left,['u'],1,0.0706811000000016,0.1,1,0,AccFast,35,18,Man,Right,
27,8,1,0.7344794999989972,['n'],1,right,['u'],1,0.10462430000006862,0.4,1,0,AccFast,35,18,Man,Right,
28,8,1,0.7172609000008379,['c'],1,left,['u'],1,0.10648249999940163,0.1,1,0,AccFast,35,18,Man,Right,
29,8,1,0.9673832000007678,['n'],1,right,['u'],1,0.018825299999662093,0.4,1,0,AccFast,35,18,Man,Right,
30,8,1,1.150990300000558,['n'],1,right,['u'],1,0.054250900000624824,0.4,1,0,AccFast,35,18,Man,Right,
31,8,1,0.7507210000003397,['c'],1,left,['u'],1,0.07261529999959748,0.4,1,0,AccFast,35,18,Man,Right,
32,8,1,0.8674838000006275,['c'],0,right,['u'],1,0.053865800000494346,0.2,0,0,AccFast,35,18,Man,Right,
33,8,1,0.7338658999997278,['c'],1,left,['e'],0,0.32888979999916046,0.4,0,0,AccFast,35,18,Man,Right,
34,8,1,4.333848500000386,['n'],0,left,['e'],0,0.04961360000015702,0.1,1,0,AccFast,35,18,Man,Right,
35,8,1,0.8174092000008386,['c'],1,left,['u'],1,0.06533660000059172,0.2,1,0,AccFast,35,18,Man,Right,
36,8,1,0.6000425999991421,['c'],1,left,['u'],1,0.10486010000022361,0.4,1,0,AccFast,35,18,Man,Right,
37,8,1,1.5169115999997302,['c'],1,left,['e'],0,0.3628864000002068,0.1,0,0,AccFast,35,18,Man,Right,
38,8,1,0.9169610999997531,['n'],1,right,['u'],1,0.6820179999995162,0.4,1,0,AccFast,35,18,Man,Right,
39,8,1,2.5173059000007925,['c'],0,right,['e'],0,0.09303329999966081,0.1,1,0,AccFast,35,18,Man,Right,
40,8,1,1.1001992999990762,['c'],1,left,['e'],0,0.06459549999999581,0.4,0,0,AccFast,35,18,Man,Right,
41,8,1,1.1507918999996036,['c'],1,left,['e'],0,0.21001219999925524,0.1,0,0,AccFast,35,18,Man,Right,
42,8,1,2.2838620000002265,['c'],0,right,['u'],1,0.46536789999845496,0.2,0,0,AccFast,35,18,Man,Right,
43,8,1,1.099811599999157,['c'],0,right,['e'],0,0.1972894999998971,0.2,1,0,AccFast,35,18,Man,Right,
44,8,1,0.750890100000106,['c'],1,left,['u'],1,0.1455972000003385,0.1,1,0,AccFast,35,18,Man,Right,
45,8,1,0.9006277000007685,['n'],1,right,['u'],1,0.07420439999987138,0.4,1,0,AccFast,35,18,Man,Right,
46,8,1,2.8337315000007948,['c'],1,left,['e'],0,0.057115499999781605,0.1,0,0,AccFast,35,18,Man,Right,
47,8,1,1.4835858999995253,['c'],1,left,['e'],0,0.04661110000051849,0.1,0,0,AccFast,35,18,Man,Right,
48,8,1,2.0670585000007122,['c'],0,right,['e'],0,0.07660729999952309,0.1,1,0,AccFast,35,18,Man,Right,
49,8,1,3.0507815000000846,['c'],1,left,['e'],0,0.06658900000002177,0.1,0,0,AccFast,35,18,Man,Right,
50,8,1,0.7507979000001797,['c'],1,left,['u'],1,0.0842118999989907,0.4,1,0,AccFast,35,18,Man,Right,
51,8,1,0.8510559000005742,['c'],1,left,['u'],1,0.06549259999883361,0.1,1,0,AccFast,35,18,Man,Right,
52,8,1,1.9671367999999347,['n'],1,right,['e'],0,0.11461070000041218,0.2,0,0,AccFast,35,18,Man,Right,
53,8,1,0.8167814000007638,['c'],1,left,['u'],1,0.047694200000478304,0.2,1,0,AccFast,35,18,Man,Right,
54,8,1,1.183888499999739,['c'],0,right,['e'],0,0.04913260000103037,0.4,1,0,AccFast,35,18,Man,Right,
55,8,1,2.450097099999766,['n'],1,right,['u'],1,0.9916878000003635,0.4,1,0,AccFast,35,18,Man,Right,
56,8,1,0.6999857999999222,['c'],1,left,['u'],1,0.06329069999992498,0.4,1,0,AccFast,35,18,Man,Right,
57,8,1,2.133560000000216,['c'],0,right,['e'],0,0.23376979999920877,0.1,1,0,AccFast,35,18,Man,Right,
58,8,1,1.7172115000012127,['c'],1,left,['e'],0,0.5584337000000232,0.1,0,0,AccFast,35,18,Man,Right,
59,8,1,0.9008651000003738,['c'],1,left,['u'],1,0.15101599999979953,0.2,1,0,AccFast,35,18,Man,Right,
0,9,1,3.7002966000000015,['n'],1,right,['e'],0,2.8944069000008312,0.1,0,0,AccAcc,35,18,Man,Right,
1,9,1,1.7337168000012753,['c'],1,left,['u'],1,1.048862999999983,0.4,1,0,AccAcc,35,18,Man,Right,
2,9,1,0.9007956999994349,['c'],1,left,['u'],1,0.7653957000002265,0.1,1,0,AccAcc,35,18,Man,Right,
3,9,1,2.400537399998939,['n'],1,right,['u'],1,1.0736713999995118,0.2,1,0,AccAcc,35,18,Man,Right,
4,9,1,1.0175379000011162,['c'],0,right,['e'],0,0.8809634000008373,0.1,1,0,AccAcc,35,18,Man,Right,
5,9,1,1.2169439999997849,['n'],1,right,['u'],1,1.6159010999999737,0.2,1,0,AccAcc,35,18,Man,Right,
6,9,1,1.8506391999999323,['c'],1,left,['u'],1,0.887890600000901,0.1,1,0,AccAcc,35,18,Man,Right,
7,9,1,1.099778800000422,['n'],1,right,['u'],1,2.1720163999998476,0.2,1,0,AccAcc,35,18,Man,Right,
8,9,1,2.1670326000003115,['n'],1,right,['e'],0,1.1051279000002978,0.2,0,0,AccAcc,35,18,Man,Right,
9,9,1,3.133237399999416,['c'],0,right,['e'],0,0.4749212000006082,0.1,1,0,AccAcc,35,18,Man,Right,
10,9,1,1.4663385000003473,['c'],1,left,['e'],0,1.0405164999992849,0.2,0,0,AccAcc,35,18,Man,Right,
11,9,1,1.6513068999993266,['n'],1,right,['e'],0,1.7515548999999737,0.2,0,0,AccAcc,35,18,Man,Right,
12,9,1,1.8838446999998268,['c'],1,left,['u'],1,0.7292921999996906,0.1,1,0,AccAcc,35,18,Man,Right,
13,9,1,2.8005467999992106,['c'],1,left,['e'],0,0.4466432999997778,0.1,0,0,AccAcc,35,18,Man,Right,
14,9,1,1.2675347999993392,['c'],1,left,['u'],1,0.9248019000006025,0.4,1,0,AccAcc,35,18,Man,Right,
15,9,1,2.750572799999645,['n'],0,left,['e'],0,0.7968734000005497,0.1,1,0,AccAcc,35,18,Man,Right,
16,9,1,1.6677631000002293,['n'],0,left,['u'],1,1.0851711000013893,0.1,0,0,AccAcc,35,18,Man,Right,
17,9,1,1.267627299999731,['c'],1,left,['u'],1,0.9937984000007418,0.1,1,0,AccAcc,35,18,Man,Right,
18,9,1,1.183449500000279,['c'],1,left,['u'],1,1.5019090000005235,0.1,1,0,AccAcc,35,18,Man,Right,
19,9,1,2.1836075999999593,['c'],0,right,['e'],0,0.4296643000016047,0.4,1,0,AccAcc,35,18,Man,Right,
20,9,1,1.8174771999983932,['c'],1,left,['e'],0,0.2462656000006973,0.4,0,0,AccAcc,35,18,Man,Right,
21,9,1,1.3505191999993258,['n'],1,right,['u'],1,0.9047625999992306,0.4,1,0,AccAcc,35,18,Man,Right,
22,9,1,1.8167536999990261,['n'],1,right,['e'],0,0.3188485999999102,0.2,0,0,AccAcc,35,18,Man,Right,
23,9,1,1.9839482999996108,['n'],1,right,['e'],0,2.2295197999992524,0.2,0,0,AccAcc,35,18,Man,Right,
24,9,1,2.1837052999999287,['n'],0,left,['e'],0,0.36010429999987537,0.1,1,0,AccAcc,35,18,Man,Right,
25,9,1,1.3339792999995552,['n'],1,right,['e'],0,0.4874079000001075,0.1,0,0,AccAcc,35,18,Man,Right,
26,9,1,3.3670825000008335,['n'],1,right,['e'],0,0.6402299000001221,0.1,0,0,AccAcc,35,18,Man,Right,
27,9,1,3.133455299999696,['c'],0,right,['e'],0,0.47678129999985686,0.4,1,0,AccAcc,35,18,Man,Right,
28,9,1,2.116792099999657,['n'],1,right,['e'],0,0.3762029999998049,0.4,0,0,AccAcc,35,18,Man,Right,
29,9,1,3.45056090000071,['n'],0,left,['e'],0,0.2903246999994735,0.4,1,0,AccAcc,35,18,Man,Right,
30,9,1,2.60079450000012,['n'],1,right,['e'],0,0.3539591999997356,0.4,0,0,AccAcc,35,18,Man,Right,
31,9,1,1.5840299999999843,['c'],0,right,['e'],0,0.5032871999992494,0.4,1,0,AccAcc,35,18,Man,Right,
32,9,1,3.450029800000266,['c'],0,right,['e'],0,0.30089849999967555,0.4,1,0,AccAcc,35,18,Man,Right,
33,9,1,3.8168901999997615,['n'],0,left,['e'],0,0.938565300000846,0.4,1,0,AccAcc,35,18,Man,Right,
34,9,1,2.0341900999992504,['n'],1,right,['e'],0,1.254881299999397,0.1,0,0,AccAcc,35,18,Man,Right,
35,9,1,2.8007419999994454,['c'],0,right,['e'],0,0.1678252000001521,0.2,1,0,AccAcc,35,18,Man,Right,
36,9,1,2.5007822000006854,['n'],0,left,['e'],0,0.5922211999986757,0.2,1,0,AccAcc,35,18,Man,Right,
37,9,1,0.917563799999698,['n'],0,left,['e'],0,0.47056030000021565,0.2,1,0,AccAcc,35,18,Man,Right,
38,9,1,0.8009578000001056,['n'],1,right,['u'],1,0.23041050000028918,0.1,1,0,AccAcc,35,18,Man,Right,
39,9,1,1.5513673999994353,['c'],1,left,['u'],1,0.30559549999998126,0.2,1,0,AccAcc,35,18,Man,Right,
40,9,1,0.917466400000194,['n'],1,right,['u'],1,0.579530999999406,0.1,1,0,AccAcc,35,18,Man,Right,
41,9,1,1.115186699998958,['n'],1,right,['u'],1,0.5152851000002556,0.4,1,0,AccAcc,35,18,Man,Right,
42,9,1,0.8671622999991087,['c'],1,left,['u'],1,0.6694929999994201,0.2,1,0,AccAcc,35,18,Man,Right,
43,9,1,0.8673892999995587,['c'],1,left,['u'],1,1.3944986999995308,0.4,1,0,AccAcc,35,18,Man,Right,
44,9,1,0.8342128000003868,['n'],1,right,['u'],1,1.0847058999988803,0.4,1,0,AccAcc,35,18,Man,Right,
45,9,1,1.3673436000008223,['c'],1,left,['u'],1,0.6053646999989724,0.4,1,0,AccAcc,35,18,Man,Right,
46,9,1,2.000379000000976,['c'],1,left,['e'],0,0.5681813999999576,0.2,0,0,AccAcc,35,18,Man,Right,
47,9,1,0.950835100000404,['c'],0,right,['u'],1,0.7179702999983419,0.4,0,0,AccAcc,35,18,Man,Right,
48,9,1,1.26734260000012,['c'],1,left,['u'],1,0.7852875999997195,0.4,1,0,AccAcc,35,18,Man,Right,
49,9,1,3.016660100000081,['n'],1,right,['e'],0,1.116410000000542,0.2,0,0,AccAcc,35,18,Man,Right,
50,9,1,3.2500645000000077,['c'],1,left,['e'],0,0.25671439999860013,0.2,0,0,AccAcc,35,18,Man,Right,
51,9,1,1.117904599999747,['n'],0,left,['u'],1,1.1966690999997809,0.2,0,0,AccAcc,35,18,Man,Right,
52,9,1,3.4831698999987566,['c'],1,left,['e'],0,1.3648688000012044,0.1,0,0,AccAcc,35,18,Man,Right,
53,9,1,1.5673716999990575,['n'],0,left,['u'],1,2.1301502999995137,0.2,0,0,AccAcc,35,18,Man,Right,
54,9,1,0.8504250999994838,['c'],1,left,['u'],1,0.3334986999998364,0.4,1,0,AccAcc,35,18,Man,Right,
55,9,1,2.133963299998868,['c'],1,left,['u'],1,0.4463894000000437,0.4,1,0,AccAcc,35,18,Man,Right,
56,9,1,1.284066399999574,['c'],1,left,['e'],0,0.7628779000006034,0.2,0,0,AccAcc,35,18,Man,Right,
57,9,1,0.9174794999998994,['n'],1,right,['e'],0,1.0020581999997376,0.1,0,0,AccAcc,35,18,Man,Right,
58,9,1,4.4167536000004475,['n'],1,right,['u'],1,1.060789899998781,0.2,1,0,AccAcc,35,18,Man,Right,
59,9,1,0.7337895000000572,['c'],0,right,['u'],1,0.3842508000016096,0.1,0,0,AccAcc,35,18,Man,Right,
0,10,1,0.8167978000001312,['n'],0,left,['e'],0,0.7902635999998893,0.1,1,0,FastAcc,35,18,Man,Right,
1,10,1,0.5174910000005184,['c'],1,left,['u'],1,0.34068520000073477,0.4,1,0,FastAcc,35,18,Man,Right,
2,10,1,0.6846217000002071,['n'],1,right,['u'],1,0.830435200001375,0.1,1,0,FastAcc,35,18,Man,Right,
3,10,1,0.7507227999994939,['n'],1,right,['u'],1,0.38584609999998065,0.1,1,0,FastAcc,35,18,Man,Right,
4,10,1,1.1661673999988125,['n'],1,right,['u'],1,0.9349244000004546,0.1,1,0,FastAcc,35,18,Man,Right,
5,10,1,1.1336768999990454,['c'],0,right,['u'],1,0.7904515999998694,0.2,0,0,FastAcc,35,18,Man,Right,
6,10,1,0.9340422000004764,['c'],1,left,['u'],1,0.7403997999990679,0.4,1,0,FastAcc,35,18,Man,Right,
7,10,1,0.6842304000001604,['c'],1,left,['u'],1,0.6221574999999575,0.4,1,0,FastAcc,35,18,Man,Right,
8,10,1,1.0675125999987358,['n'],1,right,['e'],0,1.0854252000008273,0.2,0,0,FastAcc,35,18,Man,Right,
9,10,1,1.0007617999999638,['c'],1,left,['u'],1,0.3010498000003281,0.4,1,0,FastAcc,35,18,Man,Right,
10,10,1,0.850416100000075,['c'],1,left,['e'],0,0.9132158000011259,0.2,0,0,FastAcc,35,18,Man,Right,
11,10,1,0.8508581999994931,['n'],1,right,['e'],0,0.42920849999973143,0.4,0,0,FastAcc,35,18,Man,Right,
12,10,1,0.4341409999997268,['c'],1,left,['e'],0,2.60513119999996,0.2,0,0,FastAcc,35,18,Man,Right,
13,10,1,0.46736109999983455,['c'],1,left,['u'],1,2.3573252000005596,0.2,1,0,FastAcc,35,18,Man,Right,
14,10,1,0.46706710000034946,['c'],1,left,['u'],1,1.0319154999997409,0.4,1,0,FastAcc,35,18,Man,Right,
15,10,1,0.8503161000007822,['n'],1,right,['e'],0,0.11066000000027998,0.4,0,0,FastAcc,35,18,Man,Right,
16,10,1,0.6996021999984805,['c'],1,left,['u'],1,1.5542152999987593,0.4,1,0,FastAcc,35,18,Man,Right,
17,10,1,1.5184439999993629,['n'],1,right,['u'],1,0.42534410000007483,0.2,1,0,FastAcc,35,18,Man,Right,
18,10,1,0.7167607000010321,['c'],0,right,['e'],0,0.47844139999870094,0.2,1,0,FastAcc,35,18,Man,Right,
19,10,1,0.7662610999996105,['c'],1,left,['u'],1,0.5113332999990234,0.2,1,0,FastAcc,35,18,Man,Right,
20,10,1,1.1007964000000356,['c'],0,right,['u'],1,0.2255449000003864,0.1,0,0,FastAcc,35,18,Man,Right,
21,10,1,1.0005689000008715,['n'],0,left,['e'],0,1.01150620000044,0.2,1,0,FastAcc,35,18,Man,Right,
22,10,1,0.5677341999999044,['c'],0,right,['e'],0,1.1123276999987866,0.4,1,0,FastAcc,35,18,Man,Right,
23,10,1,1.817692900000111,['n'],0,left,['e'],0,1.4134797000006074,0.4,1,0,FastAcc,35,18,Man,Right,
24,10,1,1.4506486999998742,['n'],1,right,['e'],0,0.40618069999982254,0.2,0,0,FastAcc,35,18,Man,Right,
25,10,1,1.8505084999997052,['c'],0,right,['u'],1,0.750393800000893,0.1,0,0,FastAcc,35,18,Man,Right,
26,10,1,1.500733399998353,['n'],1,right,['u'],1,0.4391501000009157,0.4,1,0,FastAcc,35,18,Man,Right,
27,10,1,1.5998010999992403,['n'],1,right,['e'],0,0.5205043999994814,0.2,0,0,FastAcc,35,18,Man,Right,
28,10,1,1.0001008999988699,['c'],1,left,['e'],0,0.7822574000001623,0.1,0,0,FastAcc,35,18,Man,Right,
29,10,1,0.4835683000001154,['c'],0,right,['e'],0,0.5101114999997662,0.2,1,0,FastAcc,35,18,Man,Right,
30,10,1,0.5674455999997008,['n'],0,left,['u'],1,1.52594450000106,0.2,0,0,FastAcc,35,18,Man,Right,
31,10,1,0.567506699999285,['c'],1,left,['u'],1,1.4293916999995417,0.1,1,0,FastAcc,35,18,Man,Right,
32,10,1,0.5837940999990678,['c'],0,right,['e'],0,0.3915045999983704,0.1,1,0,FastAcc,35,18,Man,Right,
33,10,1,0.6842704999999114,['c'],1,left,['u'],1,0.7190298000004987,0.4,1,0,FastAcc,35,18,Man,Right,
34,10,1,0.7676027999987127,['n'],1,right,['e'],0,1.4783578000005946,0.4,0,0,FastAcc,35,18,Man,Right,
35,10,1,0.9843369000009261,['c'],0,right,['u'],1,0.902587599999606,0.2,0,0,FastAcc,35,18,Man,Right,
36,10,1,0.9332027999989805,['c'],0,right,['e'],0,1.007988600000317,0.1,1,0,FastAcc,35,18,Man,Right,
37,10,1,1.3506078999998863,['c'],1,left,['e'],0,1.252638100000695,0.1,0,0,FastAcc,35,18,Man,Right,
38,10,1,2.2159747000005154,['c'],1,left,['u'],1,2.637273100001039,0.1,1,0,FastAcc,35,18,Man,Right,
39,10,1,0.7336832000000868,['n'],1,right,['e'],0,1.0011689000002661,0.1,0,0,FastAcc,35,18,Man,Right,
40,10,1,1.699900899999193,['c'],0,right,['e'],0,1.2638962999990326,0.4,1,0,FastAcc,35,18,Man,Right,
41,10,1,1.8340619999999035,['n'],0,left,['e'],0,1.0306108000004315,0.1,1,0,FastAcc,35,18,Man,Right,
42,10,1,0.8336751000006188,['c'],1,left,['u'],1,0.9108547999985603,0.1,1,0,FastAcc,35,18,Man,Right,
43,10,1,1.2184281999998348,['c'],0,right,['e'],0,1.3406756000003952,0.1,1,0,FastAcc,35,18,Man,Right,
44,10,1,1.167159000000538,['c'],0,right,['e'],0,0.5557509000009304,0.2,1,0,FastAcc,35,18,Man,Right,
45,10,1,0.5673045000003185,['c'],1,left,['u'],1,0.753157299999657,0.4,1,0,FastAcc,35,18,Man,Right,
46,10,1,0.500650100000712,['c'],0,right,['e'],0,0.8657912999988184,0.2,1,0,FastAcc,35,18,Man,Right,
47,10,1,0.566966099999263,['n'],0,left,['e'],0,0.827165700000478,0.2,1,0,FastAcc,35,18,Man,Right,
48,10,1,0.5677505999992718,['c'],1,left,['u'],1,1.1102928000000247,0.2,1,0,FastAcc,35,18,Man,Right,
49,10,1,4.683469700001297,['n'],1,right,['e'],0,3.9702455999995436,0.2,0,0,FastAcc,35,18,Man,Right,
50,10,1,0.8844718000000285,['c'],1,left,['e'],0,0.9636289999998553,0.1,0,0,FastAcc,35,18,Man,Right,
51,10,1,0.5673213999998552,['c'],0,right,['u'],1,0.6493107999995118,0.1,0,0,FastAcc,35,18,Man,Right,
52,10,1,0.6006532999999763,['c'],0,right,['e'],0,0.8253147000013996,0.4,1,0,FastAcc,35,18,Man,Right,
53,10,1,0.46735219999936817,['c'],0,right,['e'],0,1.5603176000004169,0.4,1,0,FastAcc,35,18,Man,Right,
54,10,1,1.9836336999997002,['c'],1,left,['e'],0,1.5821047999997973,0.1,0,0,FastAcc,35,18,Man,Right,
55,10,1,0.7671343000001798,['n'],0,left,['e'],0,0.4347170000000915,0.4,1,0,FastAcc,35,18,Man,Right,
56,10,1,1.7003038000002562,['n'],0,left,['e'],0,0.9121506000010413,0.1,1,0,FastAcc,35,18,Man,Right,
57,10,1,0.6341204000000289,['c'],1,left,['u'],1,0.9965754000004381,0.4,1,0,FastAcc,35,18,Man,Right,
58,10,1,0.4337611000009929,['c'],0,right,['e'],0,1.0218693999995594,0.4,1,0,FastAcc,35,18,Man,Right,
59,10,1,0.517451900001106,['c'],1,left,['u'],1,0.7230085000010149,0.2,1,0,FastAcc,35,18,Man,Right,
0,11,1,0.44992119999915303,['c'],1,left,['u'],1,0.2477614999988873,0.4,1,0,FastFast,35,18,Man,Right,
1,11,1,0.4006913000011991,['c'],0,right,['e'],0,0.2879374000003736,0.1,1,0,FastFast,35,18,Man,Right,
2,11,1,0.45104620000165596,['c'],1,left,['e'],0,0.24472449999848322,0.4,0,0,FastFast,35,18,Man,Right,
3,11,1,0.5011594999996305,['c'],0,right,['e'],0,0.29788120000011986,0.2,1,0,FastFast,35,18,Man,Right,
4,11,1,0.6675365999999485,['c'],0,right,['u'],1,0.26178859999890847,0.4,0,0,FastFast,35,18,Man,Right,
5,11,1,0.5006253999999899,['c'],1,left,['u'],1,0.21836260000054608,0.2,1,0,FastFast,35,18,Man,Right,
6,11,1,0.5846345000009023,['n'],1,right,['u'],1,0.23664350000035483,0.2,1,0,FastFast,35,18,Man,Right,
7,11,1,0.5344820999998774,['c'],1,left,['u'],1,0.24040600000080303,0.2,1,0,FastFast,35,18,Man,Right,
8,11,1,0.43428039999889734,['c'],0,right,['e'],0,0.34399719999964873,0.2,1,0,FastFast,35,18,Man,Right,
9,11,1,0.600954500001535,['c'],1,left,['u'],1,0.21315770000001066,0.4,1,0,FastFast,35,18,Man,Right,
10,11,1,0.684450900000229,['n'],1,right,['e'],0,0.22755030000007537,0.4,0,0,FastFast,35,18,Man,Right,
11,11,1,0.46813730000030773,['c'],0,right,['u'],1,0.218619100000069,0.4,0,0,FastFast,35,18,Man,Right,
12,11,1,0.6173521999990044,['c'],0,right,['u'],1,0.1559056000005512,0.2,0,0,FastFast,35,18,Man,Right,
13,11,1,0.5006022999987181,['c'],1,left,['u'],1,0.1962848999992275,0.1,1,0,FastFast,35,18,Man,Right,
14,11,1,0.500079999999798,['c'],0,right,['e'],0,0.5227073000005475,0.1,1,0,FastFast,35,18,Man,Right,
15,11,1,0.43396519999987504,['c'],1,left,['e'],0,0.5032609000008961,0.2,0,0,FastFast,35,18,Man,Right,
16,11,1,0.7840699999997014,['c'],1,left,['u'],1,0.2944275000008929,0.4,1,0,FastFast,35,18,Man,Right,
17,11,1,0.5180297000006249,['c'],0,right,['e'],0,0.3287225000003673,0.4,1,0,FastFast,35,18,Man,Right,
18,11,1,0.5011730000005628,['c'],0,right,['e'],0,0.44302480000078504,0.2,1,0,FastFast,35,18,Man,Right,
19,11,1,1.0507672000003367,['n'],1,right,['u'],1,0.38527280000016617,0.1,1,0,FastFast,35,18,Man,Right,
20,11,1,0.6505003999991459,['c'],1,left,['u'],1,0.21837950000008277,0.4,1,0,FastFast,35,18,Man,Right,
21,11,1,0.49993150000045716,['c'],0,right,['u'],1,0.17673069999909785,0.1,0,0,FastFast,35,18,Man,Right,
22,11,1,0.6839326999997866,['c'],1,left,['u'],1,0.17650470000080531,0.2,1,0,FastFast,35,18,Man,Right,
23,11,1,0.4673843000000488,['c'],0,right,['u'],1,0.1857385000002978,0.1,0,0,FastFast,35,18,Man,Right,
24,11,1,0.90080190000117,['c'],0,right,['u'],1,0.12869590000082098,0.1,0,0,FastFast,35,18,Man,Right,
25,11,1,0.5840547000007064,['c'],0,right,['u'],1,0.16657409999970696,0.2,0,0,FastFast,35,18,Man,Right,
26,11,1,1.850897199999963,['c'],1,left,['e'],0,0.6485063000000082,0.1,0,0,FastFast,35,18,Man,Right,
27,11,1,1.2666319999989355,['c'],1,left,['u'],1,0.6866103000011208,0.2,1,0,FastFast,35,18,Man,Right,
28,11,1,0.48444609999933164,['c'],0,right,['e'],0,0.21038709999993443,0.1,1,0,FastFast,35,18,Man,Right,
29,11,1,2.550562700000228,['c'],0,right,['e'],0,0.29524750000018685,0.4,1,0,FastFast,35,18,Man,Right,
30,11,1,1.0841522999999142,['c'],1,left,['e'],0,0.35419370000090566,0.2,0,0,FastFast,35,18,Man,Right,
31,11,1,1.7173487000000023,['n'],0,left,['e'],0,0.27429379999921366,0.2,1,0,FastFast,35,18,Man,Right,
32,11,1,0.600545899998906,['n'],1,right,['u'],1,0.21005030000014813,0.1,1,0,FastFast,35,18,Man,Right,
33,11,1,0.4519540999990568,['n'],0,left,['e'],0,0.6664748000002874,0.4,1,0,FastFast,35,18,Man,Right,
34,11,1,0.6841832000009163,['n'],1,right,['e'],0,0.16709409999930358,0.2,0,0,FastFast,35,18,Man,Right,
35,11,1,0.7174209999993764,['c'],0,right,['e'],0,0.23026900000149908,0.4,1,0,FastFast,35,18,Man,Right,
36,11,1,0.6008593000005931,['c'],1,left,['u'],1,0.29517590000068594,0.2,1,0,FastFast,35,18,Man,Right,
37,11,1,0.5509092000011151,['c'],1,left,['u'],1,0.1836449000002176,0.4,1,0,FastFast,35,18,Man,Right,
38,11,1,0.5342583000001468,['c'],1,left,['e'],0,0.3014533000005031,0.1,0,0,FastFast,35,18,Man,Right,
39,11,1,0.549893699999302,['c'],0,right,['u'],1,0.20630850000088685,0.1,0,0,FastFast,35,18,Man,Right,
40,11,1,0.6004651999992348,['c'],1,left,['u'],1,0.2564075000009325,0.4,1,0,FastFast,35,18,Man,Right,
41,11,1,0.5999170000013692,['c'],1,left,['u'],1,0.1769005999994988,0.2,1,0,FastFast,35,18,Man,Right,
42,11,1,0.6507940999999846,['c'],1,left,['u'],1,0.14660109999931592,0.1,1,0,FastFast,35,18,Man,Right,
43,11,1,0.567189999999755,['c'],0,right,['u'],1,0.16824039999846718,0.1,0,0,FastFast,35,18,Man,Right,
44,11,1,0.517248500000278,['c'],1,left,['u'],1,0.15928429999985383,0.1,1,0,FastFast,35,18,Man,Right,
45,11,1,0.58369649999986,['c'],0,right,['e'],0,0.19647839999925054,0.4,1,0,FastFast,35,18,Man,Right,
46,11,1,0.5511616999992839,['c'],1,left,['e'],0,0.2008125000011205,0.2,0,0,FastFast,35,18,Man,Right,
47,11,1,0.567693799999688,['c'],0,right,['e'],0,0.1726650000000518,0.2,1,0,FastFast,35,18,Man,Right,
48,11,1,0.6498883999993268,['c'],1,left,['u'],1,0.28640809999888006,0.1,1,0,FastFast,35,18,Man,Right,
49,11,1,0.5822733999993943,['c'],0,right,['u'],1,0.3194036999993841,0.1,0,0,FastFast,35,18,Man,Right,
50,11,1,0.3847596000014164,['c'],0,right,['e'],0,0.18074939999860362,0.1,1,0,FastFast,35,18,Man,Right,
51,11,1,0.7010293999992427,['c'],0,right,['u'],1,0.09995539999908942,0.4,0,0,FastFast,35,18,Man,Right,
52,11,1,0.6342676000003848,['c'],0,right,['e'],0,0.6489745000017137,0.4,1,0,FastFast,35,18,Man,Right,
53,11,1,0.6508886999999959,['n'],0,left,['u'],1,0.10332930000004126,0.1,0,0,FastFast,35,18,Man,Right,
54,11,1,0.517605500001082,['c'],1,left,['u'],1,0.1130076999997982,0.4,1,0,FastFast,35,18,Man,Right,
55,11,1,0.46778210000047693,['c'],1,left,['u'],1,0.12415599999985716,0.2,1,0,FastFast,35,18,Man,Right,
56,11,1,0.9320461000006617,['n'],0,left,['e'],0,0.1500106000003143,0.2,1,0,FastFast,35,18,Man,Right,
57,11,1,0.768563700001323,['n'],1,right,['u'],1,0.06653980000010051,0.1,1,0,FastFast,35,18,Man,Right,
58,11,1,0.7675429999999324,['c'],1,left,['u'],1,0.11567160000049626,0.4,1,0,FastFast,35,18,Man,Right,
59,11,1,0.4836317000008421,['c'],1,left,['e'],0,0.33392779999849154,0.4,0,0,FastFast,35,18,Man,Right,
0,12,1,1.0505704999995942,['c'],0,right,['u'],1,0.7016557999995712,0.2,0,0,AccFast,35,18,Man,Right,
1,12,1,2.4999133000001166,['c'],1,left,['u'],1,0.17608709999876737,0.2,1,0,AccFast,35,18,Man,Right,
2,12,1,1.1672228000006726,['n'],1,right,['u'],1,0.09403299999939918,0.2,1,0,AccFast,35,18,Man,Right,
3,12,1,1.5004107000004296,['c'],0,right,['u'],1,0.04839179999908083,0.2,0,0,AccFast,35,18,Man,Right,
4,12,1,0.6167783999990206,['c'],0,right,['u'],1,0.056275799999639275,0.2,0,0,AccFast,35,18,Man,Right,
5,12,1,1.5501860000003944,['n'],0,left,['u'],1,0.07527640000080282,0.1,0,0,AccFast,35,18,Man,Right,
6,12,1,1.1009243999997125,['c'],1,left,['u'],1,0.12648919999992358,0.4,1,0,AccFast,35,18,Man,Right,
7,12,1,1.4343795999993745,['n'],1,right,['u'],1,0.11503300000003946,0.4,1,0,AccFast,35,18,Man,Right,
8,12,1,1.001247300000614,['c'],1,left,['u'],1,0.1529341999994358,0.1,1,0,AccFast,35,18,Man,Right,
9,12,1,0.7841561000004731,['c'],1,left,['u'],1,0.11823820000063279,0.1,1,0,AccFast,35,18,Man,Right,
10,12,1,0.6510399999988294,['c'],1,left,['u'],1,0.12195229999997537,0.4,1,0,AccFast,35,18,Man,Right,
11,12,1,0.6675620000005438,['c'],1,left,['u'],1,0.17309989999921527,0.2,1,0,AccFast,35,18,Man,Right,
12,12,1,1.3507082000014634,['n'],1,right,['u'],1,0.09897890000138432,0.2,1,0,AccFast,35,18,Man,Right,
13,12,1,0.7169162999998662,['c'],0,right,['u'],1,0.1326933000000281,0.1,0,0,AccFast,35,18,Man,Right,
14,12,1,1.6839401999986876,['n'],1,right,['u'],1,0.12673050000012154,0.2,1,0,AccFast,35,18,Man,Right,
15,12,1,2.7171367999999347,['c'],0,right,['u'],1,0.17619399999966845,0.2,0,0,AccFast,35,18,Man,Right,
16,12,1,0.7167148999997153,['c'],0,right,['u'],1,0.09566909999921336,0.2,0,0,AccFast,35,18,Man,Right,
17,12,1,0.7837232000001677,['c'],1,left,['u'],1,0.07845309999902383,0.1,1,0,AccFast,35,18,Man,Right,
18,12,1,0.6343465999998443,['c'],1,left,['u'],1,0.2448774999993475,0.4,1,0,AccFast,35,18,Man,Right,
19,12,1,3.200046099998872,['c'],1,left,['u'],1,0.07847460000084538,0.4,1,0,AccFast,35,18,Man,Right,
20,12,1,0.7341482000010728,['c'],0,right,['u'],1,0.08080129999871133,0.1,0,0,AccFast,35,18,Man,Right,
21,12,1,2.3004870000004303,['n'],1,right,['e'],0,0.08424829999967187,0.2,0,0,AccFast,35,18,Man,Right,
22,12,1,2.2838706000002276,['c'],0,right,['u'],1,0.05663829999866721,0.4,0,0,AccFast,35,18,Man,Right,
23,12,1,3.583777199999531,['n'],1,right,['u'],1,0.8098926000002393,0.4,1,0,AccFast,35,18,Man,Right,
24,12,1,1.2180291999993642,['n'],1,right,['u'],1,0.13983329999973648,0.4,1,0,AccFast,35,18,Man,Right,
25,12,1,0.9343716000003042,['n'],1,right,['u'],1,0.13166500000079395,0.4,1,0,AccFast,35,18,Man,Right,
26,12,1,1.3339402000001428,['n'],1,right,['e'],0,0.8918866999993043,0.1,0,0,AccFast,35,18,Man,Right,
27,12,1,2.5505596000002697,['n'],1,right,['u'],1,0.08533809999971709,0.4,1,0,AccFast,35,18,Man,Right,
28,12,1,1.5673748000008345,['n'],1,right,['u'],1,0.1178447000002052,0.2,1,0,AccFast,35,18,Man,Right,
29,12,1,1.0341749999988679,['n'],1,right,['u'],1,0.0910316999998031,0.4,1,0,AccFast,35,18,Man,Right,
30,12,1,0.9175369000004139,['n'],0,left,['u'],1,0.08485620000101335,0.2,0,0,AccFast,35,18,Man,Right,
31,12,1,0.8008716999993339,['n'],0,left,['u'],1,0.08424209999975574,0.4,0,0,AccFast,35,18,Man,Right,
32,12,1,0.9675212999991345,['n'],1,right,['u'],1,0.1406434000000445,0.4,1,0,AccFast,35,18,Man,Right,
33,12,1,1.1517784999996366,['n'],1,right,['e'],0,0.23542840000118304,0.1,0,0,AccFast,35,18,Man,Right,
34,12,1,1.134158099999695,['n'],0,left,['u'],1,0.18370669999967504,0.1,0,0,AccFast,35,18,Man,Right,
35,12,1,0.883901600000172,['n'],0,left,['e'],0,0.1434108000012202,0.1,1,0,AccFast,35,18,Man,Right,
36,12,1,0.800672499999564,['n'],0,left,['u'],1,0.07637810000051104,0.2,0,0,AccFast,35,18,Man,Right,
37,12,1,1.3006793000004109,['n'],0,left,['e'],0,0.07221129999925324,0.4,1,0,AccFast,35,18,Man,Right,
38,12,1,4.933234899999661,['c'],1,left,['e'],0,0.45146029999887105,0.1,0,0,AccFast,35,18,Man,Right,
39,12,1,1.4165580999997474,['c'],1,left,['u'],1,0.04363299999931769,0.1,1,0,AccFast,35,18,Man,Right,
40,12,1,2.58290450000095,['c'],1,left,['e'],0,0.21389359999920998,0.1,0,0,AccFast,35,18,Man,Right,
41,12,1,0.7342171000000235,['c'],1,left,['u'],1,0.1621940999993967,0.4,1,0,AccFast,35,18,Man,Right,
42,12,1,3.0504629999995814,['c'],1,left,['e'],0,0.22826700000041455,0.1,0,0,AccFast,35,18,Man,Right,
43,12,1,2.200852899999518,['c'],0,right,['e'],0,0.05437359999996261,0.2,1,0,AccFast,35,18,Man,Right,
44,12,1,2.366603100001157,['c'],1,left,['u'],1,0.28052649999881396,0.2,1,0,AccFast,35,18,Man,Right,
45,12,1,0.8168709999990824,['c'],0,right,['e'],0,0.3829127000008157,0.2,1,0,AccFast,35,18,Man,Right,
46,12,1,0.8176285999998072,['c'],1,left,['u'],1,0.09732930000063789,0.4,1,0,AccFast,35,18,Man,Right,
47,12,1,0.8165690999994695,['c'],0,right,['u'],1,0.06324560000030033,0.4,0,0,AccFast,35,18,Man,Right,
48,12,1,0.8167671999999584,['c'],1,left,['u'],1,0.04661689999920782,0.1,1,0,AccFast,35,18,Man,Right,
49,12,1,0.7829540000002453,['c'],1,left,['u'],1,0.0632740000000922,0.1,1,0,AccFast,35,18,Man,Right,
50,12,1,0.5508071999993263,['c'],0,right,['u'],1,0.057650199998533935,0.4,0,0,AccFast,35,18,Man,Right,
51,12,1,2.9339893000014854,['c'],1,left,['e'],0,0.08466039999984787,0.2,0,0,AccFast,35,18,Man,Right,
52,12,1,0.7174519000000146,['c'],1,left,['u'],1,0.08711849999963306,0.4,1,0,AccFast,35,18,Man,Right,
53,12,1,1.5170521000000008,['c'],0,right,['e'],0,0.26589959999910207,0.1,1,0,AccFast,35,18,Man,Right,
54,12,1,1.6164700000008452,['n'],1,right,['u'],1,0.7215606000008847,0.1,1,0,AccFast,35,18,Man,Right,
55,12,1,0.6840833999995084,['c'],1,left,['u'],1,0.10777029999917431,0.1,1,0,AccFast,35,18,Man,Right,
56,12,1,0.8508338999999978,['n'],1,right,['u'],1,0.0879932000007102,0.4,1,0,AccFast,35,18,Man,Right,
57,12,1,0.7332190000015544,['c'],1,left,['u'],1,0.1378182000007655,0.1,1,0,AccFast,35,18,Man,Right,
58,12,1,0.583670500000153,['c'],1,left,['u'],1,0.11203639999985171,0.2,1,0,AccFast,35,18,Man,Right,
59,12,1,0.6841506000000663,['n'],1,right,['u'],1,0.08290409999972326,0.2,1,0,AccFast,35,18,Man,Right,
0,13,1,2.9670127000008506,['n'],0,left,['e'],0,1.6116361000003963,0.2,1,0,AccAcc,35,18,Man,Right,
1,13,1,0.7341409000000567,['c'],1,left,['u'],1,0.3368628999996872,0.4,1,0,AccAcc,35,18,Man,Right,
2,13,1,1.0670663000000786,['n'],1,right,['e'],0,0.6515995000008843,0.1,0,0,AccAcc,35,18,Man,Right,
3,13,1,3.167464000000109,['c'],1,left,['e'],0,0.7415772999993351,0.1,0,0,AccAcc,35,18,Man,Right,
4,13,1,1.850537300000724,['c'],1,left,['u'],1,1.0570906000011746,0.4,1,0,AccAcc,35,18,Man,Right,
5,13,1,0.7504595999998855,['c'],1,left,['u'],1,0.7318104000005405,0.2,1,0,AccAcc,35,18,Man,Right,
6,13,1,1.2336754999996629,['n'],1,right,['u'],1,0.6717773000000307,0.4,1,0,AccAcc,35,18,Man,Right,
7,13,1,1.1835169999994832,['n'],1,right,['u'],1,0.648997700000109,0.4,1,0,AccAcc,35,18,Man,Right,
8,13,1,3.8826633999997284,['n'],1,right,['e'],0,0.7906423999993422,0.2,0,0,AccAcc,35,18,Man,Right,
9,13,1,2.0340089999990596,['n'],1,right,['e'],0,1.2404464999999618,0.4,0,0,AccAcc,35,18,Man,Right,
10,13,1,1.367500199999995,['c'],1,left,['u'],1,1.011197899999388,0.4,1,0,AccAcc,35,18,Man,Right,
11,13,1,2.21783829999913,['n'],1,right,['e'],0,0.9812677999998414,0.1,0,0,AccAcc,35,18,Man,Right,
12,13,1,1.1340297999995528,['n'],1,right,['u'],1,0.9793518000005861,0.2,1,0,AccAcc,35,18,Man,Right,
13,13,1,2.7990824000007706,['c'],1,left,['u'],1,1.1190129999995406,0.1,1,0,AccAcc,35,18,Man,Right,
14,13,1,3.667881399998805,['n'],1,right,['u'],1,0.803114899999855,0.4,1,0,AccAcc,35,18,Man,Right,
15,13,1,0.8343858999996883,['n'],1,right,['u'],1,1.9721076000005269,0.4,1,0,AccAcc,35,18,Man,Right,
16,13,1,1.6004458000006707,['n'],1,right,['e'],0,1.1124748000002,0.1,0,0,AccAcc,35,18,Man,Right,
17,13,1,2.283576899999389,['c'],1,left,['e'],0,1.1073680999998032,0.1,0,0,AccAcc,35,18,Man,Right,
18,13,1,0.8010873999992327,['n'],1,right,['u'],1,1.5617934000001696,0.2,1,0,AccAcc,35,18,Man,Right,
19,13,1,0.6510871999998926,['c'],1,left,['u'],1,0.7559691000005841,0.2,1,0,AccAcc,35,18,Man,Right,
20,13,1,1.9672281999992265,['c'],1,left,['e'],0,0.393980200000442,0.1,0,0,AccAcc,35,18,Man,Right,
21,13,1,2.700230600001305,['n'],1,right,['u'],1,0.5299847999995109,0.1,1,0,AccAcc,35,18,Man,Right,
22,13,1,2.117069599999013,['c'],0,right,['u'],1,0.9546374999990803,0.4,0,0,AccAcc,35,18,Man,Right,
23,13,1,3.71692240000084,['c'],0,right,['e'],0,0.962853000000905,0.1,1,0,AccAcc,35,18,Man,Right,
24,13,1,4.416007900001205,['n'],1,right,['u'],1,1.4548799999993207,0.4,1,0,AccAcc,35,18,Man,Right,
25,13,1,0.9845179999992979,['n'],0,left,['u'],1,0.8963660000008531,0.2,0,0,AccAcc,35,18,Man,Right,
26,13,1,1.200307299999622,['c'],0,right,['u'],1,1.263001000001168,0.1,0,0,AccAcc,35,18,Man,Right,
27,13,1,0.8177285000001575,['c'],1,left,['u'],1,1.166299299999082,0.4,1,0,AccAcc,35,18,Man,Right,
28,13,1,2.284030900000289,['c'],0,right,['u'],1,1.2230799999997544,0.2,0,0,AccAcc,35,18,Man,Right,
29,13,1,1.4338534999988042,['c'],0,right,['u'],1,1.3279698000005737,0.1,0,0,AccAcc,35,18,Man,Right,
30,13,1,1.1674173999999766,['n'],1,right,['e'],0,1.0235797999994247,0.1,0,0,AccAcc,35,18,Man,Right,
31,13,1,2.05073640000046,['n'],1,right,['e'],0,0.5676401000000624,0.2,0,0,AccAcc,35,18,Man,Right,
32,13,1,1.3176610999998957,['n'],1,right,['u'],1,0.9269395999999688,0.4,1,0,AccAcc,35,18,Man,Right,
33,13,1,1.7667643999993743,['n'],1,right,['e'],0,1.4468218000001798,0.1,0,0,AccAcc,35,18,Man,Right,
34,13,1,1.6157997000009345,['n'],1,right,['e'],0,0.9906318999983341,0.2,0,0,AccAcc,35,18,Man,Right,
35,13,1,3.633953599999586,['n'],0,left,['e'],0,0.9850507999999536,0.1,1,0,AccAcc,35,18,Man,Right,
36,13,1,2.4173321000016585,['c'],1,left,['u'],1,0.7079131999998935,0.4,1,0,AccAcc,35,18,Man,Right,
37,13,1,1.9499954000002617,['n'],0,left,['e'],0,0.39701070000046457,0.1,1,0,AccAcc,35,18,Man,Right,
38,13,1,1.2001853000001574,['n'],0,left,['e'],0,0.751335700000709,0.4,1,0,AccAcc,35,18,Man,Right,
39,13,1,2.6163196000015887,['c'],0,right,['e'],0,0.5720282999991468,0.1,1,0,AccAcc,35,18,Man,Right,
40,13,1,2.083898599999884,['c'],1,left,['e'],0,1.1884945000001608,0.1,0,0,AccAcc,35,18,Man,Right,
41,13,1,1.0670927999999549,['n'],0,left,['u'],1,0.5732708999985334,0.2,0,0,AccAcc,35,18,Man,Right,
42,13,1,0.9332496999995783,['c'],1,left,['u'],1,0.9316514000001916,0.4,1,0,AccAcc,35,18,Man,Right,
43,13,1,1.0840949000012188,['c'],1,left,['u'],1,0.5658022000006895,0.4,1,0,AccAcc,35,18,Man,Right,
44,13,1,1.1518305000008695,['c'],1,left,['u'],1,0.4679108999989694,0.2,1,0,AccAcc,35,18,Man,Right,
45,13,1,1.4507420000009006,['n'],1,right,['e'],0,0.8416672000003018,0.2,0,0,AccAcc,35,18,Man,Right,
46,13,1,1.0178035000008094,['c'],1,left,['u'],1,1.5062692999999854,0.2,1,0,AccAcc,35,18,Man,Right,
47,13,1,1.6829861999995046,['c'],1,left,['u'],1,0.5017570999989402,0.4,1,0,AccAcc,35,18,Man,Right,
48,13,1,1.4169573999988643,['c'],1,left,['u'],1,0.9879051999996591,0.4,1,0,AccAcc,35,18,Man,Right,
49,13,1,2.0507092000007106,['n'],1,right,['e'],0,0.4371534000001702,0.2,0,0,AccAcc,35,18,Man,Right,
50,13,1,0.9669026999999915,['c'],0,right,['u'],1,1.999801199999638,0.2,0,0,AccAcc,35,18,Man,Right,
51,13,1,1.1001386000007187,['c'],1,left,['e'],0,0.5027750999997807,0.1,0,0,AccAcc,35,18,Man,Right,
52,13,1,2.433712399999422,['c'],1,left,['u'],1,0.8685339000003296,0.4,1,0,AccAcc,35,18,Man,Right,
53,13,1,2.4503973000009864,['n'],1,right,['e'],0,0.45039320000068983,0.2,0,0,AccAcc,35,18,Man,Right,
54,13,1,0.7665396000011242,['c'],1,left,['u'],1,0.6125553999991098,0.4,1,0,AccAcc,35,18,Man,Right,
55,13,1,0.6840252999991208,['c'],1,left,['e'],0,0.4830163000005996,0.2,0,0,AccAcc,35,18,Man,Right,
56,13,1,0.9001554999995278,['c'],1,left,['e'],0,0.3821324000000459,0.2,0,0,AccAcc,35,18,Man,Right,
57,13,1,1.2667968000005203,['c'],1,left,['u'],1,0.2705977999994502,0.1,1,0,AccAcc,35,18,Man,Right,
58,13,1,0.7007823999992979,['c'],0,right,['e'],0,0.5703112999999576,0.2,1,0,AccAcc,35,18,Man,Right,
59,13,1,1.8340064000003622,['c'],0,right,['e'],0,0.3490291000016441,0.1,1,0,AccAcc,35,18,Man,Right,
0,14,1,0.8837179000001925,['c'],1,left,['u'],1,1.0546546000005037,0.1,1,0,FastAcc,35,18,Man,Right,
1,14,1,0.5341829000008147,['c'],1,left,['u'],1,1.3621554000001197,0.1,1,0,FastAcc,35,18,Man,Right,
2,14,1,1.3155919999990147,['c'],1,left,['u'],1,0.9539174999990792,0.4,1,0,FastAcc,35,18,Man,Right,
3,14,1,0.7508778999999777,['n'],1,right,['u'],1,0.4238518000001932,0.4,1,0,FastAcc,35,18,Man,Right,
4,14,1,0.6496552000007796,['c'],0,right,['u'],1,1.0075608000006469,0.1,0,0,FastAcc,35,18,Man,Right,
5,14,1,0.5832418999998481,['c'],1,left,['u'],1,0.9474016999993182,0.2,1,0,FastAcc,35,18,Man,Right,
6,14,1,0.5496920999994472,['n'],1,right,['u'],1,0.9219137999989471,0.2,1,0,FastAcc,35,18,Man,Right,
7,14,1,0.6505789000002551,['c'],0,right,['u'],1,0.42928939999910654,0.1,0,0,FastAcc,35,18,Man,Right,
8,14,1,0.6339326999986952,['c'],0,right,['u'],1,0.7411369999990711,0.1,0,0,FastAcc,35,18,Man,Right,
9,14,1,0.43409929999870656,['c'],0,right,['e'],0,0.5849266999994143,0.1,1,0,FastAcc,35,18,Man,Right,
10,14,1,0.5672802999997657,['c'],1,left,['u'],1,0.7815294000010908,0.1,1,0,FastAcc,35,18,Man,Right,
11,14,1,0.6174317000004521,['n'],1,right,['e'],0,0.5038615000012214,0.1,0,0,FastAcc,35,18,Man,Right,
12,14,1,0.41718779999973776,['c'],1,left,['u'],1,0.8060246999993979,0.4,1,0,FastAcc,35,18,Man,Right,
13,14,1,0.4504279000011593,['c'],0,right,['e'],0,0.6144598000009864,0.2,1,0,FastAcc,35,18,Man,Right,
14,14,1,0.4341774999993504,['c'],1,left,['u'],1,0.6707743000006303,0.1,1,0,FastAcc,35,18,Man,Right,
15,14,1,0.4677687000003061,['c'],1,left,['u'],1,0.6760518000010052,0.4,1,0,FastAcc,35,18,Man,Right,
16,14,1,0.5343971999991481,['c'],0,right,['u'],1,0.6464061999995465,0.2,0,0,FastAcc,35,18,Man,Right,
17,14,1,0.5511978999984422,['c'],1,left,['u'],1,0.7288989000007859,0.2,1,0,FastAcc,35,18,Man,Right,
18,14,1,0.5008049999996729,['c'],1,left,['e'],0,0.5862215999986802,0.1,0,0,FastAcc,35,18,Man,Right,
19,14,1,0.833821899999748,['n'],1,right,['e'],0,0.6119985000004817,0.2,0,0,FastAcc,35,18,Man,Right,
20,14,1,0.5506528999994771,['c'],1,left,['u'],1,0.824850900000456,0.2,1,0,FastAcc,35,18,Man,Right,
21,14,1,0.5339944000006653,['c'],1,left,['e'],0,0.5645970000005036,0.2,0,0,FastAcc,35,18,Man,Right,
22,14,1,0.6672271000006731,['n'],0,left,['u'],1,0.885901499999818,0.1,0,0,FastAcc,35,18,Man,Right,
23,14,1,0.5675734999986162,['n'],1,right,['u'],1,0.6861965999996755,0.4,1,0,FastAcc,35,18,Man,Right,
24,14,1,0.5673317000000679,['c'],1,left,['u'],1,0.8787752999996883,0.1,1,0,FastAcc,35,18,Man,Right,
25,14,1,0.6677921999998944,['c'],1,left,['u'],1,0.5153682000000117,0.4,1,0,FastAcc,35,18,Man,Right,
26,14,1,0.4838992999993934,['c'],1,left,['u'],1,1.0219063000004098,0.4,1,0,FastAcc,35,18,Man,Right,
27,14,1,0.5677438000002439,['c'],1,left,['e'],0,1.3293235000001005,0.2,0,0,FastAcc,35,18,Man,Right,
28,14,1,0.46724750000066706,['c'],1,left,['u'],1,0.6678166000001511,0.4,1,0,FastAcc,35,18,Man,Right,
29,14,1,0.36758110000118904,['c'],0,right,['e'],0,0.5647502999981953,0.4,1,0,FastAcc,35,18,Man,Right,
30,14,1,0.4841575999998895,['c'],1,left,['u'],1,1.1012687000002188,0.2,1,0,FastAcc,35,18,Man,Right,
31,14,1,0.46757029999935185,['c'],1,left,['u'],1,0.6573721999993722,0.1,1,0,FastAcc,35,18,Man,Right,
32,14,1,0.4989218999999139,['c'],0,right,['e'],0,0.4388703999993595,0.4,1,0,FastAcc,35,18,Man,Right,
33,14,1,0.5518721999997069,['c'],1,left,['u'],1,0.5934612000000925,0.4,1,0,FastAcc,35,18,Man,Right,
34,14,1,0.7834837999998854,['c'],0,right,['u'],1,0.6371945000009873,0.1,0,0,FastAcc,35,18,Man,Right,
35,14,1,0.5178885999994236,['c'],0,right,['e'],0,0.3212256000006164,0.2,1,0,FastAcc,35,18,Man,Right,
36,14,1,0.550626000000193,['c'],1,left,['e'],0,0.368879100000413,0.4,0,0,FastAcc,35,18,Man,Right,
37,14,1,0.5007922999993752,['c'],1,left,['u'],1,0.4645814999985305,0.2,1,0,FastAcc,35,18,Man,Right,
38,14,1,0.7677227000003768,['c'],1,left,['e'],0,0.1462522000001627,0.1,0,0,FastAcc,35,18,Man,Right,
39,14,1,0.5839463000011165,['c'],0,right,['e'],0,0.24697229999947012,0.2,1,0,FastAcc,35,18,Man,Right,
40,14,1,0.6668874000006326,['c'],0,right,['e'],0,0.18082010000034643,0.2,1,0,FastAcc,35,18,Man,Right,
41,14,1,1.0675785999992513,['n'],1,right,['e'],0,0.901696400000219,0.4,0,0,FastAcc,35,18,Man,Right,
42,14,1,1.2844156000010116,['c'],0,right,['e'],0,0.6086969999996654,0.4,1,0,FastAcc,35,18,Man,Right,
43,14,1,0.7177329000005557,['c'],1,left,['e'],0,1.1826287999992928,0.2,0,0,FastAcc,35,18,Man,Right,
44,14,1,0.8668009999983042,['c'],1,left,['e'],0,0.4954949000002671,0.4,0,0,FastAcc,35,18,Man,Right,
45,14,1,1.3173884000007092,['c'],1,left,['u'],1,0.1850136000011844,0.4,1,0,FastAcc,35,18,Man,Right,
46,14,1,0.46736199999941164,['c'],0,right,['e'],0,0.9136513000012201,0.1,1,0,FastAcc,35,18,Man,Right,
47,14,1,0.40070100000048114,['c'],0,right,['e'],0,1.2481372000002011,0.1,1,0,FastAcc,35,18,Man,Right,
48,14,1,0.41711080000095535,['c'],0,right,['e'],0,0.7835719000013341,0.2,1,0,FastAcc,35,18,Man,Right,
49,14,1,0.2839966000010463,['c'],0,right,['e'],0,0.45529180000085034,0.4,1,0,FastAcc,35,18,Man,Right,
50,14,1,0.8006590000004508,['c'],0,right,['u'],1,0.4877148000014131,0.4,0,0,FastAcc,35,18,Man,Right,
51,14,1,0.30058960000133084,['c'],0,right,['u'],1,0.5228705000008631,0.2,0,0,FastAcc,35,18,Man,Right,
52,14,1,0.5167019000000437,['c'],1,left,['u'],1,0.35612570000012056,0.4,1,0,FastAcc,35,18,Man,Right,
53,14,1,0.41698149999865564,['c'],0,right,['u'],1,0.599651200000153,0.1,0,0,FastAcc,35,18,Man,Right,
54,14,1,0.5003434000009293,['c'],1,left,['u'],1,0.478259599998637,0.4,1,0,FastAcc,35,18,Man,Right,
55,14,1,0.5843231999988348,['c'],1,left,['e'],0,0.8066618000011658,0.2,0,0,FastAcc,35,18,Man,Right,
56,14,1,0.5008976999997685,['c'],0,right,['e'],0,1.0933702000002086,0.2,1,0,FastAcc,35,18,Man,Right,
57,14,1,0.5508375999997952,['c'],0,right,['u'],1,0.5026015999992524,0.1,0,0,FastAcc,35,18,Man,Right,
58,14,1,1.4843337000002066,['n'],1,right,['e'],0,0.8578650999988895,0.1,0,0,FastAcc,35,18,Man,Right,
59,14,1,1.866160100000343,['n'],1,right,['u'],1,1.488044699999591,0.2,1,0,FastAcc,35,18,Man,Right,
0,15,1,0.7504825999985769,['c'],1,left,['u'],1,0.20689329999913753,0.1,1,0,FastFast,35,18,Man,Right,
1,15,1,0.499798799999553,['c'],1,left,['u'],1,0.1976254000001063,0.4,1,0,FastFast,35,18,Man,Right,
2,15,1,0.6006805999986682,['c'],0,right,['u'],1,0.18356669999957376,0.1,0,0,FastFast,35,18,Man,Right,
3,15,1,0.9337688999985403,['n'],1,right,['e'],0,0.1900949999999284,0.2,0,0,FastFast,35,18,Man,Right,
4,15,1,1.0167072999993252,['n'],1,right,['u'],1,0.14387040000110574,0.4,1,0,FastFast,35,18,Man,Right,
5,15,1,0.8177243999998609,['n'],0,left,['u'],1,0.140306999999666,0.1,0,0,FastFast,35,18,Man,Right,
6,15,1,1.0653566000000865,['n'],1,right,['u'],1,0.12820319999991625,0.2,1,0,FastFast,35,18,Man,Right,
7,15,1,0.9175625999996555,['n'],1,right,['e'],0,0.15200650000042515,0.2,0,0,FastFast,35,18,Man,Right,
8,15,1,0.783766900000046,['n'],0,left,['e'],0,0.1330515000008745,0.2,1,0,FastFast,35,18,Man,Right,
9,15,1,0.7341454999987036,['n'],1,right,['u'],1,0.1168785999998363,0.4,1,0,FastFast,35,18,Man,Right,
10,15,1,0.7164978000000701,['n'],0,left,['e'],0,0.1503735999995115,0.2,1,0,FastFast,35,18,Man,Right,
11,15,1,0.7341442999986612,['n'],1,right,['u'],1,0.14912730000105512,0.1,1,0,FastFast,35,18,Man,Right,
12,15,1,1.8507518000005803,['c'],1,left,['u'],1,0.21582600000147067,0.4,1,0,FastFast,35,18,Man,Right,
13,15,1,0.6675133999997342,['c'],1,left,['u'],1,0.15145070000107808,0.2,1,0,FastFast,35,18,Man,Right,
14,15,1,0.5841359999994893,['c'],0,right,['e'],0,0.45999770000162243,0.1,1,0,FastFast,35,18,Man,Right,
15,15,1,0.616895499999373,['c'],1,left,['u'],1,0.13185349999912432,0.4,1,0,FastFast,35,18,Man,Right,
16,15,1,0.6008607000003394,['c'],1,left,['u'],1,0.16905380000025616,0.4,1,0,FastFast,35,18,Man,Right,
17,15,1,0.5842128000003868,['c'],1,left,['u'],1,0.17341450000094483,0.1,1,0,FastFast,35,18,Man,Right,
18,15,1,0.5840576000009605,['c'],0,right,['e'],0,0.3219054999990476,0.2,1,0,FastFast,35,18,Man,Right,
19,15,1,0.868476899999223,['n'],1,right,['u'],1,0.13295019999895885,0.4,1,0,FastFast,35,18,Man,Right,
20,15,1,1.0834353999998712,['n'],0,left,['u'],1,0.11879360000057204,0.1,0,0,FastFast,35,18,Man,Right,
21,15,1,0.6840056000000914,['c'],1,left,['u'],1,0.1534642000005988,0.2,1,0,FastFast,35,18,Man,Right,
22,15,1,1.117281399998319,['c'],0,right,['u'],1,0.08898820000104024,0.2,0,0,FastFast,35,18,Man,Right,
23,15,1,0.6505441000008432,['c'],1,left,['u'],1,0.07885519999945245,0.4,1,0,FastFast,35,18,Man,Right,
24,15,1,0.7007125999989512,['c'],1,left,['u'],1,0.1460815000009461,0.1,1,0,FastFast,35,18,Man,Right,
25,15,1,0.6330207000009977,['c'],1,left,['u'],1,0.16562949999934062,0.4,1,0,FastFast,35,18,Man,Right,
26,15,1,0.649256200000309,['c'],0,right,['u'],1,0.12021889999959967,0.1,0,0,FastFast,35,18,Man,Right,
27,15,1,1.117658900000606,['c'],0,right,['e'],0,0.08799619999990682,0.1,1,0,FastFast,35,18,Man,Right,
28,15,1,0.667544199999611,['c'],0,right,['e'],0,0.09232049999991432,0.2,1,0,FastFast,35,18,Man,Right,
29,15,1,0.6675675000005867,['c'],0,right,['e'],0,0.14473950000137847,0.1,1,0,FastFast,35,18,Man,Right,
30,15,1,0.5510200999997323,['c'],1,left,['u'],1,0.1838298999991821,0.2,1,0,FastFast,35,18,Man,Right,
31,15,1,0.5993924000013067,['c'],0,right,['u'],1,0.17189610000059474,0.4,0,0,FastFast,35,18,Man,Right,
32,15,1,0.7503729000000021,['c'],0,right,['u'],1,0.10491460000048392,0.1,0,0,FastFast,35,18,Man,Right,
33,15,1,0.7509372000004078,['c'],1,left,['u'],1,0.10601970000061556,0.2,1,0,FastFast,35,18,Man,Right,
34,15,1,0.6343317999999272,['c'],0,right,['u'],1,0.1742960999999923,0.2,0,0,FastFast,35,18,Man,Right,
35,15,1,0.5342160000000149,['c'],1,left,['u'],1,0.10081480000008014,0.4,1,0,FastFast,35,18,Man,Right,
36,15,1,0.617678500000693,['c'],0,right,['u'],1,0.10652619999927992,0.1,0,0,FastFast,35,18,Man,Right,
37,15,1,0.5343011999993905,['c'],1,left,['u'],1,0.08364169999913429,0.1,1,0,FastFast,35,18,Man,Right,
38,15,1,1.0342206999994232,['c'],0,right,['e'],0,0.05736329999854206,0.2,1,0,FastFast,35,18,Man,Right,
39,15,1,0.7343644000011409,['c'],1,left,['u'],1,0.12475590000030934,0.1,1,0,FastFast,35,18,Man,Right,
40,15,1,0.7003807000000961,['c'],1,left,['u'],1,0.11022219999904337,0.4,1,0,FastFast,35,18,Man,Right,
41,15,1,1.2672703999996884,['n'],1,right,['e'],0,0.09083819999978004,0.4,0,0,FastFast,35,18,Man,Right,
42,15,1,0.9173924999995506,['c'],0,right,['u'],1,0.10055179999835673,0.4,0,0,FastFast,35,18,Man,Right,
43,15,1,0.9837009000002581,['c'],0,right,['u'],1,0.12378870000065945,0.2,0,0,FastFast,35,18,Man,Right,
44,15,1,0.850811900001645,['c'],1,left,['u'],1,0.13574420000077225,0.4,1,0,FastFast,35,18,Man,Right,
45,15,1,1.1996947999996337,['n'],1,right,['u'],1,0.24503839999852062,0.1,1,0,FastFast,35,18,Man,Right,
46,15,1,0.8162422000004881,['c'],0,right,['u'],1,0.10994009999922127,0.2,0,0,FastFast,35,18,Man,Right,
47,15,1,0.7510823000011442,['c'],1,left,['u'],1,0.1418876999996428,0.1,1,0,FastFast,35,18,Man,Right,
48,15,1,0.7343032999997376,['c'],0,right,['e'],0,0.7816882999995869,0.4,1,0,FastFast,35,18,Man,Right,
49,15,1,0.7841336999990745,['c'],1,left,['u'],1,0.12952299999960815,0.1,1,0,FastFast,35,18,Man,Right,
50,15,1,0.9507690999998886,['n'],0,left,['e'],0,0.12055030000010447,0.2,1,0,FastFast,35,18,Man,Right,
51,15,1,0.983524799999941,['n'],1,right,['u'],1,0.06302800000048592,0.4,1,0,FastFast,35,18,Man,Right,
52,15,1,0.6343746000002284,['c'],0,right,['u'],1,0.10150869999961287,0.2,0,0,FastFast,35,18,Man,Right,
53,15,1,0.8174218999993172,['c'],0,right,['e'],0,0.3874605999990308,0.1,1,0,FastFast,35,18,Man,Right,
54,15,1,0.8332639999989624,['c'],1,left,['u'],1,0.06927079999877606,0.4,1,0,FastFast,35,18,Man,Right,
55,15,1,1.0843095000000176,['n'],1,right,['u'],1,0.12171110000053886,0.2,1,0,FastFast,35,18,Man,Right,
56,15,1,1.134293200000684,['c'],1,left,['e'],0,0.07419530000152008,0.1,0,0,FastFast,35,18,Man,Right,
57,15,1,1.3509620999993786,['c'],1,left,['u'],1,0.11618749999979627,0.4,1,0,FastFast,35,18,Man,Right,
58,15,1,1.6335353999984363,['n'],0,left,['e'],0,0.09689419999995152,0.4,1,0,FastFast,35,18,Man,Right,
59,15,1,0.7674000000006345,['n'],0,left,['u'],1,0.0964722000007896,0.2,0,0,FastFast,35,18,Man,Right,
