withinblocktrial,block,block_repetition,rt,resp,cor,cresp,conf_press,cj,rtconf,coherence,slow_trial,manipulation,sub,age,gender,handedness,
0,1,1,2.000067900000431,['n'],1,right,none,-99,-99,0.5,0,none,4,18,Woman,Right,
1,1,1,0.8502601000000141,['c'],1,left,none,-99,-99,0.5,0,none,4,18,Woman,Right,
2,1,1,0.5820702000000892,['n'],1,right,none,-99,-99,0.5,0,none,4,18,Woman,Right,
3,1,1,1.466043699999318,['n'],0,left,none,-99,-99,0.5,0,none,4,18,Woman,Right,
4,1,1,0.8166783000006035,['n'],1,right,none,-99,-99,0.5,0,none,4,18,Woman,Right,
5,1,1,0.6494701999999961,['c'],1,left,none,-99,-99,0.5,0,none,4,18,Woman,Right,
6,1,1,1.401006199999756,['c'],1,left,none,-99,-99,0.5,0,none,4,18,Woman,Right,
7,1,1,0.6337537999997949,['n'],1,right,none,-99,-99,0.5,0,none,4,18,Woman,Right,
8,1,1,0.5830017999996926,['c'],1,left,none,-99,-99,0.5,0,none,4,18,Woman,Right,
9,1,1,0.7497034000007261,['c'],1,left,none,-99,-99,0.5,0,none,4,18,Woman,Right,
10,1,1,0.7502426000000924,['c'],1,left,none,-99,-99,0.5,0,none,4,18,Woman,Right,
11,1,1,1.0171493000007104,['n'],0,left,none,-99,-99,0.5,0,none,4,18,Woman,Right,
12,1,1,0.9993708000001789,['c'],1,left,none,-99,-99,0.5,0,none,4,18,Woman,Right,
13,1,1,0.7653331000001344,['n'],1,right,none,-99,-99,0.5,0,none,4,18,Woman,Right,
14,1,1,0.6663679000002958,['n'],1,right,none,-99,-99,0.5,0,none,4,18,Woman,Right,
15,1,1,0.5334439000007478,['n'],1,right,none,-99,-99,0.5,0,none,4,18,Woman,Right,
16,1,1,0.5833674000004976,['n'],1,right,none,-99,-99,0.5,0,none,4,18,Woman,Right,
17,1,1,0.6170146000004024,['c'],1,left,none,-99,-99,0.5,0,none,4,18,Woman,Right,
18,1,1,0.8163631999996142,['c'],1,left,none,-99,-99,0.5,0,none,4,18,Woman,Right,
19,1,1,0.9168405000000348,['n'],1,right,none,-99,-99,0.5,0,none,4,18,Woman,Right,
20,1,1,0.7330001000000266,['n'],1,right,none,-99,-99,0.5,0,none,4,18,Woman,Right,
21,1,1,0.8502398999999059,['n'],0,left,none,-99,-99,0.5,0,none,4,18,Woman,Right,
22,1,1,1.5664795000002414,['c'],0,right,none,-99,-99,0.5,0,none,4,18,Woman,Right,
23,1,1,1.2826125000001412,['c'],0,right,none,-99,-99,0.5,0,none,4,18,Woman,Right,
0,1,2,2.3670068000001265,['n'],1,right,none,-99,-99,0.5,0,none,4,18,Woman,Right,
1,1,2,1.100055899999461,['c'],0,right,none,-99,-99,0.5,0,none,4,18,Woman,Right,
2,1,2,0.9835211999998137,['c'],1,left,none,-99,-99,0.5,0,none,4,18,Woman,Right,
3,1,2,1.1669945999992706,['n'],0,left,none,-99,-99,0.5,0,none,4,18,Woman,Right,
4,1,2,4.61576580000019,['c'],1,left,none,-99,-99,0.5,0,none,4,18,Woman,Right,
5,1,2,1.3502258999997139,['c'],1,left,none,-99,-99,0.5,0,none,4,18,Woman,Right,
6,1,2,0.7002192999998442,['n'],1,right,none,-99,-99,0.5,0,none,4,18,Woman,Right,
7,1,2,0.79974459999994,['c'],1,left,none,-99,-99,0.5,0,none,4,18,Woman,Right,
8,1,2,0.7834808000006888,['n'],1,right,none,-99,-99,0.5,0,none,4,18,Woman,Right,
9,1,2,0.7832705999999234,['n'],0,left,none,-99,-99,0.5,0,none,4,18,Woman,Right,
10,1,2,2.716798000000381,['c'],1,left,none,-99,-99,0.5,0,none,4,18,Woman,Right,
11,1,2,1.400107299999945,['n'],1,right,none,-99,-99,0.5,0,none,4,18,Woman,Right,
12,1,2,0.8998592999996617,['c'],1,left,none,-99,-99,0.5,0,none,4,18,Woman,Right,
13,1,2,0.967000000000553,['n'],0,left,none,-99,-99,0.5,0,none,4,18,Woman,Right,
14,1,2,2.882916700000351,['c'],1,left,none,-99,-99,0.5,0,none,4,18,Woman,Right,
15,1,2,2.8331972000005408,['c'],0,right,none,-99,-99,0.5,0,none,4,18,Woman,Right,
16,1,2,2.1661628000001656,['c'],1,left,none,-99,-99,0.5,0,none,4,18,Woman,Right,
17,1,2,1.0330969999995432,['n'],1,right,none,-99,-99,0.5,0,none,4,18,Woman,Right,
18,1,2,1.4163204999995287,['n'],1,right,none,-99,-99,0.5,0,none,4,18,Woman,Right,
19,1,2,1.5666618000004746,['n'],1,right,none,-99,-99,0.5,0,none,4,18,Woman,Right,
20,1,2,1.1164122000000134,['n'],1,right,none,-99,-99,0.5,0,none,4,18,Woman,Right,
21,1,2,1.4331665999998222,['c'],0,right,none,-99,-99,0.5,0,none,4,18,Woman,Right,
22,1,2,1.0161159999997835,['n'],1,right,none,-99,-99,0.5,0,none,4,18,Woman,Right,
23,1,2,1.850261099999443,['n'],0,left,none,-99,-99,0.5,0,none,4,18,Woman,Right,
0,1,3,1.5494595000000118,['c'],1,left,none,-99,-99,0.5,0,none,4,18,Woman,Right,
1,1,3,2.016023099999984,['n'],1,right,none,-99,-99,0.5,0,none,4,18,Woman,Right,
2,1,3,1.5665509999998903,['n'],1,right,none,-99,-99,0.5,0,none,4,18,Woman,Right,
3,1,3,1.0512244999999893,['c'],1,left,none,-99,-99,0.5,0,none,4,18,Woman,Right,
4,1,3,3.400225500000488,['n'],1,right,none,-99,-99,0.5,0,none,4,18,Woman,Right,
5,1,3,3.284514699999818,['n'],1,right,none,-99,-99,0.5,0,none,4,18,Woman,Right,
6,1,3,1.88365739999972,['c'],1,left,none,-99,-99,0.5,0,none,4,18,Woman,Right,
7,1,3,1.2325583000001643,['c'],1,left,none,-99,-99,0.5,0,none,4,18,Woman,Right,
8,1,3,1.3998377999996592,['c'],1,left,none,-99,-99,0.5,0,none,4,18,Woman,Right,
9,1,3,0.9497558000002755,['c'],1,left,none,-99,-99,0.5,0,none,4,18,Woman,Right,
10,1,3,1.1000344999993104,['c'],1,left,none,-99,-99,0.5,0,none,4,18,Woman,Right,
11,1,3,0.816942299999937,['n'],1,right,none,-99,-99,0.5,0,none,4,18,Woman,Right,
12,1,3,0.6501828999998907,['c'],1,left,none,-99,-99,0.5,0,none,4,18,Woman,Right,
13,1,3,0.7334290000007968,['c'],1,left,none,-99,-99,0.5,0,none,4,18,Woman,Right,
14,1,3,0.9330666999994719,['n'],1,right,none,-99,-99,0.5,0,none,4,18,Woman,Right,
15,1,3,1.8169574000003195,['n'],0,left,none,-99,-99,0.5,0,none,4,18,Woman,Right,
16,1,3,1.2161805999994613,['n'],1,right,none,-99,-99,0.5,0,none,4,18,Woman,Right,
17,1,3,2.716500399999859,['n'],1,right,none,-99,-99,0.5,0,none,4,18,Woman,Right,
18,1,3,0.7664046999998391,['c'],1,left,none,-99,-99,0.5,0,none,4,18,Woman,Right,
19,1,3,0.9660361000005651,['n'],1,right,none,-99,-99,0.5,0,none,4,18,Woman,Right,
20,1,3,0.7994008000005124,['c'],1,left,none,-99,-99,0.5,0,none,4,18,Woman,Right,
21,1,3,0.8826400999996622,['n'],1,right,none,-99,-99,0.5,0,none,4,18,Woman,Right,
22,1,3,1.0490661000003456,['n'],1,right,none,-99,-99,0.5,0,none,4,18,Woman,Right,
23,1,3,0.8000357000000804,['n'],1,right,none,-99,-99,0.5,0,none,4,18,Woman,Right,
0,2,1,2.1986590999995315,['n'],0,left,none,-99,-99,0.2,0,none,4,18,Woman,Right,
1,2,1,1.316327999999885,['c'],1,left,none,-99,-99,0.4,0,none,4,18,Woman,Right,
2,2,1,1.4001916999995956,['n'],0,left,none,-99,-99,0.2,0,none,4,18,Woman,Right,
3,2,1,3.899922499999775,['n'],0,left,none,-99,-99,0.1,0,none,4,18,Woman,Right,
4,2,1,1.2501886000000013,['c'],1,left,none,-99,-99,0.4,0,none,4,18,Woman,Right,
5,2,1,4.466744800000015,['n'],1,right,none,-99,-99,0.1,0,none,4,18,Woman,Right,
6,2,1,3.583346100000199,['n'],1,right,none,-99,-99,0.4,0,none,4,18,Woman,Right,
7,2,1,2.600450699999783,['n'],1,right,none,-99,-99,0.2,0,none,4,18,Woman,Right,
8,2,1,1.616823999999724,['n'],0,left,none,-99,-99,0.2,0,none,4,18,Woman,Right,
9,2,1,5.016167200000382,x,-99,left,none,-99,-99,0.4,1,none,4,18,Woman,Right,
10,2,1,1.332987900000262,['c'],0,right,none,-99,-99,0.1,0,none,4,18,Woman,Right,
11,2,1,1.7682402999998885,['c'],1,left,none,-99,-99,0.1,0,none,4,18,Woman,Right,
12,2,1,2.150115800000094,['n'],1,right,none,-99,-99,0.1,0,none,4,18,Woman,Right,
13,2,1,1.1339791000000332,['n'],1,right,none,-99,-99,0.1,0,none,4,18,Woman,Right,
14,2,1,1.0328873999997086,['n'],1,right,none,-99,-99,0.4,0,none,4,18,Woman,Right,
15,2,1,1.6836279999997714,['c'],1,left,none,-99,-99,0.1,0,none,4,18,Woman,Right,
16,2,1,1.8161779000001843,['c'],1,left,none,-99,-99,0.2,0,none,4,18,Woman,Right,
17,2,1,0.6662367999997514,['n'],1,right,none,-99,-99,0.4,0,none,4,18,Woman,Right,
18,2,1,1.3668496999998752,['n'],0,left,none,-99,-99,0.2,0,none,4,18,Woman,Right,
19,2,1,2.0502199000002292,['n'],1,right,none,-99,-99,0.1,0,none,4,18,Woman,Right,
20,2,1,1.7505046000005677,['c'],0,right,none,-99,-99,0.2,0,none,4,18,Woman,Right,
21,2,1,1.4163658000006762,['n'],1,right,none,-99,-99,0.4,0,none,4,18,Woman,Right,
22,2,1,1.416233399999328,['n'],0,left,none,-99,-99,0.2,0,none,4,18,Woman,Right,
23,2,1,1.3330188999998427,['c'],0,right,none,-99,-99,0.4,0,none,4,18,Woman,Right,
0,2,2,1.2673974999997881,['n'],1,right,none,-99,-99,0.2,0,none,4,18,Woman,Right,
1,2,2,0.9163616000005277,['n'],1,right,none,-99,-99,0.4,0,none,4,18,Woman,Right,
2,2,2,0.7827624999999898,['c'],1,left,none,-99,-99,0.2,0,none,4,18,Woman,Right,
3,2,2,0.6502271999997902,['n'],1,right,none,-99,-99,0.1,0,none,4,18,Woman,Right,
4,2,2,0.7653202999999849,['n'],1,right,none,-99,-99,0.4,0,none,4,18,Woman,Right,
5,2,2,0.650288200000432,['c'],1,left,none,-99,-99,0.1,0,none,4,18,Woman,Right,
6,2,2,0.6163595999996687,['c'],1,left,none,-99,-99,0.4,0,none,4,18,Woman,Right,
7,2,2,1.5992879000004905,['c'],1,left,none,-99,-99,0.2,0,none,4,18,Woman,Right,
8,2,2,0.7496983999999429,['c'],1,left,none,-99,-99,0.2,0,none,4,18,Woman,Right,
9,2,2,0.6827881999997771,['c'],1,left,none,-99,-99,0.4,0,none,4,18,Woman,Right,
10,2,2,2.0661786999999094,['c'],1,left,none,-99,-99,0.1,0,none,4,18,Woman,Right,
11,2,2,1.0836071000003358,['c'],1,left,none,-99,-99,0.1,0,none,4,18,Woman,Right,
12,2,2,1.5011058000000048,['c'],0,right,none,-99,-99,0.1,0,none,4,18,Woman,Right,
13,2,2,1.8681107000002157,['c'],0,right,none,-99,-99,0.1,0,none,4,18,Woman,Right,
14,2,2,0.866236800000479,['c'],1,left,none,-99,-99,0.4,0,none,4,18,Woman,Right,
15,2,2,0.9665118999992046,['n'],1,right,none,-99,-99,0.1,0,none,4,18,Woman,Right,
16,2,2,1.316908599999806,['n'],1,right,none,-99,-99,0.2,0,none,4,18,Woman,Right,
17,2,2,0.7668828000005306,['n'],1,right,none,-99,-99,0.4,0,none,4,18,Woman,Right,
18,2,2,0.5488679999998567,['n'],1,right,none,-99,-99,0.2,0,none,4,18,Woman,Right,
19,2,2,0.5175945999999385,['c'],1,left,none,-99,-99,0.1,0,none,4,18,Woman,Right,
20,2,2,0.5502372000000832,['c'],0,right,none,-99,-99,0.2,0,none,4,18,Woman,Right,
21,2,2,0.466130300000259,['c'],1,left,none,-99,-99,0.4,0,none,4,18,Woman,Right,
22,2,2,0.7666042000000743,['c'],1,left,none,-99,-99,0.2,0,none,4,18,Woman,Right,
23,2,2,0.5158375000000888,['n'],1,right,none,-99,-99,0.4,0,none,4,18,Woman,Right,
0,3,1,0.9829355000001669,['c'],1,left,['1'],6,0.667574500000228,0.2,0,none,4,18,Woman,Right,
1,3,1,2.5500402999996368,['n'],1,right,['3'],4,1.9844218999996883,0.1,0,none,4,18,Woman,Right,
2,3,1,5.0157677000006515,x,-99,right,none,-99,-99,0.1,1,none,4,18,Woman,Right,
3,3,1,0.9324924000002284,['c'],0,right,['8'],3,1.0676222000001871,0.2,0,none,4,18,Woman,Right,
4,3,1,2.834649399999762,['c'],1,left,['9'],2,1.6676984999994602,0.1,0,none,4,18,Woman,Right,
5,3,1,1.7002025000001595,['n'],1,right,['3'],4,0.8675374999993437,0.1,0,none,4,18,Woman,Right,
6,3,1,0.050720400000500376,['n'],0,left,['9'],2,3.3005814000007376,0.1,0,none,4,18,Woman,Right,
7,3,1,1.4507804999993823,['c'],1,left,['3'],4,0.8176724000004469,0.4,0,none,4,18,Woman,Right,
8,3,1,1.9674350000004779,['c'],1,left,['2'],5,0.3344609000005221,0.1,0,none,4,18,Woman,Right,
9,3,1,1.249495900000511,['c'],1,left,['1'],6,0.617146500000672,0.4,0,none,4,18,Woman,Right,
10,3,1,0.9341608000004271,['n'],1,right,['3'],4,0.8009609999999157,0.1,0,none,4,18,Woman,Right,
11,3,1,1.599901100000352,['c'],0,right,['8'],3,0.36721940000006725,0.2,0,none,4,18,Woman,Right,
12,3,1,2.649408399999629,['n'],1,right,['9'],2,1.1834688999997525,0.2,0,none,4,18,Woman,Right,
13,3,1,2.1681281000001036,['c'],1,left,['8'],3,0.9509839000002103,0.2,0,none,4,18,Woman,Right,
14,3,1,1.767106700000113,['n'],0,left,['3'],4,0.9175451999999495,0.4,0,none,4,18,Woman,Right,
15,3,1,1.6327080999999453,['c'],0,right,['0'],1,0.5011618999997154,0.2,0,none,4,18,Woman,Right,
16,3,1,1.7674056999994718,['n'],1,right,['2'],5,1.6000323999996908,0.2,0,none,4,18,Woman,Right,
17,3,1,1.9009932999997545,['n'],0,left,['3'],4,0.9010934999996607,0.1,0,none,4,18,Woman,Right,
18,3,1,0.9663352999996278,['c'],1,left,['2'],5,2.334151400000337,0.4,0,none,4,18,Woman,Right,
19,3,1,0.8503749000001335,['c'],1,left,['3'],4,0.33323490000020684,0.4,0,none,4,18,Woman,Right,
20,3,1,1.7339178000001993,['n'],1,right,['9'],2,1.0509987000004912,0.4,0,none,4,18,Woman,Right,
21,3,1,2.249998900000719,['c'],0,right,['3'],4,1.4840379999996003,0.2,0,none,4,18,Woman,Right,
22,3,1,2.9496898999987025,['n'],1,right,['3'],4,2.8345792000000074,0.4,0,none,4,18,Woman,Right,
23,3,1,2.116227300000901,['c'],1,left,['2'],5,0.40049590000126045,0.4,0,none,4,18,Woman,Right,
0,4,1,0.9171365999991394,['c'],0,right,['3'],4,0.6670672000000195,0.4,0,FastFast,4,18,Woman,Right,
1,4,1,0.8007090999999491,['c'],1,left,['3'],4,0.4011051999987103,0.1,0,FastFast,4,18,Woman,Right,
2,4,1,0.5839424999994662,['c'],1,left,['2'],5,0.4509533999989799,0.4,0,FastFast,4,18,Woman,Right,
3,4,1,0.8008406999997533,['n'],0,left,['8'],3,0.28326320000087435,0.1,0,FastFast,4,18,Woman,Right,
4,4,1,0.5167073000011442,['n'],1,right,['9'],2,0.41763470000114467,0.2,0,FastFast,4,18,Woman,Right,
5,4,1,1.749826999999641,['c'],1,left,['3'],4,0.8509749000004376,0.4,0,FastFast,4,18,Woman,Right,
6,4,1,1.7164812999999413,['n'],1,right,['3'],4,1.1004717999985587,0.2,0,FastFast,4,18,Woman,Right,
7,4,1,1.2167907999992167,['n'],1,right,['9'],2,0.383991500000775,0.2,0,FastFast,4,18,Woman,Right,
8,4,1,0.5835017999997945,['c'],0,right,['9'],2,0.600734999999986,0.1,0,FastFast,4,18,Woman,Right,
9,4,1,1.633652799999254,['n'],0,left,['8'],3,1.4010121999999683,0.1,0,FastFast,4,18,Woman,Right,
10,4,1,0.983081399999719,['c'],1,left,['2'],5,0.28354850000141596,0.2,0,FastFast,4,18,Woman,Right,
11,4,1,1.0000309000006382,['c'],0,right,['3'],4,0.5012182999998913,0.2,0,FastFast,4,18,Woman,Right,
12,4,1,0.6504654000000301,['c'],1,left,['2'],5,0.6844291999987036,0.1,0,FastFast,4,18,Woman,Right,
13,4,1,1.301003700000365,['n'],0,left,['8'],3,0.6167738999993162,0.1,0,FastFast,4,18,Woman,Right,
14,4,1,0.9664260999998078,['c'],1,left,['1'],6,1.2676917999997386,0.4,0,FastFast,4,18,Woman,Right,
15,4,1,0.816808099998525,['c'],1,left,['1'],6,0.38388080000004265,0.4,0,FastFast,4,18,Woman,Right,
16,4,1,0.8997462000006635,['c'],0,right,['2'],5,0.28450059999886435,0.1,0,FastFast,4,18,Woman,Right,
17,4,1,0.6335868999995,['c'],0,right,['8'],3,0.6838277000006201,0.2,0,FastFast,4,18,Woman,Right,
18,4,1,1.2668850000009115,['n'],1,right,['8'],3,1.2838780000001861,0.2,0,FastFast,4,18,Woman,Right,
19,4,1,0.8336414000004879,['n'],1,right,['3'],4,1.4508636999998998,0.1,0,FastFast,4,18,Woman,Right,
20,4,1,0.6005585000002611,['c'],1,left,['2'],5,0.36773859999993874,0.1,0,FastFast,4,18,Woman,Right,
21,4,1,0.6506071999992855,['c'],1,left,['2'],5,0.26761099999930593,0.2,0,FastFast,4,18,Woman,Right,
22,4,1,0.4841808000001038,['c'],1,left,['1'],6,0.2669514999997773,0.4,0,FastFast,4,18,Woman,Right,
23,4,1,0.3838774999985617,['c'],1,left,['3'],4,0.23420640000040294,0.2,0,FastFast,4,18,Woman,Right,
24,4,1,0.7505930000006629,['n'],1,right,['3'],4,0.6170721999988018,0.4,0,FastFast,4,18,Woman,Right,
25,4,1,0.8508636000005936,['n'],1,right,['2'],5,0.36744370000087656,0.4,0,FastFast,4,18,Woman,Right,
26,4,1,1.5332847999998194,['n'],1,right,['8'],3,0.3341379000012239,0.1,0,FastFast,4,18,Woman,Right,
27,4,1,0.5673344999995606,['n'],1,right,['3'],4,0.9507747999996354,0.4,0,FastFast,4,18,Woman,Right,
28,4,1,0.8007577000007586,['c'],1,left,['2'],5,0.41707619999942835,0.4,0,FastFast,4,18,Woman,Right,
29,4,1,0.8500781999991887,['n'],1,right,['3'],4,0.634693399999378,0.4,0,FastFast,4,18,Woman,Right,
30,4,1,1.1834682999997312,['n'],1,right,['9'],2,1.0341649999991205,0.1,0,FastFast,4,18,Woman,Right,
31,4,1,1.1502572999997938,['c'],1,left,['2'],5,0.41780670000116515,0.2,0,FastFast,4,18,Woman,Right,
32,4,1,0.5503365000004123,['c'],1,left,['1'],6,0.2510025999999925,0.1,0,FastFast,4,18,Woman,Right,
33,4,1,0.8492495000009512,['c'],1,left,['2'],5,0.26735999999982596,0.4,0,FastFast,4,18,Woman,Right,
34,4,1,1.050031200000376,['c'],0,right,['8'],3,0.7172212999994372,0.2,0,FastFast,4,18,Woman,Right,
35,4,1,0.7175487999993493,['c'],0,right,['2'],5,0.7004063999993377,0.1,0,FastFast,4,18,Woman,Right,
36,4,1,1.534874700000728,['c'],0,right,['3'],4,0.30125690000022587,0.4,0,FastFast,4,18,Woman,Right,
37,4,1,0.5665382999995927,['n'],1,right,['8'],3,0.30102939999960654,0.4,0,FastFast,4,18,Woman,Right,
38,4,1,0.5339024999993853,['c'],0,right,['3'],4,1.101199099999576,0.1,0,FastFast,4,18,Woman,Right,
39,4,1,0.449876900000163,['c'],1,left,['8'],3,0.48352519999934884,0.1,0,FastFast,4,18,Woman,Right,
40,4,1,0.967359000000215,['c'],0,right,['9'],2,0.21690010000020266,0.2,0,FastFast,4,18,Woman,Right,
41,4,1,0.5004614000008587,['n'],0,left,['2'],5,0.3840277999988757,0.2,0,FastFast,4,18,Woman,Right,
42,4,1,1.7172936999995727,['c'],0,right,['8'],3,0.9003556999996363,0.2,0,FastFast,4,18,Woman,Right,
43,4,1,0.800802299998395,['c'],1,left,['8'],3,0.5675699999992503,0.2,0,FastFast,4,18,Woman,Right,
44,4,1,1.4006964000000153,['c'],0,right,['3'],4,0.3338395999999193,0.4,0,FastFast,4,18,Woman,Right,
45,4,1,1.1174143999996886,['c'],0,right,['3'],4,0.2340189000005921,0.1,0,FastFast,4,18,Woman,Right,
46,4,1,2.11697550000099,['n'],1,right,['0'],1,0.3010854999993171,0.4,0,FastFast,4,18,Woman,Right,
47,4,1,0.7002967000007629,['n'],0,left,['2'],5,0.38411900000028254,0.2,0,FastFast,4,18,Woman,Right,
48,4,1,0.7668410999995103,['c'],1,left,['1'],6,0.3675942000008945,0.4,0,FastFast,4,18,Woman,Right,
49,4,1,0.7837177999990672,['c'],0,right,['3'],4,0.30130089999875054,0.2,0,FastFast,4,18,Woman,Right,
50,4,1,0.46653450000121666,['n'],0,left,['0'],1,1.0003575000009732,0.4,0,FastFast,4,18,Woman,Right,
51,4,1,1.1000635999989754,['n'],1,right,['8'],3,0.88435600000048,0.1,0,FastFast,4,18,Woman,Right,
52,4,1,0.716919999998936,['c'],1,left,['2'],5,0.31737710000015795,0.4,0,FastFast,4,18,Woman,Right,
53,4,1,1.2334673999994266,['c'],1,left,['2'],5,0.5180774000000383,0.1,0,FastFast,4,18,Woman,Right,
54,4,1,0.7331887000000279,['c'],1,left,['3'],4,0.4001668000000791,0.2,0,FastFast,4,18,Woman,Right,
55,4,1,1.434497199999896,['c'],1,left,['2'],5,0.5673329000001104,0.4,0,FastFast,4,18,Woman,Right,
56,4,1,0.8998427000005904,['n'],1,right,['9'],2,0.5508657000009407,0.1,0,FastFast,4,18,Woman,Right,
57,4,1,0.7496498000000429,['n'],1,right,['2'],5,0.2676883000003727,0.1,0,FastFast,4,18,Woman,Right,
58,4,1,1.0827296000006754,['c'],1,left,['3'],4,0.4180047999998351,0.2,0,FastFast,4,18,Woman,Right,
59,4,1,2.0663081999991846,['n'],0,left,['8'],3,0.7508130999995046,0.2,0,FastFast,4,18,Woman,Right,
0,5,1,1.8333457999997336,['n'],1,right,['2'],5,0.6502478999991581,0.4,0,AccFast,4,18,Woman,Right,
1,5,1,1.2835668999996415,['n'],0,left,['3'],4,0.7176541999997426,0.2,0,AccFast,4,18,Woman,Right,
2,5,1,1.9830233000011503,['n'],0,left,['8'],3,1.5507314000005863,0.1,0,AccFast,4,18,Woman,Right,
3,5,1,1.9997454000003927,['n'],1,right,['3'],4,0.28335320000041975,0.4,0,AccFast,4,18,Woman,Right,
4,5,1,1.1833848999995098,['n'],1,right,['2'],5,0.2843298000007053,0.1,0,AccFast,4,18,Woman,Right,
5,5,1,0.9173327000007703,['n'],1,right,['3'],4,0.43394830000033835,0.2,0,AccFast,4,18,Woman,Right,
6,5,1,1.450550600000497,['n'],1,right,['8'],3,0.2340833999987808,0.1,0,AccFast,4,18,Woman,Right,
7,5,1,1.6664964000010514,['c'],1,left,['8'],3,0.784847400000217,0.2,0,AccFast,4,18,Woman,Right,
8,5,1,3.683925999999701,['n'],1,right,['3'],4,1.0011020000001736,0.1,0,AccFast,4,18,Woman,Right,
9,5,1,2.0176522999990993,['c'],1,left,['3'],4,0.43450470000061614,0.2,0,AccFast,4,18,Woman,Right,
10,5,1,1.467163299999811,['c'],1,left,['3'],4,0.3002840000008291,0.4,0,AccFast,4,18,Woman,Right,
11,5,1,1.183787799998754,['n'],1,right,['3'],4,0.4846378000002005,0.2,0,AccFast,4,18,Woman,Right,
12,5,1,1.8502539999990404,['n'],1,right,['2'],5,0.18418759999985923,0.1,0,AccFast,4,18,Woman,Right,
13,5,1,1.4661969000007957,['n'],1,right,['2'],5,1.501748000000589,0.4,0,AccFast,4,18,Woman,Right,
14,5,1,1.13442170000053,['c'],1,left,['2'],5,0.3504659999998694,0.2,0,AccFast,4,18,Woman,Right,
15,5,1,1.7831228000013652,['c'],1,left,['8'],3,0.5838701000011497,0.1,0,AccFast,4,18,Woman,Right,
16,5,1,0.8836073000002216,['c'],1,left,['3'],4,0.20057569999880798,0.4,0,AccFast,4,18,Woman,Right,
17,5,1,0.9170795000009093,['c'],0,right,['3'],4,0.2509468999996898,0.2,0,AccFast,4,18,Woman,Right,
18,5,1,1.582932899998923,['c'],1,left,['1'],6,0.1510521999989578,0.4,0,AccFast,4,18,Woman,Right,
19,5,1,1.5004903999997623,['n'],1,right,['3'],4,1.3676677999992535,0.4,0,AccFast,4,18,Woman,Right,
20,5,1,1.2510529000010138,['n'],1,right,['9'],2,1.200706600000558,0.1,0,AccFast,4,18,Woman,Right,
21,5,1,1.5153897000000143,['n'],1,right,['3'],4,0.6173419000006106,0.1,0,AccFast,4,18,Woman,Right,
22,5,1,2.2838042999992467,['c'],1,left,['1'],6,0.41760920000160695,0.4,0,AccFast,4,18,Woman,Right,
23,5,1,2.066296400000283,['n'],0,left,['2'],5,1.4844529000001785,0.1,0,AccFast,4,18,Woman,Right,
24,5,1,2.0825501999988774,['n'],1,right,['2'],5,0.8343132000009064,0.4,0,AccFast,4,18,Woman,Right,
25,5,1,2.433080599999812,['n'],0,left,['8'],3,0.8179481999995915,0.1,0,AccFast,4,18,Woman,Right,
26,5,1,1.93284279999898,['n'],0,left,['3'],4,0.41805940000085684,0.1,0,AccFast,4,18,Woman,Right,
27,5,1,1.06680790000064,['n'],1,right,['2'],5,0.43315980000079435,0.1,0,AccFast,4,18,Woman,Right,
28,5,1,1.5007617000010214,['n'],1,right,['8'],3,0.40128329999970447,0.4,0,AccFast,4,18,Woman,Right,
29,5,1,1.1331714000007196,['n'],1,right,['3'],4,0.21743939999942086,0.4,0,AccFast,4,18,Woman,Right,
30,5,1,2.0997867999994924,['n'],0,left,['3'],4,0.5679617999994662,0.4,0,AccFast,4,18,Woman,Right,
31,5,1,2.383556299999327,['n'],1,right,['2'],5,0.25064799999927345,0.1,0,AccFast,4,18,Woman,Right,
32,5,1,1.7665849000004528,['n'],0,left,['2'],5,0.2672284000000218,0.2,0,AccFast,4,18,Woman,Right,
33,5,1,2.332873399998789,['n'],0,left,['8'],3,0.23410310000144818,0.1,0,AccFast,4,18,Woman,Right,
34,5,1,2.249575100000584,['n'],0,left,['3'],4,0.26798719999897,0.1,0,AccFast,4,18,Woman,Right,
35,5,1,2.0171484999991662,['n'],1,right,['2'],5,0.16732729999966978,0.2,0,AccFast,4,18,Woman,Right,
36,5,1,1.4331164000013814,['c'],1,left,['9'],2,0.6172719999995024,0.1,0,AccFast,4,18,Woman,Right,
37,5,1,1.1003354000004038,['n'],1,right,['2'],5,0.41750580000007176,0.4,0,AccFast,4,18,Woman,Right,
38,5,1,1.5333415000004607,['n'],1,right,['3'],4,0.21748719999959576,0.2,0,AccFast,4,18,Woman,Right,
39,5,1,3.383916099999624,['c'],0,right,['8'],3,0.48373090000131924,0.2,0,AccFast,4,18,Woman,Right,
40,5,1,3.8835971999997128,['c'],1,left,['8'],3,0.9175695999983873,0.1,0,AccFast,4,18,Woman,Right,
41,5,1,1.4667098000008991,['n'],0,left,['3'],4,0.48351560000082827,0.2,0,AccFast,4,18,Woman,Right,
42,5,1,1.616433600000164,['n'],1,right,['2'],5,0.2508932000000641,0.4,0,AccFast,4,18,Woman,Right,
43,5,1,0.9172874000014417,['c'],1,left,['2'],5,0.6006957999998122,0.2,0,AccFast,4,18,Woman,Right,
44,5,1,1.533423099999709,['n'],0,left,['9'],2,0.5508967000005214,0.2,0,AccFast,4,18,Woman,Right,
45,5,1,1.000197899998966,['c'],1,left,['1'],6,0.6169685999993817,0.4,0,AccFast,4,18,Woman,Right,
46,5,1,0.9842956000011327,['c'],1,left,['1'],6,0.16683289999855333,0.4,0,AccFast,4,18,Woman,Right,
47,5,1,0.8499852000004466,['c'],0,right,['2'],5,0.18451030000142055,0.2,0,AccFast,4,18,Woman,Right,
48,5,1,1.7841276999988622,['n'],1,right,['9'],2,0.6840463999997155,0.4,0,AccFast,4,18,Woman,Right,
49,5,1,1.8338493000010203,['n'],1,right,['3'],4,0.8172080000003916,0.1,0,AccFast,4,18,Woman,Right,
50,5,1,2.967605399999229,['n'],0,left,['3'],4,2.0175419000006514,0.2,0,AccFast,4,18,Woman,Right,
51,5,1,2.3671536999991076,['c'],0,right,['0'],1,0.2342237999982899,0.4,0,AccFast,4,18,Woman,Right,
52,5,1,3.249848399998882,['n'],0,left,['9'],2,0.31778529999974126,0.1,0,AccFast,4,18,Woman,Right,
53,5,1,2.084032099999604,['n'],1,right,['3'],4,0.9173407000016596,0.1,0,AccFast,4,18,Woman,Right,
54,5,1,2.8674535999998625,['n'],1,right,['8'],3,1.8008726999996725,0.2,0,AccFast,4,18,Woman,Right,
55,5,1,2.367137499999444,['n'],0,left,['3'],4,0.18311659999926633,0.2,0,AccFast,4,18,Woman,Right,
56,5,1,3.0499925000003714,['c'],1,left,['9'],2,1.633943000000727,0.4,0,AccFast,4,18,Woman,Right,
57,5,1,2.450303300000087,['c'],0,right,['2'],5,0.3669508000002679,0.4,0,AccFast,4,18,Woman,Right,
58,5,1,1.783236700000998,['c'],1,left,['3'],4,0.23425119999956223,0.2,0,AccFast,4,18,Woman,Right,
59,5,1,2.184307699999408,['n'],0,left,['8'],3,0.28386930000124266,0.2,0,AccFast,4,18,Woman,Right,
0,6,1,3.6005354000008083,['n'],1,right,['3'],4,3.967250600000625,0.1,0,AccAcc,4,18,Woman,Right,
1,6,1,5.000391300000047,x,-99,left,none,-99,-99,0.4,1,AccAcc,4,18,Woman,Right,
2,6,1,1.0492443000002822,['n'],1,right,['3'],4,2.6507860999990953,0.4,0,AccAcc,4,18,Woman,Right,
3,6,1,2.4518778000001475,['n'],1,right,['2'],5,0.649965799999336,0.2,0,AccAcc,4,18,Woman,Right,
4,6,1,5.000021300000299,x,-99,left,none,-99,-99,0.4,1,AccAcc,4,18,Woman,Right,
5,6,1,1.53267009999945,['n'],1,right,['3'],4,2.184577400001217,0.2,0,AccAcc,4,18,Woman,Right,
6,6,1,1.3681052000010823,['c'],1,left,['8'],3,1.3001750000003085,0.1,0,AccAcc,4,18,Woman,Right,
7,6,1,1.4508875999999873,['c'],1,left,['2'],5,0.6840814999995928,0.2,0,AccAcc,4,18,Woman,Right,
8,6,1,1.5318327999993926,['c'],1,left,['3'],4,0.4841429000007338,0.2,0,AccAcc,4,18,Woman,Right,
9,6,1,1.4343736000009812,['c'],1,left,['2'],5,0.6177115000009508,0.4,0,AccAcc,4,18,Woman,Right,
10,6,1,2.500595200001044,['n'],0,left,['3'],4,1.6169542000006913,0.1,0,AccAcc,4,18,Woman,Right,
11,6,1,1.6666037000013603,['n'],1,right,['8'],3,1.1838733999993565,0.1,0,AccAcc,4,18,Woman,Right,
12,6,1,1.616572200000519,['c'],1,left,['2'],5,0.7343294000002061,0.1,0,AccAcc,4,18,Woman,Right,
13,6,1,2.1681963999999425,['n'],1,right,['8'],3,0.5835268000009819,0.1,0,AccAcc,4,18,Woman,Right,
14,6,1,2.4344366999994236,['c'],0,right,['8'],3,0.5833037000011245,0.1,0,AccAcc,4,18,Woman,Right,
15,6,1,2.134627700001147,['c'],0,right,['3'],4,1.2505127000003995,0.4,0,AccAcc,4,18,Woman,Right,
16,6,1,2.066392000000633,['n'],0,left,['3'],4,1.066641699999309,0.2,0,AccAcc,4,18,Woman,Right,
17,6,1,1.9666790000010224,['c'],1,left,['9'],2,1.53365759999906,0.1,0,AccAcc,4,18,Woman,Right,
18,6,1,2.666838600000119,['c'],0,right,['8'],3,0.8833506000009947,0.4,0,AccAcc,4,18,Woman,Right,
19,6,1,1.800589399999808,['c'],0,right,['2'],5,0.517700500000501,0.2,0,AccAcc,4,18,Woman,Right,
20,6,1,2.6497389000014664,['n'],1,right,['3'],4,1.1673891999998887,0.4,0,AccAcc,4,18,Woman,Right,
21,6,1,1.999986999999237,['n'],1,right,['3'],4,0.8510924999991403,0.2,0,AccAcc,4,18,Woman,Right,
22,6,1,1.7001889999992272,['c'],1,left,['1'],6,1.0345711000009032,0.4,0,AccAcc,4,18,Woman,Right,
23,6,1,2.4000027000001865,['c'],1,left,['3'],4,1.9503893000000971,0.2,0,AccAcc,4,18,Woman,Right,
24,6,1,1.2676262999993924,['n'],1,right,['8'],3,0.31787660000009055,0.1,0,AccAcc,4,18,Woman,Right,
25,6,1,2.6994740000009187,['c'],0,right,['2'],5,2.3009258000001864,0.2,0,AccAcc,4,18,Woman,Right,
26,6,1,2.450257899999997,['n'],0,left,['3'],4,0.8836052999995445,0.2,0,AccAcc,4,18,Woman,Right,
27,6,1,3.534004900000582,['n'],1,right,['3'],4,0.9346774999994523,0.4,0,AccAcc,4,18,Woman,Right,
28,6,1,2.183423700000276,['c'],0,right,['2'],5,0.6674339000001055,0.2,0,AccAcc,4,18,Woman,Right,
29,6,1,2.4004236000000674,['c'],1,left,['2'],5,1.0174925999999687,0.2,0,AccAcc,4,18,Woman,Right,
30,6,1,4.217329700000846,['n'],0,left,['0'],1,0.45075980000001437,0.4,0,AccAcc,4,18,Woman,Right,
31,6,1,1.5163639999991574,['c'],1,left,['1'],6,0.6508093000011286,0.1,0,AccAcc,4,18,Woman,Right,
32,6,1,3.1332899999997608,['n'],1,right,['2'],5,1.5676782000009553,0.4,0,AccAcc,4,18,Woman,Right,
33,6,1,2.3337184000010893,['c'],1,left,['3'],4,0.5843151999997644,0.1,0,AccAcc,4,18,Woman,Right,
34,6,1,1.2506193000008352,['c'],1,left,['2'],5,0.8671811999993224,0.2,0,AccAcc,4,18,Woman,Right,
35,6,1,2.6165957000011986,['n'],0,left,['3'],4,1.7338651999998547,0.1,0,AccAcc,4,18,Woman,Right,
36,6,1,2.5661851999993814,['n'],0,left,['2'],5,1.4345252000002802,0.2,0,AccAcc,4,18,Woman,Right,
37,6,1,1.3340822999998636,['c'],1,left,['1'],6,0.6832952000004298,0.1,0,AccAcc,4,18,Woman,Right,
38,6,1,3.016940600000453,['n'],1,right,['3'],4,3.217008599998735,0.2,0,AccAcc,4,18,Woman,Right,
39,6,1,2.3005274000006466,['n'],0,left,['9'],2,0.766699099998732,0.4,0,AccAcc,4,18,Woman,Right,
40,6,1,1.3006741999997757,['n'],0,left,['8'],3,1.134024799999679,0.1,0,AccAcc,4,18,Woman,Right,
41,6,1,2.2002646000000823,['c'],0,right,['2'],5,0.9341932000006636,0.2,0,AccAcc,4,18,Woman,Right,
42,6,1,1.0508129000008921,['n'],1,right,['3'],4,1.4510577000000922,0.4,0,AccAcc,4,18,Woman,Right,
43,6,1,2.533940299999813,['c'],1,left,['2'],5,0.6173985000004905,0.2,0,AccAcc,4,18,Woman,Right,
44,6,1,1.1165645999990375,['n'],1,right,['9'],2,2.5510501000007935,0.2,0,AccAcc,4,18,Woman,Right,
45,6,1,1.5004155000005994,['c'],1,left,['1'],6,0.5671826000016154,0.4,0,AccAcc,4,18,Woman,Right,
46,6,1,3.13436879999972,['n'],0,left,['3'],4,2.4837037999986933,0.1,0,AccAcc,4,18,Woman,Right,
47,6,1,2.700693799999499,['c'],1,left,['8'],3,1.0173086999984662,0.1,0,AccAcc,4,18,Woman,Right,
48,6,1,1.6506002000005537,['n'],1,right,['2'],5,2.1340784000003623,0.4,0,AccAcc,4,18,Woman,Right,
49,6,1,1.633928500001275,['c'],1,left,['2'],5,0.43445749999955297,0.4,0,AccAcc,4,18,Woman,Right,
50,6,1,2.1002705000009882,['n'],1,right,['3'],4,1.5841447000002518,0.2,0,AccAcc,4,18,Woman,Right,
51,6,1,2.3668660000003,['n'],1,right,['8'],3,0.984785999999076,0.4,0,AccAcc,4,18,Woman,Right,
52,6,1,2.899708799999644,['n'],1,right,['3'],4,1.9670361999997112,0.1,0,AccAcc,4,18,Woman,Right,
53,6,1,1.7492127000004984,['c'],0,right,['3'],4,0.851052999998501,0.1,0,AccAcc,4,18,Woman,Right,
54,6,1,1.8167739000000438,['c'],0,right,['2'],5,0.2175358000004053,0.4,0,AccAcc,4,18,Woman,Right,
55,6,1,2.399451399998725,['c'],0,right,['0'],1,0.26730309999948076,0.4,0,AccAcc,4,18,Woman,Right,
56,6,1,3.6830102000003535,['c'],0,right,['9'],2,2.3175255000005563,0.1,0,AccAcc,4,18,Woman,Right,
57,6,1,2.4671834999990097,['n'],1,right,['3'],4,1.1677598000005673,0.1,0,AccAcc,4,18,Woman,Right,
58,6,1,1.2669521999996505,['c'],1,left,['2'],5,0.43379079999976966,0.4,0,AccAcc,4,18,Woman,Right,
59,6,1,1.2999053000003187,['c'],1,left,['3'],4,0.5174507000010635,0.2,0,AccAcc,4,18,Woman,Right,
0,7,1,1.7159308000009332,['n'],1,right,['3'],4,2.0178765000000567,0.2,0,FastAcc,4,18,Woman,Right,
1,7,1,0.46727479999935895,['c'],1,left,['2'],5,0.7841298000003007,0.1,0,FastAcc,4,18,Woman,Right,
2,7,1,0.3664798999998311,['c'],0,right,['2'],5,1.4509498000006715,0.1,0,FastAcc,4,18,Woman,Right,
3,7,1,0.5497005999986868,['n'],1,right,['9'],2,2.0671634000009362,0.4,0,FastAcc,4,18,Woman,Right,
4,7,1,0.71664409999903,['c'],0,right,['8'],3,1.4670836000004783,0.2,0,FastAcc,4,18,Woman,Right,
5,7,1,0.6991995000007591,['n'],0,left,['9'],2,2.3507908999999927,0.2,0,FastAcc,4,18,Woman,Right,
6,7,1,0.567505799999708,['c'],1,left,['1'],6,0.36721419999958016,0.4,0,FastAcc,4,18,Woman,Right,
7,7,1,1.1836376000010205,['n'],1,right,['2'],5,2.2002494999996998,0.1,0,FastAcc,4,18,Woman,Right,
8,7,1,0.7503054999997403,['c'],1,left,['2'],5,1.05076790000021,0.4,0,FastAcc,4,18,Woman,Right,
9,7,1,0.7333639999997104,['c'],1,left,['1'],6,0.43423230000007607,0.4,0,FastAcc,4,18,Woman,Right,
10,7,1,0.5335152999996353,['c'],1,left,['2'],5,1.5508664999997563,0.4,0,FastAcc,4,18,Woman,Right,
11,7,1,0.4502148000010493,['c'],0,right,['0'],1,0.7005207999991399,0.4,0,FastAcc,4,18,Woman,Right,
12,7,1,1.200204599999779,['c'],0,right,['9'],2,3.0176516999999876,0.4,0,FastAcc,4,18,Woman,Right,
13,7,1,0.7333885000007285,['c'],1,left,['1'],6,1.6172713999985717,0.1,0,FastAcc,4,18,Woman,Right,
14,7,1,1.9168916999988141,['c'],1,left,['2'],5,0.7674635999992461,0.2,0,FastAcc,4,18,Woman,Right,
15,7,1,0.4340391000005184,['c'],0,right,['8'],3,3.333882299999459,0.2,0,FastAcc,4,18,Woman,Right,
16,7,1,0.7999906999993982,['c'],0,right,['2'],5,0.9343930000013643,0.4,0,FastAcc,4,18,Woman,Right,
17,7,1,1.03309740000077,['n'],0,left,['8'],3,0.800427000000127,0.1,0,FastAcc,4,18,Woman,Right,
18,7,1,0.9662920999999187,['c'],0,right,['3'],4,0.6676848999995855,0.1,0,FastAcc,4,18,Woman,Right,
19,7,1,1.5327474999994593,['c'],1,left,['3'],4,3.351293199999418,0.1,0,FastAcc,4,18,Woman,Right,
20,7,1,0.6005728999989515,['c'],0,right,['3'],4,1.283580700001039,0.1,0,FastAcc,4,18,Woman,Right,
21,7,1,0.9672171000001981,['n'],1,right,['8'],3,1.9006965999997192,0.2,0,FastAcc,4,18,Woman,Right,
22,7,1,1.816875300000902,['c'],0,right,['9'],2,2.1510555000004388,0.4,0,FastAcc,4,18,Woman,Right,
23,7,1,2.2998229999993782,['n'],1,right,['3'],4,3.0675814999995055,0.4,0,FastAcc,4,18,Woman,Right,
24,7,1,1.017071999998734,['c'],0,right,['2'],5,2.15042750000066,0.1,0,FastAcc,4,18,Woman,Right,
25,7,1,1.7338395999995555,['c'],0,right,['1'],6,3.6169578000008187,0.2,0,FastAcc,4,18,Woman,Right,
26,7,1,2.0669076000012865,['n'],1,right,['2'],5,1.500154499999553,0.2,0,FastAcc,4,18,Woman,Right,
27,7,1,1.367287099999885,['n'],0,left,['0'],1,0.5174096999999165,0.4,0,FastAcc,4,18,Woman,Right,
28,7,1,1.3664033000004565,['c'],1,left,['1'],6,0.9009315999992396,0.4,0,FastAcc,4,18,Woman,Right,
29,7,1,1.4496459999991202,['c'],0,right,['2'],5,1.066895600000862,0.2,0,FastAcc,4,18,Woman,Right,
30,7,1,0.7175064999992173,['n'],1,right,['2'],5,0.9177116999999271,0.4,0,FastAcc,4,18,Woman,Right,
31,7,1,1.4333816999987903,['n'],0,left,['9'],2,0.9506419000008464,0.2,0,FastAcc,4,18,Woman,Right,
32,7,1,1.5834107999999105,['c'],1,left,['3'],4,1.6513453999996273,0.1,0,FastAcc,4,18,Woman,Right,
33,7,1,2.5331267999990814,['c'],1,left,['3'],4,0.9672246000009181,0.2,0,FastAcc,4,18,Woman,Right,
34,7,1,0.5671031000001676,['c'],1,left,['8'],3,2.1677248000014515,0.2,0,FastAcc,4,18,Woman,Right,
35,7,1,0.6337353000017174,['c'],1,left,['2'],5,0.7504817999997613,0.4,0,FastAcc,4,18,Woman,Right,
36,7,1,1.1502261999994516,['c'],0,right,['3'],4,2.5173691999989387,0.1,0,FastAcc,4,18,Woman,Right,
37,7,1,1.099732300001051,['c'],1,left,['8'],3,1.6172482000001764,0.1,0,FastAcc,4,18,Woman,Right,
38,7,1,2.0179426000013336,['n'],1,right,['3'],4,1.24996210000063,0.1,0,FastAcc,4,18,Woman,Right,
39,7,1,1.1662090999998327,['c'],0,right,['2'],5,1.916830399999526,0.1,0,FastAcc,4,18,Woman,Right,
40,7,1,1.0489880000004632,['c'],1,left,['1'],6,0.4675074999995559,0.4,0,FastAcc,4,18,Woman,Right,
41,7,1,1.0176171000002796,['c'],1,left,['2'],5,1.1671198999993067,0.2,0,FastAcc,4,18,Woman,Right,
42,7,1,0.7007892999990872,['c'],1,left,['1'],6,0.8839358000004722,0.4,0,FastAcc,4,18,Woman,Right,
43,7,1,0.8169496999998955,['c'],0,right,['2'],5,1.7506776999998692,0.2,0,FastAcc,4,18,Woman,Right,
44,7,1,0.8841357000001153,['n'],0,left,['2'],5,1.901709200001278,0.1,0,FastAcc,4,18,Woman,Right,
45,7,1,1.3835385000002134,['n'],0,left,['9'],2,1.0174905000003491,0.1,0,FastAcc,4,18,Woman,Right,
46,7,1,1.0164770999999746,['n'],0,left,['3'],4,2.7175064999992173,0.1,0,FastAcc,4,18,Woman,Right,
47,7,1,1.433373500000016,['c'],1,left,['2'],5,1.2343387000000803,0.2,0,FastAcc,4,18,Woman,Right,
48,7,1,1.299672900000587,['n'],1,right,['2'],5,0.8173847999987629,0.2,0,FastAcc,4,18,Woman,Right,
49,7,1,1.1339392999998381,['n'],0,left,['0'],1,0.48328249999940454,0.4,0,FastAcc,4,18,Woman,Right,
50,7,1,1.5511984000004304,['n'],1,right,['2'],5,1.4677092999991146,0.4,0,FastAcc,4,18,Woman,Right,
51,7,1,0.8502707000006922,['c'],1,left,['1'],6,0.8169247999994695,0.4,0,FastAcc,4,18,Woman,Right,
52,7,1,1.4500084000010247,['n'],1,right,['9'],2,1.0839295000005222,0.1,0,FastAcc,4,18,Woman,Right,
53,7,1,1.4508247000012489,['c'],1,left,['2'],5,2.9840575999987777,0.2,0,FastAcc,4,18,Woman,Right,
54,7,1,1.434007299998484,['c'],0,right,['8'],3,1.850107800000842,0.2,0,FastAcc,4,18,Woman,Right,
55,7,1,1.116410699998596,['n'],1,right,['2'],5,1.4675293999989663,0.4,0,FastAcc,4,18,Woman,Right,
56,7,1,1.1674700000003213,['c'],1,left,['1'],6,0.5843514999996842,0.2,0,FastAcc,4,18,Woman,Right,
57,7,1,0.7001108999993448,['n'],0,left,['8'],3,0.8165536999986216,0.2,0,FastAcc,4,18,Woman,Right,
58,7,1,1.2173889999994572,['c'],0,right,['3'],4,1.500618599999143,0.1,0,FastAcc,4,18,Woman,Right,
59,7,1,1.5165328999992198,['c'],0,right,none,-99,-99,0.1,1,FastAcc,4,18,Woman,Right,
0,8,1,1.7492896999992809,['c'],0,right,['2'],5,1.5838979000000108,0.4,0,FastFast,4,18,Woman,Right,
1,8,1,0.5164602000004379,['c'],1,left,['3'],4,0.7510333999998693,0.4,0,FastFast,4,18,Woman,Right,
2,8,1,0.5170189000000391,['c'],0,right,['3'],4,0.383873599999788,0.2,0,FastFast,4,18,Woman,Right,
3,8,1,0.6837687000006554,['n'],0,left,['0'],1,0.4012397999995301,0.4,0,FastFast,4,18,Woman,Right,
4,8,1,0.6664307000010012,['c'],0,right,['1'],6,0.3172118999991653,0.1,0,FastFast,4,18,Woman,Right,
5,8,1,0.4672449999998207,['c'],0,right,['8'],3,0.6509877999997116,0.4,0,FastFast,4,18,Woman,Right,
6,8,1,0.6836074000002554,['c'],1,left,['3'],4,0.4172889000001305,0.2,0,FastFast,4,18,Woman,Right,
7,8,1,0.5670244000011735,['c'],1,left,['8'],3,1.2006636999994953,0.1,0,FastFast,4,18,Woman,Right,
8,8,1,0.5006001000001561,['n'],0,left,['3'],4,0.46792610000011337,0.2,0,FastFast,4,18,Woman,Right,
9,8,1,0.5670504000008805,['c'],1,left,['2'],5,0.8506574999992154,0.4,0,FastFast,4,18,Woman,Right,
10,8,1,0.7165335000008781,['c'],0,right,['2'],5,0.2839577000013378,0.4,0,FastFast,4,18,Woman,Right,
11,8,1,0.53339490000144,['n'],1,right,['2'],5,0.30120029999852704,0.1,0,FastFast,4,18,Woman,Right,
12,8,1,1.4998034000000189,['n'],1,right,['8'],3,1.200614499999574,0.4,0,FastFast,4,18,Woman,Right,
13,8,1,1.1835836000009294,['c'],1,left,['2'],5,1.5834993999997096,0.2,0,FastFast,4,18,Woman,Right,
14,8,1,1.7158596000008401,['n'],1,right,['8'],3,0.617235100000471,0.2,0,FastFast,4,18,Woman,Right,
15,8,1,0.6834694999997737,['c'],1,left,['3'],4,0.3675593999996636,0.2,0,FastFast,4,18,Woman,Right,
16,8,1,0.6838778000001184,['c'],1,left,['2'],5,0.25064800000109244,0.4,0,FastFast,4,18,Woman,Right,
17,8,1,0.5667493000000832,['c'],1,left,['1'],6,0.1671860000005836,0.4,0,FastFast,4,18,Woman,Right,
18,8,1,0.6001058000001649,['n'],0,left,['2'],5,0.7166405999996641,0.4,0,FastFast,4,18,Woman,Right,
19,8,1,1.9000551000008272,['n'],1,right,['8'],3,0.23475410000173724,0.1,0,FastFast,4,18,Woman,Right,
20,8,1,0.8499262000004819,['n'],0,left,['8'],3,0.2007264000003488,0.1,0,FastFast,4,18,Woman,Right,
21,8,1,0.6161873999990348,['n'],1,right,['8'],3,0.2843295999991824,0.2,0,FastFast,4,18,Woman,Right,
22,8,1,0.6672388000006322,['c'],1,left,['2'],5,0.633912600000258,0.4,0,FastFast,4,18,Woman,Right,
23,8,1,0.6496107000002667,['n'],1,right,['9'],2,0.2345908999996027,0.2,0,FastFast,4,18,Woman,Right,
24,8,1,0.8826939000009588,['n'],1,right,['2'],5,0.38423950000105833,0.1,0,FastFast,4,18,Woman,Right,
25,8,1,1.301150700001017,['c'],0,right,['3'],4,0.2671754000002693,0.4,0,FastFast,4,18,Woman,Right,
26,8,1,1.3834327000004123,['c'],0,right,['8'],3,2.283912099999725,0.2,0,FastFast,4,18,Woman,Right,
27,8,1,0.8172997000001487,['c'],1,left,['3'],4,0.41761249999944994,0.1,0,FastFast,4,18,Woman,Right,
28,8,1,0.8671764999999141,['c'],1,left,['2'],5,0.2505768999999418,0.4,0,FastFast,4,18,Woman,Right,
29,8,1,0.983014400000684,['c'],0,right,['2'],5,0.16764040000089153,0.4,0,FastFast,4,18,Woman,Right,
30,8,1,1.0839641000002302,['n'],0,left,['9'],2,1.5839118999992934,0.2,0,FastFast,4,18,Woman,Right,
31,8,1,1.6338751999992382,['c'],0,right,['0'],1,1.2669217999991815,0.2,0,FastFast,4,18,Woman,Right,
32,8,1,1.8341760000002978,['c'],1,left,['2'],5,0.8677996000005805,0.4,0,FastFast,4,18,Woman,Right,
33,8,1,0.6678260000007867,['c'],0,right,['3'],4,0.3839533999998821,0.1,0,FastFast,4,18,Woman,Right,
34,8,1,0.5165586000002804,['c'],1,left,['3'],4,0.3672370999993291,0.2,0,FastFast,4,18,Woman,Right,
35,8,1,0.6675458999998227,['c'],0,right,['2'],5,1.0507950000010169,0.2,0,FastFast,4,18,Woman,Right,
36,8,1,0.7661857000002783,['n'],1,right,['8'],3,0.4176658000014868,0.4,0,FastFast,4,18,Woman,Right,
37,8,1,1.3333682000011322,['c'],1,left,['2'],5,0.5340921000006347,0.1,0,FastFast,4,18,Woman,Right,
38,8,1,1.8002300999996805,['n'],1,right,['8'],3,0.617899299999408,0.1,0,FastFast,4,18,Woman,Right,
39,8,1,0.8170962000003783,['c'],1,left,['3'],4,1.501166899999589,0.2,0,FastFast,4,18,Woman,Right,
40,8,1,0.8503921999999875,['n'],1,right,['3'],4,0.9007773000012094,0.1,0,FastFast,4,18,Woman,Right,
41,8,1,1.5989749000000302,['n'],0,left,['3'],4,3.8010730000005424,0.1,0,FastFast,4,18,Woman,Right,
42,8,1,1.2661705999998958,['n'],1,right,['2'],5,1.1176047000008111,0.2,0,FastFast,4,18,Woman,Right,
43,8,1,0.7667873999998847,['c'],1,left,['2'],5,0.5177585999990697,0.4,0,FastFast,4,18,Woman,Right,
44,8,1,0.8163337000005413,['n'],1,right,['8'],3,0.1842642000010528,0.2,0,FastFast,4,18,Woman,Right,
45,8,1,0.63285790000009,['c'],1,left,['2'],5,0.25082020000081684,0.2,0,FastFast,4,18,Woman,Right,
46,8,1,0.5834372999997868,['n'],0,left,['2'],5,0.31777019999935874,0.2,0,FastFast,4,18,Woman,Right,
47,8,1,0.6663974000002781,['c'],1,left,['3'],4,0.31814289999965695,0.4,0,FastFast,4,18,Woman,Right,
48,8,1,0.5659909999994852,['n'],1,right,['2'],5,0.7002635000008013,0.4,0,FastFast,4,18,Woman,Right,
49,8,1,0.6330491999997321,['c'],1,left,['9'],2,0.3177161999992677,0.1,0,FastFast,4,18,Woman,Right,
50,8,1,1.0665422000001854,['c'],1,left,['8'],3,0.13447640000049432,0.1,0,FastFast,4,18,Woman,Right,
51,8,1,0.6671096999998554,['n'],1,right,['8'],3,0.25093610000112676,0.1,0,FastFast,4,18,Woman,Right,
52,8,1,0.8665745000016614,['c'],1,left,['3'],4,0.3677941000005376,0.2,0,FastFast,4,18,Woman,Right,
53,8,1,1.8170093999997334,['c'],1,left,['2'],5,0.2343657000001258,0.2,0,FastFast,4,18,Woman,Right,
54,8,1,1.2168240999999398,['n'],1,right,['8'],3,0.3344292999991012,0.1,0,FastFast,4,18,Woman,Right,
55,8,1,1.183427899999515,['n'],1,right,['9'],2,0.20051880000028177,0.4,0,FastFast,4,18,Woman,Right,
56,8,1,1.1677596000008634,['c'],0,right,['8'],3,1.550429400000212,0.1,0,FastFast,4,18,Woman,Right,
57,8,1,1.2168665000008332,['n'],1,right,['3'],4,0.2344040000007226,0.1,0,FastFast,4,18,Woman,Right,
58,8,1,0.7333813000004739,['n'],1,right,['3'],4,0.2511450000001787,0.1,0,FastFast,4,18,Woman,Right,
59,8,1,0.6678945000003296,['c'],1,left,['2'],5,0.3672157999990304,0.1,0,FastFast,4,18,Woman,Right,
0,9,1,0.9832702000003337,['c'],1,left,['8'],3,1.1008997000008094,0.1,0,AccFast,4,18,Woman,Right,
1,9,1,2.2667182000004686,['n'],0,left,['3'],4,1.2343571000001248,0.1,0,AccFast,4,18,Woman,Right,
2,9,1,1.6163908999988053,['c'],1,left,['9'],2,1.2004172999986622,0.1,0,AccFast,4,18,Woman,Right,
3,9,1,1.2181701000008616,['c'],0,right,['2'],5,0.7506864000006317,0.2,0,AccFast,4,18,Woman,Right,
4,9,1,1.3666739000000234,['n'],1,right,['9'],2,0.21760490000087884,0.2,0,AccFast,4,18,Woman,Right,
5,9,1,1.3332936000006157,['c'],1,left,['0'],1,1.1843940999988263,0.4,0,AccFast,4,18,Woman,Right,
6,9,1,1.117529499999364,['n'],0,left,['9'],2,1.1501859999989392,0.2,0,AccFast,4,18,Woman,Right,
7,9,1,1.3002804000007018,['n'],0,left,['2'],5,0.2509110999999393,0.4,0,AccFast,4,18,Woman,Right,
8,9,1,1.4672256000012567,['n'],0,left,['3'],4,0.3172928999993019,0.1,0,AccFast,4,18,Woman,Right,
9,9,1,1.9838591999996424,['c'],0,right,['2'],5,0.5845317000002979,0.1,0,AccFast,4,18,Woman,Right,
10,9,1,1.383198400000765,['n'],1,right,['2'],5,1.3843743999987055,0.2,0,AccFast,4,18,Woman,Right,
11,9,1,1.949459499999648,['c'],0,right,['2'],5,0.517697400000543,0.1,0,AccFast,4,18,Woman,Right,
12,9,1,1.0668570999987423,['n'],1,right,['3'],4,1.0840363000006619,0.1,0,AccFast,4,18,Woman,Right,
13,9,1,1.9341310999989219,['c'],0,right,['2'],5,0.41744780000044557,0.1,0,AccFast,4,18,Woman,Right,
14,9,1,1.034291599999051,['n'],0,left,['3'],4,0.950378700001238,0.2,0,AccFast,4,18,Woman,Right,
15,9,1,1.866826299999957,['c'],1,left,['9'],2,1.517291699999987,0.4,0,AccFast,4,18,Woman,Right,
16,9,1,1.2172364999987622,['c'],1,left,['3'],4,1.8176792000012938,0.4,0,AccFast,4,18,Woman,Right,
17,9,1,1.9344091000002663,['n'],1,right,['2'],5,1.300717000000077,0.2,0,AccFast,4,18,Woman,Right,
18,9,1,1.7501748000013322,['c'],1,left,['1'],6,0.7511149000001751,0.4,0,AccFast,4,18,Woman,Right,
19,9,1,1.3339857999999367,['c'],1,left,['0'],1,0.3010582999995677,0.1,0,AccFast,4,18,Woman,Right,
20,9,1,1.2841981000001397,['c'],1,left,['1'],6,0.45047429999976885,0.4,0,AccFast,4,18,Woman,Right,
21,9,1,1.3177314999993541,['c'],0,right,['8'],3,1.3836255999995046,0.4,0,AccFast,4,18,Woman,Right,
22,9,1,2.249610200000461,['n'],1,right,['2'],5,0.9504105000014533,0.4,0,AccFast,4,18,Woman,Right,
23,9,1,1.6669631000004301,['n'],1,right,['2'],5,0.7169097999994847,0.1,0,AccFast,4,18,Woman,Right,
24,9,1,1.6166745999998966,['n'],1,right,['3'],4,2.016692700000931,0.4,0,AccFast,4,18,Woman,Right,
25,9,1,1.7668477999995957,['c'],1,left,['8'],3,0.7174212999998417,0.1,0,AccFast,4,18,Woman,Right,
26,9,1,2.1000586000009207,['c'],0,right,['9'],2,0.7676535999999032,0.2,0,AccFast,4,18,Woman,Right,
27,9,1,1.1499350000012782,['c'],1,left,['2'],5,0.18398370000068098,0.1,0,AccFast,4,18,Woman,Right,
28,9,1,1.3156211999994412,['n'],0,left,['3'],4,0.40113749999909487,0.2,0,AccFast,4,18,Woman,Right,
29,9,1,1.3503311999993457,['n'],0,left,['2'],5,0.15037420000044222,0.4,0,AccFast,4,18,Woman,Right,
30,9,1,4.2503844999992,['c'],1,left,['3'],4,1.817466599999534,0.2,0,AccFast,4,18,Woman,Right,
31,9,1,0.7659381999983452,['n'],1,right,['3'],4,0.6338868999991973,0.2,0,AccFast,4,18,Woman,Right,
32,9,1,1.3832499999989523,['n'],1,right,['2'],5,0.3004559999990306,0.2,0,AccFast,4,18,Woman,Right,
33,9,1,1.1830552000010357,['n'],1,right,['2'],5,0.5342835999999807,0.2,0,AccFast,4,18,Woman,Right,
34,9,1,1.7004223000003549,['n'],0,left,['8'],3,0.41785560000062105,0.1,0,AccFast,4,18,Woman,Right,
35,9,1,0.7678089000000909,['n'],0,left,['3'],4,0.2672601999984181,0.1,0,AccFast,4,18,Woman,Right,
36,9,1,1.266956499999651,['n'],0,left,['2'],5,0.4673583999992843,0.2,0,AccFast,4,18,Woman,Right,
37,9,1,0.8669009000004735,['c'],1,left,['1'],6,0.6845280000015919,0.4,0,AccFast,4,18,Woman,Right,
38,9,1,1.3834034999999858,['c'],1,left,['9'],2,0.18379640000057407,0.4,0,AccFast,4,18,Woman,Right,
39,9,1,1.8663591999993514,['n'],1,right,['3'],4,1.5512397000002238,0.4,0,AccFast,4,18,Woman,Right,
40,9,1,1.5336655999999493,['c'],1,left,['2'],5,0.7005245999989711,0.2,0,AccFast,4,18,Woman,Right,
41,9,1,1.0991281999995408,['c'],0,right,['0'],1,0.28433509999922535,0.4,0,AccFast,4,18,Woman,Right,
42,9,1,1.8334522000004654,['c'],1,left,['3'],4,0.3175296999997954,0.2,0,AccFast,4,18,Woman,Right,
43,9,1,0.8664431999986846,['c'],1,left,['9'],2,1.5009828999991441,0.2,0,AccFast,4,18,Woman,Right,
44,9,1,1.6819388000003528,['n'],1,right,['9'],2,1.117590999998356,0.1,0,AccFast,4,18,Woman,Right,
45,9,1,1.283802800000558,['n'],1,right,['2'],5,0.5677360000008775,0.1,0,AccFast,4,18,Woman,Right,
46,9,1,1.1507361999993009,['n'],1,right,['3'],4,0.4343977000007726,0.4,0,AccFast,4,18,Woman,Right,
47,9,1,2.000793299999714,['n'],0,left,['3'],4,0.6671748999997362,0.4,0,AccFast,4,18,Woman,Right,
48,9,1,1.8161511999987852,['c'],0,right,['3'],4,1.0506344999994326,0.4,0,AccFast,4,18,Woman,Right,
49,9,1,2.6495188000008056,['n'],1,right,['2'],5,1.1343015999991621,0.1,0,AccFast,4,18,Woman,Right,
50,9,1,2.032844400000613,['c'],0,right,['2'],5,0.5007222999993246,0.1,0,AccFast,4,18,Woman,Right,
51,9,1,1.799598600000536,['n'],1,right,['2'],5,0.717153600000529,0.4,0,AccFast,4,18,Woman,Right,
52,9,1,0.7831879000004847,['n'],1,right,['1'],6,0.1345699000012246,0.1,0,AccFast,4,18,Woman,Right,
53,9,1,1.650796599999012,['c'],1,left,['2'],5,0.6838041999999405,0.2,0,AccFast,4,18,Woman,Right,
54,9,1,1.366302500000529,['n'],1,right,['0'],1,1.0173652000012225,0.2,0,AccFast,4,18,Woman,Right,
55,9,1,2.1838182999999844,['n'],1,right,['3'],4,1.3505693000006431,0.4,0,AccFast,4,18,Woman,Right,
56,9,1,2.0341607999998814,['n'],1,right,['0'],1,2.5345173999994586,0.1,0,AccFast,4,18,Woman,Right,
57,9,1,1.1829533000000083,['n'],1,right,['2'],5,0.8005950000006123,0.4,0,AccFast,4,18,Woman,Right,
58,9,1,1.2834655000006023,['c'],1,left,['1'],6,0.7174252000004344,0.2,0,AccFast,4,18,Woman,Right,
59,9,1,1.249699400001191,['n'],0,left,['3'],4,2.450502499999857,0.2,0,AccFast,4,18,Woman,Right,
0,10,1,1.6159456000004866,['n'],1,right,['2'],5,2.5010858999994525,0.4,0,AccAcc,4,18,Woman,Right,
1,10,1,1.4503070999999181,['c'],0,right,['2'],5,1.117279600000984,0.4,0,AccAcc,4,18,Woman,Right,
2,10,1,2.234005899999829,['n'],0,left,['3'],4,0.8673142000006919,0.1,0,AccAcc,4,18,Woman,Right,
3,10,1,1.2173820000007254,['c'],1,left,['2'],5,0.31731000000036147,0.2,0,AccAcc,4,18,Woman,Right,
4,10,1,1.3501945000007254,['n'],1,right,['3'],4,0.8346426999996766,0.4,0,AccAcc,4,18,Woman,Right,
5,10,1,0.9668148000000656,['c'],1,left,['1'],6,0.6005604999991192,0.4,0,AccAcc,4,18,Woman,Right,
6,10,1,2.833915300001536,['c'],0,right,['9'],2,0.9000234000013734,0.1,0,AccAcc,4,18,Woman,Right,
7,10,1,2.2173829000003025,['n'],1,right,['3'],4,0.8845206999994843,0.1,0,AccAcc,4,18,Woman,Right,
8,10,1,1.5836388999996416,['c'],1,left,['2'],5,3.534129600000597,0.2,0,AccAcc,4,18,Woman,Right,
9,10,1,2.1998639999983425,['n'],1,right,['3'],4,2.08394860000044,0.1,0,AccAcc,4,18,Woman,Right,
10,10,1,1.1834359999993467,['c'],0,right,['0'],1,0.48396779999893624,0.4,0,AccAcc,4,18,Woman,Right,
11,10,1,1.900090299999647,['c'],1,left,['0'],1,0.3835368000000017,0.2,0,AccAcc,4,18,Woman,Right,
12,10,1,1.7843863999987661,['n'],1,right,['3'],4,1.2336629999990691,0.1,0,AccAcc,4,18,Woman,Right,
13,10,1,2.3665356999990763,['n'],1,right,['2'],5,0.5838356000003841,0.2,0,AccAcc,4,18,Woman,Right,
14,10,1,1.61659359999976,['n'],0,left,['2'],5,1.1007879999997385,0.1,0,AccAcc,4,18,Woman,Right,
15,10,1,1.3669852999992145,['n'],0,left,['1'],6,0.3672158000008494,0.1,0,AccAcc,4,18,Woman,Right,
16,10,1,1.2494730000016716,['n'],1,right,['2'],5,0.2677540999993653,0.1,0,AccAcc,4,18,Woman,Right,
17,10,1,2.9670211000011477,['c'],1,left,['1'],6,1.1843594000001758,0.2,0,AccAcc,4,18,Woman,Right,
18,10,1,2.7337337999997544,['n'],1,right,['1'],6,0.41776260000006005,0.4,0,AccAcc,4,18,Woman,Right,
19,10,1,3.4176659999993717,['c'],1,left,['1'],6,1.8507434000002831,0.2,0,AccAcc,4,18,Woman,Right,
20,10,1,1.983718499999668,['n'],1,right,['9'],2,1.5831441999998788,0.2,0,AccAcc,4,18,Woman,Right,
21,10,1,1.5343917999998666,['n'],0,left,['0'],1,0.3665862999987439,0.4,0,AccAcc,4,18,Woman,Right,
22,10,1,2.733049200000096,['c'],1,left,['2'],5,1.3005037999992055,0.2,0,AccAcc,4,18,Woman,Right,
23,10,1,2.6173015000003943,['n'],0,left,['2'],5,4.184741499999291,0.4,0,AccAcc,4,18,Woman,Right,
24,10,1,3.599625199998627,['n'],1,right,['9'],2,1.550625099998797,0.1,0,AccAcc,4,18,Woman,Right,
25,10,1,4.300327400000242,['n'],0,left,['9'],2,2.0007795999990776,0.4,0,AccAcc,4,18,Woman,Right,
26,10,1,0.9829802000003838,['c'],1,left,['8'],3,1.4010287000000972,0.4,0,AccAcc,4,18,Woman,Right,
27,10,1,1.8669726999996783,['n'],1,right,['1'],6,0.28467339999951946,0.4,0,AccAcc,4,18,Woman,Right,
28,10,1,1.3503271999998105,['c'],1,left,['2'],5,0.5835707999995066,0.2,0,AccAcc,4,18,Woman,Right,
29,10,1,3.4335550000014337,['c'],0,right,['3'],4,2.9176328999983525,0.1,0,AccAcc,4,18,Woman,Right,
30,10,1,2.1837789000001067,['n'],1,right,['9'],2,0.5005254999996396,0.4,0,AccAcc,4,18,Woman,Right,
31,10,1,1.5674301000017294,['n'],1,right,['8'],3,0.7341594999998051,0.2,0,AccAcc,4,18,Woman,Right,
32,10,1,2.9001564999998664,['c'],1,left,['3'],4,0.7174738000012439,0.2,0,AccAcc,4,18,Woman,Right,
33,10,1,2.317585100001452,['c'],0,right,['1'],6,0.7005151999983354,0.2,0,AccAcc,4,18,Woman,Right,
34,10,1,1.9840466999994533,['n'],1,right,['3'],4,2.7342320999996446,0.4,0,AccAcc,4,18,Woman,Right,
35,10,1,1.5834292999988975,['c'],0,right,['3'],4,0.6671257999987574,0.2,0,AccAcc,4,18,Woman,Right,
36,10,1,3.2174118000002636,['n'],0,left,['9'],2,1.0008008000004338,0.1,0,AccAcc,4,18,Woman,Right,
37,10,1,2.5332226999998966,['n'],0,left,['9'],2,0.6177413999994315,0.1,0,AccAcc,4,18,Woman,Right,
38,10,1,1.1005602000004728,['c'],1,left,['3'],4,0.8009120000006078,0.1,0,AccAcc,4,18,Woman,Right,
39,10,1,1.3672158999997919,['n'],1,right,['3'],4,0.2505793000000267,0.1,0,AccAcc,4,18,Woman,Right,
40,10,1,1.6002974000002723,['n'],1,right,['3'],4,0.35027769999942393,0.4,0,AccAcc,4,18,Woman,Right,
41,10,1,3.2169284999999945,['c'],1,left,['2'],5,0.9009822000007262,0.1,0,AccAcc,4,18,Woman,Right,
42,10,1,3.7829538000005414,['c'],1,left,['2'],5,3.61716239999987,0.2,0,AccAcc,4,18,Woman,Right,
43,10,1,1.8012455999996746,['n'],1,right,['8'],3,0.7511840999995911,0.2,0,AccAcc,4,18,Woman,Right,
44,10,1,3.0662154000001465,['c'],0,right,['9'],2,1.0845497000009345,0.1,0,AccAcc,4,18,Woman,Right,
45,10,1,1.3333505999999034,['c'],1,left,['2'],5,0.4675282000007428,0.4,0,AccAcc,4,18,Woman,Right,
46,10,1,2.266373599999497,['n'],0,left,['0'],1,0.6343426000003092,0.2,0,AccAcc,4,18,Woman,Right,
47,10,1,1.934718200000134,['c'],1,left,['3'],4,0.7509043000009115,0.1,0,AccAcc,4,18,Woman,Right,
48,10,1,1.3336694999998144,['n'],1,right,['9'],2,0.21793170000091777,0.2,0,AccAcc,4,18,Woman,Right,
49,10,1,1.2165108999997756,['c'],0,right,['2'],5,0.3007086000015988,0.4,0,AccAcc,4,18,Woman,Right,
50,10,1,3.8340540999997756,['n'],0,left,['9'],2,1.68349599999965,0.1,0,AccAcc,4,18,Woman,Right,
51,10,1,1.7671038000007684,['c'],0,right,['3'],4,0.9671789000003628,0.2,0,AccAcc,4,18,Woman,Right,
52,10,1,2.0333418999998685,['n'],1,right,['2'],5,1.7012087000002794,0.2,0,AccAcc,4,18,Woman,Right,
53,10,1,1.9669089000017266,['c'],1,left,['1'],6,0.5835974000001443,0.4,0,AccAcc,4,18,Woman,Right,
54,10,1,3.4168287000011333,['n'],0,left,['3'],4,1.6341130000000703,0.1,0,AccAcc,4,18,Woman,Right,
55,10,1,2.4838380000001052,['c'],1,left,['1'],6,0.5506119999990915,0.4,0,AccAcc,4,18,Woman,Right,
56,10,1,2.9174481999998534,['n'],0,left,['3'],4,2.3505258000004687,0.1,0,AccAcc,4,18,Woman,Right,
57,10,1,1.9171059999989666,['n'],0,left,['9'],2,1.2672437999990507,0.4,0,AccAcc,4,18,Woman,Right,
58,10,1,3.7663498999991134,['c'],0,right,['3'],4,0.4336375999992015,0.2,0,AccAcc,4,18,Woman,Right,
59,10,1,3.0001704000005702,['n'],1,right,['1'],6,1.3010893000009673,0.4,0,AccAcc,4,18,Woman,Right,
0,11,1,1.0161210999995092,['c'],1,left,['1'],6,3.2342722000012145,0.1,0,FastAcc,4,18,Woman,Right,
1,11,1,0.9003028999995877,['n'],1,right,['3'],4,1.6008508000013535,0.4,0,FastAcc,4,18,Woman,Right,
2,11,1,0.6508061000004091,['c'],0,right,['2'],5,1.083878999999797,0.4,0,FastAcc,4,18,Woman,Right,
3,11,1,0.6005201999996643,['c'],1,left,['3'],4,1.1843449999996665,0.1,0,FastAcc,4,18,Woman,Right,
4,11,1,0.5326359999999113,['c'],1,left,['1'],6,0.5007346000002144,0.4,0,FastAcc,4,18,Woman,Right,
5,11,1,0.7838790999994671,['n'],1,right,['2'],5,1.4678863000008278,0.4,0,FastAcc,4,18,Woman,Right,
6,11,1,1.2173954999998386,['n'],0,left,['9'],2,1.4671390000003157,0.1,0,FastAcc,4,18,Woman,Right,
7,11,1,0.782475500000146,['c'],0,right,['8'],3,0.8510831000003236,0.4,0,FastAcc,4,18,Woman,Right,
8,11,1,0.583875899999839,['c'],1,left,['1'],6,1.0499875000004977,0.2,0,FastAcc,4,18,Woman,Right,
9,11,1,1.5503389000004972,['c'],1,left,['2'],5,1.1836238999985653,0.2,0,FastAcc,4,18,Woman,Right,
10,11,1,1.83369760000096,['n'],1,right,['9'],2,0.6012645999999222,0.2,0,FastAcc,4,18,Woman,Right,
11,11,1,1.3333855999990192,['n'],1,right,['8'],3,1.96723270000075,0.4,0,FastAcc,4,18,Woman,Right,
12,11,1,1.2175561999993079,['c'],1,left,['2'],5,0.784372699999949,0.4,0,FastAcc,4,18,Woman,Right,
13,11,1,1.633293599999888,['c'],0,right,['2'],5,0.9680608999988181,0.4,0,FastAcc,4,18,Woman,Right,
14,11,1,2.200111799998922,['n'],1,right,['3'],4,0.3507475999995222,0.2,0,FastAcc,4,18,Woman,Right,
15,11,1,1.7831867999993847,['n'],1,right,['3'],4,1.8998093999998673,0.4,0,FastAcc,4,18,Woman,Right,
16,11,1,1.4341855999991822,['c'],0,right,['2'],5,0.9010814000012033,0.4,0,FastAcc,4,18,Woman,Right,
17,11,1,1.3002875999991375,['c'],0,right,['2'],5,0.6337091000004875,0.4,0,FastAcc,4,18,Woman,Right,
18,11,1,1.4332261999988987,['c'],1,left,['1'],6,0.4334560999996029,0.2,0,FastAcc,4,18,Woman,Right,
19,11,1,1.5501304999997956,['c'],1,left,['1'],6,1.2007630999996763,0.4,0,FastAcc,4,18,Woman,Right,
20,11,1,3.2497383000008995,['n'],1,right,['9'],2,1.3840134999991278,0.1,0,FastAcc,4,18,Woman,Right,
21,11,1,1.550276699999813,['c'],0,right,['2'],5,0.9335834000012255,0.2,0,FastAcc,4,18,Woman,Right,
22,11,1,2.2504125999985263,['c'],0,right,['3'],4,0.9173902000002272,0.1,0,FastAcc,4,18,Woman,Right,
23,11,1,1.2003698000007716,['n'],0,left,['9'],2,4.917501800000537,0.4,0,FastAcc,4,18,Woman,Right,
24,11,1,2.4170861000002333,['c'],0,right,['3'],4,0.8840569000003597,0.4,0,FastAcc,4,18,Woman,Right,
25,11,1,1.2332643999998254,['c'],1,left,['1'],6,1.0836868999995204,0.4,0,FastAcc,4,18,Woman,Right,
26,11,1,3.133360799998627,['c'],1,left,['1'],6,0.7845711000009032,0.4,0,FastAcc,4,18,Woman,Right,
27,11,1,1.883704600000783,['c'],0,right,['9'],2,0.3174042999999074,0.2,0,FastAcc,4,18,Woman,Right,
28,11,1,1.8837777999997343,['c'],0,right,['2'],5,1.0340486000004603,0.2,0,FastAcc,4,18,Woman,Right,
29,11,1,0.8668906000002607,['c'],0,right,['0'],1,2.050754700001562,0.2,0,FastAcc,4,18,Woman,Right,
30,11,1,1.1336113999986992,['c'],1,left,['9'],2,0.3175998000006075,0.1,0,FastAcc,4,18,Woman,Right,
31,11,1,0.7504747999992105,['c'],1,left,['1'],6,1.0008075999994617,0.2,0,FastAcc,4,18,Woman,Right,
32,11,1,0.5835189999997965,['c'],0,right,['9'],2,1.4678958999993483,0.4,0,FastAcc,4,18,Woman,Right,
33,11,1,1.317103399998814,['c'],0,right,['2'],5,0.7676776999996946,0.1,0,FastAcc,4,18,Woman,Right,
34,11,1,0.7165870000007999,['c'],0,right,['1'],6,0.35099600000103237,0.2,0,FastAcc,4,18,Woman,Right,
35,11,1,0.5503196999998181,['n'],1,right,['8'],3,1.0171740999994654,0.2,0,FastAcc,4,18,Woman,Right,
36,11,1,0.4508136000004015,['c'],1,left,['2'],5,1.8333867000001192,0.1,0,FastAcc,4,18,Woman,Right,
37,11,1,0.6501640000005864,['n'],1,right,['3'],4,1.733905600000071,0.4,0,FastAcc,4,18,Woman,Right,
38,11,1,0.5333396999994875,['c'],0,right,['2'],5,0.9000030999995943,0.1,0,FastAcc,4,18,Woman,Right,
39,11,1,0.6506637999991653,['c'],1,left,['3'],4,1.2169095000008383,0.1,0,FastAcc,4,18,Woman,Right,
40,11,1,0.816690199999357,['c'],1,left,['1'],6,0.4511873999999807,0.1,0,FastAcc,4,18,Woman,Right,
41,11,1,0.6167943000000378,['c'],0,right,['9'],2,1.151353700000982,0.2,0,FastAcc,4,18,Woman,Right,
42,11,1,0.6836293999986083,['c'],0,right,['3'],4,0.500748399999793,0.1,0,FastAcc,4,18,Woman,Right,
43,11,1,0.966909200000373,['c'],1,left,['2'],5,0.6509611000001314,0.1,0,FastAcc,4,18,Woman,Right,
44,11,1,0.9336921000012808,['c'],0,right,['1'],6,0.38429720000021916,0.1,0,FastAcc,4,18,Woman,Right,
45,11,1,0.8004268999993656,['c'],0,right,['2'],5,1.0849773000009009,0.2,0,FastAcc,4,18,Woman,Right,
46,11,1,0.9677904000000126,['c'],1,left,['8'],3,0.3341610000006767,0.1,0,FastAcc,4,18,Woman,Right,
47,11,1,0.6833470000001398,['c'],1,left,['3'],4,0.23336299999937182,0.2,0,FastAcc,4,18,Woman,Right,
48,11,1,0.9004580999990139,['c'],1,left,['2'],5,1.168066700000054,0.2,0,FastAcc,4,18,Woman,Right,
49,11,1,0.866880300000048,['c'],1,left,['1'],6,1.3670770000007906,0.2,0,FastAcc,4,18,Woman,Right,
50,11,1,0.8341649000012694,['c'],1,left,['8'],3,1.883857300001182,0.1,0,FastAcc,4,18,Woman,Right,
51,11,1,0.783732300000338,['n'],1,right,['8'],3,2.601074599999265,0.2,0,FastAcc,4,18,Woman,Right,
52,11,1,0.6655805999998847,['c'],1,left,['3'],4,1.3337334999996528,0.1,0,FastAcc,4,18,Woman,Right,
53,11,1,0.7339760000013484,['n'],0,left,['9'],2,2.334717699999601,0.2,0,FastAcc,4,18,Woman,Right,
54,11,1,0.7843627000002016,['c'],0,right,['3'],4,2.584129299999404,0.1,0,FastAcc,4,18,Woman,Right,
55,11,1,0.6678079000012076,['c'],1,left,['2'],5,0.400917599999957,0.4,0,FastAcc,4,18,Woman,Right,
56,11,1,0.6345558999983041,['c'],1,left,['1'],6,1.0001001000000542,0.4,0,FastAcc,4,18,Woman,Right,
57,11,1,1.1000545999995666,['n'],0,left,['8'],3,3.7509196999999403,0.1,0,FastAcc,4,18,Woman,Right,
58,11,1,0.701016900000468,['n'],0,left,['2'],5,1.1507677999998123,0.2,0,FastAcc,4,18,Woman,Right,
59,11,1,0.3835748000001331,['c'],1,left,['1'],6,0.5505962000006548,0.1,0,FastAcc,4,18,Woman,Right,
0,12,1,1.6327751999997417,['n'],1,right,['3'],4,0.9014320000005682,0.1,0,FastFast,4,18,Woman,Right,
1,12,1,0.4676615000007587,['c'],1,left,['2'],5,0.5677190999995219,0.1,0,FastFast,4,18,Woman,Right,
2,12,1,0.749963199999911,['c'],1,left,['1'],6,0.2838407000017469,0.2,0,FastFast,4,18,Woman,Right,
3,12,1,0.6340616999987105,['n'],1,right,['3'],4,0.5168924000008701,0.4,0,FastFast,4,18,Woman,Right,
4,12,1,1.084009199999855,['c'],0,right,['9'],2,0.38392930000009073,0.1,0,FastFast,4,18,Woman,Right,
5,12,1,0.6673489000004338,['c'],0,right,['0'],1,0.23415100000056555,0.4,0,FastFast,4,18,Woman,Right,
6,12,1,1.00017520000074,['c'],0,right,['2'],5,1.0508145000003424,0.4,0,FastFast,4,18,Woman,Right,
7,12,1,0.7004860999986704,['c'],0,right,['1'],6,0.250374199998987,0.1,0,FastFast,4,18,Woman,Right,
8,12,1,0.9009817000005569,['c'],1,left,['1'],6,0.18380839999917953,0.2,0,FastFast,4,18,Woman,Right,
9,12,1,0.6493749000001117,['c'],1,left,['0'],1,0.15105850000145438,0.2,0,FastFast,4,18,Woman,Right,
10,12,1,1.0170139000001654,['n'],0,left,['0'],1,0.2507425999992847,0.1,0,FastFast,4,18,Woman,Right,
11,12,1,0.700221999999485,['c'],1,left,['1'],6,0.21744659999967553,0.1,0,FastFast,4,18,Woman,Right,
12,12,1,1.2173013999999966,['c'],1,left,['2'],5,0.2177782999988267,0.1,0,FastFast,4,18,Woman,Right,
13,12,1,0.9171513999990566,['c'],1,left,['1'],6,0.3166375999990123,0.4,0,FastFast,4,18,Woman,Right,
14,12,1,0.8838968999989447,['c'],1,left,['1'],6,0.5840609000006225,0.4,0,FastFast,4,18,Woman,Right,
15,12,1,0.7338498999997682,['n'],0,left,['9'],2,0.2506926000005478,0.2,0,FastFast,4,18,Woman,Right,
16,12,1,0.6174011999992217,['n'],1,right,['0'],1,0.18387590000020282,0.2,0,FastFast,4,18,Woman,Right,
17,12,1,0.5496521000004577,['n'],1,right,['9'],2,0.5505701999991288,0.2,0,FastFast,4,18,Woman,Right,
18,12,1,1.600773999998637,['n'],1,right,['2'],5,0.7006916999998793,0.4,0,FastFast,4,18,Woman,Right,
19,12,1,1.2669368000006216,['c'],0,right,['3'],4,0.2677225000006729,0.4,0,FastFast,4,18,Woman,Right,
20,12,1,1.1511841999999888,['c'],0,right,['2'],5,0.4506588999993255,0.4,0,FastFast,4,18,Woman,Right,
21,12,1,1.1005353000000468,['n'],1,right,['3'],4,0.5841151000004174,0.2,0,FastFast,4,18,Woman,Right,
22,12,1,0.6995607999997446,['n'],0,left,['8'],3,0.1510801000003994,0.1,0,FastFast,4,18,Woman,Right,
23,12,1,0.599992100000236,['n'],0,left,['9'],2,2.250421099999585,0.1,0,FastFast,4,18,Woman,Right,
24,12,1,0.6503202000003512,['c'],1,left,['8'],3,1.9003222000010282,0.4,0,FastFast,4,18,Woman,Right,
25,12,1,1.2504998999993404,['c'],1,left,['2'],5,2.2845689999994647,0.2,0,FastFast,4,18,Woman,Right,
26,12,1,0.6829337999988638,['c'],1,left,['2'],5,0.2841124000005948,0.4,0,FastFast,4,18,Woman,Right,
27,12,1,0.617423300000155,['c'],1,left,['3'],4,0.30089180000140914,0.1,0,FastFast,4,18,Woman,Right,
28,12,1,0.7841146999999182,['c'],1,left,['9'],2,1.3840056999997614,0.4,0,FastFast,4,18,Woman,Right,
29,12,1,0.7665298000010807,['c'],0,right,['8'],3,0.11714019999999437,0.2,0,FastFast,4,18,Woman,Right,
30,12,1,0.9006057999995392,['n'],1,right,['2'],5,0.16682360000049812,0.2,0,FastFast,4,18,Woman,Right,
31,12,1,1.25059390000024,['n'],1,right,['3'],4,0.30120070000157284,0.4,0,FastFast,4,18,Woman,Right,
32,12,1,0.966369300000224,['n'],1,right,['2'],5,0.46718390000023646,0.4,0,FastFast,4,18,Woman,Right,
33,12,1,1.366958099999465,['n'],1,right,['8'],3,0.3001743000004353,0.4,0,FastFast,4,18,Woman,Right,
34,12,1,0.882873100001234,['c'],0,right,['8'],3,0.5677204999992682,0.2,0,FastFast,4,18,Woman,Right,
35,12,1,1.1169198000006872,['c'],1,left,['3'],4,0.6511398000002373,0.1,0,FastFast,4,18,Woman,Right,
36,12,1,0.9839934999999969,['n'],0,left,['9'],2,0.517149100000097,0.1,0,FastFast,4,18,Woman,Right,
37,12,1,1.868045200000779,['n'],1,right,['2'],5,1.1005380999995396,0.1,0,FastFast,4,18,Woman,Right,
38,12,1,0.9842428000010841,['c'],1,left,['1'],6,0.28318339999896125,0.2,0,FastFast,4,18,Woman,Right,
39,12,1,1.1519779000009294,['c'],0,right,['2'],5,0.2339057999997749,0.4,0,FastFast,4,18,Woman,Right,
40,12,1,2.933534800000416,['c'],1,left,['8'],3,0.16725179999957618,0.1,0,FastFast,4,18,Woman,Right,
41,12,1,0.5174076999992394,['n'],1,right,['3'],4,0.7009763999994902,0.2,0,FastFast,4,18,Woman,Right,
42,12,1,2.4497855000008713,['n'],1,right,['9'],2,0.7670679000002565,0.1,0,FastFast,4,18,Woman,Right,
43,12,1,0.7669041000008292,['c'],1,left,['3'],4,0.9014171999988321,0.4,0,FastFast,4,18,Woman,Right,
44,12,1,1.0003963999988628,['c'],1,left,['9'],2,0.21750109999993583,0.1,0,FastFast,4,18,Woman,Right,
45,12,1,0.8675963999994565,['c'],0,right,['2'],5,0.3174087999996118,0.2,0,FastFast,4,18,Woman,Right,
46,12,1,0.8829012000005605,['c'],0,right,['1'],6,0.16782710000006773,0.2,0,FastFast,4,18,Woman,Right,
47,12,1,1.616690099999687,['n'],1,right,['8'],3,0.4009654999990744,0.2,0,FastFast,4,18,Woman,Right,
48,12,1,1.6673021000005974,['c'],0,right,['3'],4,0.2667954999997164,0.2,0,FastFast,4,18,Woman,Right,
49,12,1,1.4503816999986157,['c'],1,left,['2'],5,0.23462889999973413,0.1,0,FastFast,4,18,Woman,Right,
50,12,1,0.7831744000013714,['c'],0,right,['1'],6,0.2007369999992079,0.2,0,FastFast,4,18,Woman,Right,
51,12,1,2.9166837000011583,['c'],0,right,['3'],4,0.30120890000034706,0.2,0,FastFast,4,18,Woman,Right,
52,12,1,0.7175811999986763,['c'],1,left,['3'],4,0.26613499999984924,0.1,0,FastFast,4,18,Woman,Right,
53,12,1,0.5329044999998587,['c'],0,right,['2'],5,0.2678169999999227,0.4,0,FastFast,4,18,Woman,Right,
54,12,1,0.7840444000012212,['c'],1,left,['9'],2,0.23342439999942144,0.1,0,FastFast,4,18,Woman,Right,
55,12,1,0.8344888000010542,['n'],1,right,['2'],5,0.31755450000127894,0.4,0,FastFast,4,18,Woman,Right,
56,12,1,0.8007925000001705,['c'],1,left,['3'],4,0.25026380000053905,0.1,0,FastFast,4,18,Woman,Right,
57,12,1,0.6333783999998559,['c'],1,left,['2'],5,0.1504557999996905,0.4,0,FastFast,4,18,Woman,Right,
58,12,1,0.6998677000010503,['c'],1,left,['1'],6,0.15095859999928507,0.4,0,FastFast,4,18,Woman,Right,
59,12,1,2.282688600000256,['n'],0,left,['9'],2,0.20063760000084585,0.2,0,FastFast,4,18,Woman,Right,
0,13,1,1.4976686999998492,['n'],1,right,['8'],3,0.31694880000031844,0.4,0,AccFast,4,18,Woman,Right,
1,13,1,0.8341686999992817,['c'],0,right,['2'],5,0.2668861000001925,0.1,0,AccFast,4,18,Woman,Right,
2,13,1,1.483907600000748,['n'],1,right,['3'],4,0.2171918000003643,0.1,0,AccFast,4,18,Woman,Right,
3,13,1,1.716641700000764,['c'],1,left,['3'],4,0.1841394000002765,0.1,0,AccFast,4,18,Woman,Right,
4,13,1,0.9164147999999841,['c'],0,right,['3'],4,0.23402530000021216,0.2,0,AccFast,4,18,Woman,Right,
5,13,1,1.5496617999997397,['n'],1,right,['2'],5,0.20124659999964933,0.4,0,AccFast,4,18,Woman,Right,
6,13,1,0.5004210999995848,['c'],0,right,['8'],3,0.4345972000010079,0.4,0,AccFast,4,18,Woman,Right,
7,13,1,0.6661820000008447,['c'],1,left,['1'],6,0.6010181000001467,0.4,0,AccFast,4,18,Woman,Right,
8,13,1,0.6838991000004171,['c'],0,right,['8'],3,0.3170100999996066,0.4,0,AccFast,4,18,Woman,Right,
9,13,1,1.1675673999998253,['c'],1,left,['2'],5,0.2006612999994104,0.4,0,AccFast,4,18,Woman,Right,
10,13,1,1.3163100999991002,['c'],0,right,['8'],3,1.0835896000007779,0.1,0,AccFast,4,18,Woman,Right,
11,13,1,1.916679899999508,['n'],1,right,['3'],4,0.28361000000040804,0.1,0,AccFast,4,18,Woman,Right,
12,13,1,1.1170798999992257,['c'],1,left,['9'],2,1.0000665999996272,0.1,0,AccFast,4,18,Woman,Right,
13,13,1,1.6335139000002528,['n'],0,left,['0'],1,0.1505431999994471,0.4,0,AccFast,4,18,Woman,Right,
14,13,1,1.5998607000001357,['c'],0,right,['2'],5,0.1843752000004315,0.1,0,AccFast,4,18,Woman,Right,
15,13,1,1.7663415999995777,['c'],1,left,['1'],6,0.16742940000040107,0.2,0,AccFast,4,18,Woman,Right,
16,13,1,0.8173399000006611,['n'],1,right,['2'],5,0.15052079999986745,0.1,0,AccFast,4,18,Woman,Right,
17,13,1,0.4167739000004076,['c'],1,left,['3'],4,0.183970699999918,0.2,0,AccFast,4,18,Woman,Right,
18,13,1,0.8504049000002851,['n'],1,right,['9'],2,0.38439699999980803,0.2,0,AccFast,4,18,Woman,Right,
19,13,1,0.5838314000011451,['n'],1,right,['2'],5,0.18407790000128443,0.4,0,AccFast,4,18,Woman,Right,
20,13,1,0.9506278999997448,['n'],0,left,['1'],6,0.26731629999994766,0.2,0,AccFast,4,18,Woman,Right,
21,13,1,3.167559800000163,['c'],0,right,['8'],3,0.6672328999993624,0.4,0,AccFast,4,18,Woman,Right,
22,13,1,1.1833556999990833,['c'],0,right,['3'],4,0.18352560000130325,0.1,0,AccFast,4,18,Woman,Right,
23,13,1,0.866758199999822,['c'],1,left,['2'],5,0.3338137999999162,0.2,0,AccFast,4,18,Woman,Right,
24,13,1,0.9677164000004268,['n'],0,left,['3'],4,0.10101029999896127,0.1,0,AccFast,4,18,Woman,Right,
25,13,1,1.0328298000003997,['c'],0,right,['3'],4,0.9177748999991309,0.4,0,AccFast,4,18,Woman,Right,
26,13,1,1.766893899999559,['c'],1,left,['8'],3,0.18386300000020128,0.1,0,AccFast,4,18,Woman,Right,
27,13,1,2.200380199999927,['c'],0,right,['9'],2,0.1671769000004133,0.2,0,AccFast,4,18,Woman,Right,
28,13,1,1.1165956000004371,['c'],1,left,['3'],4,0.26724039999862725,0.1,0,AccFast,4,18,Woman,Right,
29,13,1,3.2344561999998405,['c'],0,right,['2'],5,0.23359270000037213,0.1,0,AccFast,4,18,Woman,Right,
30,13,1,0.8830025000006572,['c'],1,left,['3'],4,0.284512199999881,0.1,0,AccFast,4,18,Woman,Right,
31,13,1,1.299937100000534,['c'],1,left,['9'],2,0.5671028000015212,0.4,0,AccFast,4,18,Woman,Right,
32,13,1,1.2837942000005569,['c'],1,left,['2'],5,0.2332894999999553,0.2,0,AccFast,4,18,Woman,Right,
33,13,1,0.8172622000001866,['c'],1,left,['1'],6,0.16752839999935532,0.2,0,AccFast,4,18,Woman,Right,
34,13,1,0.9006896999999299,['c'],1,left,['2'],5,0.23322530000041297,0.1,0,AccFast,4,18,Woman,Right,
35,13,1,1.4333109999988665,['n'],1,right,['8'],3,1.4179036999994423,0.1,0,AccFast,4,18,Woman,Right,
36,13,1,1.6672428000001673,['n'],0,left,['2'],5,0.16795769999953336,0.4,0,AccFast,4,18,Woman,Right,
37,13,1,0.9993414999989909,['n'],1,right,['2'],5,0.3497274000001198,0.2,0,AccFast,4,18,Woman,Right,
38,13,1,1.0341114999991987,['n'],0,left,['8'],3,0.41738619999887305,0.1,0,AccFast,4,18,Woman,Right,
39,13,1,1.15022449999924,['n'],1,right,['3'],4,0.21796610000092187,0.1,0,AccFast,4,18,Woman,Right,
40,13,1,2.449941500000932,['c'],1,left,['2'],5,0.2176980000003823,0.2,0,AccFast,4,18,Woman,Right,
41,13,1,1.818056100000831,['c'],0,right,['3'],4,1.5508688999998412,0.2,0,AccFast,4,18,Woman,Right,
42,13,1,0.9164803999992728,['c'],1,left,['3'],4,0.1840236999996705,0.1,0,AccFast,4,18,Woman,Right,
43,13,1,1.3341471000003366,['n'],1,right,['9'],2,0.38404779999837046,0.4,0,AccFast,4,18,Woman,Right,
44,13,1,1.584150899998349,['c'],1,left,['1'],6,0.1508826000008412,0.4,0,AccFast,4,18,Woman,Right,
45,13,1,0.8829343999987032,['c'],1,left,['1'],6,0.20164400000066962,0.4,0,AccFast,4,18,Woman,Right,
46,13,1,2.4005354000000807,['c'],0,right,['3'],4,0.23434519999864278,0.2,0,AccFast,4,18,Woman,Right,
47,13,1,1.0666946999990614,['n'],0,left,['8'],3,0.2842989000000671,0.1,0,AccFast,4,18,Woman,Right,
48,13,1,2.2168921000011323,['c'],1,left,['2'],5,0.13363070000013977,0.2,0,AccFast,4,18,Woman,Right,
49,13,1,1.9834399999999732,['n'],1,right,['3'],4,2.9175778000007995,0.2,0,AccFast,4,18,Woman,Right,
50,13,1,1.0832902000001923,['c'],1,left,['2'],5,0.18424230000164243,0.4,0,AccFast,4,18,Woman,Right,
51,13,1,4.517530500001158,['c'],0,right,['2'],5,0.8008362000000488,0.4,0,AccFast,4,18,Woman,Right,
52,13,1,1.1509807999991608,['c'],1,left,['1'],6,0.30108650000147463,0.2,0,AccFast,4,18,Woman,Right,
53,13,1,1.3164390999991156,['c'],1,left,['1'],6,0.2508851999991748,0.4,0,AccFast,4,18,Woman,Right,
54,13,1,3.700708200000008,['c'],0,right,['3'],4,0.4511199000007764,0.4,0,AccFast,4,18,Woman,Right,
55,13,1,2.199796899998546,['c'],1,left,['2'],5,0.5010712000002968,0.4,0,AccFast,4,18,Woman,Right,
56,13,1,1.1341358999998192,['n'],0,left,['9'],2,0.7007778999995935,0.2,0,AccFast,4,18,Woman,Right,
57,13,1,2.300408499999321,['c'],0,right,['1'],6,0.300591400000485,0.2,0,AccFast,4,18,Woman,Right,
58,13,1,1.6333040999998047,['n'],1,right,['2'],5,0.7844404999996186,0.2,0,AccFast,4,18,Woman,Right,
59,13,1,0.9828604999984236,['n'],1,right,['3'],4,0.5347032999998191,0.2,0,AccFast,4,18,Woman,Right,
0,14,1,3.3157343000002584,['c'],1,left,['2'],5,1.2178409000007377,0.2,0,AccAcc,4,18,Woman,Right,
1,14,1,2.5003190000006725,['c'],1,left,['3'],4,0.7172059000004083,0.2,0,AccAcc,4,18,Woman,Right,
2,14,1,1.5835193999992043,['n'],1,right,['3'],4,1.7674318000008498,0.1,0,AccAcc,4,18,Woman,Right,
3,14,1,1.9490335999998933,['c'],1,left,['2'],5,0.4172686000001704,0.4,0,AccAcc,4,18,Woman,Right,
4,14,1,2.650205800000549,['n'],0,left,['9'],2,1.3173558000016783,0.4,0,AccAcc,4,18,Woman,Right,
5,14,1,2.633712700000615,['c'],0,right,['8'],3,1.5508102000003419,0.2,0,AccAcc,4,18,Woman,Right,
6,14,1,1.9832585000003746,['n'],1,right,['3'],4,0.6171689999991941,0.1,0,AccAcc,4,18,Woman,Right,
7,14,1,2.5162647999986802,['n'],1,right,['2'],5,0.4842453999990539,0.4,0,AccAcc,4,18,Woman,Right,
8,14,1,3.733077000000776,['c'],1,left,['1'],6,0.5507919000010588,0.2,0,AccAcc,4,18,Woman,Right,
9,14,1,1.5333903999999166,['n'],0,left,['9'],2,0.28451769999992393,0.1,0,AccAcc,4,18,Woman,Right,
10,14,1,1.233385499999713,['c'],1,left,['2'],5,0.40095000000110304,0.4,0,AccAcc,4,18,Woman,Right,
11,14,1,1.3176050999991276,['c'],1,left,['1'],6,0.2008626999995613,0.2,0,AccAcc,4,18,Woman,Right,
12,14,1,1.651133800000025,['n'],0,left,['8'],3,0.5842843999998877,0.2,0,AccAcc,4,18,Woman,Right,
13,14,1,1.2169849000001705,['n'],1,right,['2'],5,0.5005842999999004,0.1,0,AccAcc,4,18,Woman,Right,
14,14,1,0.783540800000992,['n'],1,right,['3'],4,0.30102850000002945,0.2,0,AccAcc,4,18,Woman,Right,
15,14,1,1.4343765000012354,['c'],1,left,['2'],5,1.7507237999998324,0.4,0,AccAcc,4,18,Woman,Right,
16,14,1,1.2174949000000197,['n'],1,right,['3'],4,1.0171023000002606,0.2,0,AccAcc,4,18,Woman,Right,
17,14,1,1.8650032000005012,['n'],0,left,['9'],2,0.4670934000005218,0.4,0,AccAcc,4,18,Woman,Right,
18,14,1,2.9329450000004726,['n'],1,right,['2'],5,0.40038490000006277,0.2,0,AccAcc,4,18,Woman,Right,
19,14,1,1.8339511000012862,['n'],0,left,['0'],1,0.35089349999907427,0.4,0,AccAcc,4,18,Woman,Right,
20,14,1,1.9504242000002705,['n'],1,right,['8'],3,0.21737479999865172,0.4,0,AccAcc,4,18,Woman,Right,
21,14,1,2.4498125000009168,['c'],1,left,['3'],4,0.533814500000517,0.1,0,AccAcc,4,18,Woman,Right,
22,14,1,1.2507812999992893,['n'],1,right,['9'],2,0.16759429999910935,0.1,0,AccAcc,4,18,Woman,Right,
23,14,1,2.550392799999827,['c'],0,right,['3'],4,2.467609999999695,0.2,0,AccAcc,4,18,Woman,Right,
24,14,1,3.350571299999501,['c'],1,left,['2'],5,1.7844635999990714,0.2,0,AccAcc,4,18,Woman,Right,
25,14,1,1.5340692999998282,['c'],1,left,['1'],6,1.7171658000006573,0.4,0,AccAcc,4,18,Woman,Right,
26,14,1,2.733857799999896,['c'],0,right,['8'],3,1.1005502000007255,0.1,0,AccAcc,4,18,Woman,Right,
27,14,1,3.166946500001359,['c'],1,left,['9'],2,0.4162793999985297,0.1,0,AccAcc,4,18,Woman,Right,
28,14,1,1.6506945000000997,['c'],0,right,['0'],1,0.6178768999998283,0.1,0,AccAcc,4,18,Woman,Right,
29,14,1,1.2162980000011885,['c'],0,right,['9'],2,0.36781859999973676,0.4,0,AccAcc,4,18,Woman,Right,
30,14,1,1.9339299999992363,['c'],0,right,['2'],5,0.28430930000104127,0.2,0,AccAcc,4,18,Woman,Right,
31,14,1,2.832950999998502,['c'],1,left,['1'],6,1.5504365999986476,0.2,0,AccAcc,4,18,Woman,Right,
32,14,1,2.867479700000331,['c'],0,right,['2'],5,1.8502740999992966,0.4,0,AccAcc,4,18,Woman,Right,
33,14,1,2.9498055999993085,['c'],0,right,['9'],2,1.7179371000001993,0.4,0,AccAcc,4,18,Woman,Right,
34,14,1,1.9501538000004075,['c'],0,right,['8'],3,0.4006576000010682,0.1,0,AccAcc,4,18,Woman,Right,
35,14,1,1.434060399998998,['c'],1,left,['1'],6,0.9008615999991889,0.4,0,AccAcc,4,18,Woman,Right,
36,14,1,2.1164530999994895,['c'],0,right,['0'],1,1.317936000001282,0.2,0,AccAcc,4,18,Woman,Right,
37,14,1,2.034302000000025,['n'],0,left,['2'],5,0.5333694999990257,0.1,0,AccAcc,4,18,Woman,Right,
38,14,1,3.367398799999137,['c'],1,left,['1'],6,0.7179057999983343,0.4,0,AccAcc,4,18,Woman,Right,
39,14,1,1.966765299999679,['n'],1,right,['9'],2,0.6509948000002623,0.1,0,AccAcc,4,18,Woman,Right,
40,14,1,2.6329442000005656,['n'],1,right,['3'],4,2.7671632999990834,0.2,0,AccAcc,4,18,Woman,Right,
41,14,1,1.851056100000278,['c'],0,right,['2'],5,0.45074989999920945,0.2,0,AccAcc,4,18,Woman,Right,
42,14,1,3.3843500000002678,['n'],1,right,['3'],4,0.934541700000409,0.4,0,AccAcc,4,18,Woman,Right,
43,14,1,2.866809999999532,['n'],1,right,['2'],5,0.467127600000822,0.4,0,AccAcc,4,18,Woman,Right,
44,14,1,2.233747999998741,['n'],0,left,['9'],2,0.4340977000010753,0.2,0,AccAcc,4,18,Woman,Right,
45,14,1,5.015638200000467,x,-99,left,none,-99,-99,0.1,1,AccAcc,4,18,Woman,Right,
46,14,1,1.6175328999997873,['c'],0,right,['2'],5,1.4511591999998927,0.1,0,AccAcc,4,18,Woman,Right,
47,14,1,1.9497923999988416,['n'],0,left,['3'],4,1.2842333999997209,0.4,0,AccAcc,4,18,Woman,Right,
48,14,1,1.882749899999908,['n'],1,right,['2'],5,1.7501615000001038,0.4,0,AccAcc,4,18,Woman,Right,
49,14,1,1.700041099998998,['c'],1,left,['0'],1,0.4336478999994142,0.1,0,AccAcc,4,18,Woman,Right,
50,14,1,2.9997624999996333,['c'],1,left,['2'],5,1.2173166000011406,0.2,0,AccAcc,4,18,Woman,Right,
51,14,1,1.5345746000002691,['n'],0,left,['9'],2,0.5677214000006643,0.1,0,AccAcc,4,18,Woman,Right,
52,14,1,1.633719100000235,['c'],1,left,['2'],5,0.3833193999998912,0.1,0,AccAcc,4,18,Woman,Right,
53,14,1,1.418094700000438,['n'],0,left,['9'],2,0.2843627000002016,0.1,0,AccAcc,4,18,Woman,Right,
54,14,1,2.000988800000414,['c'],0,right,['0'],1,0.6500228999993851,0.2,0,AccAcc,4,18,Woman,Right,
55,14,1,1.8838433000000805,['c'],1,left,['3'],4,1.3508536000008462,0.4,0,AccAcc,4,18,Woman,Right,
56,14,1,2.6502520000012737,['n'],1,right,['8'],3,0.9350275000015245,0.2,0,AccAcc,4,18,Woman,Right,
57,14,1,2.1500580000010814,['c'],1,left,['9'],2,0.7176480999987689,0.1,0,AccAcc,4,18,Woman,Right,
58,14,1,1.3174041000002035,['n'],1,right,['3'],4,1.5343596000002435,0.4,0,AccAcc,4,18,Woman,Right,
59,14,1,2.333020000000033,['c'],0,right,['2'],5,0.6510472999998456,0.1,0,AccAcc,4,18,Woman,Right,
0,15,1,1.367214599998988,['c'],0,right,['2'],5,1.734446200000093,0.1,0,FastAcc,4,18,Woman,Right,
1,15,1,0.8503935000007914,['n'],1,right,['3'],4,3.0338690999997198,0.1,0,FastAcc,4,18,Woman,Right,
2,15,1,2.134167399999569,['c'],1,left,['2'],5,1.450426499999594,0.2,0,FastAcc,4,18,Woman,Right,
3,15,1,1.1506792000000132,['c'],1,left,['9'],2,1.4008405999993556,0.1,0,FastAcc,4,18,Woman,Right,
4,15,1,1.5000829000000522,['n'],1,right,['2'],5,1.3664814999992814,0.2,0,FastAcc,4,18,Woman,Right,
5,15,1,1.6177765000011277,['c'],0,right,['8'],3,0.8013874999996915,0.2,0,FastAcc,4,18,Woman,Right,
6,15,1,1.1167435999996087,['n'],0,left,['2'],5,0.5169263999996474,0.2,0,FastAcc,4,18,Woman,Right,
7,15,1,1.599184200000309,['n'],0,left,['9'],2,2.1340438999995968,0.1,0,FastAcc,4,18,Woman,Right,
8,15,1,0.7321050000009564,['c'],0,right,['2'],5,1.0506547999993927,0.1,0,FastAcc,4,18,Woman,Right,
9,15,1,2.166821099999652,['n'],0,left,['3'],4,0.5849077999992005,0.2,0,FastAcc,4,18,Woman,Right,
10,15,1,0.716460300000108,['c'],0,right,['8'],3,0.30080570000063744,0.1,0,FastAcc,4,18,Woman,Right,
11,15,1,0.6666608999985328,['c'],1,left,['1'],6,1.1845622999990155,0.4,0,FastAcc,4,18,Woman,Right,
12,15,1,1.0671548000009352,['c'],1,left,['8'],3,1.6666514000007737,0.4,0,FastAcc,4,18,Woman,Right,
13,15,1,1.4670287999997527,['n'],1,right,['3'],4,0.36778120000053605,0.2,0,FastAcc,4,18,Woman,Right,
14,15,1,2.3327220999999554,['c'],0,right,['2'],5,0.5669227999987925,0.4,0,FastAcc,4,18,Woman,Right,
15,15,1,2.4003320000010717,['c'],0,right,['9'],2,0.41788369999994757,0.1,0,FastAcc,4,18,Woman,Right,
16,15,1,2.9008757999999943,['c'],0,right,['2'],5,0.6346052000008058,0.1,0,FastAcc,4,18,Woman,Right,
17,15,1,1.200157200000831,['c'],1,left,['1'],6,0.10103969999909168,0.2,0,FastAcc,4,18,Woman,Right,
18,15,1,1.1174138000005769,['c'],0,right,['2'],5,1.6010772999998153,0.2,0,FastAcc,4,18,Woman,Right,
19,15,1,0.6000411000004533,['n'],0,left,['3'],4,3.301010800001677,0.2,0,FastAcc,4,18,Woman,Right,
20,15,1,0.8006928000013431,['c'],1,left,['2'],5,1.7341883999997663,0.2,0,FastAcc,4,18,Woman,Right,
21,15,1,1.7000465000000986,['c'],1,left,['2'],5,1.117338699999891,0.1,0,FastAcc,4,18,Woman,Right,
22,15,1,1.350264499998957,['n'],1,right,['1'],6,0.7670873000006395,0.1,0,FastAcc,4,18,Woman,Right,
23,15,1,1.3507656000001589,['n'],1,right,['2'],5,1.1506298999993305,0.4,0,FastAcc,4,18,Woman,Right,
24,15,1,1.9836919000008493,['c'],1,left,['2'],5,1.7512972999993508,0.4,0,FastAcc,4,18,Woman,Right,
25,15,1,1.4668053000004875,['n'],1,right,['8'],3,0.8005118000000948,0.2,0,FastAcc,4,18,Woman,Right,
26,15,1,1.4671636000002763,['n'],1,right,['2'],5,0.3008828000001813,0.4,0,FastAcc,4,18,Woman,Right,
27,15,1,1.1661353999988933,['c'],0,right,['3'],4,0.4006119999994553,0.4,0,FastAcc,4,18,Woman,Right,
28,15,1,1.0843531999998959,['c'],1,left,['2'],5,2.767178400001285,0.1,0,FastAcc,4,18,Woman,Right,
29,15,1,0.7837753000003431,['c'],1,left,['1'],6,0.6840443999990384,0.4,0,FastAcc,4,18,Woman,Right,
30,15,1,0.7839478000005329,['n'],1,right,['8'],3,2.8012701999996352,0.1,0,FastAcc,4,18,Woman,Right,
31,15,1,0.9506322999986878,['c'],1,left,['9'],2,0.26742470000135654,0.1,0,FastAcc,4,18,Woman,Right,
32,15,1,1.1339634000014485,['n'],0,left,['2'],5,0.4841961000001902,0.4,0,FastAcc,4,18,Woman,Right,
33,15,1,1.98361229999864,['c'],0,right,['3'],4,0.28425290000086534,0.2,0,FastAcc,4,18,Woman,Right,
34,15,1,0.7827534999996715,['n'],0,left,['2'],5,0.4835662000004959,0.1,0,FastAcc,4,18,Woman,Right,
35,15,1,1.2174756999993406,['n'],1,right,['2'],5,2.117442700000538,0.4,0,FastAcc,4,18,Woman,Right,
36,15,1,1.2162047999991046,['c'],1,left,['1'],6,1.0012707999994745,0.2,0,FastAcc,4,18,Woman,Right,
37,15,1,0.817149900000004,['n'],0,left,['0'],1,1.7342895999991015,0.4,0,FastAcc,4,18,Woman,Right,
38,15,1,0.5503478999999061,['c'],1,left,['8'],3,1.4668349999992643,0.1,0,FastAcc,4,18,Woman,Right,
39,15,1,0.7843081999999413,['n'],1,right,['3'],4,0.5840757999994821,0.4,0,FastAcc,4,18,Woman,Right,
40,15,1,0.8833565000004455,['n'],1,right,['2'],5,0.35088270000051125,0.4,0,FastAcc,4,18,Woman,Right,
41,15,1,0.8332282999999734,['c'],1,left,['1'],6,0.4509625999999116,0.4,0,FastAcc,4,18,Woman,Right,
42,15,1,0.750241300000198,['n'],0,left,['8'],3,2.6006691999991745,0.1,0,FastAcc,4,18,Woman,Right,
43,15,1,0.8503064999986236,['c'],0,right,['0'],1,1.3837849000010465,0.4,0,FastAcc,4,18,Woman,Right,
44,15,1,0.701095800000985,['n'],1,right,['8'],3,1.9342125999992277,0.1,0,FastAcc,4,18,Woman,Right,
45,15,1,0.6656856000008702,['n'],1,right,['3'],4,1.6000695000002452,0.2,0,FastAcc,4,18,Woman,Right,
46,15,1,1.166571899999326,['c'],1,left,['2'],5,1.6174610999987635,0.2,0,FastAcc,4,18,Woman,Right,
47,15,1,1.3500583000004553,['c'],1,left,['1'],6,0.550912700000481,0.4,0,FastAcc,4,18,Woman,Right,
48,15,1,0.8836690000007366,['n'],1,right,['8'],3,1.2342499999995198,0.2,0,FastAcc,4,18,Woman,Right,
49,15,1,1.4002645000000484,['c'],0,right,['3'],4,0.7506612999986828,0.2,0,FastAcc,4,18,Woman,Right,
50,15,1,1.3163210000002437,['n'],1,right,['9'],2,1.5008366999991267,0.1,0,FastAcc,4,18,Woman,Right,
51,15,1,1.1002389000004769,['n'],1,right,['2'],5,1.8343955999989703,0.4,0,FastAcc,4,18,Woman,Right,
52,15,1,0.8002457000002323,['c'],0,right,['8'],3,1.5178522999995039,0.2,0,FastAcc,4,18,Woman,Right,
53,15,1,0.5503367000001163,['n'],0,left,['1'],6,0.6839847000010195,0.2,0,FastAcc,4,18,Woman,Right,
54,15,1,0.6174126999994769,['c'],1,left,['3'],4,1.4341109000015422,0.1,0,FastAcc,4,18,Woman,Right,
55,15,1,0.5159464999996999,['c'],1,left,['1'],6,0.8833771999998135,0.4,0,FastAcc,4,18,Woman,Right,
56,15,1,0.849771299999702,['c'],1,left,['1'],6,0.9677039999987755,0.4,0,FastAcc,4,18,Woman,Right,
57,15,1,0.6004807999997865,['n'],1,right,['2'],5,1.4003455999991274,0.1,0,FastAcc,4,18,Woman,Right,
58,15,1,0.5839319999995496,['c'],1,left,['1'],6,0.8675020999999106,0.4,0,FastAcc,4,18,Woman,Right,
59,15,1,0.5833707000001596,['n'],0,left,['0'],1,0.733890400000746,0.2,0,FastAcc,4,18,Woman,Right,
