withinblocktrial,block,block_repetition,rt,resp,cor,cresp,conf_press,cj,rtconf,coherence,slow_trial,manipulation,sub,age,gender,handedness,
0,1,1,5.000561500000003,x,-99,left,none,-99,-99,0.5,1,none,2,17,Woman,Right,
1,1,1,1.983495600000424,['c'],1,left,none,-99,-99,0.5,0,none,2,17,Woman,Right,
2,1,1,0.7669544999998834,['n'],1,right,none,-99,-99,0.5,0,none,2,17,Woman,Right,
3,1,1,0.700343200000134,['n'],1,right,none,-99,-99,0.5,0,none,2,17,Woman,Right,
4,1,1,0.6497457000004943,['c'],1,left,none,-99,-99,0.5,0,none,2,17,Woman,Right,
5,1,1,0.500040099999751,['n'],1,right,none,-99,-99,0.5,0,none,2,17,Woman,Right,
6,1,1,0.5665854999997464,['n'],1,right,none,-99,-99,0.5,0,none,2,17,Woman,Right,
7,1,1,0.6839351999997234,['n'],1,right,none,-99,-99,0.5,0,none,2,17,Woman,Right,
8,1,1,0.5165759000001344,['c'],1,left,none,-99,-99,0.5,0,none,2,17,Woman,Right,
9,1,1,0.9165445999997246,['n'],0,left,none,-99,-99,0.5,0,none,2,17,Woman,Right,
10,1,1,0.6175251000004209,['n'],1,right,none,-99,-99,0.5,0,none,2,17,Woman,Right,
11,1,1,0.45119939999949565,['c'],1,left,none,-99,-99,0.5,0,none,2,17,Woman,Right,
12,1,1,0.6826007999998183,['c'],1,left,none,-99,-99,0.5,0,none,2,17,Woman,Right,
13,1,1,0.5008435999998255,['c'],1,left,none,-99,-99,0.5,0,none,2,17,Woman,Right,
14,1,1,0.45035639999969135,['n'],1,right,none,-99,-99,0.5,0,none,2,17,Woman,Right,
15,1,1,0.6328413999999611,['n'],1,right,none,-99,-99,0.5,0,none,2,17,Woman,Right,
16,1,1,0.5336341000001994,['c'],1,left,none,-99,-99,0.5,0,none,2,17,Woman,Right,
17,1,1,0.48319719999926747,['n'],1,right,none,-99,-99,0.5,0,none,2,17,Woman,Right,
18,1,1,0.5330554000001939,['n'],1,right,none,-99,-99,0.5,0,none,2,17,Woman,Right,
19,1,1,1.050159700000222,['n'],1,right,none,-99,-99,0.5,0,none,2,17,Woman,Right,
20,1,1,0.466330399999606,['c'],1,left,none,-99,-99,0.5,0,none,2,17,Woman,Right,
21,1,1,0.832965300000069,['c'],1,left,none,-99,-99,0.5,0,none,2,17,Woman,Right,
22,1,1,0.5495473000000857,['c'],1,left,none,-99,-99,0.5,0,none,2,17,Woman,Right,
23,1,1,0.46590869999999995,['n'],1,right,none,-99,-99,0.5,0,none,2,17,Woman,Right,
0,2,1,0.9001908000000185,['c'],0,right,none,-99,-99,0.1,0,none,2,17,Woman,Right,
1,2,1,1.216250299999956,['n'],0,left,none,-99,-99,0.1,0,none,2,17,Woman,Right,
2,2,1,1.1658103999998275,['c'],1,left,none,-99,-99,0.2,0,none,2,17,Woman,Right,
3,2,1,0.548959200000354,['n'],1,right,none,-99,-99,0.4,0,none,2,17,Woman,Right,
4,2,1,0.5666170000004058,['c'],1,left,none,-99,-99,0.2,0,none,2,17,Woman,Right,
5,2,1,0.5995844999997644,['c'],1,left,none,-99,-99,0.4,0,none,2,17,Woman,Right,
6,2,1,0.5496859000004406,['c'],1,left,none,-99,-99,0.2,0,none,2,17,Woman,Right,
7,2,1,0.5818398000001253,['c'],1,left,none,-99,-99,0.2,0,none,2,17,Woman,Right,
8,2,1,0.48479610000049433,['n'],1,right,none,-99,-99,0.1,0,none,2,17,Woman,Right,
9,2,1,0.6662319999995816,['c'],1,left,none,-99,-99,0.1,0,none,2,17,Woman,Right,
10,2,1,0.3835353999993458,['c'],1,left,none,-99,-99,0.4,0,none,2,17,Woman,Right,
11,2,1,0.5832780000000639,['n'],1,right,none,-99,-99,0.1,0,none,2,17,Woman,Right,
12,2,1,0.35067569999955595,['c'],0,right,none,-99,-99,0.1,0,none,2,17,Woman,Right,
13,2,1,0.4501892999996926,['n'],0,left,none,-99,-99,0.1,0,none,2,17,Woman,Right,
14,2,1,0.6332629999997152,['n'],1,right,none,-99,-99,0.4,0,none,2,17,Woman,Right,
15,2,1,0.6668093999996927,['n'],1,right,none,-99,-99,0.2,0,none,2,17,Woman,Right,
16,2,1,0.5170045000004393,['c'],1,left,none,-99,-99,0.4,0,none,2,17,Woman,Right,
17,2,1,0.6827208999993672,['c'],1,left,none,-99,-99,0.2,0,none,2,17,Woman,Right,
18,2,1,0.6328031000002738,['n'],1,right,none,-99,-99,0.4,0,none,2,17,Woman,Right,
19,2,1,0.6166800999999396,['n'],1,right,none,-99,-99,0.4,0,none,2,17,Woman,Right,
20,2,1,0.5162703999994847,['c'],1,left,none,-99,-99,0.2,0,none,2,17,Woman,Right,
21,2,1,0.5499210999996649,['n'],1,right,none,-99,-99,0.1,0,none,2,17,Woman,Right,
22,2,1,0.4159276000000318,['c'],0,right,none,-99,-99,0.4,0,none,2,17,Woman,Right,
23,2,1,0.9493413999998666,['n'],1,right,none,-99,-99,0.2,0,none,2,17,Woman,Right,
0,3,1,2.5668959999993604,['n'],0,left,none,-99,-99,0.4,1,none,2,17,Woman,Right,
1,3,1,0.6332395999997971,['c'],1,left,['2'],5,1.5504591999997501,0.4,0,none,2,17,Woman,Right,
2,3,1,0.7335317999995823,['n'],1,right,['0'],1,1.6177990999995018,0.2,0,none,2,17,Woman,Right,
3,3,1,1.9995983999997406,['c'],0,right,['9'],2,4.284328700000515,0.1,0,none,2,17,Woman,Right,
4,3,1,1.0837320000000545,['n'],1,right,['2'],5,1.8169946000007258,0.2,0,none,2,17,Woman,Right,
5,3,1,2.2661903999996866,['n'],0,left,['8'],3,1.8677926000000298,0.1,0,none,2,17,Woman,Right,
6,3,1,2.850817200000165,['n'],0,left,['2'],5,3.267587100000128,0.4,0,none,2,17,Woman,Right,
7,3,1,2.1665436000002956,['n'],1,right,['2'],5,3.3843847999996797,0.1,0,none,2,17,Woman,Right,
8,3,1,2.5999166999999943,['n'],0,left,['9'],2,2.300674400000389,0.1,0,none,2,17,Woman,Right,
9,3,1,1.0997489999999743,['n'],1,right,['2'],5,4.7509408999994776,0.2,0,none,2,17,Woman,Right,
10,3,1,1.0337156999994477,['n'],1,right,['1'],6,1.2338300000001254,0.4,0,none,2,17,Woman,Right,
11,3,1,2.5169181999999637,['n'],0,left,['9'],2,1.3341241999996782,0.2,0,none,2,17,Woman,Right,
12,3,1,2.3172088000001168,['n'],1,right,['9'],2,1.6002964999997857,0.2,0,none,2,17,Woman,Right,
13,3,1,1.0998786999998629,['n'],1,right,['1'],6,1.7002548999998908,0.4,0,none,2,17,Woman,Right,
14,3,1,1.9667261000004146,['n'],1,right,['9'],2,2.551021500000388,0.2,0,none,2,17,Woman,Right,
15,3,1,1.7666804000000411,['c'],1,left,['2'],5,1.5005490999992617,0.2,0,none,2,17,Woman,Right,
16,3,1,0.9501864000003479,['n'],1,right,['1'],6,1.050231299999723,0.4,0,none,2,17,Woman,Right,
17,3,1,1.2505543999996007,['n'],1,right,['2'],5,2.03445930000089,0.1,0,none,2,17,Woman,Right,
18,3,1,3.6669003999995766,['c'],1,left,['2'],5,2.450909899999715,0.2,0,none,2,17,Woman,Right,
19,3,1,3.766899100000046,['n'],0,left,['9'],2,1.4507057999999233,0.1,0,none,2,17,Woman,Right,
20,3,1,4.533695799999805,['c'],1,left,['9'],2,1.999924199999441,0.1,0,none,2,17,Woman,Right,
21,3,1,0.7666377999994438,['c'],1,left,['1'],6,1.217220599999564,0.4,0,none,2,17,Woman,Right,
22,3,1,2.8503702999996676,['c'],1,left,['2'],5,1.9338035000000673,0.4,0,none,2,17,Woman,Right,
23,3,1,2.0172598999997717,['n'],1,right,['9'],2,1.7335746999997355,0.1,0,none,2,17,Woman,Right,
0,4,1,1.1502215000000433,['n'],0,left,['9'],2,2.8841986000006727,0.1,0,FastFast,2,17,Woman,Right,
1,4,1,1.2498683000003439,['c'],1,left,['2'],5,1.2011330999994243,0.1,0,FastFast,2,17,Woman,Right,
2,4,1,1.283297599999969,['c'],1,left,['2'],5,0.5505800000000818,0.4,0,FastFast,2,17,Woman,Right,
3,4,1,0.9002268000003824,['n'],1,right,['9'],2,0.8006451999999626,0.2,0,FastFast,2,17,Woman,Right,
4,4,1,1.0667708999999377,['n'],1,right,['2'],5,0.6015856999993048,0.4,0,FastFast,2,17,Woman,Right,
5,4,1,0.9665361999996094,['c'],1,left,['3'],4,1.033861899999465,0.1,0,FastFast,2,17,Woman,Right,
6,4,1,0.9341819000001124,['n'],1,right,['2'],5,1.4500658999995721,0.2,0,FastFast,2,17,Woman,Right,
7,4,1,2.100817399999869,['c'],1,left,['3'],4,1.8839755999997578,0.1,0,FastFast,2,17,Woman,Right,
8,4,1,1.4164897999999084,['c'],1,left,['1'],6,0.8179184999999052,0.4,0,FastFast,2,17,Woman,Right,
9,4,1,2.01712150000003,['c'],1,left,['3'],4,1.317120800000339,0.2,0,FastFast,2,17,Woman,Right,
10,4,1,2.2326634000000922,['n'],0,left,['9'],2,1.4676487999995516,0.1,0,FastFast,2,17,Woman,Right,
11,4,1,1.5834807000001092,['n'],0,left,['9'],2,1.1171622000001662,0.1,0,FastFast,2,17,Woman,Right,
12,4,1,1.5329639999999927,['n'],1,right,['1'],6,0.9009824000004301,0.4,0,FastFast,2,17,Woman,Right,
13,4,1,1.31645860000026,['n'],1,right,['2'],5,1.0838180000000648,0.1,0,FastFast,2,17,Woman,Right,
14,4,1,1.0336325999996916,['c'],1,left,['1'],6,0.5003655000000435,0.4,0,FastFast,2,17,Woman,Right,
15,4,1,1.234596700000111,['n'],0,left,['9'],2,1.7169254999998884,0.4,0,FastFast,2,17,Woman,Right,
16,4,1,0.7329199000005246,['n'],1,right,['1'],6,1.150599799999327,0.2,0,FastFast,2,17,Woman,Right,
17,4,1,0.8993234999998094,['n'],1,right,['1'],6,0.5009201000002577,0.4,0,FastFast,2,17,Woman,Right,
18,4,1,0.767260300000089,['n'],1,right,['1'],6,0.8012312999999267,0.4,0,FastFast,2,17,Woman,Right,
19,4,1,1.8005677000001015,['n'],0,left,['9'],2,1.467316700000083,0.2,0,FastFast,2,17,Woman,Right,
20,4,1,1.4004435999995621,['c'],1,left,['2'],5,1.31736169999931,0.2,0,FastFast,2,17,Woman,Right,
21,4,1,1.1663233999997829,['n'],0,left,['9'],2,1.2666174999994837,0.2,0,FastFast,2,17,Woman,Right,
22,4,1,0.6173181999993176,['n'],1,right,['1'],6,0.7842765000004874,0.2,0,FastFast,2,17,Woman,Right,
23,4,1,0.7169370000001436,['n'],1,right,['1'],6,0.5001462000000174,0.4,0,FastFast,2,17,Woman,Right,
24,4,1,0.6000140000005558,['n'],1,right,['1'],6,0.434201099999882,0.4,0,FastFast,2,17,Woman,Right,
25,4,1,0.8667967000001227,['c'],0,right,['3'],4,1.4341061999994054,0.1,0,FastFast,2,17,Woman,Right,
26,4,1,0.6995896999997058,['c'],1,left,['2'],5,0.7675164000002042,0.4,0,FastFast,2,17,Woman,Right,
27,4,1,0.9335158000003503,['n'],0,left,['9'],2,1.1840089000006628,0.1,0,FastFast,2,17,Woman,Right,
28,4,1,0.7834644999993543,['n'],1,right,['2'],5,0.834390699999858,0.1,0,FastFast,2,17,Woman,Right,
29,4,1,0.683237399999598,['n'],1,right,['2'],5,1.5173437000003105,0.2,0,FastFast,2,17,Woman,Right,
30,4,1,0.7665510999995604,['n'],1,right,['1'],6,0.5837891999999556,0.4,0,FastFast,2,17,Woman,Right,
31,4,1,0.7835153000005448,['n'],1,right,['9'],2,0.9338125999993281,0.1,0,FastFast,2,17,Woman,Right,
32,4,1,0.7505760999993072,['n'],1,right,['2'],5,0.7836223000003883,0.2,0,FastFast,2,17,Woman,Right,
33,4,1,0.9338799999986804,['n'],0,left,['9'],2,0.6841012999993836,0.1,0,FastFast,2,17,Woman,Right,
34,4,1,1.1499542000001384,['n'],0,left,['9'],2,0.6840587999995478,0.1,0,FastFast,2,17,Woman,Right,
35,4,1,1.0332574999993085,['c'],1,left,['2'],5,1.4674116999995022,0.2,0,FastFast,2,17,Woman,Right,
36,4,1,0.8179624000003969,['c'],1,left,['9'],2,0.9510955999994621,0.1,0,FastFast,2,17,Woman,Right,
37,4,1,0.9505201000010857,['c'],1,left,['1'],6,0.6509634000012738,0.4,0,FastFast,2,17,Woman,Right,
38,4,1,0.7500954000006459,['n'],1,right,['1'],6,1.0508004999992409,0.2,0,FastFast,2,17,Woman,Right,
39,4,1,0.6664591999997356,['c'],1,left,['1'],6,0.7007756000002701,0.4,0,FastFast,2,17,Woman,Right,
40,4,1,0.48319289999926696,['n'],1,right,['1'],6,0.6159776000004058,0.2,0,FastFast,2,17,Woman,Right,
41,4,1,0.6662189999988186,['c'],1,left,['9'],2,0.9173176000003878,0.1,0,FastFast,2,17,Woman,Right,
42,4,1,0.8665239000001748,['n'],1,right,['1'],6,0.9010058999992907,0.1,0,FastFast,2,17,Woman,Right,
43,4,1,0.7168000999990909,['n'],1,right,['1'],6,0.6171885000003385,0.2,0,FastFast,2,17,Woman,Right,
44,4,1,0.9327921999993123,['n'],1,right,['2'],5,1.117830999999569,0.1,0,FastFast,2,17,Woman,Right,
45,4,1,1.0492818000002444,['n'],1,right,['2'],5,0.6832815999987361,0.2,0,FastFast,2,17,Woman,Right,
46,4,1,0.5507429999997839,['n'],1,right,['2'],5,0.6345634999997856,0.2,0,FastFast,2,17,Woman,Right,
47,4,1,0.8332534999990457,['n'],1,right,['2'],5,0.5175015999993775,0.1,0,FastFast,2,17,Woman,Right,
48,4,1,0.8508701000009751,['n'],0,left,['0'],1,1.1007226000001538,0.2,0,FastFast,2,17,Woman,Right,
49,4,1,1.0993896999989374,['n'],0,left,['0'],1,1.4174839000006614,0.4,0,FastFast,2,17,Woman,Right,
50,4,1,1.1169527000001835,['n'],1,right,['1'],6,0.6009667999987869,0.4,0,FastFast,2,17,Woman,Right,
51,4,1,0.9337387000014132,['n'],1,right,['1'],6,0.5176123999990523,0.2,0,FastFast,2,17,Woman,Right,
52,4,1,0.6163519000001543,['n'],1,right,['1'],6,0.451113200000691,0.4,0,FastFast,2,17,Woman,Right,
53,4,1,1.483629899999869,['n'],0,left,['0'],1,1.4175089000000298,0.1,0,FastFast,2,17,Woman,Right,
54,4,1,0.7996882000006735,['n'],1,right,['1'],6,0.5507555999993201,0.2,0,FastFast,2,17,Woman,Right,
55,4,1,0.9170353999998042,['n'],0,left,['0'],1,1.9346288999986427,0.4,0,FastFast,2,17,Woman,Right,
56,4,1,0.6504068000012921,['n'],1,right,['1'],6,0.6013860000002751,0.4,0,FastFast,2,17,Woman,Right,
57,4,1,0.9674098000014055,['n'],0,left,['9'],2,0.9845879000004061,0.1,0,FastFast,2,17,Woman,Right,
58,4,1,0.6336845000005269,['c'],1,left,['1'],6,0.583886700000221,0.4,0,FastFast,2,17,Woman,Right,
59,4,1,1.0169267000001128,['n'],0,left,['9'],2,1.6175428999995347,0.2,0,FastFast,2,17,Woman,Right,
0,5,1,2.1834445000004052,['n'],1,right,['1'],6,2.5674371999994037,0.2,0,AccFast,2,17,Woman,Right,
1,5,1,5.015897700001005,x,-99,left,none,-99,-99,0.1,1,AccFast,2,17,Woman,Right,
2,5,1,1.2160059999987425,['c'],1,left,['1'],6,0.8344781999985571,0.4,0,AccFast,2,17,Woman,Right,
3,5,1,2.4333418999995047,['n'],0,left,['2'],5,1.501023199998599,0.2,0,AccFast,2,17,Woman,Right,
4,5,1,1.366996900000231,['n'],1,right,['1'],6,0.6339299999999639,0.2,0,AccFast,2,17,Woman,Right,
5,5,1,1.583092699998815,['n'],1,right,['1'],6,0.6999162000010983,0.2,0,AccFast,2,17,Woman,Right,
6,5,1,3.08288839999841,['c'],0,right,['2'],5,1.8175057000007655,0.1,0,AccFast,2,17,Woman,Right,
7,5,1,1.7494415000001027,['n'],1,right,['2'],5,0.9172835999997915,0.1,0,AccFast,2,17,Woman,Right,
8,5,1,3.517063200000848,['n'],0,left,['0'],1,2.4005539000008866,0.2,0,AccFast,2,17,Woman,Right,
9,5,1,2.051056199999948,['c'],1,left,['1'],6,1.2336390000000392,0.2,0,AccFast,2,17,Woman,Right,
10,5,1,0.7991052999987005,['n'],1,right,['1'],6,0.8005552000013267,0.4,0,AccFast,2,17,Woman,Right,
11,5,1,3.1012349000011454,['c'],1,left,['2'],5,0.9679087000004074,0.2,0,AccFast,2,17,Woman,Right,
12,5,1,1.517018199998347,['c'],1,left,['1'],6,0.6677926000011212,0.4,0,AccFast,2,17,Woman,Right,
13,5,1,0.6329480999993393,['n'],1,right,['1'],6,0.583868400000938,0.4,0,AccFast,2,17,Woman,Right,
14,5,1,3.9996740000005957,['n'],1,right,['2'],5,0.8505600999997114,0.1,0,AccFast,2,17,Woman,Right,
15,5,1,3.4994683000004443,['c'],1,left,['2'],5,0.7841362999988633,0.1,0,AccFast,2,17,Woman,Right,
16,5,1,1.2162487999994482,['c'],1,left,['2'],5,1.117543400001523,0.2,0,AccFast,2,17,Woman,Right,
17,5,1,2.332566000000952,['c'],1,left,['2'],5,0.6676384000002145,0.1,0,AccFast,2,17,Woman,Right,
18,5,1,1.4995560999996087,['c'],1,left,['2'],5,0.6174749999991036,0.1,0,AccFast,2,17,Woman,Right,
19,5,1,1.6012018999990687,['n'],1,right,['1'],6,0.6497177999990527,0.2,0,AccFast,2,17,Woman,Right,
20,5,1,0.7510615999999573,['c'],1,left,['2'],5,0.9845569999997679,0.4,0,AccFast,2,17,Woman,Right,
21,5,1,3.749632899998687,['c'],1,left,['2'],5,0.7178397000006953,0.1,0,AccFast,2,17,Woman,Right,
22,5,1,2.2829603999998653,['n'],1,right,['2'],5,1.067514200000005,0.1,0,AccFast,2,17,Woman,Right,
23,5,1,0.7333530000014434,['n'],1,right,['1'],6,0.5839330999988306,0.4,0,AccFast,2,17,Woman,Right,
24,5,1,0.6502190999999584,['n'],1,right,['1'],6,0.41780560000006517,0.4,0,AccFast,2,17,Woman,Right,
25,5,1,0.9659305000004679,['n'],1,right,['1'],6,0.7509405999990122,0.2,0,AccFast,2,17,Woman,Right,
26,5,1,0.650059899999178,['n'],1,right,['1'],6,0.5341917999994621,0.2,0,AccFast,2,17,Woman,Right,
27,5,1,1.1671205999991798,['n'],1,right,['1'],6,0.4826621000011073,0.4,0,AccFast,2,17,Woman,Right,
28,5,1,0.7506391999995685,['c'],1,left,['1'],6,0.6011500000004162,0.4,0,AccFast,2,17,Woman,Right,
29,5,1,2.533666199999061,['n'],1,right,['2'],5,0.816909699999087,0.1,0,AccFast,2,17,Woman,Right,
30,5,1,1.7001674000002822,['n'],0,left,['2'],5,0.6000667999996949,0.2,0,AccFast,2,17,Woman,Right,
31,5,1,2.333121800000299,['n'],0,left,['2'],5,0.7176873000007618,0.1,0,AccFast,2,17,Woman,Right,
32,5,1,1.2337435999997979,['n'],1,right,['2'],5,1.334621399999378,0.1,0,AccFast,2,17,Woman,Right,
33,5,1,0.9167622000004485,['n'],1,right,['1'],6,0.5346506999994745,0.4,0,AccFast,2,17,Woman,Right,
34,5,1,0.7333438000005117,['n'],1,right,['2'],5,0.7340669999994134,0.2,0,AccFast,2,17,Woman,Right,
35,5,1,2.2997028999998292,['n'],1,right,['2'],5,1.150994500001616,0.1,0,AccFast,2,17,Woman,Right,
36,5,1,0.6177862000004097,['n'],1,right,['1'],6,0.7504796000011993,0.4,0,AccFast,2,17,Woman,Right,
37,5,1,3.8500491000013426,['n'],0,left,['2'],5,0.8511250999999902,0.1,0,AccFast,2,17,Woman,Right,
38,5,1,0.9490666000001511,['n'],1,right,['1'],6,0.5679111999997986,0.4,0,AccFast,2,17,Woman,Right,
39,5,1,2.6826180999996723,['c'],0,right,['2'],5,1.2344214000004285,0.1,0,AccFast,2,17,Woman,Right,
40,5,1,0.6831545999993978,['c'],1,left,['1'],6,0.6675700999985565,0.4,0,AccFast,2,17,Woman,Right,
41,5,1,1.4502594000005047,['c'],1,left,['1'],6,0.7342902999989747,0.2,0,AccFast,2,17,Woman,Right,
42,5,1,0.783640399999058,['n'],1,right,['1'],6,0.4009124000003794,0.4,0,AccFast,2,17,Woman,Right,
43,5,1,0.9178279000007024,['c'],1,left,['1'],6,0.4674199999990378,0.1,0,AccFast,2,17,Woman,Right,
44,5,1,2.016501899999639,['c'],1,left,['1'],6,0.6177692999990541,0.4,0,AccFast,2,17,Woman,Right,
45,5,1,0.9331521999993129,['n'],1,right,['1'],6,0.6008751999997912,0.2,0,AccFast,2,17,Woman,Right,
46,5,1,0.8164326999994955,['c'],1,left,['1'],6,0.5002342999996472,0.2,0,AccFast,2,17,Woman,Right,
47,5,1,3.1332058000007237,['c'],1,left,['2'],5,1.0008053000001382,0.1,0,AccFast,2,17,Woman,Right,
48,5,1,0.7516508000007889,['c'],1,left,['1'],6,0.6343476000001829,0.4,0,AccFast,2,17,Woman,Right,
49,5,1,2.8172547000012855,['c'],1,left,['2'],5,1.018015600000581,0.2,0,AccFast,2,17,Woman,Right,
50,5,1,3.350140900000042,['n'],1,right,['2'],5,1.167653500000597,0.1,0,AccFast,2,17,Woman,Right,
51,5,1,1.6663599999992584,['c'],1,left,['2'],5,0.7169172000012622,0.2,0,AccFast,2,17,Woman,Right,
52,5,1,0.9166805000004388,['n'],1,right,['1'],6,0.8007145999999921,0.2,0,AccFast,2,17,Woman,Right,
53,5,1,3.9164099999998143,['n'],0,left,['2'],5,1.0005290000008245,0.1,0,AccFast,2,17,Woman,Right,
54,5,1,3.1165246999989904,['n'],1,right,['2'],5,1.5845176000002539,0.1,0,AccFast,2,17,Woman,Right,
55,5,1,0.7668033999998443,['n'],1,right,['1'],6,0.8174459000001661,0.4,0,AccFast,2,17,Woman,Right,
56,5,1,1.3155960000003688,['c'],1,left,['2'],5,1.4005992000002152,0.4,0,AccFast,2,17,Woman,Right,
57,5,1,4.883456899999146,['c'],1,left,['2'],5,1.1178658999997424,0.2,0,AccFast,2,17,Woman,Right,
58,5,1,4.38330599999972,['n'],0,left,['9'],2,1.716171199999735,0.4,0,AccFast,2,17,Woman,Right,
59,5,1,1.250350399999661,['c'],0,right,['1'],6,0.38453999999910593,0.4,0,AccFast,2,17,Woman,Right,
0,6,1,3.482334800000899,['c'],1,left,['3'],4,4.966564899999867,0.4,0,AccAcc,2,17,Woman,Right,
1,6,1,2.2501338999991276,['n'],1,right,['2'],5,1.9340503999992507,0.2,0,AccAcc,2,17,Woman,Right,
2,6,1,1.2171961999993073,['n'],1,right,['1'],6,0.40084249999927124,0.2,0,AccAcc,2,17,Woman,Right,
3,6,1,3.9334782999994786,['n'],0,left,['3'],4,1.1177988999988884,0.2,0,AccAcc,2,17,Woman,Right,
4,6,1,1.415468700000929,['n'],1,right,['1'],6,0.6343627000005654,0.4,0,AccAcc,2,17,Woman,Right,
5,6,1,5.016315299999405,x,-99,right,none,-99,-99,0.1,1,AccAcc,2,17,Woman,Right,
6,6,1,2.633344300000317,['c'],1,left,['2'],5,1.934420699999464,0.4,0,AccAcc,2,17,Woman,Right,
7,6,1,3.1335148999987723,['n'],0,left,['2'],5,1.8508512000007613,0.4,0,AccAcc,2,17,Woman,Right,
8,6,1,4.134517600001345,['n'],0,left,['9'],2,1.3007476000002498,0.2,0,AccAcc,2,17,Woman,Right,
9,6,1,4.266647899999953,['c'],1,left,['3'],4,1.1512715999997454,0.2,0,AccAcc,2,17,Woman,Right,
10,6,1,0.9663635000015347,['n'],1,right,['1'],6,0.6679198000001634,0.4,0,AccAcc,2,17,Woman,Right,
11,6,1,2.816857499999969,['n'],0,left,['3'],4,3.517902100000356,0.2,0,AccAcc,2,17,Woman,Right,
12,6,1,3.2501558999992994,['n'],0,left,['3'],4,0.6173149999995076,0.2,0,AccAcc,2,17,Woman,Right,
13,6,1,2.2662135000009584,['c'],1,left,['3'],4,0.9507857000007789,0.4,0,AccAcc,2,17,Woman,Right,
14,6,1,1.3999876999987464,['n'],1,right,['3'],4,1.7677684999998746,0.2,0,AccAcc,2,17,Woman,Right,
15,6,1,2.6161955000006856,['n'],1,right,['3'],4,1.4675479000015912,0.1,0,AccAcc,2,17,Woman,Right,
16,6,1,1.2498933000006218,['n'],1,right,['1'],6,0.6180650000005699,0.2,0,AccAcc,2,17,Woman,Right,
17,6,1,0.8333564999993541,['n'],1,right,['1'],6,0.6678630999995221,0.4,0,AccAcc,2,17,Woman,Right,
18,6,1,4.699444600000788,['n'],0,left,['0'],1,2.36740429999918,0.1,0,AccAcc,2,17,Woman,Right,
19,6,1,2.8674018000001524,['n'],1,right,['2'],5,0.8504259000001184,0.1,0,AccAcc,2,17,Woman,Right,
20,6,1,1.4663693999991665,['n'],1,right,['1'],6,0.6341026999998576,0.4,0,AccAcc,2,17,Woman,Right,
21,6,1,1.1343457000002672,['c'],1,left,['1'],6,0.6174023999992642,0.1,0,AccAcc,2,17,Woman,Right,
22,6,1,1.1162273999998433,['n'],1,right,['1'],6,0.6013323999995919,0.4,0,AccAcc,2,17,Woman,Right,
23,6,1,4.300152900001194,['c'],1,left,['9'],2,1.2171584999996412,0.1,0,AccAcc,2,17,Woman,Right,
24,6,1,3.566378800000166,['c'],1,left,['9'],2,1.2006392999992386,0.1,0,AccAcc,2,17,Woman,Right,
25,6,1,1.5166255999993155,['n'],1,right,['2'],5,2.234627800000453,0.2,0,AccAcc,2,17,Woman,Right,
26,6,1,1.0494842999996763,['n'],1,right,['1'],6,0.6510873999995965,0.4,0,AccAcc,2,17,Woman,Right,
27,6,1,3.632646300000488,['n'],1,right,['2'],5,1.5170398999998724,0.1,0,AccAcc,2,17,Woman,Right,
28,6,1,1.6507110000002285,['c'],1,left,['2'],5,0.6840862999997626,0.4,0,AccAcc,2,17,Woman,Right,
29,6,1,1.783329700001559,['c'],1,left,['2'],5,0.7828490000010788,0.1,0,AccAcc,2,17,Woman,Right,
30,6,1,1.916956000000937,['n'],1,right,['2'],5,1.7338623000014195,0.4,0,AccAcc,2,17,Woman,Right,
31,6,1,4.2322096999996575,['n'],1,right,['3'],4,2.0179617999983748,0.1,0,AccAcc,2,17,Woman,Right,
32,6,1,5.000174000000698,x,-99,left,none,-99,-99,0.1,1,AccAcc,2,17,Woman,Right,
33,6,1,4.083212399998956,['c'],1,left,['9'],2,2.883713600000192,0.4,0,AccAcc,2,17,Woman,Right,
34,6,1,3.9844013000001723,['c'],1,left,['3'],4,1.1504624000008334,0.2,0,AccAcc,2,17,Woman,Right,
35,6,1,2.8830638000017643,['n'],0,left,['3'],4,1.567769400000543,0.1,0,AccAcc,2,17,Woman,Right,
36,6,1,1.8009861999998975,['n'],1,right,['1'],6,0.8673300999998901,0.2,0,AccAcc,2,17,Woman,Right,
37,6,1,1.600831499999913,['n'],1,right,['1'],6,0.6340667000004032,0.4,0,AccAcc,2,17,Woman,Right,
38,6,1,1.1837086999985331,['n'],1,right,['1'],6,0.7010964000000968,0.2,0,AccAcc,2,17,Woman,Right,
39,6,1,2.666841600001135,['c'],1,left,['3'],4,1.6008984000000055,0.1,0,AccAcc,2,17,Woman,Right,
40,6,1,0.7670684999993682,['n'],1,right,['1'],6,0.6010947999984637,0.4,0,AccAcc,2,17,Woman,Right,
41,6,1,0.6167571999994834,['n'],1,right,['1'],6,0.6344484999990527,0.4,0,AccAcc,2,17,Woman,Right,
42,6,1,4.699465900001087,['n'],1,right,['8'],3,1.5344540000005509,0.1,0,AccAcc,2,17,Woman,Right,
43,6,1,1.7996067000003677,['n'],1,right,['2'],5,0.7506174000009196,0.2,0,AccAcc,2,17,Woman,Right,
44,6,1,3.7833176999993157,['c'],1,left,['8'],3,1.2841883000000962,0.2,0,AccAcc,2,17,Woman,Right,
45,6,1,5.016354900000806,x,-99,left,none,-99,-99,0.2,1,AccAcc,2,17,Woman,Right,
46,6,1,2.065964299999905,['c'],1,left,['2'],5,0.8005500999988726,0.1,0,AccAcc,2,17,Woman,Right,
47,6,1,2.366683700000067,['c'],1,left,['3'],4,1.7843009999996866,0.4,0,AccAcc,2,17,Woman,Right,
48,6,1,2.933075300001292,['c'],1,left,['3'],4,1.5843948000001546,0.2,0,AccAcc,2,17,Woman,Right,
49,6,1,1.7495017999990523,['n'],1,right,['2'],5,0.8506449999986216,0.1,0,AccAcc,2,17,Woman,Right,
50,6,1,0.5831536000005144,['n'],1,right,['1'],6,0.5675742999992508,0.4,0,AccAcc,2,17,Woman,Right,
51,6,1,3.1005731000004744,['c'],1,left,['8'],3,1.2340953999992053,0.1,0,AccAcc,2,17,Woman,Right,
52,6,1,4.416652500000055,['c'],1,left,['3'],4,0.9015567000005831,0.1,0,AccAcc,2,17,Woman,Right,
53,6,1,0.8326496999998199,['n'],1,right,['2'],5,1.1341904000000795,0.2,0,AccAcc,2,17,Woman,Right,
54,6,1,2.4675181999991764,['n'],0,left,['3'],4,2.5502350000006118,0.1,0,AccAcc,2,17,Woman,Right,
55,6,1,0.6838253000005352,['n'],1,right,['2'],5,0.6509860999994999,0.1,0,AccAcc,2,17,Woman,Right,
56,6,1,0.7168439999986731,['n'],1,right,['1'],6,0.6347163000009459,0.4,0,AccAcc,2,17,Woman,Right,
57,6,1,1.766872099999091,['c'],1,left,['1'],6,0.9010925000002317,0.2,0,AccAcc,2,17,Woman,Right,
58,6,1,3.416814499998509,['c'],1,left,['8'],3,1.4011098999999376,0.2,0,AccAcc,2,17,Woman,Right,
59,6,1,0.7169633000012254,['n'],1,right,['1'],6,0.584149599999364,0.4,0,AccAcc,2,17,Woman,Right,
0,7,1,0.5679768999998487,['c'],1,left,['2'],5,1.8004829000001337,0.4,0,FastAcc,2,17,Woman,Right,
1,7,1,0.6501449999996112,['n'],0,left,['9'],2,2.717079799998828,0.2,0,FastAcc,2,17,Woman,Right,
2,7,1,0.533683600000586,['n'],1,right,['1'],6,0.6173050000015792,0.4,0,FastAcc,2,17,Woman,Right,
3,7,1,0.5342829999990499,['n'],1,right,['1'],6,0.6005824000003486,0.4,0,FastAcc,2,17,Woman,Right,
4,7,1,2.3988172999997914,['c'],1,left,['8'],3,2.7506429999993998,0.1,0,FastAcc,2,17,Woman,Right,
5,7,1,1.0503614999997808,['c'],1,left,['9'],2,2.1512326000010944,0.2,0,FastAcc,2,17,Woman,Right,
6,7,1,0.7007018999993306,['n'],0,left,['3'],4,4.5669228000006115,0.1,0,FastAcc,2,17,Woman,Right,
7,7,1,1.9839783999996143,['c'],1,left,['9'],2,1.5345632999997179,0.2,0,FastAcc,2,17,Woman,Right,
8,7,1,0.5654331999994611,['c'],1,left,['1'],6,0.9343841999998403,0.4,0,FastAcc,2,17,Woman,Right,
9,7,1,0.4997397000006458,['n'],1,right,['1'],6,0.5834558000005927,0.4,0,FastAcc,2,17,Woman,Right,
10,7,1,1.1840492999999697,['c'],1,left,['3'],4,1.417401200000313,0.1,0,FastAcc,2,17,Woman,Right,
11,7,1,0.532889600000999,['n'],1,right,['1'],6,0.6512520000014774,0.2,0,FastAcc,2,17,Woman,Right,
12,7,1,1.34981229999903,['c'],1,left,['9'],2,2.6836006000012276,0.2,0,FastAcc,2,17,Woman,Right,
13,7,1,0.4505610999985947,['n'],1,right,['2'],5,1.367390699999305,0.2,0,FastAcc,2,17,Woman,Right,
14,7,1,0.8500669000004564,['n'],1,right,['3'],4,1.4336165000004257,0.1,0,FastAcc,2,17,Woman,Right,
15,7,1,0.48378020000018296,['c'],0,right,['0'],1,1.333871500000896,0.4,0,FastAcc,2,17,Woman,Right,
16,7,1,1.332901599998877,['n'],0,left,['9'],2,1.3346261999995477,0.1,0,FastAcc,2,17,Woman,Right,
17,7,1,0.5503011000000697,['n'],1,right,['1'],6,0.684421799998745,0.4,0,FastAcc,2,17,Woman,Right,
18,7,1,1.0502918000001955,['n'],1,right,['2'],5,2.334321099999215,0.1,0,FastAcc,2,17,Woman,Right,
19,7,1,1.1674171999984537,['n'],1,right,['8'],3,1.5503786000008404,0.1,0,FastAcc,2,17,Woman,Right,
20,7,1,1.3329871000005369,['c'],1,left,['3'],4,0.8843241999984457,0.2,0,FastAcc,2,17,Woman,Right,
21,7,1,0.5165118999993865,['n'],1,right,['1'],6,0.6171931999997469,0.4,0,FastAcc,2,17,Woman,Right,
22,7,1,1.282608400000754,['n'],1,right,['8'],3,1.5165814999982103,0.2,0,FastAcc,2,17,Woman,Right,
23,7,1,0.5834276999994472,['n'],1,right,['2'],5,1.251062200000888,0.2,0,FastAcc,2,17,Woman,Right,
24,7,1,1.316194600000017,['c'],1,left,['3'],4,1.5006610000000364,0.2,0,FastAcc,2,17,Woman,Right,
25,7,1,0.5334277000001748,['n'],1,right,['2'],5,1.266578099999606,0.1,0,FastAcc,2,17,Woman,Right,
26,7,1,0.5672536000001855,['n'],0,left,['2'],5,1.2509565000000293,0.1,0,FastAcc,2,17,Woman,Right,
27,7,1,1.217182899999898,['c'],1,left,['3'],4,2.0006186999999045,0.2,0,FastAcc,2,17,Woman,Right,
28,7,1,0.6674581999996008,['n'],0,left,['3'],4,1.400760900000023,0.2,0,FastAcc,2,17,Woman,Right,
29,7,1,1.0168907999996009,['n'],1,right,['3'],4,2.884470400000282,0.1,0,FastAcc,2,17,Woman,Right,
30,7,1,0.7170165999996243,['n'],0,left,['3'],4,3.367764399999942,0.2,0,FastAcc,2,17,Woman,Right,
31,7,1,1.0492502999986755,['n'],1,right,['1'],6,0.7343498999998701,0.4,0,FastAcc,2,17,Woman,Right,
32,7,1,0.8835469000005105,['n'],1,right,['3'],4,2.2511233000004722,0.1,0,FastAcc,2,17,Woman,Right,
33,7,1,2.5662823999991815,['n'],1,right,['3'],4,2.517533399999593,0.1,0,FastAcc,2,17,Woman,Right,
34,7,1,0.8835739999994985,['c'],1,left,['0'],1,2.2510057000017696,0.2,0,FastAcc,2,17,Woman,Right,
35,7,1,0.7164599999996426,['n'],1,right,['3'],4,1.1677417999999307,0.1,0,FastAcc,2,17,Woman,Right,
36,7,1,0.6159881999992649,['c'],1,left,['1'],6,0.7839843000001565,0.4,0,FastAcc,2,17,Woman,Right,
37,7,1,1.2997976999995444,['n'],0,left,['9'],2,1.2506018000003678,0.2,0,FastAcc,2,17,Woman,Right,
38,7,1,0.5999020999988716,['n'],0,left,['9'],2,1.0011567999990802,0.1,0,FastAcc,2,17,Woman,Right,
39,7,1,0.5840989999996964,['n'],1,right,['2'],5,2.817582699999548,0.1,0,FastAcc,2,17,Woman,Right,
40,7,1,0.6165564000002632,['n'],1,right,['1'],6,0.683993399999963,0.1,0,FastAcc,2,17,Woman,Right,
41,7,1,2.0670171000001574,['n'],0,left,['8'],3,1.3833088999999745,0.2,0,FastAcc,2,17,Woman,Right,
42,7,1,0.49978490000103193,['n'],1,right,['1'],6,0.7174673999998049,0.4,0,FastAcc,2,17,Woman,Right,
43,7,1,0.5326832000009745,['n'],1,right,['1'],6,0.6172441999988223,0.2,0,FastAcc,2,17,Woman,Right,
44,7,1,0.6837777999990067,['n'],0,left,['1'],6,0.5004600000011123,0.1,0,FastAcc,2,17,Woman,Right,
45,7,1,0.6667761000007886,['n'],1,right,['1'],6,0.617676300000312,0.4,0,FastAcc,2,17,Woman,Right,
46,7,1,0.6829774999987421,['n'],0,left,['1'],6,0.6842355000007956,0.4,0,FastAcc,2,17,Woman,Right,
47,7,1,0.5492043999984162,['n'],1,right,['1'],6,0.6505598999992799,0.4,0,FastAcc,2,17,Woman,Right,
48,7,1,1.383001999998669,['n'],1,right,['3'],4,3.2836127999999007,0.1,0,FastAcc,2,17,Woman,Right,
49,7,1,0.5661577000009856,['n'],1,right,['1'],6,2.917555399999401,0.4,0,FastAcc,2,17,Woman,Right,
50,7,1,0.6501597000005859,['c'],1,left,['2'],5,2.649948199999926,0.4,0,FastAcc,2,17,Woman,Right,
51,7,1,0.7663446999995358,['n'],0,left,['2'],5,2.600842100000591,0.4,0,FastAcc,2,17,Woman,Right,
52,7,1,0.7999938000011753,['n'],1,right,['2'],5,0.9842552999998588,0.2,0,FastAcc,2,17,Woman,Right,
53,7,1,0.9323839000007865,['n'],0,left,['2'],5,1.167243400001098,0.4,0,FastAcc,2,17,Woman,Right,
54,7,1,0.6160781000016868,['n'],1,right,['2'],5,0.8012796999992133,0.1,0,FastAcc,2,17,Woman,Right,
55,7,1,0.7162755999997898,['n'],0,left,['2'],5,0.7511418999984016,0.2,0,FastAcc,2,17,Woman,Right,
56,7,1,0.7000134000008984,['n'],0,left,['3'],4,0.6677116000009846,0.2,0,FastAcc,2,17,Woman,Right,
57,7,1,0.8838185999993584,['n'],1,right,['1'],6,0.8004066000012244,0.4,0,FastAcc,2,17,Woman,Right,
58,7,1,1.1994391000007454,['c'],1,left,['2'],5,1.2675431999996363,0.4,0,FastAcc,2,17,Woman,Right,
59,7,1,2.7168449999990116,['n'],0,left,['9'],2,1.100783900001261,0.1,0,FastAcc,2,17,Woman,Right,
0,8,1,0.6999627999994118,['n'],0,left,['8'],3,2.3673294999989594,0.2,0,FastFast,2,17,Woman,Right,
1,8,1,0.8675029000005452,['n'],1,right,['1'],6,0.6008412999999564,0.4,0,FastFast,2,17,Woman,Right,
2,8,1,0.5508129999998346,['n'],1,right,['1'],6,0.4675368000007438,0.4,0,FastFast,2,17,Woman,Right,
3,8,1,0.7328058999992209,['n'],1,right,['2'],5,0.967902000000322,0.1,0,FastFast,2,17,Woman,Right,
4,8,1,0.5839078000008158,['n'],1,right,['1'],6,0.6171746999989409,0.4,0,FastFast,2,17,Woman,Right,
5,8,1,0.6992287999983091,['c'],1,left,['1'],6,0.7669389999991836,0.2,0,FastFast,2,17,Woman,Right,
6,8,1,0.6830119000005652,['n'],0,left,['3'],4,0.9837545999998838,0.1,0,FastFast,2,17,Woman,Right,
7,8,1,0.7002709999997023,['n'],1,right,['2'],5,0.7670832000003429,0.2,0,FastFast,2,17,Woman,Right,
8,8,1,0.7842307000009896,['n'],1,right,['2'],5,0.7014080999997532,0.1,0,FastFast,2,17,Woman,Right,
9,8,1,0.6667552999988402,['c'],1,left,['2'],5,0.63413539999965,0.4,0,FastFast,2,17,Woman,Right,
10,8,1,0.5344277000003785,['n'],1,right,['1'],6,0.5176443999989715,0.1,0,FastFast,2,17,Woman,Right,
11,8,1,0.7000504999996338,['n'],1,right,['1'],6,0.8344215999986773,0.2,0,FastFast,2,17,Woman,Right,
12,8,1,0.4829758999985643,['c'],1,left,['2'],5,0.650554200001352,0.2,0,FastFast,2,17,Woman,Right,
13,8,1,0.4840509999994538,['n'],1,right,['1'],6,0.7160972000001493,0.4,0,FastFast,2,17,Woman,Right,
14,8,1,0.6169165999999677,['n'],1,right,['1'],6,0.5010775000009744,0.4,0,FastFast,2,17,Woman,Right,
15,8,1,0.7001861999997345,['c'],1,left,['1'],6,0.6346570999994583,0.4,0,FastFast,2,17,Woman,Right,
16,8,1,0.5172228999999788,['n'],0,left,['1'],6,0.6010326999985409,0.2,0,FastFast,2,17,Woman,Right,
17,8,1,0.5666266999996878,['n'],1,right,['1'],6,0.6174752000006265,0.4,0,FastFast,2,17,Woman,Right,
18,8,1,0.4495378999999957,['n'],1,right,['1'],6,0.5844639000006282,0.4,0,FastFast,2,17,Woman,Right,
19,8,1,0.46685710000019753,['c'],1,left,['1'],6,0.617423300000155,0.1,0,FastFast,2,17,Woman,Right,
20,8,1,0.36604020000049786,['n'],0,left,['0'],1,1.4506784999994125,0.2,0,FastFast,2,17,Woman,Right,
21,8,1,0.717418500000349,['n'],0,left,['8'],3,1.001227500000823,0.1,0,FastFast,2,17,Woman,Right,
22,8,1,0.5003295999995316,['c'],1,left,['1'],6,0.5841660000005504,0.4,0,FastFast,2,17,Woman,Right,
23,8,1,0.8671623000009276,['n'],0,left,['9'],2,1.1179569000014453,0.1,0,FastFast,2,17,Woman,Right,
24,8,1,0.7662423000001581,['n'],0,left,['9'],2,0.5343568999996933,0.2,0,FastFast,2,17,Woman,Right,
25,8,1,0.5657794999988255,['n'],1,right,['1'],6,0.6841893000000709,0.1,0,FastFast,2,17,Woman,Right,
26,8,1,0.4501263000001927,['c'],1,left,['1'],6,0.6679610999999568,0.4,0,FastFast,2,17,Woman,Right,
27,8,1,0.7503283999994892,['n'],0,left,['9'],2,1.6170691999996052,0.2,0,FastFast,2,17,Woman,Right,
28,8,1,0.5330789999989065,['c'],1,left,['2'],5,1.4342503999996552,0.4,0,FastFast,2,17,Woman,Right,
29,8,1,0.533165500000905,['n'],1,right,['2'],5,1.2506668999994872,0.1,0,FastFast,2,17,Woman,Right,
30,8,1,0.6334267000002001,['n'],1,right,['2'],5,0.6843723000001773,0.1,0,FastFast,2,17,Woman,Right,
31,8,1,1.0831701000006433,['c'],1,left,['8'],3,1.1839029000002483,0.2,0,FastFast,2,17,Woman,Right,
32,8,1,0.7663751000000047,['n'],1,right,['1'],6,0.6510818000006111,0.1,0,FastFast,2,17,Woman,Right,
33,8,1,0.5840050000006158,['c'],1,left,['8'],3,1.1837952000005316,0.2,0,FastFast,2,17,Woman,Right,
34,8,1,0.633005100000446,['c'],1,left,['0'],1,1.484077699999034,0.4,0,FastFast,2,17,Woman,Right,
35,8,1,0.7001266000006581,['n'],1,right,['1'],6,0.6011171999998624,0.2,0,FastFast,2,17,Woman,Right,
36,8,1,0.8997507000003679,['n'],0,left,['1'],6,0.8007355000008829,0.1,0,FastFast,2,17,Woman,Right,
37,8,1,2.0002636999997776,['n'],0,left,['9'],2,1.1501850999993621,0.2,0,FastFast,2,17,Woman,Right,
38,8,1,0.6340188000012859,['n'],1,right,['8'],3,1.1335323000002973,0.1,0,FastFast,2,17,Woman,Right,
39,8,1,1.016945499999565,['n'],1,right,['3'],4,0.6844547000000603,0.1,0,FastFast,2,17,Woman,Right,
40,8,1,0.7828114999992977,['c'],1,left,['2'],5,0.733510699999897,0.4,0,FastFast,2,17,Woman,Right,
41,8,1,0.5997149000013451,['n'],0,left,['2'],5,1.2342164999990928,0.2,0,FastFast,2,17,Woman,Right,
42,8,1,0.6843810999998823,['n'],1,right,['3'],4,0.7505048999992141,0.1,0,FastFast,2,17,Woman,Right,
43,8,1,0.833830500001568,['c'],1,left,['3'],4,0.8336294999990059,0.1,0,FastFast,2,17,Woman,Right,
44,8,1,0.5496344000002864,['n'],1,right,['1'],6,0.5013648999993165,0.4,0,FastFast,2,17,Woman,Right,
45,8,1,1.0005297000006976,['c'],1,left,['3'],4,1.084276100000352,0.1,0,FastFast,2,17,Woman,Right,
46,8,1,0.6675092999994376,['n'],0,left,['3'],4,0.9842303999994328,0.2,0,FastFast,2,17,Woman,Right,
47,8,1,1.0164633999993384,['c'],1,left,['3'],4,2.8677958999996918,0.1,0,FastFast,2,17,Woman,Right,
48,8,1,0.8497891000006348,['n'],1,right,['1'],6,0.4175687000006292,0.2,0,FastFast,2,17,Woman,Right,
49,8,1,0.4844462000000931,['n'],1,right,['1'],6,0.4506419999997888,0.4,0,FastFast,2,17,Woman,Right,
50,8,1,0.5836942000005365,['n'],1,right,['2'],5,0.8840202000010322,0.2,0,FastFast,2,17,Woman,Right,
51,8,1,0.7339300999992702,['n'],1,right,['2'],5,0.6847108999991178,0.1,0,FastFast,2,17,Woman,Right,
52,8,1,0.6507106999997632,['n'],1,right,['2'],5,0.634092000000237,0.1,0,FastFast,2,17,Woman,Right,
53,8,1,0.6006046000002243,['n'],1,right,['2'],5,0.6839441000010993,0.2,0,FastFast,2,17,Woman,Right,
54,8,1,0.6340414999995119,['c'],1,left,['2'],5,0.7504375000007713,0.2,0,FastFast,2,17,Woman,Right,
55,8,1,0.4835347999996884,['n'],1,right,['2'],5,0.6676114999991114,0.4,0,FastFast,2,17,Woman,Right,
56,8,1,0.7501011000003928,['c'],1,left,['2'],5,0.6176930000001448,0.4,0,FastFast,2,17,Woman,Right,
57,8,1,0.865923199999088,['c'],1,left,['9'],2,1.0337889999991603,0.2,0,FastFast,2,17,Woman,Right,
58,8,1,0.6008216999998695,['n'],1,right,['1'],6,1.067658100000699,0.4,0,FastFast,2,17,Woman,Right,
59,8,1,1.267163900000014,['n'],1,right,['1'],6,0.6339373999999225,0.4,0,FastFast,2,17,Woman,Right,
0,9,1,3.200445200000104,['c'],1,left,['9'],2,1.367121399998723,0.4,0,AccFast,2,17,Woman,Right,
1,9,1,1.683357400001114,['n'],1,right,['3'],4,1.0505382000010286,0.1,0,AccFast,2,17,Woman,Right,
2,9,1,1.767000600000756,['n'],0,left,['3'],4,0.7674542999993719,0.1,0,AccFast,2,17,Woman,Right,
3,9,1,0.6834148999987519,['c'],1,left,['2'],5,0.7671643000012409,0.2,0,AccFast,2,17,Woman,Right,
4,9,1,2.2665422999998555,['n'],0,left,['2'],5,1.2675538999992568,0.1,0,AccFast,2,17,Woman,Right,
5,9,1,0.8167106000000786,['n'],1,right,['1'],6,0.4178010000014183,0.4,0,AccFast,2,17,Woman,Right,
6,9,1,1.6840161999989505,['n'],1,right,['2'],5,0.7342312000000675,0.4,0,AccFast,2,17,Woman,Right,
7,9,1,3.0500262000005023,['n'],0,left,['8'],3,1.2178184000003967,0.2,0,AccFast,2,17,Woman,Right,
8,9,1,3.133834399999614,['n'],0,left,['3'],4,1.3170674000011786,0.4,0,AccFast,2,17,Woman,Right,
9,9,1,1.1171499000010954,['n'],0,left,['3'],4,0.6502582000011898,0.2,0,AccFast,2,17,Woman,Right,
10,9,1,1.782554399998844,['n'],0,left,['3'],4,0.7677990999982285,0.1,0,AccFast,2,17,Woman,Right,
11,9,1,0.7004171000007773,['n'],1,right,['3'],4,0.6672476999992796,0.4,0,AccFast,2,17,Woman,Right,
12,9,1,2.816313100000116,['n'],1,right,['8'],3,1.5673911000012595,0.2,0,AccFast,2,17,Woman,Right,
13,9,1,1.1003670999998576,['n'],0,left,['8'],3,1.1339410000000498,0.2,0,AccFast,2,17,Woman,Right,
14,9,1,0.7335586999997759,['n'],1,right,['8'],3,0.4842585999995208,0.1,0,AccFast,2,17,Woman,Right,
15,9,1,0.867301000000225,['n'],0,left,['8'],3,0.8002329999999347,0.1,0,AccFast,2,17,Woman,Right,
16,9,1,0.851530100000673,['c'],1,left,['3'],4,0.9006437999996706,0.4,0,AccFast,2,17,Woman,Right,
17,9,1,1.1821333999996568,['c'],1,left,['1'],6,0.7835185999992973,0.2,0,AccFast,2,17,Woman,Right,
18,9,1,0.5658634999999776,['n'],1,right,['1'],6,0.38376339999922493,0.2,0,AccFast,2,17,Woman,Right,
19,9,1,0.8839917999994213,['n'],1,right,['1'],6,0.5012270999995962,0.2,0,AccFast,2,17,Woman,Right,
20,9,1,3.584254700001111,['n'],0,left,['3'],4,1.2168423999992228,0.2,0,AccFast,2,17,Woman,Right,
21,9,1,1.6165545000003476,['n'],1,right,['8'],3,1.150958599999285,0.2,0,AccFast,2,17,Woman,Right,
22,9,1,0.6004283999991458,['n'],1,right,['1'],6,0.7342337999998563,0.4,0,AccFast,2,17,Woman,Right,
23,9,1,0.7829001999998582,['c'],1,left,['3'],4,0.7835513000009087,0.2,0,AccFast,2,17,Woman,Right,
24,9,1,1.3496205999999802,['n'],0,left,['8'],3,1.400425700001506,0.1,0,AccFast,2,17,Woman,Right,
25,9,1,3.2998225999999704,['n'],1,right,['9'],2,1.3508037999999942,0.1,0,AccFast,2,17,Woman,Right,
26,9,1,2.0161554999995133,['n'],0,left,['9'],2,0.8508790999985649,0.4,0,AccFast,2,17,Woman,Right,
27,9,1,4.716916999999739,['n'],0,left,['9'],2,0.918228900000031,0.1,0,AccFast,2,17,Woman,Right,
28,9,1,1.7496252999990247,['n'],1,right,['8'],3,0.7174572999992961,0.2,0,AccFast,2,17,Woman,Right,
29,9,1,0.8997977999988507,['c'],1,left,['3'],4,0.6011326999996527,0.4,0,AccFast,2,17,Woman,Right,
30,9,1,2.9168934999997873,['c'],1,left,['2'],5,0.8507616999995662,0.4,0,AccFast,2,17,Woman,Right,
31,9,1,1.083276499999556,['n'],1,right,['2'],5,0.6839184999989811,0.2,0,AccFast,2,17,Woman,Right,
32,9,1,0.7501486999990448,['c'],1,left,['3'],4,0.6342256000007183,0.4,0,AccFast,2,17,Woman,Right,
33,9,1,1.466327199999796,['n'],0,left,['3'],4,0.4674742999995942,0.1,0,AccFast,2,17,Woman,Right,
34,9,1,0.5833278999998583,['n'],1,right,['9'],2,1.8678978999996616,0.1,0,AccFast,2,17,Woman,Right,
35,9,1,3.816861200000858,['c'],1,left,['3'],4,0.8341624000004231,0.1,0,AccFast,2,17,Woman,Right,
36,9,1,1.5176672999987204,['n'],1,right,['2'],5,0.5180367999982991,0.2,0,AccFast,2,17,Woman,Right,
37,9,1,3.3665493999997125,['c'],1,left,['2'],5,0.8175367000003462,0.2,0,AccFast,2,17,Woman,Right,
38,9,1,0.9332096999987698,['n'],1,right,['2'],5,1.001569500000187,0.4,0,AccFast,2,17,Woman,Right,
39,9,1,1.5336370000004536,['c'],1,left,['2'],5,0.7511331000005157,0.2,0,AccFast,2,17,Woman,Right,
40,9,1,1.4500662999998895,['c'],1,left,['2'],5,0.8342408999997133,0.1,0,AccFast,2,17,Woman,Right,
41,9,1,1.750413399999161,['n'],1,right,['2'],5,0.917625300000509,0.1,0,AccFast,2,17,Woman,Right,
42,9,1,1.1327032999997755,['c'],1,left,['2'],5,0.5837759000005462,0.4,0,AccFast,2,17,Woman,Right,
43,9,1,1.1999467000005097,['c'],1,left,['1'],6,0.8341314000008424,0.4,0,AccFast,2,17,Woman,Right,
44,9,1,0.8163676000003761,['n'],1,right,['1'],6,0.35108000000036554,0.4,0,AccFast,2,17,Woman,Right,
45,9,1,3.8340368999997736,['n'],1,right,['3'],4,0.8508999999994558,0.2,0,AccFast,2,17,Woman,Right,
46,9,1,1.849804999999833,['c'],0,right,['3'],4,0.6004618999995728,0.1,0,AccFast,2,17,Woman,Right,
47,9,1,0.767053699999451,['n'],1,right,['1'],6,0.38436820000060834,0.4,0,AccFast,2,17,Woman,Right,
48,9,1,1.7164573999998538,['n'],1,right,['2'],5,0.6158204999992449,0.4,0,AccFast,2,17,Woman,Right,
49,9,1,1.3163555000010092,['c'],1,left,['3'],4,2.0008562999992137,0.4,0,AccFast,2,17,Woman,Right,
50,9,1,0.8165191000007326,['n'],1,right,['3'],4,0.701292800000374,0.2,0,AccFast,2,17,Woman,Right,
51,9,1,3.2173335000006773,['n'],1,right,['1'],6,0.6672866000008071,0.1,0,AccFast,2,17,Woman,Right,
52,9,1,0.6838876000001619,['n'],1,right,['1'],6,0.6675643999988097,0.4,0,AccFast,2,17,Woman,Right,
53,9,1,0.7006467999999586,['n'],1,right,['3'],4,0.7338958000000275,0.1,0,AccFast,2,17,Woman,Right,
54,9,1,3.099265299999388,['c'],1,left,['8'],3,0.9510055000009743,0.1,0,AccFast,2,17,Woman,Right,
55,9,1,1.9503406999992876,['n'],0,left,['3'],4,0.6180870999996841,0.1,0,AccFast,2,17,Woman,Right,
56,9,1,1.866920200000095,['n'],1,right,['3'],4,0.8007125000003725,0.2,0,AccFast,2,17,Woman,Right,
57,9,1,0.5172824999990553,['n'],1,right,['1'],6,0.7006345999998302,0.4,0,AccFast,2,17,Woman,Right,
58,9,1,1.000151600001118,['n'],1,right,['1'],6,0.6171639000003779,0.1,0,AccFast,2,17,Woman,Right,
59,9,1,1.1168529000005947,['n'],1,right,['1'],6,0.55087149999963,0.2,0,AccFast,2,17,Woman,Right,
0,10,1,2.599801000000298,['n'],0,left,['8'],3,3.9172557999991113,0.1,0,AccAcc,2,17,Woman,Right,
1,10,1,1.8167537000008451,['n'],1,right,['2'],5,1.0005479000010382,0.2,0,AccAcc,2,17,Woman,Right,
2,10,1,2.283043400000679,['n'],1,right,['3'],4,0.9345369000002393,0.1,0,AccAcc,2,17,Woman,Right,
3,10,1,1.3839208999997936,['n'],1,right,['1'],6,1.1505493000004208,0.4,0,AccAcc,2,17,Woman,Right,
4,10,1,1.4837213000009797,['n'],1,right,['1'],6,0.6679363999992347,0.2,0,AccAcc,2,17,Woman,Right,
5,10,1,3.516697600000043,['c'],1,left,['8'],3,0.8506539999998495,0.2,0,AccAcc,2,17,Woman,Right,
6,10,1,3.684262000000672,['n'],0,left,['8'],3,0.7506186999999045,0.4,0,AccAcc,2,17,Woman,Right,
7,10,1,4.767068299999664,['n'],0,left,['8'],3,0.9672650000011345,0.2,0,AccAcc,2,17,Woman,Right,
8,10,1,1.833431200000632,['n'],1,right,['8'],3,1.6339607999998407,0.1,0,AccAcc,2,17,Woman,Right,
9,10,1,0.6504021000000648,['c'],1,left,['2'],5,0.7007613999994646,0.4,0,AccAcc,2,17,Woman,Right,
10,10,1,2.2161180000002787,['c'],1,left,['8'],3,1.8845401999988098,0.4,0,AccAcc,2,17,Woman,Right,
11,10,1,3.8341252999998687,['n'],1,right,['2'],5,0.8337994999983493,0.2,0,AccAcc,2,17,Woman,Right,
12,10,1,5.016140499999892,x,-99,left,none,-99,-99,0.4,1,AccAcc,2,17,Woman,Right,
13,10,1,1.6842849000004207,['c'],1,left,['3'],4,1.917227100000673,0.4,0,AccAcc,2,17,Woman,Right,
14,10,1,1.4170069000010699,['c'],1,left,['3'],4,1.2005923999986408,0.2,0,AccAcc,2,17,Woman,Right,
15,10,1,2.9506079999991925,['n'],0,left,['3'],4,1.2332365000002028,0.2,0,AccAcc,2,17,Woman,Right,
16,10,1,2.216847499999858,['c'],1,left,['2'],5,2.0671676000001753,0.1,0,AccAcc,2,17,Woman,Right,
17,10,1,2.1840481999988697,['n'],1,right,['2'],5,0.7508257999998023,0.1,0,AccAcc,2,17,Woman,Right,
18,10,1,3.183380800001032,['c'],1,left,['3'],4,1.700701100000515,0.2,0,AccAcc,2,17,Woman,Right,
19,10,1,3.9162640999984433,['c'],1,left,['3'],4,0.9343740999993315,0.4,0,AccAcc,2,17,Woman,Right,
20,10,1,2.4664873000001535,['c'],1,left,['8'],3,0.9679439000010461,0.1,0,AccAcc,2,17,Woman,Right,
21,10,1,2.7665921000007074,['n'],1,right,['2'],5,1.6676389999993262,0.1,0,AccAcc,2,17,Woman,Right,
22,10,1,3.6340057000015804,['c'],1,left,['8'],3,1.4174972000000707,0.1,0,AccAcc,2,17,Woman,Right,
23,10,1,0.9343848999997135,['n'],1,right,['2'],5,0.8508849999998347,0.2,0,AccAcc,2,17,Woman,Right,
24,10,1,3.2675889000001916,['n'],1,right,['3'],4,0.899454299998979,0.2,0,AccAcc,2,17,Woman,Right,
25,10,1,2.699958200000765,['n'],0,left,['3'],4,1.700873199999478,0.1,0,AccAcc,2,17,Woman,Right,
26,10,1,0.7332990999984759,['n'],1,right,['1'],6,0.5008938000009948,0.4,0,AccAcc,2,17,Woman,Right,
27,10,1,0.6174740000005841,['n'],1,right,['1'],6,0.4674352000001818,0.4,0,AccAcc,2,17,Woman,Right,
28,10,1,1.1665118000000803,['c'],1,left,['1'],6,0.7844282999994903,0.4,0,AccAcc,2,17,Woman,Right,
29,10,1,0.6003307999999379,['n'],1,right,['1'],6,0.4839542000008805,0.4,0,AccAcc,2,17,Woman,Right,
30,10,1,2.2333316000003833,['n'],1,right,['2'],5,0.9672619000011764,0.1,0,AccAcc,2,17,Woman,Right,
31,10,1,0.5496550000007119,['c'],1,left,['1'],6,0.8175592000006873,0.4,0,AccAcc,2,17,Woman,Right,
32,10,1,0.5167882999994617,['n'],1,right,['1'],6,0.5177593000007619,0.4,0,AccAcc,2,17,Woman,Right,
33,10,1,0.5832785999991756,['n'],1,right,['1'],6,0.4506012000001647,0.1,0,AccAcc,2,17,Woman,Right,
34,10,1,0.5504995999999664,['n'],1,right,['1'],6,0.43344299999989744,0.4,0,AccAcc,2,17,Woman,Right,
35,10,1,0.7655604999999923,['n'],1,right,['1'],6,0.40078170000015234,0.2,0,AccAcc,2,17,Woman,Right,
36,10,1,1.4010781999986648,['c'],1,left,['2'],5,1.017384700000548,0.2,0,AccAcc,2,17,Woman,Right,
37,10,1,0.5340035999997781,['n'],1,right,['1'],6,0.7166979000012361,0.1,0,AccAcc,2,17,Woman,Right,
38,10,1,2.366457600001013,['c'],1,left,['8'],3,1.7505380000002333,0.1,0,AccAcc,2,17,Woman,Right,
39,10,1,1.0002811000013025,['n'],1,right,['1'],6,0.4502649999994901,0.2,0,AccAcc,2,17,Woman,Right,
40,10,1,0.7839133000015863,['n'],1,right,['1'],6,0.41728540000076464,0.2,0,AccAcc,2,17,Woman,Right,
41,10,1,2.4836172000013903,['n'],0,left,['8'],3,1.1341419000000315,0.1,0,AccAcc,2,17,Woman,Right,
42,10,1,1.5677018000005774,['n'],0,left,['8'],3,0.5839203000014095,0.1,0,AccAcc,2,17,Woman,Right,
43,10,1,0.5835998999991716,['n'],1,right,['1'],6,0.4839177000012569,0.4,0,AccAcc,2,17,Woman,Right,
44,10,1,0.4833567999994557,['n'],1,right,['1'],6,0.45112739999967744,0.4,0,AccAcc,2,17,Woman,Right,
45,10,1,2.3328982000002725,['c'],1,left,['8'],3,2.050581899999088,0.1,0,AccAcc,2,17,Woman,Right,
46,10,1,3.2333297000004677,['c'],1,left,['8'],3,1.8342525999996724,0.2,0,AccAcc,2,17,Woman,Right,
47,10,1,0.7339730000003328,['n'],1,right,['1'],6,0.8678319999999076,0.1,0,AccAcc,2,17,Woman,Right,
48,10,1,1.9675789000011719,['n'],1,right,['2'],5,0.43366040000000794,0.2,0,AccAcc,2,17,Woman,Right,
49,10,1,3.183295499999076,['n'],0,left,['3'],4,0.8346635000016249,0.1,0,AccAcc,2,17,Woman,Right,
50,10,1,0.6164523999996163,['n'],1,right,['1'],6,0.45077060000039637,0.4,0,AccAcc,2,17,Woman,Right,
51,10,1,0.5835095000002184,['n'],1,right,['1'],6,0.4507614999984071,0.2,0,AccAcc,2,17,Woman,Right,
52,10,1,0.8500347999997757,['n'],1,right,['2'],5,1.6840690999997605,0.1,0,AccAcc,2,17,Woman,Right,
53,10,1,0.6832723000006808,['n'],1,right,['2'],5,0.5507831000013539,0.1,0,AccAcc,2,17,Woman,Right,
54,10,1,0.9002252999998746,['c'],1,left,['2'],5,1.9175930000001244,0.2,0,AccAcc,2,17,Woman,Right,
55,10,1,0.8500125000009575,['c'],1,left,['1'],6,0.5169210000003659,0.4,0,AccAcc,2,17,Woman,Right,
56,10,1,0.5164610000010725,['n'],1,right,['1'],6,0.4835707000002003,0.2,0,AccAcc,2,17,Woman,Right,
57,10,1,0.734016899999915,['c'],1,left,['1'],6,0.6341887999988103,0.4,0,AccAcc,2,17,Woman,Right,
58,10,1,1.1162511000002269,['c'],1,left,['3'],4,1.317476700000043,0.4,0,AccAcc,2,17,Woman,Right,
59,10,1,4.050091099999918,['c'],1,left,['8'],3,1.633755900000324,0.2,0,AccAcc,2,17,Woman,Right,
0,11,1,0.799244900001213,['n'],0,left,['3'],4,2.2845644999997603,0.2,0,FastAcc,2,17,Woman,Right,
1,11,1,0.48213420000138285,['c'],1,left,['3'],4,1.2169945999994525,0.2,0,FastAcc,2,17,Woman,Right,
2,11,1,0.6335789000004297,['c'],1,left,['3'],4,0.7006805000000895,0.4,0,FastAcc,2,17,Woman,Right,
3,11,1,0.532893999999942,['n'],1,right,['3'],4,0.5673110999996425,0.1,0,FastAcc,2,17,Woman,Right,
4,11,1,0.5010308000000805,['n'],1,right,['1'],6,0.3842562999998336,0.4,0,FastAcc,2,17,Woman,Right,
5,11,1,0.5998423999990337,['n'],1,right,['1'],6,0.601494400001684,0.4,0,FastAcc,2,17,Woman,Right,
6,11,1,0.8166258999990532,['n'],1,right,['1'],6,0.4670475000002625,0.4,0,FastAcc,2,17,Woman,Right,
7,11,1,0.4510952000000543,['n'],1,right,['1'],6,0.384344100000817,0.4,0,FastAcc,2,17,Woman,Right,
8,11,1,0.5167211000007228,['n'],1,right,['1'],6,0.31704589999935706,0.2,0,FastAcc,2,17,Woman,Right,
9,11,1,0.633506899999702,['c'],1,left,['1'],6,0.5673593999999866,0.4,0,FastAcc,2,17,Woman,Right,
10,11,1,0.9828546999997343,['n'],0,left,['2'],5,1.0841951000002155,0.2,0,FastAcc,2,17,Woman,Right,
11,11,1,0.5499904999996943,['c'],1,left,['2'],5,0.5675109000003431,0.4,0,FastAcc,2,17,Woman,Right,
12,11,1,0.633136899999954,['n'],0,left,['2'],5,0.6177222000005713,0.1,0,FastAcc,2,17,Woman,Right,
13,11,1,0.6006825000004028,['n'],1,right,['2'],5,0.4172859000009339,0.1,0,FastAcc,2,17,Woman,Right,
14,11,1,0.8674897000000783,['n'],1,right,['8'],3,1.3668353000011848,0.1,0,FastAcc,2,17,Woman,Right,
15,11,1,0.717215099999521,['n'],0,left,['3'],4,0.834146299999702,0.1,0,FastAcc,2,17,Woman,Right,
16,11,1,0.7833552999982203,['n'],1,right,['1'],6,0.5672051999990799,0.4,0,FastAcc,2,17,Woman,Right,
17,11,1,0.6840880999989167,['c'],1,left,['1'],6,0.7841764999993757,0.4,0,FastAcc,2,17,Woman,Right,
18,11,1,0.6337072000005719,['n'],0,left,['3'],4,2.151218200000585,0.1,0,FastAcc,2,17,Woman,Right,
19,11,1,0.5337997999995423,['c'],0,right,['0'],1,1.1672205000013491,0.2,0,FastAcc,2,17,Woman,Right,
20,11,1,0.4998147999995126,['c'],1,left,['9'],2,1.3510795999991387,0.2,0,FastAcc,2,17,Woman,Right,
21,11,1,0.6173488000003999,['c'],1,left,['2'],5,0.7345418000004429,0.2,0,FastAcc,2,17,Woman,Right,
22,11,1,0.9829698000012286,['n'],1,right,['1'],6,0.4676992999993672,0.4,0,FastAcc,2,17,Woman,Right,
23,11,1,0.48402900000110094,['c'],1,left,['1'],6,0.5505639000002702,0.4,0,FastAcc,2,17,Woman,Right,
24,11,1,0.48353270000006887,['n'],1,right,['1'],6,0.43389310000020487,0.2,0,FastAcc,2,17,Woman,Right,
25,11,1,0.4664670999991358,['n'],1,right,['1'],6,0.4172731999988173,0.4,0,FastAcc,2,17,Woman,Right,
26,11,1,1.0834405999994488,['n'],1,right,['3'],4,1.3345530000005965,0.1,0,FastAcc,2,17,Woman,Right,
27,11,1,0.5506853999995656,['c'],0,right,['3'],4,0.7510056999999506,0.1,0,FastAcc,2,17,Woman,Right,
28,11,1,0.5830857000000833,['n'],0,left,['3'],4,0.4673683000000892,0.1,0,FastAcc,2,17,Woman,Right,
29,11,1,0.5674954000005528,['c'],1,left,['1'],6,0.617444900000919,0.4,0,FastAcc,2,17,Woman,Right,
30,11,1,0.3492062999994232,['n'],1,right,['1'],6,0.3679085000003397,0.4,0,FastAcc,2,17,Woman,Right,
31,11,1,0.6337530999990122,['c'],1,left,['2'],5,0.9010765000002721,0.2,0,FastAcc,2,17,Woman,Right,
32,11,1,0.9338433000011719,['c'],1,left,['3'],4,3.7501912000006996,0.1,0,FastAcc,2,17,Woman,Right,
33,11,1,0.6005430999994132,['c'],1,left,['3'],4,0.9008078999995632,0.2,0,FastAcc,2,17,Woman,Right,
34,11,1,0.4829559000008885,['n'],1,right,['1'],6,0.5507356000016443,0.4,0,FastAcc,2,17,Woman,Right,
35,11,1,1.1329657999995106,['c'],1,left,['3'],4,0.7841733000004751,0.2,0,FastAcc,2,17,Woman,Right,
36,11,1,0.6163583999987168,['n'],1,right,['3'],4,3.2340521000005538,0.2,0,FastAcc,2,17,Woman,Right,
37,11,1,0.6674172000002727,['c'],0,right,['9'],2,1.2841970000008587,0.1,0,FastAcc,2,17,Woman,Right,
38,11,1,0.6505570999997872,['n'],1,right,['2'],5,0.8174347000003763,0.2,0,FastAcc,2,17,Woman,Right,
39,11,1,1.5502087000004394,['n'],1,right,['8'],3,1.4513559999995778,0.2,0,FastAcc,2,17,Woman,Right,
40,11,1,1.200563800000964,['n'],0,left,['9'],2,1.5677780000005441,0.2,0,FastAcc,2,17,Woman,Right,
41,11,1,0.8337603999989369,['n'],0,left,['8'],3,0.7011555999997654,0.1,0,FastAcc,2,17,Woman,Right,
42,11,1,0.617157299999235,['n'],1,right,['1'],6,0.45080760000018927,0.4,0,FastAcc,2,17,Woman,Right,
43,11,1,0.7665563999998994,['n'],1,right,['1'],6,0.7171462000005704,0.2,0,FastAcc,2,17,Woman,Right,
44,11,1,0.5996584999993502,['n'],1,right,['1'],6,0.7003741999997146,0.2,0,FastAcc,2,17,Woman,Right,
45,11,1,1.4516046999997343,['n'],1,right,['1'],6,1.0173171999995247,0.1,0,FastAcc,2,17,Woman,Right,
46,11,1,0.5510353000008763,['n'],1,right,['1'],6,0.567281900001035,0.4,0,FastAcc,2,17,Woman,Right,
47,11,1,0.8998123999990639,['n'],1,right,['3'],4,1.4672349000011309,0.1,0,FastAcc,2,17,Woman,Right,
48,11,1,0.6168094999993627,['n'],1,right,['3'],4,0.7008043000005273,0.1,0,FastAcc,2,17,Woman,Right,
49,11,1,1.4341181000017968,['n'],0,left,['3'],4,1.2176913999992394,0.1,0,FastAcc,2,17,Woman,Right,
50,11,1,0.6334464999999909,['c'],1,left,['2'],5,0.9337104000005638,0.4,0,FastAcc,2,17,Woman,Right,
51,11,1,0.8003984000006312,['n'],0,left,['8'],3,1.5172370000000228,0.2,0,FastAcc,2,17,Woman,Right,
52,11,1,0.6838119999993069,['n'],0,left,['3'],4,0.6840312000003905,0.1,0,FastAcc,2,17,Woman,Right,
53,11,1,0.601325600000564,['n'],1,right,['1'],6,0.5171575000003941,0.4,0,FastAcc,2,17,Woman,Right,
54,11,1,1.1999689000003855,['n'],0,left,['3'],4,2.5343656000004557,0.1,0,FastAcc,2,17,Woman,Right,
55,11,1,0.5008940999996412,['n'],0,left,['3'],4,2.367586200000005,0.2,0,FastAcc,2,17,Woman,Right,
56,11,1,1.0831087000005937,['n'],0,left,['8'],3,1.3834824999994453,0.2,0,FastAcc,2,17,Woman,Right,
57,11,1,0.5493360999989818,['n'],0,left,['1'],6,0.584385400001338,0.1,0,FastAcc,2,17,Woman,Right,
58,11,1,0.6001709000011033,['c'],1,left,['1'],6,2.6347191000004386,0.4,0,FastAcc,2,17,Woman,Right,
59,11,1,0.4501000000000204,['n'],1,right,['1'],6,0.6336408999995911,0.1,0,FastAcc,2,17,Woman,Right,
0,12,1,0.5843340999999782,['n'],0,left,['8'],3,0.8010560000002442,0.1,0,FastFast,2,17,Woman,Right,
1,12,1,0.5497872999985702,['c'],1,left,['8'],3,0.9842607999999018,0.4,0,FastFast,2,17,Woman,Right,
2,12,1,1.1336900000005699,['n'],0,left,['0'],1,0.9006545000011101,0.2,0,FastFast,2,17,Woman,Right,
3,12,1,0.9168110999999044,['n'],0,left,['3'],4,0.9505206000012549,0.4,0,FastFast,2,17,Woman,Right,
4,12,1,0.5678024999997433,['n'],1,right,['1'],6,0.6004182999986369,0.2,0,FastFast,2,17,Woman,Right,
5,12,1,0.6837053999988711,['n'],1,right,['1'],6,0.33314340000106313,0.4,0,FastFast,2,17,Woman,Right,
6,12,1,0.700440399999934,['c'],1,left,['1'],6,0.35111289999986184,0.2,0,FastFast,2,17,Woman,Right,
7,12,1,0.5670160999998188,['n'],1,right,['1'],6,0.40088769999965734,0.1,0,FastFast,2,17,Woman,Right,
8,12,1,0.7994933000009041,['c'],1,left,['2'],5,0.3842077999997855,0.2,0,FastFast,2,17,Woman,Right,
9,12,1,0.7003726000002644,['n'],1,right,['1'],6,0.300432499998351,0.4,0,FastFast,2,17,Woman,Right,
10,12,1,0.8829166999985318,['n'],0,left,['9'],2,1.2507097999987309,0.1,0,FastFast,2,17,Woman,Right,
11,12,1,0.7336890999995376,['n'],1,right,['2'],5,0.48396890000003623,0.1,0,FastFast,2,17,Woman,Right,
12,12,1,0.6836808000007295,['c'],1,left,['2'],5,0.8511551000010513,0.1,0,FastFast,2,17,Woman,Right,
13,12,1,0.5338716000005661,['n'],1,right,['1'],6,0.31755840000005264,0.4,0,FastFast,2,17,Woman,Right,
14,12,1,0.583516900000177,['n'],1,right,['1'],6,0.333548200000223,0.4,0,FastFast,2,17,Woman,Right,
15,12,1,0.9172166999996989,['c'],1,left,['1'],6,0.8514051000001928,0.2,0,FastFast,2,17,Woman,Right,
16,12,1,0.9168489000003319,['n'],1,right,['2'],5,0.45090280000113125,0.1,0,FastFast,2,17,Woman,Right,
17,12,1,0.549781300000177,['n'],1,right,['2'],5,0.46784800000023097,0.1,0,FastFast,2,17,Woman,Right,
18,12,1,1.0500504999999976,['n'],0,left,['2'],5,0.9006745999995474,0.1,0,FastFast,2,17,Woman,Right,
19,12,1,0.6662180999992415,['n'],1,right,['3'],4,0.7345254000010755,0.1,0,FastFast,2,17,Woman,Right,
20,12,1,0.7174118000002636,['n'],0,left,['2'],5,0.4506743000001734,0.1,0,FastFast,2,17,Woman,Right,
21,12,1,1.1839954999995825,['n'],0,left,['9'],2,0.46705219999967085,0.2,0,FastFast,2,17,Woman,Right,
22,12,1,0.917491100000916,['n'],0,left,['0'],1,0.9174844999997731,0.4,0,FastFast,2,17,Woman,Right,
23,12,1,0.6507526999994298,['n'],1,right,['3'],4,0.9842427000003227,0.1,0,FastFast,2,17,Woman,Right,
24,12,1,0.9666772000000492,['n'],0,left,['8'],3,1.134417700000995,0.1,0,FastFast,2,17,Woman,Right,
25,12,1,0.8005813999989186,['n'],0,left,['8'],3,0.4505293000001984,0.2,0,FastFast,2,17,Woman,Right,
26,12,1,0.7993739000012283,['n'],0,left,['8'],3,0.6178105999988475,0.2,0,FastFast,2,17,Woman,Right,
27,12,1,0.8503570999982912,['c'],0,right,['3'],4,0.9835208999993483,0.1,0,FastFast,2,17,Woman,Right,
28,12,1,0.5339525999988837,['n'],1,right,['1'],6,0.41703079999933834,0.4,0,FastFast,2,17,Woman,Right,
29,12,1,0.8673037000007753,['n'],0,left,['3'],4,1.5002105000003212,0.1,0,FastFast,2,17,Woman,Right,
30,12,1,0.9504971000005753,['c'],1,left,['3'],4,0.6507786000001943,0.4,0,FastFast,2,17,Woman,Right,
31,12,1,0.5326830000012706,['n'],0,left,['8'],3,0.6844982999991771,0.1,0,FastFast,2,17,Woman,Right,
32,12,1,0.6667529999995168,['n'],1,right,['1'],6,0.3508935999998357,0.4,0,FastFast,2,17,Woman,Right,
33,12,1,1.0989471999982925,['n'],1,right,['1'],6,0.5010317000014766,0.2,0,FastFast,2,17,Woman,Right,
34,12,1,0.48350679999930435,['n'],1,right,['1'],6,0.3177124999983789,0.2,0,FastFast,2,17,Woman,Right,
35,12,1,0.5669073999997636,['c'],1,left,['1'],6,0.3344182999990153,0.4,0,FastFast,2,17,Woman,Right,
36,12,1,0.7006722000005539,['n'],0,left,['3'],4,0.8675075999999535,0.2,0,FastFast,2,17,Woman,Right,
37,12,1,0.5497844000001351,['n'],1,right,['1'],6,0.3176221000012447,0.2,0,FastFast,2,17,Woman,Right,
38,12,1,0.5511311999998725,['n'],1,right,['1'],6,0.28398850000121456,0.4,0,FastFast,2,17,Woman,Right,
39,12,1,0.7168115000004036,['c'],1,left,['1'],6,0.40026579999903333,0.2,0,FastFast,2,17,Woman,Right,
40,12,1,0.634254200000214,['c'],1,left,['1'],6,0.3512447000011889,0.2,0,FastFast,2,17,Woman,Right,
41,12,1,0.41676489999917976,['n'],1,right,['1'],6,0.2842311999993399,0.4,0,FastFast,2,17,Woman,Right,
42,12,1,0.48377910000090196,['n'],1,right,['1'],6,0.3340621999996074,0.4,0,FastFast,2,17,Woman,Right,
43,12,1,0.8331254999993689,['n'],1,right,['1'],6,0.367307600001368,0.2,0,FastFast,2,17,Woman,Right,
44,12,1,0.566919400000188,['n'],1,right,['1'],6,0.36747340000147233,0.2,0,FastFast,2,17,Woman,Right,
45,12,1,0.5667369000002509,['n'],1,right,['1'],6,0.300802300000214,0.2,0,FastFast,2,17,Woman,Right,
46,12,1,0.7003869999989547,['c'],1,left,['1'],6,0.4005749999996624,0.2,0,FastFast,2,17,Woman,Right,
47,12,1,0.6992535000008502,['c'],1,left,['1'],6,0.4677579999988666,0.4,0,FastFast,2,17,Woman,Right,
48,12,1,0.4498561000000336,['n'],1,right,['1'],6,0.3010493999991013,0.2,0,FastFast,2,17,Woman,Right,
49,12,1,0.5830569000008836,['c'],1,left,['1'],6,0.40130630000021483,0.1,0,FastFast,2,17,Woman,Right,
50,12,1,0.4340640999998868,['n'],0,left,['1'],6,0.3510874999992666,0.1,0,FastFast,2,17,Woman,Right,
51,12,1,0.5171580000005633,['n'],1,right,['1'],6,0.3339529999993829,0.4,0,FastFast,2,17,Woman,Right,
52,12,1,0.45043359999908716,['n'],1,right,['1'],6,0.4179261999997834,0.4,0,FastFast,2,17,Woman,Right,
53,12,1,0.41663680000056047,['n'],1,right,['1'],6,0.3844403000002785,0.4,0,FastFast,2,17,Woman,Right,
54,12,1,0.48341199999958917,['n'],1,right,['0'],1,1.233836199999132,0.4,0,FastFast,2,17,Woman,Right,
55,12,1,0.8001356999993732,['n'],1,right,['3'],4,0.7512039999983244,0.1,0,FastFast,2,17,Woman,Right,
56,12,1,0.6337389999989682,['c'],1,left,['1'],6,0.4510203999998339,0.2,0,FastFast,2,17,Woman,Right,
57,12,1,0.6339196999997512,['c'],1,left,['2'],5,0.7342200999992201,0.1,0,FastFast,2,17,Woman,Right,
58,12,1,0.566494500000772,['c'],1,left,['1'],6,0.5846796999994694,0.4,0,FastFast,2,17,Woman,Right,
59,12,1,0.4171519999999873,['n'],1,right,['1'],6,0.2679833999991388,0.1,0,FastFast,2,17,Woman,Right,
0,13,1,3.0830093000004126,['n'],1,right,['2'],5,0.3013682000000699,0.2,0,AccFast,2,17,Woman,Right,
1,13,1,1.6672219000010955,['n'],1,right,['3'],4,0.6006257999997615,0.2,0,AccFast,2,17,Woman,Right,
2,13,1,0.7831733999992139,['c'],0,right,['2'],5,0.8179261000004772,0.1,0,AccFast,2,17,Woman,Right,
3,13,1,2.8504517000001215,['c'],1,left,['2'],5,0.43468399999983376,0.2,0,AccFast,2,17,Woman,Right,
4,13,1,0.5495069999997213,['n'],1,right,['1'],6,0.4994501000001037,0.4,0,AccFast,2,17,Woman,Right,
5,13,1,1.3676424000004772,['c'],1,left,['2'],5,0.367302100001325,0.4,0,AccFast,2,17,Woman,Right,
6,13,1,0.6494504000002053,['n'],0,left,['2'],5,0.45160310000028403,0.1,0,AccFast,2,17,Woman,Right,
7,13,1,0.5840941999995266,['n'],1,right,['2'],5,0.5006659999999101,0.1,0,AccFast,2,17,Woman,Right,
8,13,1,1.2832667000002402,['n'],1,right,['3'],4,0.7008882999998605,0.1,0,AccFast,2,17,Woman,Right,
9,13,1,0.6499313999993319,['n'],1,right,['1'],6,0.3174220000000787,0.4,0,AccFast,2,17,Woman,Right,
10,13,1,1.1992900999994163,['c'],1,left,['1'],6,0.3504718000003777,0.4,0,AccFast,2,17,Woman,Right,
11,13,1,1.2827463000012358,['n'],1,right,['1'],6,0.8178443999986484,0.1,0,AccFast,2,17,Woman,Right,
12,13,1,1.800783099999535,['c'],1,left,['2'],5,0.6003467999998975,0.4,0,AccFast,2,17,Woman,Right,
13,13,1,0.5829051999990043,['n'],1,right,['1'],6,0.3171355999984371,0.4,0,AccFast,2,17,Woman,Right,
14,13,1,0.5671783999987383,['n'],1,right,['1'],6,0.3180812999999034,0.4,0,AccFast,2,17,Woman,Right,
15,13,1,2.2999906000004557,['n'],0,left,['3'],4,0.5181529999990744,0.1,0,AccFast,2,17,Woman,Right,
16,13,1,0.5491942999997264,['n'],1,right,['3'],4,0.4510461000008945,0.1,0,AccFast,2,17,Woman,Right,
17,13,1,0.4840339000002132,['c'],1,left,['1'],6,0.4010633999987476,0.4,0,AccFast,2,17,Woman,Right,
18,13,1,1.5162256000003254,['c'],1,left,['2'],5,0.6174499000007927,0.2,0,AccFast,2,17,Woman,Right,
19,13,1,0.849886099998912,['n'],1,right,['3'],4,0.5339961999998195,0.2,0,AccFast,2,17,Woman,Right,
20,13,1,0.8670409000005748,['c'],1,left,['3'],4,0.6341367999993963,0.1,0,AccFast,2,17,Woman,Right,
21,13,1,0.5840864999991027,['n'],1,right,['1'],6,0.3006574000010005,0.4,0,AccFast,2,17,Woman,Right,
22,13,1,0.5509187999996357,['n'],1,right,['1'],6,0.3176782999998977,0.4,0,AccFast,2,17,Woman,Right,
23,13,1,1.4170039000000543,['n'],1,right,['2'],5,1.2511809000006906,0.4,0,AccFast,2,17,Woman,Right,
24,13,1,0.7833226999991894,['c'],1,left,['2'],5,0.500829500000691,0.2,0,AccFast,2,17,Woman,Right,
25,13,1,1.7333529999996244,['n'],1,right,['3'],4,1.0009705000011309,0.1,0,AccFast,2,17,Woman,Right,
26,13,1,0.6664522000010038,['n'],1,right,['3'],4,0.45094719999906374,0.2,0,AccFast,2,17,Woman,Right,
27,13,1,0.5002865999995265,['c'],1,left,['1'],6,0.33402269999896816,0.4,0,AccFast,2,17,Woman,Right,
28,13,1,0.6667429999997694,['n'],1,right,['2'],5,1.2680264999999054,0.1,0,AccFast,2,17,Woman,Right,
29,13,1,3.2830715000000055,['n'],0,left,['3'],4,0.8677681000008306,0.1,0,AccFast,2,17,Woman,Right,
30,13,1,0.5338000000010652,['c'],1,left,['1'],6,0.36746149999999034,0.4,0,AccFast,2,17,Woman,Right,
31,13,1,0.5502887000002374,['n'],1,right,['1'],6,0.6174183000002813,0.2,0,AccFast,2,17,Woman,Right,
32,13,1,0.9001095000003261,['n'],1,right,['1'],6,0.567187799999374,0.4,0,AccFast,2,17,Woman,Right,
33,13,1,0.6492891999987478,['c'],1,left,['1'],6,0.53421359999993,0.4,0,AccFast,2,17,Woman,Right,
34,13,1,2.2994882999992114,['c'],1,left,['2'],5,0.6999211000002106,0.1,0,AccFast,2,17,Woman,Right,
35,13,1,2.4842534999988857,['c'],1,left,['3'],4,0.4505023000001529,0.2,0,AccFast,2,17,Woman,Right,
36,13,1,1.5334675000012794,['c'],1,left,['2'],5,0.6341945999993186,0.4,0,AccFast,2,17,Woman,Right,
37,13,1,0.6172203000005538,['n'],1,right,['1'],6,0.33399370000006456,0.1,0,AccFast,2,17,Woman,Right,
38,13,1,3.7169727999989846,['n'],0,left,['9'],2,0.800621599999431,0.1,0,AccFast,2,17,Woman,Right,
39,13,1,1.2678089999990334,['c'],1,left,['9'],2,1.2339830000000802,0.2,0,AccFast,2,17,Woman,Right,
40,13,1,1.4649067999998806,['c'],1,left,['3'],4,0.5508637999992061,0.2,0,AccFast,2,17,Woman,Right,
41,13,1,1.3169761000008293,['c'],1,left,['3'],4,0.4996752999995806,0.2,0,AccFast,2,17,Woman,Right,
42,13,1,2.2008007000004,['c'],1,left,['3'],4,0.5344521999995777,0.1,0,AccFast,2,17,Woman,Right,
43,13,1,0.8834953000005044,['n'],1,right,['1'],6,0.30073909999919124,0.4,0,AccFast,2,17,Woman,Right,
44,13,1,3.7500589000010223,['c'],1,left,['8'],3,1.2345832000009977,0.2,0,AccFast,2,17,Woman,Right,
45,13,1,0.5673591000013403,['n'],1,right,['2'],5,1.7171933000008721,0.2,0,AccFast,2,17,Woman,Right,
46,13,1,0.5166268000011769,['n'],1,right,['1'],6,0.25128389999918,0.4,0,AccFast,2,17,Woman,Right,
47,13,1,3.466984799999409,['c'],1,left,['2'],5,0.5667900000007648,0.1,0,AccFast,2,17,Woman,Right,
48,13,1,0.5828638999992108,['n'],1,right,['3'],4,1.2843838000007963,0.2,0,AccFast,2,17,Woman,Right,
49,13,1,0.7168880999997782,['n'],0,left,['3'],4,0.39992830000119284,0.2,0,AccFast,2,17,Woman,Right,
50,13,1,1.9507802999996784,['c'],1,left,['2'],5,0.8335618000000977,0.1,0,AccFast,2,17,Woman,Right,
51,13,1,1.200018400000772,['n'],0,left,['3'],4,0.4507678999998461,0.1,0,AccFast,2,17,Woman,Right,
52,13,1,0.5503709000004164,['n'],1,right,['1'],6,0.33403790000011213,0.4,0,AccFast,2,17,Woman,Right,
53,13,1,3.3654929000003904,['n'],1,right,['9'],2,0.7340151000007609,0.1,0,AccFast,2,17,Woman,Right,
54,13,1,0.6003861999997753,['n'],1,right,['3'],4,0.7510089000006701,0.4,0,AccFast,2,17,Woman,Right,
55,13,1,0.6169466999999713,['n'],1,right,['1'],6,0.23448970000026748,0.2,0,AccFast,2,17,Woman,Right,
56,13,1,0.9330960000006598,['n'],0,left,['2'],5,0.5843645999993896,0.2,0,AccFast,2,17,Woman,Right,
57,13,1,1.4663160999989486,['c'],1,left,['2'],5,0.6013730000013311,0.1,0,AccFast,2,17,Woman,Right,
58,13,1,0.7332327000003716,['n'],1,right,['1'],6,0.3510975999997754,0.2,0,AccFast,2,17,Woman,Right,
59,13,1,4.766366199999538,['c'],1,left,['9'],2,1.250504000001456,0.2,0,AccFast,2,17,Woman,Right,
0,14,1,2.266911499998969,['n'],1,right,['3'],4,1.8504210999999486,0.1,0,AccAcc,2,17,Woman,Right,
1,14,1,2.617445300000327,['c'],0,right,['3'],4,0.8669272999995883,0.2,0,AccAcc,2,17,Woman,Right,
2,14,1,3.333961199999976,['c'],1,left,['3'],4,0.6514044999985344,0.2,0,AccAcc,2,17,Woman,Right,
3,14,1,3.116203499999756,['c'],1,left,['3'],4,0.6667997000004107,0.1,0,AccAcc,2,17,Woman,Right,
4,14,1,0.6000545000006241,['n'],1,right,['1'],6,1.5012021999991703,0.2,0,AccAcc,2,17,Woman,Right,
5,14,1,2.7000416000009864,['c'],1,left,['3'],4,1.4843277999989368,0.2,0,AccAcc,2,17,Woman,Right,
6,14,1,2.5497630999998364,['c'],1,left,['3'],4,0.7678852999997616,0.1,0,AccAcc,2,17,Woman,Right,
7,14,1,2.950270299999829,['c'],1,left,['3'],4,0.5343035999994754,0.4,0,AccAcc,2,17,Woman,Right,
8,14,1,4.467509500000233,['n'],0,left,['3'],4,0.701254900001004,0.1,0,AccAcc,2,17,Woman,Right,
9,14,1,5.016184500000236,x,-99,left,none,-99,-99,0.2,1,AccAcc,2,17,Woman,Right,
10,14,1,1.8495081999990362,['c'],1,left,['1'],6,0.6678545999984635,0.4,0,AccAcc,2,17,Woman,Right,
11,14,1,0.6011217999985092,['n'],1,right,['1'],6,0.43337290000090434,0.4,0,AccAcc,2,17,Woman,Right,
12,14,1,2.1835473000010097,['c'],1,left,['2'],5,1.0341914999989967,0.1,0,AccAcc,2,17,Woman,Right,
13,14,1,2.033496699999887,['n'],1,right,['2'],5,0.45127449999927194,0.2,0,AccAcc,2,17,Woman,Right,
14,14,1,1.0835866999987047,['c'],1,left,['2'],5,0.5338345000000118,0.4,0,AccAcc,2,17,Woman,Right,
15,14,1,1.399463800000376,['n'],1,right,['1'],6,0.4014560000014171,0.4,0,AccAcc,2,17,Woman,Right,
16,14,1,1.0497823000005155,['n'],1,right,['1'],6,0.6013118999999278,0.4,0,AccAcc,2,17,Woman,Right,
17,14,1,3.533489199999167,['n'],1,right,['8'],3,1.3331928000006883,0.2,0,AccAcc,2,17,Woman,Right,
18,14,1,0.7500336000011885,['n'],1,right,['1'],6,0.7506895999995322,0.4,0,AccAcc,2,17,Woman,Right,
19,14,1,1.0002653999999893,['n'],1,right,['1'],6,0.6007231999992655,0.4,0,AccAcc,2,17,Woman,Right,
20,14,1,1.0157620999998471,['n'],1,right,['1'],6,0.8172465999996348,0.2,0,AccAcc,2,17,Woman,Right,
21,14,1,1.5677383999991434,['n'],1,right,['1'],6,1.0671793000001344,0.2,0,AccAcc,2,17,Woman,Right,
22,14,1,1.3175694000001386,['c'],1,left,['1'],6,0.8173390000010841,0.2,0,AccAcc,2,17,Woman,Right,
23,14,1,1.4158698999999615,['n'],1,right,['1'],6,0.8512227999999595,0.2,0,AccAcc,2,17,Woman,Right,
24,14,1,1.500138600000355,['n'],1,right,['1'],6,0.8507742999991024,0.4,0,AccAcc,2,17,Woman,Right,
25,14,1,2.100113299999066,['c'],1,left,['2'],5,0.900893800000631,0.1,0,AccAcc,2,17,Woman,Right,
26,14,1,1.899683699999514,['c'],1,left,['3'],4,1.0346621000007872,0.2,0,AccAcc,2,17,Woman,Right,
27,14,1,3.4334933000009187,['c'],1,left,['3'],4,0.8344696000003751,0.2,0,AccAcc,2,17,Woman,Right,
28,14,1,1.7176371999994444,['c'],1,left,['3'],4,0.6004885000002105,0.1,0,AccAcc,2,17,Woman,Right,
29,14,1,2.8664286000002903,['n'],0,left,['3'],4,0.8176516000003176,0.1,0,AccAcc,2,17,Woman,Right,
30,14,1,1.2166753000001336,['n'],1,right,['3'],4,0.834119399998599,0.1,0,AccAcc,2,17,Woman,Right,
31,14,1,2.066581099999894,['c'],1,left,['3'],4,0.6505787000005512,0.4,0,AccAcc,2,17,Woman,Right,
32,14,1,1.9985785000008036,['c'],1,left,['3'],4,0.6504915000004985,0.1,0,AccAcc,2,17,Woman,Right,
33,14,1,2.0669753000001947,['n'],0,left,['2'],5,0.7506139999986772,0.1,0,AccAcc,2,17,Woman,Right,
34,14,1,0.9672635000006267,['n'],1,right,['1'],6,0.6835745999997016,0.2,0,AccAcc,2,17,Woman,Right,
35,14,1,0.7505552000002353,['n'],1,right,['1'],6,0.500417400000515,0.4,0,AccAcc,2,17,Woman,Right,
36,14,1,2.5008467999996356,['c'],1,left,['2'],5,3.8513922999991337,0.1,0,AccAcc,2,17,Woman,Right,
37,14,1,1.5836536999995587,['n'],1,right,['2'],5,0.7675746999993862,0.2,0,AccAcc,2,17,Woman,Right,
38,14,1,0.5669495999991341,['n'],1,right,['1'],6,0.3340007000006153,0.4,0,AccAcc,2,17,Woman,Right,
39,14,1,0.9509107999983826,['n'],1,right,['1'],6,0.6177095999992162,0.4,0,AccAcc,2,17,Woman,Right,
40,14,1,2.4498693000005005,['c'],1,left,['3'],4,0.8005670000002283,0.2,0,AccAcc,2,17,Woman,Right,
41,14,1,1.600270200000523,['n'],1,right,['3'],4,0.8498352999995404,0.1,0,AccAcc,2,17,Woman,Right,
42,14,1,0.9164846000003308,['n'],1,right,['1'],6,0.8336933999999019,0.4,0,AccAcc,2,17,Woman,Right,
43,14,1,2.8836891000009928,['c'],1,left,['2'],5,2.3342876999995497,0.2,0,AccAcc,2,17,Woman,Right,
44,14,1,1.2508823000007396,['c'],1,left,['2'],5,1.000786500000686,0.4,0,AccAcc,2,17,Woman,Right,
45,14,1,1.3843750999985787,['n'],1,right,['1'],6,1.2671939000010752,0.2,0,AccAcc,2,17,Woman,Right,
46,14,1,1.199347099998704,['c'],1,left,['2'],5,1.3173255000001518,0.2,0,AccAcc,2,17,Woman,Right,
47,14,1,0.5506986000000325,['n'],0,left,['1'],6,0.8841282000012143,0.1,0,AccAcc,2,17,Woman,Right,
48,14,1,1.0998859999999695,['c'],1,left,['2'],5,1.1177753000010853,0.4,0,AccAcc,2,17,Woman,Right,
49,14,1,0.9341303000001062,['n'],1,right,['1'],6,0.7171551999999792,0.1,0,AccAcc,2,17,Woman,Right,
50,14,1,1.300731100000121,['n'],1,right,['1'],6,1.1343018999996275,0.1,0,AccAcc,2,17,Woman,Right,
51,14,1,1.2671332999998413,['n'],1,right,['1'],6,0.8337054999992688,0.1,0,AccAcc,2,17,Woman,Right,
52,14,1,2.0171619999982795,['n'],0,left,['1'],6,0.9006088000005548,0.1,0,AccAcc,2,17,Woman,Right,
53,14,1,2.016549900001337,['c'],1,left,['1'],6,1.1012258999999176,0.4,0,AccAcc,2,17,Woman,Right,
54,14,1,3.2001467000009143,['c'],1,left,['3'],4,1.2341422000008606,0.4,0,AccAcc,2,17,Woman,Right,
55,14,1,1.0338833999994677,['c'],1,left,['2'],5,0.7666948999994929,0.4,0,AccAcc,2,17,Woman,Right,
56,14,1,0.7494408000002295,['n'],1,right,['2'],5,0.667427399999724,0.1,0,AccAcc,2,17,Woman,Right,
57,14,1,0.6335478000000876,['n'],1,right,['1'],6,0.6507037000010314,0.4,0,AccAcc,2,17,Woman,Right,
58,14,1,1.7665058000002318,['n'],1,right,['3'],4,1.9175577999994857,0.1,0,AccAcc,2,17,Woman,Right,
59,14,1,0.6836874000000535,['n'],1,right,['3'],4,0.7510535000001255,0.2,0,AccAcc,2,17,Woman,Right,
0,15,1,0.43360179999945103,['n'],1,right,['3'],4,1.5835678999992524,0.2,0,FastAcc,2,17,Woman,Right,
1,15,1,0.6833366999999271,['n'],1,right,['2'],5,0.851236999998946,0.2,0,FastAcc,2,17,Woman,Right,
2,15,1,0.632664200000363,['n'],1,right,['2'],5,0.7172828000002482,0.2,0,FastAcc,2,17,Woman,Right,
3,15,1,1.8161868000006507,['n'],1,right,['3'],4,1.08450239999911,0.1,0,FastAcc,2,17,Woman,Right,
4,15,1,0.5833583999992697,['n'],1,right,['3'],4,0.7676462999988871,0.1,0,FastAcc,2,17,Woman,Right,
5,15,1,0.6169613000001846,['n'],0,left,['3'],4,0.7006294000002526,0.1,0,FastAcc,2,17,Woman,Right,
6,15,1,0.6171979999999166,['c'],1,left,['3'],4,1.5674753000002966,0.1,0,FastAcc,2,17,Woman,Right,
7,15,1,0.54958649999935,['c'],1,left,['3'],4,0.6831244000004517,0.2,0,FastAcc,2,17,Woman,Right,
8,15,1,0.8329042000004847,['n'],1,right,['1'],6,0.35093330000017886,0.4,0,FastAcc,2,17,Woman,Right,
9,15,1,0.700410199999169,['c'],1,left,['2'],5,1.1337189999994735,0.1,0,FastAcc,2,17,Woman,Right,
10,15,1,0.2998521999998047,['n'],0,left,['3'],4,1.1672847000008915,0.1,0,FastAcc,2,17,Woman,Right,
11,15,1,0.3173800000004121,['n'],0,left,['0'],1,1.08439399999952,0.2,0,FastAcc,2,17,Woman,Right,
12,15,1,0.6333192999991297,['n'],1,right,['2'],5,2.4344715000006545,0.1,0,FastAcc,2,17,Woman,Right,
13,15,1,0.7004810999987967,['n'],1,right,['1'],6,0.6011349000000337,0.4,0,FastAcc,2,17,Woman,Right,
14,15,1,0.5004516000008152,['n'],1,right,['8'],3,3.317659399999684,0.1,0,FastAcc,2,17,Woman,Right,
15,15,1,0.6337190999984159,['c'],1,left,['2'],5,1.0512407000005624,0.1,0,FastAcc,2,17,Woman,Right,
16,15,1,0.5832011999991664,['n'],0,left,['0'],1,0.7512144000011176,0.4,0,FastAcc,2,17,Woman,Right,
17,15,1,0.9333875000011176,['c'],1,left,['2'],5,1.9341789999998582,0.4,0,FastAcc,2,17,Woman,Right,
18,15,1,0.5168627999992168,['n'],1,right,['1'],6,0.750920500000575,0.4,0,FastAcc,2,17,Woman,Right,
19,15,1,1.3335937000010745,['c'],1,left,['2'],5,2.466969600000084,0.1,0,FastAcc,2,17,Woman,Right,
20,15,1,1.3327406999997038,['n'],1,right,['8'],3,3.9847788000006403,0.1,0,FastAcc,2,17,Woman,Right,
21,15,1,0.8003711999990628,['c'],1,left,['2'],5,0.9674787000003562,0.1,0,FastAcc,2,17,Woman,Right,
22,15,1,1.0168802999996842,['c'],1,left,['3'],4,1.2511515999995027,0.4,0,FastAcc,2,17,Woman,Right,
23,15,1,1.1509251999996195,['c'],1,left,['3'],4,1.4504574000002322,0.4,0,FastAcc,2,17,Woman,Right,
24,15,1,1.3836348000004364,['c'],1,left,['3'],4,0.9840892000011081,0.2,0,FastAcc,2,17,Woman,Right,
25,15,1,1.0165875000002416,['n'],1,right,['1'],6,0.5837331999991875,0.2,0,FastAcc,2,17,Woman,Right,
26,15,1,0.8167517999991105,['c'],0,right,['9'],2,1.534855999998399,0.1,0,FastAcc,2,17,Woman,Right,
27,15,1,0.599487899999076,['n'],1,right,['9'],2,1.2672935000009602,0.4,0,FastAcc,2,17,Woman,Right,
28,15,1,0.4996209999990242,['n'],0,left,['8'],3,1.0839278000003105,0.2,0,FastAcc,2,17,Woman,Right,
29,15,1,0.6501110999997763,['c'],1,left,['3'],4,0.8171772999994573,0.2,0,FastAcc,2,17,Woman,Right,
30,15,1,0.43413110000074084,['n'],1,right,['3'],4,1.450767199999973,0.2,0,FastAcc,2,17,Woman,Right,
31,15,1,0.5670647999995708,['c'],1,left,['3'],4,0.7008390999999392,0.2,0,FastAcc,2,17,Woman,Right,
32,15,1,0.716177800000878,['c'],1,left,['3'],4,0.7332440000009228,0.2,0,FastAcc,2,17,Woman,Right,
33,15,1,0.5667253999999957,['c'],1,left,['2'],5,0.7008165000006557,0.4,0,FastAcc,2,17,Woman,Right,
34,15,1,0.5168936000009126,['n'],1,right,['2'],5,0.5506480999993073,0.4,0,FastAcc,2,17,Woman,Right,
35,15,1,0.4336382000001322,['c'],1,left,['1'],6,1.216890699999567,0.1,0,FastAcc,2,17,Woman,Right,
36,15,1,0.73356270000113,['c'],1,left,['3'],4,1.0341736000009405,0.4,0,FastAcc,2,17,Woman,Right,
37,15,1,1.4507228000002215,['c'],1,left,['3'],4,1.400608400001147,0.1,0,FastAcc,2,17,Woman,Right,
38,15,1,0.4009385999997903,['n'],0,left,['1'],6,0.7676799000000756,0.1,0,FastAcc,2,17,Woman,Right,
39,15,1,0.5005204000008234,['n'],1,right,['1'],6,0.6343431999994209,0.2,0,FastAcc,2,17,Woman,Right,
40,15,1,0.5163952999992034,['n'],1,right,['1'],6,0.6341148999999859,0.4,0,FastAcc,2,17,Woman,Right,
41,15,1,0.8166093999989243,['n'],0,left,['8'],3,1.684324199999537,0.2,0,FastAcc,2,17,Woman,Right,
42,15,1,0.9330984999996872,['n'],0,left,['8'],3,0.9176100000004226,0.1,0,FastAcc,2,17,Woman,Right,
43,15,1,0.5161514999999781,['n'],0,left,['3'],4,1.117589699999371,0.2,0,FastAcc,2,17,Woman,Right,
44,15,1,0.4658409000003303,['c'],1,left,['3'],4,0.7005931000003329,0.2,0,FastAcc,2,17,Woman,Right,
45,15,1,0.4837807999992947,['c'],1,left,['3'],4,0.5178978999992978,0.2,0,FastAcc,2,17,Woman,Right,
46,15,1,0.4995137000005343,['n'],1,right,['1'],6,1.3010706000004575,0.2,0,FastAcc,2,17,Woman,Right,
47,15,1,0.5499603999996907,['n'],1,right,['1'],6,1.117708699999639,0.4,0,FastAcc,2,17,Woman,Right,
48,15,1,0.5170562000002974,['n'],1,right,['1'],6,1.3176902000013797,0.4,0,FastAcc,2,17,Woman,Right,
49,15,1,0.583405400000629,['n'],1,right,['1'],6,1.1840895999994245,0.4,0,FastAcc,2,17,Woman,Right,
50,15,1,0.5501041999996232,['c'],1,left,['1'],6,1.1348572000006243,0.4,0,FastAcc,2,17,Woman,Right,
51,15,1,0.7838251000011951,['n'],1,right,['1'],6,1.6004335000016,0.1,0,FastAcc,2,17,Woman,Right,
52,15,1,0.550616299999092,['n'],1,right,['1'],6,1.1346276000003854,0.4,0,FastAcc,2,17,Woman,Right,
53,15,1,0.6003058999995119,['n'],1,right,['1'],6,1.201036500000555,0.4,0,FastAcc,2,17,Woman,Right,
54,15,1,0.666687600001751,['c'],0,right,['3'],4,1.3176294999993843,0.1,0,FastAcc,2,17,Woman,Right,
55,15,1,0.4328922999993665,['n'],1,right,['2'],5,1.4010304000003089,0.2,0,FastAcc,2,17,Woman,Right,
56,15,1,0.8506445000002714,['c'],0,right,['3'],4,0.9507340000000113,0.1,0,FastAcc,2,17,Woman,Right,
57,15,1,0.7999369999997725,['c'],1,left,['2'],5,0.91741329999968,0.4,0,FastAcc,2,17,Woman,Right,
58,15,1,0.4841003000001365,['n'],1,right,['1'],6,0.9507441999994626,0.4,0,FastAcc,2,17,Woman,Right,
59,15,1,0.6337470999988,['n'],1,right,['1'],6,1.0506545000007463,0.2,0,FastAcc,2,17,Woman,Right,
