"withinblocktrial","block","block_repetition","rt","resp","cor","cresp","conf_press","cj","rtconf","coherence","metacognition","slow_trial","manipulation","sub","age","gender","handedness","X","batch","check1","check2","check3","check4"
0,4,1,1.50084920000063,"['n']",1,"right","['e']",0,0.344396399999823,0.2,0,0,"FastFast",1,17,"Woman","Right",NA,5,TRUE,TRUE,TRUE,TRUE
1,4,1,1.03383920000033,"['n']",1,"right","['e']",0,0.212646900000436,0.4,0,0,"FastFast",1,17,"Woman","Right",NA,5,TRUE,TRUE,TRUE,TRUE
2,4,1,0.801186699999562,"['n']",1,"right","['e']",0,0.191218300000401,0.4,0,0,"FastFast",1,17,"Woman","Right",NA,5,TRUE,TRUE,TRUE,TRUE
3,4,1,0.917662099999689,"['n']",0,"left","['e']",0,0.196307600000182,0.1,1,0,"FastFast",1,17,"Woman","Right",NA,5,TRUE,TRUE,TRUE,TRUE
4,4,1,0.933166199999505,"['n']",0,"left","['e']",0,0.234060499999941,0.2,1,0,"FastFast",1,17,"Woman","Right",NA,5,TRUE,TRUE,TRUE,TRUE
5,4,1,0.751439800000298,"['n']",0,"left","['u']",1,0.35637029999998,0.4,0,0,"FastFast",1,17,"Woman","Right",NA,5,TRUE,TRUE,TRUE,TRUE
6,4,1,1.40141959999983,"['c']",1,"left","['e']",0,0.209022900000491,0.4,0,0,"FastFast",1,17,"Woman","Right",NA,5,TRUE,TRUE,TRUE,TRUE
7,4,1,1.00121639999998,"['c']",1,"left","['u']",1,0.259365500000058,0.4,1,0,"FastFast",1,17,"Woman","Right",NA,5,TRUE,TRUE,TRUE,TRUE
8,4,1,1.39988320000066,"['n']",1,"right","['e']",0,0.180398999999852,0.1,0,0,"FastFast",1,17,"Woman","Right",NA,5,TRUE,TRUE,TRUE,TRUE
9,4,1,0.832978600000388,"['c']",1,"left","['u']",1,0.558441099999982,0.4,1,0,"FastFast",1,17,"Woman","Right",NA,5,TRUE,TRUE,TRUE,TRUE
10,4,1,0.81750589999956,"['n']",1,"right","['e']",0,0.378721500000211,0.2,0,0,"FastFast",1,17,"Woman","Right",NA,5,TRUE,TRUE,TRUE,TRUE
11,4,1,1.26821740000014,"['n']",1,"right","['e']",0,0.426468200000272,0.2,0,0,"FastFast",1,17,"Woman","Right",NA,5,TRUE,TRUE,TRUE,TRUE
12,4,1,1.18475920000037,"['c']",0,"right","['e']",0,0.348927300000469,0.1,1,0,"FastFast",1,17,"Woman","Right",NA,5,TRUE,TRUE,TRUE,TRUE
13,4,1,1.25011329999961,"['c']",0,"right","['e']",0,0.192374899999777,0.2,1,0,"FastFast",1,17,"Woman","Right",NA,5,TRUE,TRUE,TRUE,TRUE
14,4,1,1.0176663000002,"['c']",1,"left","['u']",1,0.62588229999983,0.4,1,0,"FastFast",1,17,"Woman","Right",NA,5,TRUE,TRUE,TRUE,TRUE
15,4,1,1.24983870000051,"['c']",1,"left","['u']",1,0.586417499999698,0.4,1,0,"FastFast",1,17,"Woman","Right",NA,5,TRUE,TRUE,TRUE,TRUE
16,4,1,1.15124629999991,"['n']",0,"left","['e']",0,0.326910400000088,0.2,1,0,"FastFast",1,17,"Woman","Right",NA,5,TRUE,TRUE,TRUE,TRUE
17,4,1,0.883374999999432,"['n']",1,"right","['u']",1,0.666303599999992,0.1,1,0,"FastFast",1,17,"Woman","Right",NA,5,TRUE,TRUE,TRUE,TRUE
18,4,1,0.65154259999963,"['n']",1,"right","['u']",1,0.183018199999424,0.4,1,0,"FastFast",1,17,"Woman","Right",NA,5,TRUE,TRUE,TRUE,TRUE
19,4,1,0.751032200000736,"['n']",1,"right","['u']",1,0.196295499999906,0.4,1,0,"FastFast",1,17,"Woman","Right",NA,5,TRUE,TRUE,TRUE,TRUE
20,4,1,0.950899800000116,"['c']",1,"left","['u']",1,0.345208700000512,0.2,1,0,"FastFast",1,17,"Woman","Right",NA,5,TRUE,TRUE,TRUE,TRUE
21,4,1,0.734743299999536,"['c']",1,"left","['u']",1,0.144151800000145,0.4,1,0,"FastFast",1,17,"Woman","Right",NA,5,TRUE,TRUE,TRUE,TRUE
22,4,1,0.883497300000272,"['c']",0,"right","['u']",1,0.154203299999608,0.1,0,0,"FastFast",1,17,"Woman","Right",NA,5,TRUE,TRUE,TRUE,TRUE
23,4,1,0.884942200000296,"['c']",0,"right","['u']",1,0.178837599999497,0.2,0,0,"FastFast",1,17,"Woman","Right",NA,5,TRUE,TRUE,TRUE,TRUE
24,4,1,1.31589470000017,"['c']",1,"left","['e']",0,0.586242899999888,0.2,0,0,"FastFast",1,17,"Woman","Right",NA,5,TRUE,TRUE,TRUE,TRUE
25,4,1,1.1162032000002,"['c']",1,"left","['e']",0,0.152544999999918,0.2,0,0,"FastFast",1,17,"Woman","Right",NA,5,TRUE,TRUE,TRUE,TRUE
26,4,1,0.95104850000007,"['c']",1,"left","['e']",0,0.65530839999974,0.4,0,0,"FastFast",1,17,"Woman","Right",NA,5,TRUE,TRUE,TRUE,TRUE
27,4,1,0.733420000000478,"['n']",1,"right","['e']",0,0.185432900000706,0.2,0,0,"FastFast",1,17,"Woman","Right",NA,5,TRUE,TRUE,TRUE,TRUE
28,4,1,1.11820400000033,"['c']",0,"right","['e']",0,0.375922600000195,0.1,1,0,"FastFast",1,17,"Woman","Right",NA,5,TRUE,TRUE,TRUE,TRUE
29,4,1,0.751071700000466,"['c']",1,"left","['e']",0,0.189535200000137,0.1,0,0,"FastFast",1,17,"Woman","Right",NA,5,TRUE,TRUE,TRUE,TRUE
30,4,1,1.05065399999967,"['n']",1,"right","['e']",0,0.158584400000109,0.1,0,0,"FastFast",1,17,"Woman","Right",NA,5,TRUE,TRUE,TRUE,TRUE
31,4,1,1.01698459999989,"['n']",0,"left","['e']",0,0.146652000000358,0.4,1,0,"FastFast",1,17,"Woman","Right",NA,5,TRUE,TRUE,TRUE,TRUE
32,4,1,1.04923710000003,"['n']",0,"left","['u']",1,0.64586270000018,0.2,0,0,"FastFast",1,17,"Woman","Right",NA,5,TRUE,TRUE,TRUE,TRUE
33,4,1,0.90235709999979,"['n']",1,"right","['u']",1,0.153510900000583,0.2,1,0,"FastFast",1,17,"Woman","Right",NA,5,TRUE,TRUE,TRUE,TRUE
34,4,1,1.1340511999997,"['n']",0,"left","['e']",0,0.264647199999672,0.4,1,0,"FastFast",1,17,"Woman","Right",NA,5,TRUE,TRUE,TRUE,TRUE
35,4,1,1.26703710000038,"['n']",0,"left","['e']",0,0.238376100000096,0.2,1,0,"FastFast",1,17,"Woman","Right",NA,5,TRUE,TRUE,TRUE,TRUE
36,4,1,1.03462769999987,"['n']",0,"left","['e']",0,0.109175600000526,0.1,1,0,"FastFast",1,17,"Woman","Right",NA,5,TRUE,TRUE,TRUE,TRUE
37,4,1,0.984622599999966,"['n']",1,"right","['u']",1,0.324273100000028,0.1,1,0,"FastFast",1,17,"Woman","Right",NA,5,TRUE,TRUE,TRUE,TRUE
38,4,1,0.917975400000614,"['n']",1,"right","['u']",1,0.149474299999383,0.2,1,0,"FastFast",1,17,"Woman","Right",NA,5,TRUE,TRUE,TRUE,TRUE
39,4,1,1.00120150000021,"['n']",0,"left","['u']",1,0.201780300000792,0.2,0,0,"FastFast",1,17,"Woman","Right",NA,5,TRUE,TRUE,TRUE,TRUE
40,4,1,0.884231900000486,"['n']",0,"left","['u']",1,0.144727900000362,0.1,0,0,"FastFast",1,17,"Woman","Right",NA,5,TRUE,TRUE,TRUE,TRUE
41,4,1,0.866446500000166,"['n']",1,"right","['u']",1,0.122869200000423,0.2,1,0,"FastFast",1,17,"Woman","Right",NA,5,TRUE,TRUE,TRUE,TRUE
42,4,1,1.54995659999986,"['c']",0,"right","['e']",0,0.154396099999758,0.2,1,0,"FastFast",1,17,"Woman","Right",NA,5,TRUE,TRUE,TRUE,TRUE
43,4,1,1.20169290000013,"['n']",1,"right","['u']",1,0.37482639999962,0.1,1,0,"FastFast",1,17,"Woman","Right",NA,5,TRUE,TRUE,TRUE,TRUE
44,4,1,1.3511395000005,"['n']",0,"left","['e']",0,0.388717400000132,0.2,1,0,"FastFast",1,17,"Woman","Right",NA,5,TRUE,TRUE,TRUE,TRUE
45,4,1,0.866299999999683,"['n']",1,"right","['e']",0,0.117270800000369,0.4,0,0,"FastFast",1,17,"Woman","Right",NA,5,TRUE,TRUE,TRUE,TRUE
46,4,1,1.06685599999946,"['n']",0,"left","['e']",0,0.168094900000142,0.4,1,0,"FastFast",1,17,"Woman","Right",NA,5,TRUE,TRUE,TRUE,TRUE
47,4,1,0.967289399999572,"['n']",0,"left","['u']",1,0.333287999999811,0.1,0,0,"FastFast",1,17,"Woman","Right",NA,5,TRUE,TRUE,TRUE,TRUE
48,4,1,1.26714979999997,"['n']",1,"right","['e']",0,0.207920599999852,0.1,0,0,"FastFast",1,17,"Woman","Right",NA,5,TRUE,TRUE,TRUE,TRUE
49,4,1,1.16776250000021,"['c']",1,"left","['e']",0,0.139746799999557,0.1,0,0,"FastFast",1,17,"Woman","Right",NA,5,TRUE,TRUE,TRUE,TRUE
50,4,1,1.38461749999988,"['c']",0,"right","['e']",0,0.129330499999924,0.1,1,0,"FastFast",1,17,"Woman","Right",NA,5,TRUE,TRUE,TRUE,TRUE
51,4,1,0.984575999999834,"['n']",1,"right","['u']",1,0.135739100000137,0.2,1,0,"FastFast",1,17,"Woman","Right",NA,5,TRUE,TRUE,TRUE,TRUE
52,4,1,1.00050379999993,"['n']",1,"right","['e']",0,0.41280370000004,0.4,0,0,"FastFast",1,17,"Woman","Right",NA,5,TRUE,TRUE,TRUE,TRUE
53,4,1,1.10007490000044,"['n']",1,"right","['u']",1,0.14596900000015,0.4,1,0,"FastFast",1,17,"Woman","Right",NA,5,TRUE,TRUE,TRUE,TRUE
54,4,1,0.884392199999638,"['n']",1,"right","['u']",1,0.123003300000164,0.1,1,0,"FastFast",1,17,"Woman","Right",NA,5,TRUE,TRUE,TRUE,TRUE
55,4,1,1.49938320000001,"['c']",0,"right","['e']",0,0.173326900000575,0.1,1,0,"FastFast",1,17,"Woman","Right",NA,5,TRUE,TRUE,TRUE,TRUE
56,4,1,0.949357699999382,"['c']",1,"left","['e']",0,0.147253099999944,0.4,0,0,"FastFast",1,17,"Woman","Right",NA,5,TRUE,TRUE,TRUE,TRUE
57,4,1,1.61606510000001,"['c']",1,"left","['e']",0,0.319122699999753,0.4,0,0,"FastFast",1,17,"Woman","Right",NA,5,TRUE,TRUE,TRUE,TRUE
58,4,1,1.70024879999983,"['n']",0,"left","['e']",0,0.496275299999979,0.1,1,0,"FastFast",1,17,"Woman","Right",NA,5,TRUE,TRUE,TRUE,TRUE
59,4,1,0.950027700000646,"['n']",0,"left","['e']",0,0.121276900000339,0.1,1,0,"FastFast",1,17,"Woman","Right",NA,5,TRUE,TRUE,TRUE,TRUE
0,5,1,1.4673017999994,"['n']",1,"right","['e']",0,0.626767099999597,0.4,0,0,"AccFast",1,17,"Woman","Right",NA,5,TRUE,TRUE,TRUE,TRUE
1,5,1,1.23490109999966,"['n']",1,"right","['u']",1,0.394981700000244,0.1,1,0,"AccFast",1,17,"Woman","Right",NA,5,TRUE,TRUE,TRUE,TRUE
2,5,1,3.33313879999969,"['n']",0,"left","['u']",1,0.45660080000016,0.4,0,0,"AccFast",1,17,"Woman","Right",NA,5,TRUE,TRUE,TRUE,TRUE
3,5,1,1.81642759999977,"['n']",0,"left","['u']",1,0.208515000000261,0.1,0,0,"AccFast",1,17,"Woman","Right",NA,5,TRUE,TRUE,TRUE,TRUE
4,5,1,2.38269900000068,"['c']",1,"left","['e']",0,0.397340100000292,0.4,0,0,"AccFast",1,17,"Woman","Right",NA,5,TRUE,TRUE,TRUE,TRUE
5,5,1,1.6828244999997,"['n']",1,"right","['e']",0,0.188013699999829,0.1,0,0,"AccFast",1,17,"Woman","Right",NA,5,TRUE,TRUE,TRUE,TRUE
6,5,1,2.95015109999986,"['n']",1,"right","['e']",0,0.89718399999947,0.4,0,0,"AccFast",1,17,"Woman","Right",NA,5,TRUE,TRUE,TRUE,TRUE
7,5,1,1.88222709999991,"['c']",0,"right","['e']",0,0.757197599999927,0.1,1,0,"AccFast",1,17,"Woman","Right",NA,5,TRUE,TRUE,TRUE,TRUE
8,5,1,3.24966570000015,"['n']",1,"right","['e']",0,0.79173339999943,0.2,0,0,"AccFast",1,17,"Woman","Right",NA,5,TRUE,TRUE,TRUE,TRUE
9,5,1,2.2499428000001,"['c']",1,"left","['e']",0,0.240945699999429,0.4,0,0,"AccFast",1,17,"Woman","Right",NA,5,TRUE,TRUE,TRUE,TRUE
10,5,1,1.65119239999967,"['c']",1,"left","['u']",1,0.13508019999972,0.4,1,0,"AccFast",1,17,"Woman","Right",NA,5,TRUE,TRUE,TRUE,TRUE
11,5,1,4.76635590000024,"['c']",1,"left","['e']",0,0.582096799999817,0.4,0,0,"AccFast",1,17,"Woman","Right",NA,5,TRUE,TRUE,TRUE,TRUE
12,5,1,2.04962999999952,"['n']",1,"right","['u']",1,0.223332900000059,0.2,1,0,"AccFast",1,17,"Woman","Right",NA,5,TRUE,TRUE,TRUE,TRUE
13,5,1,2.63342860000012,"['c']",1,"left","['u']",1,0.352055300000757,0.1,1,0,"AccFast",1,17,"Woman","Right",NA,5,TRUE,TRUE,TRUE,TRUE
14,5,1,1.74918639999942,"['c']",0,"right","['e']",0,0.30330049999975,0.2,1,0,"AccFast",1,17,"Woman","Right",NA,5,TRUE,TRUE,TRUE,TRUE
15,5,1,2.60093750000033,"['c']",1,"left","['e']",0,0.349446199999875,0.4,0,0,"AccFast",1,17,"Woman","Right",NA,5,TRUE,TRUE,TRUE,TRUE
16,5,1,2.21739870000056,"['n']",1,"right","['e']",0,0.153818800000408,0.1,0,0,"AccFast",1,17,"Woman","Right",NA,5,TRUE,TRUE,TRUE,TRUE
17,5,1,2.00048089999927,"['n']",0,"left","['e']",0,1.09494220000033,0.4,1,0,"AccFast",1,17,"Woman","Right",NA,5,TRUE,TRUE,TRUE,TRUE
18,5,1,2.01738709999972,"['n']",1,"right","['e']",0,0.140336200000093,0.1,0,0,"AccFast",1,17,"Woman","Right",NA,5,TRUE,TRUE,TRUE,TRUE
19,5,1,1.70074120000027,"['c']",1,"left","['u']",1,0.182304800000566,0.2,1,0,"AccFast",1,17,"Woman","Right",NA,5,TRUE,TRUE,TRUE,TRUE
20,5,1,2.84877680000045,"['n']",1,"right","['u']",1,0.207671400000436,0.2,1,0,"AccFast",1,17,"Woman","Right",NA,5,TRUE,TRUE,TRUE,TRUE
22,5,1,1.3845566,"['n']",0,"left","['e']",0,0.220816400000331,0.4,1,0,"AccFast",1,17,"Woman","Right",NA,5,TRUE,TRUE,TRUE,TRUE
23,5,1,1.63432360000024,"['c']",0,"right","['e']",0,0.197954999999638,0.4,1,0,"AccFast",1,17,"Woman","Right",NA,5,TRUE,TRUE,TRUE,TRUE
24,5,1,1.78359510000064,"['n']",1,"right","['e']",0,0.296478799999932,0.1,0,0,"AccFast",1,17,"Woman","Right",NA,5,TRUE,TRUE,TRUE,TRUE
25,5,1,1.60152240000025,"['n']",1,"right","['e']",0,0.190833100000418,0.1,0,0,"AccFast",1,17,"Woman","Right",NA,5,TRUE,TRUE,TRUE,TRUE
26,5,1,1.2685464999995,"['c']",1,"left","['u']",1,0.375998600000457,0.4,1,0,"AccFast",1,17,"Woman","Right",NA,5,TRUE,TRUE,TRUE,TRUE
27,5,1,1.73518880000029,"['n']",1,"right","['e']",0,0.406310700000176,0.4,0,0,"AccFast",1,17,"Woman","Right",NA,5,TRUE,TRUE,TRUE,TRUE
28,5,1,1.46639309999955,"['c']",0,"right","['e']",0,0.189639500000339,0.1,1,0,"AccFast",1,17,"Woman","Right",NA,5,TRUE,TRUE,TRUE,TRUE
29,5,1,1.86778959999992,"['c']",1,"left","['e']",0,0.206248399999822,0.2,0,0,"AccFast",1,17,"Woman","Right",NA,5,TRUE,TRUE,TRUE,TRUE
30,5,1,1.58433669999977,"['n']",1,"right","['e']",0,0.21737419999954,0.4,0,0,"AccFast",1,17,"Woman","Right",NA,5,TRUE,TRUE,TRUE,TRUE
31,5,1,1.86698800000067,"['n']",0,"left","['e']",0,0.233013799999753,0.2,1,0,"AccFast",1,17,"Woman","Right",NA,5,TRUE,TRUE,TRUE,TRUE
32,5,1,1.60128170000007,"['n']",0,"left","['e']",0,0.178061499999785,0.1,1,0,"AccFast",1,17,"Woman","Right",NA,5,TRUE,TRUE,TRUE,TRUE
33,5,1,1.80121899999995,"['c']",1,"left","['e']",0,0.357884699999886,0.4,0,0,"AccFast",1,17,"Woman","Right",NA,5,TRUE,TRUE,TRUE,TRUE
34,5,1,1.10025029999997,"['n']",1,"right","['u']",1,0.206010800000513,0.2,1,0,"AccFast",1,17,"Woman","Right",NA,5,TRUE,TRUE,TRUE,TRUE
35,5,1,1.33447530000012,"['n']",1,"right","['u']",1,0.227450200000021,0.2,1,0,"AccFast",1,17,"Woman","Right",NA,5,TRUE,TRUE,TRUE,TRUE
36,5,1,1.51591929999995,"['n']",0,"left","['u']",1,0.161051500000212,0.1,0,0,"AccFast",1,17,"Woman","Right",NA,5,TRUE,TRUE,TRUE,TRUE
37,5,1,1.08421080000062,"['n']",0,"left","['e']",0,0.0977358000000095,0.1,1,0,"AccFast",1,17,"Woman","Right",NA,5,TRUE,TRUE,TRUE,TRUE
38,5,1,1.26813220000076,"['n']",1,"right","['e']",0,0.189116000000467,0.2,0,0,"AccFast",1,17,"Woman","Right",NA,5,TRUE,TRUE,TRUE,TRUE
39,5,1,1.41696239999965,"['n']",1,"right","['u']",1,0.159635999999409,0.2,1,0,"AccFast",1,17,"Woman","Right",NA,5,TRUE,TRUE,TRUE,TRUE
40,5,1,1.88318030000028,"['c']",1,"left","['e']",0,0.241637799999808,0.2,0,0,"AccFast",1,17,"Woman","Right",NA,5,TRUE,TRUE,TRUE,TRUE
41,5,1,1.24930719999975,"['n']",1,"right","['e']",0,0.137529100000393,0.2,0,0,"AccFast",1,17,"Woman","Right",NA,5,TRUE,TRUE,TRUE,TRUE
42,5,1,1.51575669999966,"['c']",1,"left","['e']",0,0.185158799999954,0.2,0,0,"AccFast",1,17,"Woman","Right",NA,5,TRUE,TRUE,TRUE,TRUE
43,5,1,1.80145479999919,"['c']",1,"left","['e']",0,0.171919799999159,0.1,0,0,"AccFast",1,17,"Woman","Right",NA,5,TRUE,TRUE,TRUE,TRUE
44,5,1,1.43384739999965,"['n']",1,"right","['e']",0,0.206167300000743,0.4,0,0,"AccFast",1,17,"Woman","Right",NA,5,TRUE,TRUE,TRUE,TRUE
45,5,1,1.04920110000057,"['n']",1,"right","['u']",1,0.159432899999956,0.1,1,0,"AccFast",1,17,"Woman","Right",NA,5,TRUE,TRUE,TRUE,TRUE
46,5,1,1.30007579999983,"['c']",1,"left","['e']",0,0.167512399999396,0.1,0,0,"AccFast",1,17,"Woman","Right",NA,5,TRUE,TRUE,TRUE,TRUE
47,5,1,1.26594549999936,"['c']",1,"left","['e']",0,0.161564199999702,0.2,0,0,"AccFast",1,17,"Woman","Right",NA,5,TRUE,TRUE,TRUE,TRUE
48,5,1,1.14999609999995,"['c']",1,"left","['e']",0,0.158670299999358,0.1,0,0,"AccFast",1,17,"Woman","Right",NA,5,TRUE,TRUE,TRUE,TRUE
49,5,1,1.96926239999993,"['n']",1,"right","['e']",0,0.157008700000006,0.2,0,0,"AccFast",1,17,"Woman","Right",NA,5,TRUE,TRUE,TRUE,TRUE
50,5,1,2.31776429999991,"['c']",0,"right","['e']",0,0.172587300000487,0.2,1,0,"AccFast",1,17,"Woman","Right",NA,5,TRUE,TRUE,TRUE,TRUE
51,5,1,1.39961859999949,"['n']",1,"right","['e']",0,0.128940600000533,0.4,0,0,"AccFast",1,17,"Woman","Right",NA,5,TRUE,TRUE,TRUE,TRUE
52,5,1,1.30131679999977,"['n']",1,"right","['e']",0,0.153560200000356,0.4,0,0,"AccFast",1,17,"Woman","Right",NA,5,TRUE,TRUE,TRUE,TRUE
53,5,1,1.39986360000057,"['c']",1,"left","['u']",1,0.142707500000142,0.4,1,0,"AccFast",1,17,"Woman","Right",NA,5,TRUE,TRUE,TRUE,TRUE
54,5,1,1.45049870000003,"['c']",0,"right","['e']",0,0.256951100000151,0.2,1,0,"AccFast",1,17,"Woman","Right",NA,5,TRUE,TRUE,TRUE,TRUE
55,5,1,1.91704090000076,"['n']",1,"right","['e']",0,0.204872600000272,0.4,0,0,"AccFast",1,17,"Woman","Right",NA,5,TRUE,TRUE,TRUE,TRUE
56,5,1,2.05086349999965,"['c']",1,"left","['e']",0,0.165402399999948,0.2,0,0,"AccFast",1,17,"Woman","Right",NA,5,TRUE,TRUE,TRUE,TRUE
57,5,1,2.53379570000016,"['c']",1,"left","['e']",0,0.588523899999927,0.1,0,0,"AccFast",1,17,"Woman","Right",NA,5,TRUE,TRUE,TRUE,TRUE
58,5,1,1.58350380000047,"['c']",1,"left","['e']",0,0.183986400000322,0.2,0,0,"AccFast",1,17,"Woman","Right",NA,5,TRUE,TRUE,TRUE,TRUE
59,5,1,1.23409019999963,"['n']",0,"left","['u']",1,0.274570399999902,0.1,0,0,"AccFast",1,17,"Woman","Right",NA,5,TRUE,TRUE,TRUE,TRUE
0,6,1,2.33304250000037,"['c']",1,"left","['u']",1,2.29267499999969,0.1,1,0,"AccAcc",1,17,"Woman","Right",NA,5,TRUE,TRUE,TRUE,TRUE
1,6,1,2.71620499999972,"['n']",1,"right","['e']",0,0.463011600000755,0.1,0,0,"AccAcc",1,17,"Woman","Right",NA,5,TRUE,TRUE,TRUE,TRUE
2,6,1,1.76747299999988,"['n']",0,"left","['e']",0,1.41617219999989,0.1,1,0,"AccAcc",1,17,"Woman","Right",NA,5,TRUE,TRUE,TRUE,TRUE
3,6,1,2.08374829999957,"['n']",0,"left","['e']",0,0.479041499999767,0.1,1,0,"AccAcc",1,17,"Woman","Right",NA,5,TRUE,TRUE,TRUE,TRUE
4,6,1,2.04922619999979,"['n']",0,"left","['e']",0,0.333565800000542,0.2,1,0,"AccAcc",1,17,"Woman","Right",NA,5,TRUE,TRUE,TRUE,TRUE
5,6,1,1.5522903000001,"['c']",1,"left","['u']",1,0.195297999999639,0.4,1,0,"AccAcc",1,17,"Woman","Right",NA,5,TRUE,TRUE,TRUE,TRUE
6,6,1,2.60084220000044,"['n']",1,"right","['u']",1,1.54277319999983,0.4,1,0,"AccAcc",1,17,"Woman","Right",NA,5,TRUE,TRUE,TRUE,TRUE
7,6,1,2.11786829999983,"['n']",0,"left","['u']",1,0.43910169999981,0.2,0,0,"AccAcc",1,17,"Woman","Right",NA,5,TRUE,TRUE,TRUE,TRUE
8,6,1,1.76693109999997,"['n']",0,"left","['e']",0,0.449336599999697,0.1,1,0,"AccAcc",1,17,"Woman","Right",NA,5,TRUE,TRUE,TRUE,TRUE
9,6,1,0.883895800000573,"['c']",1,"left","['u']",1,0.158307100000457,0.4,1,0,"AccAcc",1,17,"Woman","Right",NA,5,TRUE,TRUE,TRUE,TRUE
10,6,1,2.61649039999975,"['n']",1,"right","['e']",0,0.595468299999993,0.1,0,0,"AccAcc",1,17,"Woman","Right",NA,5,TRUE,TRUE,TRUE,TRUE
11,6,1,1.18483650000053,"['n']",0,"left","['e']",0,0.190305299999636,0.1,1,0,"AccAcc",1,17,"Woman","Right",NA,5,TRUE,TRUE,TRUE,TRUE
12,6,1,1.33425999999963,"['n']",1,"right","['e']",0,0.339975400000185,0.1,0,0,"AccAcc",1,17,"Woman","Right",NA,5,TRUE,TRUE,TRUE,TRUE
13,6,1,1.80140269999993,"['n']",1,"right","['e']",0,0.177112499999566,0.1,0,0,"AccAcc",1,17,"Woman","Right",NA,5,TRUE,TRUE,TRUE,TRUE
14,6,1,1.48440949999986,"['n']",1,"right","['e']",0,0.193830600000183,0.2,0,0,"AccAcc",1,17,"Woman","Right",NA,5,TRUE,TRUE,TRUE,TRUE
15,6,1,1.15093160000015,"['n']",1,"right","['e']",0,0.20693829999982,0.2,0,0,"AccAcc",1,17,"Woman","Right",NA,5,TRUE,TRUE,TRUE,TRUE
16,6,1,1.58437229999981,"['n']",1,"right","['e']",0,0.202374800000143,0.2,0,0,"AccAcc",1,17,"Woman","Right",NA,5,TRUE,TRUE,TRUE,TRUE
17,6,1,1.3168085999996,"['c']",1,"left","['e']",0,0.207763899999918,0.1,0,0,"AccAcc",1,17,"Woman","Right",NA,5,TRUE,TRUE,TRUE,TRUE
18,6,1,1.55177449999974,"['c']",1,"left","['u']",1,0.301135099999556,0.4,1,0,"AccAcc",1,17,"Woman","Right",NA,5,TRUE,TRUE,TRUE,TRUE
19,6,1,1.36775279999983,"['n']",1,"right","['e']",0,0.316049699999894,0.2,0,0,"AccAcc",1,17,"Woman","Right",NA,5,TRUE,TRUE,TRUE,TRUE
20,6,1,1.50037340000017,"['c']",1,"left","['e']",0,0.678203200000098,0.4,0,0,"AccAcc",1,17,"Woman","Right",NA,5,TRUE,TRUE,TRUE,TRUE
21,6,1,1.58348569999998,"['n']",0,"left","['u']",1,0.43053510000027,0.4,0,0,"AccAcc",1,17,"Woman","Right",NA,5,TRUE,TRUE,TRUE,TRUE
22,6,1,1.55160599999999,"['n']",1,"right","['e']",0,0.209701900000255,0.1,0,0,"AccAcc",1,17,"Woman","Right",NA,5,TRUE,TRUE,TRUE,TRUE
23,6,1,1.48445050000009,"['n']",0,"left","['e']",0,0.304866999999831,0.1,1,0,"AccAcc",1,17,"Woman","Right",NA,5,TRUE,TRUE,TRUE,TRUE
24,6,1,1.48272489999999,"['c']",1,"left","['e']",0,0.252850800000488,0.4,0,0,"AccAcc",1,17,"Woman","Right",NA,5,TRUE,TRUE,TRUE,TRUE
25,6,1,2.71718279999914,"['c']",1,"left","['e']",0,0.424034499999834,0.1,0,0,"AccAcc",1,17,"Woman","Right",NA,5,TRUE,TRUE,TRUE,TRUE
26,6,1,1.1514930000003,"['n']",0,"left","['u']",1,0.235778100000061,0.2,0,0,"AccAcc",1,17,"Woman","Right",NA,5,TRUE,TRUE,TRUE,TRUE
27,6,1,1.33404369999971,"['c']",1,"left","['u']",1,0.255716300000131,0.4,1,0,"AccAcc",1,17,"Woman","Right",NA,5,TRUE,TRUE,TRUE,TRUE
28,6,1,1.35162669999954,"['n']",0,"left","['e']",0,0.290076299999782,0.4,1,0,"AccAcc",1,17,"Woman","Right",NA,5,TRUE,TRUE,TRUE,TRUE
29,6,1,1.74947780000002,"['c']",1,"left","['e']",0,0.804813900000227,0.4,0,0,"AccAcc",1,17,"Woman","Right",NA,5,TRUE,TRUE,TRUE,TRUE
30,6,1,1.80010740000034,"['n']",1,"right","['e']",0,0.398317600000155,0.2,0,0,"AccAcc",1,17,"Woman","Right",NA,5,TRUE,TRUE,TRUE,TRUE
31,6,1,1.43324440000015,"['n']",0,"left","['e']",0,0.568008000000191,0.2,1,0,"AccAcc",1,17,"Woman","Right",NA,5,TRUE,TRUE,TRUE,TRUE
32,6,1,1.39989629999945,"['n']",1,"right","['e']",0,0.203414200000225,0.4,0,0,"AccAcc",1,17,"Woman","Right",NA,5,TRUE,TRUE,TRUE,TRUE
33,6,1,1.2510572000001,"['n']",1,"right","['e']",0,0.275502899999992,0.2,0,0,"AccAcc",1,17,"Woman","Right",NA,5,TRUE,TRUE,TRUE,TRUE
34,6,1,1.4162709000002,"['n']",1,"right","['e']",0,0.19518269999935,0.2,0,0,"AccAcc",1,17,"Woman","Right",NA,5,TRUE,TRUE,TRUE,TRUE
35,6,1,1.3501940999995,"['n']",1,"right","['e']",0,0.200494300000173,0.2,0,0,"AccAcc",1,17,"Woman","Right",NA,5,TRUE,TRUE,TRUE,TRUE
36,6,1,1.55065899999954,"['c']",0,"right","['e']",0,0.212422499999775,0.1,1,0,"AccAcc",1,17,"Woman","Right",NA,5,TRUE,TRUE,TRUE,TRUE
37,6,1,1.41774339999938,"['c']",1,"left","['u']",1,0.182122700000036,0.2,1,0,"AccAcc",1,17,"Woman","Right",NA,5,TRUE,TRUE,TRUE,TRUE
38,6,1,1.65113500000007,"['c']",0,"right","['e']",0,0.462528600000041,0.2,1,0,"AccAcc",1,17,"Woman","Right",NA,5,TRUE,TRUE,TRUE,TRUE
39,6,1,1.1011512999994,"['n']",1,"right","['u']",1,0.2423830000007,0.2,1,0,"AccAcc",1,17,"Woman","Right",NA,5,TRUE,TRUE,TRUE,TRUE
40,6,1,2.11770109999998,"['c']",1,"left","['e']",0,0.406968799999959,0.1,0,0,"AccAcc",1,17,"Woman","Right",NA,5,TRUE,TRUE,TRUE,TRUE
41,6,1,1.24987959999999,"['n']",1,"right","['u']",1,0.344129899999643,0.4,1,0,"AccAcc",1,17,"Woman","Right",NA,5,TRUE,TRUE,TRUE,TRUE
42,6,1,1.23442950000026,"['n']",1,"right","['u']",1,0.203201700000136,0.4,1,0,"AccAcc",1,17,"Woman","Right",NA,5,TRUE,TRUE,TRUE,TRUE
43,6,1,1.91769349999959,"['n']",1,"right","['e']",0,0.24913160000051,0.2,0,0,"AccAcc",1,17,"Woman","Right",NA,5,TRUE,TRUE,TRUE,TRUE
44,6,1,1.41644480000014,"['n']",1,"right","['e']",0,0.217681699999957,0.1,0,0,"AccAcc",1,17,"Woman","Right",NA,5,TRUE,TRUE,TRUE,TRUE
45,6,1,1.38445400000001,"['n']",0,"left","['u']",1,0.236165299999811,0.2,0,0,"AccAcc",1,17,"Woman","Right",NA,5,TRUE,TRUE,TRUE,TRUE
46,6,1,1.38447149999956,"['n']",0,"left","['e']",0,0.269128500000079,0.2,1,0,"AccAcc",1,17,"Woman","Right",NA,5,TRUE,TRUE,TRUE,TRUE
47,6,1,1.48259390000021,"['n']",0,"left","['e']",0,0.618516999999883,0.1,1,0,"AccAcc",1,17,"Woman","Right",NA,5,TRUE,TRUE,TRUE,TRUE
48,6,1,2.11585910000031,"['c']",1,"left","['e']",0,0.335521799999697,0.2,0,0,"AccAcc",1,17,"Woman","Right",NA,5,TRUE,TRUE,TRUE,TRUE
49,6,1,1.23286850000022,"['n']",1,"right","['e']",0,0.19563670000025,0.2,0,0,"AccAcc",1,17,"Woman","Right",NA,5,TRUE,TRUE,TRUE,TRUE
50,6,1,1.13177589999941,"['c']",1,"left","['e']",0,0.257127199999559,0.1,0,0,"AccAcc",1,17,"Woman","Right",NA,5,TRUE,TRUE,TRUE,TRUE
51,6,1,1.35166240000035,"['n']",1,"right","['e']",0,0.722455500000251,0.4,0,0,"AccAcc",1,17,"Woman","Right",NA,5,TRUE,TRUE,TRUE,TRUE
52,6,1,1.70057330000054,"['c']",0,"right","['u']",1,0.245004700000209,0.4,0,0,"AccAcc",1,17,"Woman","Right",NA,5,TRUE,TRUE,TRUE,TRUE
53,6,1,2.10138719999941,"['c']",0,"right","['e']",0,0.201526199999535,0.4,1,0,"AccAcc",1,17,"Woman","Right",NA,5,TRUE,TRUE,TRUE,TRUE
54,6,1,1.6681166999997,"['n']",0,"left","['e']",0,0.257388999999421,0.4,1,0,"AccAcc",1,17,"Woman","Right",NA,5,TRUE,TRUE,TRUE,TRUE
55,6,1,1.31766349999998,"['n']",1,"right","['e']",0,0.357176800000161,0.4,0,0,"AccAcc",1,17,"Woman","Right",NA,5,TRUE,TRUE,TRUE,TRUE
56,6,1,1.41764789999979,"['n']",1,"right","['u']",1,0.224995399999898,0.4,1,0,"AccAcc",1,17,"Woman","Right",NA,5,TRUE,TRUE,TRUE,TRUE
57,6,1,1.19844560000001,"['n']",1,"right","['e']",0,1.38826710000012,0.4,0,0,"AccAcc",1,17,"Woman","Right",NA,5,TRUE,TRUE,TRUE,TRUE
58,6,1,1.2832199000004,"['n']",0,"left","['e']",0,0.227545699999609,0.1,1,0,"AccAcc",1,17,"Woman","Right",NA,5,TRUE,TRUE,TRUE,TRUE
59,6,1,1.55004960000042,"['n']",1,"right","['e']",0,0.174548700000742,0.1,0,0,"AccAcc",1,17,"Woman","Right",NA,5,TRUE,TRUE,TRUE,TRUE
0,7,1,0.499871099999837,"['n']",0,"left","['u']",1,1.39035479999984,0.2,0,0,"FastAcc",1,17,"Woman","Right",NA,5,TRUE,TRUE,TRUE,TRUE
1,7,1,1.13446629999999,"['n']",1,"right","['e']",0,0.747563599999921,0.4,0,0,"FastAcc",1,17,"Woman","Right",NA,5,TRUE,TRUE,TRUE,TRUE
2,7,1,1.23477290000028,"['n']",1,"right","['u']",1,2.4948703,0.4,1,0,"FastAcc",1,17,"Woman","Right",NA,5,TRUE,TRUE,TRUE,TRUE
3,7,1,0.784111799999664,"['c']",1,"left","['u']",1,0.622362500000236,0.4,1,0,"FastAcc",1,17,"Woman","Right",NA,5,TRUE,TRUE,TRUE,TRUE
4,7,1,0.867624000000433,"['n']",0,"left","['e']",0,0.533492800000204,0.4,1,0,"FastAcc",1,17,"Woman","Right",NA,5,TRUE,TRUE,TRUE,TRUE
5,7,1,1.90066000000024,"['n']",0,"left","['e']",0,0.406717999999273,0.1,1,0,"FastAcc",1,17,"Woman","Right",NA,5,TRUE,TRUE,TRUE,TRUE
6,7,1,1.46656129999974,"['c']",1,"left","['e']",0,0.383326999999554,0.2,0,0,"FastAcc",1,17,"Woman","Right",NA,5,TRUE,TRUE,TRUE,TRUE
7,7,1,0.900152000000162,"['n']",1,"right","['u']",1,0.430409399999917,0.4,1,0,"FastAcc",1,17,"Woman","Right",NA,5,TRUE,TRUE,TRUE,TRUE
8,7,1,1.09929720000036,"['c']",1,"left","['e']",0,1.05957130000024,0.1,0,0,"FastAcc",1,17,"Woman","Right",NA,5,TRUE,TRUE,TRUE,TRUE
9,7,1,1.15101180000056,"['n']",0,"left","['e']",0,0.317273800000294,0.1,1,0,"FastAcc",1,17,"Woman","Right",NA,5,TRUE,TRUE,TRUE,TRUE
10,7,1,1.08399569999983,"['n']",1,"right","['e']",0,0.359729300000254,0.2,0,0,"FastAcc",1,17,"Woman","Right",NA,5,TRUE,TRUE,TRUE,TRUE
11,7,1,0.56727520000004,"['n']",0,"left","['u']",1,0.549612499999967,0.2,0,0,"FastAcc",1,17,"Woman","Right",NA,5,TRUE,TRUE,TRUE,TRUE
12,7,1,0.900259400000323,"['c']",0,"right","['e']",0,0.285854900000231,0.2,1,0,"FastAcc",1,17,"Woman","Right",NA,5,TRUE,TRUE,TRUE,TRUE
13,7,1,1.00114830000075,"['n']",1,"right","['e']",0,0.236929600000622,0.4,0,0,"FastAcc",1,17,"Woman","Right",NA,5,TRUE,TRUE,TRUE,TRUE
14,7,1,0.934217500000159,"['c']",0,"right","['e']",0,0.288736299999982,0.1,1,0,"FastAcc",1,17,"Woman","Right",NA,5,TRUE,TRUE,TRUE,TRUE
15,7,1,0.950105099999746,"['n']",1,"right","['e']",0,0.273744200000692,0.1,0,0,"FastAcc",1,17,"Woman","Right",NA,5,TRUE,TRUE,TRUE,TRUE
16,7,1,1.00114570000005,"['n']",1,"right","['e']",0,0.321632800000771,0.1,0,0,"FastAcc",1,17,"Woman","Right",NA,5,TRUE,TRUE,TRUE,TRUE
17,7,1,0.834286700000121,"['n']",1,"right","['e']",0,1.09386660000018,0.2,0,0,"FastAcc",1,17,"Woman","Right",NA,5,TRUE,TRUE,TRUE,TRUE
18,7,1,0.817339700000048,"['c']",0,"right","['u']",1,2.07673710000017,0.2,0,0,"FastAcc",1,17,"Woman","Right",NA,5,TRUE,TRUE,TRUE,TRUE
19,7,1,1.28478249999989,"['c']",0,"right","['e']",0,0.841250200000104,0.2,1,0,"FastAcc",1,17,"Woman","Right",NA,5,TRUE,TRUE,TRUE,TRUE
20,7,1,0.884089700000004,"['c']",1,"left","['u']",1,0.215348800000356,0.4,1,0,"FastAcc",1,17,"Woman","Right",NA,5,TRUE,TRUE,TRUE,TRUE
21,7,1,1.13428419999946,"['c']",1,"left","['u']",1,0.707583299999897,0.4,1,0,"FastAcc",1,17,"Woman","Right",NA,5,TRUE,TRUE,TRUE,TRUE
22,7,1,1.16775150000012,"['n']",1,"right","['u']",1,1.65931899999941,0.2,1,0,"FastAcc",1,17,"Woman","Right",NA,5,TRUE,TRUE,TRUE,TRUE
23,7,1,1.68505199999981,"['c']",0,"right","['e']",0,0.552568500000234,0.1,1,0,"FastAcc",1,17,"Woman","Right",NA,5,TRUE,TRUE,TRUE,TRUE
24,7,1,1.08214810000027,"['n']",0,"left","['e']",0,0.378812900000412,0.4,1,0,"FastAcc",1,17,"Woman","Right",NA,5,TRUE,TRUE,TRUE,TRUE
25,7,1,0.666381600000022,"['n']",1,"right","['u']",1,0.402855799999998,0.2,1,0,"FastAcc",1,17,"Woman","Right",NA,5,TRUE,TRUE,TRUE,TRUE
26,7,1,1.11701579999954,"['c']",0,"right","['e']",0,0.24868940000033,0.1,1,0,"FastAcc",1,17,"Woman","Right",NA,5,TRUE,TRUE,TRUE,TRUE
27,7,1,1.23318620000009,"['n']",1,"right","['e']",0,0.400102100000367,0.4,0,0,"FastAcc",1,17,"Woman","Right",NA,5,TRUE,TRUE,TRUE,TRUE
28,7,1,1.25043170000026,"['n']",0,"left","['e']",0,0.720286400000077,0.4,1,0,"FastAcc",1,17,"Woman","Right",NA,5,TRUE,TRUE,TRUE,TRUE
29,7,1,1.11591570000019,"['n']",1,"right","['u']",1,1.13093140000001,0.1,1,0,"FastAcc",1,17,"Woman","Right",NA,5,TRUE,TRUE,TRUE,TRUE
30,7,1,1.50126940000064,"['c']",1,"left","['u']",1,1.26710000000003,0.1,1,0,"FastAcc",1,17,"Woman","Right",NA,5,TRUE,TRUE,TRUE,TRUE
31,7,1,1.21816219999982,"['n']",0,"left","['u']",1,1.79447569999957,0.2,0,0,"FastAcc",1,17,"Woman","Right",NA,5,TRUE,TRUE,TRUE,TRUE
32,7,1,1.1338052000001,"['n']",0,"left","['u']",1,2.11300369999935,0.2,0,0,"FastAcc",1,17,"Woman","Right",NA,5,TRUE,TRUE,TRUE,TRUE
33,7,1,1.01782739999999,"['c']",0,"right","['e']",0,1.20560079999996,0.4,1,0,"FastAcc",1,17,"Woman","Right",NA,5,TRUE,TRUE,TRUE,TRUE
34,7,1,0.568082599999798,"['n']",0,"left","['e']",0,0.593591100000594,0.1,1,0,"FastAcc",1,17,"Woman","Right",NA,5,TRUE,TRUE,TRUE,TRUE
35,7,1,0.734022399999958,"['c']",1,"left","['e']",0,1.48711700000058,0.1,0,0,"FastAcc",1,17,"Woman","Right",NA,5,TRUE,TRUE,TRUE,TRUE
36,7,1,0.867888599999787,"['n']",1,"right","['u']",1,2.03720950000024,0.2,1,0,"FastAcc",1,17,"Woman","Right",NA,5,TRUE,TRUE,TRUE,TRUE
37,7,1,1.16835160000028,"['n']",0,"left","['e']",0,0.598594699999921,0.2,1,0,"FastAcc",1,17,"Woman","Right",NA,5,TRUE,TRUE,TRUE,TRUE
38,7,1,0.681984499999999,"['n']",0,"left","['e']",0,0.678358299999672,0.1,1,0,"FastAcc",1,17,"Woman","Right",NA,5,TRUE,TRUE,TRUE,TRUE
39,7,1,0.850113399999827,"['c']",1,"left","['e']",0,1.05226700000003,0.4,0,0,"FastAcc",1,17,"Woman","Right",NA,5,TRUE,TRUE,TRUE,TRUE
40,7,1,1.60113579999961,"['n']",0,"left","['e']",0,1.57283530000041,0.1,1,0,"FastAcc",1,17,"Woman","Right",NA,5,TRUE,TRUE,TRUE,TRUE
41,7,1,1.00182239999958,"['c']",0,"right","['e']",0,1.35980740000014,0.2,1,0,"FastAcc",1,17,"Woman","Right",NA,5,TRUE,TRUE,TRUE,TRUE
42,7,1,0.716508200000135,"['n']",1,"right","['e']",0,0.433188199999677,0.1,0,0,"FastAcc",1,17,"Woman","Right",NA,5,TRUE,TRUE,TRUE,TRUE
43,7,1,0.516764899999544,"['n']",0,"left","['e']",0,0.444621600000573,0.2,1,0,"FastAcc",1,17,"Woman","Right",NA,5,TRUE,TRUE,TRUE,TRUE
44,7,1,0.616240800000014,"['n']",0,"left","['e']",0,0.405678900000567,0.4,1,0,"FastAcc",1,17,"Woman","Right",NA,5,TRUE,TRUE,TRUE,TRUE
45,7,1,0.602182999999968,"['n']",1,"right","['e']",0,0.430894699999953,0.4,0,0,"FastAcc",1,17,"Woman","Right",NA,5,TRUE,TRUE,TRUE,TRUE
46,7,1,0.817211900000075,"['n']",0,"left","['e']",0,0.608038999999735,0.1,1,0,"FastAcc",1,17,"Woman","Right",NA,5,TRUE,TRUE,TRUE,TRUE
47,7,1,0.817388499999652,"['n']",0,"left","['e']",0,1.17697730000054,0.2,1,0,"FastAcc",1,17,"Woman","Right",NA,5,TRUE,TRUE,TRUE,TRUE
48,7,1,1.25007180000011,"['c']",0,"right","['e']",0,0.315015700000004,0.2,1,0,"FastAcc",1,17,"Woman","Right",NA,5,TRUE,TRUE,TRUE,TRUE
49,7,1,0.917496499999288,"['c']",1,"left","['u']",1,0.251949700000296,0.4,1,0,"FastAcc",1,17,"Woman","Right",NA,5,TRUE,TRUE,TRUE,TRUE
50,7,1,0.834622400000626,"['n']",1,"right","['u']",1,1.15515380000033,0.4,1,0,"FastAcc",1,17,"Woman","Right",NA,5,TRUE,TRUE,TRUE,TRUE
51,7,1,0.950604200000271,"['n']",0,"left","['e']",0,1.39355869999963,0.4,1,0,"FastAcc",1,17,"Woman","Right",NA,5,TRUE,TRUE,TRUE,TRUE
52,7,1,1.10129990000041,"['n']",1,"right","['e']",0,0.338262100000065,0.1,0,0,"FastAcc",1,17,"Woman","Right",NA,5,TRUE,TRUE,TRUE,TRUE
53,7,1,0.751395500000399,"['c']",1,"left","['e']",0,1.15990710000005,0.1,0,0,"FastAcc",1,17,"Woman","Right",NA,5,TRUE,TRUE,TRUE,TRUE
54,7,1,1.15162210000017,"['c']",0,"right","['e']",0,0.718646799999988,0.2,1,0,"FastAcc",1,17,"Woman","Right",NA,5,TRUE,TRUE,TRUE,TRUE
55,7,1,0.784562199999527,"['n']",1,"right","['e']",0,2.11707019999994,0.4,0,0,"FastAcc",1,17,"Woman","Right",NA,5,TRUE,TRUE,TRUE,TRUE
56,7,1,0.699325999999928,"['n']",0,"left","['e']",0,0.328456700000061,0.4,1,0,"FastAcc",1,17,"Woman","Right",NA,5,TRUE,TRUE,TRUE,TRUE
57,7,1,1.73479769999994,"['n']",0,"left","['e']",0,0.727454599999874,0.1,1,0,"FastAcc",1,17,"Woman","Right",NA,5,TRUE,TRUE,TRUE,TRUE
58,7,1,0.816616199999771,"['n']",1,"right","['u']",1,0.349398100000144,0.1,1,0,"FastAcc",1,17,"Woman","Right",NA,5,TRUE,TRUE,TRUE,TRUE
59,7,1,1.08452299999954,"['n']",1,"right","['e']",0,0.294545400000061,0.2,0,0,"FastAcc",1,17,"Woman","Right",NA,5,TRUE,TRUE,TRUE,TRUE
0,8,1,0.451141900000039,"['n']",0,"left","['e']",0,0.628273199999967,0.2,1,0,"FastFast",1,17,"Woman","Right",NA,5,TRUE,TRUE,TRUE,TRUE
1,8,1,0.416613899999902,"['n']",1,"right","['u']",1,0.717594499999905,0.1,1,0,"FastFast",1,17,"Woman","Right",NA,5,TRUE,TRUE,TRUE,TRUE
2,8,1,0.766902600000321,"['c']",0,"right","['e']",0,0.91593660000035,0.1,1,0,"FastFast",1,17,"Woman","Right",NA,5,TRUE,TRUE,TRUE,TRUE
3,8,1,0.534114499999305,"['n']",1,"right","['u']",1,0.348909899999853,0.4,1,0,"FastFast",1,17,"Woman","Right",NA,5,TRUE,TRUE,TRUE,TRUE
4,8,1,1.08449490000021,"['n']",1,"right","['e']",0,0.598130299999866,0.2,0,0,"FastFast",1,17,"Woman","Right",NA,5,TRUE,TRUE,TRUE,TRUE
5,8,1,0.634887100000014,"['n']",1,"right","['e']",0,0.982228899999427,0.4,0,0,"FastFast",1,17,"Woman","Right",NA,5,TRUE,TRUE,TRUE,TRUE
6,8,1,0.78414470000007,"['n']",0,"left","['e']",0,0.178848599999583,0.1,1,0,"FastFast",1,17,"Woman","Right",NA,5,TRUE,TRUE,TRUE,TRUE
7,8,1,0.785046799999691,"['c']",0,"right","['e']",0,0.190520799999831,0.2,1,0,"FastFast",1,17,"Woman","Right",NA,5,TRUE,TRUE,TRUE,TRUE
8,8,1,0.86761899999965,"['c']",0,"right","['e']",0,0.230824799999937,0.2,1,0,"FastFast",1,17,"Woman","Right",NA,5,TRUE,TRUE,TRUE,TRUE
9,8,1,0.70083220000015,"['c']",1,"left","['u']",1,0.356087999999545,0.4,1,0,"FastFast",1,17,"Woman","Right",NA,5,TRUE,TRUE,TRUE,TRUE
10,8,1,0.901270100000147,"['c']",1,"left","['e']",0,0.212444299999333,0.1,0,0,"FastFast",1,17,"Woman","Right",NA,5,TRUE,TRUE,TRUE,TRUE
11,8,1,0.767061399999875,"['c']",1,"left","['e']",0,0.20736080000006,0.2,0,0,"FastFast",1,17,"Woman","Right",NA,5,TRUE,TRUE,TRUE,TRUE
12,8,1,0.834341200000381,"['n']",1,"right","['u']",1,0.280387700000574,0.4,1,0,"FastFast",1,17,"Woman","Right",NA,5,TRUE,TRUE,TRUE,TRUE
13,8,1,0.681637800000317,"['n']",1,"right","['u']",1,0.261617000000115,0.4,1,0,"FastFast",1,17,"Woman","Right",NA,5,TRUE,TRUE,TRUE,TRUE
14,8,1,0.85097769999993,"['n']",1,"right","['e']",0,0.188025899999957,0.1,0,0,"FastFast",1,17,"Woman","Right",NA,5,TRUE,TRUE,TRUE,TRUE
15,8,1,0.7334393000001,"['n']",1,"right","['e']",0,0.296307499999784,0.4,0,0,"FastFast",1,17,"Woman","Right",NA,5,TRUE,TRUE,TRUE,TRUE
16,8,1,0.884418100000403,"['n']",0,"left","['u']",1,0.684027000000242,0.1,0,0,"FastFast",1,17,"Woman","Right",NA,5,TRUE,TRUE,TRUE,TRUE
17,8,1,0.916095600000517,"['c']",1,"left","['u']",1,0.606830900000205,0.4,1,0,"FastFast",1,17,"Woman","Right",NA,5,TRUE,TRUE,TRUE,TRUE
18,8,1,1.11785189999955,"['c']",1,"left","['e']",0,0.235579899999721,0.4,0,0,"FastFast",1,17,"Woman","Right",NA,5,TRUE,TRUE,TRUE,TRUE
19,8,1,0.900612299999921,"['n']",1,"right","['u']",1,0.192862900000364,0.2,1,0,"FastFast",1,17,"Woman","Right",NA,5,TRUE,TRUE,TRUE,TRUE
20,8,1,0.716607100000147,"['n']",1,"right","['u']",1,0.176556700000219,0.4,1,0,"FastFast",1,17,"Woman","Right",NA,5,TRUE,TRUE,TRUE,TRUE
21,8,1,0.6842587000001,"['n']",1,"right","['u']",1,0.143458999999893,0.4,1,0,"FastFast",1,17,"Woman","Right",NA,5,TRUE,TRUE,TRUE,TRUE
22,8,1,1.63328780000029,"['n']",0,"left","['u']",1,0.315995599999951,0.2,0,0,"FastFast",1,17,"Woman","Right",NA,5,TRUE,TRUE,TRUE,TRUE
23,8,1,0.751317700000072,"['n']",1,"right","['u']",1,0.179989999999634,0.4,1,0,"FastFast",1,17,"Woman","Right",NA,5,TRUE,TRUE,TRUE,TRUE
24,8,1,1.26679270000022,"['c']",0,"right","['e']",0,0.171271100000013,0.2,1,0,"FastFast",1,17,"Woman","Right",NA,5,TRUE,TRUE,TRUE,TRUE
25,8,1,0.851294600000074,"['n']",1,"right","['e']",0,0.213323500000115,0.4,0,0,"FastFast",1,17,"Woman","Right",NA,5,TRUE,TRUE,TRUE,TRUE
26,8,1,0.817908300000454,"['n']",0,"left","['e']",0,0.175585500000125,0.1,1,0,"FastFast",1,17,"Woman","Right",NA,5,TRUE,TRUE,TRUE,TRUE
27,8,1,0.96787200000017,"['c']",1,"left","['e']",0,0.275327000000289,0.2,0,0,"FastFast",1,17,"Woman","Right",NA,5,TRUE,TRUE,TRUE,TRUE
28,8,1,0.816576799999893,"['n']",0,"left","['e']",0,0.17114599999968,0.1,1,0,"FastFast",1,17,"Woman","Right",NA,5,TRUE,TRUE,TRUE,TRUE
29,8,1,0.649709000000257,"['n']",0,"left","['e']",0,0.221072899999854,0.1,1,0,"FastFast",1,17,"Woman","Right",NA,5,TRUE,TRUE,TRUE,TRUE
30,8,1,1.19968589999917,"['n']",1,"right","['e']",0,0.534654999999475,0.2,0,0,"FastFast",1,17,"Woman","Right",NA,5,TRUE,TRUE,TRUE,TRUE
31,8,1,0.916671399999359,"['n']",0,"left","['e']",0,0.142641299999923,0.4,1,0,"FastFast",1,17,"Woman","Right",NA,5,TRUE,TRUE,TRUE,TRUE
32,8,1,0.9514623999994,"['n']",1,"right","['e']",0,0.165232400000605,0.2,0,0,"FastFast",1,17,"Woman","Right",NA,5,TRUE,TRUE,TRUE,TRUE
33,8,1,1.09937910000008,"['n']",1,"right","['e']",0,0.181683300000259,0.2,0,0,"FastFast",1,17,"Woman","Right",NA,5,TRUE,TRUE,TRUE,TRUE
34,8,1,1.00044370000069,"['c']",1,"left","['e']",0,0.728094399999463,0.2,0,0,"FastFast",1,17,"Woman","Right",NA,5,TRUE,TRUE,TRUE,TRUE
35,8,1,0.983979600000566,"['n']",1,"right","['e']",0,0.550229100000251,0.4,0,0,"FastFast",1,17,"Woman","Right",NA,5,TRUE,TRUE,TRUE,TRUE
36,8,1,0.617685600000186,"['n']",0,"left","['e']",0,0.233622200000354,0.1,1,0,"FastFast",1,17,"Woman","Right",NA,5,TRUE,TRUE,TRUE,TRUE
37,8,1,0.817298100000698,"['n']",0,"left","['e']",0,0.226296700000603,0.2,1,0,"FastFast",1,17,"Woman","Right",NA,5,TRUE,TRUE,TRUE,TRUE
38,8,1,1.01817269999992,"['c']",0,"right","['e']",0,0.227235899999869,0.2,1,0,"FastFast",1,17,"Woman","Right",NA,5,TRUE,TRUE,TRUE,TRUE
39,8,1,1.08431269999983,"['c']",1,"left","['u']",1,0.257592500000101,0.1,1,0,"FastFast",1,17,"Woman","Right",NA,5,TRUE,TRUE,TRUE,TRUE
40,8,1,1.45038019999993,"['n']",0,"left","['u']",1,0.848078099999839,0.1,0,0,"FastFast",1,17,"Woman","Right",NA,5,TRUE,TRUE,TRUE,TRUE
41,8,1,0.833872100000008,"['n']",0,"left","['e']",0,0.159262299999682,0.1,1,0,"FastFast",1,17,"Woman","Right",NA,5,TRUE,TRUE,TRUE,TRUE
42,8,1,0.88439820000076,"['c']",1,"left","['u']",1,0.28046600000016,0.1,1,0,"FastFast",1,17,"Woman","Right",NA,5,TRUE,TRUE,TRUE,TRUE
43,8,1,0.884589500000402,"['c']",1,"left","['e']",0,0.332435199999964,0.4,0,0,"FastFast",1,17,"Woman","Right",NA,5,TRUE,TRUE,TRUE,TRUE
44,8,1,1.23306799999955,"['n']",1,"right","['e']",0,0.623866099999759,0.4,0,0,"FastFast",1,17,"Woman","Right",NA,5,TRUE,TRUE,TRUE,TRUE
45,8,1,1.00157860000036,"['n']",1,"right","['e']",0,0.161651300000813,0.1,0,0,"FastFast",1,17,"Woman","Right",NA,5,TRUE,TRUE,TRUE,TRUE
46,8,1,0.901020999999673,"['n']",0,"left","['e']",0,0.21822179999981,0.4,1,0,"FastFast",1,17,"Woman","Right",NA,5,TRUE,TRUE,TRUE,TRUE
47,8,1,0.500577300000259,"['n']",1,"right","['e']",0,0.207288900000094,0.4,0,0,"FastFast",1,17,"Woman","Right",NA,5,TRUE,TRUE,TRUE,TRUE
48,8,1,0.884919000000082,"['n']",0,"left","['e']",0,0.6460945000008,0.4,1,0,"FastFast",1,17,"Woman","Right",NA,5,TRUE,TRUE,TRUE,TRUE
49,8,1,0.915937799999483,"['c']",0,"right","['e']",0,0.410537100000511,0.1,1,0,"FastFast",1,17,"Woman","Right",NA,5,TRUE,TRUE,TRUE,TRUE
50,8,1,1.04955229999996,"['c']",0,"right","['e']",0,0.803025599999273,0.2,1,0,"FastFast",1,17,"Woman","Right",NA,5,TRUE,TRUE,TRUE,TRUE
51,8,1,0.866332200000215,"['c']",1,"left","['u']",1,0.178120799999306,0.4,1,0,"FastFast",1,17,"Woman","Right",NA,5,TRUE,TRUE,TRUE,TRUE
52,8,1,0.901023400000668,"['c']",0,"right","['u']",1,0.169628000000557,0.2,0,0,"FastFast",1,17,"Woman","Right",NA,5,TRUE,TRUE,TRUE,TRUE
53,8,1,1.36573570000019,"['c']",0,"right","['u']",1,0.351282599999649,0.2,0,0,"FastFast",1,17,"Woman","Right",NA,5,TRUE,TRUE,TRUE,TRUE
54,8,1,1.6510444000005,"['n']",0,"left","['e']",0,0.289456399999835,0.1,1,0,"FastFast",1,17,"Woman","Right",NA,5,TRUE,TRUE,TRUE,TRUE
55,8,1,0.966524600000412,"['c']",0,"right","['u']",1,0.162086199999976,0.2,0,0,"FastFast",1,17,"Woman","Right",NA,5,TRUE,TRUE,TRUE,TRUE
56,8,1,1.18380359999992,"['c']",1,"left","['e']",0,0.238403699999253,0.1,0,0,"FastFast",1,17,"Woman","Right",NA,5,TRUE,TRUE,TRUE,TRUE
57,8,1,1.00107030000072,"['c']",1,"left","['e']",0,0.399507999999514,0.1,0,0,"FastFast",1,17,"Woman","Right",NA,5,TRUE,TRUE,TRUE,TRUE
58,8,1,1.00113909999982,"['c']",1,"left","['e']",0,0.217905199999223,0.1,0,0,"FastFast",1,17,"Woman","Right",NA,5,TRUE,TRUE,TRUE,TRUE
59,8,1,1.15138410000054,"['c']",1,"left","['e']",0,0.197757799999636,0.2,0,0,"FastFast",1,17,"Woman","Right",NA,5,TRUE,TRUE,TRUE,TRUE
0,9,1,1.46645059999992,"['n']",0,"left","['e']",0,0.511361699999725,0.2,1,0,"AccFast",1,17,"Woman","Right",NA,5,TRUE,TRUE,TRUE,TRUE
1,9,1,1.10118069999953,"['n']",1,"right","['e']",0,0.305769399999917,0.4,0,0,"AccFast",1,17,"Woman","Right",NA,5,TRUE,TRUE,TRUE,TRUE
2,9,1,1.8845110000002,"['n']",1,"right","['e']",0,0.269034999999349,0.1,0,0,"AccFast",1,17,"Woman","Right",NA,5,TRUE,TRUE,TRUE,TRUE
3,9,1,0.950491099999454,"['n']",1,"right","['u']",1,1.11863080000057,0.4,1,0,"AccFast",1,17,"Woman","Right",NA,5,TRUE,TRUE,TRUE,TRUE
4,9,1,1.36770109999998,"['c']",1,"left","['e']",0,0.222195100000135,0.4,0,0,"AccFast",1,17,"Woman","Right",NA,5,TRUE,TRUE,TRUE,TRUE
5,9,1,1.45101030000023,"['c']",0,"right","['e']",0,0.253720099999555,0.1,1,0,"AccFast",1,17,"Woman","Right",NA,5,TRUE,TRUE,TRUE,TRUE
6,9,1,1.16788400000041,"['n']",1,"right","['e']",0,0.183547999999973,0.4,0,0,"AccFast",1,17,"Woman","Right",NA,5,TRUE,TRUE,TRUE,TRUE
7,9,1,1.30042630000025,"['n']",0,"left","['e']",0,0.686670000000049,0.2,1,0,"AccFast",1,17,"Woman","Right",NA,5,TRUE,TRUE,TRUE,TRUE
8,9,1,2.01675200000045,"['c']",0,"right","['e']",0,0.373827999999776,0.1,1,0,"AccFast",1,17,"Woman","Right",NA,5,TRUE,TRUE,TRUE,TRUE
9,9,1,1.24985209999977,"['n']",0,"left","['e']",0,0.184583300000668,0.2,1,0,"AccFast",1,17,"Woman","Right",NA,5,TRUE,TRUE,TRUE,TRUE
10,9,1,1.06789860000026,"['n']",1,"right","['e']",0,0.183548300000439,0.4,0,0,"AccFast",1,17,"Woman","Right",NA,5,TRUE,TRUE,TRUE,TRUE
11,9,1,1.73285450000003,"['n']",0,"left","['e']",0,0.237496400000055,0.2,1,0,"AccFast",1,17,"Woman","Right",NA,5,TRUE,TRUE,TRUE,TRUE
12,9,1,1.13431510000009,"['c']",1,"left","['e']",0,0.185220399999707,0.1,0,0,"AccFast",1,17,"Woman","Right",NA,5,TRUE,TRUE,TRUE,TRUE
13,9,1,1.36805539999932,"['c']",1,"left","['u']",1,0.205660599999646,0.4,1,0,"AccFast",1,17,"Woman","Right",NA,5,TRUE,TRUE,TRUE,TRUE
14,9,1,1.28382299999976,"['c']",1,"left","['e']",0,0.212649200000669,0.1,0,0,"AccFast",1,17,"Woman","Right",NA,5,TRUE,TRUE,TRUE,TRUE
15,9,1,1.56804470000043,"['n']",1,"right","['e']",0,1.13731279999956,0.1,0,0,"AccFast",1,17,"Woman","Right",NA,5,TRUE,TRUE,TRUE,TRUE
16,9,1,1.95058150000023,"['n']",0,"left","['e']",0,0.487319099999695,0.4,1,0,"AccFast",1,17,"Woman","Right",NA,5,TRUE,TRUE,TRUE,TRUE
17,9,1,1.55113859999983,"['n']",0,"left","['e']",0,0.361022000000048,0.4,1,0,"AccFast",1,17,"Woman","Right",NA,5,TRUE,TRUE,TRUE,TRUE
18,9,1,1.14973789999931,"['n']",1,"right","['e']",0,0.224323900000854,0.4,0,0,"AccFast",1,17,"Woman","Right",NA,5,TRUE,TRUE,TRUE,TRUE
19,9,1,1.50006100000064,"['c']",1,"left","['u']",1,0.460700999999972,0.2,1,0,"AccFast",1,17,"Woman","Right",NA,5,TRUE,TRUE,TRUE,TRUE
20,9,1,2.0520733000003,"['c']",1,"left","['e']",0,0.411463000000367,0.4,0,0,"AccFast",1,17,"Woman","Right",NA,5,TRUE,TRUE,TRUE,TRUE
21,9,1,1.66756610000084,"['n']",1,"right","['e']",0,0.203086299999995,0.1,0,0,"AccFast",1,17,"Woman","Right",NA,5,TRUE,TRUE,TRUE,TRUE
22,9,1,1.50143609999941,"['n']",1,"right","['e']",0,0.201344500000232,0.2,0,0,"AccFast",1,17,"Woman","Right",NA,5,TRUE,TRUE,TRUE,TRUE
23,9,1,1.56769679999979,"['c']",0,"right","['e']",0,0.213142399999924,0.1,1,0,"AccFast",1,17,"Woman","Right",NA,5,TRUE,TRUE,TRUE,TRUE
24,9,1,1.35017860000062,"['n']",1,"right","['e']",0,0.168766899999355,0.1,0,0,"AccFast",1,17,"Woman","Right",NA,5,TRUE,TRUE,TRUE,TRUE
25,9,1,1.2329479,"['c']",1,"left","['e']",0,1.4278889999996,0.2,0,0,"AccFast",1,17,"Woman","Right",NA,5,TRUE,TRUE,TRUE,TRUE
26,9,1,1.5846818,"['n']",1,"right","['e']",0,0.189856799999689,0.2,0,0,"AccFast",1,17,"Woman","Right",NA,5,TRUE,TRUE,TRUE,TRUE
27,9,1,1.18322669999998,"['c']",0,"right","['e']",0,0.138369199999943,0.2,1,0,"AccFast",1,17,"Woman","Right",NA,5,TRUE,TRUE,TRUE,TRUE
28,9,1,1.13365539999995,"['n']",1,"right","['e']",0,0.217672799999491,0.1,0,0,"AccFast",1,17,"Woman","Right",NA,5,TRUE,TRUE,TRUE,TRUE
29,9,1,1.76770729999953,"['n']",0,"left","['e']",0,0.172512099999949,0.1,1,0,"AccFast",1,17,"Woman","Right",NA,5,TRUE,TRUE,TRUE,TRUE
30,9,1,1.21737179999946,"['c']",1,"left","['u']",1,0.21664199999941,0.4,1,0,"AccFast",1,17,"Woman","Right",NA,5,TRUE,TRUE,TRUE,TRUE
31,9,1,1.28414770000018,"['n']",0,"left","['e']",0,0.191010300000016,0.1,1,0,"AccFast",1,17,"Woman","Right",NA,5,TRUE,TRUE,TRUE,TRUE
32,9,1,1.15112319999935,"['n']",1,"right","['e']",0,0.219987600000422,0.1,0,0,"AccFast",1,17,"Woman","Right",NA,5,TRUE,TRUE,TRUE,TRUE
33,9,1,1.26750290000018,"['n']",1,"right","['e']",0,0.290247199999612,0.2,0,0,"AccFast",1,17,"Woman","Right",NA,5,TRUE,TRUE,TRUE,TRUE
34,9,1,1.1500788000003,"['n']",0,"left","['e']",0,0.220266100000117,0.1,1,0,"AccFast",1,17,"Woman","Right",NA,5,TRUE,TRUE,TRUE,TRUE
35,9,1,1.30104889999984,"['n']",0,"left","['e']",0,0.257177100000263,0.1,1,0,"AccFast",1,17,"Woman","Right",NA,5,TRUE,TRUE,TRUE,TRUE
36,9,1,1.59920659999989,"['n']",1,"right","['e']",0,0.155133899999782,0.2,0,0,"AccFast",1,17,"Woman","Right",NA,5,TRUE,TRUE,TRUE,TRUE
37,9,1,1.1497773000001,"['n']",1,"right","['e']",0,0.233076000000437,0.1,0,0,"AccFast",1,17,"Woman","Right",NA,5,TRUE,TRUE,TRUE,TRUE
38,9,1,1.08284270000058,"['c']",1,"left","['e']",0,0.182875199999216,0.1,0,0,"AccFast",1,17,"Woman","Right",NA,5,TRUE,TRUE,TRUE,TRUE
39,9,1,1.31738769999993,"['c']",1,"left","['e']",0,0.236782699999821,0.2,0,0,"AccFast",1,17,"Woman","Right",NA,5,TRUE,TRUE,TRUE,TRUE
40,9,1,1.16733209999984,"['n']",0,"left","['e']",0,0.199016900000061,0.4,1,0,"AccFast",1,17,"Woman","Right",NA,5,TRUE,TRUE,TRUE,TRUE
41,9,1,1.10090630000013,"['n']",0,"left","['e']",0,0.214016899999478,0.4,1,0,"AccFast",1,17,"Woman","Right",NA,5,TRUE,TRUE,TRUE,TRUE
42,9,1,0.868002299999716,"['n']",1,"right","['e']",0,0.173189399999501,0.4,0,0,"AccFast",1,17,"Woman","Right",NA,5,TRUE,TRUE,TRUE,TRUE
43,9,1,1.33346570000049,"['c']",1,"left","['e']",0,0.162920300000224,0.2,0,0,"AccFast",1,17,"Woman","Right",NA,5,TRUE,TRUE,TRUE,TRUE
44,9,1,1.11703920000036,"['n']",0,"left","['e']",0,0.163159300000189,0.2,1,0,"AccFast",1,17,"Woman","Right",NA,5,TRUE,TRUE,TRUE,TRUE
45,9,1,1.09952639999938,"['n']",1,"right","['u']",1,0.274634699999297,0.2,1,0,"AccFast",1,17,"Woman","Right",NA,5,TRUE,TRUE,TRUE,TRUE
46,9,1,1.64933689999998,"['c']",1,"left","['e']",0,0.297002999999677,0.2,0,0,"AccFast",1,17,"Woman","Right",NA,5,TRUE,TRUE,TRUE,TRUE
47,9,1,1.15064260000054,"['n']",1,"right","['e']",0,0.19192590000057,0.2,0,0,"AccFast",1,17,"Woman","Right",NA,5,TRUE,TRUE,TRUE,TRUE
48,9,1,1.3176298999997,"['c']",1,"left","['e']",0,0.150601199999983,0.2,0,0,"AccFast",1,17,"Woman","Right",NA,5,TRUE,TRUE,TRUE,TRUE
49,9,1,1.23331619999954,"['n']",1,"right","['e']",0,0.226995400000305,0.2,0,0,"AccFast",1,17,"Woman","Right",NA,5,TRUE,TRUE,TRUE,TRUE
50,9,1,1.1176532999998,"['c']",1,"left","['e']",0,0.206860199999937,0.4,0,0,"AccFast",1,17,"Woman","Right",NA,5,TRUE,TRUE,TRUE,TRUE
51,9,1,1.21805850000055,"['n']",0,"left","['e']",0,0.168369500000153,0.1,1,0,"AccFast",1,17,"Woman","Right",NA,5,TRUE,TRUE,TRUE,TRUE
52,9,1,1.16787620000014,"['n']",0,"left","['e']",0,0.181681500000195,0.4,1,0,"AccFast",1,17,"Woman","Right",NA,5,TRUE,TRUE,TRUE,TRUE
53,9,1,1.1506416000002,"['n']",1,"right","['e']",0,0.162938200000099,0.4,0,0,"AccFast",1,17,"Woman","Right",NA,5,TRUE,TRUE,TRUE,TRUE
54,9,1,1.05025909999949,"['n']",1,"right","['e']",0,0.149436899999273,0.4,0,0,"AccFast",1,17,"Woman","Right",NA,5,TRUE,TRUE,TRUE,TRUE
55,9,1,1.18347480000011,"['n']",1,"right","['e']",0,0.209950399999798,0.2,0,0,"AccFast",1,17,"Woman","Right",NA,5,TRUE,TRUE,TRUE,TRUE
56,9,1,1.20187619999979,"['n']",1,"right","['e']",0,0.283897899999829,0.1,0,0,"AccFast",1,17,"Woman","Right",NA,5,TRUE,TRUE,TRUE,TRUE
57,9,1,1.18542780000007,"['n']",1,"right","['e']",0,0.323734099999456,0.4,0,0,"AccFast",1,17,"Woman","Right",NA,5,TRUE,TRUE,TRUE,TRUE
58,9,1,1.01700299999993,"['n']",1,"right","['e']",0,0.145096799999919,0.4,0,0,"AccFast",1,17,"Woman","Right",NA,5,TRUE,TRUE,TRUE,TRUE
59,9,1,1.33535660000052,"['n']",0,"left","['e']",0,0.185015399999429,0.1,1,0,"AccFast",1,17,"Woman","Right",NA,5,TRUE,TRUE,TRUE,TRUE
0,10,1,1.03393689999939,"['n']",0,"left","['e']",0,0.410622200000034,0.4,1,0,"AccAcc",1,17,"Woman","Right",NA,5,TRUE,TRUE,TRUE,TRUE
1,10,1,1.1658096000001,"['n']",1,"right","['u']",1,0.255597899999884,0.1,1,0,"AccAcc",1,17,"Woman","Right",NA,5,TRUE,TRUE,TRUE,TRUE
2,10,1,1.5495819000007,"['c']",1,"left","['u']",1,1.46560960000079,0.2,1,0,"AccAcc",1,17,"Woman","Right",NA,5,TRUE,TRUE,TRUE,TRUE
3,10,1,2.11742609999965,"['n']",0,"left","['e']",0,0.316522000000077,0.4,1,0,"AccAcc",1,17,"Woman","Right",NA,5,TRUE,TRUE,TRUE,TRUE
4,10,1,1.51603249999971,"['c']",1,"left","['e']",0,0.197472099999686,0.2,0,0,"AccAcc",1,17,"Woman","Right",NA,5,TRUE,TRUE,TRUE,TRUE
5,10,1,1.31745779999983,"['n']",0,"left","['e']",0,0.138994300000377,0.1,1,0,"AccAcc",1,17,"Woman","Right",NA,5,TRUE,TRUE,TRUE,TRUE
6,10,1,1.11663490000046,"['n']",1,"right","['u']",1,0.219610600000124,0.4,1,0,"AccAcc",1,17,"Woman","Right",NA,5,TRUE,TRUE,TRUE,TRUE
7,10,1,1.31725379999989,"['c']",1,"left","['e']",0,0.22452869999961,0.4,0,0,"AccAcc",1,17,"Woman","Right",NA,5,TRUE,TRUE,TRUE,TRUE
8,10,1,1.31903779999993,"['n']",1,"right","['e']",0,0.229852200000096,0.4,0,0,"AccAcc",1,17,"Woman","Right",NA,5,TRUE,TRUE,TRUE,TRUE
9,10,1,1.35176109999975,"['n']",1,"right","['u']",1,0.41038590000062,0.4,1,0,"AccAcc",1,17,"Woman","Right",NA,5,TRUE,TRUE,TRUE,TRUE
10,10,1,1.33587579999949,"['n']",0,"left","['e']",0,2.26205870000013,0.4,1,0,"AccAcc",1,17,"Woman","Right",NA,5,TRUE,TRUE,TRUE,TRUE
11,10,1,1.86511659999996,"['n']",1,"right","['e']",0,0.693086299999777,0.1,0,0,"AccAcc",1,17,"Woman","Right",NA,5,TRUE,TRUE,TRUE,TRUE
12,10,1,1.33375580000029,"['c']",0,"right","['u']",1,0.165690800000448,0.2,0,0,"AccAcc",1,17,"Woman","Right",NA,5,TRUE,TRUE,TRUE,TRUE
13,10,1,1.41835830000036,"['c']",1,"left","['e']",0,0.248540499999763,0.4,0,0,"AccAcc",1,17,"Woman","Right",NA,5,TRUE,TRUE,TRUE,TRUE
14,10,1,1.18479740000021,"['n']",0,"left","['e']",0,0.289684200000011,0.1,1,0,"AccAcc",1,17,"Woman","Right",NA,5,TRUE,TRUE,TRUE,TRUE
15,10,1,2.41643570000087,"['n']",1,"right","['e']",0,0.216820600000574,0.2,0,0,"AccAcc",1,17,"Woman","Right",NA,5,TRUE,TRUE,TRUE,TRUE
16,10,1,1.48413249999976,"['n']",0,"left","['e']",0,0.34293340000022,0.2,1,0,"AccAcc",1,17,"Woman","Right",NA,5,TRUE,TRUE,TRUE,TRUE
17,10,1,1.18498749999981,"['c']",1,"left","['e']",0,0.20458569999937,0.2,0,0,"AccAcc",1,17,"Woman","Right",NA,5,TRUE,TRUE,TRUE,TRUE
18,10,1,1.14992660000007,"['c']",0,"right","['e']",0,0.281767800000125,0.1,1,0,"AccAcc",1,17,"Woman","Right",NA,5,TRUE,TRUE,TRUE,TRUE
19,10,1,1.11785220000002,"['n']",0,"left","['e']",0,0.211582799999633,0.4,1,0,"AccAcc",1,17,"Woman","Right",NA,5,TRUE,TRUE,TRUE,TRUE
20,10,1,1.13216800000009,"['n']",1,"right","['u']",1,0.753101100000094,0.1,1,0,"AccAcc",1,17,"Woman","Right",NA,5,TRUE,TRUE,TRUE,TRUE
21,10,1,1.29946050000035,"['n']",1,"right","['u']",1,0.224589200000082,0.1,1,0,"AccAcc",1,17,"Woman","Right",NA,5,TRUE,TRUE,TRUE,TRUE
22,10,1,1.85043640000004,"['n']",0,"left","['e']",0,0.304242000000158,0.2,1,0,"AccAcc",1,17,"Woman","Right",NA,5,TRUE,TRUE,TRUE,TRUE
23,10,1,1.20089189999999,"['c']",0,"right","['e']",0,0.198805699999866,0.4,1,0,"AccAcc",1,17,"Woman","Right",NA,5,TRUE,TRUE,TRUE,TRUE
24,10,1,1.16709319999973,"['c']",0,"right","['e']",0,0.227323899999647,0.1,1,0,"AccAcc",1,17,"Woman","Right",NA,5,TRUE,TRUE,TRUE,TRUE
25,10,1,1.18498319999981,"['c']",1,"left","['e']",0,0.284927300000163,0.2,0,0,"AccAcc",1,17,"Woman","Right",NA,5,TRUE,TRUE,TRUE,TRUE
26,10,1,1.23376090000056,"['n']",1,"right","['e']",0,0.227589199999784,0.2,0,0,"AccAcc",1,17,"Woman","Right",NA,5,TRUE,TRUE,TRUE,TRUE
27,10,1,1.21670939999967,"['n']",0,"left","['e']",0,0.252780600000733,0.1,1,0,"AccAcc",1,17,"Woman","Right",NA,5,TRUE,TRUE,TRUE,TRUE
28,10,1,1.10123100000055,"['c']",0,"right","['u']",1,0.264495099999294,0.4,0,0,"AccAcc",1,17,"Woman","Right",NA,5,TRUE,TRUE,TRUE,TRUE
29,10,1,1.71844380000039,"['c']",0,"right","['u']",1,0.251382600000397,0.2,0,0,"AccAcc",1,17,"Woman","Right",NA,5,TRUE,TRUE,TRUE,TRUE
30,10,1,1.31710189999922,"['c']",0,"right","['u']",1,0.287508500000513,0.4,0,0,"AccAcc",1,17,"Woman","Right",NA,5,TRUE,TRUE,TRUE,TRUE
31,10,1,2.48449660000006,"['n']",0,"left","['e']",0,0.851317100000415,0.4,1,0,"AccAcc",1,17,"Woman","Right",NA,5,TRUE,TRUE,TRUE,TRUE
32,10,1,1.55100810000022,"['n']",1,"right","['e']",0,0.245825399999376,0.1,0,0,"AccAcc",1,17,"Woman","Right",NA,5,TRUE,TRUE,TRUE,TRUE
33,10,1,1.18377799999962,"['n']",1,"right","['u']",1,0.239046499999858,0.4,1,0,"AccAcc",1,17,"Woman","Right",NA,5,TRUE,TRUE,TRUE,TRUE
34,10,1,1.85029340000074,"['c']",1,"left","['e']",0,0.223027999999431,0.2,0,0,"AccAcc",1,17,"Woman","Right",NA,5,TRUE,TRUE,TRUE,TRUE
35,10,1,1.0346769000007,"['c']",1,"left","['u']",1,0.270869500000117,0.4,1,0,"AccAcc",1,17,"Woman","Right",NA,5,TRUE,TRUE,TRUE,TRUE
36,10,1,1.16827329999978,"['n']",0,"left","['e']",0,0.199693300000035,0.2,1,0,"AccAcc",1,17,"Woman","Right",NA,5,TRUE,TRUE,TRUE,TRUE
37,10,1,1.43401839999933,"['n']",0,"left","['e']",0,0.26508240000021,0.2,1,0,"AccAcc",1,17,"Woman","Right",NA,5,TRUE,TRUE,TRUE,TRUE
38,10,1,1.33352999999988,"['c']",0,"right","['e']",0,0.251876599999378,0.1,1,0,"AccAcc",1,17,"Woman","Right",NA,5,TRUE,TRUE,TRUE,TRUE
39,10,1,1.66766569999982,"['n']",0,"left","['e']",0,0.162001599999712,0.1,1,0,"AccAcc",1,17,"Woman","Right",NA,5,TRUE,TRUE,TRUE,TRUE
40,10,1,1.13326150000012,"['n']",1,"right","['e']",0,0.192451300000357,0.4,0,0,"AccAcc",1,17,"Woman","Right",NA,5,TRUE,TRUE,TRUE,TRUE
41,10,1,1.13384750000023,"['c']",0,"right","['e']",0,0.206029599999965,0.2,1,0,"AccAcc",1,17,"Woman","Right",NA,5,TRUE,TRUE,TRUE,TRUE
42,10,1,1.19999229999939,"['c']",1,"left","['e']",0,0.232888100000309,0.1,0,0,"AccAcc",1,17,"Woman","Right",NA,5,TRUE,TRUE,TRUE,TRUE
43,10,1,1.26694640000005,"['n']",0,"left","['u']",1,0.303002399999968,0.2,0,0,"AccAcc",1,17,"Woman","Right",NA,5,TRUE,TRUE,TRUE,TRUE
44,10,1,1.0841803000003,"['n']",0,"left","['e']",0,0.187404999999671,0.2,1,0,"AccAcc",1,17,"Woman","Right",NA,5,TRUE,TRUE,TRUE,TRUE
45,10,1,1.00118670000029,"['n']",1,"right","['e']",0,0.28513760000078,0.4,0,0,"AccAcc",1,17,"Woman","Right",NA,5,TRUE,TRUE,TRUE,TRUE
46,10,1,1.36867189999975,"['c']",1,"left","['e']",0,0.557494500000757,0.2,0,0,"AccAcc",1,17,"Woman","Right",NA,5,TRUE,TRUE,TRUE,TRUE
47,10,1,0.934782000000268,"['n']",1,"right","['e']",0,0.260772999999972,0.2,0,0,"AccAcc",1,17,"Woman","Right",NA,5,TRUE,TRUE,TRUE,TRUE
48,10,1,1.4515293000004,"['n']",1,"right","['e']",0,0.515222500000164,0.1,0,0,"AccAcc",1,17,"Woman","Right",NA,5,TRUE,TRUE,TRUE,TRUE
49,10,1,1.35069810000005,"['c']",1,"left","['e']",0,0.203074699999888,0.1,0,0,"AccAcc",1,17,"Woman","Right",NA,5,TRUE,TRUE,TRUE,TRUE
50,10,1,1.06771280000066,"['n']",0,"left","['e']",0,0.218830499999967,0.4,1,0,"AccAcc",1,17,"Woman","Right",NA,5,TRUE,TRUE,TRUE,TRUE
51,10,1,0.951168599999619,"['n']",1,"right","['e']",0,0.206586299999799,0.2,0,0,"AccAcc",1,17,"Woman","Right",NA,5,TRUE,TRUE,TRUE,TRUE
52,10,1,0.967666100000315,"['n']",1,"right","['e']",0,0.210280199999943,0.1,0,0,"AccAcc",1,17,"Woman","Right",NA,5,TRUE,TRUE,TRUE,TRUE
53,10,1,1.28285079999932,"['n']",1,"right","['e']",0,0.218255199999476,0.2,0,0,"AccAcc",1,17,"Woman","Right",NA,5,TRUE,TRUE,TRUE,TRUE
54,10,1,1.51748580000003,"['n']",0,"left","['e']",0,0.215319500000078,0.1,1,0,"AccAcc",1,17,"Woman","Right",NA,5,TRUE,TRUE,TRUE,TRUE
55,10,1,1.15028390000043,"['n']",1,"right","['e']",0,0.243302699999731,0.4,0,0,"AccAcc",1,17,"Woman","Right",NA,5,TRUE,TRUE,TRUE,TRUE
56,10,1,1.28392309999981,"['n']",1,"right","['e']",0,0.216255799999999,0.1,0,0,"AccAcc",1,17,"Woman","Right",NA,5,TRUE,TRUE,TRUE,TRUE
57,10,1,1.13407469999947,"['c']",1,"left","['u']",1,0.181376999999884,0.4,1,0,"AccAcc",1,17,"Woman","Right",NA,5,TRUE,TRUE,TRUE,TRUE
58,10,1,1.14943529999982,"['n']",1,"right","['e']",0,0.210996199999499,0.1,0,0,"AccAcc",1,17,"Woman","Right",NA,5,TRUE,TRUE,TRUE,TRUE
59,10,1,0.967646000000059,"['c']",1,"left","['u']",1,0.198115499999403,0.1,1,0,"AccAcc",1,17,"Woman","Right",NA,5,TRUE,TRUE,TRUE,TRUE
0,11,1,1.6005780000005,"['c']",0,"right","['e']",0,1.92778350000026,0.2,1,0,"FastAcc",1,17,"Woman","Right",NA,5,TRUE,TRUE,TRUE,TRUE
1,11,1,0.449972099999286,"['n']",1,"right","['u']",1,0.715491900000416,0.4,1,0,"FastAcc",1,17,"Woman","Right",NA,5,TRUE,TRUE,TRUE,TRUE
2,11,1,0.64988589999939,"['c']",0,"right","['e']",0,0.855011400000876,0.1,1,0,"FastAcc",1,17,"Woman","Right",NA,5,TRUE,TRUE,TRUE,TRUE
3,11,1,0.549462700000731,"['n']",0,"left","['u']",1,0.994398300000285,0.4,0,0,"FastAcc",1,17,"Woman","Right",NA,5,TRUE,TRUE,TRUE,TRUE
4,11,1,0.549719100000402,"['n']",0,"left","['e']",0,0.535054400000263,0.1,1,0,"FastAcc",1,17,"Woman","Right",NA,5,TRUE,TRUE,TRUE,TRUE
5,11,1,0.667191900000034,"['n']",0,"left","['e']",0,0.568933399999878,0.4,1,0,"FastAcc",1,17,"Woman","Right",NA,5,TRUE,TRUE,TRUE,TRUE
6,11,1,0.651116999999431,"['n']",1,"right","['e']",0,0.555569499999365,0.2,0,0,"FastAcc",1,17,"Woman","Right",NA,5,TRUE,TRUE,TRUE,TRUE
7,11,1,0.666488800000479,"['n']",1,"right","['e']",0,0.556530900000325,0.1,0,0,"FastAcc",1,17,"Woman","Right",NA,5,TRUE,TRUE,TRUE,TRUE
8,11,1,0.616049199999907,"['n']",1,"right","['e']",0,0.449373000000378,0.1,0,0,"FastAcc",1,17,"Woman","Right",NA,5,TRUE,TRUE,TRUE,TRUE
9,11,1,0.667338199999904,"['c']",1,"left","['u']",1,0.790180400000281,0.4,1,0,"FastAcc",1,17,"Woman","Right",NA,5,TRUE,TRUE,TRUE,TRUE
10,11,1,1.03352600000017,"['n']",1,"right","['e']",0,0.783813000000009,0.2,0,0,"FastAcc",1,17,"Woman","Right",NA,5,TRUE,TRUE,TRUE,TRUE
11,11,1,0.651552199999969,"['n']",0,"left","['e']",0,0.281024699999762,0.4,1,0,"FastAcc",1,17,"Woman","Right",NA,5,TRUE,TRUE,TRUE,TRUE
12,11,1,1.28553139999985,"['n']",0,"left","['e']",0,0.220678599999701,0.1,1,0,"FastAcc",1,17,"Woman","Right",NA,5,TRUE,TRUE,TRUE,TRUE
13,11,1,0.832970599999499,"['n']",1,"right","['u']",1,0.710507099999631,0.4,1,0,"FastAcc",1,17,"Woman","Right",NA,5,TRUE,TRUE,TRUE,TRUE
14,11,1,0.651871300000494,"['n']",0,"left","['e']",0,1.18567440000061,0.4,1,0,"FastAcc",1,17,"Woman","Right",NA,5,TRUE,TRUE,TRUE,TRUE
15,11,1,0.60027910000008,"['n']",1,"right","['e']",0,0.252970100000312,0.4,0,0,"FastAcc",1,17,"Woman","Right",NA,5,TRUE,TRUE,TRUE,TRUE
16,11,1,0.78314760000012,"['n']",0,"left","['e']",0,0.262633000000278,0.2,1,0,"FastAcc",1,17,"Woman","Right",NA,5,TRUE,TRUE,TRUE,TRUE
17,11,1,0.933341199999631,"['c']",0,"right","['e']",0,0.361104499999783,0.2,1,0,"FastAcc",1,17,"Woman","Right",NA,5,TRUE,TRUE,TRUE,TRUE
18,11,1,1.23434679999991,"['n']",0,"left","['e']",0,0.220137300000715,0.2,1,0,"FastAcc",1,17,"Woman","Right",NA,5,TRUE,TRUE,TRUE,TRUE
19,11,1,1.08461460000035,"['c']",1,"left","['e']",0,0.217796099999759,0.1,0,0,"FastAcc",1,17,"Woman","Right",NA,5,TRUE,TRUE,TRUE,TRUE
20,11,1,0.816998900000726,"['n']",1,"right","['u']",1,0.626963499999874,0.4,1,0,"FastAcc",1,17,"Woman","Right",NA,5,TRUE,TRUE,TRUE,TRUE
21,11,1,0.850154900000234,"['n']",1,"right","['e']",0,0.507268000000295,0.2,0,0,"FastAcc",1,17,"Woman","Right",NA,5,TRUE,TRUE,TRUE,TRUE
22,11,1,0.66648400000031,"['n']",0,"left","['e']",0,0.68694349999987,0.4,1,0,"FastAcc",1,17,"Woman","Right",NA,5,TRUE,TRUE,TRUE,TRUE
23,11,1,0.634292499999901,"['c']",1,"left","['e']",0,0.635947499999929,0.2,0,0,"FastAcc",1,17,"Woman","Right",NA,5,TRUE,TRUE,TRUE,TRUE
24,11,1,1.43373470000006,"['n']",1,"right","['e']",0,0.476093799999944,0.1,0,0,"FastAcc",1,17,"Woman","Right",NA,5,TRUE,TRUE,TRUE,TRUE
25,11,1,1.45125530000041,"['c']",0,"right","['e']",0,0.371135299999878,0.1,1,0,"FastAcc",1,17,"Woman","Right",NA,5,TRUE,TRUE,TRUE,TRUE
26,11,1,0.917032199999994,"['c']",1,"left","['e']",0,0.161090099999456,0.2,0,0,"FastAcc",1,17,"Woman","Right",NA,5,TRUE,TRUE,TRUE,TRUE
27,11,1,0.650447199999689,"['n']",0,"left","['e']",0,0.195282499999848,0.1,1,0,"FastAcc",1,17,"Woman","Right",NA,5,TRUE,TRUE,TRUE,TRUE
28,11,1,0.783064600000216,"['n']",0,"left","['e']",0,0.22223219999978,0.2,1,0,"FastAcc",1,17,"Woman","Right",NA,5,TRUE,TRUE,TRUE,TRUE
29,11,1,0.834719500000574,"['n']",0,"left","['e']",0,0.262614999999641,0.4,1,0,"FastAcc",1,17,"Woman","Right",NA,5,TRUE,TRUE,TRUE,TRUE
30,11,1,0.717897300000004,"['n']",1,"right","['e']",0,0.274231300000793,0.2,0,0,"FastAcc",1,17,"Woman","Right",NA,5,TRUE,TRUE,TRUE,TRUE
31,11,1,0.73365449999983,"['n']",0,"left","['e']",0,0.204924699999538,0.4,1,0,"FastAcc",1,17,"Woman","Right",NA,5,TRUE,TRUE,TRUE,TRUE
32,11,1,0.636480399999527,"['n']",1,"right","['e']",0,0.269591700000092,0.2,0,0,"FastAcc",1,17,"Woman","Right",NA,5,TRUE,TRUE,TRUE,TRUE
33,11,1,0.651084199999787,"['n']",1,"right","['e']",0,0.25087429999985,0.2,0,0,"FastAcc",1,17,"Woman","Right",NA,5,TRUE,TRUE,TRUE,TRUE
34,11,1,0.849941099999342,"['n']",1,"right","['e']",0,0.209979999999632,0.4,0,0,"FastAcc",1,17,"Woman","Right",NA,5,TRUE,TRUE,TRUE,TRUE
35,11,1,1.01809249999951,"['c']",1,"left","['e']",0,0.178953900000124,0.4,0,0,"FastAcc",1,17,"Woman","Right",NA,5,TRUE,TRUE,TRUE,TRUE
36,11,1,0.983882399999857,"['n']",1,"right","['e']",0,0.182618800000455,0.1,0,0,"FastAcc",1,17,"Woman","Right",NA,5,TRUE,TRUE,TRUE,TRUE
37,11,1,1.10097649999989,"['c']",0,"right","['e']",0,0.213839199999711,0.2,1,0,"FastAcc",1,17,"Woman","Right",NA,5,TRUE,TRUE,TRUE,TRUE
38,11,1,0.901172599999882,"['n']",1,"right","['e']",0,0.171683499999745,0.1,0,0,"FastAcc",1,17,"Woman","Right",NA,5,TRUE,TRUE,TRUE,TRUE
39,11,1,0.950842700000067,"['n']",1,"right","['e']",0,0.194067899999936,0.4,0,0,"FastAcc",1,17,"Woman","Right",NA,5,TRUE,TRUE,TRUE,TRUE
40,11,1,0.967866199999662,"['c']",0,"right","['e']",0,0.229764800000339,0.4,1,0,"FastAcc",1,17,"Woman","Right",NA,5,TRUE,TRUE,TRUE,TRUE
41,11,1,1.0018756999998,"['c']",1,"left","['u']",1,0.902736400000322,0.2,1,0,"FastAcc",1,17,"Woman","Right",NA,5,TRUE,TRUE,TRUE,TRUE
42,11,1,1.08246239999971,"['n']",0,"left","['e']",0,0.202746500000103,0.1,1,0,"FastAcc",1,17,"Woman","Right",NA,5,TRUE,TRUE,TRUE,TRUE
43,11,1,1.24990679999974,"['n']",1,"right","['e']",0,0.226792800000112,0.1,0,0,"FastAcc",1,17,"Woman","Right",NA,5,TRUE,TRUE,TRUE,TRUE
44,11,1,0.851277599999776,"['n']",1,"right","['e']",0,0.21815770000012,0.4,0,0,"FastAcc",1,17,"Woman","Right",NA,5,TRUE,TRUE,TRUE,TRUE
45,11,1,0.933666900000389,"['n']",0,"left","['e']",0,0.174661899999592,0.1,1,0,"FastAcc",1,17,"Woman","Right",NA,5,TRUE,TRUE,TRUE,TRUE
46,11,1,0.951027099999919,"['c']",1,"left","['e']",0,0.276405100000375,0.2,0,0,"FastAcc",1,17,"Woman","Right",NA,5,TRUE,TRUE,TRUE,TRUE
47,11,1,0.766478700000334,"['c']",0,"right","['u']",1,0.334162099999958,0.2,0,0,"FastAcc",1,17,"Woman","Right",NA,5,TRUE,TRUE,TRUE,TRUE
48,11,1,0.901362199999312,"['c']",1,"left","['e']",0,0.606462499999907,0.1,0,0,"FastAcc",1,17,"Woman","Right",NA,5,TRUE,TRUE,TRUE,TRUE
49,11,1,0.884429099999579,"['c']",1,"left","['e']",0,0.230588499999612,0.1,0,0,"FastAcc",1,17,"Woman","Right",NA,5,TRUE,TRUE,TRUE,TRUE
50,11,1,1.51789540000027,"['n']",0,"left","['e']",0,0.306291099999726,0.2,1,0,"FastAcc",1,17,"Woman","Right",NA,5,TRUE,TRUE,TRUE,TRUE
51,11,1,1.0675452000005,"['n']",0,"left","['e']",0,0.158036900000297,0.1,1,0,"FastAcc",1,17,"Woman","Right",NA,5,TRUE,TRUE,TRUE,TRUE
52,11,1,1.7493586999999,"['c']",1,"left","['e']",0,0.213808499999686,0.1,0,0,"FastAcc",1,17,"Woman","Right",NA,5,TRUE,TRUE,TRUE,TRUE
53,11,1,1.56682890000047,"['c']",1,"left","['e']",0,0.143836700000065,0.2,0,0,"FastAcc",1,17,"Woman","Right",NA,5,TRUE,TRUE,TRUE,TRUE
54,11,1,1.28446200000053,"['c']",0,"right","['e']",0,0.217369599999984,0.4,1,0,"FastAcc",1,17,"Woman","Right",NA,5,TRUE,TRUE,TRUE,TRUE
55,11,1,1.31779300000017,"['n']",1,"right","['e']",0,0.238395399999717,0.1,0,0,"FastAcc",1,17,"Woman","Right",NA,5,TRUE,TRUE,TRUE,TRUE
56,11,1,1.01728679999997,"['n']",0,"left","['e']",0,0.238894600000094,0.1,1,0,"FastAcc",1,17,"Woman","Right",NA,5,TRUE,TRUE,TRUE,TRUE
57,11,1,1.18429389999983,"['n']",1,"right","['e']",0,0.184577799999715,0.4,0,0,"FastAcc",1,17,"Woman","Right",NA,5,TRUE,TRUE,TRUE,TRUE
58,11,1,1.18496289999985,"['c']",1,"left","['e']",0,0.148442200000318,0.2,0,0,"FastAcc",1,17,"Woman","Right",NA,5,TRUE,TRUE,TRUE,TRUE
59,11,1,0.967385100000683,"['n']",1,"right","['e']",0,0.154312599999685,0.4,0,0,"FastAcc",1,17,"Woman","Right",NA,5,TRUE,TRUE,TRUE,TRUE
0,12,1,0.784403900000143,"['n']",1,"right","['e']",0,0.150389299999915,0.4,0,0,"FastFast",1,17,"Woman","Right",NA,5,TRUE,TRUE,TRUE,TRUE
1,12,1,0.867244699999901,"['c']",1,"left","['e']",0,0.128547100000105,0.1,0,0,"FastFast",1,17,"Woman","Right",NA,5,TRUE,TRUE,TRUE,TRUE
2,12,1,0.649145500000486,"['n']",1,"right","['e']",0,0.13187569999991,0.4,0,0,"FastFast",1,17,"Woman","Right",NA,5,TRUE,TRUE,TRUE,TRUE
3,12,1,0.784661400000005,"['c']",1,"left","['e']",0,0.145126999999775,0.4,0,0,"FastFast",1,17,"Woman","Right",NA,5,TRUE,TRUE,TRUE,TRUE
4,12,1,0.799450100000286,"['c']",1,"left","['e']",0,0.174356599999555,0.2,0,0,"FastFast",1,17,"Woman","Right",NA,5,TRUE,TRUE,TRUE,TRUE
5,12,1,0.751228300000548,"['n']",0,"left","['e']",0,0.171386500000153,0.2,1,0,"FastFast",1,17,"Woman","Right",NA,5,TRUE,TRUE,TRUE,TRUE
6,12,1,0.634475900000325,"['n']",0,"left","['e']",0,0.157619300000079,0.4,1,0,"FastFast",1,17,"Woman","Right",NA,5,TRUE,TRUE,TRUE,TRUE
7,12,1,0.765998599999875,"['c']",0,"right","['e']",0,0.156348299999991,0.2,1,0,"FastFast",1,17,"Woman","Right",NA,5,TRUE,TRUE,TRUE,TRUE
8,12,1,0.750287099999696,"['c']",0,"right","['e']",0,0.154062100000374,0.1,1,0,"FastFast",1,17,"Woman","Right",NA,5,TRUE,TRUE,TRUE,TRUE
9,12,1,0.733408999999483,"['c']",0,"right","['e']",0,0.16946789999929,0.1,1,0,"FastFast",1,17,"Woman","Right",NA,5,TRUE,TRUE,TRUE,TRUE
10,12,1,0.799453199999334,"['c']",0,"right","['e']",0,0.677660000000287,0.4,1,0,"FastFast",1,17,"Woman","Right",NA,5,TRUE,TRUE,TRUE,TRUE
11,12,1,1.01780759999929,"['n']",1,"right","['e']",0,0.259610099999918,0.2,0,0,"FastFast",1,17,"Woman","Right",NA,5,TRUE,TRUE,TRUE,TRUE
12,12,1,0.783862299999782,"['c']",1,"left","['e']",0,0.156708999999864,0.1,0,0,"FastFast",1,17,"Woman","Right",NA,5,TRUE,TRUE,TRUE,TRUE
13,12,1,0.851546799999596,"['n']",1,"right","['e']",0,0.15099089999967,0.1,0,0,"FastFast",1,17,"Woman","Right",NA,5,TRUE,TRUE,TRUE,TRUE
14,12,1,0.700067200000376,"['n']",1,"right","['e']",0,0.183544299999994,0.2,0,0,"FastFast",1,17,"Woman","Right",NA,5,TRUE,TRUE,TRUE,TRUE
15,12,1,0.834702500000276,"['c']",1,"left","['e']",0,0.161974900000132,0.2,0,0,"FastFast",1,17,"Woman","Right",NA,5,TRUE,TRUE,TRUE,TRUE
16,12,1,0.784465400000045,"['c']",1,"left","['e']",0,0.158091199999944,0.4,0,0,"FastFast",1,17,"Woman","Right",NA,5,TRUE,TRUE,TRUE,TRUE
17,12,1,1.00007600000026,"['c']",1,"left","['e']",0,0.114502999999786,0.2,0,0,"FastFast",1,17,"Woman","Right",NA,5,TRUE,TRUE,TRUE,TRUE
18,12,1,1.15125739999985,"['c']",1,"left","['e']",0,0.194688099999439,0.1,0,0,"FastFast",1,17,"Woman","Right",NA,5,TRUE,TRUE,TRUE,TRUE
19,12,1,0.767365599999721,"['n']",1,"right","['e']",0,0.174683999999615,0.4,0,0,"FastFast",1,17,"Woman","Right",NA,5,TRUE,TRUE,TRUE,TRUE
20,12,1,0.900785699999687,"['n']",1,"right","['e']",0,0.134340199999315,0.4,0,0,"FastFast",1,17,"Woman","Right",NA,5,TRUE,TRUE,TRUE,TRUE
21,12,1,0.834179499999664,"['n']",1,"right","['e']",0,0.131048200000805,0.1,0,0,"FastFast",1,17,"Woman","Right",NA,5,TRUE,TRUE,TRUE,TRUE
22,12,1,0.767231300000276,"['n']",0,"left","['e']",0,0.145247700000255,0.1,1,0,"FastFast",1,17,"Woman","Right",NA,5,TRUE,TRUE,TRUE,TRUE
23,12,1,0.766310899999553,"['n']",1,"right","['e']",0,0.190816199999972,0.4,0,0,"FastFast",1,17,"Woman","Right",NA,5,TRUE,TRUE,TRUE,TRUE
24,12,1,1.15124319999995,"['c']",1,"left","['e']",0,0.107850899999903,0.1,0,0,"FastFast",1,17,"Woman","Right",NA,5,TRUE,TRUE,TRUE,TRUE
25,12,1,1.98431400000027,"['n']",1,"right","['e']",0,0.155058199999985,0.2,0,0,"FastFast",1,17,"Woman","Right",NA,5,TRUE,TRUE,TRUE,TRUE
26,12,1,0.801351000000068,"['n']",0,"left","['e']",0,0.135650500000338,0.1,1,0,"FastFast",1,17,"Woman","Right",NA,5,TRUE,TRUE,TRUE,TRUE
27,12,1,0.684803500000271,"['c']",1,"left","['e']",0,0.185264800000368,0.4,0,0,"FastFast",1,17,"Woman","Right",NA,5,TRUE,TRUE,TRUE,TRUE
28,12,1,0.91524070000014,"['c']",1,"left","['e']",0,0.177123099999335,0.1,0,0,"FastFast",1,17,"Woman","Right",NA,5,TRUE,TRUE,TRUE,TRUE
29,12,1,0.833181400000285,"['c']",1,"left","['e']",0,0.138330000000678,0.1,0,0,"FastFast",1,17,"Woman","Right",NA,5,TRUE,TRUE,TRUE,TRUE
30,12,1,0.751616900000045,"['c']",1,"left","['e']",0,0.169031700000232,0.2,0,0,"FastFast",1,17,"Woman","Right",NA,5,TRUE,TRUE,TRUE,TRUE
31,12,1,0.734568200000467,"['c']",1,"left","['e']",0,0.16742609999983,0.2,0,0,"FastFast",1,17,"Woman","Right",NA,5,TRUE,TRUE,TRUE,TRUE
32,12,1,1.01787570000033,"['n']",1,"right","['e']",0,0.268056400000205,0.1,0,0,"FastFast",1,17,"Woman","Right",NA,5,TRUE,TRUE,TRUE,TRUE
33,12,1,0.9168509000001,"['c']",0,"right","['e']",0,0.958456399999704,0.4,1,0,"FastFast",1,17,"Woman","Right",NA,5,TRUE,TRUE,TRUE,TRUE
34,12,1,0.79932000000008,"['n']",0,"left","['e']",0,1.29128159999982,0.2,1,0,"FastFast",1,17,"Woman","Right",NA,5,TRUE,TRUE,TRUE,TRUE
35,12,1,1.50047929999982,"['c']",1,"left","['e']",0,0.110187200000837,0.4,0,0,"FastFast",1,17,"Woman","Right",NA,5,TRUE,TRUE,TRUE,TRUE
36,12,1,0.967063500000222,"['c']",1,"left","['e']",0,0.0860531999996965,0.4,0,0,"FastFast",1,17,"Woman","Right",NA,5,TRUE,TRUE,TRUE,TRUE
37,12,1,1.05150740000045,"['c']",0,"right","['e']",0,0.138266799999656,0.1,1,0,"FastFast",1,17,"Woman","Right",NA,5,TRUE,TRUE,TRUE,TRUE
38,12,1,1.63458450000053,"['c']",1,"left","['e']",0,0.102359000000433,0.2,0,0,"FastFast",1,17,"Woman","Right",NA,5,TRUE,TRUE,TRUE,TRUE
39,12,1,1.13396829999965,"['n']",1,"right","['e']",0,0.152252200000476,0.2,0,0,"FastFast",1,17,"Woman","Right",NA,5,TRUE,TRUE,TRUE,TRUE
40,12,1,0.94971970000006,"['n']",0,"left","['e']",0,0.174521400000231,0.1,1,0,"FastFast",1,17,"Woman","Right",NA,5,TRUE,TRUE,TRUE,TRUE
41,12,1,0.834138899999743,"['n']",1,"right","['e']",0,0.152281300000141,0.2,0,0,"FastFast",1,17,"Woman","Right",NA,5,TRUE,TRUE,TRUE,TRUE
42,12,1,0.91773959999955,"['n']",1,"right","['e']",0,0.0796345999997357,0.4,0,0,"FastFast",1,17,"Woman","Right",NA,5,TRUE,TRUE,TRUE,TRUE
43,12,1,1.03599680000025,"['n']",1,"right","['e']",0,0.0852608999994118,0.2,0,0,"FastFast",1,17,"Woman","Right",NA,5,TRUE,TRUE,TRUE,TRUE
44,12,1,0.999120299999959,"['c']",1,"left","['e']",0,0.125961600000664,0.1,0,0,"FastFast",1,17,"Woman","Right",NA,5,TRUE,TRUE,TRUE,TRUE
45,12,1,1.41605449999952,"['c']",1,"left","['e']",0,0.0984823999997388,0.4,0,0,"FastFast",1,17,"Woman","Right",NA,5,TRUE,TRUE,TRUE,TRUE
46,12,1,1.14970059999996,"['c']",0,"right","['e']",0,0.275352800000292,0.1,1,0,"FastFast",1,17,"Woman","Right",NA,5,TRUE,TRUE,TRUE,TRUE
47,12,1,0.932686299999659,"['n']",1,"right","['e']",0,0.181771200000185,0.4,0,0,"FastFast",1,17,"Woman","Right",NA,5,TRUE,TRUE,TRUE,TRUE
48,12,1,1.21789580000041,"['n']",0,"left","['e']",0,0.206850999999915,0.2,1,0,"FastFast",1,17,"Woman","Right",NA,5,TRUE,TRUE,TRUE,TRUE
49,12,1,0.849819299999581,"['n']",1,"right","['e']",0,0.104418800000531,0.4,0,0,"FastFast",1,17,"Woman","Right",NA,5,TRUE,TRUE,TRUE,TRUE
50,12,1,1.05141339999955,"['n']",1,"right","['e']",0,0.140986899999916,0.1,0,0,"FastFast",1,17,"Woman","Right",NA,5,TRUE,TRUE,TRUE,TRUE
51,12,1,0.965704500000356,"['c']",0,"right","['e']",0,0.0994070999995529,0.2,1,0,"FastFast",1,17,"Woman","Right",NA,5,TRUE,TRUE,TRUE,TRUE
52,12,1,1.15006859999994,"['n']",1,"right","['e']",0,0.115939099999196,0.4,0,0,"FastFast",1,17,"Woman","Right",NA,5,TRUE,TRUE,TRUE,TRUE
53,12,1,1.21563239999978,"['c']",0,"right","['e']",0,0.0970140999997966,0.2,1,0,"FastFast",1,17,"Woman","Right",NA,5,TRUE,TRUE,TRUE,TRUE
54,12,1,1.33269180000025,"['c']",1,"left","['e']",0,0.153256300000066,0.4,0,0,"FastFast",1,17,"Woman","Right",NA,5,TRUE,TRUE,TRUE,TRUE
55,12,1,1.39912300000015,"['n']",0,"left","['e']",0,0.126463700000386,0.2,1,0,"FastFast",1,17,"Woman","Right",NA,5,TRUE,TRUE,TRUE,TRUE
56,12,1,0.900770600000214,"['c']",1,"left","['e']",0,0.120816300000115,0.1,0,0,"FastFast",1,17,"Woman","Right",NA,5,TRUE,TRUE,TRUE,TRUE
57,12,1,1.73365829999966,"['c']",1,"left","['e']",0,0.351439000000028,0.2,0,0,"FastFast",1,17,"Woman","Right",NA,5,TRUE,TRUE,TRUE,TRUE
58,12,1,1.03309619999982,"['n']",1,"right","['e']",0,0.154470899999978,0.1,0,0,"FastFast",1,17,"Woman","Right",NA,5,TRUE,TRUE,TRUE,TRUE
59,12,1,0.833196400000816,"['n']",1,"right","['e']",0,0.15090070000042,0.4,0,0,"FastFast",1,17,"Woman","Right",NA,5,TRUE,TRUE,TRUE,TRUE
0,13,1,0.832430100000238,"['n']",1,"right","['e']",0,0.125598100000389,0.4,0,0,"AccFast",1,17,"Woman","Right",NA,5,TRUE,TRUE,TRUE,TRUE
1,13,1,0.717416800000137,"['n']",1,"right","['e']",0,0.173898000000008,0.4,0,0,"AccFast",1,17,"Woman","Right",NA,5,TRUE,TRUE,TRUE,TRUE
2,13,1,1.06838549999975,"['c']",1,"left","['u']",1,0.190810300000521,0.4,1,0,"AccFast",1,17,"Woman","Right",NA,5,TRUE,TRUE,TRUE,TRUE
3,13,1,0.916681600000629,"['c']",1,"left","['e']",0,0.197081599999365,0.2,0,0,"AccFast",1,17,"Woman","Right",NA,5,TRUE,TRUE,TRUE,TRUE
4,13,1,0.766366699999708,"['n']",1,"right","['e']",0,0.161881900000481,0.1,0,0,"AccFast",1,17,"Woman","Right",NA,5,TRUE,TRUE,TRUE,TRUE
5,13,1,0.784508099999584,"['n']",0,"left","['e']",0,0.125588599999901,0.2,1,0,"AccFast",1,17,"Woman","Right",NA,5,TRUE,TRUE,TRUE,TRUE
6,13,1,0.701017400000637,"['n']",1,"right","['e']",0,0.127180399999816,0.2,0,0,"AccFast",1,17,"Woman","Right",NA,5,TRUE,TRUE,TRUE,TRUE
7,13,1,0.884208100000251,"['c']",1,"left","['e']",0,0.217671100000189,0.1,0,0,"AccFast",1,17,"Woman","Right",NA,5,TRUE,TRUE,TRUE,TRUE
8,13,1,0.883835699999509,"['n']",1,"right","['e']",0,0.240145499999926,0.4,0,0,"AccFast",1,17,"Woman","Right",NA,5,TRUE,TRUE,TRUE,TRUE
9,13,1,0.935099999999693,"['n']",1,"right","['e']",0,0.0841448000001037,0.2,0,0,"AccFast",1,17,"Woman","Right",NA,5,TRUE,TRUE,TRUE,TRUE
10,13,1,0.9012943000007,"['n']",1,"right","['e']",0,0.142651500000284,0.1,0,0,"AccFast",1,17,"Woman","Right",NA,5,TRUE,TRUE,TRUE,TRUE
11,13,1,0.734201000000212,"['n']",1,"right","['e']",0,0.142551000000822,0.4,0,0,"AccFast",1,17,"Woman","Right",NA,5,TRUE,TRUE,TRUE,TRUE
12,13,1,0.768130100000235,"['c']",1,"left","['e']",0,0.156839799999943,0.4,0,0,"AccFast",1,17,"Woman","Right",NA,5,TRUE,TRUE,TRUE,TRUE
13,13,1,0.749270799999977,"['n']",0,"left","['e']",0,0.124689899999794,0.1,1,0,"AccFast",1,17,"Woman","Right",NA,5,TRUE,TRUE,TRUE,TRUE
14,13,1,0.71807760000047,"['n']",1,"right","['e']",0,0.124111899999662,0.2,0,0,"AccFast",1,17,"Woman","Right",NA,5,TRUE,TRUE,TRUE,TRUE
15,13,1,0.751238400000148,"['n']",1,"right","['e']",0,0.108809199999996,0.4,0,0,"AccFast",1,17,"Woman","Right",NA,5,TRUE,TRUE,TRUE,TRUE
16,13,1,0.70045620000019,"['n']",1,"right","['e']",0,0.110211600000184,0.4,0,0,"AccFast",1,17,"Woman","Right",NA,5,TRUE,TRUE,TRUE,TRUE
17,13,1,0.61795020000045,"['c']",1,"left","['e']",0,0.275824700000157,0.4,0,0,"AccFast",1,17,"Woman","Right",NA,5,TRUE,TRUE,TRUE,TRUE
18,13,1,0.667333399999734,"['c']",1,"left","['e']",0,0.0968394000001354,0.2,0,0,"AccFast",1,17,"Woman","Right",NA,5,TRUE,TRUE,TRUE,TRUE
19,13,1,0.900972699999329,"['n']",1,"right","['e']",0,0.139263000000028,0.1,0,0,"AccFast",1,17,"Woman","Right",NA,5,TRUE,TRUE,TRUE,TRUE
20,13,1,0.984845699999823,"['n']",0,"left","['e']",0,0.145032499999616,0.2,1,0,"AccFast",1,17,"Woman","Right",NA,5,TRUE,TRUE,TRUE,TRUE
21,13,1,0.850688800000171,"['c']",1,"left","['e']",0,0.123433700000533,0.2,0,0,"AccFast",1,17,"Woman","Right",NA,5,TRUE,TRUE,TRUE,TRUE
22,13,1,0.699803999999858,"['n']",1,"right","['e']",0,0.158049399999982,0.4,0,0,"AccFast",1,17,"Woman","Right",NA,5,TRUE,TRUE,TRUE,TRUE
23,13,1,0.817825399999492,"['n']",1,"right","['e']",0,0.136881399999766,0.4,0,0,"AccFast",1,17,"Woman","Right",NA,5,TRUE,TRUE,TRUE,TRUE
24,13,1,0.834468500000185,"['c']",1,"left","['e']",0,0.101449500000854,0.2,0,0,"AccFast",1,17,"Woman","Right",NA,5,TRUE,TRUE,TRUE,TRUE
25,13,1,0.916720500000338,"['c']",1,"left","['e']",0,0.0784713000002739,0.1,0,0,"AccFast",1,17,"Woman","Right",NA,5,TRUE,TRUE,TRUE,TRUE
26,13,1,1.06750879999981,"['c']",1,"left","['e']",0,0.0827117999997427,0.2,0,0,"AccFast",1,17,"Woman","Right",NA,5,TRUE,TRUE,TRUE,TRUE
27,13,1,1.00080279999929,"['c']",1,"left","['e']",0,0.393795599999976,0.1,0,0,"AccFast",1,17,"Woman","Right",NA,5,TRUE,TRUE,TRUE,TRUE
28,13,1,0.834782500000074,"['n']",1,"right","['e']",0,0.139679900000374,0.4,0,0,"AccFast",1,17,"Woman","Right",NA,5,TRUE,TRUE,TRUE,TRUE
29,13,1,1.21605819999968,"['n']",0,"left","['e']",0,0.089632199999869,0.1,1,0,"AccFast",1,17,"Woman","Right",NA,5,TRUE,TRUE,TRUE,TRUE
30,13,1,1.08557240000027,"['n']",0,"left","['e']",0,0.171850400000039,0.4,1,0,"AccFast",1,17,"Woman","Right",NA,5,TRUE,TRUE,TRUE,TRUE
31,13,1,1.00034529999994,"['c']",1,"left","['e']",0,0.143349099999796,0.4,0,0,"AccFast",1,17,"Woman","Right",NA,5,TRUE,TRUE,TRUE,TRUE
32,13,1,1.25133449999976,"['n']",1,"right","['e']",0,0.138463700000102,0.4,0,0,"AccFast",1,17,"Woman","Right",NA,5,TRUE,TRUE,TRUE,TRUE
33,13,1,1.45119709999926,"['c']",1,"left","['e']",0,0.141724600000089,0.1,0,0,"AccFast",1,17,"Woman","Right",NA,5,TRUE,TRUE,TRUE,TRUE
34,13,1,1.03472739999961,"['c']",1,"left","['e']",0,0.12946329999977,0.4,0,0,"AccFast",1,17,"Woman","Right",NA,5,TRUE,TRUE,TRUE,TRUE
35,13,1,1.13474469999983,"['n']",0,"left","['e']",0,0.129300900000089,0.2,1,0,"AccFast",1,17,"Woman","Right",NA,5,TRUE,TRUE,TRUE,TRUE
36,13,1,1.18425750000006,"['c']",0,"right","['e']",0,0.111071600000287,0.1,1,0,"AccFast",1,17,"Woman","Right",NA,5,TRUE,TRUE,TRUE,TRUE
37,13,1,1.05156949999946,"['n']",1,"right","['e']",0,0.115775799999938,0.1,0,0,"AccFast",1,17,"Woman","Right",NA,5,TRUE,TRUE,TRUE,TRUE
38,13,1,1.08438279999973,"['n']",1,"right","['e']",0,0.118042799999785,0.1,0,0,"AccFast",1,17,"Woman","Right",NA,5,TRUE,TRUE,TRUE,TRUE
39,13,1,1.25157620000027,"['c']",0,"right","['e']",0,0.0817181000002165,0.2,1,0,"AccFast",1,17,"Woman","Right",NA,5,TRUE,TRUE,TRUE,TRUE
40,13,1,1.26738120000027,"['n']",0,"left","['e']",0,0.126185199999782,0.2,1,0,"AccFast",1,17,"Woman","Right",NA,5,TRUE,TRUE,TRUE,TRUE
41,13,1,0.867591600000196,"['n']",0,"left","['e']",0,0.105063100000734,0.2,1,0,"AccFast",1,17,"Woman","Right",NA,5,TRUE,TRUE,TRUE,TRUE
42,13,1,0.751337499999863,"['n']",1,"right","['e']",0,0.121795399999428,0.2,0,0,"AccFast",1,17,"Woman","Right",NA,5,TRUE,TRUE,TRUE,TRUE
43,13,1,0.917686699999649,"['n']",0,"left","['e']",0,0.722435499999847,0.2,1,0,"AccFast",1,17,"Woman","Right",NA,5,TRUE,TRUE,TRUE,TRUE
44,13,1,0.934874100000343,"['n']",0,"left","['e']",0,0.0988541999995505,0.1,1,0,"AccFast",1,17,"Woman","Right",NA,5,TRUE,TRUE,TRUE,TRUE
45,13,1,0.984616200000346,"['n']",0,"left","['e']",0,0.090252099999816,0.1,1,0,"AccFast",1,17,"Woman","Right",NA,5,TRUE,TRUE,TRUE,TRUE
46,13,1,0.917759299999489,"['n']",1,"right","['e']",0,0.100329900000361,0.1,0,0,"AccFast",1,17,"Woman","Right",NA,5,TRUE,TRUE,TRUE,TRUE
47,13,1,0.799744799999644,"['n']",1,"right","['e']",0,0.0834285999999338,0.4,0,0,"AccFast",1,17,"Woman","Right",NA,5,TRUE,TRUE,TRUE,TRUE
48,13,1,1.21827250000024,"['c']",0,"right","['e']",0,0.0810234000000492,0.2,1,0,"AccFast",1,17,"Woman","Right",NA,5,TRUE,TRUE,TRUE,TRUE
49,13,1,1.70122100000026,"['n']",1,"right","['e']",0,0.268387500000244,0.4,0,0,"AccFast",1,17,"Woman","Right",NA,5,TRUE,TRUE,TRUE,TRUE
50,13,1,1.3002747999999,"['c']",1,"left","['e']",0,0.0964386999994531,0.1,0,0,"AccFast",1,17,"Woman","Right",NA,5,TRUE,TRUE,TRUE,TRUE
51,13,1,1.04972850000013,"['c']",0,"right","['e']",0,0.101149000000078,0.1,1,0,"AccFast",1,17,"Woman","Right",NA,5,TRUE,TRUE,TRUE,TRUE
52,13,1,0.800677899999755,"['n']",1,"right","['e']",0,0.115071199999875,0.2,0,0,"AccFast",1,17,"Woman","Right",NA,5,TRUE,TRUE,TRUE,TRUE
53,13,1,0.816108600000007,"['n']",1,"right","['e']",0,0.0480253000005177,0.4,0,0,"AccFast",1,17,"Woman","Right",NA,5,TRUE,TRUE,TRUE,TRUE
54,13,1,0.950969000000441,"['c']",0,"right","['e']",0,0.0744466000005559,0.2,1,0,"AccFast",1,17,"Woman","Right",NA,5,TRUE,TRUE,TRUE,TRUE
55,13,1,2.48440370000026,"['c']",1,"left","['u']",1,0.902832800000397,0.1,1,0,"AccFast",1,17,"Woman","Right",NA,5,TRUE,TRUE,TRUE,TRUE
56,13,1,1.75032459999966,"['n']",0,"left","['e']",0,0.111502499999915,0.1,1,0,"AccFast",1,17,"Woman","Right",NA,5,TRUE,TRUE,TRUE,TRUE
57,13,1,1.40019569999913,"['c']",1,"left","['u']",1,0.549578300000576,0.4,1,0,"AccFast",1,17,"Woman","Right",NA,5,TRUE,TRUE,TRUE,TRUE
58,13,1,1.13485639999999,"['n']",0,"left","['e']",0,0.148440999999366,0.1,1,0,"AccFast",1,17,"Woman","Right",NA,5,TRUE,TRUE,TRUE,TRUE
59,13,1,2.31652719999965,"['n']",1,"right","['e']",0,0.453233100000034,0.2,0,0,"AccFast",1,17,"Woman","Right",NA,5,TRUE,TRUE,TRUE,TRUE
0,14,1,1.4167594999999,"['c']",1,"left","['u']",1,0.160214200000155,0.4,1,0,"AccAcc",1,17,"Woman","Right",NA,5,TRUE,TRUE,TRUE,TRUE
1,14,1,1.05138600000009,"['n']",0,"left","['e']",0,0.114228800000092,0.2,1,0,"AccAcc",1,17,"Woman","Right",NA,5,TRUE,TRUE,TRUE,TRUE
2,14,1,1.15111280000019,"['n']",0,"left","['e']",0,0.113907400000244,0.2,1,0,"AccAcc",1,17,"Woman","Right",NA,5,TRUE,TRUE,TRUE,TRUE
3,14,1,1.05112839999947,"['c']",0,"right","['e']",0,0.14969259999998,0.1,1,0,"AccAcc",1,17,"Woman","Right",NA,5,TRUE,TRUE,TRUE,TRUE
4,14,1,0.751465299999836,"['n']",1,"right","['e']",0,0.132014000000709,0.2,0,0,"AccAcc",1,17,"Woman","Right",NA,5,TRUE,TRUE,TRUE,TRUE
5,14,1,0.999746899999991,"['n']",1,"right","['e']",0,0.233621600000333,0.2,0,0,"AccAcc",1,17,"Woman","Right",NA,5,TRUE,TRUE,TRUE,TRUE
6,14,1,1.06791290000001,"['c']",1,"left","['e']",0,0.407672299999831,0.2,0,0,"AccAcc",1,17,"Woman","Right",NA,5,TRUE,TRUE,TRUE,TRUE
7,14,1,1.1163489999999,"['n']",1,"right","['e']",0,0.142225800000233,0.4,0,0,"AccAcc",1,17,"Woman","Right",NA,5,TRUE,TRUE,TRUE,TRUE
8,14,1,0.851279200000135,"['n']",1,"right","['e']",0,0.104365700000017,0.4,0,0,"AccAcc",1,17,"Woman","Right",NA,5,TRUE,TRUE,TRUE,TRUE
9,14,1,1.11733170000025,"['c']",0,"right","['e']",0,0.155017300000509,0.2,1,0,"AccAcc",1,17,"Woman","Right",NA,5,TRUE,TRUE,TRUE,TRUE
10,14,1,0.950098499999513,"['c']",1,"left","['u']",1,0.704735100000107,0.4,1,0,"AccAcc",1,17,"Woman","Right",NA,5,TRUE,TRUE,TRUE,TRUE
11,14,1,0.917895900000076,"['n']",1,"right","['e']",0,0.338365699999486,0.4,0,0,"AccAcc",1,17,"Woman","Right",NA,5,TRUE,TRUE,TRUE,TRUE
12,14,1,1.10003520000009,"['c']",1,"left","['e']",0,0.17205660000036,0.2,0,0,"AccAcc",1,17,"Woman","Right",NA,5,TRUE,TRUE,TRUE,TRUE
13,14,1,1.11781709999923,"['n']",1,"right","['u']",1,0.235377299999527,0.4,1,0,"AccAcc",1,17,"Woman","Right",NA,5,TRUE,TRUE,TRUE,TRUE
14,14,1,1.16817040000024,"['c']",1,"left","['e']",0,0.117106799999419,0.2,0,0,"AccAcc",1,17,"Woman","Right",NA,5,TRUE,TRUE,TRUE,TRUE
15,14,1,0.918044000000009,"['c']",1,"left","['e']",0,0.142125299999861,0.1,0,0,"AccAcc",1,17,"Woman","Right",NA,5,TRUE,TRUE,TRUE,TRUE
16,14,1,1.13454619999993,"['n']",0,"left","['e']",0,0.157964800000627,0.1,1,0,"AccAcc",1,17,"Woman","Right",NA,5,TRUE,TRUE,TRUE,TRUE
17,14,1,0.851389399999789,"['n']",1,"right","['e']",0,0.104349199999888,0.1,0,0,"AccAcc",1,17,"Woman","Right",NA,5,TRUE,TRUE,TRUE,TRUE
18,14,1,1.41759850000017,"['c']",0,"right","['e']",0,0.125917600000321,0.1,1,0,"AccAcc",1,17,"Woman","Right",NA,5,TRUE,TRUE,TRUE,TRUE
19,14,1,1.13410210000075,"['n']",1,"right","['e']",0,0.110733600000458,0.2,0,0,"AccAcc",1,17,"Woman","Right",NA,5,TRUE,TRUE,TRUE,TRUE
20,14,1,1.23357800000031,"['c']",1,"left","['e']",0,0.108700600000702,0.2,0,0,"AccAcc",1,17,"Woman","Right",NA,5,TRUE,TRUE,TRUE,TRUE
21,14,1,1.33507790000021,"['c']",1,"left","['u']",1,0.116549400000622,0.4,1,0,"AccAcc",1,17,"Woman","Right",NA,5,TRUE,TRUE,TRUE,TRUE
22,14,1,2.15116790000047,"['n']",1,"right","['e']",0,0.157408699999905,0.4,0,0,"AccAcc",1,17,"Woman","Right",NA,5,TRUE,TRUE,TRUE,TRUE
23,14,1,1.71790340000007,"['n']",0,"left","['e']",0,0.21238379999977,0.2,1,0,"AccAcc",1,17,"Woman","Right",NA,5,TRUE,TRUE,TRUE,TRUE
24,14,1,1.11821880000025,"['n']",1,"right","['e']",0,0.14543969999977,0.2,0,0,"AccAcc",1,17,"Woman","Right",NA,5,TRUE,TRUE,TRUE,TRUE
25,14,1,1.13232510000034,"['c']",1,"left","['e']",0,0.241441299999678,0.1,0,0,"AccAcc",1,17,"Woman","Right",NA,5,TRUE,TRUE,TRUE,TRUE
26,14,1,1.11638310000035,"['n']",1,"right","['e']",0,0.157523300000321,0.4,0,0,"AccAcc",1,17,"Woman","Right",NA,5,TRUE,TRUE,TRUE,TRUE
27,14,1,1.26767769999969,"['n']",1,"right","['e']",0,0.150961700000153,0.4,0,0,"AccAcc",1,17,"Woman","Right",NA,5,TRUE,TRUE,TRUE,TRUE
28,14,1,1.38450680000005,"['c']",0,"right","['e']",0,0.172696700000415,0.4,1,0,"AccAcc",1,17,"Woman","Right",NA,5,TRUE,TRUE,TRUE,TRUE
29,14,1,1.13470219999999,"['n']",1,"right","['u']",1,0.970399100000577,0.1,1,0,"AccAcc",1,17,"Woman","Right",NA,5,TRUE,TRUE,TRUE,TRUE
30,14,1,1.83434309999939,"['n']",0,"left","['e']",0,0.876977300000362,0.1,1,0,"AccAcc",1,17,"Woman","Right",NA,5,TRUE,TRUE,TRUE,TRUE
31,14,1,1.20145579999917,"['c']",1,"left","['e']",0,0.140924000000268,0.4,0,0,"AccAcc",1,17,"Woman","Right",NA,5,TRUE,TRUE,TRUE,TRUE
32,14,1,1.13513599999987,"['n']",1,"right","['e']",0,0.124526500000684,0.1,0,0,"AccAcc",1,17,"Woman","Right",NA,5,TRUE,TRUE,TRUE,TRUE
33,14,1,1.2677233000004,"['n']",1,"right","['e']",0,0.135773500000141,0.2,0,0,"AccAcc",1,17,"Woman","Right",NA,5,TRUE,TRUE,TRUE,TRUE
34,14,1,1.7833513000005,"['c']",1,"left","['e']",0,0.221863799999483,0.1,0,0,"AccAcc",1,17,"Woman","Right",NA,5,TRUE,TRUE,TRUE,TRUE
35,14,1,1.83369709999988,"['n']",0,"left","['e']",0,0.174301000000014,0.1,1,0,"AccAcc",1,17,"Woman","Right",NA,5,TRUE,TRUE,TRUE,TRUE
36,14,1,1.6009881,"['c']",1,"left","['e']",0,0.137891499999569,0.1,0,0,"AccAcc",1,17,"Woman","Right",NA,5,TRUE,TRUE,TRUE,TRUE
37,14,1,1.83342259999972,"['n']",0,"left","['e']",0,0.109999100000095,0.4,1,0,"AccAcc",1,17,"Woman","Right",NA,5,TRUE,TRUE,TRUE,TRUE
38,14,1,1.13396000000012,"['n']",1,"right","['u']",1,0.174899800000276,0.4,1,0,"AccAcc",1,17,"Woman","Right",NA,5,TRUE,TRUE,TRUE,TRUE
39,14,1,1.31773969999995,"['c']",1,"left","['e']",0,0.16763869999977,0.2,0,0,"AccAcc",1,17,"Woman","Right",NA,5,TRUE,TRUE,TRUE,TRUE
40,14,1,1.20159249999961,"['n']",0,"left","['e']",0,0.0820007000002079,0.2,1,0,"AccAcc",1,17,"Woman","Right",NA,5,TRUE,TRUE,TRUE,TRUE
41,14,1,1.03319680000004,"['n']",1,"right","['e']",0,0.136231500000576,0.4,0,0,"AccAcc",1,17,"Woman","Right",NA,5,TRUE,TRUE,TRUE,TRUE
42,14,1,1.0325112999999,"['c']",1,"left","['e']",0,0.139462699999967,0.2,0,0,"AccAcc",1,17,"Woman","Right",NA,5,TRUE,TRUE,TRUE,TRUE
43,14,1,1.13313010000002,"['c']",1,"left","['e']",0,0.123877100000755,0.4,0,0,"AccAcc",1,17,"Woman","Right",NA,5,TRUE,TRUE,TRUE,TRUE
44,14,1,1.1672609999996,"['n']",1,"right","['e']",0,0.122014300000046,0.4,0,0,"AccAcc",1,17,"Woman","Right",NA,5,TRUE,TRUE,TRUE,TRUE
45,14,1,1.05168870000034,"['n']",0,"left","['e']",0,0.109797099999923,0.1,1,0,"AccAcc",1,17,"Woman","Right",NA,5,TRUE,TRUE,TRUE,TRUE
46,14,1,1.51702690000002,"['n']",1,"right","['e']",0,0.111566999999923,0.1,0,0,"AccAcc",1,17,"Woman","Right",NA,5,TRUE,TRUE,TRUE,TRUE
47,14,1,1.36763800000062,"['n']",1,"right","['e']",0,0.13479229999939,0.2,0,0,"AccAcc",1,17,"Woman","Right",NA,5,TRUE,TRUE,TRUE,TRUE
48,14,1,1.33466609999959,"['n']",0,"left","['e']",0,0.0946221000003789,0.1,1,0,"AccAcc",1,17,"Woman","Right",NA,5,TRUE,TRUE,TRUE,TRUE
49,14,1,1.23487979999936,"['n']",1,"right","['e']",0,0.172330500000498,0.2,0,0,"AccAcc",1,17,"Woman","Right",NA,5,TRUE,TRUE,TRUE,TRUE
50,14,1,1.03383779999967,"['c']",1,"left","['e']",0,0.110886100000243,0.1,0,0,"AccAcc",1,17,"Woman","Right",NA,5,TRUE,TRUE,TRUE,TRUE
51,14,1,0.866890399999647,"['n']",1,"right","['e']",0,0.106738599999517,0.4,0,0,"AccAcc",1,17,"Woman","Right",NA,5,TRUE,TRUE,TRUE,TRUE
52,14,1,0.983585599999969,"['n']",1,"right","['e']",0,0.0658245999993596,0.1,0,0,"AccAcc",1,17,"Woman","Right",NA,5,TRUE,TRUE,TRUE,TRUE
53,14,1,1.39984259999983,"['n']",1,"right","['e']",0,0.137504299999819,0.2,0,0,"AccAcc",1,17,"Woman","Right",NA,5,TRUE,TRUE,TRUE,TRUE
54,14,1,0.851004199999807,"['n']",1,"right","['e']",0,0.132479999999305,0.4,0,0,"AccAcc",1,17,"Woman","Right",NA,5,TRUE,TRUE,TRUE,TRUE
55,14,1,1.18469300000015,"['n']",0,"left","['e']",0,0.0980901000002632,0.1,1,0,"AccAcc",1,17,"Woman","Right",NA,5,TRUE,TRUE,TRUE,TRUE
56,14,1,0.984685699999318,"['c']",1,"left","['e']",0,0.13711240000066,0.1,0,0,"AccAcc",1,17,"Woman","Right",NA,5,TRUE,TRUE,TRUE,TRUE
57,14,1,1.00052250000044,"['c']",1,"left","['e']",0,0.111040100000537,0.2,0,0,"AccAcc",1,17,"Woman","Right",NA,5,TRUE,TRUE,TRUE,TRUE
58,14,1,1.08392710000044,"['c']",0,"right","['e']",0,0.0971210999996401,0.1,1,0,"AccAcc",1,17,"Woman","Right",NA,5,TRUE,TRUE,TRUE,TRUE
59,14,1,1.13365030000023,"['c']",1,"left","['e']",0,0.146393900000476,0.4,0,0,"AccAcc",1,17,"Woman","Right",NA,5,TRUE,TRUE,TRUE,TRUE
0,15,1,0.917291099999602,"['c']",1,"left","['e']",0,0.167800100000022,0.2,0,0,"FastAcc",1,17,"Woman","Right",NA,5,TRUE,TRUE,TRUE,TRUE
1,15,1,0.849290100000871,"['n']",0,"left","['e']",0,0.114887299999282,0.1,1,0,"FastAcc",1,17,"Woman","Right",NA,5,TRUE,TRUE,TRUE,TRUE
2,15,1,0.934773899999527,"['n']",1,"right","['u']",1,0.505973599999379,0.4,1,0,"FastAcc",1,17,"Woman","Right",NA,5,TRUE,TRUE,TRUE,TRUE
3,15,1,0.917459299999791,"['n']",0,"left","['e']",0,0.116597500000353,0.4,1,0,"FastAcc",1,17,"Woman","Right",NA,5,TRUE,TRUE,TRUE,TRUE
4,15,1,1.00122050000027,"['c']",1,"left","['u']",1,0.169285400000263,0.4,1,0,"FastAcc",1,17,"Woman","Right",NA,5,TRUE,TRUE,TRUE,TRUE
5,15,1,1.0012014999993,"['n']",1,"right","['e']",0,0.125063400000727,0.2,0,0,"FastAcc",1,17,"Woman","Right",NA,5,TRUE,TRUE,TRUE,TRUE
6,15,1,0.984097900000052,"['n']",0,"left","['e']",0,0.147316699999465,0.1,1,0,"FastAcc",1,17,"Woman","Right",NA,5,TRUE,TRUE,TRUE,TRUE
7,15,1,0.901718399999481,"['n']",1,"right","['u']",1,0.443922499999644,0.4,1,0,"FastAcc",1,17,"Woman","Right",NA,5,TRUE,TRUE,TRUE,TRUE
8,15,1,1.20127440000033,"['c']",1,"left","['u']",1,0.797188399999868,0.4,1,0,"FastAcc",1,17,"Woman","Right",NA,5,TRUE,TRUE,TRUE,TRUE
9,15,1,0.634823999999753,"['n']",1,"right","['u']",1,1.63816169999973,0.1,1,0,"FastAcc",1,17,"Woman","Right",NA,5,TRUE,TRUE,TRUE,TRUE
10,15,1,0.71767490000002,"['n']",1,"right","['e']",0,1.17874319999919,0.2,0,0,"FastAcc",1,17,"Woman","Right",NA,5,TRUE,TRUE,TRUE,TRUE
11,15,1,0.783287600000222,"['n']",1,"right","['e']",0,1.43925000000036,0.1,0,0,"FastAcc",1,17,"Woman","Right",NA,5,TRUE,TRUE,TRUE,TRUE
12,15,1,0.834736800000428,"['n']",0,"left","['e']",0,0.486480900000061,0.1,1,0,"FastAcc",1,17,"Woman","Right",NA,5,TRUE,TRUE,TRUE,TRUE
13,15,1,1.26715850000073,"['c']",0,"right","['e']",0,0.227753799999846,0.2,1,0,"FastAcc",1,17,"Woman","Right",NA,5,TRUE,TRUE,TRUE,TRUE
14,15,1,1.08586779999951,"['c']",1,"left","['e']",0,0.113404400000036,0.2,0,0,"FastAcc",1,17,"Woman","Right",NA,5,TRUE,TRUE,TRUE,TRUE
15,15,1,1.61481660000027,"['n']",1,"right","['e']",0,0.576079200000095,0.1,0,0,"FastAcc",1,17,"Woman","Right",NA,5,TRUE,TRUE,TRUE,TRUE
16,15,1,0.985293699999602,"['n']",1,"right","['e']",0,0.130940699999883,0.1,0,0,"FastAcc",1,17,"Woman","Right",NA,5,TRUE,TRUE,TRUE,TRUE
17,15,1,1.00142359999973,"['c']",0,"right","['e']",0,0.200045200000204,0.4,1,0,"FastAcc",1,17,"Woman","Right",NA,5,TRUE,TRUE,TRUE,TRUE
18,15,1,1.03401310000027,"['n']",1,"right","['e']",0,0.18507690000024,0.2,0,0,"FastAcc",1,17,"Woman","Right",NA,5,TRUE,TRUE,TRUE,TRUE
19,15,1,1.10120420000021,"['n']",1,"right","['e']",0,0.152339399999619,0.2,0,0,"FastAcc",1,17,"Woman","Right",NA,5,TRUE,TRUE,TRUE,TRUE
20,15,1,0.967844699999659,"['n']",1,"right","['e']",0,1.0539447000001,0.1,0,0,"FastAcc",1,17,"Woman","Right",NA,5,TRUE,TRUE,TRUE,TRUE
21,15,1,0.968088999999964,"['n']",1,"right","['e']",0,0.0804113999993206,0.1,0,0,"FastAcc",1,17,"Woman","Right",NA,5,TRUE,TRUE,TRUE,TRUE
22,15,1,1.00097149999965,"['c']",1,"left","['e']",0,0.230996499999492,0.2,0,0,"FastAcc",1,17,"Woman","Right",NA,5,TRUE,TRUE,TRUE,TRUE
23,15,1,0.933368799999698,"['n']",1,"right","['e']",0,0.138899599999604,0.2,0,0,"FastAcc",1,17,"Woman","Right",NA,5,TRUE,TRUE,TRUE,TRUE
24,15,1,1.03484979999939,"['c']",1,"left","['e']",0,0.142270000000281,0.4,0,0,"FastAcc",1,17,"Woman","Right",NA,5,TRUE,TRUE,TRUE,TRUE
25,15,1,0.899993199999699,"['n']",0,"left","['e']",0,0.168188300000111,0.2,1,0,"FastAcc",1,17,"Woman","Right",NA,5,TRUE,TRUE,TRUE,TRUE
26,15,1,1.0675398000003,"['c']",1,"left","['e']",0,0.152670700000272,0.2,0,0,"FastAcc",1,17,"Woman","Right",NA,5,TRUE,TRUE,TRUE,TRUE
27,15,1,0.734418499999265,"['n']",1,"right","['e']",0,0.19951680000031,0.4,0,0,"FastAcc",1,17,"Woman","Right",NA,5,TRUE,TRUE,TRUE,TRUE
28,15,1,1.20126149999942,"['c']",0,"right","['e']",0,0.145912799999678,0.1,1,0,"FastAcc",1,17,"Woman","Right",NA,5,TRUE,TRUE,TRUE,TRUE
29,15,1,0.667070299999978,"['n']",0,"left","['e']",0,0.0844286000001375,0.2,1,0,"FastAcc",1,17,"Woman","Right",NA,5,TRUE,TRUE,TRUE,TRUE
30,15,1,1.06666339999992,"['n']",1,"right","['e']",0,0.0722236000001431,0.2,0,0,"FastAcc",1,17,"Woman","Right",NA,5,TRUE,TRUE,TRUE,TRUE
31,15,1,0.917814599999474,"['n']",1,"right","['e']",0,0.275221500000043,0.2,0,0,"FastAcc",1,17,"Woman","Right",NA,5,TRUE,TRUE,TRUE,TRUE
32,15,1,0.834579500000473,"['n']",1,"right","['e']",0,0.505889199999729,0.1,0,0,"FastAcc",1,17,"Woman","Right",NA,5,TRUE,TRUE,TRUE,TRUE
33,15,1,0.951392700000724,"['c']",0,"right","['e']",0,0.257930299999316,0.2,1,0,"FastAcc",1,17,"Woman","Right",NA,5,TRUE,TRUE,TRUE,TRUE
34,15,1,0.800976399999854,"['c']",0,"right","['e']",0,0.186405000000377,0.1,1,0,"FastAcc",1,17,"Woman","Right",NA,5,TRUE,TRUE,TRUE,TRUE
35,15,1,0.900883000000249,"['c']",0,"right","['e']",0,0.1454018000004,0.2,1,0,"FastAcc",1,17,"Woman","Right",NA,5,TRUE,TRUE,TRUE,TRUE
36,15,1,0.984708200000568,"['c']",1,"left","['u']",1,0.247240899999269,0.1,1,0,"FastAcc",1,17,"Woman","Right",NA,5,TRUE,TRUE,TRUE,TRUE
37,15,1,0.917903700000352,"['c']",1,"left","['e']",0,0.282273900000291,0.1,0,0,"FastAcc",1,17,"Woman","Right",NA,5,TRUE,TRUE,TRUE,TRUE
38,15,1,0.934867799999665,"['c']",0,"right","['u']",1,1.00400660000014,0.1,0,0,"FastAcc",1,17,"Woman","Right",NA,5,TRUE,TRUE,TRUE,TRUE
39,15,1,1.10112630000003,"['c']",1,"left","['u']",1,1.06768389999979,0.4,1,0,"FastAcc",1,17,"Woman","Right",NA,5,TRUE,TRUE,TRUE,TRUE
40,15,1,1.05128130000048,"['c']",1,"left","['e']",0,0.248337500000162,0.2,0,0,"FastAcc",1,17,"Woman","Right",NA,5,TRUE,TRUE,TRUE,TRUE
41,15,1,0.950290499999937,"['c']",1,"left","['u']",1,0.266717700000299,0.4,1,0,"FastAcc",1,17,"Woman","Right",NA,5,TRUE,TRUE,TRUE,TRUE
42,15,1,2.41762510000081,"['n']",1,"right","['e']",0,0.194085499999346,0.1,0,0,"FastAcc",1,17,"Woman","Right",NA,5,TRUE,TRUE,TRUE,TRUE
43,15,1,1.13431570000012,"['n']",0,"left","['e']",0,0.303890999999567,0.1,1,0,"FastAcc",1,17,"Woman","Right",NA,5,TRUE,TRUE,TRUE,TRUE
44,15,1,0.950063499999487,"['c']",0,"right","['e']",0,0.176324699999896,0.2,1,0,"FastAcc",1,17,"Woman","Right",NA,5,TRUE,TRUE,TRUE,TRUE
45,15,1,1.08381259999987,"['c']",1,"left","['e']",0,1.44094390000009,0.4,0,0,"FastAcc",1,17,"Woman","Right",NA,5,TRUE,TRUE,TRUE,TRUE
46,15,1,1.10075719999986,"['n']",1,"right","['e']",0,0.174042800000279,0.4,0,0,"FastAcc",1,17,"Woman","Right",NA,5,TRUE,TRUE,TRUE,TRUE
47,15,1,0.735898600000837,"['n']",1,"right","['e']",0,0.204353500000252,0.4,0,0,"FastAcc",1,17,"Woman","Right",NA,5,TRUE,TRUE,TRUE,TRUE
48,15,1,1.11845119999998,"['n']",1,"right","['e']",0,0.202071200000319,0.2,0,0,"FastAcc",1,17,"Woman","Right",NA,5,TRUE,TRUE,TRUE,TRUE
49,15,1,1.01766839999982,"['c']",1,"left","['e']",0,0.316049699999894,0.1,0,0,"FastAcc",1,17,"Woman","Right",NA,5,TRUE,TRUE,TRUE,TRUE
50,15,1,0.784510200000113,"['n']",0,"left","['u']",1,0.338494800000262,0.4,0,0,"FastAcc",1,17,"Woman","Right",NA,5,TRUE,TRUE,TRUE,TRUE
51,15,1,0.96646789999977,"['c']",1,"left","['u']",1,0.208789299999808,0.4,1,0,"FastAcc",1,17,"Woman","Right",NA,5,TRUE,TRUE,TRUE,TRUE
52,15,1,1.05262159999984,"['n']",0,"left","['e']",0,0.129071899999872,0.1,1,0,"FastAcc",1,17,"Woman","Right",NA,5,TRUE,TRUE,TRUE,TRUE
53,15,1,0.900613899999371,"['n']",0,"left","['e']",0,0.122269299999971,0.1,1,0,"FastAcc",1,17,"Woman","Right",NA,5,TRUE,TRUE,TRUE,TRUE
54,15,1,1.15117819999978,"['c']",1,"left","['e']",0,0.42601299999933,0.4,0,0,"FastAcc",1,17,"Woman","Right",NA,5,TRUE,TRUE,TRUE,TRUE
55,15,1,1.00156090000019,"['n']",1,"right","['u']",1,0.467809100000522,0.4,1,0,"FastAcc",1,17,"Woman","Right",NA,5,TRUE,TRUE,TRUE,TRUE
56,15,1,0.918289100000038,"['c']",1,"left","['u']",1,0.270935100000315,0.4,1,0,"FastAcc",1,17,"Woman","Right",NA,5,TRUE,TRUE,TRUE,TRUE
57,15,1,1.0678796000002,"['c']",1,"left","['e']",0,1.91598520000025,0.4,0,0,"FastAcc",1,17,"Woman","Right",NA,5,TRUE,TRUE,TRUE,TRUE
58,15,1,1.10086719999981,"['c']",1,"left","['e']",0,0.390052199999445,0.2,0,0,"FastAcc",1,17,"Woman","Right",NA,5,TRUE,TRUE,TRUE,TRUE
59,15,1,1.05051630000071,"['c']",1,"left","['e']",0,0.415183099999922,0.4,0,0,"FastAcc",1,17,"Woman","Right",NA,5,TRUE,TRUE,TRUE,TRUE
0,4,1,0.918066299999737,"['n']",0,"left","['u']",0,1.60432159999982,0.1,1,0,"FastFast",2,19,"Woman","Right",NA,5,TRUE,TRUE,TRUE,TRUE
1,4,1,0.733225799999673,"['n']",0,"left","['u']",0,0.665315200000805,0.1,1,0,"FastFast",2,19,"Woman","Right",NA,5,TRUE,TRUE,TRUE,TRUE
2,4,1,0.683686499999567,"['c']",1,"left","['e']",1,0.325170399999479,0.4,1,0,"FastFast",2,19,"Woman","Right",NA,5,TRUE,TRUE,TRUE,TRUE
3,4,1,0.666545800000677,"['n']",1,"right","['e']",1,0.831843700000718,0.4,1,0,"FastFast",2,19,"Woman","Right",NA,5,TRUE,TRUE,TRUE,TRUE
4,4,1,1.41741050000019,"['n']",0,"left","['u']",0,0.776557300000604,0.2,1,0,"FastFast",2,19,"Woman","Right",NA,5,TRUE,TRUE,TRUE,TRUE
5,4,1,1.35161359999984,"['n']",1,"right","['e']",1,0.454358800000591,0.4,1,0,"FastFast",2,19,"Woman","Right",NA,5,TRUE,TRUE,TRUE,TRUE
6,4,1,1.11621269999978,"['c']",1,"left","['u']",0,0.57005289999961,0.2,0,0,"FastFast",2,19,"Woman","Right",NA,5,TRUE,TRUE,TRUE,TRUE
7,4,1,1.50149580000016,"['n']",1,"right","['e']",1,0.361066999999821,0.2,1,0,"FastFast",2,19,"Woman","Right",NA,5,TRUE,TRUE,TRUE,TRUE
8,4,1,1.56836349999958,"['n']",1,"right","['e']",1,0.654547099999945,0.4,1,0,"FastFast",2,19,"Woman","Right",NA,5,TRUE,TRUE,TRUE,TRUE
9,4,1,1.25125990000015,"['n']",0,"left","['u']",0,0.37276810000003,0.2,1,0,"FastFast",2,19,"Woman","Right",NA,5,TRUE,TRUE,TRUE,TRUE
10,4,1,1.43354189999991,"['n']",0,"left","['e']",1,0.767576700000063,0.2,0,0,"FastFast",2,19,"Woman","Right",NA,5,TRUE,TRUE,TRUE,TRUE
11,4,1,1.05132700000013,"['n']",1,"right","['e']",1,0.520879300000161,0.1,1,0,"FastFast",2,19,"Woman","Right",NA,5,TRUE,TRUE,TRUE,TRUE
12,4,1,1.03459930000008,"['n']",0,"left","['u']",0,0.701260400000137,0.4,1,0,"FastFast",2,19,"Woman","Right",NA,5,TRUE,TRUE,TRUE,TRUE
13,4,1,1.3172870999997,"['n']",0,"left","['e']",1,0.638694000000214,0.1,0,0,"FastFast",2,19,"Woman","Right",NA,5,TRUE,TRUE,TRUE,TRUE
14,4,1,1.60171220000029,"['n']",1,"right","['u']",0,0.359838299999865,0.1,0,0,"FastFast",2,19,"Woman","Right",NA,5,TRUE,TRUE,TRUE,TRUE
15,4,1,1.33416149999994,"['n']",1,"right","['u']",0,0.343358199999784,0.1,0,0,"FastFast",2,19,"Woman","Right",NA,5,TRUE,TRUE,TRUE,TRUE
16,4,1,2.26797439999973,"['n']",1,"right","['u']",0,0.433081000000129,0.4,0,0,"FastFast",2,19,"Woman","Right",NA,5,TRUE,TRUE,TRUE,TRUE
17,4,1,1.36706379999941,"['n']",0,"left","['u']",0,0.53949350000039,0.1,1,0,"FastFast",2,19,"Woman","Right",NA,5,TRUE,TRUE,TRUE,TRUE
18,4,1,1.21792519999963,"['c']",1,"left","['e']",1,0.903649000000769,0.2,1,0,"FastFast",2,19,"Woman","Right",NA,5,TRUE,TRUE,TRUE,TRUE
19,4,1,1.26700240000082,"['n']",0,"left","['e']",1,0.628272900000411,0.2,0,0,"FastFast",2,19,"Woman","Right",NA,5,TRUE,TRUE,TRUE,TRUE
20,4,1,1.23525659999996,"['n']",0,"left","['u']",0,0.523583200000758,0.1,1,0,"FastFast",2,19,"Woman","Right",NA,5,TRUE,TRUE,TRUE,TRUE
21,4,1,2.20158379999975,"['n']",0,"left","['e']",1,0.305351300000439,0.4,0,0,"FastFast",2,19,"Woman","Right",NA,5,TRUE,TRUE,TRUE,TRUE
22,4,1,1.05099689999952,"['n']",1,"right","['e']",1,0.253651400000308,0.2,1,0,"FastFast",2,19,"Woman","Right",NA,5,TRUE,TRUE,TRUE,TRUE
23,4,1,1.3179297000006,"['n']",0,"left","['e']",1,0.224825199999941,0.1,0,0,"FastFast",2,19,"Woman","Right",NA,5,TRUE,TRUE,TRUE,TRUE
24,4,1,0.901450799999111,"['c']",0,"right","['e']",1,0.486652500000673,0.2,0,0,"FastFast",2,19,"Woman","Right",NA,5,TRUE,TRUE,TRUE,TRUE
