withinblocktrial,block,block_repetition,rt,resp,cor,cresp,conf_press,cj,rtconf,coherence,metacognition,slow_trial,manipulation,sub,age,gender,handedness,
0,1,1,3.883870699995896,['c'],1,left,none,-99,-99,0.5,-99,0,none,6,18,Woman,Left,
1,1,1,2.7830635999853257,['n'],0,left,none,-99,-99,0.5,-99,0,none,6,18,Woman,Left,
2,1,1,1.0509768000047188,['n'],1,right,none,-99,-99,0.5,-99,0,none,6,18,Woman,Left,
3,1,1,0.7508717000018805,['n'],1,right,none,-99,-99,0.5,-99,0,none,6,18,Woman,Left,
4,1,1,0.5008465999853797,['c'],1,left,none,-99,-99,0.5,-99,0,none,6,18,Woman,Left,
5,1,1,0.4347643000073731,['n'],1,right,none,-99,-99,0.5,-99,0,none,6,18,Woman,Left,
6,1,1,0.5161821999936365,['c'],1,left,none,-99,-99,0.5,-99,0,none,6,18,Woman,Left,
7,1,1,0.46776759999920614,['n'],1,right,none,-99,-99,0.5,-99,0,none,6,18,Woman,Left,
8,1,1,0.5505201000196394,['n'],1,right,none,-99,-99,0.5,-99,0,none,6,18,Woman,Left,
9,1,1,0.48292519999085926,['n'],0,left,none,-99,-99,0.5,-99,0,none,6,18,Woman,Left,
10,1,1,0.583804499998223,['c'],1,left,none,-99,-99,0.5,-99,0,none,6,18,Woman,Left,
11,1,1,0.5000185999961104,['n'],1,right,none,-99,-99,0.5,-99,0,none,6,18,Woman,Left,
12,1,1,0.599295499996515,['c'],1,left,none,-99,-99,0.5,-99,0,none,6,18,Woman,Left,
13,1,1,0.6157804999966174,['n'],1,right,none,-99,-99,0.5,-99,0,none,6,18,Woman,Left,
14,1,1,0.5657448999991175,['c'],1,left,none,-99,-99,0.5,-99,0,none,6,18,Woman,Left,
15,1,1,0.6181740000029095,['c'],1,left,none,-99,-99,0.5,-99,0,none,6,18,Woman,Left,
16,1,1,0.5986447999894153,['c'],1,left,none,-99,-99,0.5,-99,0,none,6,18,Woman,Left,
17,1,1,0.6006972000177484,['n'],1,right,none,-99,-99,0.5,-99,0,none,6,18,Woman,Left,
18,1,1,2.082281700015301,['c'],1,left,none,-99,-99,0.5,-99,0,none,6,18,Woman,Left,
19,1,1,0.8500743999902625,['c'],1,left,none,-99,-99,0.5,-99,0,none,6,18,Woman,Left,
20,1,1,0.6007397999928799,['n'],1,right,none,-99,-99,0.5,-99,0,none,6,18,Woman,Left,
21,1,1,0.8153700999973807,['n'],1,right,none,-99,-99,0.5,-99,0,none,6,18,Woman,Left,
22,1,1,0.6491899999964517,['n'],1,right,none,-99,-99,0.5,-99,0,none,6,18,Woman,Left,
23,1,1,0.7655022999970242,['n'],1,right,none,-99,-99,0.5,-99,0,none,6,18,Woman,Left,
0,2,1,1.4330582999973558,['n'],0,left,none,-99,-99,0.1,-99,0,none,6,18,Woman,Left,
1,2,1,1.4502530000172555,['n'],0,left,none,-99,-99,0.1,-99,0,none,6,18,Woman,Left,
2,2,1,1.7510408999805804,['n'],0,left,none,-99,-99,0.1,-99,0,none,6,18,Woman,Left,
3,2,1,1.2498953999893274,['n'],1,right,none,-99,-99,0.1,-99,0,none,6,18,Woman,Left,
4,2,1,2.216619599988917,['n'],1,right,none,-99,-99,0.4,-99,0,none,6,18,Woman,Left,
5,2,1,0.9656363000103738,['c'],0,right,none,-99,-99,0.2,-99,0,none,6,18,Woman,Left,
6,2,1,0.867866500018863,['n'],1,right,none,-99,-99,0.4,-99,0,none,6,18,Woman,Left,
7,2,1,0.8171660999942105,['c'],1,left,none,-99,-99,0.2,-99,0,none,6,18,Woman,Left,
8,2,1,1.0509069000254385,['n'],1,right,none,-99,-99,0.4,-99,0,none,6,18,Woman,Left,
9,2,1,0.8179453999910038,['c'],1,left,none,-99,-99,0.4,-99,0,none,6,18,Woman,Left,
10,2,1,0.7333698999718763,['n'],1,right,none,-99,-99,0.2,-99,0,none,6,18,Woman,Left,
11,2,1,1.1009251000068616,['c'],1,left,none,-99,-99,0.2,-99,0,none,6,18,Woman,Left,
12,2,1,0.949454199988395,['c'],1,left,none,-99,-99,0.2,-99,0,none,6,18,Woman,Left,
13,2,1,0.7007452999823727,['n'],1,right,none,-99,-99,0.2,-99,0,none,6,18,Woman,Left,
14,2,1,0.9000268999952823,['c'],1,left,none,-99,-99,0.4,-99,0,none,6,18,Woman,Left,
15,2,1,1.0168542999890633,['c'],1,left,none,-99,-99,0.1,-99,0,none,6,18,Woman,Left,
16,2,1,5.015932400012389,x,-99,left,none,-99,-99,0.1,-99,1,none,6,18,Woman,Left,
17,2,1,1.3341189000057057,['n'],1,right,none,-99,-99,0.4,-99,0,none,6,18,Woman,Left,
18,2,1,0.6846795000019483,['n'],1,right,none,-99,-99,0.4,-99,0,none,6,18,Woman,Left,
19,2,1,1.6512450999871362,['n'],1,right,none,-99,-99,0.2,-99,0,none,6,18,Woman,Left,
20,2,1,0.6161908999783918,['c'],1,left,none,-99,-99,0.2,-99,0,none,6,18,Woman,Left,
21,2,1,1.182345000008354,['n'],1,right,none,-99,-99,0.1,-99,0,none,6,18,Woman,Left,
22,2,1,0.7497548999963328,['c'],1,left,none,-99,-99,0.1,-99,0,none,6,18,Woman,Left,
23,2,1,0.6498841000138782,['n'],1,right,none,-99,-99,0.4,-99,0,none,6,18,Woman,Left,
0,3,1,2.3008159000019077,['c'],1,left,['e'],1,1.3313162999984343,0.4,1,0,none,6,18,Woman,Left,
1,3,1,1.467785000015283,['n'],1,right,['u'],0,0.5061020000139251,0.4,0,0,none,6,18,Woman,Left,
2,3,1,1.4176077999873087,['c'],1,left,['e'],1,0.3726001000031829,0.1,1,0,none,6,18,Woman,Left,
3,3,1,4.515483099996345,['n'],1,right,['u'],0,0.4094366999925114,0.1,0,0,none,6,18,Woman,Left,
4,3,1,2.750694400019711,['n'],0,left,['e'],1,0.3691435999935493,0.4,0,0,none,6,18,Woman,Left,
5,3,1,1.517571800010046,['n'],1,right,['e'],1,0.3642978999996558,0.2,1,0,none,6,18,Woman,Left,
6,3,1,1.317474100011168,['c'],1,left,['e'],1,0.30326630000490695,0.4,1,0,none,6,18,Woman,Left,
7,3,1,2.21779689998948,['n'],1,right,['e'],1,0.32131099997786805,0.2,1,0,none,6,18,Woman,Left,
8,3,1,1.433423300011782,['c'],1,left,['e'],1,0.25839270002325065,0.4,1,0,none,6,18,Woman,Left,
9,3,1,2.815824799996335,['c'],1,left,['u'],0,0.2709089000127278,0.2,0,0,none,6,18,Woman,Left,
10,3,1,2.5331137999892235,['c'],1,left,['u'],0,1.0777708000096027,0.2,0,0,none,6,18,Woman,Left,
11,3,1,1.5182008999981917,['n'],1,right,['e'],1,0.2923490999964997,0.4,1,0,none,6,18,Woman,Left,
12,3,1,2.4844279999961145,['c'],1,left,['u'],0,0.30072679999284446,0.1,0,0,none,6,18,Woman,Left,
13,3,1,1.0513991999905556,['n'],1,right,['e'],1,0.524719200009713,0.4,1,0,none,6,18,Woman,Left,
14,3,1,1.5339707999955863,['c'],0,right,['e'],1,0.2743391999974847,0.2,0,0,none,6,18,Woman,Left,
15,3,1,0.8011352999892551,['c'],1,left,['e'],1,0.20530920001328923,0.4,1,0,none,6,18,Woman,Left,
16,3,1,2.8815460999903735,['n'],0,left,['u'],0,0.3300792000081856,0.1,1,0,none,6,18,Woman,Left,
17,3,1,1.5662212999886833,['n'],1,right,['e'],1,0.18080500001087785,0.2,1,0,none,6,18,Woman,Left,
18,3,1,2.4990153000107966,['c'],0,right,['u'],0,0.3999119999934919,0.1,1,0,none,6,18,Woman,Left,
19,3,1,1.4008664999855682,['n'],0,left,['u'],0,0.4619082999997772,0.1,1,0,none,6,18,Woman,Left,
20,3,1,2.2844724000024144,['n'],1,right,['e'],1,0.18439089998719282,0.2,1,0,none,6,18,Woman,Left,
21,3,1,1.7177056000218727,['n'],1,right,['u'],0,0.529956599988509,0.2,0,0,none,6,18,Woman,Left,
22,3,1,1.0506417000142392,['c'],1,left,['e'],1,0.24913899999228306,0.1,1,0,none,6,18,Woman,Left,
23,3,1,3.399499500024831,['n'],1,right,['u'],0,0.22278100001858547,0.1,0,0,none,6,18,Woman,Left,
0,4,1,1.4176169999991544,['n'],1,right,['e'],1,0.7705067999777384,0.4,1,0,FastFast,6,18,Woman,Left,
1,4,1,0.7174592000083067,['n'],1,right,['e'],1,0.13763499999186024,0.4,1,0,FastFast,6,18,Woman,Left,
2,4,1,0.8501254000002518,['c'],1,left,['e'],1,0.13341319997562096,0.4,1,0,FastFast,6,18,Woman,Left,
3,4,1,0.9000495999935083,['n'],0,left,['u'],0,0.14188489998923615,0.1,1,0,FastFast,6,18,Woman,Left,
4,4,1,0.9847911999968346,['n'],1,right,['u'],0,0.2125800999929197,0.2,0,0,FastFast,6,18,Woman,Left,
5,4,1,1.0509739000117406,['n'],0,left,['e'],1,0.1318182999966666,0.1,0,0,FastFast,6,18,Woman,Left,
6,4,1,0.81717279998702,['c'],1,left,['e'],1,0.1443503000191413,0.1,1,0,FastFast,6,18,Woman,Left,
7,4,1,1.3156070999975782,['n'],0,left,['u'],0,0.20127589997719042,0.2,1,0,FastFast,6,18,Woman,Left,
8,4,1,1.1836954999889713,['n'],1,right,['u'],0,0.10056819999590516,0.1,0,0,FastFast,6,18,Woman,Left,
9,4,1,1.0002955999807455,['c'],1,left,['e'],1,0.3947325000190176,0.1,1,0,FastFast,6,18,Woman,Left,
10,4,1,1.2845637999998871,['n'],1,right,['e'],1,0.08994740000343882,0.4,1,0,FastFast,6,18,Woman,Left,
11,4,1,1.101703299995279,['c'],0,right,['u'],0,0.15716829997836612,0.2,1,0,FastFast,6,18,Woman,Left,
12,4,1,1.1662973999918904,['n'],1,right,['e'],1,0.07524229999398813,0.1,1,0,FastFast,6,18,Woman,Left,
13,4,1,0.9321385000075679,['c'],1,left,['e'],1,0.13517549997777678,0.2,1,0,FastFast,6,18,Woman,Left,
14,4,1,0.7502568999771029,['n'],1,right,['e'],1,0.13326150001375936,0.4,1,0,FastFast,6,18,Woman,Left,
15,4,1,0.7845298000029288,['c'],1,left,['e'],1,0.11482799999066629,0.2,1,0,FastFast,6,18,Woman,Left,
16,4,1,0.6500583000015467,['c'],1,left,['e'],1,0.13532520001172088,0.1,1,0,FastFast,6,18,Woman,Left,
17,4,1,0.7177672999969218,['n'],1,right,['e'],1,0.2148886999930255,0.1,1,0,FastFast,6,18,Woman,Left,
18,4,1,0.7168562000151724,['c'],1,left,['u'],0,0.10009070002706721,0.2,0,0,FastFast,6,18,Woman,Left,
19,4,1,1.2349134999967646,['n'],1,right,['u'],0,0.09727689999272116,0.1,0,0,FastFast,6,18,Woman,Left,
20,4,1,0.834347500000149,['n'],1,right,['u'],0,0.1268327000143472,0.2,0,0,FastFast,6,18,Woman,Left,
21,4,1,1.0677532000117935,['c'],1,left,['e'],1,0.12975140000344254,0.1,1,0,FastFast,6,18,Woman,Left,
22,4,1,1.150196100003086,['c'],1,left,['u'],0,0.08103609998943284,0.2,0,0,FastFast,6,18,Woman,Left,
23,4,1,0.8496202999958768,['n'],1,right,['u'],0,0.11072590001276694,0.1,0,0,FastFast,6,18,Woman,Left,
24,4,1,1.184389599977294,['c'],1,left,['u'],0,0.07739140000194311,0.1,0,0,FastFast,6,18,Woman,Left,
25,4,1,1.0340185000095516,['c'],1,left,['e'],1,0.10065680000116117,0.1,1,0,FastFast,6,18,Woman,Left,
26,4,1,0.7014895000029355,['n'],1,right,['e'],1,0.2142996999900788,0.4,1,0,FastFast,6,18,Woman,Left,
27,4,1,1.3163742999895476,['c'],0,right,['u'],0,0.2038559000066016,0.4,1,0,FastFast,6,18,Woman,Left,
28,4,1,0.7178341000108048,['c'],1,left,['e'],1,1.3057438000105321,0.4,1,0,FastFast,6,18,Woman,Left,
29,4,1,0.8340050000115298,['c'],0,right,['e'],1,0.10292659999686293,0.2,0,0,FastFast,6,18,Woman,Left,
30,4,1,0.7514170000213198,['c'],1,left,['e'],1,0.16747640000539832,0.4,1,0,FastFast,6,18,Woman,Left,
31,4,1,0.9659379000077024,['n'],0,left,['u'],0,0.12547160001122393,0.1,1,0,FastFast,6,18,Woman,Left,
32,4,1,0.8168529999966267,['c'],1,left,['e'],1,0.10611930000595748,0.4,1,0,FastFast,6,18,Woman,Left,
33,4,1,0.9348360000003595,['n'],1,right,['u'],0,0.14689760000328533,0.1,0,0,FastFast,6,18,Woman,Left,
34,4,1,0.8172245000023395,['n'],1,right,['e'],1,0.1907591999915894,0.4,1,0,FastFast,6,18,Woman,Left,
35,4,1,0.7660966999828815,['c'],1,left,['e'],1,0.12488570000277832,0.2,1,0,FastFast,6,18,Woman,Left,
36,4,1,1.3345573999977205,['n'],1,right,['u'],0,0.2600205000198912,0.1,0,0,FastFast,6,18,Woman,Left,
37,4,1,1.502370600006543,['c'],0,right,['u'],0,0.06445669999811798,0.1,1,0,FastFast,6,18,Woman,Left,
38,4,1,0.8845735999930184,['c'],1,left,['e'],1,0.09329979997710325,0.2,1,0,FastFast,6,18,Woman,Left,
39,4,1,0.7174964000005275,['c'],1,left,['e'],1,0.09566580000682734,0.4,1,0,FastFast,6,18,Woman,Left,
40,4,1,0.73320699998294,['c'],1,left,['e'],1,0.11334929999429733,0.4,1,0,FastFast,6,18,Woman,Left,
41,4,1,0.8008189999964088,['n'],1,right,['u'],0,0.11049479999928735,0.1,0,0,FastFast,6,18,Woman,Left,
42,4,1,0.8848350999760441,['c'],1,left,['e'],1,0.10577279998688027,0.2,1,0,FastFast,6,18,Woman,Left,
43,4,1,1.0675802000041585,['n'],1,right,['u'],0,0.06144530000165105,0.2,0,0,FastFast,6,18,Woman,Left,
44,4,1,0.8494481999950949,['c'],1,left,['e'],1,0.07627389999106526,0.4,1,0,FastFast,6,18,Woman,Left,
45,4,1,1.116534100001445,['n'],1,right,['u'],0,0.27132189998519607,0.2,0,0,FastFast,6,18,Woman,Left,
46,4,1,0.8508215000038035,['n'],1,right,['u'],0,0.10119420001865365,0.2,0,0,FastFast,6,18,Woman,Left,
47,4,1,0.7676818000036292,['c'],1,left,['e'],1,0.08491880001383834,0.2,1,0,FastFast,6,18,Woman,Left,
48,4,1,0.9011688999889884,['n'],1,right,['u'],0,0.1281905000214465,0.2,0,0,FastFast,6,18,Woman,Left,
49,4,1,1.0176665999752004,['n'],0,left,['u'],0,0.10057209999649785,0.2,1,0,FastFast,6,18,Woman,Left,
50,4,1,1.3161647000233643,['n'],1,right,['e'],1,2.143539000011515,0.4,1,0,FastFast,6,18,Woman,Left,
51,4,1,0.9172480000124779,['n'],1,right,['u'],0,0.11960480001289397,0.1,0,0,FastFast,6,18,Woman,Left,
52,4,1,1.3676875999954063,['c'],0,right,['e'],1,0.09479719999944791,0.4,0,0,FastFast,6,18,Woman,Left,
53,4,1,0.7499460000253748,['n'],1,right,['u'],0,0.07998350000707433,0.4,0,0,FastFast,6,18,Woman,Left,
54,4,1,0.8011927000188734,['c'],1,left,['e'],1,0.1105563000019174,0.4,1,0,FastFast,6,18,Woman,Left,
55,4,1,1.267224899987923,['n'],1,right,['e'],1,0.09096030000364408,0.4,1,0,FastFast,6,18,Woman,Left,
56,4,1,0.700327299971832,['n'],0,left,['e'],1,0.12558600000920705,0.2,0,0,FastFast,6,18,Woman,Left,
57,4,1,1.0007381000032183,['n'],0,left,['e'],1,0.09951980001642369,0.2,0,0,FastFast,6,18,Woman,Left,
58,4,1,1.0835492000041995,['c'],1,left,['e'],1,0.05462960002478212,0.4,1,0,FastFast,6,18,Woman,Left,
59,4,1,0.717697699990822,['c'],0,right,['e'],1,0.10654390000854619,0.1,0,0,FastFast,6,18,Woman,Left,
0,5,1,3.150082800013479,['n'],0,left,['e'],1,1.0377067000081297,0.2,0,0,AccFast,6,18,Woman,Left,
1,5,1,1.250922500010347,['c'],1,left,['e'],1,0.42105220002122223,0.4,1,0,AccFast,6,18,Woman,Left,
2,5,1,2.933057300018845,['n'],0,left,['u'],0,0.22601029998622835,0.2,1,0,AccFast,6,18,Woman,Left,
3,5,1,1.0679653999977745,['n'],1,right,['e'],1,0.08122809999622405,0.4,1,0,AccFast,6,18,Woman,Left,
4,5,1,1.3510265999939293,['c'],0,right,['u'],0,0.2518287999846507,0.1,1,0,AccFast,6,18,Woman,Left,
5,5,1,2.034054499992635,['n'],0,left,['u'],0,0.5619661000091583,0.1,1,0,AccFast,6,18,Woman,Left,
6,5,1,1.0009978000016417,['n'],0,left,['e'],1,0.10200379998423159,0.2,0,0,AccFast,6,18,Woman,Left,
7,5,1,1.001413899997715,['c'],1,left,['u'],0,0.33310739998705685,0.2,0,0,AccFast,6,18,Woman,Left,
8,5,1,1.4332542000047397,['n'],1,right,['u'],0,0.13641399997868575,0.1,0,0,AccFast,6,18,Woman,Left,
9,5,1,1.7672780999855604,['n'],1,right,['e'],1,0.1111555999959819,0.1,1,0,AccFast,6,18,Woman,Left,
10,5,1,1.7167903000081424,['c'],0,right,['u'],0,0.08909439999843016,0.4,1,0,AccFast,6,18,Woman,Left,
11,5,1,1.1342513999843504,['c'],1,left,['e'],1,0.13906539999879897,0.4,1,0,AccFast,6,18,Woman,Left,
12,5,1,0.9497396999795455,['n'],1,right,['u'],0,0.24288679999881424,0.2,0,0,AccFast,6,18,Woman,Left,
13,5,1,1.216514100000495,['c'],1,left,['u'],0,0.09167020002496429,0.1,0,0,AccFast,6,18,Woman,Left,
14,5,1,1.1841562000045087,['n'],0,left,['u'],0,0.10656519999611191,0.1,1,0,AccFast,6,18,Woman,Left,
15,5,1,0.9845091000024695,['n'],1,right,['e'],1,0.09787880000658333,0.1,1,0,AccFast,6,18,Woman,Left,
16,5,1,0.9344035000249278,['n'],1,right,['u'],0,0.07609170000068843,0.2,0,0,AccFast,6,18,Woman,Left,
17,5,1,1.1168705000018235,['c'],0,right,['u'],0,0.15815490001114085,0.4,1,0,AccFast,6,18,Woman,Left,
18,5,1,0.7512235000031069,['c'],1,left,['e'],1,0.07699269999284297,0.4,1,0,AccFast,6,18,Woman,Left,
19,5,1,1.3176493999781087,['n'],1,right,['e'],1,0.11990449999575503,0.2,1,0,AccFast,6,18,Woman,Left,
20,5,1,1.0001241999852937,['c'],1,left,['e'],1,0.12657029999536462,0.2,1,0,AccFast,6,18,Woman,Left,
21,5,1,1.2831892999820411,['c'],1,left,['u'],0,0.08878910000203177,0.2,0,0,AccFast,6,18,Woman,Left,
22,5,1,0.9492436999862548,['c'],0,right,['u'],0,0.0990546999964863,0.4,1,0,AccFast,6,18,Woman,Left,
23,5,1,1.1998850000090897,['n'],1,right,['u'],0,0.048863900010474026,0.2,0,0,AccFast,6,18,Woman,Left,
24,5,1,0.9342711999779567,['n'],1,right,['e'],1,0.45957560001988895,0.4,1,0,AccFast,6,18,Woman,Left,
25,5,1,1.5336459000245668,['n'],1,right,['e'],1,0.09556620000512339,0.4,1,0,AccFast,6,18,Woman,Left,
26,5,1,1.3347304000053555,['c'],1,left,['u'],0,0.10521149999112822,0.2,0,0,AccFast,6,18,Woman,Left,
27,5,1,0.9177077999920584,['n'],1,right,['u'],0,0.09857239999109879,0.4,0,0,AccFast,6,18,Woman,Left,
28,5,1,1.1175549000035971,['n'],1,right,['u'],0,0.0688050999888219,0.2,0,0,AccFast,6,18,Woman,Left,
29,5,1,0.9501110000128392,['n'],0,left,['u'],0,0.07896959999925457,0.1,1,0,AccFast,6,18,Woman,Left,
30,5,1,0.7342944999982137,['n'],0,left,['u'],0,0.06451540000853129,0.1,1,0,AccFast,6,18,Woman,Left,
31,5,1,0.7840500999882352,['n'],0,left,['u'],0,0.09659189998637885,0.2,1,0,AccFast,6,18,Woman,Left,
32,5,1,1.2510606000141706,['c'],1,left,['u'],0,0.10948329998063855,0.4,0,0,AccFast,6,18,Woman,Left,
33,5,1,0.7494166000105906,['n'],0,left,['u'],0,0.09499189999769442,0.1,1,0,AccFast,6,18,Woman,Left,
34,5,1,0.8184086999972351,['n'],0,left,['u'],0,0.0924259000166785,0.4,1,0,AccFast,6,18,Woman,Left,
35,5,1,0.6670637000061106,['c'],1,left,['u'],0,0.04871190001722425,0.1,0,0,AccFast,6,18,Woman,Left,
36,5,1,1.0663153000059538,['n'],1,right,['u'],0,0.0713953000085894,0.2,0,0,AccFast,6,18,Woman,Left,
37,5,1,0.699096099997405,['c'],1,left,['u'],0,0.10704550001537427,0.2,0,0,AccFast,6,18,Woman,Left,
38,5,1,1.5839315000048373,['c'],1,left,['u'],0,0.1378160000022035,0.4,0,0,AccFast,6,18,Woman,Left,
39,5,1,1.284722399985185,['n'],1,right,['e'],1,0.11551669999607839,0.1,1,0,AccFast,6,18,Woman,Left,
40,5,1,1.1005604999954812,['n'],1,right,['u'],0,0.0854224999784492,0.1,0,0,AccFast,6,18,Woman,Left,
41,5,1,0.866032499994617,['c'],1,left,['e'],1,0.051022899977397174,0.4,1,0,AccFast,6,18,Woman,Left,
42,5,1,2.200672599981772,['n'],1,right,['e'],1,0.5068877000012435,0.1,1,0,AccFast,6,18,Woman,Left,
43,5,1,1.1667757999966852,['c'],1,left,['e'],1,0.09099950001109391,0.4,1,0,AccFast,6,18,Woman,Left,
44,5,1,1.9505132999911439,['c'],1,left,['u'],0,0.10814019999816082,0.1,0,0,AccFast,6,18,Woman,Left,
45,5,1,1.6011865000182297,['n'],0,left,['u'],0,0.2667544000141788,0.2,1,0,AccFast,6,18,Woman,Left,
46,5,1,1.034485100011807,['n'],1,right,['e'],1,0.1853826000005938,0.4,1,0,AccFast,6,18,Woman,Left,
47,5,1,2.000855100020999,['c'],1,left,['e'],1,0.42082030000165105,0.2,1,0,AccFast,6,18,Woman,Left,
48,5,1,1.318094399990514,['c'],1,left,['u'],0,0.08243729997775517,0.1,0,0,AccFast,6,18,Woman,Left,
49,5,1,1.0510557999950834,['n'],1,right,['e'],1,0.08851510001113638,0.2,1,0,AccFast,6,18,Woman,Left,
50,5,1,3.383696900011273,['n'],1,right,['u'],0,0.0795333000132814,0.1,0,0,AccFast,6,18,Woman,Left,
51,5,1,0.9166039999981876,['n'],1,right,['e'],1,0.09066050002002157,0.1,1,0,AccFast,6,18,Woman,Left,
52,5,1,1.384459400025662,['n'],1,right,['e'],1,0.06717890000436455,0.1,1,0,AccFast,6,18,Woman,Left,
53,5,1,1.2670851000002585,['n'],1,right,['e'],1,0.06369070001528598,0.4,1,0,AccFast,6,18,Woman,Left,
54,5,1,0.884450800018385,['n'],1,right,['e'],1,0.07590500000515021,0.4,1,0,AccFast,6,18,Woman,Left,
55,5,1,1.3165649000147823,['c'],1,left,['e'],1,0.1355102999950759,0.2,1,0,AccFast,6,18,Woman,Left,
56,5,1,1.4341625999950338,['n'],1,right,['e'],1,0.10699969998677261,0.4,1,0,AccFast,6,18,Woman,Left,
57,5,1,0.7518087000062224,['c'],1,left,['e'],1,0.10759659999166615,0.4,1,0,AccFast,6,18,Woman,Left,
58,5,1,0.8669953999924473,['n'],1,right,['e'],1,0.11988589999964461,0.2,1,0,AccFast,6,18,Woman,Left,
59,5,1,1.7495281000155956,['c'],0,right,['e'],1,0.11144040001090616,0.1,0,0,AccFast,6,18,Woman,Left,
0,6,1,5.015868799993768,x,-99,right,none,-99,-99,0.2,-99,1,AccAcc,6,18,Woman,Left,
1,6,1,1.116571099992143,['c'],1,left,['e'],1,0.6685865999897942,0.4,1,0,AccAcc,6,18,Woman,Left,
2,6,1,1.6500728000246454,['n'],1,right,['e'],1,0.49851780000608414,0.2,1,0,AccAcc,6,18,Woman,Left,
3,6,1,0.8498276000027545,['n'],1,right,['e'],1,0.3036795000080019,0.4,1,0,AccAcc,6,18,Woman,Left,
4,6,1,0.9666365000011865,['c'],1,left,['e'],1,0.5430856999882963,0.4,1,0,AccAcc,6,18,Woman,Left,
5,6,1,1.0824228999845218,['n'],1,right,['u'],0,0.2739088000089396,0.1,0,0,AccAcc,6,18,Woman,Left,
6,6,1,1.8502978000033181,['c'],1,left,['e'],1,0.6068557999969926,0.1,1,0,AccAcc,6,18,Woman,Left,
7,6,1,0.7505647000216413,['n'],1,right,['u'],0,0.6193874999880791,0.4,0,0,AccAcc,6,18,Woman,Left,
8,6,1,0.9169240999908652,['c'],1,left,['e'],1,0.5126893000269774,0.4,1,0,AccAcc,6,18,Woman,Left,
9,6,1,0.9510840000002645,['n'],1,right,['u'],0,0.7927445999812335,0.2,0,0,AccAcc,6,18,Woman,Left,
10,6,1,0.8503322000033222,['c'],1,left,['e'],1,0.2660074000013992,0.4,1,0,AccAcc,6,18,Woman,Left,
11,6,1,1.4329622999939602,['c'],1,left,['u'],0,0.15352960000745952,0.2,0,0,AccAcc,6,18,Woman,Left,
12,6,1,1.9846371999883559,['c'],1,left,['u'],0,0.2942545000114478,0.4,0,0,AccAcc,6,18,Woman,Left,
13,6,1,2.016321400005836,['n'],1,right,['u'],0,0.237644899985753,0.1,0,0,AccAcc,6,18,Woman,Left,
14,6,1,1.350014600000577,['n'],1,right,['u'],0,0.2401841999962926,0.2,0,0,AccAcc,6,18,Woman,Left,
15,6,1,0.9004278999927919,['c'],1,left,['e'],1,0.4696280999924056,0.2,1,0,AccAcc,6,18,Woman,Left,
16,6,1,0.8003853000118397,['n'],1,right,['u'],0,0.4053095999988727,0.2,0,0,AccAcc,6,18,Woman,Left,
17,6,1,0.8342573000118136,['c'],1,left,['e'],1,0.19849769998108968,0.4,1,0,AccAcc,6,18,Woman,Left,
18,6,1,0.8498245000082534,['c'],1,left,['e'],1,0.19180089997826144,0.2,1,0,AccAcc,6,18,Woman,Left,
19,6,1,0.8500206000171602,['c'],1,left,['e'],1,0.20015930000226945,0.1,1,0,AccAcc,6,18,Woman,Left,
20,6,1,1.5834587999852374,['n'],1,right,['u'],0,0.22837369999615476,0.2,0,0,AccAcc,6,18,Woman,Left,
21,6,1,1.3501764000102412,['n'],1,right,['u'],0,0.1362049000163097,0.2,0,0,AccAcc,6,18,Woman,Left,
22,6,1,0.7011689000064507,['n'],1,right,['u'],0,0.16891910001868382,0.1,0,0,AccAcc,6,18,Woman,Left,
23,6,1,0.9164751000062097,['c'],1,left,['e'],1,0.11235769998165779,0.2,1,0,AccAcc,6,18,Woman,Left,
24,6,1,1.9658665000170004,['n'],1,right,['e'],1,0.12814570000045933,0.1,1,0,AccAcc,6,18,Woman,Left,
25,6,1,1.2489049999858253,['c'],1,left,['e'],1,0.15559530002065003,0.4,1,0,AccAcc,6,18,Woman,Left,
26,6,1,1.3995098999876063,['n'],1,right,['e'],1,0.8006732999929227,0.4,1,0,AccAcc,6,18,Woman,Left,
27,6,1,1.867020700010471,['n'],1,right,['u'],0,0.5520228999957908,0.1,0,0,AccAcc,6,18,Woman,Left,
28,6,1,0.8661092999973334,['c'],0,right,['u'],0,0.16289000000688247,0.1,1,0,AccAcc,6,18,Woman,Left,
29,6,1,2.1007122000155505,['n'],0,left,['u'],0,0.6179340000089724,0.4,1,0,AccAcc,6,18,Woman,Left,
30,6,1,1.3004669999936596,['n'],0,left,['u'],0,0.17614250001497567,0.2,1,0,AccAcc,6,18,Woman,Left,
31,6,1,0.6331695000117179,['n'],1,right,['e'],1,0.5150793999782763,0.4,1,0,AccAcc,6,18,Woman,Left,
32,6,1,1.6489471000095364,['c'],1,left,['u'],0,0.15863620000891387,0.1,0,0,AccAcc,6,18,Woman,Left,
33,6,1,1.300243200006662,['c'],1,left,['u'],0,0.19913029999588616,0.1,0,0,AccAcc,6,18,Woman,Left,
34,6,1,1.317661599983694,['n'],0,left,['u'],0,0.25313279998954386,0.1,1,0,AccAcc,6,18,Woman,Left,
35,6,1,1.3336036000109743,['c'],1,left,['u'],0,0.160606799996458,0.2,0,0,AccAcc,6,18,Woman,Left,
36,6,1,0.7831675999914296,['c'],1,left,['u'],0,0.22243619998334907,0.1,0,0,AccAcc,6,18,Woman,Left,
37,6,1,1.4679328000056557,['c'],1,left,['e'],1,0.1569417999999132,0.4,1,0,AccAcc,6,18,Woman,Left,
38,6,1,0.7352765999967232,['c'],1,left,['e'],1,0.1880687999946531,0.4,1,0,AccAcc,6,18,Woman,Left,
39,6,1,1.0007335999980569,['n'],1,right,['u'],0,0.31978869999875315,0.2,0,0,AccAcc,6,18,Woman,Left,
40,6,1,0.7179334000102244,['n'],1,right,['u'],0,0.2803561000037007,0.4,0,0,AccAcc,6,18,Woman,Left,
41,6,1,1.0328012999962084,['n'],0,left,['u'],0,0.19956929999170825,0.1,1,0,AccAcc,6,18,Woman,Left,
42,6,1,0.7342981999972835,['n'],1,right,['u'],0,0.2282365999999456,0.4,0,0,AccAcc,6,18,Woman,Left,
43,6,1,0.8512091999873519,['n'],0,left,['u'],0,0.18738330001360737,0.1,1,0,AccAcc,6,18,Woman,Left,
44,6,1,0.6847630999982357,['n'],0,left,['u'],0,0.17143019998911768,0.2,1,0,AccAcc,6,18,Woman,Left,
45,6,1,0.6676077999873087,['n'],1,right,['u'],0,0.12434029998257756,0.2,0,0,AccAcc,6,18,Woman,Left,
46,6,1,1.169085699977586,['n'],1,right,['u'],0,0.10852589999558404,0.1,0,0,AccAcc,6,18,Woman,Left,
47,6,1,1.2168930000043474,['n'],1,right,['u'],0,0.13768069999059662,0.4,0,0,AccAcc,6,18,Woman,Left,
48,6,1,1.3009331000212114,['c'],0,right,['u'],0,0.25878419997752644,0.1,1,0,AccAcc,6,18,Woman,Left,
49,6,1,2.1009718000132125,['n'],0,left,['u'],0,0.29551580001134425,0.2,1,0,AccAcc,6,18,Woman,Left,
50,6,1,0.9004102000035346,['n'],1,right,['e'],1,0.17016830001375638,0.4,1,0,AccAcc,6,18,Woman,Left,
51,6,1,0.718118399992818,['c'],1,left,['e'],1,0.12127909998525865,0.4,1,0,AccAcc,6,18,Woman,Left,
52,6,1,1.484288799983915,['n'],1,right,['u'],0,0.17205839999951422,0.1,0,0,AccAcc,6,18,Woman,Left,
53,6,1,1.050989799987292,['n'],1,right,['u'],0,0.22215740001411177,0.4,0,0,AccAcc,6,18,Woman,Left,
54,6,1,0.6847234999877401,['n'],1,right,['u'],0,0.14041309998719953,0.2,0,0,AccAcc,6,18,Woman,Left,
55,6,1,0.5674849000060931,['n'],1,right,['u'],0,0.13075360000948422,0.1,0,0,AccAcc,6,18,Woman,Left,
56,6,1,0.6012986000278033,['n'],0,left,['u'],0,0.11991059998399578,0.2,1,0,AccAcc,6,18,Woman,Left,
57,6,1,0.849681599996984,['n'],1,right,['u'],0,0.1326898999977857,0.2,0,0,AccAcc,6,18,Woman,Left,
58,6,1,1.101105700014159,['n'],0,left,['u'],0,0.1810424999857787,0.1,1,0,AccAcc,6,18,Woman,Left,
59,6,1,1.0179761999752373,['c'],1,left,['e'],1,0.1675569000071846,0.1,1,0,AccAcc,6,18,Woman,Left,
0,7,1,1.1339849999931175,['n'],1,right,['u'],0,1.729194399988046,0.4,0,0,FastAcc,6,18,Woman,Left,
1,7,1,0.9507416999840643,['c'],1,left,['e'],1,1.1622040000220295,0.2,1,0,FastAcc,6,18,Woman,Left,
2,7,1,1.700845000013942,['n'],0,left,['u'],0,0.569634200015571,0.2,1,0,FastAcc,6,18,Woman,Left,
3,7,1,0.8507717000029515,['n'],0,left,['u'],0,1.0757165999966674,0.2,1,0,FastAcc,6,18,Woman,Left,
4,7,1,1.0014357000181917,['n'],0,left,['u'],0,0.2755699999979697,0.1,1,0,FastAcc,6,18,Woman,Left,
5,7,1,1.0670767999836244,['n'],1,right,['e'],1,0.3528541999985464,0.4,1,0,FastAcc,6,18,Woman,Left,
6,7,1,1.316795099992305,['n'],1,right,['u'],0,0.5127669000066817,0.1,0,0,FastAcc,6,18,Woman,Left,
7,7,1,1.6176496999978554,['n'],1,right,['u'],0,0.30220490001374856,0.1,0,0,FastAcc,6,18,Woman,Left,
8,7,1,0.6333408000064082,['c'],1,left,['e'],1,0.20405150001170114,0.4,1,0,FastAcc,6,18,Woman,Left,
9,7,1,1.1846173999947496,['n'],1,right,['u'],0,0.8067879999871366,0.2,0,0,FastAcc,6,18,Woman,Left,
10,7,1,1.1674981999967713,['n'],1,right,['u'],0,0.42652139998972416,0.4,0,0,FastAcc,6,18,Woman,Left,
11,7,1,1.1339986000093631,['c'],0,right,['u'],0,0.5273920000181533,0.2,1,0,FastAcc,6,18,Woman,Left,
12,7,1,1.4329618999909144,['c'],1,left,['u'],0,0.3408312000101432,0.4,0,0,FastAcc,6,18,Woman,Left,
13,7,1,1.0672270999930333,['c'],0,right,['u'],0,0.3666815000178758,0.4,1,0,FastAcc,6,18,Woman,Left,
14,7,1,1.70029209999484,['n'],1,right,['u'],0,1.214651300018886,0.2,0,0,FastAcc,6,18,Woman,Left,
15,7,1,0.6175019999791402,['c'],1,left,['e'],1,0.18541320000076666,0.1,1,0,FastAcc,6,18,Woman,Left,
16,7,1,0.7678820000146516,['c'],1,left,['e'],1,0.7084226000006311,0.4,1,0,FastAcc,6,18,Woman,Left,
17,7,1,0.6345616000180598,['c'],1,left,['e'],1,0.9138219999731518,0.4,1,0,FastAcc,6,18,Woman,Left,
18,7,1,1.067503799975384,['n'],1,right,['u'],0,0.38905320002231747,0.1,0,0,FastAcc,6,18,Woman,Left,
19,7,1,1.066197000007378,['n'],1,right,['u'],0,0.31833810001262464,0.1,0,0,FastAcc,6,18,Woman,Left,
20,7,1,0.8342373000050429,['n'],1,right,['e'],1,0.6902458999829832,0.4,1,0,FastAcc,6,18,Woman,Left,
21,7,1,0.46754280000459403,['c'],0,right,['u'],0,1.3187525999965146,0.4,1,0,FastAcc,6,18,Woman,Left,
22,7,1,0.599184199993033,['n'],1,right,['e'],1,0.4454595999850426,0.4,1,0,FastAcc,6,18,Woman,Left,
23,7,1,1.1006276999833062,['n'],1,right,['u'],0,0.6103349000040907,0.1,0,0,FastAcc,6,18,Woman,Left,
24,7,1,0.9680220000154804,['n'],0,left,['u'],0,0.4373405000078492,0.1,1,0,FastAcc,6,18,Woman,Left,
25,7,1,1.1512662000022829,['n'],0,left,['u'],0,0.3127610000083223,0.1,1,0,FastAcc,6,18,Woman,Left,
26,7,1,1.734242099977564,['c'],0,right,['u'],0,0.32939539998187684,0.2,1,0,FastAcc,6,18,Woman,Left,
27,7,1,1.4161787000193726,['n'],1,right,['e'],1,0.7741396999917924,0.4,1,0,FastAcc,6,18,Woman,Left,
28,7,1,1.200219999998808,['c'],1,left,['u'],0,0.25005699999746867,0.1,0,0,FastAcc,6,18,Woman,Left,
29,7,1,1.2516714000084903,['n'],1,right,['u'],0,0.5287624000047799,0.1,0,0,FastAcc,6,18,Woman,Left,
30,7,1,1.1012541000091005,['n'],1,right,['u'],0,0.22603580000577495,0.1,0,0,FastAcc,6,18,Woman,Left,
31,7,1,1.36738080001669,['n'],1,right,['e'],1,0.22967980001703836,0.4,1,0,FastAcc,6,18,Woman,Left,
32,7,1,0.7181522999890149,['c'],1,left,['e'],1,0.2578643999877386,0.1,1,0,FastAcc,6,18,Woman,Left,
33,7,1,0.8843569000018761,['n'],0,left,['u'],0,0.4871612999995705,0.1,1,0,FastAcc,6,18,Woman,Left,
34,7,1,1.0846644999983255,['n'],1,right,['u'],0,0.5238939999835566,0.2,0,0,FastAcc,6,18,Woman,Left,
35,7,1,1.1838444999884814,['n'],1,right,['e'],1,0.2496806999843102,0.2,1,0,FastAcc,6,18,Woman,Left,
36,7,1,0.8341389000124764,['c'],1,left,['e'],1,0.22513140001683496,0.2,1,0,FastAcc,6,18,Woman,Left,
37,7,1,1.034768499986967,['n'],0,left,['u'],0,0.8814207000250462,0.1,1,0,FastAcc,6,18,Woman,Left,
38,7,1,0.867505500005791,['n'],0,left,['u'],0,0.8141281999996863,0.1,1,0,FastAcc,6,18,Woman,Left,
39,7,1,0.7343456999806222,['c'],1,left,['e'],1,0.7227192000136711,0.2,1,0,FastAcc,6,18,Woman,Left,
40,7,1,0.8337974000023678,['c'],1,left,['u'],0,1.0473910000000615,0.4,0,0,FastAcc,6,18,Woman,Left,
41,7,1,0.8345220999908634,['n'],1,right,['u'],0,0.8147774999961257,0.1,0,0,FastAcc,6,18,Woman,Left,
42,7,1,1.2323704999871552,['n'],1,right,['u'],0,0.6889608000055887,0.1,0,0,FastAcc,6,18,Woman,Left,
43,7,1,0.5328822000010405,['c'],1,left,['u'],0,0.7382167000032496,0.2,0,0,FastAcc,6,18,Woman,Left,
44,7,1,0.6503412000020035,['n'],1,right,['u'],0,0.7815230000123847,0.2,0,0,FastAcc,6,18,Woman,Left,
45,7,1,0.8347970999893732,['c'],0,right,['u'],0,0.558668800018495,0.1,1,0,FastAcc,6,18,Woman,Left,
46,7,1,1.1345521000039298,['c'],1,left,['u'],0,0.5578635999991093,0.4,0,0,FastAcc,6,18,Woman,Left,
47,7,1,0.9676929999841377,['n'],1,right,['u'],0,0.41995609999867156,0.4,0,0,FastAcc,6,18,Woman,Left,
48,7,1,0.7177794000017457,['n'],0,left,['u'],0,0.5539311000029556,0.2,1,0,FastAcc,6,18,Woman,Left,
49,7,1,0.8342196999874432,['c'],1,left,['u'],0,0.5805011999909766,0.2,0,0,FastAcc,6,18,Woman,Left,
50,7,1,0.9840555000118911,['n'],1,right,['u'],0,0.5685177999839652,0.2,0,0,FastAcc,6,18,Woman,Left,
51,7,1,1.2510947000118904,['n'],1,right,['u'],0,0.8662454000150319,0.4,0,0,FastAcc,6,18,Woman,Left,
52,7,1,1.1331569000030868,['n'],0,left,['u'],0,0.4538827000069432,0.2,1,0,FastAcc,6,18,Woman,Left,
53,7,1,1.08418070001062,['c'],1,left,['u'],0,0.42626279999967664,0.2,0,0,FastAcc,6,18,Woman,Left,
54,7,1,0.9513850999937858,['c'],1,left,['u'],0,0.29431679999106564,0.4,0,0,FastAcc,6,18,Woman,Left,
55,7,1,1.0177917000255547,['n'],1,right,['u'],0,0.3735115999879781,0.2,0,0,FastAcc,6,18,Woman,Left,
56,7,1,0.8022919000068214,['n'],0,left,['u'],0,0.4407084000122268,0.1,1,0,FastAcc,6,18,Woman,Left,
57,7,1,1.034451400017133,['n'],0,left,['u'],0,0.41657490000943653,0.2,1,0,FastAcc,6,18,Woman,Left,
58,7,1,1.0010169000015594,['c'],1,left,['u'],0,0.2986028000013903,0.4,0,0,FastAcc,6,18,Woman,Left,
59,7,1,0.9011475000006612,['n'],0,left,['u'],0,0.4290795999986585,0.4,1,0,FastAcc,6,18,Woman,Left,
0,8,1,1.41648349998286,['n'],0,left,['u'],0,0.20613620002404787,0.4,1,0,FastFast,6,18,Woman,Left,
1,8,1,0.9508647000184283,['c'],1,left,['u'],0,0.28992889999062754,0.2,0,0,FastFast,6,18,Woman,Left,
2,8,1,0.9844664999982342,['n'],1,right,['u'],0,0.09754370001610368,0.2,0,0,FastFast,6,18,Woman,Left,
3,8,1,0.9331415999913588,['n'],1,right,['u'],0,0.1395209999755025,0.1,0,0,FastFast,6,18,Woman,Left,
4,8,1,0.8678331000264734,['c'],1,left,['u'],0,0.1653793999867048,0.4,0,0,FastFast,6,18,Woman,Left,
5,8,1,0.7001947999815457,['c'],1,left,['u'],0,0.1491010999889113,0.2,0,0,FastFast,6,18,Woman,Left,
6,8,1,1.0839368000160903,['n'],1,right,['u'],0,0.08624380000401288,0.2,0,0,FastFast,6,18,Woman,Left,
7,8,1,1.301384499995038,['n'],1,right,['u'],0,0.17763049999484792,0.1,0,0,FastFast,6,18,Woman,Left,
8,8,1,1.0844323000055738,['c'],1,left,['u'],0,0.11416880000615492,0.1,0,0,FastFast,6,18,Woman,Left,
9,8,1,0.9490460999950301,['c'],1,left,['u'],0,0.12296239999704994,0.1,0,0,FastFast,6,18,Woman,Left,
10,8,1,0.666209200018784,['n'],1,right,['u'],0,0.09293300000717863,0.4,0,0,FastFast,6,18,Woman,Left,
11,8,1,0.6837227000214625,['c'],0,right,['u'],0,0.06532550000702031,0.4,1,0,FastFast,6,18,Woman,Left,
12,8,1,0.6012713999953121,['n'],1,right,['u'],0,0.08976460000849329,0.2,0,0,FastFast,6,18,Woman,Left,
13,8,1,0.633927400020184,['c'],1,left,['u'],0,0.04764229999273084,0.2,0,0,FastFast,6,18,Woman,Left,
14,8,1,0.5675492000009399,['c'],0,right,['u'],0,0.08832860001712106,0.4,1,0,FastFast,6,18,Woman,Left,
15,8,1,1.4848294999974314,['n'],1,right,['e'],1,0.09226520001539029,0.2,1,0,FastFast,6,18,Woman,Left,
16,8,1,0.8827605000115,['c'],1,left,['e'],1,0.07293470000149682,0.4,1,0,FastFast,6,18,Woman,Left,
17,8,1,0.7009585999767296,['n'],1,right,['u'],0,0.07669389998773113,0.1,0,0,FastFast,6,18,Woman,Left,
18,8,1,1.1344996000116225,['n'],0,left,['u'],0,0.07924809999531135,0.4,1,0,FastFast,6,18,Woman,Left,
19,8,1,1.2513372000248637,['c'],1,left,['u'],0,0.09198110000579618,0.2,0,0,FastFast,6,18,Woman,Left,
20,8,1,1.3676775000058115,['n'],0,left,['e'],1,0.10030439999536611,0.1,0,0,FastFast,6,18,Woman,Left,
21,8,1,1.733547699986957,['n'],0,left,['e'],1,0.22171389998402447,0.1,0,0,FastFast,6,18,Woman,Left,
22,8,1,1.0995611999824177,['n'],0,left,['u'],0,0.10783290001563728,0.4,1,0,FastFast,6,18,Woman,Left,
23,8,1,0.5669322999892756,['c'],1,left,['u'],0,0.08352040001773275,0.2,0,0,FastFast,6,18,Woman,Left,
24,8,1,1.4009498999803327,['n'],1,right,['u'],0,0.04300199999124743,0.1,0,0,FastFast,6,18,Woman,Left,
25,8,1,1.1003652999934275,['n'],1,right,['u'],0,0.1284209000004921,0.1,0,0,FastFast,6,18,Woman,Left,
26,8,1,0.8513202000176534,['n'],1,right,['u'],0,0.1077921999967657,0.2,0,0,FastFast,6,18,Woman,Left,
27,8,1,1.3836205000116024,['n'],0,left,['u'],0,0.03549629999906756,0.1,1,0,FastFast,6,18,Woman,Left,
28,8,1,1.6992328999913298,['n'],1,right,['e'],1,0.1435881000070367,0.4,1,0,FastFast,6,18,Woman,Left,
29,8,1,0.651641100004781,['c'],1,left,['e'],1,0.0509044999780599,0.2,1,0,FastFast,6,18,Woman,Left,
30,8,1,0.9329659000213724,['n'],1,right,['u'],0,0.04597580002155155,0.2,0,0,FastFast,6,18,Woman,Left,
31,8,1,0.7010613000020385,['c'],1,left,['u'],0,0.14650519998394884,0.2,0,0,FastFast,6,18,Woman,Left,
32,8,1,0.767210799996974,['c'],1,left,['e'],1,0.03231989999767393,0.4,1,0,FastFast,6,18,Woman,Left,
33,8,1,1.2666641999967396,['n'],1,right,['u'],0,0.06396079997648485,0.1,0,0,FastFast,6,18,Woman,Left,
34,8,1,1.6679111999983434,['n'],0,left,['u'],0,0.06018400000175461,0.1,1,0,FastFast,6,18,Woman,Left,
35,8,1,0.7667928000155371,['n'],1,right,['u'],0,0.07883949999813922,0.1,0,0,FastFast,6,18,Woman,Left,
36,8,1,1.0344385000062175,['c'],1,left,['u'],0,0.052606800018111244,0.2,0,0,FastFast,6,18,Woman,Left,
37,8,1,0.751175899989903,['c'],1,left,['u'],0,0.05616799998097122,0.1,0,0,FastFast,6,18,Woman,Left,
38,8,1,1.3822902000101749,['n'],1,right,['e'],1,0.16166169999632984,0.4,1,0,FastFast,6,18,Woman,Left,
39,8,1,0.7522138000058476,['n'],1,right,['e'],1,1.6312619000091217,0.4,1,0,FastFast,6,18,Woman,Left,
40,8,1,0.9670558999932837,['c'],1,left,['e'],1,0.04313380000530742,0.2,1,0,FastFast,6,18,Woman,Left,
41,8,1,1.6170980000169948,['n'],0,left,['u'],0,0.07435599999735132,0.1,1,0,FastFast,6,18,Woman,Left,
42,8,1,0.8178591000032611,['c'],0,right,['u'],0,0.04158320001442917,0.1,1,0,FastFast,6,18,Woman,Left,
43,8,1,0.9185347000020556,['c'],1,left,['u'],0,0.022146100003737956,0.2,0,0,FastFast,6,18,Woman,Left,
44,8,1,0.7676336000149604,['c'],0,right,['u'],0,0.02511600000434555,0.1,1,0,FastFast,6,18,Woman,Left,
45,8,1,1.1654495999973733,['c'],1,left,['u'],0,0.06194539999705739,0.2,0,0,FastFast,6,18,Woman,Left,
46,8,1,0.9000321000057738,['n'],1,right,['e'],1,0.08864560001529753,0.4,1,0,FastFast,6,18,Woman,Left,
47,8,1,0.7172622999933083,['c'],1,left,['e'],1,0.07545370000298135,0.4,1,0,FastFast,6,18,Woman,Left,
48,8,1,0.9678428999905009,['c'],0,right,['u'],0,0.03645349998259917,0.1,1,0,FastFast,6,18,Woman,Left,
49,8,1,1.1164376999950036,['c'],1,left,['e'],1,0.04164670000318438,0.4,1,0,FastFast,6,18,Woman,Left,
50,8,1,0.8511856000113767,['n'],1,right,['e'],1,0.08905139999114908,0.4,1,0,FastFast,6,18,Woman,Left,
51,8,1,1.4493952000048012,['n'],1,right,['e'],1,0.06228800001554191,0.4,1,0,FastFast,6,18,Woman,Left,
52,8,1,0.8333369999891147,['c'],1,left,['e'],1,0.06131369998911396,0.2,1,0,FastFast,6,18,Woman,Left,
53,8,1,0.9665623999899253,['n'],1,right,['e'],1,0.039252999995369464,0.2,1,0,FastFast,6,18,Woman,Left,
54,8,1,1.16700889999629,['c'],0,right,['u'],0,0.1057444000034593,0.2,1,0,FastFast,6,18,Woman,Left,
55,8,1,1.1506000000226777,['c'],0,right,['u'],0,0.0737000000081025,0.4,1,0,FastFast,6,18,Woman,Left,
56,8,1,1.2675056000007316,['n'],0,left,['u'],0,0.10268209999776445,0.1,1,0,FastFast,6,18,Woman,Left,
57,8,1,0.8675688999937847,['n'],1,right,['u'],0,0.09880509998765774,0.1,0,0,FastFast,6,18,Woman,Left,
58,8,1,0.7673312000115402,['c'],1,left,['u'],0,0.3384527000016533,0.4,0,0,FastFast,6,18,Woman,Left,
59,8,1,1.1175689999945462,['n'],1,right,['e'],1,0.04332309999153949,0.4,1,0,FastFast,6,18,Woman,Left,
0,9,1,2.649286800005939,['c'],0,right,['u'],0,1.355045100004645,0.2,1,0,AccFast,6,18,Woman,Left,
1,9,1,1.1655088999832515,['n'],1,right,['e'],1,0.5691339999902993,0.4,1,0,AccFast,6,18,Woman,Left,
2,9,1,0.815916899999138,['c'],1,left,['e'],1,0.5325704999850132,0.4,1,0,AccFast,6,18,Woman,Left,
3,9,1,0.7486843999940902,['c'],1,left,['e'],1,0.1154343000089284,0.2,1,0,AccFast,6,18,Woman,Left,
4,9,1,0.7681657999928575,['n'],1,right,['e'],1,0.13058150000870228,0.4,1,0,AccFast,6,18,Woman,Left,
5,9,1,0.8162071999977343,['n'],1,right,['e'],1,0.06310540001140907,0.4,1,0,AccFast,6,18,Woman,Left,
6,9,1,0.7003888999752235,['c'],1,left,['e'],1,0.05009279999649152,0.4,1,0,AccFast,6,18,Woman,Left,
7,9,1,0.9829862000187859,['c'],0,right,['e'],1,0.027857700013555586,0.2,0,0,AccFast,6,18,Woman,Left,
8,9,1,0.8338955999934115,['c'],0,right,['e'],1,0.04371190001256764,0.1,0,0,AccFast,6,18,Woman,Left,
9,9,1,1.0664912999782246,['n'],1,right,['e'],1,0.018053000007057562,0.2,1,0,AccFast,6,18,Woman,Left,
10,9,1,1.4334042000118643,['n'],1,right,['u'],0,0.0425616999855265,0.1,0,0,AccFast,6,18,Woman,Left,
11,9,1,1.417188499995973,['n'],1,right,['u'],0,0.0669861999922432,0.2,0,0,AccFast,6,18,Woman,Left,
12,9,1,0.9663994000002276,['n'],0,left,['u'],0,0.9090104000060819,0.2,1,0,AccFast,6,18,Woman,Left,
13,9,1,1.301138600014383,['n'],1,right,['u'],0,0.055759199982276186,0.4,0,0,AccFast,6,18,Woman,Left,
14,9,1,0.7166750000033062,['n'],1,right,['u'],0,0.04297060001408681,0.1,0,0,AccFast,6,18,Woman,Left,
15,9,1,0.7839235999854282,['c'],0,right,['u'],0,0.061388100002659485,0.4,1,0,AccFast,6,18,Woman,Left,
16,9,1,0.5674661000084598,['c'],0,right,['u'],0,0.08635530000901781,0.2,1,0,AccFast,6,18,Woman,Left,
17,9,1,0.9343516000080854,['c'],0,right,['u'],0,0.08011229999829084,0.4,1,0,AccFast,6,18,Woman,Left,
18,9,1,0.8995189999986906,['c'],1,left,['u'],0,0.060103399999206886,0.1,0,0,AccFast,6,18,Woman,Left,
19,9,1,1.1001851999899372,['n'],0,left,['u'],0,0.06370030000107363,0.1,1,0,AccFast,6,18,Woman,Left,
20,9,1,1.050712600001134,['n'],0,left,['u'],0,0.08585949998814613,0.1,1,0,AccFast,6,18,Woman,Left,
21,9,1,0.9156101000262424,['n'],1,right,['u'],0,0.06507280000369065,0.4,0,0,AccFast,6,18,Woman,Left,
22,9,1,0.7677423999994062,['n'],1,right,['u'],0,0.06575020001037046,0.2,0,0,AccFast,6,18,Woman,Left,
23,9,1,0.984377399989171,['n'],1,right,['u'],0,0.05785490002017468,0.2,0,0,AccFast,6,18,Woman,Left,
24,9,1,1.3681732999975793,['c'],1,left,['u'],0,0.08385090000228956,0.2,0,0,AccFast,6,18,Woman,Left,
25,9,1,0.932686999993166,['n'],1,right,['u'],0,0.09463059998233803,0.2,0,0,AccFast,6,18,Woman,Left,
26,9,1,1.166711199999554,['n'],1,right,['u'],0,0.07912519999081269,0.2,0,0,AccFast,6,18,Woman,Left,
27,9,1,1.617509700008668,['c'],1,left,['u'],0,0.12516759999562055,0.1,0,0,AccFast,6,18,Woman,Left,
28,9,1,1.416162000008626,['n'],0,left,['u'],0,0.08304389999830164,0.2,1,0,AccFast,6,18,Woman,Left,
29,9,1,1.1675815999915358,['c'],1,left,['u'],0,0.06802950002020225,0.4,0,0,AccFast,6,18,Woman,Left,
30,9,1,1.116522399999667,['c'],1,left,['u'],0,0.07003109998186119,0.1,0,0,AccFast,6,18,Woman,Left,
31,9,1,1.0350136999913957,['n'],1,right,['u'],0,0.07657730000209995,0.2,0,0,AccFast,6,18,Woman,Left,
32,9,1,1.0324152999965008,['n'],1,right,['u'],0,0.08398490000399761,0.2,0,0,AccFast,6,18,Woman,Left,
33,9,1,0.9831306000123732,['n'],1,right,['u'],0,0.059232300001895055,0.4,0,0,AccFast,6,18,Woman,Left,
34,9,1,1.6341768999991473,['n'],1,right,['u'],0,0.07478409999748692,0.1,0,0,AccFast,6,18,Woman,Left,
35,9,1,2.084458800003631,['c'],1,left,['e'],1,0.07083609999972396,0.1,1,0,AccFast,6,18,Woman,Left,
36,9,1,1.082922100002179,['c'],1,left,['u'],0,0.060466700000688434,0.1,0,0,AccFast,6,18,Woman,Left,
37,9,1,0.8333338999946136,['c'],1,left,['u'],0,0.05915600000298582,0.2,0,0,AccFast,6,18,Woman,Left,
38,9,1,0.6008008999924641,['c'],1,left,['u'],0,0.051200699992477894,0.4,0,0,AccFast,6,18,Woman,Left,
39,9,1,1.0176127000013366,['n'],1,right,['u'],0,0.07596780001767911,0.4,0,0,AccFast,6,18,Woman,Left,
40,9,1,0.8011068000050727,['n'],0,left,['u'],0,0.058839700010139495,0.2,1,0,AccFast,6,18,Woman,Left,
41,9,1,0.6665580000262707,['n'],1,right,['u'],0,0.06463899998925626,0.1,0,0,AccFast,6,18,Woman,Left,
42,9,1,1.2501112000027206,['n'],1,right,['u'],0,0.07838940000510775,0.4,0,0,AccFast,6,18,Woman,Left,
43,9,1,0.7830955999961589,['n'],0,left,['u'],0,0.03098780001164414,0.1,1,0,AccFast,6,18,Woman,Left,
44,9,1,0.9000863000110257,['c'],1,left,['u'],0,0.06011299998499453,0.1,0,0,AccFast,6,18,Woman,Left,
45,9,1,0.9160922000010032,['n'],1,right,['u'],0,0.07230899998103268,0.1,0,0,AccFast,6,18,Woman,Left,
46,9,1,0.6497543000150472,['c'],1,left,['u'],0,0.061436799995135516,0.4,0,0,AccFast,6,18,Woman,Left,
47,9,1,0.8344750000105705,['n'],1,right,['u'],0,0.045167300006141886,0.4,0,0,AccFast,6,18,Woman,Left,
48,9,1,0.7336246000195388,['c'],1,left,['u'],0,0.03203079997911118,0.2,0,0,AccFast,6,18,Woman,Left,
49,9,1,0.5832406999834348,['n'],0,left,['u'],0,0.07443469998543151,0.1,1,0,AccFast,6,18,Woman,Left,
50,9,1,0.749768400011817,['c'],1,left,['u'],0,0.09259829999064095,0.2,0,0,AccFast,6,18,Woman,Left,
51,9,1,0.6671673000091687,['c'],1,left,['u'],0,0.049438999994890764,0.1,0,0,AccFast,6,18,Woman,Left,
52,9,1,0.7988030000124127,['c'],0,right,['u'],0,0.08123360000899993,0.1,1,0,AccFast,6,18,Woman,Left,
53,9,1,0.6348512999829836,['c'],1,left,['u'],0,0.0544639999861829,0.2,0,0,AccFast,6,18,Woman,Left,
54,9,1,0.5670016999938525,['n'],0,left,['u'],0,0.06408989999908954,0.4,1,0,AccFast,6,18,Woman,Left,
55,9,1,0.867563700012397,['n'],1,right,['u'],0,0.10974360001273453,0.4,0,0,AccFast,6,18,Woman,Left,
56,9,1,0.6509889000153635,['c'],1,left,['u'],0,0.08182140000280924,0.4,0,0,AccFast,6,18,Woman,Left,
57,9,1,0.6017162000061944,['c'],1,left,['u'],0,0.04086259999894537,0.4,0,0,AccFast,6,18,Woman,Left,
58,9,1,1.0001741999876685,['n'],0,left,['u'],0,0.06701590001466684,0.1,1,0,AccFast,6,18,Woman,Left,
59,9,1,0.8167872999911197,['c'],1,left,['u'],0,0.050013900006888434,0.1,0,0,AccFast,6,18,Woman,Left,
0,10,1,1.1991783000121359,['n'],1,right,['u'],0,0.28346639999654144,0.2,0,0,AccAcc,6,18,Woman,Left,
1,10,1,1.00027570000384,['c'],0,right,['u'],0,0.34601810001186095,0.1,1,0,AccAcc,6,18,Woman,Left,
2,10,1,0.6846384000091348,['c'],1,left,['u'],0,0.2590937000059057,0.1,0,0,AccAcc,6,18,Woman,Left,
3,10,1,0.751531599991722,['n'],0,left,['u'],0,0.2697528999997303,0.4,1,0,AccAcc,6,18,Woman,Left,
4,10,1,0.8177560000040103,['n'],1,right,['u'],0,0.30905390001134947,0.2,0,0,AccAcc,6,18,Woman,Left,
5,10,1,1.050371899997117,['c'],0,right,['u'],0,0.22563860000809655,0.4,1,0,AccAcc,6,18,Woman,Left,
6,10,1,0.8168029000225943,['c'],1,left,['e'],1,0.26735749997897074,0.4,1,0,AccAcc,6,18,Woman,Left,
7,10,1,0.9498321999853943,['c'],0,right,['u'],0,0.28549320000456646,0.1,1,0,AccAcc,6,18,Woman,Left,
8,10,1,1.033267499995418,['n'],0,left,['u'],0,0.45866730000125244,0.2,1,0,AccAcc,6,18,Woman,Left,
9,10,1,0.9004725000122562,['c'],1,left,['u'],0,0.27973179999389686,0.2,0,0,AccAcc,6,18,Woman,Left,
10,10,1,0.8342270999855828,['c'],1,left,['e'],1,0.5089691000175662,0.4,1,0,AccAcc,6,18,Woman,Left,
11,10,1,0.8833148000121582,['c'],0,right,['u'],0,0.28080529998987913,0.1,1,0,AccAcc,6,18,Woman,Left,
12,10,1,1.1666076999972574,['n'],1,right,['u'],0,0.2571831000095699,0.4,0,0,AccAcc,6,18,Woman,Left,
13,10,1,0.899840400001267,['c'],1,left,['u'],0,0.37365439999848604,0.2,0,0,AccAcc,6,18,Woman,Left,
14,10,1,0.8180902000167407,['c'],1,left,['u'],0,0.2494023999897763,0.2,0,0,AccAcc,6,18,Woman,Left,
15,10,1,0.9009861999948043,['c'],0,right,['u'],0,0.36510689998976886,0.1,1,0,AccAcc,6,18,Woman,Left,
16,10,1,0.7677823999838438,['c'],1,left,['u'],0,0.4663236000051256,0.1,0,0,AccAcc,6,18,Woman,Left,
17,10,1,0.7675605999829713,['n'],1,right,['e'],1,0.3556414000049699,0.4,1,0,AccAcc,6,18,Woman,Left,
18,10,1,0.9002473000145983,['c'],1,left,['u'],0,0.22820880002109334,0.1,0,0,AccAcc,6,18,Woman,Left,
19,10,1,0.5348826999834273,['n'],1,right,['e'],1,0.23331510002026334,0.2,1,0,AccAcc,6,18,Woman,Left,
20,10,1,0.5008386999834329,['c'],1,left,['u'],0,0.20568919999641366,0.4,0,0,AccAcc,6,18,Woman,Left,
21,10,1,0.7009289000125136,['c'],1,left,['u'],0,0.15630329999839887,0.2,0,0,AccAcc,6,18,Woman,Left,
22,10,1,0.6822414000052959,['c'],1,left,['u'],0,0.2060440000204835,0.2,0,0,AccAcc,6,18,Woman,Left,
23,10,1,0.6347985000174958,['c'],1,left,['u'],0,0.2064642999903299,0.2,0,0,AccAcc,6,18,Woman,Left,
24,10,1,0.7822466000216082,['n'],1,right,['e'],1,0.17056480000610463,0.4,1,0,AccAcc,6,18,Woman,Left,
25,10,1,0.6168493999866769,['c'],0,right,['e'],1,0.1888885000080336,0.2,0,0,AccAcc,6,18,Woman,Left,
26,10,1,0.635134799988009,['c'],0,right,['u'],0,0.19051859999308363,0.1,1,0,AccAcc,6,18,Woman,Left,
27,10,1,0.5825787000067066,['c'],0,right,['u'],0,0.195645899977535,0.1,1,0,AccAcc,6,18,Woman,Left,
28,10,1,0.3341653000097722,['c'],0,right,['u'],0,0.17624020000221208,0.1,1,0,AccAcc,6,18,Woman,Left,
29,10,1,0.7843190999992657,['n'],1,right,['e'],1,0.12466050000512041,0.4,1,0,AccAcc,6,18,Woman,Left,
30,10,1,0.8850047999876551,['c'],0,right,['u'],0,0.16810079998685978,0.4,1,0,AccAcc,6,18,Woman,Left,
31,10,1,0.5686170000117272,['n'],1,right,['u'],0,0.14101929997559637,0.2,0,0,AccAcc,6,18,Woman,Left,
32,10,1,0.6836138000071514,['n'],0,left,['u'],0,0.11028779999469407,0.2,1,0,AccAcc,6,18,Woman,Left,
33,10,1,0.5833473999809939,['c'],0,right,['u'],0,0.16582340002059937,0.4,1,0,AccAcc,6,18,Woman,Left,
34,10,1,0.7010129999835044,['n'],0,left,['u'],0,0.1810766999842599,0.2,1,0,AccAcc,6,18,Woman,Left,
35,10,1,0.3508354000223335,['c'],0,right,['u'],0,0.14617829999770038,0.4,1,0,AccAcc,6,18,Woman,Left,
36,10,1,0.849839400005294,['n'],1,right,['u'],0,0.17266880001989193,0.2,0,0,AccAcc,6,18,Woman,Left,
37,10,1,0.6675385000125971,['c'],1,left,['e'],1,0.15805629998794757,0.4,1,0,AccAcc,6,18,Woman,Left,
38,10,1,0.8516456999932416,['c'],1,left,['e'],1,0.08836739999242127,0.2,1,0,AccAcc,6,18,Woman,Left,
39,10,1,0.8173860000097193,['n'],1,right,['u'],0,0.07083169999532402,0.1,0,0,AccAcc,6,18,Woman,Left,
40,10,1,1.149447899981169,['c'],1,left,['e'],1,0.057869400014169514,0.4,1,0,AccAcc,6,18,Woman,Left,
41,10,1,0.6998719999974128,['n'],0,left,['u'],0,0.09390629999688827,0.1,1,0,AccAcc,6,18,Woman,Left,
42,10,1,0.9327595999930054,['c'],1,left,['e'],1,0.03962150000734255,0.1,1,0,AccAcc,6,18,Woman,Left,
43,10,1,0.8344773999997415,['n'],1,right,['u'],0,0.055203800002345815,0.1,0,0,AccAcc,6,18,Woman,Left,
44,10,1,0.9012377999897581,['n'],0,left,['u'],0,0.06743559997994453,0.2,1,0,AccAcc,6,18,Woman,Left,
45,10,1,1.118088399991393,['n'],1,right,['e'],1,0.07066929998109117,0.2,1,0,AccAcc,6,18,Woman,Left,
46,10,1,1.5676177999994252,['n'],1,right,['u'],0,0.07209649999276735,0.1,0,0,AccAcc,6,18,Woman,Left,
47,10,1,1.351102600019658,['n'],0,left,['u'],0,0.0979640000150539,0.2,1,0,AccAcc,6,18,Woman,Left,
48,10,1,0.9326819999841973,['n'],1,right,['e'],1,0.09178739998606034,0.4,1,0,AccAcc,6,18,Woman,Left,
49,10,1,1.0170794000150636,['c'],1,left,['e'],1,0.018111899989889935,0.4,1,0,AccAcc,6,18,Woman,Left,
50,10,1,1.8510709000111092,['c'],1,left,['e'],1,0.04152649999014102,0.2,1,0,AccAcc,6,18,Woman,Left,
51,10,1,1.1842861000041012,['n'],0,left,['u'],0,0.13940820001880638,0.1,1,0,AccAcc,6,18,Woman,Left,
52,10,1,0.984276500006672,['c'],1,left,['u'],0,0.06530190000194125,0.4,0,0,AccAcc,6,18,Woman,Left,
53,10,1,0.9508530000166502,['n'],1,right,['u'],0,0.07543300001998432,0.1,0,0,AccAcc,6,18,Woman,Left,
54,10,1,0.9662474999786355,['n'],1,right,['e'],1,0.0854655000148341,0.4,1,0,AccAcc,6,18,Woman,Left,
55,10,1,1.6673862999887206,['c'],0,right,['u'],0,0.06506250001257285,0.1,1,0,AccAcc,6,18,Woman,Left,
56,10,1,0.9009455000050366,['c'],1,left,['e'],1,1.021020399988629,0.1,1,0,AccAcc,6,18,Woman,Left,
57,10,1,1.0177643000206444,['c'],1,left,['e'],1,0.04616540001006797,0.4,1,0,AccAcc,6,18,Woman,Left,
58,10,1,1.5176783000060823,['c'],1,left,['u'],0,0.08203849999699742,0.1,0,0,AccAcc,6,18,Woman,Left,
59,10,1,1.384604400023818,['n'],1,right,['u'],0,0.21913620000123046,0.4,0,0,AccAcc,6,18,Woman,Left,
0,11,1,0.8671266000019386,['n'],1,right,['u'],0,0.4837761000089813,0.4,0,0,FastAcc,6,18,Woman,Left,
1,11,1,0.6165973000170197,['c'],1,left,['u'],0,0.4268029000086244,0.2,0,0,FastAcc,6,18,Woman,Left,
2,11,1,0.7510346999915782,['n'],0,left,['u'],0,0.33406839999952354,0.1,1,0,FastAcc,6,18,Woman,Left,
3,11,1,0.8008738000062294,['c'],1,left,['u'],0,0.4353365999995731,0.4,0,0,FastAcc,6,18,Woman,Left,
4,11,1,0.4671841000090353,['n'],1,right,['u'],0,0.6256010000070091,0.2,0,0,FastAcc,6,18,Woman,Left,
5,11,1,0.734491999988677,['n'],1,right,['u'],0,0.33428780001122504,0.2,0,0,FastAcc,6,18,Woman,Left,
6,11,1,0.5332585999858566,['c'],1,left,['u'],0,0.28701729999738745,0.4,0,0,FastAcc,6,18,Woman,Left,
7,11,1,0.5665878000145312,['n'],1,right,['u'],0,0.2069152999902144,0.2,0,0,FastAcc,6,18,Woman,Left,
8,11,1,0.6667852000100538,['c'],0,right,['u'],0,0.7983590999792796,0.1,1,0,FastAcc,6,18,Woman,Left,
9,11,1,0.8994969000050332,['n'],1,right,['u'],0,0.46163679999881424,0.4,0,0,FastAcc,6,18,Woman,Left,
10,11,1,0.6177960000059102,['n'],1,right,['u'],0,0.5808951999933925,0.4,0,0,FastAcc,6,18,Woman,Left,
11,11,1,0.6674344999773894,['c'],1,left,['u'],0,0.46948759999941103,0.2,0,0,FastAcc,6,18,Woman,Left,
12,11,1,0.6504773000197019,['c'],1,left,['u'],0,0.3959702999854926,0.1,0,0,FastAcc,6,18,Woman,Left,
13,11,1,0.7504735999973491,['n'],1,right,['u'],0,0.22380300000077114,0.2,0,0,FastAcc,6,18,Woman,Left,
14,11,1,0.6999877000052948,['c'],0,right,['u'],0,0.301423499971861,0.2,1,0,FastAcc,6,18,Woman,Left,
15,11,1,0.7997804000042379,['n'],1,right,['u'],0,0.3082738000084646,0.1,0,0,FastAcc,6,18,Woman,Left,
16,11,1,0.6829970999970101,['n'],0,left,['u'],0,0.4318096000060905,0.2,1,0,FastAcc,6,18,Woman,Left,
17,11,1,0.667553700011922,['n'],1,right,['u'],0,0.5659669999731705,0.2,0,0,FastAcc,6,18,Woman,Left,
18,11,1,0.7681502000195906,['n'],0,left,['u'],0,0.3391268000123091,0.1,1,0,FastAcc,6,18,Woman,Left,
19,11,1,0.7004115000017919,['c'],1,left,['u'],0,0.3644577000231948,0.4,0,0,FastAcc,6,18,Woman,Left,
20,11,1,0.701343499997165,['n'],1,right,['e'],1,1.1723906999977771,0.4,1,0,FastAcc,6,18,Woman,Left,
21,11,1,0.8495608000084758,['n'],1,right,['u'],0,0.43825060001108795,0.1,0,0,FastAcc,6,18,Woman,Left,
22,11,1,0.7669167999993078,['c'],1,left,['e'],1,0.3767731000261847,0.4,1,0,FastAcc,6,18,Woman,Left,
23,11,1,0.818233500001952,['c'],1,left,['e'],1,0.4441565000161063,0.2,1,0,FastAcc,6,18,Woman,Left,
24,11,1,1.3490115000167862,['c'],1,left,['u'],0,0.31202129999292083,0.1,0,0,FastAcc,6,18,Woman,Left,
25,11,1,0.7508276000153273,['c'],1,left,['u'],0,0.32005980002577417,0.4,0,0,FastAcc,6,18,Woman,Left,
26,11,1,0.7496449999744073,['c'],1,left,['u'],0,0.3284572999982629,0.2,0,0,FastAcc,6,18,Woman,Left,
27,11,1,1.466892700002063,['c'],0,right,['u'],0,0.8510861000104342,0.1,1,0,FastAcc,6,18,Woman,Left,
28,11,1,0.8840602000127546,['c'],0,right,['u'],0,0.35245569999096915,0.1,1,0,FastAcc,6,18,Woman,Left,
29,11,1,0.7163760000257753,['c'],1,left,['u'],0,1.0008738999895286,0.2,0,0,FastAcc,6,18,Woman,Left,
30,11,1,1.0174849999893922,['n'],1,right,['e'],1,0.3623671999957878,0.4,1,0,FastAcc,6,18,Woman,Left,
31,11,1,0.6830108999856748,['c'],1,left,['u'],0,0.3717172000033315,0.4,0,0,FastAcc,6,18,Woman,Left,
32,11,1,0.8010842999792658,['c'],1,left,['u'],0,0.1836790000088513,0.2,0,0,FastAcc,6,18,Woman,Left,
33,11,1,0.6997338999935891,['c'],1,left,['u'],0,0.2465481999970507,0.4,0,0,FastAcc,6,18,Woman,Left,
34,11,1,0.9174811999837402,['n'],1,right,['u'],0,0.2498619999969378,0.2,0,0,FastAcc,6,18,Woman,Left,
35,11,1,0.46644230000674725,['c'],1,left,['u'],0,0.3196300000126939,0.4,0,0,FastAcc,6,18,Woman,Left,
36,11,1,0.5670273000141606,['c'],0,right,['u'],0,0.28669340000487864,0.4,1,0,FastAcc,6,18,Woman,Left,
37,11,1,0.7347159000055399,['c'],1,left,['e'],1,0.3125694000045769,0.1,1,0,FastAcc,6,18,Woman,Left,
38,11,1,0.9829047000093851,['n'],1,right,['u'],0,0.1996242000022903,0.4,0,0,FastAcc,6,18,Woman,Left,
39,11,1,0.9666847000189591,['n'],0,left,['u'],0,0.1871520000277087,0.2,1,0,FastAcc,6,18,Woman,Left,
40,11,1,0.9009506000147667,['c'],1,left,['u'],0,0.29033970000455156,0.2,0,0,FastAcc,6,18,Woman,Left,
41,11,1,0.6504414000082761,['c'],1,left,['u'],0,0.2713385999959428,0.2,0,0,FastAcc,6,18,Woman,Left,
42,11,1,0.6179396000225097,['c'],0,right,['u'],0,0.23983820001012646,0.1,1,0,FastAcc,6,18,Woman,Left,
43,11,1,0.5341918999911286,['c'],1,left,['u'],0,0.16239599999971688,0.2,0,0,FastAcc,6,18,Woman,Left,
44,11,1,0.5179699000145774,['c'],0,right,['u'],0,0.2016109999967739,0.1,1,0,FastAcc,6,18,Woman,Left,
45,11,1,0.25110809999750927,['c'],1,left,['u'],0,0.21866680000675842,0.1,0,0,FastAcc,6,18,Woman,Left,
46,11,1,0.5163710999768227,['c'],0,right,['u'],0,0.20722539999405853,0.4,1,0,FastAcc,6,18,Woman,Left,
47,11,1,0.1177546999824699,['c'],0,right,['u'],0,0.4048760000150651,0.4,1,0,FastAcc,6,18,Woman,Left,
48,11,1,0.8182821999944281,['c'],0,right,['u'],0,0.07052830001339316,0.1,1,0,FastAcc,6,18,Woman,Left,
49,11,1,0.5842897000256926,['n'],1,right,['e'],1,0.127038700011326,0.1,1,0,FastAcc,6,18,Woman,Left,
50,11,1,0.41807789998711087,['n'],1,right,['u'],0,0.1089741000032518,0.4,0,0,FastAcc,6,18,Woman,Left,
51,11,1,0.5011670999811031,['n'],1,right,['u'],0,0.11889209999935701,0.1,0,0,FastAcc,6,18,Woman,Left,
52,11,1,0.38495029998011887,['n'],0,left,['u'],0,0.11813240000628866,0.1,1,0,FastAcc,6,18,Woman,Left,
53,11,1,0.6178130999905989,['c'],1,left,['u'],0,0.13853269998799078,0.2,0,0,FastAcc,6,18,Woman,Left,
54,11,1,0.6513058000127785,['c'],1,left,['u'],0,0.07755940000060946,0.1,0,0,FastAcc,6,18,Woman,Left,
55,11,1,0.5015814999933355,['c'],0,right,['u'],0,0.07337500000721775,0.1,1,0,FastAcc,6,18,Woman,Left,
56,11,1,0.7010964999790303,['c'],0,right,['u'],0,0.07712179998634383,0.2,1,0,FastAcc,6,18,Woman,Left,
57,11,1,0.5012772000045516,['c'],0,right,['u'],0,0.13665460000629537,0.4,1,0,FastAcc,6,18,Woman,Left,
58,11,1,0.7495447999972384,['c'],1,left,['e'],1,0.12001040001632646,0.4,1,0,FastAcc,6,18,Woman,Left,
59,11,1,1.000316899997415,['c'],1,left,['u'],0,0.07786780002061278,0.1,0,0,FastAcc,6,18,Woman,Left,
0,12,1,0.43357349999132566,['n'],0,left,['u'],0,0.06015209999168292,0.2,1,0,FastFast,6,18,Woman,Left,
1,12,1,0.9344301000237465,['c'],1,left,['e'],1,0.03886999998940155,0.4,1,0,FastFast,6,18,Woman,Left,
2,12,1,1.0157039999903645,['c'],0,right,['u'],0,0.04822359999525361,0.1,1,0,FastFast,6,18,Woman,Left,
3,12,1,0.666887700004736,['n'],1,right,['u'],0,0.05336140000144951,0.4,0,0,FastFast,6,18,Woman,Left,
4,12,1,1.1344853999908082,['n'],1,right,['u'],0,0.040467599988915026,0.1,0,0,FastFast,6,18,Woman,Left,
5,12,1,0.816391999978805,['c'],0,right,['u'],0,0.07314510000287555,0.2,1,0,FastFast,6,18,Woman,Left,
6,12,1,0.9168244999891613,['n'],1,right,['u'],0,0.06823219999205321,0.4,0,0,FastFast,6,18,Woman,Left,
7,12,1,0.6509074000059627,['c'],0,right,['u'],0,0.09034719999181107,0.2,1,0,FastFast,6,18,Woman,Left,
8,12,1,0.8511215999897104,['c'],0,right,['e'],1,0.08697709999978542,0.2,0,0,FastFast,6,18,Woman,Left,
9,12,1,0.9500931999937166,['c'],0,right,['u'],0,0.04840400000102818,0.2,1,0,FastFast,6,18,Woman,Left,
10,12,1,0.7845966999884695,['n'],1,right,['u'],0,0.049244800000451505,0.4,0,0,FastFast,6,18,Woman,Left,
11,12,1,0.800934300001245,['c'],1,left,['e'],1,0.09784390000277199,0.2,1,0,FastFast,6,18,Woman,Left,
12,12,1,1.0671548999962397,['c'],1,left,['u'],0,0.05410680000204593,0.2,0,0,FastFast,6,18,Woman,Left,
13,12,1,0.9510410999937449,['n'],0,left,['u'],0,0.033277699985774234,0.2,1,0,FastFast,6,18,Woman,Left,
14,12,1,0.5008371000003535,['c'],1,left,['u'],0,0.07763450001948513,0.4,0,0,FastFast,6,18,Woman,Left,
15,12,1,0.9676515999890398,['c'],0,right,['u'],0,0.07034200002090074,0.1,1,0,FastFast,6,18,Woman,Left,
16,12,1,0.9343963999999687,['c'],1,left,['u'],0,0.049349799985066056,0.1,0,0,FastFast,6,18,Woman,Left,
17,12,1,0.8843405999941751,['n'],1,right,['e'],1,0.030223899986594915,0.4,1,0,FastFast,6,18,Woman,Left,
18,12,1,0.8680899000028148,['c'],1,left,['e'],1,0.029729200003203005,0.4,1,0,FastFast,6,18,Woman,Left,
19,12,1,0.8344401000067592,['c'],1,left,['e'],1,0.012853499996708706,0.4,1,0,FastFast,6,18,Woman,Left,
20,12,1,1.0152988999907393,['n'],1,right,['u'],0,0.023126100015360862,0.1,0,0,FastFast,6,18,Woman,Left,
21,12,1,0.7342136999941431,['c'],1,left,['e'],1,1.3703591999947093,0.4,1,0,FastFast,6,18,Woman,Left,
22,12,1,1.0003402000002097,['c'],1,left,['u'],0,0.06249869999010116,0.2,0,0,FastFast,6,18,Woman,Left,
23,12,1,1.0162819999968633,['c'],1,left,['u'],0,0.03861819999292493,0.4,0,0,FastFast,6,18,Woman,Left,
24,12,1,0.9831039999844506,['c'],1,left,['u'],0,0.06448390000150539,0.1,0,0,FastFast,6,18,Woman,Left,
25,12,1,0.7672342000005301,['c'],1,left,['e'],1,0.03314179999870248,0.4,1,0,FastFast,6,18,Woman,Left,
26,12,1,1.1009205000009388,['n'],1,right,['e'],1,0.03767459999653511,0.4,1,0,FastFast,6,18,Woman,Left,
27,12,1,1.051176300010411,['c'],1,left,['e'],1,0.013211299985414371,0.4,1,0,FastFast,6,18,Woman,Left,
28,12,1,0.9006632000091486,['c'],1,left,['u'],0,0.042616000020643696,0.1,0,0,FastFast,6,18,Woman,Left,
29,12,1,1.049690300016664,['n'],1,right,['u'],0,0.04985450001549907,0.2,0,0,FastFast,6,18,Woman,Left,
30,12,1,0.6676310000184458,['c'],1,left,['e'],1,0.7439727000019047,0.4,1,0,FastFast,6,18,Woman,Left,
31,12,1,1.0671595000021625,['n'],1,right,['u'],0,0.050450799986720085,0.2,0,0,FastFast,6,18,Woman,Left,
32,12,1,1.066627000021981,['c'],1,left,['u'],0,0.04028630000539124,0.2,0,0,FastFast,6,18,Woman,Left,
33,12,1,0.7334292999876197,['c'],0,right,['u'],0,0.07674689998384565,0.1,1,0,FastFast,6,18,Woman,Left,
34,12,1,0.43417939997743815,['n'],0,left,['u'],0,0.10675129998708144,0.1,1,0,FastFast,6,18,Woman,Left,
35,12,1,0.3676372000190895,['c'],0,right,['u'],0,0.02638900000602007,0.1,1,0,FastFast,6,18,Woman,Left,
36,12,1,0.9013132000109181,['n'],1,right,['u'],0,0.056217400007881224,0.1,0,0,FastFast,6,18,Woman,Left,
37,12,1,0.4509224999928847,['c'],0,right,['u'],0,0.022943399992072955,0.4,1,0,FastFast,6,18,Woman,Left,
38,12,1,0.7503562000056263,['c'],1,left,['u'],0,0.07459169998764992,0.2,0,0,FastFast,6,18,Woman,Left,
39,12,1,0.5676302000065334,['c'],0,right,['u'],0,0.11523219998343848,0.1,1,0,FastFast,6,18,Woman,Left,
40,12,1,0.5175458999874536,['c'],0,right,['u'],0,0.06055900000501424,0.2,1,0,FastFast,6,18,Woman,Left,
41,12,1,0.45099740001023747,['c'],0,right,['u'],0,0.04279359997599386,0.4,1,0,FastFast,6,18,Woman,Left,
42,12,1,0.3678840000065975,['c'],1,left,['u'],0,0.09327640000265092,0.1,0,0,FastFast,6,18,Woman,Left,
43,12,1,0.46780039998702705,['c'],1,left,['u'],0,0.058097200002521276,0.1,0,0,FastFast,6,18,Woman,Left,
44,12,1,0.3010877999768127,['c'],1,left,['u'],0,0.07804739999119192,0.2,0,0,FastFast,6,18,Woman,Left,
45,12,1,0.34881930000847206,['c'],0,right,['u'],0,0.04814890000852756,0.4,1,0,FastFast,6,18,Woman,Left,
46,12,1,0.8171333000063896,['c'],1,left,['u'],0,0.047020900005009025,0.2,0,0,FastFast,6,18,Woman,Left,
47,12,1,0.6844602999917697,['n'],0,left,['u'],0,0.0528751999954693,0.1,1,0,FastFast,6,18,Woman,Left,
48,12,1,0.634463099995628,['n'],1,right,['u'],0,0.04404629999771714,0.2,0,0,FastFast,6,18,Woman,Left,
49,12,1,0.7499340000213124,['c'],1,left,['u'],0,0.03150159999495372,0.1,0,0,FastFast,6,18,Woman,Left,
50,12,1,0.5005441000103019,['n'],1,right,['u'],0,0.07678070000838488,0.2,0,0,FastFast,6,18,Woman,Left,
51,12,1,0.3343477000016719,['n'],1,right,['u'],0,0.062057700008153915,0.1,0,0,FastFast,6,18,Woman,Left,
52,12,1,0.3009913999994751,['n'],0,left,['u'],0,0.08166379999602214,0.4,1,0,FastFast,6,18,Woman,Left,
53,12,1,0.2678040000027977,['n'],0,left,['u'],0,1.045730999991065,0.1,1,0,FastFast,6,18,Woman,Left,
54,12,1,0.5511913000082131,['n'],1,right,['u'],0,0.05669190001208335,0.1,0,0,FastFast,6,18,Woman,Left,
55,12,1,0.4181527000037022,['n'],1,right,['u'],0,0.12062289999448694,0.4,0,0,FastFast,6,18,Woman,Left,
56,12,1,2.3675089000025764,['c'],1,left,['u'],0,0.16797919999225996,0.1,0,0,FastFast,6,18,Woman,Left,
57,12,1,1.0506666000001132,['n'],1,right,['e'],1,0.3629157000104897,0.4,1,0,FastFast,6,18,Woman,Left,
58,12,1,1.9009628999920096,['c'],1,left,['u'],0,0.08182819999638014,0.2,0,0,FastFast,6,18,Woman,Left,
59,12,1,0.8839821000001393,['n'],1,right,['u'],0,0.06164510000962764,0.2,0,0,FastFast,6,18,Woman,Left,
0,13,1,1.149488900002325,['c'],0,right,['u'],0,0.31819869999890216,0.2,1,0,AccFast,6,18,Woman,Left,
1,13,1,0.967872700013686,['n'],1,right,['u'],0,0.3652600000204984,0.2,0,0,AccFast,6,18,Woman,Left,
2,13,1,1.051313999982085,['n'],1,right,['u'],0,0.37523020000662655,0.4,0,0,AccFast,6,18,Woman,Left,
3,13,1,0.6013409000006504,['n'],1,right,['e'],1,0.4350136000139173,0.4,1,0,AccFast,6,18,Woman,Left,
4,13,1,0.6165303000016138,['c'],1,left,['u'],0,0.5235231000115164,0.1,0,0,AccFast,6,18,Woman,Left,
5,13,1,0.6669965000182856,['n'],1,right,['u'],0,0.49475559999700636,0.2,0,0,AccFast,6,18,Woman,Left,
6,13,1,0.6337139000243042,['c'],1,left,['u'],0,0.38840900000650436,0.4,0,0,AccFast,6,18,Woman,Left,
7,13,1,0.5497942000220064,['c'],1,left,['e'],1,0.56248099997174,0.4,1,0,AccFast,6,18,Woman,Left,
8,13,1,0.852367299987236,['n'],1,right,['u'],0,0.49177719998988323,0.1,0,0,AccFast,6,18,Woman,Left,
9,13,1,0.7004087000095751,['n'],1,right,['u'],0,0.4629283999965992,0.1,0,0,AccFast,6,18,Woman,Left,
10,13,1,0.7662731000164058,['n'],1,right,['u'],0,0.4008194000052754,0.1,0,0,AccFast,6,18,Woman,Left,
11,13,1,1.2019071000104304,['n'],1,right,['u'],0,0.4348809999937657,0.2,0,0,AccFast,6,18,Woman,Left,
12,13,1,0.7345110999885947,['c'],1,left,['u'],0,0.3108666999905836,0.2,0,0,AccFast,6,18,Woman,Left,
13,13,1,0.8010848000121769,['c'],1,left,['e'],1,0.5093593999918085,0.4,1,0,AccFast,6,18,Woman,Left,
14,13,1,0.8507218000013381,['n'],1,right,['e'],1,0.42586580000352114,0.4,1,0,AccFast,6,18,Woman,Left,
15,13,1,0.8513284999935422,['c'],1,left,['u'],0,0.4897554999915883,0.2,0,0,AccFast,6,18,Woman,Left,
16,13,1,0.7515470999933314,['c'],1,left,['u'],0,0.4911380999838002,0.2,0,0,AccFast,6,18,Woman,Left,
17,13,1,0.8843182000273373,['n'],1,right,['u'],0,0.6148901999986265,0.2,0,0,AccFast,6,18,Woman,Left,
18,13,1,0.6344249999965541,['n'],1,right,['u'],0,0.4554655000101775,0.4,0,0,AccFast,6,18,Woman,Left,
19,13,1,0.6338688999821898,['c'],0,right,['u'],0,0.4147397000051569,0.2,1,0,AccFast,6,18,Woman,Left,
20,13,1,0.700990199984517,['n'],1,right,['u'],0,0.4206113000109326,0.4,0,0,AccFast,6,18,Woman,Left,
21,13,1,0.6662985000002664,['c'],1,left,['e'],1,0.47663819999434054,0.4,1,0,AccFast,6,18,Woman,Left,
22,13,1,0.63497680000728,['c'],1,left,['e'],1,0.4342144000111148,0.1,1,0,AccFast,6,18,Woman,Left,
23,13,1,0.7168697000015527,['c'],1,left,['e'],1,0.47153670000261627,0.1,1,0,AccFast,6,18,Woman,Left,
24,13,1,0.9178087000036612,['c'],1,left,['e'],1,0.41847380000399426,0.2,1,0,AccFast,6,18,Woman,Left,
25,13,1,1.2835341999889351,['n'],0,left,['u'],0,0.368724400002975,0.1,1,0,AccFast,6,18,Woman,Left,
26,13,1,0.966240400011884,['c'],1,left,['u'],0,0.3503572999907192,0.4,0,0,AccFast,6,18,Woman,Left,
27,13,1,0.8507095999957528,['c'],1,left,['u'],0,0.40064959999290295,0.4,0,0,AccFast,6,18,Woman,Left,
28,13,1,0.9334292999992613,['n'],0,left,['u'],0,0.3984302999742795,0.1,1,0,AccFast,6,18,Woman,Left,
29,13,1,0.8350118999951519,['c'],1,left,['u'],0,0.30294490000233054,0.2,0,0,AccFast,6,18,Woman,Left,
30,13,1,0.7511541999992914,['c'],0,right,['u'],0,0.34353189999819733,0.1,1,0,AccFast,6,18,Woman,Left,
31,13,1,0.9343416999909095,['c'],1,left,['u'],0,0.32752370001981035,0.1,0,0,AccFast,6,18,Woman,Left,
32,13,1,1.0008525000012014,['c'],0,right,['u'],0,0.27755689999321476,0.1,1,0,AccFast,6,18,Woman,Left,
33,13,1,0.6011528999952134,['c'],0,right,['u'],0,0.2935192000004463,0.2,1,0,AccFast,6,18,Woman,Left,
34,13,1,0.7501083000097424,['n'],1,right,['u'],0,0.33540050001465715,0.4,0,0,AccFast,6,18,Woman,Left,
35,13,1,0.7667847000120673,['c'],1,left,['u'],0,0.24568369999178685,0.1,0,0,AccFast,6,18,Woman,Left,
36,13,1,1.166141499998048,['n'],1,right,['u'],0,0.19159140001283959,0.1,0,0,AccFast,6,18,Woman,Left,
37,13,1,0.68376200000057,['c'],0,right,['u'],0,0.2225975000183098,0.2,1,0,AccFast,6,18,Woman,Left,
38,13,1,0.7996941999881528,['c'],1,left,['e'],1,0.26514239999232814,0.2,1,0,AccFast,6,18,Woman,Left,
39,13,1,0.6829911000095308,['c'],0,right,['u'],0,0.21409100000164472,0.4,1,0,AccFast,6,18,Woman,Left,
40,13,1,0.5503191000025254,['c'],1,left,['u'],0,0.2497053999977652,0.1,0,0,AccFast,6,18,Woman,Left,
41,13,1,0.4499581000127364,['c'],1,left,['u'],0,0.24028730002464727,0.1,0,0,AccFast,6,18,Woman,Left,
42,13,1,0.4178708999825176,['c'],0,right,['u'],0,0.2476129000133369,0.2,1,0,AccFast,6,18,Woman,Left,
43,13,1,0.40007089998107404,['c'],1,left,['u'],0,0.20818210000288673,0.1,0,0,AccFast,6,18,Woman,Left,
44,13,1,0.23427129999618046,['c'],0,right,['u'],0,0.2412299000134226,0.1,1,0,AccFast,6,18,Woman,Left,
45,13,1,0.4678282999957446,['c'],0,right,['u'],0,0.23255449999123812,0.2,1,0,AccFast,6,18,Woman,Left,
46,13,1,0.2999695999897085,['c'],1,left,['u'],0,0.19742710000718944,0.4,0,0,AccFast,6,18,Woman,Left,
47,13,1,0.6512057000072673,['n'],1,right,['u'],0,0.21352670001215301,0.2,0,0,AccFast,6,18,Woman,Left,
48,13,1,0.6011429000063799,['n'],1,right,['u'],0,0.5511414000065997,0.1,0,0,AccFast,6,18,Woman,Left,
49,13,1,0.7345481000083964,['c'],1,left,['u'],0,0.35835610001231544,0.2,0,0,AccFast,6,18,Woman,Left,
50,13,1,0.9497955999977421,['c'],1,left,['u'],0,0.3254370999929961,0.2,0,0,AccFast,6,18,Woman,Left,
51,13,1,0.6343970999878366,['n'],1,right,['u'],0,0.41747029998805374,0.1,0,0,AccFast,6,18,Woman,Left,
52,13,1,0.8836775000090711,['c'],1,left,['e'],1,0.35202900000149384,0.4,1,0,AccFast,6,18,Woman,Left,
53,13,1,0.9829335999966133,['n'],1,right,['u'],0,0.3981848999974318,0.2,0,0,AccFast,6,18,Woman,Left,
54,13,1,0.7174551000061911,['c'],1,left,['e'],1,0.3721238999860361,0.4,1,0,AccFast,6,18,Woman,Left,
55,13,1,0.6835296000062954,['c'],1,left,['u'],0,0.25212200000532903,0.1,0,0,AccFast,6,18,Woman,Left,
56,13,1,0.7345019000058528,['n'],1,right,['u'],0,0.630632800020976,0.4,0,0,AccFast,6,18,Woman,Left,
57,13,1,0.7003833999915514,['c'],1,left,['e'],1,0.260358899977291,0.4,1,0,AccFast,6,18,Woman,Left,
58,13,1,0.8192167000088375,['n'],1,right,['u'],0,0.21991220000199974,0.4,0,0,AccFast,6,18,Woman,Left,
59,13,1,0.7339114999922458,['n'],0,left,['u'],0,0.569101100001717,0.4,1,0,AccFast,6,18,Woman,Left,
0,14,1,1.933515599987004,['c'],1,left,['u'],0,0.9746195999905467,0.4,0,0,AccAcc,6,18,Woman,Left,
1,14,1,1.5010445000079926,['n'],1,right,['u'],0,0.41454800000065006,0.1,0,0,AccAcc,6,18,Woman,Left,
2,14,1,0.9336873999855015,['n'],1,right,['u'],0,0.39627709999331273,0.2,0,0,AccAcc,6,18,Woman,Left,
3,14,1,1.2343224000069313,['n'],1,right,['u'],0,0.476552600011928,0.4,0,0,AccAcc,6,18,Woman,Left,
4,14,1,1.2342629999911878,['n'],1,right,['u'],0,0.3791434000013396,0.1,0,0,AccAcc,6,18,Woman,Left,
5,14,1,1.0174750000005588,['n'],1,right,['u'],0,0.4857340000162367,0.1,0,0,AccAcc,6,18,Woman,Left,
6,14,1,1.5004921999934595,['n'],1,right,['u'],0,0.44121729998732917,0.4,0,0,AccAcc,6,18,Woman,Left,
7,14,1,1.3848669000144582,['c'],0,right,['u'],0,0.2919359999941662,0.2,1,0,AccAcc,6,18,Woman,Left,
8,14,1,0.8330191999848466,['n'],1,right,['u'],0,0.4097603000118397,0.1,0,0,AccAcc,6,18,Woman,Left,
9,14,1,1.0324152999965008,['n'],0,left,['u'],0,0.3877451999869663,0.1,1,0,AccAcc,6,18,Woman,Left,
10,14,1,0.9185957000008784,['n'],0,left,['u'],0,0.44899850001093,0.2,1,0,AccAcc,6,18,Woman,Left,
11,14,1,1.2842633000109345,['c'],0,right,['u'],0,0.2223068000166677,0.2,1,0,AccAcc,6,18,Woman,Left,
12,14,1,1.3657755000167526,['n'],1,right,['u'],0,0.32189500000094995,0.4,0,0,AccAcc,6,18,Woman,Left,
13,14,1,1.0842248999979347,['c'],1,left,['u'],0,0.30098079997696914,0.1,0,0,AccAcc,6,18,Woman,Left,
14,14,1,0.7841096000047401,['n'],0,left,['u'],0,0.3085944000049494,0.2,1,0,AccAcc,6,18,Woman,Left,
15,14,1,0.8839341999846511,['n'],1,right,['u'],0,0.3424652999965474,0.1,0,0,AccAcc,6,18,Woman,Left,
16,14,1,0.8181252999929711,['c'],1,left,['u'],0,0.3319286000041757,0.2,0,0,AccAcc,6,18,Woman,Left,
17,14,1,0.7180391000001691,['n'],1,right,['u'],0,0.29163940000580624,0.2,0,0,AccAcc,6,18,Woman,Left,
18,14,1,0.7008124999993015,['c'],1,left,['u'],0,0.19081079997704364,0.1,0,0,AccAcc,6,18,Woman,Left,
19,14,1,0.467760300001828,['c'],1,left,['u'],0,0.24730190000263974,0.4,0,0,AccAcc,6,18,Woman,Left,
20,14,1,0.8664454000245314,['n'],1,right,['u'],0,0.25420049999956973,0.2,0,0,AccAcc,6,18,Woman,Left,
21,14,1,0.5829780999920331,['c'],1,left,['u'],0,0.19174829998519272,0.4,0,0,AccAcc,6,18,Woman,Left,
22,14,1,0.6670913999842014,['n'],1,right,['u'],0,0.22268229999463074,0.2,0,0,AccAcc,6,18,Woman,Left,
23,14,1,0.4179594999877736,['n'],0,left,['u'],0,0.1996936000068672,0.4,1,0,AccAcc,6,18,Woman,Left,
24,14,1,0.6845195000059903,['c'],1,left,['u'],0,0.24694819998694584,0.1,0,0,AccAcc,6,18,Woman,Left,
25,14,1,0.45107770001050085,['n'],1,right,['u'],0,0.18949409999186173,0.2,0,0,AccAcc,6,18,Woman,Left,
26,14,1,0.7830233999993652,['n'],1,right,['u'],0,0.1540028000017628,0.4,0,0,AccAcc,6,18,Woman,Left,
27,14,1,0.7664373999868985,['c'],1,left,['u'],0,0.18314990002545528,0.2,0,0,AccAcc,6,18,Woman,Left,
28,14,1,0.8996461000060663,['n'],1,right,['e'],1,0.23830860000452958,0.4,1,0,AccAcc,6,18,Woman,Left,
29,14,1,0.734717899991665,['c'],1,left,['e'],1,0.37824830002500676,0.4,1,0,AccAcc,6,18,Woman,Left,
30,14,1,0.7667061999964062,['c'],1,left,['u'],0,0.4471430999983568,0.2,0,0,AccAcc,6,18,Woman,Left,
31,14,1,0.8179529000190087,['c'],1,left,['u'],0,0.38341410001157783,0.1,0,0,AccAcc,6,18,Woman,Left,
32,14,1,0.7343671999988146,['c'],0,right,['u'],0,0.38847679999889806,0.2,1,0,AccAcc,6,18,Woman,Left,
33,14,1,1.1845647000009194,['n'],1,right,['u'],0,0.36120820001815446,0.1,0,0,AccAcc,6,18,Woman,Left,
34,14,1,0.9668743999791332,['n'],0,left,['u'],0,0.4546281000075396,0.1,1,0,AccAcc,6,18,Woman,Left,
35,14,1,0.8011867000022903,['n'],1,right,['u'],0,0.47175749999587424,0.2,0,0,AccAcc,6,18,Woman,Left,
36,14,1,0.7659910999936983,['n'],1,right,['u'],0,0.34413740001036786,0.2,0,0,AccAcc,6,18,Woman,Left,
37,14,1,0.7492214000085369,['n'],1,right,['u'],0,0.33616690000053495,0.4,0,0,AccAcc,6,18,Woman,Left,
38,14,1,0.8349156000185758,['n'],1,right,['u'],0,0.30716019999817945,0.1,0,0,AccAcc,6,18,Woman,Left,
39,14,1,0.7847652000200469,['n'],0,left,['u'],0,0.44236269997782074,0.4,1,0,AccAcc,6,18,Woman,Left,
40,14,1,0.6181205000029877,['n'],1,right,['u'],0,0.2749686000170186,0.1,0,0,AccAcc,6,18,Woman,Left,
41,14,1,0.400936099991668,['c'],1,left,['u'],0,0.41102229998796247,0.1,0,0,AccAcc,6,18,Woman,Left,
42,14,1,0.8177252000023145,['n'],0,left,['u'],0,0.253538099990692,0.2,1,0,AccAcc,6,18,Woman,Left,
43,14,1,0.7184197000169661,['n'],1,right,['u'],0,0.31247400000575,0.2,0,0,AccAcc,6,18,Woman,Left,
44,14,1,0.7002484999829903,['n'],0,left,['u'],0,0.19475459997192957,0.2,1,0,AccAcc,6,18,Woman,Left,
45,14,1,0.41692540000076406,['n'],0,left,['u'],0,0.22198810000554658,0.1,1,0,AccAcc,6,18,Woman,Left,
46,14,1,0.300434500008123,['n'],0,left,['u'],0,0.13901480002095923,0.4,1,0,AccAcc,6,18,Woman,Left,
47,14,1,0.5839224999945145,['c'],0,right,['u'],0,0.1442356000188738,0.1,1,0,AccAcc,6,18,Woman,Left,
48,14,1,0.5843882000190206,['n'],1,right,['u'],0,0.166205000015907,0.4,0,0,AccAcc,6,18,Woman,Left,
49,14,1,0.4177704000030644,['n'],0,left,['u'],0,0.12907130000530742,0.1,1,0,AccAcc,6,18,Woman,Left,
50,14,1,0.5179938999935985,['n'],0,left,['u'],0,0.15368789999047294,0.2,1,0,AccAcc,6,18,Woman,Left,
51,14,1,0.7002731999964453,['n'],0,left,['u'],0,0.1541983000061009,0.1,1,0,AccAcc,6,18,Woman,Left,
52,14,1,0.5177571999956854,['n'],0,left,['u'],0,0.1778700000140816,0.4,1,0,AccAcc,6,18,Woman,Left,
53,14,1,0.5677866000041831,['n'],1,right,['u'],0,0.16685789998155087,0.4,0,0,AccAcc,6,18,Woman,Left,
54,14,1,0.8016607000026852,['n'],1,right,['u'],0,0.19566800000029616,0.1,0,0,AccAcc,6,18,Woman,Left,
55,14,1,0.76645650001592,['c'],1,left,['u'],0,0.4156187000044156,0.4,0,0,AccAcc,6,18,Woman,Left,
56,14,1,0.7333777000021655,['n'],1,right,['u'],0,0.291869200009387,0.2,0,0,AccAcc,6,18,Woman,Left,
57,14,1,0.6343754999979865,['n'],0,left,['u'],0,0.21056160001899116,0.4,1,0,AccAcc,6,18,Woman,Left,
58,14,1,0.6667940999905113,['n'],0,left,['u'],0,0.11400970001704991,0.4,1,0,AccAcc,6,18,Woman,Left,
59,14,1,0.967585100006545,['n'],0,left,['u'],0,0.12087939999764785,0.4,1,0,AccAcc,6,18,Woman,Left,
0,15,1,0.9669724999985192,['n'],1,right,['u'],0,0.24646369999391027,0.4,0,0,FastAcc,6,18,Woman,Left,
1,15,1,0.6334402000065893,['n'],0,left,['u'],0,0.10078340000472963,0.4,1,0,FastAcc,6,18,Woman,Left,
2,15,1,0.9677551999920979,['c'],1,left,['u'],0,0.1728313000057824,0.1,0,0,FastAcc,6,18,Woman,Left,
3,15,1,0.9010296000051312,['c'],1,left,['u'],0,0.13249380001798272,0.4,0,0,FastAcc,6,18,Woman,Left,
4,15,1,0.9183186000154819,['n'],0,left,['u'],0,0.5889587999845389,0.1,1,0,FastAcc,6,18,Woman,Left,
5,15,1,0.7012669999967329,['c'],1,left,['u'],0,0.6681668999954127,0.4,0,0,FastAcc,6,18,Woman,Left,
6,15,1,0.601295400003437,['n'],1,right,['u'],0,0.4120989000075497,0.4,0,0,FastAcc,6,18,Woman,Left,
7,15,1,0.5492138999979943,['c'],1,left,['e'],1,0.31237560001318343,0.2,1,0,FastAcc,6,18,Woman,Left,
8,15,1,0.7833355999900959,['n'],1,right,['u'],0,0.30265920000965707,0.2,0,0,FastAcc,6,18,Woman,Left,
9,15,1,0.6508791999949608,['c'],0,right,['u'],0,0.2670817999751307,0.1,1,0,FastAcc,6,18,Woman,Left,
10,15,1,0.8657472000049893,['n'],1,right,['u'],0,0.30488969999714755,0.4,0,0,FastAcc,6,18,Woman,Left,
11,15,1,0.7345301999885123,['c'],1,left,['u'],0,0.3292582999856677,0.2,0,0,FastAcc,6,18,Woman,Left,
12,15,1,0.6166508999885991,['n'],1,right,['u'],0,0.2300835000060033,0.4,0,0,FastAcc,6,18,Woman,Left,
13,15,1,0.6495838999981061,['n'],1,right,['u'],0,0.35806609998689964,0.4,0,0,FastAcc,6,18,Woman,Left,
14,15,1,0.6664058999740519,['n'],1,right,['u'],0,0.5917052000004333,0.1,0,0,FastAcc,6,18,Woman,Left,
15,15,1,0.6181003000237979,['c'],1,left,['u'],0,0.450481400010176,0.1,0,0,FastAcc,6,18,Woman,Left,
16,15,1,0.6009865999803878,['n'],1,right,['u'],0,25.19389140000567,0.2,0,0,FastAcc,6,18,Woman,Left,
17,15,1,0.9340202000166755,['n'],1,right,['u'],0,0.5723596999887377,0.4,0,0,FastAcc,6,18,Woman,Left,
18,15,1,0.8507000000099652,['n'],1,right,['u'],0,0.4871303999971133,0.2,0,0,FastAcc,6,18,Woman,Left,
19,15,1,0.7664946999866515,['n'],1,right,['u'],0,0.47225479999906383,0.2,0,0,FastAcc,6,18,Woman,Left,
20,15,1,0.7177979999978561,['n'],1,right,['u'],0,0.28194720001192763,0.4,0,0,FastAcc,6,18,Woman,Left,
21,15,1,0.4671161000151187,['n'],1,right,['u'],0,0.2872675000107847,0.1,0,0,FastAcc,6,18,Woman,Left,
22,15,1,0.3183629999984987,['n'],0,left,['u'],0,0.21687019997625612,0.2,1,0,FastAcc,6,18,Woman,Left,
23,15,1,0.5009760000102688,['n'],0,left,['u'],0,0.23858639999525622,0.2,1,0,FastAcc,6,18,Woman,Left,
24,15,1,0.25055229998542927,['n'],1,right,['u'],0,0.2857244999904651,0.2,0,0,FastAcc,6,18,Woman,Left,
25,15,1,0.3170426999859046,['n'],0,left,['u'],0,0.24874999999883585,0.1,1,0,FastAcc,6,18,Woman,Left,
26,15,1,0.28190279999398626,['n'],1,right,['u'],0,0.24654279998503625,0.1,0,0,FastAcc,6,18,Woman,Left,
27,15,1,0.3009539000049699,['n'],1,right,['u'],0,0.20952830000896938,0.2,0,0,FastAcc,6,18,Woman,Left,
28,15,1,0.2848171999794431,['n'],0,left,['u'],0,0.22470520000206307,0.4,1,0,FastAcc,6,18,Woman,Left,
29,15,1,0.5344714999955613,['c'],1,left,['u'],0,0.1494542000000365,0.1,0,0,FastAcc,6,18,Woman,Left,
30,15,1,0.36605389998294413,['c'],0,right,['u'],0,0.13173240001196973,0.1,1,0,FastAcc,6,18,Woman,Left,
31,15,1,0.5836854999943171,['c'],1,left,['u'],0,0.16876949998550117,0.1,0,0,FastAcc,6,18,Woman,Left,
32,15,1,0.7334441999846604,['c'],1,left,['u'],0,0.18383100000210106,0.1,0,0,FastAcc,6,18,Woman,Left,
33,15,1,0.43364080000901595,['c'],1,left,['u'],0,0.22490030000335537,0.2,0,0,FastAcc,6,18,Woman,Left,
34,15,1,0.4178103000158444,['c'],1,left,['u'],0,0.18626240000594407,0.1,0,0,FastAcc,6,18,Woman,Left,
35,15,1,0.4503143999900203,['c'],0,right,['u'],0,0.19515720001072623,0.4,1,0,FastAcc,6,18,Woman,Left,
36,15,1,0.33428720000665635,['c'],1,left,['u'],0,0.19368170000961982,0.1,0,0,FastAcc,6,18,Woman,Left,
37,15,1,0.3325087999983225,['c'],1,left,['u'],0,0.17421580001246184,0.2,0,0,FastAcc,6,18,Woman,Left,
38,15,1,0.49927369999932125,['c'],1,left,['u'],0,0.19865120001486503,0.2,0,0,FastAcc,6,18,Woman,Left,
39,15,1,0.6512566000164952,['c'],1,left,['u'],0,0.19827289998647757,0.2,0,0,FastAcc,6,18,Woman,Left,
40,15,1,0.7343077000114135,['n'],1,right,['u'],0,0.19541829999070615,0.4,0,0,FastAcc,6,18,Woman,Left,
41,15,1,0.71705400000792,['c'],1,left,['u'],0,0.16131649998715147,0.2,0,0,FastAcc,6,18,Woman,Left,
42,15,1,0.5523492000065744,['c'],0,right,['u'],0,0.1837048000015784,0.1,1,0,FastAcc,6,18,Woman,Left,
43,15,1,0.566446500015445,['c'],1,left,['u'],0,0.1887947999930475,0.4,0,0,FastAcc,6,18,Woman,Left,
44,15,1,0.7342367000237573,['n'],1,right,['u'],0,0.28199529999983497,0.4,0,0,FastAcc,6,18,Woman,Left,
45,15,1,0.7833527000038885,['n'],0,left,['u'],0,0.29018599999835715,0.1,1,0,FastAcc,6,18,Woman,Left,
46,15,1,0.7167065000103321,['n'],0,left,['u'],0,0.38152669998817146,0.1,1,0,FastAcc,6,18,Woman,Left,
47,15,1,0.8341123000136577,['n'],1,right,['u'],0,0.22351219999836758,0.2,0,0,FastAcc,6,18,Woman,Left,
48,15,1,0.7518327000143472,['n'],1,right,['u'],0,0.20221369998762384,0.1,0,0,FastAcc,6,18,Woman,Left,
49,15,1,0.5681226000015158,['n'],0,left,['u'],0,0.23784879999584518,0.2,1,0,FastAcc,6,18,Woman,Left,
50,15,1,0.6503284999926109,['n'],0,left,['u'],0,0.2533744999964256,0.1,1,0,FastAcc,6,18,Woman,Left,
51,15,1,0.6494640999881085,['n'],1,right,['u'],0,0.15569490002235398,0.2,0,0,FastAcc,6,18,Woman,Left,
52,15,1,0.7013700999959838,['n'],1,right,['u'],0,0.22015720000490546,0.1,0,0,FastAcc,6,18,Woman,Left,
53,15,1,0.566977999988012,['n'],1,right,['u'],0,0.35108709998894483,0.4,0,0,FastAcc,6,18,Woman,Left,
54,15,1,0.9002170999883674,['n'],1,right,['u'],0,0.3679796999786049,0.2,0,0,FastAcc,6,18,Woman,Left,
55,15,1,0.9003667999932077,['c'],1,left,['u'],0,0.28767510000034235,0.4,0,0,FastAcc,6,18,Woman,Left,
56,15,1,0.8673733999894466,['n'],0,left,['u'],0,0.34027850002166815,0.4,1,0,FastAcc,6,18,Woman,Left,
57,15,1,0.815623600006802,['n'],0,left,['u'],0,0.3141929999983404,0.4,1,0,FastAcc,6,18,Woman,Left,
58,15,1,0.5182671000075061,['n'],1,right,['u'],0,0.4263001999934204,0.4,0,0,FastAcc,6,18,Woman,Left,
59,15,1,0.6179196999873966,['n'],1,right,['u'],0,0.41915880001033656,0.2,0,0,FastAcc,6,18,Woman,Left,
