withinblocktrial,block,block_repetition,rt,resp,cor,cresp,conf_press,cj,rtconf,coherence,metacognition,slow_trial,manipulation,sub,age,gender,handedness,
0,1,1,1.1173780000003717,['n'],1,right,none,-99,-99,0.5,-99,0,none,4,18,Woman,Right,
1,1,1,0.8830058000003191,['n'],1,right,none,-99,-99,0.5,-99,0,none,4,18,Woman,Right,
2,1,1,2.0669222000001355,['n'],0,left,none,-99,-99,0.5,-99,0,none,4,18,Woman,Right,
3,1,1,0.966692299999977,['c'],0,right,none,-99,-99,0.5,-99,0,none,4,18,Woman,Right,
4,1,1,1.4821572000000742,['n'],0,left,none,-99,-99,0.5,-99,0,none,4,18,Woman,Right,
5,1,1,0.8015797999996721,['n'],1,right,none,-99,-99,0.5,-99,0,none,4,18,Woman,Right,
6,1,1,0.8167363000002297,['c'],0,right,none,-99,-99,0.5,-99,0,none,4,18,Woman,Right,
7,1,1,1.4171368000002076,['c'],1,left,none,-99,-99,0.5,-99,0,none,4,18,Woman,Right,
8,1,1,0.7171963999999207,['c'],1,left,none,-99,-99,0.5,-99,0,none,4,18,Woman,Right,
9,1,1,0.90262279999979,['n'],1,right,none,-99,-99,0.5,-99,0,none,4,18,Woman,Right,
10,1,1,0.9676759999997557,['c'],1,left,none,-99,-99,0.5,-99,0,none,4,18,Woman,Right,
11,1,1,0.9011921999999686,['n'],0,left,none,-99,-99,0.5,-99,0,none,4,18,Woman,Right,
12,1,1,0.832984099999976,['n'],1,right,none,-99,-99,0.5,-99,0,none,4,18,Woman,Right,
13,1,1,0.8831528000000617,['n'],1,right,none,-99,-99,0.5,-99,0,none,4,18,Woman,Right,
14,1,1,0.9502281999998559,['c'],0,right,none,-99,-99,0.5,-99,0,none,4,18,Woman,Right,
15,1,1,0.6843113999998423,['c'],1,left,none,-99,-99,0.5,-99,0,none,4,18,Woman,Right,
16,1,1,0.9997930999998061,['c'],1,left,none,-99,-99,0.5,-99,0,none,4,18,Woman,Right,
17,1,1,0.6339686000001166,['n'],1,right,none,-99,-99,0.5,-99,0,none,4,18,Woman,Right,
18,1,1,0.7672623999997086,['c'],1,left,none,-99,-99,0.5,-99,0,none,4,18,Woman,Right,
19,1,1,0.7023628000001736,['c'],0,right,none,-99,-99,0.5,-99,0,none,4,18,Woman,Right,
20,1,1,0.8841168999997535,['n'],1,right,none,-99,-99,0.5,-99,0,none,4,18,Woman,Right,
21,1,1,1.1348181999996996,['n'],0,left,none,-99,-99,0.5,-99,0,none,4,18,Woman,Right,
22,1,1,0.5654978999996274,['c'],1,left,none,-99,-99,0.5,-99,0,none,4,18,Woman,Right,
23,1,1,0.6824784000000363,['c'],1,left,none,-99,-99,0.5,-99,0,none,4,18,Woman,Right,
0,1,2,1.0351243999998587,['c'],1,left,none,-99,-99,0.5,-99,0,none,4,18,Woman,Right,
1,1,2,0.9681691999999202,['c'],1,left,none,-99,-99,0.5,-99,0,none,4,18,Woman,Right,
2,1,2,0.8999837000001207,['n'],1,right,none,-99,-99,0.5,-99,0,none,4,18,Woman,Right,
3,1,2,0.7501589999997123,['c'],1,left,none,-99,-99,0.5,-99,0,none,4,18,Woman,Right,
4,1,2,0.5841068999998242,['n'],1,right,none,-99,-99,0.5,-99,0,none,4,18,Woman,Right,
5,1,2,0.8330617000001439,['c'],0,right,none,-99,-99,0.5,-99,0,none,4,18,Woman,Right,
6,1,2,0.5664514000000054,['c'],1,left,none,-99,-99,0.5,-99,0,none,4,18,Woman,Right,
7,1,2,0.901224799999909,['n'],0,left,none,-99,-99,0.5,-99,0,none,4,18,Woman,Right,
8,1,2,0.4343658000002506,['c'],1,left,none,-99,-99,0.5,-99,0,none,4,18,Woman,Right,
9,1,2,0.7670469999998204,['n'],1,right,none,-99,-99,0.5,-99,0,none,4,18,Woman,Right,
10,1,2,0.5832557000003362,['n'],1,right,none,-99,-99,0.5,-99,0,none,4,18,Woman,Right,
11,1,2,0.817310599999928,['n'],1,right,none,-99,-99,0.5,-99,0,none,4,18,Woman,Right,
12,1,2,0.4163501999996697,['c'],1,left,none,-99,-99,0.5,-99,0,none,4,18,Woman,Right,
13,1,2,0.6001175999999759,['c'],1,left,none,-99,-99,0.5,-99,0,none,4,18,Woman,Right,
14,1,2,0.5664157999999588,['n'],1,right,none,-99,-99,0.5,-99,0,none,4,18,Woman,Right,
15,1,2,1.3504950000001372,['n'],1,right,none,-99,-99,0.5,-99,0,none,4,18,Woman,Right,
16,1,2,0.5340160999999171,['c'],1,left,none,-99,-99,0.5,-99,0,none,4,18,Woman,Right,
17,1,2,0.4995577999998204,['c'],1,left,none,-99,-99,0.5,-99,0,none,4,18,Woman,Right,
18,1,2,0.9154697999997552,['n'],0,left,none,-99,-99,0.5,-99,0,none,4,18,Woman,Right,
19,1,2,0.6674659000000247,['n'],1,right,none,-99,-99,0.5,-99,0,none,4,18,Woman,Right,
20,1,2,0.532141899999715,['n'],1,right,none,-99,-99,0.5,-99,0,none,4,18,Woman,Right,
21,1,2,0.8983057000000372,['c'],1,left,none,-99,-99,0.5,-99,0,none,4,18,Woman,Right,
22,1,2,0.5336643000000549,['c'],0,right,none,-99,-99,0.5,-99,0,none,4,18,Woman,Right,
23,1,2,0.5669937000002392,['c'],0,right,none,-99,-99,0.5,-99,0,none,4,18,Woman,Right,
0,1,3,1.5179192000000512,['n'],0,left,none,-99,-99,0.5,-99,0,none,4,18,Woman,Right,
1,1,3,0.6179117000001497,['n'],1,right,none,-99,-99,0.5,-99,0,none,4,18,Woman,Right,
2,1,3,1.400705300000027,['c'],0,right,none,-99,-99,0.5,-99,0,none,4,18,Woman,Right,
3,1,3,0.6499244999999974,['n'],1,right,none,-99,-99,0.5,-99,0,none,4,18,Woman,Right,
4,1,3,0.6670085999999174,['c'],0,right,none,-99,-99,0.5,-99,0,none,4,18,Woman,Right,
5,1,3,0.7341080999999576,['n'],1,right,none,-99,-99,0.5,-99,0,none,4,18,Woman,Right,
6,1,3,0.6820569999999861,['n'],1,right,none,-99,-99,0.5,-99,0,none,4,18,Woman,Right,
7,1,3,0.850241399999959,['n'],0,left,none,-99,-99,0.5,-99,0,none,4,18,Woman,Right,
8,1,3,0.7663341999996192,['n'],1,right,none,-99,-99,0.5,-99,0,none,4,18,Woman,Right,
9,1,3,0.6334673999999723,['c'],1,left,none,-99,-99,0.5,-99,0,none,4,18,Woman,Right,
10,1,3,0.583328100000017,['c'],1,left,none,-99,-99,0.5,-99,0,none,4,18,Woman,Right,
11,1,3,0.6181354000000283,['c'],0,right,none,-99,-99,0.5,-99,0,none,4,18,Woman,Right,
12,1,3,0.6005089000000225,['c'],1,left,none,-99,-99,0.5,-99,0,none,4,18,Woman,Right,
13,1,3,0.7336299000003237,['c'],1,left,none,-99,-99,0.5,-99,0,none,4,18,Woman,Right,
14,1,3,0.6666659000002255,['n'],1,right,none,-99,-99,0.5,-99,0,none,4,18,Woman,Right,
15,1,3,0.9997512999998435,['c'],1,left,none,-99,-99,0.5,-99,0,none,4,18,Woman,Right,
16,1,3,0.733266299999741,['n'],0,left,none,-99,-99,0.5,-99,0,none,4,18,Woman,Right,
17,1,3,0.5172073000003365,['n'],1,right,none,-99,-99,0.5,-99,0,none,4,18,Woman,Right,
18,1,3,0.650886200000059,['n'],1,right,none,-99,-99,0.5,-99,0,none,4,18,Woman,Right,
19,1,3,0.6982810000004065,['n'],0,left,none,-99,-99,0.5,-99,0,none,4,18,Woman,Right,
20,1,3,0.8501863999999841,['n'],1,right,none,-99,-99,0.5,-99,0,none,4,18,Woman,Right,
21,1,3,1.350138700000116,['n'],0,left,none,-99,-99,0.5,-99,0,none,4,18,Woman,Right,
22,1,3,0.6995233999996344,['c'],1,left,none,-99,-99,0.5,-99,0,none,4,18,Woman,Right,
23,1,3,0.649249300000065,['c'],1,left,none,-99,-99,0.5,-99,0,none,4,18,Woman,Right,
0,1,4,0.6168168999997761,['n'],1,right,none,-99,-99,0.5,-99,0,none,4,18,Woman,Right,
1,1,4,0.5511774000005971,['n'],1,right,none,-99,-99,0.5,-99,0,none,4,18,Woman,Right,
2,1,4,0.5178787000004377,['n'],0,left,none,-99,-99,0.5,-99,0,none,4,18,Woman,Right,
3,1,4,0.7325552000002062,['c'],1,left,none,-99,-99,0.5,-99,0,none,4,18,Woman,Right,
4,1,4,0.6661452999996982,['c'],1,left,none,-99,-99,0.5,-99,0,none,4,18,Woman,Right,
5,1,4,1.0335841999994955,['c'],0,right,none,-99,-99,0.5,-99,0,none,4,18,Woman,Right,
6,1,4,0.733632899999975,['c'],1,left,none,-99,-99,0.5,-99,0,none,4,18,Woman,Right,
7,1,4,0.9670249000000695,['n'],0,left,none,-99,-99,0.5,-99,0,none,4,18,Woman,Right,
8,1,4,0.6491304999999556,['n'],1,right,none,-99,-99,0.5,-99,0,none,4,18,Woman,Right,
9,1,4,0.8330848999994487,['n'],0,left,none,-99,-99,0.5,-99,0,none,4,18,Woman,Right,
10,1,4,0.6667054999998072,['n'],0,left,none,-99,-99,0.5,-99,0,none,4,18,Woman,Right,
11,1,4,0.6331163999993805,['n'],1,right,none,-99,-99,0.5,-99,0,none,4,18,Woman,Right,
12,1,4,0.8349613999998837,['n'],1,right,none,-99,-99,0.5,-99,0,none,4,18,Woman,Right,
13,1,4,0.8996796999999788,['n'],1,right,none,-99,-99,0.5,-99,0,none,4,18,Woman,Right,
14,1,4,0.6841225999996823,['c'],1,left,none,-99,-99,0.5,-99,0,none,4,18,Woman,Right,
15,1,4,0.7497346000000107,['c'],1,left,none,-99,-99,0.5,-99,0,none,4,18,Woman,Right,
16,1,4,0.7005841000000146,['n'],1,right,none,-99,-99,0.5,-99,0,none,4,18,Woman,Right,
17,1,4,1.2505380000002333,['c'],1,left,none,-99,-99,0.5,-99,0,none,4,18,Woman,Right,
18,1,4,0.8339061999995465,['n'],1,right,none,-99,-99,0.5,-99,0,none,4,18,Woman,Right,
19,1,4,0.7324140000000625,['n'],1,right,none,-99,-99,0.5,-99,0,none,4,18,Woman,Right,
20,1,4,0.9159166999997979,['n'],1,right,none,-99,-99,0.5,-99,0,none,4,18,Woman,Right,
21,1,4,0.7826657000005071,['c'],1,left,none,-99,-99,0.5,-99,0,none,4,18,Woman,Right,
22,1,4,0.7021581999997579,['c'],0,right,none,-99,-99,0.5,-99,0,none,4,18,Woman,Right,
23,1,4,0.5827636000003622,['c'],1,left,none,-99,-99,0.5,-99,0,none,4,18,Woman,Right,
0,1,5,0.7501582000004419,['n'],1,right,none,-99,-99,0.5,-99,0,none,4,18,Woman,Right,
1,1,5,0.5837681000002704,['n'],1,right,none,-99,-99,0.5,-99,0,none,4,18,Woman,Right,
2,1,5,0.4833144000003813,['n'],0,left,none,-99,-99,0.5,-99,0,none,4,18,Woman,Right,
3,1,5,0.9172257000000172,['n'],0,left,none,-99,-99,0.5,-99,0,none,4,18,Woman,Right,
4,1,5,0.6327602000001207,['n'],1,right,none,-99,-99,0.5,-99,0,none,4,18,Woman,Right,
5,1,5,1.0004429000000528,['c'],1,left,none,-99,-99,0.5,-99,0,none,4,18,Woman,Right,
6,1,5,0.5663746000000174,['c'],0,right,none,-99,-99,0.5,-99,0,none,4,18,Woman,Right,
7,1,5,0.8506722000001901,['n'],1,right,none,-99,-99,0.5,-99,0,none,4,18,Woman,Right,
8,1,5,0.7012398999995639,['c'],1,left,none,-99,-99,0.5,-99,0,none,4,18,Woman,Right,
9,1,5,0.9006043999997928,['n'],1,right,none,-99,-99,0.5,-99,0,none,4,18,Woman,Right,
10,1,5,0.7659133000006477,['c'],0,right,none,-99,-99,0.5,-99,0,none,4,18,Woman,Right,
11,1,5,0.6171659999999974,['c'],1,left,none,-99,-99,0.5,-99,0,none,4,18,Woman,Right,
12,1,5,0.9512721000000965,['c'],1,left,none,-99,-99,0.5,-99,0,none,4,18,Woman,Right,
13,1,5,1.4844272999998793,['n'],1,right,none,-99,-99,0.5,-99,0,none,4,18,Woman,Right,
14,1,5,0.9336151999996218,['c'],1,left,none,-99,-99,0.5,-99,0,none,4,18,Woman,Right,
15,1,5,1.2339928999999756,['n'],0,left,none,-99,-99,0.5,-99,0,none,4,18,Woman,Right,
16,1,5,1.584120399999847,['c'],1,left,none,-99,-99,0.5,-99,0,none,4,18,Woman,Right,
17,1,5,0.9528780999999071,['c'],0,right,none,-99,-99,0.5,-99,0,none,4,18,Woman,Right,
18,1,5,0.6326922999996896,['c'],1,left,none,-99,-99,0.5,-99,0,none,4,18,Woman,Right,
19,1,5,0.5337353999993866,['n'],1,right,none,-99,-99,0.5,-99,0,none,4,18,Woman,Right,
20,1,5,0.7005049999997937,['n'],1,right,none,-99,-99,0.5,-99,0,none,4,18,Woman,Right,
21,1,5,0.5667686000006142,['n'],1,right,none,-99,-99,0.5,-99,0,none,4,18,Woman,Right,
22,1,5,0.6676779999997962,['c'],1,left,none,-99,-99,0.5,-99,0,none,4,18,Woman,Right,
23,1,5,0.45152449999932287,['c'],1,left,none,-99,-99,0.5,-99,0,none,4,18,Woman,Right,
0,1,6,0.8501067000006515,['n'],1,right,none,-99,-99,0.5,-99,0,none,4,18,Woman,Right,
1,1,6,0.9669794999999795,['c'],1,left,none,-99,-99,0.5,-99,0,none,4,18,Woman,Right,
2,1,6,0.7824475999996139,['n'],1,right,none,-99,-99,0.5,-99,0,none,4,18,Woman,Right,
3,1,6,0.9845693999996001,['n'],1,right,none,-99,-99,0.5,-99,0,none,4,18,Woman,Right,
4,1,6,0.9178015000006781,['c'],1,left,none,-99,-99,0.5,-99,0,none,4,18,Woman,Right,
5,1,6,1.2018024999997579,['c'],1,left,none,-99,-99,0.5,-99,0,none,4,18,Woman,Right,
6,1,6,0.6341589000003296,['c'],1,left,none,-99,-99,0.5,-99,0,none,4,18,Woman,Right,
7,1,6,0.5998884000000544,['c'],1,left,none,-99,-99,0.5,-99,0,none,4,18,Woman,Right,
8,1,6,0.7169396999997844,['n'],1,right,none,-99,-99,0.5,-99,0,none,4,18,Woman,Right,
9,1,6,0.6494233000003078,['n'],1,right,none,-99,-99,0.5,-99,0,none,4,18,Woman,Right,
10,1,6,0.6497529999996914,['n'],1,right,none,-99,-99,0.5,-99,0,none,4,18,Woman,Right,
11,1,6,0.5672126999998,['c'],1,left,none,-99,-99,0.5,-99,0,none,4,18,Woman,Right,
12,1,6,0.5837326999999277,['c'],1,left,none,-99,-99,0.5,-99,0,none,4,18,Woman,Right,
13,1,6,0.8512276999999813,['n'],1,right,none,-99,-99,0.5,-99,0,none,4,18,Woman,Right,
14,1,6,1.9502401999998256,['n'],1,right,none,-99,-99,0.5,-99,0,none,4,18,Woman,Right,
15,1,6,0.6186008000004222,['c'],0,right,none,-99,-99,0.5,-99,0,none,4,18,Woman,Right,
16,1,6,0.8177036999995835,['n'],1,right,none,-99,-99,0.5,-99,0,none,4,18,Woman,Right,
17,1,6,0.7336246000004394,['n'],0,left,none,-99,-99,0.5,-99,0,none,4,18,Woman,Right,
18,1,6,0.6160676999998032,['n'],0,left,none,-99,-99,0.5,-99,0,none,4,18,Woman,Right,
19,1,6,0.4658472000000984,['n'],1,right,none,-99,-99,0.5,-99,0,none,4,18,Woman,Right,
20,1,6,0.650553200000104,['c'],1,left,none,-99,-99,0.5,-99,0,none,4,18,Woman,Right,
21,1,6,0.48450010000033217,['n'],1,right,none,-99,-99,0.5,-99,0,none,4,18,Woman,Right,
22,1,6,1.2828841999998986,['c'],1,left,none,-99,-99,0.5,-99,0,none,4,18,Woman,Right,
23,1,6,1.0171245999999883,['c'],1,left,none,-99,-99,0.5,-99,0,none,4,18,Woman,Right,
0,2,1,0.785720200000469,['c'],1,left,none,-99,-99,0.2,-99,0,none,4,18,Woman,Right,
1,2,1,0.6846175999999105,['c'],0,right,none,-99,-99,0.4,-99,0,none,4,18,Woman,Right,
2,2,1,0.9509508000001006,['n'],0,left,none,-99,-99,0.1,-99,0,none,4,18,Woman,Right,
3,2,1,0.6993986999996196,['n'],0,left,none,-99,-99,0.4,-99,0,none,4,18,Woman,Right,
4,2,1,1.4168923000006544,['c'],0,right,none,-99,-99,0.1,-99,0,none,4,18,Woman,Right,
5,2,1,0.5689422999994349,['c'],0,right,none,-99,-99,0.1,-99,0,none,4,18,Woman,Right,
6,2,1,0.39943270000003395,['c'],1,left,none,-99,-99,0.1,-99,0,none,4,18,Woman,Right,
7,2,1,0.8678478000001633,['n'],1,right,none,-99,-99,0.1,-99,0,none,4,18,Woman,Right,
8,2,1,0.6324524000001475,['n'],1,right,none,-99,-99,0.2,-99,0,none,4,18,Woman,Right,
9,2,1,0.9164018000001306,['c'],0,right,none,-99,-99,0.4,-99,0,none,4,18,Woman,Right,
10,2,1,1.3505889999996725,['n'],0,left,none,-99,-99,0.2,-99,0,none,4,18,Woman,Right,
11,2,1,0.5002300999994986,['c'],1,left,none,-99,-99,0.4,-99,0,none,4,18,Woman,Right,
12,2,1,0.5349667000000409,['c'],1,left,none,-99,-99,0.2,-99,0,none,4,18,Woman,Right,
13,2,1,0.7177313000001959,['n'],1,right,none,-99,-99,0.1,-99,0,none,4,18,Woman,Right,
14,2,1,0.5506672999999864,['c'],1,left,none,-99,-99,0.1,-99,0,none,4,18,Woman,Right,
15,2,1,0.901713799999925,['c'],1,left,none,-99,-99,0.4,-99,0,none,4,18,Woman,Right,
16,2,1,0.7516761999995651,['c'],1,left,none,-99,-99,0.2,-99,0,none,4,18,Woman,Right,
17,2,1,0.7338545999991766,['c'],1,left,none,-99,-99,0.4,-99,0,none,4,18,Woman,Right,
18,2,1,0.6672134000000369,['n'],1,right,none,-99,-99,0.2,-99,0,none,4,18,Woman,Right,
19,2,1,0.6830798999999388,['n'],1,right,none,-99,-99,0.2,-99,0,none,4,18,Woman,Right,
20,2,1,0.6317615999996633,['n'],1,right,none,-99,-99,0.4,-99,0,none,4,18,Woman,Right,
21,2,1,1.1167881000001216,['n'],1,right,none,-99,-99,0.1,-99,0,none,4,18,Woman,Right,
22,2,1,0.9012911999998323,['n'],1,right,none,-99,-99,0.4,-99,0,none,4,18,Woman,Right,
23,2,1,1.0009566999997332,['c'],1,left,none,-99,-99,0.2,-99,0,none,4,18,Woman,Right,
0,3,1,1.2507554000003438,['n'],0,left,['e'],1,0.8759036999999807,0.4,0,0,none,4,18,Woman,Right,
1,3,1,0.8999457999998413,['c'],1,left,['e'],1,0.5401006000001871,0.1,1,0,none,4,18,Woman,Right,
2,3,1,0.8001991000000999,['n'],1,right,['e'],1,0.4606110999993689,0.2,1,0,none,4,18,Woman,Right,
3,3,1,2.150542399999722,['c'],0,right,['u'],0,0.5557372000002943,0.4,1,0,none,4,18,Woman,Right,
4,3,1,1.0163115000004836,['n'],1,right,['e'],1,0.45178260000011505,0.2,1,0,none,4,18,Woman,Right,
5,3,1,2.5343890999993164,['n'],0,left,['u'],0,0.5458764999993946,0.4,1,0,none,4,18,Woman,Right,
6,3,1,1.683222399999977,['n'],1,right,['u'],0,0.7032101000004332,0.2,0,0,none,4,18,Woman,Right,
7,3,1,1.617917700000362,['c'],1,left,['u'],0,0.7446767999999793,0.2,0,0,none,4,18,Woman,Right,
8,3,1,1.4681664999998247,['n'],1,right,['e'],1,0.5509444999997868,0.4,1,0,none,4,18,Woman,Right,
9,3,1,0.8671064999998634,['n'],0,left,['e'],1,0.4685693999999785,0.1,0,0,none,4,18,Woman,Right,
10,3,1,0.6170639000001756,['c'],1,left,['e'],1,0.4320557999999437,0.2,1,0,none,4,18,Woman,Right,
11,3,1,0.9016847000002599,['c'],1,left,['e'],1,0.4643490999997084,0.4,1,0,none,4,18,Woman,Right,
12,3,1,2.3677124999994703,['c'],0,right,['u'],0,0.5656218000003719,0.2,1,0,none,4,18,Woman,Right,
13,3,1,1.3677886000004946,['n'],1,right,['u'],0,0.9267025999997713,0.4,0,0,none,4,18,Woman,Right,
14,3,1,3.234622500000114,['n'],1,right,['u'],0,0.8478243999998085,0.1,0,0,none,4,18,Woman,Right,
15,3,1,3.0498161000004984,['c'],0,right,['u'],0,0.8262389000001349,0.1,1,0,none,4,18,Woman,Right,
16,3,1,1.3013777999995,['n'],1,right,['e'],1,1.3877125999997588,0.4,1,0,none,4,18,Woman,Right,
17,3,1,1.900340199999846,['n'],0,left,['u'],0,0.4951922000000195,0.1,1,0,none,4,18,Woman,Right,
18,3,1,1.7849475000002712,['c'],0,right,['u'],0,0.6824074999994991,0.1,1,0,none,4,18,Woman,Right,
19,3,1,5.000045800000407,x,-99,left,none,-99,-99,0.2,-99,1,none,4,18,Woman,Right,
20,3,1,1.0673622999993313,['n'],0,left,['u'],0,0.6016599000004135,0.2,1,0,none,4,18,Woman,Right,
21,3,1,1.0346661000003223,['n'],1,right,['u'],0,0.7027795999993032,0.1,0,0,none,4,18,Woman,Right,
22,3,1,1.3325739000001704,['c'],1,left,['u'],0,0.5330324999995355,0.1,0,0,none,4,18,Woman,Right,
23,3,1,0.8169579000004887,['c'],1,left,['u'],0,0.291866100000334,0.4,0,0,none,4,18,Woman,Right,
0,4,1,1.1008326999999554,['n'],0,left,['u'],0,0.9713810999992347,0.1,1,0,FastFast,4,18,Woman,Right,
1,4,1,0.9832260000002861,['c'],1,left,['u'],0,0.3828819999998814,0.4,0,0,FastFast,4,18,Woman,Right,
2,4,1,1.1012439000005543,['n'],0,left,['u'],0,0.2627074000001812,0.1,1,0,FastFast,4,18,Woman,Right,
3,4,1,1.033920699999726,['n'],1,right,['e'],1,0.2762146000004577,0.4,1,0,FastFast,4,18,Woman,Right,
4,4,1,1.951389100000597,['c'],1,left,['e'],1,0.3348660999999993,0.1,1,0,FastFast,4,18,Woman,Right,
5,4,1,0.8840163000004395,['n'],1,right,['e'],1,0.23970420000023296,0.4,1,0,FastFast,4,18,Woman,Right,
6,4,1,1.168430000000626,['n'],1,right,['u'],0,0.2502273000000059,0.2,0,0,FastFast,4,18,Woman,Right,
7,4,1,1.1332117000001745,['c'],0,right,['u'],0,0.3416025999995327,0.1,1,0,FastFast,4,18,Woman,Right,
8,4,1,0.917746399999487,['n'],0,left,['u'],0,0.21351610000056098,0.1,1,0,FastFast,4,18,Woman,Right,
9,4,1,0.8175444999997126,['n'],1,right,['u'],0,0.19046529999923223,0.4,0,0,FastFast,4,18,Woman,Right,
10,4,1,1.7002347999996346,['n'],1,right,['u'],0,0.16693519999989803,0.4,0,0,FastFast,4,18,Woman,Right,
11,4,1,1.5181588000004922,['c'],0,right,['e'],1,0.2605741000006674,0.4,0,0,FastFast,4,18,Woman,Right,
12,4,1,1.2678329000000303,['c'],1,left,['u'],0,0.18622050000067247,0.2,0,0,FastFast,4,18,Woman,Right,
13,4,1,1.5842543000007936,['n'],1,right,['u'],0,0.19798210000044492,0.2,0,0,FastFast,4,18,Woman,Right,
14,4,1,2.032571900000221,['n'],1,right,['u'],0,0.14331250000032014,0.2,0,0,FastFast,4,18,Woman,Right,
15,4,1,0.7841403000002174,['n'],1,right,['u'],0,0.15669630000047619,0.1,0,0,FastFast,4,18,Woman,Right,
16,4,1,1.2323886000003768,['c'],1,left,['e'],1,0.23306629999933648,0.2,1,0,FastFast,4,18,Woman,Right,
17,4,1,0.9692132000000129,['c'],0,right,['u'],0,0.1542472999999518,0.2,1,0,FastFast,4,18,Woman,Right,
18,4,1,0.8513006000002861,['c'],0,right,['u'],0,0.16434560000016063,0.2,1,0,FastFast,4,18,Woman,Right,
19,4,1,0.7678837999992538,['n'],1,right,['u'],0,0.11354109999956563,0.1,0,0,FastFast,4,18,Woman,Right,
20,4,1,0.6013427999996566,['n'],1,right,['u'],0,0.16806929999984277,0.1,0,0,FastFast,4,18,Woman,Right,
21,4,1,1.4345039999998335,['c'],1,left,['e'],1,0.1691625000003114,0.1,1,0,FastFast,4,18,Woman,Right,
22,4,1,0.8678993000003175,['c'],1,left,['u'],0,0.14623350000056234,0.1,0,0,FastFast,4,18,Woman,Right,
23,4,1,1.2500938999992286,['c'],0,right,['u'],0,0.17308810000031372,0.1,1,0,FastFast,4,18,Woman,Right,
24,4,1,1.2177403000005143,['c'],1,left,['u'],0,0.1676497999997082,0.4,0,0,FastFast,4,18,Woman,Right,
25,4,1,0.7995287000003373,['n'],1,right,['u'],0,0.14810440000019298,0.4,0,0,FastFast,4,18,Woman,Right,
26,4,1,1.0832784999993237,['n'],0,left,['e'],1,0.180275900000197,0.4,0,0,FastFast,4,18,Woman,Right,
27,4,1,0.9005815999998958,['n'],0,left,['u'],0,0.21931099999983417,0.4,1,0,FastFast,4,18,Woman,Right,
28,4,1,1.501475300000493,['n'],1,right,['u'],0,0.24894599999970524,0.1,0,0,FastFast,4,18,Woman,Right,
29,4,1,0.8834970000007161,['c'],1,left,['u'],0,0.1746244999994815,0.1,0,0,FastFast,4,18,Woman,Right,
30,4,1,1.151196699999673,['n'],1,right,['u'],0,0.21976039999935892,0.1,0,0,FastFast,4,18,Woman,Right,
31,4,1,0.999661500000002,['c'],1,left,['e'],1,0.41446150000047055,0.4,1,0,FastFast,4,18,Woman,Right,
32,4,1,0.7840188999998645,['c'],1,left,['u'],0,0.1916378000005352,0.2,0,0,FastFast,4,18,Woman,Right,
33,4,1,1.200841699999728,['c'],1,left,['u'],0,0.1546981000001324,0.1,0,0,FastFast,4,18,Woman,Right,
34,4,1,1.1339790000001813,['n'],0,left,['u'],0,0.1863709999997809,0.2,1,0,FastFast,4,18,Woman,Right,
35,4,1,1.0344733000001725,['c'],1,left,['u'],0,0.171317999999701,0.2,0,0,FastFast,4,18,Woman,Right,
36,4,1,1.4510221000000456,['n'],1,right,['u'],0,0.17324769999959244,0.4,0,0,FastFast,4,18,Woman,Right,
37,4,1,1.2679014000004827,['c'],0,right,['u'],0,0.16582560000006197,0.1,1,0,FastFast,4,18,Woman,Right,
38,4,1,1.351209000000381,['n'],1,right,['u'],0,0.1725075000003926,0.2,0,0,FastFast,4,18,Woman,Right,
39,4,1,1.7344621000002007,['n'],0,left,['u'],0,0.0660360000001674,0.2,1,0,FastFast,4,18,Woman,Right,
40,4,1,0.8673516999997446,['c'],0,right,['u'],0,0.127340600000025,0.1,1,0,FastFast,4,18,Woman,Right,
41,4,1,2.017729899999722,['c'],1,left,['e'],1,0.30007079999995767,0.1,1,0,FastFast,4,18,Woman,Right,
42,4,1,1.7005724000000555,['n'],1,right,['e'],1,0.22261789999993198,0.2,1,0,FastFast,4,18,Woman,Right,
43,4,1,0.8342466999993121,['n'],1,right,['u'],0,0.15115400000013324,0.4,0,0,FastFast,4,18,Woman,Right,
44,4,1,1.4828288000007888,['c'],0,right,['u'],0,0.15312079999966954,0.2,1,0,FastFast,4,18,Woman,Right,
45,4,1,1.5170351000006121,['n'],1,right,['u'],0,0.135659300000043,0.2,0,0,FastFast,4,18,Woman,Right,
46,4,1,1.0508167999996658,['n'],0,left,['u'],0,0.17068430000017543,0.4,1,0,FastFast,4,18,Woman,Right,
47,4,1,0.9341746000000057,['n'],0,left,['u'],0,0.16093129999990197,0.2,1,0,FastFast,4,18,Woman,Right,
48,4,1,1.8673170000001846,['n'],0,left,['u'],0,0.1628195000002961,0.2,1,0,FastFast,4,18,Woman,Right,
49,4,1,0.8344864000000598,['c'],1,left,['u'],0,0.1252545999996073,0.1,0,0,FastFast,4,18,Woman,Right,
50,4,1,0.8346335999995063,['n'],0,left,['u'],0,0.08923349999986385,0.2,1,0,FastFast,4,18,Woman,Right,
51,4,1,0.5495928000000276,['c'],0,right,['u'],0,0.114252000000306,0.4,1,0,FastFast,4,18,Woman,Right,
52,4,1,0.5343250000005355,['c'],0,right,['u'],0,0.12279949999992823,0.4,1,0,FastFast,4,18,Woman,Right,
53,4,1,0.9002290999997058,['c'],1,left,['u'],0,0.11604699999952572,0.2,0,0,FastFast,4,18,Woman,Right,
54,4,1,1.0005508000003829,['c'],1,left,['u'],0,0.05859850000069855,0.4,0,0,FastFast,4,18,Woman,Right,
55,4,1,1.4659295999999813,['n'],1,right,['u'],0,0.1279835000004823,0.1,0,0,FastFast,4,18,Woman,Right,
56,4,1,1.0001415999995515,['c'],1,left,['u'],0,0.10190419999980804,0.4,0,0,FastFast,4,18,Woman,Right,
57,4,1,1.434482300000127,['n'],1,right,['u'],0,0.13815599999998085,0.4,0,0,FastFast,4,18,Woman,Right,
58,4,1,0.6669025000001056,['c'],1,left,['e'],1,0.22115560000020196,0.2,1,0,FastFast,4,18,Woman,Right,
59,4,1,0.9012902999993457,['c'],1,left,['e'],1,0.19390949999979057,0.4,1,0,FastFast,4,18,Woman,Right,
0,5,1,2.7664660000000367,['c'],1,left,['u'],0,0.17064579999987473,0.4,0,0,AccFast,4,18,Woman,Right,
1,5,1,1.7661066000000574,['n'],1,right,['u'],0,0.5438285000000178,0.1,0,0,AccFast,4,18,Woman,Right,
2,5,1,1.6166510000002745,['c'],0,right,['u'],0,0.1556241999996928,0.1,1,0,AccFast,4,18,Woman,Right,
3,5,1,1.9345033999998122,['n'],1,right,['u'],0,0.18684359999951994,0.2,0,0,AccFast,4,18,Woman,Right,
4,5,1,3.0667010000006485,['c'],1,left,['e'],1,0.21926609999991342,0.2,1,0,AccFast,4,18,Woman,Right,
5,5,1,2.8330011999996714,['c'],1,left,['u'],0,0.16438299999936135,0.2,0,0,AccFast,4,18,Woman,Right,
6,5,1,1.8344842999995308,['n'],1,right,['e'],1,0.21441200000026583,0.2,1,0,AccFast,4,18,Woman,Right,
7,5,1,1.3844482000004064,['c'],1,left,['e'],1,0.2655761000005441,0.1,1,0,AccFast,4,18,Woman,Right,
8,5,1,1.3168985000002067,['c'],1,left,['e'],1,0.23572330000024522,0.2,1,0,AccFast,4,18,Woman,Right,
9,5,1,2.4327683999999863,['n'],1,right,['u'],0,0.35693019999962416,0.1,0,0,AccFast,4,18,Woman,Right,
10,5,1,1.651491999999962,['n'],0,left,['u'],0,0.13434409999990748,0.4,1,0,AccFast,4,18,Woman,Right,
11,5,1,1.4846642000002248,['n'],0,left,['u'],0,0.19960850000006758,0.2,1,0,AccFast,4,18,Woman,Right,
12,5,1,1.3677465999999185,['c'],1,left,['e'],1,0.17131419999986974,0.2,1,0,AccFast,4,18,Woman,Right,
13,5,1,1.8997595999999248,['n'],0,left,['u'],0,0.10803759999998874,0.4,1,0,AccFast,4,18,Woman,Right,
14,5,1,1.7178696000000855,['c'],0,right,['u'],0,0.0687473999996655,0.2,1,0,AccFast,4,18,Woman,Right,
15,5,1,1.6505781999994724,['n'],0,left,['u'],0,0.08294690000002447,0.4,1,0,AccFast,4,18,Woman,Right,
16,5,1,2.617415799999435,['n'],0,left,['u'],0,0.16894589999992604,0.1,1,0,AccFast,4,18,Woman,Right,
17,5,1,1.4165066000005027,['n'],1,right,['e'],1,0.2206441000007544,0.4,1,0,AccFast,4,18,Woman,Right,
18,5,1,2.4350247000002128,['n'],1,right,['e'],1,0.1646033000006355,0.4,1,0,AccFast,4,18,Woman,Right,
19,5,1,2.067170599999372,['c'],1,left,['u'],0,0.18963159999930213,0.2,0,0,AccFast,4,18,Woman,Right,
20,5,1,1.4833159999998315,['n'],1,right,['u'],0,0.20593040000039764,0.2,0,0,AccFast,4,18,Woman,Right,
21,5,1,2.900596399999813,['c'],1,left,['u'],0,0.21187209999970946,0.1,0,0,AccFast,4,18,Woman,Right,
22,5,1,2.384495600000264,['n'],1,right,['e'],1,0.2554323000003933,0.2,1,0,AccFast,4,18,Woman,Right,
23,5,1,1.7331166000003577,['n'],1,right,['e'],1,0.6102269000002707,0.2,1,0,AccFast,4,18,Woman,Right,
24,5,1,3.083401099999719,['c'],1,left,['u'],0,0.2251338999994914,0.1,0,0,AccFast,4,18,Woman,Right,
25,5,1,2.3842925999997533,['c'],1,left,['u'],0,0.28435350000017934,0.1,0,0,AccFast,4,18,Woman,Right,
26,5,1,2.467677499999809,['n'],1,right,['u'],0,1.0877984000007928,0.4,0,0,AccFast,4,18,Woman,Right,
27,5,1,2.251040500000272,['n'],0,left,['u'],0,0.20499820000077307,0.2,1,0,AccFast,4,18,Woman,Right,
28,5,1,2.166973600000347,['n'],1,right,['u'],0,0.1941041000000041,0.1,0,0,AccFast,4,18,Woman,Right,
29,5,1,2.517616000000089,['c'],0,right,['u'],0,0.1674124999999549,0.4,1,0,AccFast,4,18,Woman,Right,
30,5,1,2.784414800000377,['n'],0,left,['u'],0,1.0279820999994627,0.1,1,0,AccFast,4,18,Woman,Right,
31,5,1,2.8160658999995576,['c'],0,right,['u'],0,0.22124739999981102,0.1,1,0,AccFast,4,18,Woman,Right,
32,5,1,2.6667512000003626,['c'],0,right,['u'],0,0.1729819000001953,0.1,1,0,AccFast,4,18,Woman,Right,
33,5,1,3.551204599999437,['c'],0,right,['e'],1,0.45824850000008155,0.4,0,0,AccFast,4,18,Woman,Right,
34,5,1,2.2509732000007716,['c'],1,left,['e'],1,0.33668330000000424,0.4,1,0,AccFast,4,18,Woman,Right,
35,5,1,3.9842545000001337,['c'],0,right,['u'],0,0.21471480000036536,0.1,1,0,AccFast,4,18,Woman,Right,
36,5,1,1.2663265000001047,['c'],0,right,['u'],0,0.17460899999969115,0.1,1,0,AccFast,4,18,Woman,Right,
37,5,1,1.4175868000002083,['c'],1,left,['u'],0,0.19301090000044496,0.1,0,0,AccFast,4,18,Woman,Right,
38,5,1,2.1176946000005046,['c'],1,left,['e'],1,0.2633488000001307,0.2,1,0,AccFast,4,18,Woman,Right,
39,5,1,3.1000283000003037,['c'],1,left,['e'],1,0.7072952999997142,0.1,1,0,AccFast,4,18,Woman,Right,
40,5,1,1.0834242999999333,['n'],1,right,['e'],1,0.3825331999996706,0.2,1,0,AccFast,4,18,Woman,Right,
41,5,1,2.283751800000573,['n'],1,right,['u'],0,0.32650180000018736,0.1,0,0,AccFast,4,18,Woman,Right,
42,5,1,1.9838844999994762,['n'],0,left,['u'],0,0.2377360000000408,0.2,1,0,AccFast,4,18,Woman,Right,
43,5,1,3.46749920000002,['c'],0,right,['u'],0,0.1710957999994207,0.4,1,0,AccFast,4,18,Woman,Right,
44,5,1,1.4678710999996838,['c'],0,right,['u'],0,0.14050379999935103,0.4,1,0,AccFast,4,18,Woman,Right,
45,5,1,2.4006427000003896,['n'],1,right,['u'],0,0.1693420999999944,0.4,0,0,AccFast,4,18,Woman,Right,
46,5,1,1.88345819999995,['c'],1,left,['e'],1,0.7467088000003059,0.4,1,0,AccFast,4,18,Woman,Right,
47,5,1,3.616922200000772,['c'],1,left,['u'],0,0.44589209999958257,0.1,0,0,AccFast,4,18,Woman,Right,
48,5,1,1.7177437000000282,['n'],1,right,['u'],0,0.3943773000000874,0.2,0,0,AccFast,4,18,Woman,Right,
49,5,1,1.2346575999999914,['n'],1,right,['u'],0,0.25155459999950835,0.4,0,0,AccFast,4,18,Woman,Right,
50,5,1,3.016797399999632,['n'],0,left,['u'],0,0.5393132999997761,0.1,1,0,AccFast,4,18,Woman,Right,
51,5,1,2.7337416000000303,['c'],0,right,['u'],0,0.28345229999922594,0.2,1,0,AccFast,4,18,Woman,Right,
52,5,1,3.168146300000444,['c'],1,left,['u'],0,0.1637858000003689,0.2,0,0,AccFast,4,18,Woman,Right,
53,5,1,1.9836973999999827,['c'],1,left,['e'],1,0.4480986999997185,0.4,1,0,AccFast,4,18,Woman,Right,
54,5,1,2.584542099999453,['c'],0,right,['u'],0,0.2013160999995307,0.4,1,0,AccFast,4,18,Woman,Right,
55,5,1,2.8508097000003545,['c'],1,left,['e'],1,0.45061039999927743,0.4,1,0,AccFast,4,18,Woman,Right,
56,5,1,2.135172899999816,['n'],0,left,['u'],0,0.23699390000001586,0.4,1,0,AccFast,4,18,Woman,Right,
57,5,1,3.334383600000365,['c'],0,right,['u'],0,0.28908839999985503,0.2,1,0,AccFast,4,18,Woman,Right,
58,5,1,2.949210700000549,['c'],0,right,['e'],1,1.1548669999992853,0.1,0,0,AccFast,4,18,Woman,Right,
59,5,1,1.7344915999992736,['c'],1,left,['e'],1,0.6260910999999396,0.4,1,0,AccFast,4,18,Woman,Right,
0,6,1,3.1673547000000326,['c'],1,left,['u'],0,1.1815160000005562,0.2,0,0,AccAcc,4,18,Woman,Right,
1,6,1,1.452297400000134,['n'],1,right,['e'],1,0.8226715999999215,0.4,1,0,AccAcc,4,18,Woman,Right,
2,6,1,2.466389100000015,['c'],1,left,['e'],1,0.6632733000005828,0.1,1,0,AccAcc,4,18,Woman,Right,
3,6,1,3.284216400000332,['c'],1,left,['u'],0,0.603738799999519,0.1,0,0,AccAcc,4,18,Woman,Right,
4,6,1,2.683802300000025,['n'],0,left,['u'],0,2.5861560999992435,0.2,1,0,AccAcc,4,18,Woman,Right,
5,6,1,1.9176115999998729,['c'],1,left,['u'],0,0.8244222000002992,0.4,0,0,AccAcc,4,18,Woman,Right,
6,6,1,1.7349790999996912,['n'],0,left,['e'],1,0.5023226000002978,0.2,0,0,AccAcc,4,18,Woman,Right,
7,6,1,2.967652100000123,['c'],1,left,['u'],0,0.44565959999999905,0.2,0,0,AccAcc,4,18,Woman,Right,
8,6,1,2.1674940000002607,['c'],1,left,['e'],1,0.278653000000304,0.4,1,0,AccAcc,4,18,Woman,Right,
9,6,1,3.1830901000002996,['c'],0,right,['u'],0,0.41536400000040885,0.4,1,0,AccAcc,4,18,Woman,Right,
10,6,1,3.3165172999997594,['c'],1,left,['e'],1,0.3000960999997915,0.1,1,0,AccAcc,4,18,Woman,Right,
11,6,1,2.567873199999667,['c'],0,right,['e'],1,0.3166602999999668,0.2,0,0,AccAcc,4,18,Woman,Right,
12,6,1,5.016019499999857,x,-99,left,none,-99,-99,0.1,-99,1,AccAcc,4,18,Woman,Right,
13,6,1,2.266932800000177,['c'],1,left,['u'],0,0.5292851000003793,0.1,0,0,AccAcc,4,18,Woman,Right,
14,6,1,1.9506923999997525,['c'],1,left,['u'],0,0.3844642999993084,0.1,0,0,AccAcc,4,18,Woman,Right,
15,6,1,2.0010191999999734,['c'],0,right,['u'],0,0.3236562000001868,0.2,1,0,AccAcc,4,18,Woman,Right,
16,6,1,2.3499912999996013,['n'],1,right,['u'],0,0.3634892000000036,0.4,0,0,AccAcc,4,18,Woman,Right,
17,6,1,2.6330506999993304,['n'],1,right,['u'],0,0.3742131999997582,0.2,0,0,AccAcc,4,18,Woman,Right,
18,6,1,3.533275499999945,['n'],0,left,['u'],0,0.3331666000003679,0.1,1,0,AccAcc,4,18,Woman,Right,
19,6,1,3.1343292999999903,['c'],1,left,['u'],0,0.3565300999998726,0.1,0,0,AccAcc,4,18,Woman,Right,
20,6,1,1.867252500000177,['n'],1,right,['e'],1,0.3983144000003449,0.4,1,0,AccAcc,4,18,Woman,Right,
21,6,1,2.8000824999999168,['c'],1,left,['u'],0,0.9289354000002277,0.2,0,0,AccAcc,4,18,Woman,Right,
22,6,1,2.6503983000002336,['n'],1,right,['u'],0,0.3720490999994581,0.1,0,0,AccAcc,4,18,Woman,Right,
23,6,1,2.766928299999563,['c'],1,left,['u'],0,0.4265996999993149,0.2,0,0,AccAcc,4,18,Woman,Right,
24,6,1,2.084704099999726,['n'],1,right,['u'],0,0.4078183000001445,0.2,0,0,AccAcc,4,18,Woman,Right,
25,6,1,2.967675699999745,['n'],0,left,['u'],0,0.9957245000005059,0.2,1,0,AccAcc,4,18,Woman,Right,
26,6,1,3.4500946999996813,['c'],0,right,['u'],0,0.9966985000000932,0.2,1,0,AccAcc,4,18,Woman,Right,
27,6,1,4.333525699999882,['n'],1,right,['u'],0,0.3063400000000911,0.1,0,0,AccAcc,4,18,Woman,Right,
28,6,1,2.2676144999995813,['c'],1,left,['u'],0,0.2699183000004268,0.2,0,0,AccAcc,4,18,Woman,Right,
29,6,1,2.884038099999998,['c'],1,left,['u'],0,0.3390220999999656,0.1,0,0,AccAcc,4,18,Woman,Right,
30,6,1,2.215925900000002,['n'],1,right,['u'],0,0.38415489999988495,0.1,0,0,AccAcc,4,18,Woman,Right,
31,6,1,2.1013561999998274,['n'],1,right,['e'],1,0.7338694000000032,0.2,1,0,AccAcc,4,18,Woman,Right,
32,6,1,2.767603400000553,['n'],1,right,['e'],1,0.4524693000003026,0.1,1,0,AccAcc,4,18,Woman,Right,
33,6,1,2.7670680000001084,['c'],1,left,['e'],1,0.26230759999998554,0.4,1,0,AccAcc,4,18,Woman,Right,
34,6,1,3.8674174999996467,['c'],1,left,['u'],0,0.29235029999927065,0.1,0,0,AccAcc,4,18,Woman,Right,
35,6,1,1.4845150000001013,['c'],0,right,['u'],0,0.23944759999994858,0.2,1,0,AccAcc,4,18,Woman,Right,
36,6,1,2.350365199999942,['c'],0,right,['u'],0,1.6745131999996374,0.4,1,0,AccAcc,4,18,Woman,Right,
37,6,1,1.1342193000000407,['n'],1,right,['e'],1,0.49349460000030376,0.4,1,0,AccAcc,4,18,Woman,Right,
38,6,1,1.4840101999998296,['c'],1,left,['e'],1,0.19355910000012955,0.4,1,0,AccAcc,4,18,Woman,Right,
39,6,1,1.0668071999998574,['n'],1,right,['e'],1,0.16186059999927238,0.4,1,0,AccAcc,4,18,Woman,Right,
40,6,1,1.4847786999998789,['c'],0,right,['u'],0,0.17816229999971256,0.2,1,0,AccAcc,4,18,Woman,Right,
41,6,1,1.8677633000006608,['c'],1,left,['u'],0,0.195247599999675,0.1,0,0,AccAcc,4,18,Woman,Right,
42,6,1,2.0173154000003706,['n'],0,left,['u'],0,0.20540430000073684,0.2,1,0,AccAcc,4,18,Woman,Right,
43,6,1,3.2174721999999747,['n'],1,right,['u'],0,0.43906520000018645,0.4,0,0,AccAcc,4,18,Woman,Right,
44,6,1,1.5012175000001662,['n'],1,right,['u'],0,0.3480915999998615,0.4,0,0,AccAcc,4,18,Woman,Right,
45,6,1,1.467965799999547,['n'],1,right,['u'],0,0.19779680000010558,0.4,0,0,AccAcc,4,18,Woman,Right,
46,6,1,2.433420500000466,['n'],1,right,['u'],0,0.2563327999996545,0.4,0,0,AccAcc,4,18,Woman,Right,
47,6,1,2.051121499999681,['n'],1,right,['u'],0,0.2934783000000607,0.4,0,0,AccAcc,4,18,Woman,Right,
48,6,1,1.7845276999996713,['c'],0,right,['u'],0,0.2452726999999868,0.2,1,0,AccAcc,4,18,Woman,Right,
49,6,1,2.2180834999999206,['c'],0,right,['u'],0,0.21299079999971582,0.4,1,0,AccAcc,4,18,Woman,Right,
50,6,1,2.7341973000002326,['n'],0,left,['u'],0,0.28958739999961836,0.1,1,0,AccAcc,4,18,Woman,Right,
51,6,1,1.2012638999995033,['c'],1,left,['u'],0,0.2964945000003354,0.1,0,0,AccAcc,4,18,Woman,Right,
52,6,1,1.1668776999995316,['c'],1,left,['e'],1,0.32011510000029375,0.4,1,0,AccAcc,4,18,Woman,Right,
53,6,1,1.1664848999998867,['c'],1,left,['e'],1,0.32734549999986484,0.2,1,0,AccAcc,4,18,Woman,Right,
54,6,1,2.517079499999454,['c'],1,left,['e'],1,0.2485716000001048,0.2,1,0,AccAcc,4,18,Woman,Right,
55,6,1,4.183266800000638,['n'],1,right,['u'],0,0.5063036000001375,0.1,0,0,AccAcc,4,18,Woman,Right,
56,6,1,2.567675200000849,['c'],1,left,['e'],1,1.2986455000000205,0.4,1,0,AccAcc,4,18,Woman,Right,
57,6,1,1.4011823000000732,['n'],1,right,['u'],0,0.2961215000004813,0.4,0,0,AccAcc,4,18,Woman,Right,
58,6,1,2.017539200000101,['n'],1,right,['u'],0,0.3026042999999845,0.1,0,0,AccAcc,4,18,Woman,Right,
59,6,1,1.7676081999998132,['c'],0,right,['e'],1,0.38172579999991285,0.1,0,0,AccAcc,4,18,Woman,Right,
0,7,1,1.8823349999993297,['n'],1,right,['u'],0,0.8410258000003523,0.1,0,0,FastAcc,4,18,Woman,Right,
1,7,1,1.649438000000373,['n'],0,left,['u'],0,0.27948509999987436,0.1,1,0,FastAcc,4,18,Woman,Right,
2,7,1,0.5827621999997064,['c'],0,right,['u'],0,0.19929020000017772,0.2,1,0,FastAcc,4,18,Woman,Right,
3,7,1,1.234366499999851,['n'],1,right,['u'],0,0.12809849999939615,0.4,0,0,FastAcc,4,18,Woman,Right,
4,7,1,0.8179290999996738,['n'],1,right,['u'],0,0.14048079999975016,0.1,0,0,FastAcc,4,18,Woman,Right,
5,7,1,1.5843979000001127,['c'],1,left,['u'],0,0.10670999999911146,0.1,0,0,FastAcc,4,18,Woman,Right,
6,7,1,0.7825903000002654,['c'],1,left,['u'],0,0.13833720000002359,0.2,0,0,FastAcc,4,18,Woman,Right,
7,7,1,0.4334115000001475,['n'],1,right,['u'],0,0.13337640000008832,0.4,0,0,FastAcc,4,18,Woman,Right,
8,7,1,0.8997305000002598,['c'],1,left,['u'],0,0.09479999999985012,0.1,0,0,FastAcc,4,18,Woman,Right,
9,7,1,1.3327965999997105,['n'],1,right,['u'],0,2.968158499999845,0.4,0,0,FastAcc,4,18,Woman,Right,
10,7,1,1.934212799999841,['c'],0,right,['u'],0,0.1661181999998007,0.1,1,0,FastAcc,4,18,Woman,Right,
11,7,1,2.83344550000038,['n'],1,right,['u'],0,0.5617245000003095,0.4,0,0,FastAcc,4,18,Woman,Right,
12,7,1,1.7663981000005151,['c'],1,left,['e'],1,0.21496529999967606,0.2,1,0,FastAcc,4,18,Woman,Right,
13,7,1,3.6672803999999815,['n'],1,right,['u'],0,0.6860437000004822,0.1,0,0,FastAcc,4,18,Woman,Right,
14,7,1,1.1516891999999643,['n'],1,right,['u'],0,0.1829276000007667,0.1,0,0,FastAcc,4,18,Woman,Right,
15,7,1,1.117349699999977,['n'],1,right,['e'],1,0.13438339999993332,0.4,1,0,FastAcc,4,18,Woman,Right,
16,7,1,1.3173741000000518,['c'],1,left,['e'],1,0.47746709999955783,0.1,1,0,FastAcc,4,18,Woman,Right,
17,7,1,2.701188000000002,['n'],0,left,['u'],0,0.3215490000002319,0.1,1,0,FastAcc,4,18,Woman,Right,
18,7,1,1.5509822000003624,['c'],1,left,['e'],1,0.2490600999999515,0.4,1,0,FastAcc,4,18,Woman,Right,
19,7,1,2.5343722999996317,['c'],1,left,['u'],0,0.23774339999999938,0.2,0,0,FastAcc,4,18,Woman,Right,
20,7,1,1.299617899999248,['n'],1,right,['u'],0,0.1626114000000598,0.2,0,0,FastAcc,4,18,Woman,Right,
21,7,1,0.9839612999994642,['n'],0,left,['u'],0,0.19826199999988603,0.1,1,0,FastAcc,4,18,Woman,Right,
22,7,1,1.5338864000004833,['n'],1,right,['u'],0,0.1643396000008579,0.1,0,0,FastAcc,4,18,Woman,Right,
23,7,1,2.133646000000226,['c'],0,right,['u'],0,0.17044259999966016,0.4,1,0,FastAcc,4,18,Woman,Right,
24,7,1,1.0180641999995714,['c'],1,left,['u'],0,0.1728056000001743,0.4,0,0,FastAcc,4,18,Woman,Right,
25,7,1,1.217655399999785,['n'],0,left,['u'],0,0.1531245999995008,0.1,1,0,FastAcc,4,18,Woman,Right,
26,7,1,1.2655780000004597,['c'],1,left,['u'],0,0.11519440000029135,0.1,0,0,FastAcc,4,18,Woman,Right,
27,7,1,1.2502578000003268,['n'],1,right,['u'],0,0.2220777000002272,0.4,0,0,FastAcc,4,18,Woman,Right,
28,7,1,1.4678690999999162,['n'],0,left,['u'],0,0.1562064999998256,0.1,1,0,FastAcc,4,18,Woman,Right,
29,7,1,1.5007120000000214,['c'],1,left,['u'],0,0.17356269999982032,0.2,0,0,FastAcc,4,18,Woman,Right,
30,7,1,1.565487199999552,['n'],1,right,['u'],0,0.1386168999997608,0.4,0,0,FastAcc,4,18,Woman,Right,
31,7,1,1.8836425999998028,['c'],1,left,['u'],0,0.1554811999994854,0.2,0,0,FastAcc,4,18,Woman,Right,
32,7,1,1.3829958000005718,['c'],1,left,['u'],0,0.06578020000051765,0.2,0,0,FastAcc,4,18,Woman,Right,
33,7,1,0.35119140000006155,['c'],0,right,['u'],0,0.11430269999982556,0.4,1,0,FastAcc,4,18,Woman,Right,
34,7,1,0.3010979999999108,['c'],0,right,['u'],0,0.09987550000005285,0.4,1,0,FastAcc,4,18,Woman,Right,
35,7,1,0.31624230000034004,['n'],1,right,['u'],0,0.15045250000002852,0.2,0,0,FastAcc,4,18,Woman,Right,
36,7,1,0.36656050000055984,['n'],0,left,['u'],0,0.1312418000006801,0.2,1,0,FastAcc,4,18,Woman,Right,
37,7,1,0.6016435000001366,['n'],1,right,['u'],0,0.10405369999989489,0.2,0,0,FastAcc,4,18,Woman,Right,
38,7,1,0.7173468000000867,['c'],1,left,['u'],0,0.10616469999968103,0.4,0,0,FastAcc,4,18,Woman,Right,
39,7,1,0.5681432999999743,['n'],1,right,['u'],0,0.09719210000002931,0.2,0,0,FastAcc,4,18,Woman,Right,
40,7,1,0.7524957000005088,['n'],1,right,['u'],0,0.11301759999969363,0.2,0,0,FastAcc,4,18,Woman,Right,
41,7,1,0.6356100000002698,['n'],1,right,['u'],0,0.08708419999948092,0.1,0,0,FastAcc,4,18,Woman,Right,
42,7,1,0.5181690999997954,['c'],1,left,['u'],0,0.0955441999994946,0.2,0,0,FastAcc,4,18,Woman,Right,
43,7,1,0.6505492000005688,['c'],1,left,['e'],1,0.14911040000060893,0.2,1,0,FastAcc,4,18,Woman,Right,
44,7,1,1.1332625000004555,['c'],1,left,['e'],1,0.11575340000035794,0.1,1,0,FastAcc,4,18,Woman,Right,
45,7,1,0.7676363000000492,['c'],1,left,['u'],0,0.09795440000016242,0.1,0,0,FastAcc,4,18,Woman,Right,
46,7,1,0.684328600000299,['n'],1,right,['u'],0,0.11792150000019319,0.4,0,0,FastAcc,4,18,Woman,Right,
47,7,1,0.5666699000003064,['c'],1,left,['u'],0,0.15636580000045797,0.2,0,0,FastAcc,4,18,Woman,Right,
48,7,1,1.2169226000005438,['n'],0,left,['u'],0,0.16761419999966165,0.2,1,0,FastAcc,4,18,Woman,Right,
49,7,1,1.3992849999995087,['n'],0,left,['u'],0,0.15587839999989228,0.2,1,0,FastAcc,4,18,Woman,Right,
50,7,1,0.8005984000001263,['n'],1,right,['u'],0,0.11986510000042472,0.4,0,0,FastAcc,4,18,Woman,Right,
51,7,1,1.0509207000004608,['n'],1,right,['u'],0,0.2037597000007736,0.4,0,0,FastAcc,4,18,Woman,Right,
52,7,1,1.3829052999999476,['n'],1,right,['u'],0,0.11135900000044785,0.1,0,0,FastAcc,4,18,Woman,Right,
53,7,1,2.18304309999985,['c'],1,left,['u'],0,0.1179839999995238,0.2,0,0,FastAcc,4,18,Woman,Right,
54,7,1,1.433766299999661,['c'],0,right,['u'],0,0.08978449999995064,0.4,1,0,FastAcc,4,18,Woman,Right,
55,7,1,1.0509866000002148,['c'],1,left,['e'],1,0.14248229999975592,0.4,1,0,FastAcc,4,18,Woman,Right,
56,7,1,0.6182859999998982,['c'],1,left,['e'],1,0.1311014000002615,0.4,1,0,FastAcc,4,18,Woman,Right,
57,7,1,1.2342201000001296,['c'],0,right,['e'],1,0.14277080000010756,0.2,0,0,FastAcc,4,18,Woman,Right,
58,7,1,1.7343417000001864,['n'],0,left,['u'],0,0.11913929999991524,0.1,1,0,FastAcc,4,18,Woman,Right,
59,7,1,0.8827837999997428,['n'],1,right,['u'],0,0.12978380000004108,0.4,0,0,FastAcc,4,18,Woman,Right,
0,8,1,0.5342186999996557,['c'],0,right,['u'],0,0.07829250000031607,0.1,1,0,FastFast,4,18,Woman,Right,
1,8,1,0.4167918000002828,['n'],1,right,['e'],1,0.04555770000024495,0.4,1,0,FastFast,4,18,Woman,Right,
2,8,1,0.6342193000000407,['n'],1,right,['u'],0,0.11681720000069618,0.4,0,0,FastFast,4,18,Woman,Right,
3,8,1,0.4179448000004413,['c'],1,left,['e'],1,0.11350360000051296,0.4,1,0,FastFast,4,18,Woman,Right,
4,8,1,1.999724199999946,['c'],0,right,['u'],0,0.07955330000004324,0.4,1,0,FastFast,4,18,Woman,Right,
5,8,1,0.8177755999995497,['n'],0,left,['e'],1,0.10938080000050832,0.4,0,0,FastFast,4,18,Woman,Right,
6,8,1,0.9008412000002863,['n'],1,right,['u'],0,0.11947990000044229,0.1,0,0,FastFast,4,18,Woman,Right,
7,8,1,0.8014833000006547,['n'],1,right,['e'],1,0.08523549999972602,0.1,1,0,FastFast,4,18,Woman,Right,
8,8,1,0.9506867999998576,['c'],1,left,['u'],0,0.44626139999945735,0.2,0,0,FastFast,4,18,Woman,Right,
9,8,1,0.46810939999977563,['n'],0,left,['e'],1,0.12362550000034389,0.2,0,0,FastFast,4,18,Woman,Right,
10,8,1,1.3675987999995414,['n'],0,left,['e'],1,0.09883309999986523,0.1,0,0,FastFast,4,18,Woman,Right,
11,8,1,0.7002958000002764,['c'],0,right,['u'],0,0.10210809999989579,0.1,1,0,FastFast,4,18,Woman,Right,
12,8,1,1.451173899999958,['n'],0,left,['u'],0,0.08939959999952407,0.1,1,0,FastFast,4,18,Woman,Right,
13,8,1,0.8011226999997234,['c'],1,left,['e'],1,0.10446250000040891,0.2,1,0,FastFast,4,18,Woman,Right,
14,8,1,0.8331151000002137,['n'],1,right,['e'],1,0.11849530000017694,0.2,1,0,FastFast,4,18,Woman,Right,
15,8,1,0.9337328000001435,['n'],1,right,['e'],1,0.14187109999966196,0.4,1,0,FastFast,4,18,Woman,Right,
16,8,1,1.3678262000003087,['n'],0,left,['u'],0,0.03604319999976724,0.4,1,0,FastFast,4,18,Woman,Right,
17,8,1,2.1013216999999713,['c'],1,left,['u'],0,0.04918269999961922,0.1,0,0,FastFast,4,18,Woman,Right,
18,8,1,1.3161365999994814,['c'],0,right,['u'],0,0.0939989999997124,0.2,1,0,FastFast,4,18,Woman,Right,
19,8,1,0.9183677000000898,['c'],1,left,['e'],1,0.13545630000044184,0.2,1,0,FastFast,4,18,Woman,Right,
20,8,1,1.3328605999995489,['n'],1,right,['u'],0,0.9267254000005778,0.4,0,0,FastFast,4,18,Woman,Right,
21,8,1,0.5675486999998611,['n'],0,left,['u'],0,0.15032950000022538,0.1,1,0,FastFast,4,18,Woman,Right,
22,8,1,0.5179238999999143,['n'],1,right,['u'],0,0.20627289999993081,0.1,0,0,FastFast,4,18,Woman,Right,
23,8,1,1.0174532999999428,['c'],1,left,['u'],0,0.12791649999962829,0.4,0,0,FastFast,4,18,Woman,Right,
24,8,1,1.1514298000001872,['c'],1,left,['u'],0,0.09542009999950096,0.1,0,0,FastFast,4,18,Woman,Right,
25,8,1,1.5502975000008519,['c'],1,left,['u'],0,0.0636051999999836,0.1,0,0,FastFast,4,18,Woman,Right,
26,8,1,1.3009988000003432,['n'],1,right,['u'],0,0.1713285999994696,0.1,0,0,FastFast,4,18,Woman,Right,
27,8,1,0.5007991000002221,['n'],1,right,['u'],0,0.08289280000008148,0.2,0,0,FastFast,4,18,Woman,Right,
28,8,1,0.6678996999999072,['c'],0,right,['u'],0,0.007810200000676559,0.1,1,0,FastFast,4,18,Woman,Right,
29,8,1,0.5344306000006327,['n'],0,left,['u'],0,0.020169999999779975,0.1,1,0,FastFast,4,18,Woman,Right,
30,8,1,1.501043899999786,['n'],1,right,['u'],0,0.18597930000032648,0.2,0,0,FastFast,4,18,Woman,Right,
31,8,1,0.9012118000000555,['n'],1,right,['e'],1,0.08073659999990923,0.2,1,0,FastFast,4,18,Woman,Right,
32,8,1,0.8167131000000154,['n'],1,right,['e'],1,0.07965779999994993,0.4,1,0,FastFast,4,18,Woman,Right,
33,8,1,1.0188488000003417,['c'],0,right,['u'],0,0.2772661999997581,0.2,1,0,FastFast,4,18,Woman,Right,
34,8,1,1.8659453999998732,['n'],1,right,['u'],0,0.131402099999832,0.2,0,0,FastFast,4,18,Woman,Right,
35,8,1,0.951168399999915,['n'],1,right,['e'],1,0.07391040000038629,0.4,1,0,FastFast,4,18,Woman,Right,
36,8,1,1.3681592999992063,['n'],1,right,['u'],0,0.11437709999972867,0.4,0,0,FastFast,4,18,Woman,Right,
37,8,1,1.0847137999999177,['n'],1,right,['e'],1,0.30870599999980186,0.4,1,0,FastFast,4,18,Woman,Right,
38,8,1,1.3506426000003557,['c'],1,left,['u'],0,0.13315370000054827,0.2,0,0,FastFast,4,18,Woman,Right,
39,8,1,1.3010432000000947,['n'],1,right,['u'],0,0.15801850000025297,0.2,0,0,FastFast,4,18,Woman,Right,
40,8,1,1.7839634000001752,['c'],1,left,['u'],0,0.16330479999942327,0.1,0,0,FastFast,4,18,Woman,Right,
41,8,1,1.082785700000386,['n'],1,right,['u'],0,0.13236520000009477,0.2,0,0,FastFast,4,18,Woman,Right,
42,8,1,1.6176422999997158,['c'],1,left,['e'],1,0.11237169999913021,0.4,1,0,FastFast,4,18,Woman,Right,
43,8,1,0.6340645999998742,['c'],1,left,['e'],1,0.10022090000074968,0.4,1,0,FastFast,4,18,Woman,Right,
44,8,1,0.7841441999999006,['c'],1,left,['e'],1,0.06736050000017713,0.2,1,0,FastFast,4,18,Woman,Right,
45,8,1,1.0508569000003263,['c'],1,left,['e'],1,0.1534509999992224,0.4,1,0,FastFast,4,18,Woman,Right,
46,8,1,1.6677357999997184,['c'],1,left,['u'],0,0.0985885000000053,0.1,0,0,FastFast,4,18,Woman,Right,
47,8,1,0.7183439000000362,['n'],1,right,['u'],0,0.13216130000000703,0.1,0,0,FastFast,4,18,Woman,Right,
48,8,1,0.88417759999993,['n'],1,right,['u'],0,0.11003690000052302,0.2,0,0,FastFast,4,18,Woman,Right,
49,8,1,1.4663399999999456,['c'],1,left,['u'],0,0.13025000000016007,0.1,0,0,FastFast,4,18,Woman,Right,
50,8,1,1.7847899999997026,['n'],0,left,['u'],0,0.10374400000000605,0.1,1,0,FastFast,4,18,Woman,Right,
51,8,1,1.7338472000001275,['n'],1,right,['u'],0,0.12874600000031933,0.2,0,0,FastFast,4,18,Woman,Right,
52,8,1,0.7830918999998175,['c'],1,left,['e'],1,0.23867599999994127,0.2,1,0,FastFast,4,18,Woman,Right,
53,8,1,1.8847015000001193,['c'],1,left,['u'],0,0.10788649999994959,0.4,0,0,FastFast,4,18,Woman,Right,
54,8,1,0.5177837000001091,['n'],0,left,['u'],0,0.13320850000036444,0.1,1,0,FastFast,4,18,Woman,Right,
55,8,1,0.3344101000002411,['c'],1,left,['u'],0,0.03689380000014353,0.2,0,0,FastFast,4,18,Woman,Right,
56,8,1,0.31739809999999125,['n'],0,left,['e'],1,0.009653000000071188,0.4,0,0,FastFast,4,18,Woman,Right,
57,8,1,0.2827716000001601,['n'],1,right,['e'],1,0.06387579999955051,0.4,1,0,FastFast,4,18,Woman,Right,
58,8,1,0.23392910000075062,['n'],1,right,['u'],0,0.11743490000026213,0.4,0,0,FastFast,4,18,Woman,Right,
59,8,1,0.4830411000002641,['c'],1,left,['u'],0,0.25658089999978984,0.2,0,0,FastFast,4,18,Woman,Right,
0,9,1,2.4834830999998303,['c'],0,right,['u'],0,0.15384640000047511,0.2,1,0,AccFast,4,18,Woman,Right,
1,9,1,1.7671262999992905,['c'],1,left,['u'],0,0.14304809999975987,0.1,0,0,AccFast,4,18,Woman,Right,
2,9,1,1.7846761999999217,['n'],1,right,['u'],0,0.06893679999939195,0.2,0,0,AccFast,4,18,Woman,Right,
3,9,1,1.684287399999448,['n'],0,left,['u'],0,0.1625220999994781,0.2,1,0,AccFast,4,18,Woman,Right,
4,9,1,2.3504179999999906,['n'],0,left,['u'],0,0.09591210000053252,0.2,1,0,AccFast,4,18,Woman,Right,
5,9,1,0.8682900000003428,['n'],1,right,['e'],1,0.3154678999999305,0.4,1,0,AccFast,4,18,Woman,Right,
6,9,1,2.4004559999993944,['n'],0,left,['e'],1,0.17706749999979365,0.2,0,0,AccFast,4,18,Woman,Right,
7,9,1,1.4001663999997618,['c'],0,right,['u'],0,0.14966999999978725,0.2,1,0,AccFast,4,18,Woman,Right,
8,9,1,1.2671900000004825,['n'],1,right,['u'],0,0.2229341000002023,0.2,0,0,AccFast,4,18,Woman,Right,
9,9,1,2.251091799999813,['c'],0,right,['e'],1,0.20643489999929443,0.2,0,0,AccFast,4,18,Woman,Right,
10,9,1,1.8347332000003007,['c'],0,right,['u'],0,0.2394214000005377,0.2,1,0,AccFast,4,18,Woman,Right,
11,9,1,1.6511898000007932,['n'],1,right,['u'],0,0.18333900000016,0.1,0,0,AccFast,4,18,Woman,Right,
12,9,1,1.5336054999997941,['n'],1,right,['u'],0,0.181024399999842,0.1,0,0,AccFast,4,18,Woman,Right,
13,9,1,1.8510824000004504,['n'],1,right,['u'],0,0.16534039999987726,0.1,0,0,AccFast,4,18,Woman,Right,
14,9,1,2.0833219000005556,['c'],1,left,['e'],1,0.2066437000003134,0.2,1,0,AccFast,4,18,Woman,Right,
15,9,1,2.2676539000003686,['n'],0,left,['u'],0,0.15854720000061207,0.1,1,0,AccFast,4,18,Woman,Right,
16,9,1,1.9511075999998866,['n'],0,left,['u'],0,0.13998819999960688,0.1,1,0,AccFast,4,18,Woman,Right,
17,9,1,1.4678517000002103,['c'],0,right,['e'],1,0.19049549999999726,0.1,0,0,AccFast,4,18,Woman,Right,
18,9,1,1.684930300000815,['c'],1,left,['e'],1,0.21436029999949824,0.2,1,0,AccFast,4,18,Woman,Right,
19,9,1,2.8663049999995565,['n'],1,right,['u'],0,0.23796349999975064,0.2,0,0,AccFast,4,18,Woman,Right,
20,9,1,1.201077699999587,['n'],0,left,['u'],0,0.11827189999985421,0.4,1,0,AccFast,4,18,Woman,Right,
21,9,1,1.2338503999999375,['c'],1,left,['u'],0,0.08335350000015751,0.4,0,0,AccFast,4,18,Woman,Right,
22,9,1,1.2844443000003594,['n'],1,right,['e'],1,0.2388135000001057,0.4,1,0,AccFast,4,18,Woman,Right,
23,9,1,1.9167488000002777,['c'],0,right,['u'],0,0.12398420000045007,0.1,1,0,AccFast,4,18,Woman,Right,
24,9,1,0.934515900000406,['n'],1,right,['u'],0,0.11532179999994696,0.2,0,0,AccFast,4,18,Woman,Right,
25,9,1,2.6660287000004246,['n'],0,left,['u'],0,0.1516661000005115,0.1,1,0,AccFast,4,18,Woman,Right,
26,9,1,2.8837443000002168,['c'],0,right,['u'],0,0.11145550000037474,0.2,1,0,AccFast,4,18,Woman,Right,
27,9,1,1.0849331999997958,['n'],1,right,['u'],0,0.1305385000005117,0.1,0,0,AccFast,4,18,Woman,Right,
28,9,1,0.9671179999995729,['c'],1,left,['u'],0,0.15284430000065186,0.4,0,0,AccFast,4,18,Woman,Right,
29,9,1,1.0841528999999355,['n'],1,right,['e'],1,0.15385000000060245,0.4,1,0,AccFast,4,18,Woman,Right,
30,9,1,1.668203100000028,['n'],1,right,['e'],1,0.19542360000014014,0.4,1,0,AccFast,4,18,Woman,Right,
31,9,1,3.5834666000000652,['c'],0,right,['u'],0,1.342950600000222,0.4,1,0,AccFast,4,18,Woman,Right,
32,9,1,1.50052020000021,['c'],1,left,['e'],1,0.24007690000053117,0.4,1,0,AccFast,4,18,Woman,Right,
33,9,1,2.067775399999846,['c'],1,left,['e'],1,0.4224621000003026,0.1,1,0,AccFast,4,18,Woman,Right,
34,9,1,1.6665210000001025,['n'],1,right,['u'],0,0.08583939999971335,0.4,0,0,AccFast,4,18,Woman,Right,
35,9,1,2.2668063999999504,['c'],1,left,['u'],0,0.154066199999761,0.1,0,0,AccFast,4,18,Woman,Right,
36,9,1,2.38457870000002,['n'],1,right,['u'],0,0.15162950000012643,0.4,0,0,AccFast,4,18,Woman,Right,
37,9,1,2.649787500000457,['n'],0,left,['u'],0,0.23412390000066807,0.2,1,0,AccFast,4,18,Woman,Right,
38,9,1,2.1344137000005503,['c'],1,left,['u'],0,0.07818240000051446,0.4,0,0,AccFast,4,18,Woman,Right,
39,9,1,2.3012051999994583,['c'],0,right,['u'],0,0.09726529999988998,0.1,1,0,AccFast,4,18,Woman,Right,
40,9,1,1.3506565000006958,['c'],0,right,['u'],0,0.12180160000025353,0.1,1,0,AccFast,4,18,Woman,Right,
41,9,1,1.8164170000000013,['n'],0,left,['u'],0,0.03073210000002291,0.4,1,0,AccFast,4,18,Woman,Right,
42,9,1,0.35086239999964164,['c'],1,left,['u'],0,0.09798239999963698,0.4,0,0,AccFast,4,18,Woman,Right,
43,9,1,0.7509806999996727,['n'],1,right,['u'],0,0.14585639999950217,0.2,0,0,AccFast,4,18,Woman,Right,
44,9,1,0.4005858000000444,['c'],0,right,['u'],0,0.11055219999980181,0.4,1,0,AccFast,4,18,Woman,Right,
45,9,1,0.9508607000007032,['n'],0,left,['u'],0,0.2303650000003472,0.4,1,0,AccFast,4,18,Woman,Right,
46,9,1,1.4845871999996234,['n'],0,left,['u'],0,0.16414949999943929,0.1,1,0,AccFast,4,18,Woman,Right,
47,9,1,1.9176026999994065,['c'],0,right,['u'],0,0.19526909999967756,0.1,1,0,AccFast,4,18,Woman,Right,
48,9,1,2.9327831000000515,['n'],0,left,['u'],0,0.04109669999979815,0.1,1,0,AccFast,4,18,Woman,Right,
49,9,1,1.816171899999972,['c'],1,left,['u'],0,0.0820848000003025,0.1,0,0,AccFast,4,18,Woman,Right,
50,9,1,3.3181282999994437,['c'],1,left,['u'],0,0.26741149999998015,0.4,0,0,AccFast,4,18,Woman,Right,
51,9,1,1.7505098000001453,['n'],0,left,['u'],0,0.26993560000028083,0.4,1,0,AccFast,4,18,Woman,Right,
52,9,1,1.7505811000000904,['n'],0,left,['e'],1,0.31886350000058883,0.4,0,0,AccFast,4,18,Woman,Right,
53,9,1,3.2510426999997435,['n'],0,left,['u'],0,0.2107544999998936,0.2,1,0,AccFast,4,18,Woman,Right,
54,9,1,1.6676139000001058,['n'],1,right,['u'],0,0.1705547999999908,0.2,0,0,AccFast,4,18,Woman,Right,
55,9,1,1.016345299999557,['n'],1,right,['u'],0,0.27026050000040414,0.1,0,0,AccFast,4,18,Woman,Right,
56,9,1,1.4010130999995454,['c'],1,left,['u'],0,0.28528520000054414,0.2,0,0,AccFast,4,18,Woman,Right,
57,9,1,1.2676903999999922,['c'],1,left,['u'],0,0.14549410000017815,0.1,0,0,AccFast,4,18,Woman,Right,
58,9,1,1.5337922999997318,['c'],0,right,['u'],0,0.2088090999995984,0.2,1,0,AccFast,4,18,Woman,Right,
59,9,1,0.8334114999997837,['c'],1,left,['u'],0,0.1700140000002648,0.4,0,0,AccFast,4,18,Woman,Right,
0,10,1,1.683737100000144,['c'],1,left,['e'],1,0.2780314999999973,0.2,1,0,AccAcc,4,18,Woman,Right,
1,10,1,2.95147949999955,['n'],1,right,['u'],0,0.5523643000005904,0.2,0,0,AccAcc,4,18,Woman,Right,
2,10,1,2.584439100000054,['n'],1,right,['u'],0,0.3014197000002241,0.4,0,0,AccAcc,4,18,Woman,Right,
3,10,1,1.6178232000002026,['c'],0,right,['u'],0,0.19485209999947983,0.1,1,0,AccAcc,4,18,Woman,Right,
4,10,1,2.484434400000282,['n'],1,right,['u'],0,0.4261060999997426,0.2,0,0,AccAcc,4,18,Woman,Right,
5,10,1,1.0495371999995768,['c'],1,left,['e'],1,0.530949399999372,0.4,1,0,AccAcc,4,18,Woman,Right,
6,10,1,1.4514708999995491,['n'],1,right,['e'],1,0.48490880000008474,0.2,1,0,AccAcc,4,18,Woman,Right,
7,10,1,1.2347982000001139,['c'],1,left,['e'],1,0.48245130000032077,0.4,1,0,AccAcc,4,18,Woman,Right,
8,10,1,3.101545100000294,['n'],0,left,['u'],0,0.6618993000001865,0.2,1,0,AccAcc,4,18,Woman,Right,
9,10,1,1.5176418999999441,['c'],1,left,['u'],0,0.33693420000054175,0.4,0,0,AccAcc,4,18,Woman,Right,
10,10,1,1.6665369000002102,['n'],1,right,['u'],0,0.32439290000002075,0.4,0,0,AccAcc,4,18,Woman,Right,
11,10,1,1.5008451000003333,['c'],0,right,['u'],0,0.5570238000000245,0.1,1,0,AccAcc,4,18,Woman,Right,
12,10,1,2.699489800000265,['n'],0,left,['u'],0,0.2706791999999041,0.4,1,0,AccAcc,4,18,Woman,Right,
13,10,1,2.767737699999998,['c'],0,right,['u'],0,0.23070080000070448,0.1,1,0,AccAcc,4,18,Woman,Right,
14,10,1,3.3662037000003693,['c'],1,left,['u'],0,0.09010080000007292,0.2,0,0,AccAcc,4,18,Woman,Right,
15,10,1,1.2341799999994691,['n'],1,right,['u'],0,0.23115229999984876,0.1,0,0,AccAcc,4,18,Woman,Right,
16,10,1,2.0666927000002033,['n'],0,left,['u'],0,0.8779531999998653,0.1,1,0,AccAcc,4,18,Woman,Right,
17,10,1,2.217711000000236,['c'],1,left,['u'],0,0.29266090000055556,0.2,0,0,AccAcc,4,18,Woman,Right,
18,10,1,1.8182483999999022,['n'],1,right,['u'],0,0.3070773999997982,0.2,0,0,AccAcc,4,18,Woman,Right,
19,10,1,3.1991078999999445,['c'],0,right,['e'],1,0.33124620000035065,0.1,0,0,AccAcc,4,18,Woman,Right,
20,10,1,1.3688267999996242,['n'],1,right,['u'],0,0.168149899999662,0.4,0,0,AccAcc,4,18,Woman,Right,
21,10,1,1.7517878999997265,['c'],0,right,['u'],0,0.17389209999964805,0.2,1,0,AccAcc,4,18,Woman,Right,
22,10,1,1.765316800000619,['n'],0,left,['u'],0,3.588354800000161,0.2,1,0,AccAcc,4,18,Woman,Right,
23,10,1,2.216843500000323,['c'],1,left,['u'],0,0.14200509999955102,0.1,0,0,AccAcc,4,18,Woman,Right,
24,10,1,0.6839688999998543,['n'],0,left,['u'],0,0.1450715000000855,0.1,1,0,AccAcc,4,18,Woman,Right,
25,10,1,1.9663798999999926,['n'],1,right,['u'],0,0.23914380000042001,0.1,0,0,AccAcc,4,18,Woman,Right,
26,10,1,1.9491047000001345,['c'],1,left,['e'],1,0.3136752999998862,0.1,1,0,AccAcc,4,18,Woman,Right,
27,10,1,3.150340099999994,['c'],0,right,['u'],0,0.14498569999977917,0.4,1,0,AccAcc,4,18,Woman,Right,
28,10,1,2.367630300000201,['c'],0,right,['u'],0,0.1588024000002406,0.4,1,0,AccAcc,4,18,Woman,Right,
29,10,1,1.6161840999993728,['c'],0,right,['u'],0,0.18696710000040184,0.2,1,0,AccAcc,4,18,Woman,Right,
30,10,1,2.0493333000003986,['c'],1,left,['u'],0,0.13263809999989462,0.2,0,0,AccAcc,4,18,Woman,Right,
31,10,1,0.9673261999996612,['n'],0,left,['u'],0,0.25055430000065826,0.2,1,0,AccAcc,4,18,Woman,Right,
32,10,1,2.5018553999998403,['c'],0,right,['u'],0,0.7662926000002699,0.1,1,0,AccAcc,4,18,Woman,Right,
33,10,1,1.7823213000001488,['n'],0,left,['u'],0,0.2682516000004398,0.1,1,0,AccAcc,4,18,Woman,Right,
34,10,1,1.1511037999998734,['n'],1,right,['u'],0,0.26048720000017056,0.2,0,0,AccAcc,4,18,Woman,Right,
35,10,1,1.817146700000194,['n'],0,left,['u'],0,0.5493028999999297,0.1,1,0,AccAcc,4,18,Woman,Right,
36,10,1,2.317576100000224,['n'],0,left,['u'],0,1.1881503999993583,0.1,1,0,AccAcc,4,18,Woman,Right,
37,10,1,1.8675984000001336,['c'],0,right,['u'],0,0.31703099999958795,0.2,1,0,AccAcc,4,18,Woman,Right,
38,10,1,2.06691630000023,['n'],1,right,['u'],0,0.38396430000011605,0.1,0,0,AccAcc,4,18,Woman,Right,
39,10,1,1.7343247999997402,['n'],0,left,['u'],0,0.1896684000003006,0.4,1,0,AccAcc,4,18,Woman,Right,
40,10,1,1.251929700000801,['c'],0,right,['u'],0,0.998611100000744,0.4,1,0,AccAcc,4,18,Woman,Right,
41,10,1,3.149648300000081,['n'],1,right,['u'],0,0.5319999000003008,0.4,0,0,AccAcc,4,18,Woman,Right,
42,10,1,2.4670824999993783,['c'],1,left,['u'],0,0.6377941000000646,0.2,0,0,AccAcc,4,18,Woman,Right,
43,10,1,1.6015827999999601,['c'],0,right,['u'],0,0.19878609999977925,0.1,1,0,AccAcc,4,18,Woman,Right,
44,10,1,1.3675181999997221,['c'],1,left,['u'],0,0.12269640000067739,0.2,0,0,AccAcc,4,18,Woman,Right,
45,10,1,1.9342905999992581,['n'],0,left,['u'],0,0.18702310000026046,0.2,1,0,AccAcc,4,18,Woman,Right,
46,10,1,0.5012659000003623,['n'],1,right,['u'],0,0.0979605000002266,0.4,0,0,AccAcc,4,18,Woman,Right,
47,10,1,0.8996366000001217,['c'],1,left,['e'],1,0.28451640000002953,0.4,1,0,AccAcc,4,18,Woman,Right,
48,10,1,1.601224999999431,['c'],1,left,['e'],1,0.2592112000002089,0.4,1,0,AccAcc,4,18,Woman,Right,
49,10,1,1.5174514999998792,['n'],1,right,['u'],0,0.19101299999965704,0.2,0,0,AccAcc,4,18,Woman,Right,
50,10,1,2.667066799999702,['n'],1,right,['u'],0,0.09577720000015688,0.1,0,0,AccAcc,4,18,Woman,Right,
51,10,1,1.5171479000000545,['n'],1,right,['e'],1,0.8333567999998195,0.4,1,0,AccAcc,4,18,Woman,Right,
52,10,1,1.367415599999731,['c'],1,left,['e'],1,0.5716684999997597,0.4,1,0,AccAcc,4,18,Woman,Right,
53,10,1,1.2174808999998277,['c'],1,left,['u'],0,0.24674949999916862,0.2,0,0,AccAcc,4,18,Woman,Right,
54,10,1,2.416619399999945,['n'],0,left,['u'],0,0.35081220000029134,0.1,1,0,AccAcc,4,18,Woman,Right,
55,10,1,1.200733699999546,['c'],1,left,['u'],0,0.275528299999678,0.4,0,0,AccAcc,4,18,Woman,Right,
56,10,1,1.9017098999993323,['n'],0,left,['u'],0,0.3506320999995296,0.4,1,0,AccAcc,4,18,Woman,Right,
57,10,1,1.1676729999999225,['n'],1,right,['e'],1,0.6283917999999176,0.4,1,0,AccAcc,4,18,Woman,Right,
58,10,1,3.1835288000002038,['c'],0,right,['u'],0,0.2542679999996835,0.1,1,0,AccAcc,4,18,Woman,Right,
59,10,1,0.3011569000000236,['c'],1,left,['u'],0,0.09079640000072686,0.1,0,0,AccAcc,4,18,Woman,Right,
0,11,1,0.33520639999915147,['c'],1,left,['u'],0,0.10234570000011445,0.2,0,0,FastAcc,4,18,Woman,Right,
1,11,1,0.33454279999932623,['n'],1,right,['e'],1,0.11868419999973412,0.1,1,0,FastAcc,4,18,Woman,Right,
2,11,1,0.38447939999969094,['c'],1,left,['u'],0,0.11690210000051593,0.1,0,0,FastAcc,4,18,Woman,Right,
3,11,1,0.26790689999961614,['n'],0,left,['u'],0,0.16797480000059295,0.1,1,0,FastAcc,4,18,Woman,Right,
4,11,1,0.8348173000003953,['n'],0,left,['u'],0,0.16199409999990166,0.4,1,0,FastAcc,4,18,Woman,Right,
5,11,1,0.6168191999995543,['c'],1,left,['e'],1,0.10175600000002305,0.1,1,0,FastAcc,4,18,Woman,Right,
6,11,1,0.567832300000191,['c'],0,right,['e'],1,0.12476049999986571,0.2,0,0,FastAcc,4,18,Woman,Right,
7,11,1,0.9179322999998476,['c'],1,left,['e'],1,0.021904999999605934,0.2,1,0,FastAcc,4,18,Woman,Right,
8,11,1,1.0824421000006623,['n'],1,right,['e'],1,0.09316630000012083,0.1,1,0,FastAcc,4,18,Woman,Right,
9,11,1,0.6677694999998494,['n'],1,right,['u'],0,0.09657619999961753,0.1,0,0,FastAcc,4,18,Woman,Right,
10,11,1,1.1345445999995718,['n'],0,left,['u'],0,0.16120950000004086,0.1,1,0,FastAcc,4,18,Woman,Right,
11,11,1,1.150977000000239,['n'],1,right,['e'],1,0.17541479999999865,0.2,1,0,FastAcc,4,18,Woman,Right,
12,11,1,0.6012209999998959,['n'],0,left,['u'],0,0.14717059999929916,0.4,1,0,FastAcc,4,18,Woman,Right,
13,11,1,0.4343239999998332,['c'],0,right,['u'],0,0.26999350000005506,0.4,1,0,FastAcc,4,18,Woman,Right,
14,11,1,0.9847282000000632,['c'],0,right,['u'],0,0.1265678999998272,0.1,1,0,FastAcc,4,18,Woman,Right,
15,11,1,1.0494963999999527,['n'],0,left,['u'],0,0.14656809999996767,0.2,1,0,FastAcc,4,18,Woman,Right,
16,11,1,1.2344427999996697,['n'],0,left,['u'],0,0.46094690000063565,0.2,1,0,FastAcc,4,18,Woman,Right,
17,11,1,1.084570299999541,['n'],0,left,['u'],0,0.1780018999997992,0.1,1,0,FastAcc,4,18,Woman,Right,
18,11,1,0.5179782000004707,['c'],0,right,['u'],0,0.1050427000000127,0.4,1,0,FastAcc,4,18,Woman,Right,
19,11,1,1.2845428999999058,['n'],0,left,['u'],0,0.1319788000000699,0.1,1,0,FastAcc,4,18,Woman,Right,
20,11,1,1.6677440000003116,['n'],0,left,['u'],0,0.14265200000045297,0.2,1,0,FastAcc,4,18,Woman,Right,
21,11,1,0.9836046999998871,['c'],1,left,['u'],0,0.08430180000050314,0.2,0,0,FastAcc,4,18,Woman,Right,
22,11,1,1.3184787000000142,['n'],1,right,['u'],0,0.07837600000038947,0.4,0,0,FastAcc,4,18,Woman,Right,
23,11,1,0.9345730999993975,['c'],1,left,['e'],1,0.1679690999999366,0.1,1,0,FastAcc,4,18,Woman,Right,
24,11,1,1.8496150999999372,['n'],1,right,['u'],0,0.1224437000000762,0.2,0,0,FastAcc,4,18,Woman,Right,
25,11,1,1.0511231999998927,['n'],1,right,['u'],0,0.1574385000003531,0.1,0,0,FastAcc,4,18,Woman,Right,
26,11,1,1.8335512000003291,['c'],0,right,['u'],0,0.2563538000003973,0.1,1,0,FastAcc,4,18,Woman,Right,
27,11,1,1.467771999999968,['n'],0,left,['u'],0,0.23834760000045208,0.2,1,0,FastAcc,4,18,Woman,Right,
28,11,1,1.7014646000006906,['c'],1,left,['u'],0,0.33921860000009474,0.4,0,0,FastAcc,4,18,Woman,Right,
29,11,1,1.4845125000001644,['n'],1,right,['u'],0,0.2533467000002929,0.1,0,0,FastAcc,4,18,Woman,Right,
30,11,1,2.3840492000008453,['c'],0,right,['u'],0,0.40619080000033136,0.2,1,0,FastAcc,4,18,Woman,Right,
31,11,1,1.2003641000001153,['c'],1,left,['u'],0,0.10451310000007652,0.4,0,0,FastAcc,4,18,Woman,Right,
32,11,1,0.3348660000001473,['n'],1,right,['u'],0,0.1374694999994972,0.4,0,0,FastAcc,4,18,Woman,Right,
33,11,1,0.4511978000000454,['c'],0,right,['u'],0,0.13336310000067897,0.1,1,0,FastAcc,4,18,Woman,Right,
34,11,1,0.4509945999998308,['n'],1,right,['e'],1,0.1593098999992435,0.4,1,0,FastAcc,4,18,Woman,Right,
35,11,1,0.3347786999993332,['n'],0,left,['e'],1,0.12623200000052748,0.2,0,0,FastAcc,4,18,Woman,Right,
36,11,1,0.3340183000000252,['n'],1,right,['u'],0,0.07847489999949175,0.1,0,0,FastAcc,4,18,Woman,Right,
37,11,1,0.31715150000036374,['c'],0,right,['u'],0,0.048607300000185205,0.4,1,0,FastAcc,4,18,Woman,Right,
38,11,1,0.4017370999999912,['c'],1,left,['u'],0,1.8249017999996795,0.2,0,0,FastAcc,4,18,Woman,Right,
39,11,1,0.6836004999995566,['c'],1,left,['u'],0,0.1274051000000327,0.4,0,0,FastAcc,4,18,Woman,Right,
40,11,1,0.6842176000000109,['n'],1,right,['u'],0,0.16174550000050658,0.4,0,0,FastAcc,4,18,Woman,Right,
41,11,1,0.9840737000004083,['n'],1,right,['u'],0,0.2145624000004318,0.4,0,0,FastAcc,4,18,Woman,Right,
42,11,1,1.149369000000661,['n'],0,left,['u'],0,0.21027809999941383,0.2,1,0,FastAcc,4,18,Woman,Right,
43,11,1,1.0181030000003375,['c'],0,right,['u'],0,0.18060539999987668,0.2,1,0,FastAcc,4,18,Woman,Right,
44,11,1,1.2173197000001892,['c'],1,left,['u'],0,0.15897230000064155,0.4,0,0,FastAcc,4,18,Woman,Right,
45,11,1,0.9843938000003618,['n'],1,right,['u'],0,0.22730639999917912,0.4,0,0,FastAcc,4,18,Woman,Right,
46,11,1,1.2848934000003283,['c'],0,right,['u'],0,0.1855992000000697,0.2,1,0,FastAcc,4,18,Woman,Right,
47,11,1,1.567636400000083,['n'],0,left,['u'],0,0.2939266999992469,0.1,1,0,FastAcc,4,18,Woman,Right,
48,11,1,1.4682681000003868,['c'],1,left,['u'],0,0.4663764999995692,0.1,0,0,FastAcc,4,18,Woman,Right,
49,11,1,1.0678649000001315,['c'],0,right,['u'],0,0.21618250000028638,0.4,1,0,FastAcc,4,18,Woman,Right,
50,11,1,0.7343675000001895,['n'],1,right,['u'],0,0.17968840000048658,0.2,0,0,FastAcc,4,18,Woman,Right,
51,11,1,0.5016261000000668,['c'],1,left,['u'],0,0.12277400000039052,0.1,0,0,FastAcc,4,18,Woman,Right,
52,11,1,0.4017901000006532,['n'],1,right,['u'],0,0.1849090999994587,0.1,0,0,FastAcc,4,18,Woman,Right,
53,11,1,1.1514422999998715,['n'],0,left,['u'],0,0.2611571000006734,0.4,1,0,FastAcc,4,18,Woman,Right,
54,11,1,1.5181456000000253,['n'],0,left,['u'],0,0.22506020000037097,0.2,1,0,FastAcc,4,18,Woman,Right,
55,11,1,1.8004440000004251,['n'],0,left,['u'],0,0.21076950000042416,0.2,1,0,FastAcc,4,18,Woman,Right,
56,11,1,0.5186997000000702,['c'],1,left,['u'],0,0.16811690000031376,0.4,0,0,FastAcc,4,18,Woman,Right,
57,11,1,0.7843180999998367,['n'],1,right,['u'],0,0.14855290000014065,0.2,0,0,FastAcc,4,18,Woman,Right,
58,11,1,0.8339131000002453,['c'],0,right,['u'],0,0.14342039999974077,0.4,1,0,FastAcc,4,18,Woman,Right,
59,11,1,0.6847483999999895,['n'],1,right,['u'],0,0.1931390999998257,0.4,0,0,FastAcc,4,18,Woman,Right,
0,12,1,0.317369399999734,['c'],0,right,['u'],0,1.4120270000003075,0.2,1,0,FastFast,4,18,Woman,Right,
1,12,1,0.38384879999921395,['c'],0,right,['u'],0,0.11027680000006512,0.2,1,0,FastFast,4,18,Woman,Right,
2,12,1,0.40146550000008574,['c'],1,left,['u'],0,0.09251589999985299,0.2,0,0,FastFast,4,18,Woman,Right,
3,12,1,0.38465110000015557,['n'],1,right,['u'],0,0.10832969999955822,0.1,0,0,FastFast,4,18,Woman,Right,
4,12,1,0.5843623999999181,['n'],1,right,['u'],0,0.13081270000020595,0.2,0,0,FastFast,4,18,Woman,Right,
5,12,1,0.517764399999578,['c'],1,left,['u'],0,0.07536139999956504,0.2,0,0,FastFast,4,18,Woman,Right,
6,12,1,0.651165399999627,['c'],0,right,['u'],0,0.0488415999998324,0.1,1,0,FastFast,4,18,Woman,Right,
7,12,1,0.5333856000006563,['n'],1,right,['u'],0,0.14074690000052215,0.2,0,0,FastFast,4,18,Woman,Right,
8,12,1,0.9168843000006746,['n'],1,right,['u'],0,0.10013669999989361,0.1,0,0,FastFast,4,18,Woman,Right,
9,12,1,0.9844580999997561,['c'],0,right,['u'],0,0.1069643000000724,0.4,1,0,FastFast,4,18,Woman,Right,
10,12,1,0.5511219999998502,['n'],1,right,['u'],0,0.13154780000058963,0.2,0,0,FastFast,4,18,Woman,Right,
11,12,1,0.368159900000137,['c'],1,left,['u'],0,0.09731350000038219,0.4,0,0,FastFast,4,18,Woman,Right,
12,12,1,0.400630999999521,['c'],0,right,['u'],0,0.06370849999984785,0.2,1,0,FastFast,4,18,Woman,Right,
13,12,1,0.36745539999992616,['n'],1,right,['u'],0,0.04858630000035191,0.1,0,0,FastFast,4,18,Woman,Right,
14,12,1,0.35132850000081817,['c'],1,left,['u'],0,0.08291479999934381,0.2,0,0,FastFast,4,18,Woman,Right,
15,12,1,0.4335739999996804,['n'],0,left,['u'],0,0.09760910000022704,0.1,1,0,FastFast,4,18,Woman,Right,
16,12,1,0.3673214000000371,['c'],1,left,['u'],0,0.04802959999960876,0.2,0,0,FastFast,4,18,Woman,Right,
17,12,1,0.550984100000278,['n'],0,left,['e'],1,0.1062474000000293,0.2,0,0,FastFast,4,18,Woman,Right,
18,12,1,0.3511946999997235,['c'],1,left,['u'],0,0.13856940000005125,0.1,0,0,FastFast,4,18,Woman,Right,
19,12,1,0.36765160000049946,['n'],0,left,['e'],1,0.153078700000151,0.2,0,0,FastFast,4,18,Woman,Right,
20,12,1,0.3680051999999705,['n'],0,left,['u'],0,0.50219560000005,0.2,1,0,FastFast,4,18,Woman,Right,
21,12,1,1.9680115999999543,['c'],0,right,['u'],0,0.19804109999950015,0.4,1,0,FastFast,4,18,Woman,Right,
22,12,1,0.55112999999983,['n'],1,right,['u'],0,0.10687890000008338,0.4,0,0,FastFast,4,18,Woman,Right,
23,12,1,0.43473420000009355,['n'],0,left,['u'],0,0.11931419999928039,0.2,1,0,FastFast,4,18,Woman,Right,
24,12,1,1.2848837999999887,['n'],0,left,['u'],0,0.2739159999991898,0.1,1,0,FastFast,4,18,Woman,Right,
25,12,1,0.552776399999857,['c'],1,left,['u'],0,0.11532759999954578,0.4,0,0,FastFast,4,18,Woman,Right,
26,12,1,0.9663586999995459,['n'],0,left,['u'],0,0.13879199999973935,0.1,1,0,FastFast,4,18,Woman,Right,
27,12,1,0.8848078000000896,['n'],1,right,['u'],0,0.19576559999950405,0.1,0,0,FastFast,4,18,Woman,Right,
28,12,1,0.43455679999988206,['c'],1,left,['u'],0,0.17287200000009761,0.4,0,0,FastFast,4,18,Woman,Right,
29,12,1,0.8340828999998848,['c'],1,left,['u'],0,0.11920259999988048,0.4,0,0,FastFast,4,18,Woman,Right,
30,12,1,0.6677632000000813,['c'],1,left,['u'],0,0.09008989999983896,0.4,0,0,FastFast,4,18,Woman,Right,
31,12,1,0.5347741000005044,['n'],0,left,['u'],0,0.11584049999964918,0.1,1,0,FastFast,4,18,Woman,Right,
32,12,1,0.5677604000002248,['n'],0,left,['u'],0,0.17096929999934218,0.4,1,0,FastFast,4,18,Woman,Right,
33,12,1,0.3680025999992722,['c'],0,right,['u'],0,0.15147840000008728,0.1,1,0,FastFast,4,18,Woman,Right,
34,12,1,0.3679634000000078,['c'],0,right,['u'],0,0.10091610000017681,0.2,1,0,FastFast,4,18,Woman,Right,
35,12,1,0.40114119999998366,['n'],1,right,['u'],0,0.08317879999958677,0.1,0,0,FastFast,4,18,Woman,Right,
36,12,1,0.45076739999967685,['n'],0,left,['u'],0,0.4002221999999165,0.4,1,0,FastFast,4,18,Woman,Right,
37,12,1,0.3834638999996969,['c'],0,right,['u'],0,0.09969060000003083,0.4,1,0,FastFast,4,18,Woman,Right,
38,12,1,0.46734959999957937,['c'],1,left,['u'],0,0.06277139999929204,0.2,0,0,FastFast,4,18,Woman,Right,
39,12,1,0.6836307000003217,['n'],1,right,['u'],0,0.131512400000247,0.1,0,0,FastFast,4,18,Woman,Right,
40,12,1,1.2170014000002993,['c'],1,left,['u'],0,0.14325480000024982,0.1,0,0,FastFast,4,18,Woman,Right,
41,12,1,1.3346136999998635,['n'],1,right,['u'],0,0.1509832000001552,0.1,0,0,FastFast,4,18,Woman,Right,
42,12,1,0.8008344999998371,['n'],1,right,['u'],0,0.17949940000016795,0.2,0,0,FastFast,4,18,Woman,Right,
43,12,1,0.7504791999999725,['c'],1,left,['u'],0,0.1124839999993128,0.4,0,0,FastFast,4,18,Woman,Right,
44,12,1,1.1004579999998896,['n'],0,left,['u'],0,0.12989789999937784,0.1,1,0,FastFast,4,18,Woman,Right,
45,12,1,1.567545500000051,['n'],1,right,['e'],1,0.160286599999381,0.4,1,0,FastFast,4,18,Woman,Right,
46,12,1,1.1179887999996936,['c'],0,right,['u'],0,0.08019659999990836,0.4,1,0,FastFast,4,18,Woman,Right,
47,12,1,0.3516487999995661,['n'],0,left,['u'],0,0.14476979999926698,0.1,1,0,FastFast,4,18,Woman,Right,
48,12,1,0.4676257999999507,['c'],1,left,['u'],0,0.10801640000045154,0.2,0,0,FastFast,4,18,Woman,Right,
49,12,1,1.082762900000489,['n'],0,left,['u'],0,0.04736679999950866,0.1,1,0,FastFast,4,18,Woman,Right,
50,12,1,2.0010495000005903,['n'],1,right,['u'],0,0.09448059999976977,0.4,0,0,FastFast,4,18,Woman,Right,
51,12,1,0.951845399999911,['n'],1,right,['u'],0,0.10343019999982062,0.4,0,0,FastFast,4,18,Woman,Right,
52,12,1,1.017952399999558,['c'],0,right,['u'],0,0.23707680000006803,0.2,1,0,FastFast,4,18,Woman,Right,
53,12,1,0.9177564999999959,['c'],0,right,['u'],0,0.09819139999945037,0.4,1,0,FastFast,4,18,Woman,Right,
54,12,1,0.9324639000005845,['n'],0,left,['e'],1,0.027134200000546116,0.4,0,0,FastFast,4,18,Woman,Right,
55,12,1,1.2344782000000123,['c'],0,right,['u'],0,0.09069019999969896,0.4,1,0,FastFast,4,18,Woman,Right,
56,12,1,1.2012159999994765,['c'],0,right,['u'],0,0.13794700000016746,0.4,1,0,FastFast,4,18,Woman,Right,
57,12,1,1.3348075000003519,['c'],1,left,['u'],0,0.12964959999953862,0.1,0,0,FastFast,4,18,Woman,Right,
58,12,1,0.8844529999996666,['n'],0,left,['u'],0,0.10728389999985666,0.2,1,0,FastFast,4,18,Woman,Right,
59,12,1,1.1321992000002865,['n'],1,right,['u'],0,0.17340479999984382,0.1,0,0,FastFast,4,18,Woman,Right,
0,13,1,0.4179807000000437,['c'],1,left,['u'],0,0.09700800000064191,0.1,0,0,AccFast,4,18,Woman,Right,
1,13,1,0.33493909999924654,['c'],1,left,['u'],0,0.08117310000034195,0.4,0,0,AccFast,4,18,Woman,Right,
2,13,1,0.3178379999999379,['c'],1,left,['u'],0,0.08348089999981312,0.1,0,0,AccFast,4,18,Woman,Right,
3,13,1,0.26829929999985325,['c'],0,right,['u'],0,2.4078419999996186,0.1,1,0,AccFast,4,18,Woman,Right,
4,13,1,0.3667902999995931,['c'],0,right,['u'],0,0.10753759999988688,0.2,1,0,AccFast,4,18,Woman,Right,
5,13,1,0.45099740000023303,['n'],0,left,['u'],0,0.2957040000001143,0.2,1,0,AccFast,4,18,Woman,Right,
6,13,1,0.10046179999972082,['n'],1,right,['u'],0,0.21783499999946798,0.1,0,0,AccFast,4,18,Woman,Right,
7,13,1,0.5173529000003327,['n'],0,left,['u'],0,0.2390971000004356,0.4,1,0,AccFast,4,18,Woman,Right,
8,13,1,0.2992876999996952,['n'],0,left,['u'],0,0.17317550000007031,0.1,1,0,AccFast,4,18,Woman,Right,
9,13,1,0.7185169000003953,['n'],0,left,['u'],0,0.36275470000055066,0.1,1,0,AccFast,4,18,Woman,Right,
10,13,1,1.034356299999672,['c'],1,left,['u'],0,0.10144209999998566,0.2,0,0,AccFast,4,18,Woman,Right,
11,13,1,0.7505430999999589,['c'],1,left,['u'],0,0.10147179999967193,0.2,0,0,AccFast,4,18,Woman,Right,
12,13,1,0.34957329999997455,['n'],1,right,['u'],0,0.11790059999930236,0.2,0,0,AccFast,4,18,Woman,Right,
13,13,1,0.30170690000068134,['n'],1,right,['u'],0,0.10402070000054664,0.1,0,0,AccFast,4,18,Woman,Right,
14,13,1,0.334643899999719,['c'],1,left,['u'],0,0.1684981999997035,0.4,0,0,AccFast,4,18,Woman,Right,
15,13,1,0.38428380000004836,['c'],0,right,['u'],0,0.1487411999996766,0.4,1,0,AccFast,4,18,Woman,Right,
16,13,1,0.3169283000006544,['c'],1,left,['u'],0,0.18090860000029352,0.4,0,0,AccFast,4,18,Woman,Right,
17,13,1,0.4171134999996866,['n'],1,right,['u'],0,0.12628789999962464,0.1,0,0,AccFast,4,18,Woman,Right,
18,13,1,0.7004305000000386,['n'],1,right,['u'],0,0.15979320000042208,0.2,0,0,AccFast,4,18,Woman,Right,
19,13,1,0.46775350000007165,['n'],1,right,['u'],0,0.2492950000005294,0.2,0,0,AccFast,4,18,Woman,Right,
20,13,1,0.6843961000004128,['c'],0,right,['u'],0,0.838358099999823,0.1,1,0,AccFast,4,18,Woman,Right,
21,13,1,0.717992800000502,['c'],0,right,['e'],1,0.29872379999960685,0.4,0,0,AccFast,4,18,Woman,Right,
22,13,1,0.4332162000000608,['n'],0,left,['u'],0,0.1439393000000564,0.4,1,0,AccFast,4,18,Woman,Right,
23,13,1,0.3678543999994872,['c'],1,left,['u'],0,0.1581052000001364,0.1,0,0,AccFast,4,18,Woman,Right,
24,13,1,0.38484390000030544,['n'],0,left,['u'],0,0.12289640000017243,0.2,1,0,AccFast,4,18,Woman,Right,
25,13,1,0.3845635999996375,['c'],0,right,['u'],0,0.15319039999940287,0.4,1,0,AccFast,4,18,Woman,Right,
26,13,1,0.5340249999999287,['n'],1,right,['u'],0,0.08020939999914845,0.4,0,0,AccFast,4,18,Woman,Right,
27,13,1,0.534248199999638,['c'],0,right,['u'],0,0.12160629999925732,0.2,1,0,AccFast,4,18,Woman,Right,
28,13,1,0.36782709999988583,['n'],0,left,['u'],0,0.1366027000003669,0.1,1,0,AccFast,4,18,Woman,Right,
29,13,1,0.8655087000006461,['n'],1,right,['u'],0,0.1636278999994829,0.4,0,0,AccFast,4,18,Woman,Right,
30,13,1,0.43524489999981597,['c'],1,left,['u'],0,0.1568771000002016,0.1,0,0,AccFast,4,18,Woman,Right,
31,13,1,0.6340702000006786,['c'],1,left,['u'],0,0.11189629999989847,0.4,0,0,AccFast,4,18,Woman,Right,
32,13,1,0.5011806000002252,['n'],0,left,['u'],0,0.12221779999981663,0.4,1,0,AccFast,4,18,Woman,Right,
33,13,1,0.3668554000005315,['c'],1,left,['u'],0,0.10512660000040341,0.2,0,0,AccFast,4,18,Woman,Right,
34,13,1,0.3832740999996531,['n'],0,left,['u'],0,0.07207610000023124,0.4,1,0,AccFast,4,18,Woman,Right,
35,13,1,0.5656347000003734,['n'],1,right,['u'],0,0.1614538999992874,0.1,0,0,AccFast,4,18,Woman,Right,
36,13,1,0.7505410000003394,['c'],1,left,['u'],0,0.20663520000016433,0.4,0,0,AccFast,4,18,Woman,Right,
37,13,1,0.46811040000011417,['c'],1,left,['u'],0,0.10210120000010647,0.2,0,0,AccFast,4,18,Woman,Right,
38,13,1,0.6836006000003181,['n'],1,right,['u'],0,0.12125130000003992,0.2,0,0,AccFast,4,18,Woman,Right,
39,13,1,0.6844285999995918,['n'],0,left,['u'],0,0.2673536000002059,0.4,1,0,AccFast,4,18,Woman,Right,
40,13,1,1.118122200000471,['n'],1,right,['e'],1,0.19845770000029006,0.4,1,0,AccFast,4,18,Woman,Right,
41,13,1,0.8007102999999915,['n'],1,right,['e'],1,0.19277400000009948,0.4,1,0,AccFast,4,18,Woman,Right,
42,13,1,1.2182906999996703,['n'],1,right,['u'],0,0.18711890000031417,0.1,0,0,AccFast,4,18,Woman,Right,
43,13,1,1.184407900000224,['n'],1,right,['e'],1,0.2784467000001314,0.2,1,0,AccFast,4,18,Woman,Right,
44,13,1,1.1343933000007382,['n'],1,right,['u'],0,0.17645819999961532,0.4,0,0,AccFast,4,18,Woman,Right,
45,13,1,1.0512712000008833,['n'],1,right,['u'],0,0.034071099999891885,0.1,0,0,AccFast,4,18,Woman,Right,
46,13,1,1.3010967000000164,['n'],0,left,['u'],0,0.3029755000006844,0.2,1,0,AccFast,4,18,Woman,Right,
47,13,1,0.9171016999998756,['n'],1,right,['u'],0,0.017165600000225822,0.2,0,0,AccFast,4,18,Woman,Right,
48,13,1,1.3010861000002478,['c'],0,right,['u'],0,0.22290070000053674,0.2,1,0,AccFast,4,18,Woman,Right,
49,13,1,1.416774099999202,['c'],0,right,['u'],0,0.12831009999990783,0.1,1,0,AccFast,4,18,Woman,Right,
50,13,1,1.5172222999999576,['n'],0,left,['u'],0,0.19239569999990636,0.1,1,0,AccFast,4,18,Woman,Right,
51,13,1,1.3515023999998448,['c'],1,left,['u'],0,0.11825239999961923,0.2,0,0,AccFast,4,18,Woman,Right,
52,13,1,1.1179032000000007,['c'],1,left,['u'],0,0.10255340000003343,0.4,0,0,AccFast,4,18,Woman,Right,
53,13,1,1.3012237000002642,['c'],1,left,['u'],0,0.1447496000000683,0.1,0,0,AccFast,4,18,Woman,Right,
54,13,1,0.4845596999994086,['n'],1,right,['u'],0,0.2824975000003178,0.1,0,0,AccFast,4,18,Woman,Right,
55,13,1,0.4503439000000071,['n'],1,right,['u'],0,0.20728500000041095,0.1,0,0,AccFast,4,18,Woman,Right,
56,13,1,0.3675229999998919,['n'],0,left,['u'],0,0.1868862999999692,0.2,1,0,AccFast,4,18,Woman,Right,
57,13,1,0.5840051000004678,['c'],1,left,['u'],0,0.12643260000004375,0.4,0,0,AccFast,4,18,Woman,Right,
58,13,1,0.36818070000026637,['c'],0,right,['u'],0,0.10942470000009052,0.2,1,0,AccFast,4,18,Woman,Right,
59,13,1,0.3345140999999785,['c'],0,right,['u'],0,0.15830170000026555,0.2,1,0,AccFast,4,18,Woman,Right,
0,14,1,1.4505120000003444,['c'],1,left,['u'],0,0.3684504000002562,0.2,0,0,AccAcc,4,18,Woman,Right,
1,14,1,2.967337299999599,['n'],0,left,['u'],0,0.30184120000012626,0.4,1,0,AccAcc,4,18,Woman,Right,
2,14,1,1.1840359999996508,['c'],0,right,['u'],0,0.35657589999937045,0.2,1,0,AccAcc,4,18,Woman,Right,
3,14,1,0.6827289000002565,['n'],1,right,['u'],0,0.20628010000018548,0.2,0,0,AccAcc,4,18,Woman,Right,
4,14,1,0.9171549000002415,['c'],1,left,['u'],0,0.14741919999960373,0.2,0,0,AccAcc,4,18,Woman,Right,
5,14,1,0.5013324000001376,['n'],1,right,['u'],0,0.1878774999995585,0.4,0,0,AccAcc,4,18,Woman,Right,
6,14,1,0.7180146000000605,['c'],1,left,['u'],0,0.17062690000057046,0.4,0,0,AccAcc,4,18,Woman,Right,
7,14,1,0.5673405999996248,['c'],0,right,['u'],0,0.19100990000060847,0.4,1,0,AccAcc,4,18,Woman,Right,
8,14,1,1.467157000000043,['n'],0,left,['u'],0,0.19098180000037246,0.4,1,0,AccAcc,4,18,Woman,Right,
9,14,1,1.0508669000000737,['n'],1,right,['u'],0,0.2880596000004516,0.4,0,0,AccAcc,4,18,Woman,Right,
10,14,1,1.0006121000005805,['c'],0,right,['u'],0,0.1913660999998683,0.2,1,0,AccAcc,4,18,Woman,Right,
11,14,1,0.8155015000002095,['n'],0,left,['u'],0,0.1860631999998077,0.4,1,0,AccAcc,4,18,Woman,Right,
12,14,1,0.7510806999998749,['c'],0,right,['u'],0,0.2943329999998241,0.2,1,0,AccAcc,4,18,Woman,Right,
13,14,1,0.9499571000005744,['n'],0,left,['u'],0,0.03939489999993384,0.4,1,0,AccAcc,4,18,Woman,Right,
14,14,1,0.5844005999997535,['c'],1,left,['u'],0,0.14499330000035116,0.4,0,0,AccAcc,4,18,Woman,Right,
15,14,1,0.8170576000002256,['n'],1,right,['u'],0,0.20455700000002253,0.1,0,0,AccAcc,4,18,Woman,Right,
16,14,1,0.5512807000004614,['c'],1,left,['u'],0,0.1608862000002773,0.1,0,0,AccAcc,4,18,Woman,Right,
17,14,1,0.5337841999999,['c'],1,left,['u'],0,0.16777809999985038,0.1,0,0,AccAcc,4,18,Woman,Right,
18,14,1,1.4178586999996696,['n'],1,right,['u'],0,0.1868731000004118,0.4,0,0,AccAcc,4,18,Woman,Right,
19,14,1,0.8344500000002881,['n'],0,left,['u'],0,0.16454309999971883,0.2,1,0,AccAcc,4,18,Woman,Right,
20,14,1,0.8664871999999377,['c'],0,right,['u'],0,0.23800260000007256,0.1,1,0,AccAcc,4,18,Woman,Right,
21,14,1,1.1842765000001236,['c'],1,left,['u'],0,0.24732010000025184,0.4,0,0,AccAcc,4,18,Woman,Right,
22,14,1,1.3334708000002138,['c'],1,left,['u'],0,0.18655430000035267,0.4,0,0,AccAcc,4,18,Woman,Right,
23,14,1,1.667686799999501,['n'],1,right,['e'],1,0.2585422000001927,0.4,1,0,AccAcc,4,18,Woman,Right,
24,14,1,0.7175492999995186,['n'],1,right,['u'],0,0.31823030000032304,0.1,0,0,AccAcc,4,18,Woman,Right,
25,14,1,0.4010996000006344,['n'],0,left,['u'],0,0.1480875000006563,0.4,1,0,AccAcc,4,18,Woman,Right,
26,14,1,0.4673787000001539,['c'],1,left,['u'],0,0.302090600000156,0.2,0,0,AccAcc,4,18,Woman,Right,
27,14,1,0.5852543000000878,['n'],0,left,['u'],0,0.12464229999932286,0.1,1,0,AccAcc,4,18,Woman,Right,
28,14,1,0.5183491999996477,['c'],0,right,['u'],0,0.13323299999956362,0.1,1,0,AccAcc,4,18,Woman,Right,
29,14,1,0.4170813000000635,['n'],1,right,['u'],0,0.13031380000029458,0.1,0,0,AccAcc,4,18,Woman,Right,
30,14,1,0.8668297000003804,['c'],1,left,['u'],0,0.17167829999925743,0.1,0,0,AccAcc,4,18,Woman,Right,
31,14,1,0.5332694000007905,['n'],1,right,['u'],0,0.25830169999971986,0.2,0,0,AccAcc,4,18,Woman,Right,
32,14,1,0.4504882999999609,['c'],0,right,['u'],0,0.18421570000009524,0.2,1,0,AccAcc,4,18,Woman,Right,
33,14,1,0.5514364999999088,['c'],0,right,['u'],0,0.15751120000004448,0.2,1,0,AccAcc,4,18,Woman,Right,
34,14,1,0.28325759999916045,['n'],1,right,['u'],0,0.14224009999998088,0.1,0,0,AccAcc,4,18,Woman,Right,
35,14,1,0.8677180000004228,['c'],1,left,['u'],0,0.10447900000053778,0.4,0,0,AccAcc,4,18,Woman,Right,
36,14,1,1.067411799999718,['c'],0,right,['u'],0,0.17245050000019546,0.1,1,0,AccAcc,4,18,Woman,Right,
37,14,1,0.3843866999995953,['c'],0,right,['u'],0,0.12036340000031487,0.2,1,0,AccAcc,4,18,Woman,Right,
38,14,1,0.3179235999996308,['c'],1,left,['u'],0,0.0572664999999688,0.2,0,0,AccAcc,4,18,Woman,Right,
39,14,1,0.3351256000005378,['c'],0,right,['u'],0,0.10807639999984531,0.1,1,0,AccAcc,4,18,Woman,Right,
40,14,1,0.2672191000001476,['n'],1,right,['u'],0,0.12806730000011157,0.2,0,0,AccAcc,4,18,Woman,Right,
41,14,1,0.33382629999960045,['n'],0,left,['u'],0,0.09595600000011473,0.4,1,0,AccAcc,4,18,Woman,Right,
42,14,1,0.9680801000004067,['n'],0,left,['u'],0,0.18355260000043927,0.2,1,0,AccAcc,4,18,Woman,Right,
43,14,1,0.6845576000005167,['n'],1,right,['u'],0,0.15164590000040334,0.4,0,0,AccAcc,4,18,Woman,Right,
44,14,1,0.43453959999988,['n'],1,right,['u'],0,0.1624283999999534,0.1,0,0,AccAcc,4,18,Woman,Right,
45,14,1,1.1834374999998545,['c'],1,left,['u'],0,0.1427813000000242,0.4,0,0,AccAcc,4,18,Woman,Right,
46,14,1,1.0012358000003587,['n'],0,left,['u'],0,2.35561510000025,0.2,1,0,AccAcc,4,18,Woman,Right,
47,14,1,1.3676412999993772,['c'],1,left,['u'],0,0.0974568999999974,0.2,0,0,AccAcc,4,18,Woman,Right,
48,14,1,0.9178071999995154,['n'],0,left,['u'],0,0.15498500000012427,0.2,1,0,AccAcc,4,18,Woman,Right,
49,14,1,0.6171922999992603,['n'],1,right,['u'],0,0.17445779999980005,0.2,0,0,AccAcc,4,18,Woman,Right,
50,14,1,0.9676853999999366,['n'],0,left,['u'],0,0.1475756999998339,0.1,1,0,AccAcc,4,18,Woman,Right,
51,14,1,0.8174877999999808,['c'],1,left,['u'],0,0.12761549999959243,0.4,0,0,AccAcc,4,18,Woman,Right,
52,14,1,0.36555430000044,['n'],1,right,['u'],0,0.11148599999978615,0.1,0,0,AccAcc,4,18,Woman,Right,
53,14,1,0.36859479999930045,['n'],0,left,['u'],0,0.19017110000004323,0.1,1,0,AccAcc,4,18,Woman,Right,
54,14,1,0.6679820999997901,['c'],0,right,['u'],0,0.11027919999924052,0.1,1,0,AccAcc,4,18,Woman,Right,
55,14,1,0.3349912999992739,['n'],0,left,['u'],0,0.1587930999994569,0.1,1,0,AccAcc,4,18,Woman,Right,
56,14,1,0.23464729999977862,['n'],1,right,['u'],0,0.12980349999997998,0.2,0,0,AccAcc,4,18,Woman,Right,
57,14,1,0.3670289000001503,['c'],0,right,['u'],0,0.09615359999952489,0.4,1,0,AccAcc,4,18,Woman,Right,
58,14,1,0.31763930000033724,['c'],0,right,['u'],0,0.09812869999950635,0.1,1,0,AccAcc,4,18,Woman,Right,
59,14,1,0.3331218000002991,['c'],1,left,['u'],0,0.08387760000005073,0.1,0,0,AccAcc,4,18,Woman,Right,
0,15,1,0.66728460000013,['c'],0,right,['u'],0,0.6872116000004098,0.2,1,0,FastAcc,4,18,Woman,Right,
1,15,1,0.334651500000291,['c'],1,left,['u'],0,0.3126758999997037,0.4,0,0,FastAcc,4,18,Woman,Right,
2,15,1,0.3672487000003457,['c'],0,right,['u'],0,0.25567880000016885,0.1,1,0,FastAcc,4,18,Woman,Right,
3,15,1,0.33364029999938793,['c'],0,right,['u'],0,0.29881010000008246,0.2,1,0,FastAcc,4,18,Woman,Right,
4,15,1,0.9177251999999498,['n'],1,right,['u'],0,0.5721476999997321,0.4,0,0,FastAcc,4,18,Woman,Right,
5,15,1,0.4170414999998684,"['n', 'c']",1,right,['u'],0,0.2954628999996203,0.4,0,0,FastAcc,4,18,Woman,Right,
6,15,1,0.4843086000000767,['n'],0,left,['u'],0,0.5062339000005522,0.4,1,0,FastAcc,4,18,Woman,Right,
7,15,1,0.4010667000002286,['n'],1,right,['u'],0,0.23259990000042308,0.1,0,0,FastAcc,4,18,Woman,Right,
8,15,1,0.3345713999997315,['c'],0,right,['u'],0,0.051926900000580645,0.2,1,0,FastAcc,4,18,Woman,Right,
9,15,1,0.3010959000002913,['c'],1,left,['u'],0,0.07219330000043556,0.2,0,0,FastAcc,4,18,Woman,Right,
10,15,1,0.38445749999937107,['n'],1,right,['u'],0,0.07236089999969408,0.1,0,0,FastAcc,4,18,Woman,Right,
11,15,1,0.4347551000000749,['n'],1,right,['u'],0,0.13466499999958614,0.4,0,0,FastAcc,4,18,Woman,Right,
12,15,1,0.3338530000000901,['n'],0,left,['u'],0,0.34226479999961157,0.1,1,0,FastAcc,4,18,Woman,Right,
13,15,1,0.7517573000004631,['n'],1,right,['u'],0,0.1571991999999227,0.1,0,0,FastAcc,4,18,Woman,Right,
14,15,1,0.3351477000005616,['c'],0,right,['e'],1,0.3801822000004904,0.2,0,0,FastAcc,4,18,Woman,Right,
15,15,1,0.25102530000003753,['n'],1,right,['e'],1,0.11814899999990303,0.4,1,0,FastAcc,4,18,Woman,Right,
16,15,1,0.30058199999984936,['n'],0,left,['e'],1,0.16684020000047894,0.1,0,0,FastAcc,4,18,Woman,Right,
17,15,1,0.2677585999999792,['c'],1,left,['u'],0,0.11964199999965786,0.2,0,0,FastAcc,4,18,Woman,Right,
18,15,1,0.2845507000001817,['c'],1,left,['u'],0,0.10575710000011895,0.4,0,0,FastAcc,4,18,Woman,Right,
19,15,1,0.7678765999999086,['n'],0,left,['u'],0,0.1215343000003486,0.1,1,0,FastAcc,4,18,Woman,Right,
20,15,1,1.217876000000615,['c'],1,left,['e'],1,0.23029959999985294,0.1,1,0,FastAcc,4,18,Woman,Right,
21,15,1,0.9345253000001321,['c'],0,right,['u'],0,0.21801649999997608,0.2,1,0,FastAcc,4,18,Woman,Right,
22,15,1,0.4837732000005417,['n'],0,left,['u'],0,0.112181800000144,0.1,1,0,FastAcc,4,18,Woman,Right,
23,15,1,0.5014086999999563,['n'],1,right,['u'],0,0.13783910000074684,0.2,0,0,FastAcc,4,18,Woman,Right,
24,15,1,0.48533640000005107,['c'],1,left,['u'],0,0.09948150000036549,0.2,0,0,FastAcc,4,18,Woman,Right,
25,15,1,0.43411960000048566,['c'],0,right,['u'],0,0.08052139999927022,0.2,1,0,FastAcc,4,18,Woman,Right,
26,15,1,0.38428060000023834,['n'],0,left,['u'],0,0.11206530000072235,0.1,1,0,FastAcc,4,18,Woman,Right,
27,15,1,1.6997303999996802,['c'],1,left,['e'],1,0.18698380000023462,0.4,1,0,FastAcc,4,18,Woman,Right,
28,15,1,0.3514755999995032,['c'],0,right,['u'],0,0.13451210000039282,0.1,1,0,FastAcc,4,18,Woman,Right,
29,15,1,0.3682811999997284,['n'],1,right,['u'],0,0.05281899999954476,0.1,0,0,FastAcc,4,18,Woman,Right,
30,15,1,0.30123080000066693,"['n', 'c']",1,right,['u'],0,0.2009729999999763,0.4,0,0,FastAcc,4,18,Woman,Right,
31,15,1,0.33414100000027247,['c'],0,right,"['u', 'e']",0,0.21405570000024454,0.4,1,0,FastAcc,4,18,Woman,Right,
32,15,1,0.3349065000002156,['c'],1,left,['u'],0,0.21080819999951927,0.2,0,0,FastAcc,4,18,Woman,Right,
33,15,1,0.384112599999753,['n'],0,left,['e'],1,0.25373750000017026,0.1,0,0,FastAcc,4,18,Woman,Right,
34,15,1,1.2327279999999519,['n'],1,right,['u'],0,0.10087419999945269,0.2,0,0,FastAcc,4,18,Woman,Right,
35,15,1,0.34927020000031916,"['n', 'c']",1,right,"['u', 'e']",0,0.16557259999990492,0.1,0,0,FastAcc,4,18,Woman,Right,
36,15,1,0.5847515000004933,['n'],0,left,['u'],0,0.15280410000013944,0.4,1,0,FastAcc,4,18,Woman,Right,
37,15,1,0.3012979000004634,['c'],0,right,['u'],0,0.1369801999999254,0.1,1,0,FastAcc,4,18,Woman,Right,
38,15,1,1.0178132999999434,['c'],0,right,['u'],0,0.1092555999994147,0.2,1,0,FastAcc,4,18,Woman,Right,
39,15,1,0.4846121000000494,['n'],0,left,['u'],0,0.19991320000008272,0.2,1,0,FastAcc,4,18,Woman,Right,
40,15,1,0.318022700000256,['n'],0,left,['u'],0,0.1338433000000805,0.2,1,0,FastAcc,4,18,Woman,Right,
41,15,1,0.30129070000020874,['c'],0,right,['u'],0,0.1185739000002286,0.4,1,0,FastAcc,4,18,Woman,Right,
42,15,1,0.18418339999971067,['c'],1,left,"['u', 'e']",0,0.17324139999982435,0.4,0,0,FastAcc,4,18,Woman,Right,
43,15,1,0.05153130000053352,['c'],0,right,"['u', 'e']",0,0.1827791999994588,0.2,1,0,FastAcc,4,18,Woman,Right,
44,15,1,0.1845605999997133,['n'],0,left,"['u', 'e']",0,0.1863041999995403,0.1,1,0,FastAcc,4,18,Woman,Right,
45,15,1,0.26830470000004425,['n'],0,left,"['u', 'e']",0,0.13832240000010643,0.4,1,0,FastAcc,4,18,Woman,Right,
46,15,1,0.2843914000004588,['c'],1,left,['u'],0,0.0916215999995984,0.2,0,0,FastAcc,4,18,Woman,Right,
47,15,1,0.367993299999398,['n'],1,right,"['u', 'e']",0,0.26837070000055974,0.1,0,0,FastAcc,4,18,Woman,Right,
48,15,1,0.30156410000017786,['c'],1,left,"['u', 'e']",0,0.23174159999962285,0.4,0,0,FastAcc,4,18,Woman,Right,
49,15,1,0.28500760000042646,['c'],1,left,['u'],0,0.021221999999397667,0.1,0,0,FastAcc,4,18,Woman,Right,
50,15,1,0.3502846999999747,['n'],0,left,"['u', 'e']",0,0.2017959000004339,0.4,1,0,FastAcc,4,18,Woman,Right,
51,15,1,0.134381900000335,"['n', 'c']",0,left,"['u', 'e']",0,0.1579728000006071,0.4,1,0,FastAcc,4,18,Woman,Right,
52,15,1,0.23395690000052127,['n'],1,right,['u'],0,0.16037379999943369,0.1,0,0,FastAcc,4,18,Woman,Right,
53,15,1,0.3012357999996311,['c'],1,left,['e'],1,0.11262159999932919,0.4,1,0,FastAcc,4,18,Woman,Right,
54,15,1,0.30164759999934176,['c'],1,left,['u'],0,0.11437070000010863,0.2,0,0,FastAcc,4,18,Woman,Right,
55,15,1,0.36794129999998404,['n'],0,left,['e'],1,0.11321510000016133,0.2,0,0,FastAcc,4,18,Woman,Right,
56,15,1,0.3513248000008389,['n'],1,right,['u'],0,0.20894889999999577,0.2,0,0,FastAcc,4,18,Woman,Right,
57,15,1,0.28388489999997546,['n'],1,right,['u'],0,0.14358009999978094,0.4,0,0,FastAcc,4,18,Woman,Right,
58,15,1,0.3338007000002108,['c'],0,right,['u'],0,0.1271388000004663,0.4,1,0,FastAcc,4,18,Woman,Right,
59,15,1,0.4514558999999281,['c'],1,left,['u'],0,0.0910223999999289,0.1,0,0,FastAcc,4,18,Woman,Right,
