withinblocktrial,block,block_repetition,rt,resp,cor,cresp,conf_press,cj,rtconf,coherence,metacognition,slow_trial,manipulation,sub,age,gender,handedness,
0,1,1,1.1332228000001123,['c'],0,right,none,-99,-99,0.5,-99,0,none,9,19,Woman,Right,
1,1,1,1.4330344999998488,['n'],1,right,none,-99,-99,0.5,-99,0,none,9,19,Woman,Right,
2,1,1,0.6998932999999852,['n'],1,right,none,-99,-99,0.5,-99,0,none,9,19,Woman,Right,
3,1,1,0.5171502999996846,['c'],1,left,none,-99,-99,0.5,-99,0,none,9,19,Woman,Right,
4,1,1,0.8186335000000327,['n'],0,left,none,-99,-99,0.5,-99,0,none,9,19,Woman,Right,
5,1,1,0.6508957999999438,['c'],1,left,none,-99,-99,0.5,-99,0,none,9,19,Woman,Right,
6,1,1,0.5837681000002704,['n'],1,right,none,-99,-99,0.5,-99,0,none,9,19,Woman,Right,
7,1,1,0.6172858999998425,['c'],1,left,none,-99,-99,0.5,-99,0,none,9,19,Woman,Right,
8,1,1,0.801202099999955,['c'],1,left,none,-99,-99,0.5,-99,0,none,9,19,Woman,Right,
9,1,1,0.5007508000003327,['c'],1,left,none,-99,-99,0.5,-99,0,none,9,19,Woman,Right,
10,1,1,0.8337200000000848,['n'],1,right,none,-99,-99,0.5,-99,0,none,9,19,Woman,Right,
11,1,1,0.4324409000000742,['c'],1,left,none,-99,-99,0.5,-99,0,none,9,19,Woman,Right,
12,1,1,0.5185233999995944,['n'],1,right,none,-99,-99,0.5,-99,0,none,9,19,Woman,Right,
13,1,1,1.0323633999996673,['c'],0,right,none,-99,-99,0.5,-99,0,none,9,19,Woman,Right,
14,1,1,0.9842176000001928,['n'],1,right,none,-99,-99,0.5,-99,0,none,9,19,Woman,Right,
15,1,1,0.648938399999679,['n'],0,left,none,-99,-99,0.5,-99,0,none,9,19,Woman,Right,
16,1,1,0.9664987999999539,['c'],1,left,none,-99,-99,0.5,-99,0,none,9,19,Woman,Right,
17,1,1,0.6508972999999969,['n'],1,right,none,-99,-99,0.5,-99,0,none,9,19,Woman,Right,
18,1,1,0.5507820000002539,['n'],1,right,none,-99,-99,0.5,-99,0,none,9,19,Woman,Right,
19,1,1,0.566932000000179,['n'],1,right,none,-99,-99,0.5,-99,0,none,9,19,Woman,Right,
20,1,1,0.5004530999999588,['n'],1,right,none,-99,-99,0.5,-99,0,none,9,19,Woman,Right,
21,1,1,0.5826907000000574,['c'],1,left,none,-99,-99,0.5,-99,0,none,9,19,Woman,Right,
22,1,1,0.7003740999998627,['n'],0,left,none,-99,-99,0.5,-99,0,none,9,19,Woman,Right,
23,1,1,0.5336247000000185,['c'],1,left,none,-99,-99,0.5,-99,0,none,9,19,Woman,Right,
0,1,2,1.1831136999999217,['c'],1,left,none,-99,-99,0.5,-99,0,none,9,19,Woman,Right,
1,1,2,0.4837036999997508,['c'],1,left,none,-99,-99,0.5,-99,0,none,9,19,Woman,Right,
2,1,2,0.4160589000002801,['c'],1,left,none,-99,-99,0.5,-99,0,none,9,19,Woman,Right,
3,1,2,0.7000654999997096,['n'],1,right,none,-99,-99,0.5,-99,0,none,9,19,Woman,Right,
4,1,2,0.5659971999998561,['n'],1,right,none,-99,-99,0.5,-99,0,none,9,19,Woman,Right,
5,1,2,0.533226200000172,['n'],1,right,none,-99,-99,0.5,-99,0,none,9,19,Woman,Right,
6,1,2,0.41739099999995233,['c'],1,left,none,-99,-99,0.5,-99,0,none,9,19,Woman,Right,
7,1,2,0.5176876999998967,['c'],0,right,none,-99,-99,0.5,-99,0,none,9,19,Woman,Right,
8,1,2,0.6500673000000461,['n'],1,right,none,-99,-99,0.5,-99,0,none,9,19,Woman,Right,
9,1,2,0.7001588000002812,['n'],1,right,none,-99,-99,0.5,-99,0,none,9,19,Woman,Right,
10,1,2,0.5343551999999363,['n'],1,right,none,-99,-99,0.5,-99,0,none,9,19,Woman,Right,
11,1,2,0.44861509999964255,['n'],1,right,none,-99,-99,0.5,-99,0,none,9,19,Woman,Right,
12,1,2,0.6178707999997641,['n'],0,left,none,-99,-99,0.5,-99,0,none,9,19,Woman,Right,
13,1,2,0.7671503999999914,['n'],0,left,none,-99,-99,0.5,-99,0,none,9,19,Woman,Right,
14,1,2,0.767775299999812,['c'],0,right,none,-99,-99,0.5,-99,0,none,9,19,Woman,Right,
15,1,2,0.5841976000001523,['c'],1,left,none,-99,-99,0.5,-99,0,none,9,19,Woman,Right,
16,1,2,0.6155622000001131,['c'],0,right,none,-99,-99,0.5,-99,0,none,9,19,Woman,Right,
17,1,2,0.5512597000001733,['c'],1,left,none,-99,-99,0.5,-99,0,none,9,19,Woman,Right,
18,1,2,0.7507719999998699,['n'],0,left,none,-99,-99,0.5,-99,0,none,9,19,Woman,Right,
19,1,2,1.101273200000378,['n'],1,right,none,-99,-99,0.5,-99,0,none,9,19,Woman,Right,
20,1,2,0.46655710000004547,['c'],1,left,none,-99,-99,0.5,-99,0,none,9,19,Woman,Right,
21,1,2,0.4491805999996359,['c'],1,left,none,-99,-99,0.5,-99,0,none,9,19,Woman,Right,
22,1,2,0.5164260999999897,['c'],1,left,none,-99,-99,0.5,-99,0,none,9,19,Woman,Right,
23,1,2,0.6492278000000624,['n'],1,right,none,-99,-99,0.5,-99,0,none,9,19,Woman,Right,
0,1,3,0.7671235999996497,['n'],1,right,none,-99,-99,0.5,-99,0,none,9,19,Woman,Right,
1,1,3,0.5178008000002592,['c'],1,left,none,-99,-99,0.5,-99,0,none,9,19,Woman,Right,
2,1,3,0.3512247999997271,['c'],0,right,none,-99,-99,0.5,-99,0,none,9,19,Woman,Right,
3,1,3,0.5335368999999446,['c'],1,left,none,-99,-99,0.5,-99,0,none,9,19,Woman,Right,
4,1,3,0.483933700000307,['n'],1,right,none,-99,-99,0.5,-99,0,none,9,19,Woman,Right,
5,1,3,0.4359405999998671,['c'],1,left,none,-99,-99,0.5,-99,0,none,9,19,Woman,Right,
6,1,3,0.3673326999996789,['c'],0,right,none,-99,-99,0.5,-99,0,none,9,19,Woman,Right,
7,1,3,0.7343237999998564,['n'],1,right,none,-99,-99,0.5,-99,0,none,9,19,Woman,Right,
8,1,3,0.416659399999844,['n'],1,right,none,-99,-99,0.5,-99,0,none,9,19,Woman,Right,
9,1,3,0.432886900000085,['n'],1,right,none,-99,-99,0.5,-99,0,none,9,19,Woman,Right,
10,1,3,0.6160568000000239,['c'],1,left,none,-99,-99,0.5,-99,0,none,9,19,Woman,Right,
11,1,3,0.4678817999997591,['n'],1,right,none,-99,-99,0.5,-99,0,none,9,19,Woman,Right,
12,1,3,0.6674762000002374,['n'],1,right,none,-99,-99,0.5,-99,0,none,9,19,Woman,Right,
13,1,3,0.6170317000000978,['c'],1,left,none,-99,-99,0.5,-99,0,none,9,19,Woman,Right,
14,1,3,0.7345992000000479,['n'],0,left,none,-99,-99,0.5,-99,0,none,9,19,Woman,Right,
15,1,3,0.48302109999985987,['n'],1,right,none,-99,-99,0.5,-99,0,none,9,19,Woman,Right,
16,1,3,0.582517999999709,['c'],1,left,none,-99,-99,0.5,-99,0,none,9,19,Woman,Right,
17,1,3,0.46501219999981913,['c'],1,left,none,-99,-99,0.5,-99,0,none,9,19,Woman,Right,
18,1,3,0.6007594000002427,['c'],1,left,none,-99,-99,0.5,-99,0,none,9,19,Woman,Right,
19,1,3,0.534038999999666,['c'],1,left,none,-99,-99,0.5,-99,0,none,9,19,Woman,Right,
20,1,3,0.41741589999992357,['c'],1,left,none,-99,-99,0.5,-99,0,none,9,19,Woman,Right,
21,1,3,0.5655163000001266,['c'],0,right,none,-99,-99,0.5,-99,0,none,9,19,Woman,Right,
22,1,3,0.40184169999974984,['n'],1,right,none,-99,-99,0.5,-99,0,none,9,19,Woman,Right,
23,1,3,0.4179449000002933,['c'],1,left,none,-99,-99,0.5,-99,0,none,9,19,Woman,Right,
0,1,4,0.7512822999997297,['c'],1,left,none,-99,-99,0.5,-99,0,none,9,19,Woman,Right,
1,1,4,0.8504186999998637,['c'],1,left,none,-99,-99,0.5,-99,0,none,9,19,Woman,Right,
2,1,4,0.5836484000001292,['n'],0,left,none,-99,-99,0.5,-99,0,none,9,19,Woman,Right,
3,1,4,0.45060039999953005,['c'],1,left,none,-99,-99,0.5,-99,0,none,9,19,Woman,Right,
4,1,4,0.6180088000000978,['n'],1,right,none,-99,-99,0.5,-99,0,none,9,19,Woman,Right,
5,1,4,0.44917739999982587,['n'],1,right,none,-99,-99,0.5,-99,0,none,9,19,Woman,Right,
6,1,4,0.5005428000004031,['n'],1,right,none,-99,-99,0.5,-99,0,none,9,19,Woman,Right,
7,1,4,0.4492476000004899,['n'],1,right,none,-99,-99,0.5,-99,0,none,9,19,Woman,Right,
8,1,4,0.6495858999996926,['c'],1,left,none,-99,-99,0.5,-99,0,none,9,19,Woman,Right,
9,1,4,0.5329991999997219,['c'],1,left,none,-99,-99,0.5,-99,0,none,9,19,Woman,Right,
10,1,4,0.48309100000005856,['n'],1,right,none,-99,-99,0.5,-99,0,none,9,19,Woman,Right,
11,1,4,0.4670075000003635,['c'],0,right,none,-99,-99,0.5,-99,0,none,9,19,Woman,Right,
12,1,4,0.38447720000021945,['n'],1,right,none,-99,-99,0.5,-99,0,none,9,19,Woman,Right,
13,1,4,0.48292959999980667,['n'],0,left,none,-99,-99,0.5,-99,0,none,9,19,Woman,Right,
14,1,4,0.5842891000002055,['c'],0,right,none,-99,-99,0.5,-99,0,none,9,19,Woman,Right,
15,1,4,0.49894700000004377,['n'],0,left,none,-99,-99,0.5,-99,0,none,9,19,Woman,Right,
16,1,4,0.5672922000003382,['n'],1,right,none,-99,-99,0.5,-99,0,none,9,19,Woman,Right,
17,1,4,0.8159617999999682,['n'],1,right,none,-99,-99,0.5,-99,0,none,9,19,Woman,Right,
18,1,4,0.6183983999999327,['c'],1,left,none,-99,-99,0.5,-99,0,none,9,19,Woman,Right,
19,1,4,0.4702149000004283,['n'],0,left,none,-99,-99,0.5,-99,0,none,9,19,Woman,Right,
20,1,4,0.48527090000061435,['c'],1,left,none,-99,-99,0.5,-99,0,none,9,19,Woman,Right,
21,1,4,0.6856823999996777,['c'],0,right,none,-99,-99,0.5,-99,0,none,9,19,Woman,Right,
22,1,4,0.5510414999998829,['c'],1,left,none,-99,-99,0.5,-99,0,none,9,19,Woman,Right,
23,1,4,0.4677628999997978,['c'],0,right,none,-99,-99,0.5,-99,0,none,9,19,Woman,Right,
0,1,5,0.7668542999999772,['c'],0,right,none,-99,-99,0.5,-99,0,none,9,19,Woman,Right,
1,1,5,0.7496452000004865,['c'],1,left,none,-99,-99,0.5,-99,0,none,9,19,Woman,Right,
2,1,5,0.6006184999996549,['c'],0,right,none,-99,-99,0.5,-99,0,none,9,19,Woman,Right,
3,1,5,0.41689210000004095,['n'],1,right,none,-99,-99,0.5,-99,0,none,9,19,Woman,Right,
4,1,5,0.46652650000032736,['n'],0,left,none,-99,-99,0.5,-99,0,none,9,19,Woman,Right,
5,1,5,0.73394240000016,['c'],0,right,none,-99,-99,0.5,-99,0,none,9,19,Woman,Right,
6,1,5,0.4170853999994506,['n'],0,left,none,-99,-99,0.5,-99,0,none,9,19,Woman,Right,
7,1,5,0.5838259000001926,['c'],1,left,none,-99,-99,0.5,-99,0,none,9,19,Woman,Right,
8,1,5,0.7178755000004458,['c'],0,right,none,-99,-99,0.5,-99,0,none,9,19,Woman,Right,
9,1,5,0.7003813000001173,['c'],1,left,none,-99,-99,0.5,-99,0,none,9,19,Woman,Right,
10,1,5,0.5655348000000231,['c'],1,left,none,-99,-99,0.5,-99,0,none,9,19,Woman,Right,
11,1,5,0.5167849999997998,['c'],0,right,none,-99,-99,0.5,-99,0,none,9,19,Woman,Right,
12,1,5,0.6830465000002732,['c'],1,left,none,-99,-99,0.5,-99,0,none,9,19,Woman,Right,
13,1,5,0.5511656999997285,['c'],1,left,none,-99,-99,0.5,-99,0,none,9,19,Woman,Right,
14,1,5,0.5498740000002726,['c'],1,left,none,-99,-99,0.5,-99,0,none,9,19,Woman,Right,
15,1,5,0.566820000000007,['c'],1,left,none,-99,-99,0.5,-99,0,none,9,19,Woman,Right,
16,1,5,0.46777539999948203,['c'],0,right,none,-99,-99,0.5,-99,0,none,9,19,Woman,Right,
17,1,5,0.43431860000055167,['c'],0,right,none,-99,-99,0.5,-99,0,none,9,19,Woman,Right,
18,1,5,0.26794239999981073,['n'],1,right,none,-99,-99,0.5,-99,0,none,9,19,Woman,Right,
19,1,5,0.3670521000003646,['n'],1,right,none,-99,-99,0.5,-99,0,none,9,19,Woman,Right,
20,1,5,0.5502164999998058,['c'],1,left,none,-99,-99,0.5,-99,0,none,9,19,Woman,Right,
21,1,5,1.2662232000002405,['n'],1,right,none,-99,-99,0.5,-99,0,none,9,19,Woman,Right,
22,1,5,0.5840484000000288,['c'],1,left,none,-99,-99,0.5,-99,0,none,9,19,Woman,Right,
23,1,5,0.5825731000004453,['n'],1,right,none,-99,-99,0.5,-99,0,none,9,19,Woman,Right,
0,1,6,0.5679980000004434,['c'],1,left,none,-99,-99,0.5,-99,0,none,9,19,Woman,Right,
1,1,6,0.4835574999997334,['n'],1,right,none,-99,-99,0.5,-99,0,none,9,19,Woman,Right,
2,1,6,0.6837544999998499,['n'],1,right,none,-99,-99,0.5,-99,0,none,9,19,Woman,Right,
3,1,6,0.6331116999999722,['c'],0,right,none,-99,-99,0.5,-99,0,none,9,19,Woman,Right,
4,1,6,0.33315940000011324,['n'],1,right,none,-99,-99,0.5,-99,0,none,9,19,Woman,Right,
5,1,6,0.43398770000021614,['n'],1,right,none,-99,-99,0.5,-99,0,none,9,19,Woman,Right,
6,1,6,0.7493923000001814,['c'],1,left,none,-99,-99,0.5,-99,0,none,9,19,Woman,Right,
7,1,6,0.6824157999999443,['n'],1,right,none,-99,-99,0.5,-99,0,none,9,19,Woman,Right,
8,1,6,0.3834132000001773,['c'],1,left,none,-99,-99,0.5,-99,0,none,9,19,Woman,Right,
9,1,6,0.46738189999996393,['n'],1,right,none,-99,-99,0.5,-99,0,none,9,19,Woman,Right,
10,1,6,0.30120110000007116,['c'],1,left,none,-99,-99,0.5,-99,0,none,9,19,Woman,Right,
11,1,6,0.3166839000004984,['n'],0,left,none,-99,-99,0.5,-99,0,none,9,19,Woman,Right,
12,1,6,0.4334951999999248,['c'],0,right,none,-99,-99,0.5,-99,0,none,9,19,Woman,Right,
13,1,6,0.40020219999951223,['n'],0,left,none,-99,-99,0.5,-99,0,none,9,19,Woman,Right,
14,1,6,0.5997981000000436,['c'],1,left,none,-99,-99,0.5,-99,0,none,9,19,Woman,Right,
15,1,6,0.4826739999998608,['c'],1,left,none,-99,-99,0.5,-99,0,none,9,19,Woman,Right,
16,1,6,0.5329265999998825,['n'],1,right,none,-99,-99,0.5,-99,0,none,9,19,Woman,Right,
17,1,6,0.566579900000761,['c'],1,left,none,-99,-99,0.5,-99,0,none,9,19,Woman,Right,
18,1,6,0.46746900000016467,['c'],1,left,none,-99,-99,0.5,-99,0,none,9,19,Woman,Right,
19,1,6,0.43477009999969596,['c'],1,left,none,-99,-99,0.5,-99,0,none,9,19,Woman,Right,
20,1,6,0.5501438999999664,['n'],1,right,none,-99,-99,0.5,-99,0,none,9,19,Woman,Right,
21,1,6,0.7513113000004523,['c'],0,right,none,-99,-99,0.5,-99,0,none,9,19,Woman,Right,
22,1,6,0.6160881000005247,['c'],1,left,none,-99,-99,0.5,-99,0,none,9,19,Woman,Right,
23,1,6,0.433572599999934,['n'],1,right,none,-99,-99,0.5,-99,0,none,9,19,Woman,Right,
0,1,7,0.6498616999997466,['c'],1,left,none,-99,-99,0.5,-99,0,none,9,19,Woman,Right,
1,1,7,0.4005637000000206,['n'],1,right,none,-99,-99,0.5,-99,0,none,9,19,Woman,Right,
2,1,7,0.3512383999996018,['c'],1,left,none,-99,-99,0.5,-99,0,none,9,19,Woman,Right,
3,1,7,0.39904810000007274,['c'],1,left,none,-99,-99,0.5,-99,0,none,9,19,Woman,Right,
4,1,7,0.4669685999997455,['n'],1,right,none,-99,-99,0.5,-99,0,none,9,19,Woman,Right,
5,1,7,0.367465500000435,['c'],1,left,none,-99,-99,0.5,-99,0,none,9,19,Woman,Right,
6,1,7,0.33402209999985644,['c'],0,right,none,-99,-99,0.5,-99,0,none,9,19,Woman,Right,
7,1,7,0.450539999999819,['c'],0,right,none,-99,-99,0.5,-99,0,none,9,19,Woman,Right,
8,1,7,0.45031850000032136,['n'],1,right,none,-99,-99,0.5,-99,0,none,9,19,Woman,Right,
9,1,7,0.4844232000004922,['c'],1,left,none,-99,-99,0.5,-99,0,none,9,19,Woman,Right,
10,1,7,0.5335456000002523,['n'],1,right,none,-99,-99,0.5,-99,0,none,9,19,Woman,Right,
11,1,7,0.3681384999999864,['c'],0,right,none,-99,-99,0.5,-99,0,none,9,19,Woman,Right,
12,1,7,0.46700200000032055,['c'],1,left,none,-99,-99,0.5,-99,0,none,9,19,Woman,Right,
13,1,7,0.6508846999995512,['c'],1,left,none,-99,-99,0.5,-99,0,none,9,19,Woman,Right,
14,1,7,0.3675538999996206,['c'],0,right,none,-99,-99,0.5,-99,0,none,9,19,Woman,Right,
15,1,7,0.38269839999975375,['c'],1,left,none,-99,-99,0.5,-99,0,none,9,19,Woman,Right,
16,1,7,0.4337583000005907,['n'],0,left,none,-99,-99,0.5,-99,0,none,9,19,Woman,Right,
17,1,7,0.29941189999954076,['c'],0,right,none,-99,-99,0.5,-99,0,none,9,19,Woman,Right,
18,1,7,0.383748100000048,['c'],1,left,none,-99,-99,0.5,-99,0,none,9,19,Woman,Right,
19,1,7,0.6003324000002976,['n'],1,right,none,-99,-99,0.5,-99,0,none,9,19,Woman,Right,
20,1,7,0.4169229999997697,['c'],1,left,none,-99,-99,0.5,-99,0,none,9,19,Woman,Right,
21,1,7,0.43387450000045646,['c'],1,left,none,-99,-99,0.5,-99,0,none,9,19,Woman,Right,
22,1,7,0.4509946999996828,['n'],1,right,none,-99,-99,0.5,-99,0,none,9,19,Woman,Right,
23,1,7,0.5329596999999922,['c'],0,right,none,-99,-99,0.5,-99,0,none,9,19,Woman,Right,
0,1,8,0.5008245999997598,['c'],1,left,none,-99,-99,0.5,-99,0,none,9,19,Woman,Right,
1,1,8,0.4330073999999513,['c'],0,right,none,-99,-99,0.5,-99,0,none,9,19,Woman,Right,
2,1,8,0.5678946000007272,['c'],1,left,none,-99,-99,0.5,-99,0,none,9,19,Woman,Right,
3,1,8,0.600393200000326,['c'],0,right,none,-99,-99,0.5,-99,0,none,9,19,Woman,Right,
4,1,8,0.7833596999998917,['n'],1,right,none,-99,-99,0.5,-99,0,none,9,19,Woman,Right,
5,1,8,0.8507884000000558,['c'],1,left,none,-99,-99,0.5,-99,0,none,9,19,Woman,Right,
6,1,8,0.4831757000001744,['c'],1,left,none,-99,-99,0.5,-99,0,none,9,19,Woman,Right,
7,1,8,0.483430700000099,['c'],1,left,none,-99,-99,0.5,-99,0,none,9,19,Woman,Right,
8,1,8,0.5843119999999544,['c'],1,left,none,-99,-99,0.5,-99,0,none,9,19,Woman,Right,
9,1,8,0.5670909000000393,['c'],0,right,none,-99,-99,0.5,-99,0,none,9,19,Woman,Right,
10,1,8,0.4336898999999903,['c'],1,left,none,-99,-99,0.5,-99,0,none,9,19,Woman,Right,
11,1,8,0.584774699999798,['c'],0,right,none,-99,-99,0.5,-99,0,none,9,19,Woman,Right,
12,1,8,0.5347158000004129,['c'],1,left,none,-99,-99,0.5,-99,0,none,9,19,Woman,Right,
13,1,8,0.7177927000002455,['c'],0,right,none,-99,-99,0.5,-99,0,none,9,19,Woman,Right,
14,1,8,0.5677404999996725,['c'],1,left,none,-99,-99,0.5,-99,0,none,9,19,Woman,Right,
15,1,8,0.5843943999998373,['c'],0,right,none,-99,-99,0.5,-99,0,none,9,19,Woman,Right,
16,1,8,0.7664224000000104,['n'],1,right,none,-99,-99,0.5,-99,0,none,9,19,Woman,Right,
17,1,8,0.5336685000002035,['c'],1,left,none,-99,-99,0.5,-99,0,none,9,19,Woman,Right,
18,1,8,0.549545599999874,['n'],1,right,none,-99,-99,0.5,-99,0,none,9,19,Woman,Right,
19,1,8,0.5666798000002018,['c'],1,left,none,-99,-99,0.5,-99,0,none,9,19,Woman,Right,
20,1,8,0.4679132999999638,['c'],0,right,none,-99,-99,0.5,-99,0,none,9,19,Woman,Right,
21,1,8,0.5004636000003302,['c'],1,left,none,-99,-99,0.5,-99,0,none,9,19,Woman,Right,
22,1,8,0.4486793000005491,['c'],0,right,none,-99,-99,0.5,-99,0,none,9,19,Woman,Right,
23,1,8,0.44985840000026656,['n'],1,right,none,-99,-99,0.5,-99,0,none,9,19,Woman,Right,
0,1,9,0.5828702999997404,['c'],1,left,none,-99,-99,0.5,-99,0,none,9,19,Woman,Right,
1,1,9,0.668471199999658,['n'],1,right,none,-99,-99,0.5,-99,0,none,9,19,Woman,Right,
2,1,9,0.35089679999964574,['c'],0,right,none,-99,-99,0.5,-99,0,none,9,19,Woman,Right,
3,1,9,0.4023412999995344,['n'],1,right,none,-99,-99,0.5,-99,0,none,9,19,Woman,Right,
4,1,9,0.4168355000001611,['n'],1,right,none,-99,-99,0.5,-99,0,none,9,19,Woman,Right,
5,1,9,0.4164476999994804,['n'],0,left,none,-99,-99,0.5,-99,0,none,9,19,Woman,Right,
6,1,9,0.5489881999992576,['n'],1,right,none,-99,-99,0.5,-99,0,none,9,19,Woman,Right,
7,1,9,0.549739000000045,['c'],0,right,none,-99,-99,0.5,-99,0,none,9,19,Woman,Right,
8,1,9,0.33320459999958985,['n'],0,left,none,-99,-99,0.5,-99,0,none,9,19,Woman,Right,
9,1,9,0.3843936000002941,['c'],1,left,none,-99,-99,0.5,-99,0,none,9,19,Woman,Right,
10,1,9,0.5519840999995722,['c'],1,left,none,-99,-99,0.5,-99,0,none,9,19,Woman,Right,
11,1,9,0.5657744999998613,['c'],1,left,none,-99,-99,0.5,-99,0,none,9,19,Woman,Right,
12,1,9,0.4494516000004296,['c'],0,right,none,-99,-99,0.5,-99,0,none,9,19,Woman,Right,
13,1,9,0.5675080999999409,['n'],1,right,none,-99,-99,0.5,-99,0,none,9,19,Woman,Right,
14,1,9,0.4825039999996079,['n'],1,right,none,-99,-99,0.5,-99,0,none,9,19,Woman,Right,
15,1,9,0.4344669000001886,['n'],0,left,none,-99,-99,0.5,-99,0,none,9,19,Woman,Right,
16,1,9,0.43386759999975766,['c'],1,left,none,-99,-99,0.5,-99,0,none,9,19,Woman,Right,
17,1,9,0.48369629999979225,['c'],1,left,none,-99,-99,0.5,-99,0,none,9,19,Woman,Right,
18,1,9,0.6008880999997928,['c'],0,right,none,-99,-99,0.5,-99,0,none,9,19,Woman,Right,
19,1,9,0.3171075000000201,['n'],0,left,none,-99,-99,0.5,-99,0,none,9,19,Woman,Right,
20,1,9,0.6835688000001028,['c'],0,right,none,-99,-99,0.5,-99,0,none,9,19,Woman,Right,
21,1,9,0.5655053000000407,['c'],1,left,none,-99,-99,0.5,-99,0,none,9,19,Woman,Right,
22,1,9,0.7171446000002106,['c'],0,right,none,-99,-99,0.5,-99,0,none,9,19,Woman,Right,
23,1,9,0.7680453000002672,['n'],0,left,none,-99,-99,0.5,-99,0,none,9,19,Woman,Right,
0,1,10,1.5503029999999853,['n'],0,left,none,-99,-99,0.5,-99,0,none,9,19,Woman,Right,
1,1,10,1.0170914000000266,['c'],1,left,none,-99,-99,0.5,-99,0,none,9,19,Woman,Right,
2,1,10,0.5001925999995365,['n'],1,right,none,-99,-99,0.5,-99,0,none,9,19,Woman,Right,
3,1,10,0.4989716000000044,['n'],1,right,none,-99,-99,0.5,-99,0,none,9,19,Woman,Right,
4,1,10,0.599918400000206,['c'],1,left,none,-99,-99,0.5,-99,0,none,9,19,Woman,Right,
5,1,10,0.5343946999992113,['n'],1,right,none,-99,-99,0.5,-99,0,none,9,19,Woman,Right,
6,1,10,0.5165871999997762,['n'],1,right,none,-99,-99,0.5,-99,0,none,9,19,Woman,Right,
7,1,10,0.3670824000000721,['n'],0,left,none,-99,-99,0.5,-99,0,none,9,19,Woman,Right,
8,1,10,0.4165715999997701,['c'],1,left,none,-99,-99,0.5,-99,0,none,9,19,Woman,Right,
9,1,10,0.33152979999977106,['n'],0,left,none,-99,-99,0.5,-99,0,none,9,19,Woman,Right,
10,1,10,0.5834047999996983,['n'],0,left,none,-99,-99,0.5,-99,0,none,9,19,Woman,Right,
11,1,10,0.40054630000031466,['c'],0,right,none,-99,-99,0.5,-99,0,none,9,19,Woman,Right,
12,1,10,0.500535499999387,['c'],0,right,none,-99,-99,0.5,-99,0,none,9,19,Woman,Right,
13,1,10,0.4336176000006162,['n'],0,left,none,-99,-99,0.5,-99,0,none,9,19,Woman,Right,
14,1,10,0.4818457000001217,['n'],1,right,none,-99,-99,0.5,-99,0,none,9,19,Woman,Right,
15,1,10,0.4351457999991908,['c'],1,left,none,-99,-99,0.5,-99,0,none,9,19,Woman,Right,
16,1,10,0.517006300000503,['n'],1,right,none,-99,-99,0.5,-99,0,none,9,19,Woman,Right,
17,1,10,0.5853852000000188,['c'],1,left,none,-99,-99,0.5,-99,0,none,9,19,Woman,Right,
18,1,10,0.5502323000000615,['n'],1,right,none,-99,-99,0.5,-99,0,none,9,19,Woman,Right,
19,1,10,0.632974699999977,['n'],1,right,none,-99,-99,0.5,-99,0,none,9,19,Woman,Right,
20,1,10,0.5662754000004497,['c'],1,left,none,-99,-99,0.5,-99,0,none,9,19,Woman,Right,
21,1,10,0.4504573000003802,['n'],1,right,none,-99,-99,0.5,-99,0,none,9,19,Woman,Right,
22,1,10,0.6662873000004765,['c'],0,right,none,-99,-99,0.5,-99,0,none,9,19,Woman,Right,
23,1,10,0.6005070999999589,['c'],1,left,none,-99,-99,0.5,-99,0,none,9,19,Woman,Right,
0,1,11,0.8006142999993244,['n'],1,right,none,-99,-99,0.5,-99,0,none,9,19,Woman,Right,
1,1,11,0.5329918999996153,['c'],1,left,none,-99,-99,0.5,-99,0,none,9,19,Woman,Right,
2,1,11,0.6009335999997347,['c'],1,left,none,-99,-99,0.5,-99,0,none,9,19,Woman,Right,
3,1,11,0.4992400000000998,['n'],1,right,none,-99,-99,0.5,-99,0,none,9,19,Woman,Right,
4,1,11,0.5347477000004801,['c'],1,left,none,-99,-99,0.5,-99,0,none,9,19,Woman,Right,
5,1,11,0.4003632000003563,['n'],1,right,none,-99,-99,0.5,-99,0,none,9,19,Woman,Right,
6,1,11,0.4835688000002847,['c'],1,left,none,-99,-99,0.5,-99,0,none,9,19,Woman,Right,
7,1,11,0.40036349999991216,['n'],0,left,none,-99,-99,0.5,-99,0,none,9,19,Woman,Right,
8,1,11,0.5997762999995757,['n'],1,right,none,-99,-99,0.5,-99,0,none,9,19,Woman,Right,
9,1,11,0.5001082999997379,['n'],1,right,none,-99,-99,0.5,-99,0,none,9,19,Woman,Right,
10,1,11,0.48443029999998544,['c'],1,left,none,-99,-99,0.5,-99,0,none,9,19,Woman,Right,
11,1,11,0.5177358000000822,['c'],1,left,none,-99,-99,0.5,-99,0,none,9,19,Woman,Right,
12,1,11,0.533886899999743,['n'],1,right,none,-99,-99,0.5,-99,0,none,9,19,Woman,Right,
13,1,11,0.6665192000000388,['c'],1,left,none,-99,-99,0.5,-99,0,none,9,19,Woman,Right,
14,1,11,0.5008905000004233,['n'],1,right,none,-99,-99,0.5,-99,0,none,9,19,Woman,Right,
15,1,11,0.3986348000007638,['c'],1,left,none,-99,-99,0.5,-99,0,none,9,19,Woman,Right,
16,1,11,0.7015581000005113,['n'],1,right,none,-99,-99,0.5,-99,0,none,9,19,Woman,Right,
17,1,11,0.40042190000076516,['c'],1,left,none,-99,-99,0.5,-99,0,none,9,19,Woman,Right,
18,1,11,0.28278510000018287,['n'],1,right,none,-99,-99,0.5,-99,0,none,9,19,Woman,Right,
19,1,11,0.3169219000001249,['c'],0,right,none,-99,-99,0.5,-99,0,none,9,19,Woman,Right,
20,1,11,0.417734599999676,['c'],1,left,none,-99,-99,0.5,-99,0,none,9,19,Woman,Right,
21,1,11,0.3998563999994076,['n'],1,right,none,-99,-99,0.5,-99,0,none,9,19,Woman,Right,
22,1,11,0.367156100000102,['c'],1,left,none,-99,-99,0.5,-99,0,none,9,19,Woman,Right,
23,1,11,0.45080589999997756,['n'],1,right,none,-99,-99,0.5,-99,0,none,9,19,Woman,Right,
0,2,1,3.7665304000001925,['n'],1,right,none,-99,-99,0.2,-99,0,none,9,19,Woman,Right,
1,2,1,0.6841446999997061,['c'],1,left,none,-99,-99,0.4,-99,0,none,9,19,Woman,Right,
2,2,1,0.46633420000034675,['n'],1,right,none,-99,-99,0.1,-99,0,none,9,19,Woman,Right,
3,2,1,0.41766780000034487,['c'],0,right,none,-99,-99,0.4,-99,0,none,9,19,Woman,Right,
4,2,1,0.6847310000002835,['c'],1,left,none,-99,-99,0.4,-99,0,none,9,19,Woman,Right,
5,2,1,0.45013939999989816,['n'],1,right,none,-99,-99,0.1,-99,0,none,9,19,Woman,Right,
6,2,1,1.4836484999996173,['n'],1,right,none,-99,-99,0.2,-99,0,none,9,19,Woman,Right,
7,2,1,0.5509792000002562,['n'],0,left,none,-99,-99,0.1,-99,0,none,9,19,Woman,Right,
8,2,1,0.7497729999995499,['c'],1,left,none,-99,-99,0.1,-99,0,none,9,19,Woman,Right,
9,2,1,0.6168734000002587,['c'],1,left,none,-99,-99,0.2,-99,0,none,9,19,Woman,Right,
10,2,1,0.5018716000004133,['n'],1,right,none,-99,-99,0.4,-99,0,none,9,19,Woman,Right,
11,2,1,0.5175560000006953,['n'],1,right,none,-99,-99,0.4,-99,0,none,9,19,Woman,Right,
12,2,1,0.44884040000033565,['n'],1,right,none,-99,-99,0.4,-99,0,none,9,19,Woman,Right,
13,2,1,0.36780219999945984,['n'],0,left,none,-99,-99,0.1,-99,0,none,9,19,Woman,Right,
14,2,1,0.7333282999998119,['c'],1,left,none,-99,-99,0.4,-99,0,none,9,19,Woman,Right,
15,2,1,2.9674285000000964,['n'],0,left,none,-99,-99,0.1,-99,0,none,9,19,Woman,Right,
16,2,1,0.5660703000003195,['c'],0,right,none,-99,-99,0.1,-99,0,none,9,19,Woman,Right,
17,2,1,0.7674059999999372,['n'],0,left,none,-99,-99,0.1,-99,0,none,9,19,Woman,Right,
18,2,1,1.0504576000002999,['n'],0,left,none,-99,-99,0.2,-99,0,none,9,19,Woman,Right,
19,2,1,0.534534899999926,['c'],1,left,none,-99,-99,0.2,-99,0,none,9,19,Woman,Right,
20,2,1,0.6503198999998858,['n'],1,right,none,-99,-99,0.4,-99,0,none,9,19,Woman,Right,
21,2,1,0.6501694999997198,['n'],1,right,none,-99,-99,0.2,-99,0,none,9,19,Woman,Right,
22,2,1,0.5996418000004269,['n'],1,right,none,-99,-99,0.2,-99,0,none,9,19,Woman,Right,
23,2,1,0.46654339999986405,['n'],0,left,none,-99,-99,0.2,-99,0,none,9,19,Woman,Right,
0,3,1,1.1004299999995055,['n'],0,left,['u'],1,1.1842457999991893,0.2,0,0,none,9,19,Woman,Right,
1,3,1,0.699660700000095,['c'],0,right,['u'],1,0.9399771999997029,0.1,0,0,none,9,19,Woman,Right,
2,3,1,2.0174771000001783,['c'],1,left,['u'],1,0.44388859999980923,0.4,1,0,none,9,19,Woman,Right,
3,3,1,0.8677084999999352,['n'],1,right,['u'],1,0.8783698999995977,0.1,1,0,none,9,19,Woman,Right,
4,3,1,0.9512193999998999,['c'],1,left,['u'],1,0.7333252999997057,0.4,1,0,none,9,19,Woman,Right,
5,3,1,0.7684247999995932,['n'],0,left,['u'],1,0.4386854999993375,0.2,0,0,none,9,19,Woman,Right,
6,3,1,1.3175649000004341,['n'],1,right,['u'],1,0.2798781000001327,0.2,1,0,none,9,19,Woman,Right,
7,3,1,1.4996995000001334,['n'],1,right,['u'],1,0.4702877999998236,0.4,1,0,none,9,19,Woman,Right,
8,3,1,0.6847037999996246,['n'],0,left,['u'],1,0.3520848999996815,0.2,0,0,none,9,19,Woman,Right,
9,3,1,1.3178370999994513,['c'],1,left,['u'],1,0.3546832000001814,0.4,1,0,none,9,19,Woman,Right,
10,3,1,1.9003316999996969,['n'],0,left,['e'],0,0.38352240000040183,0.4,1,0,none,9,19,Woman,Right,
11,3,1,1.3504738000001453,['n'],0,left,['u'],1,0.8489539000001969,0.2,0,0,none,9,19,Woman,Right,
12,3,1,0.6023394000003464,['n'],1,right,['u'],1,0.18971669999973528,0.4,1,0,none,9,19,Woman,Right,
13,3,1,1.284119500000088,['c'],0,right,['e'],0,0.4088229999997566,0.1,1,0,none,9,19,Woman,Right,
14,3,1,1.2837186999995538,['n'],1,right,['u'],1,0.1723192999997991,0.2,1,0,none,9,19,Woman,Right,
15,3,1,3.718264199999794,['c'],1,left,['e'],0,0.3275337999994008,0.2,0,0,none,9,19,Woman,Right,
16,3,1,0.9508047999997871,['n'],1,right,['e'],0,0.9726737999999386,0.1,0,0,none,9,19,Woman,Right,
17,3,1,0.9180574000001798,['n'],0,left,['u'],1,0.32644840000011754,0.4,0,0,none,9,19,Woman,Right,
18,3,1,0.9173165000001973,['n'],1,right,['u'],1,0.21975010000005568,0.1,1,0,none,9,19,Woman,Right,
19,3,1,1.0663605999998254,['c'],1,left,['e'],0,0.30364430000008724,0.4,0,0,none,9,19,Woman,Right,
20,3,1,1.2334223999996539,['c'],0,right,['e'],0,0.31250249999993684,0.2,1,0,none,9,19,Woman,Right,
21,3,1,0.7497290000001158,['n'],1,right,['e'],0,0.820804599999974,0.1,0,0,none,9,19,Woman,Right,
22,3,1,0.6000972000001639,['n'],1,right,['e'],0,0.4033746999994037,0.1,0,0,none,9,19,Woman,Right,
23,3,1,0.6335698999992019,['n'],0,left,['u'],1,0.2552791999996771,0.1,0,0,none,9,19,Woman,Right,
0,4,1,1.1323600999994596,['n'],1,right,['u'],1,0.5236837000002197,0.1,1,0,FastFast,9,19,Woman,Right,
1,4,1,1.0010634999998729,['c'],1,left,['u'],1,0.1608288999996148,0.4,1,0,FastFast,9,19,Woman,Right,
2,4,1,0.5661712000000989,['n'],1,right,['u'],1,0.32802320000064356,0.4,1,0,FastFast,9,19,Woman,Right,
3,4,1,0.8494557000003624,['n'],1,right,['e'],0,0.13978539999970963,0.2,0,0,FastFast,9,19,Woman,Right,
4,4,1,0.685595399999329,['n'],1,right,['e'],0,0.3164671999993516,0.1,0,0,FastFast,9,19,Woman,Right,
5,4,1,0.7008875000001353,['n'],0,left,['e'],0,0.4540684000003239,0.2,1,0,FastFast,9,19,Woman,Right,
6,4,1,0.5007219999997687,['n'],0,left,['u'],1,0.22719250000045577,0.1,0,0,FastFast,9,19,Woman,Right,
7,4,1,0.8665228999998362,['c'],1,left,['e'],0,0.12166309999975056,0.2,0,0,FastFast,9,19,Woman,Right,
8,4,1,0.633158700000422,['n'],1,right,['e'],0,0.38246149999940826,0.4,0,0,FastFast,9,19,Woman,Right,
9,4,1,0.7999822000001586,['n'],0,left,['e'],0,0.1617036999996344,0.4,1,0,FastFast,9,19,Woman,Right,
10,4,1,0.48429160000068805,['n'],1,right,['u'],1,0.21928440000010596,0.2,1,0,FastFast,9,19,Woman,Right,
11,4,1,1.2674937000001592,['n'],0,left,['e'],0,0.14669619999949646,0.4,1,0,FastFast,9,19,Woman,Right,
12,4,1,0.817499200000384,['c'],1,left,['u'],1,0.15827530000024126,0.4,1,0,FastFast,9,19,Woman,Right,
13,4,1,0.7001376999996864,['n'],1,right,['e'],0,0.23781990000043152,0.1,0,0,FastFast,9,19,Woman,Right,
14,4,1,0.9010715000003984,['n'],0,left,['u'],1,0.22703640000054293,0.2,0,0,FastFast,9,19,Woman,Right,
15,4,1,0.7336761000005936,['n'],1,right,['u'],1,0.22359049999977287,0.4,1,0,FastFast,9,19,Woman,Right,
16,4,1,0.9170617999998285,['c'],0,right,['e'],0,0.29255149999971763,0.1,1,0,FastFast,9,19,Woman,Right,
17,4,1,1.0514043000002857,['c'],0,right,['e'],0,0.17794880000019475,0.4,1,0,FastFast,9,19,Woman,Right,
18,4,1,0.6514684000003399,['n'],0,left,['e'],0,0.3076389999996536,0.4,1,0,FastFast,9,19,Woman,Right,
19,4,1,0.8997596000008343,['n'],1,right,['e'],0,0.15111230000002251,0.4,0,0,FastFast,9,19,Woman,Right,
20,4,1,0.5496965000002092,['n'],0,left,['e'],0,0.3012783000003765,0.1,1,0,FastFast,9,19,Woman,Right,
21,4,1,0.6009008999999423,['n'],1,right,['u'],1,0.41106330000002345,0.4,1,0,FastFast,9,19,Woman,Right,
22,4,1,0.5665913000002547,['c'],1,left,['e'],0,0.10369119999995746,0.2,0,0,FastFast,9,19,Woman,Right,
23,4,1,1.1004307000002882,['n'],0,left,['e'],0,0.10572479999973439,0.2,1,0,FastFast,9,19,Woman,Right,
24,4,1,0.6336404999992737,['n'],0,left,['e'],0,0.11100660000010976,0.1,1,0,FastFast,9,19,Woman,Right,
25,4,1,0.43295019999914075,['c'],0,right,['u'],1,0.1404763999998977,0.2,0,0,FastFast,9,19,Woman,Right,
26,4,1,1.1164506000004621,['n'],1,right,['u'],1,0.13999299999977666,0.4,1,0,FastFast,9,19,Woman,Right,
27,4,1,0.5493256999998266,['n'],1,right,['e'],0,0.14892030000009981,0.2,0,0,FastFast,9,19,Woman,Right,
28,4,1,0.551959700000225,['n'],0,left,['e'],0,0.15357289999974455,0.2,1,0,FastFast,9,19,Woman,Right,
29,4,1,0.7330026999998154,['c'],0,right,['e'],0,0.12119429999984277,0.4,1,0,FastFast,9,19,Woman,Right,
30,4,1,0.7009389000004376,['c'],0,right,['e'],0,0.12251909999940835,0.1,1,0,FastFast,9,19,Woman,Right,
31,4,1,0.9349381000001813,['n'],0,left,['e'],0,0.14683330000025308,0.1,1,0,FastFast,9,19,Woman,Right,
32,4,1,0.5508267999994132,['c'],1,left,['e'],0,0.18549299999995128,0.2,0,0,FastFast,9,19,Woman,Right,
33,4,1,0.8176275999994687,['c'],1,left,['e'],0,0.1638836000001902,0.4,0,0,FastFast,9,19,Woman,Right,
34,4,1,0.7668804999993881,['c'],1,left,['e'],0,0.11304930000005697,0.1,0,0,FastFast,9,19,Woman,Right,
35,4,1,0.5845227999998315,['c'],1,left,['e'],0,0.15266350000001694,0.4,0,0,FastFast,9,19,Woman,Right,
36,4,1,1.2672356000002765,['c'],1,left,['e'],0,0.16137070000058884,0.4,0,0,FastFast,9,19,Woman,Right,
37,4,1,0.7172430000000531,['c'],1,left,['e'],0,0.12979640000048676,0.2,0,0,FastFast,9,19,Woman,Right,
38,4,1,0.9161414999998669,['n'],1,right,['e'],0,0.3941648999998506,0.1,0,0,FastFast,9,19,Woman,Right,
39,4,1,0.8673794999995152,['c'],0,right,['e'],0,0.09002339999915421,0.1,1,0,FastFast,9,19,Woman,Right,
40,4,1,0.7513048999999228,['c'],0,right,['e'],0,0.09151179999935266,0.2,1,0,FastFast,9,19,Woman,Right,
41,4,1,0.9170441000005667,['n'],1,right,['e'],0,0.1339018999997279,0.4,0,0,FastFast,9,19,Woman,Right,
42,4,1,0.816935700000613,['n'],0,left,['e'],0,0.1466004999992947,0.1,1,0,FastFast,9,19,Woman,Right,
43,4,1,0.7662635000006048,['n'],1,right,['e'],0,0.14541520000057062,0.1,0,0,FastFast,9,19,Woman,Right,
44,4,1,0.51712950000001,['n'],1,right,['e'],0,0.1368808999995963,0.2,0,0,FastFast,9,19,Woman,Right,
45,4,1,0.3511329000002661,['n'],1,right,['e'],0,0.15252030000010564,0.2,0,0,FastFast,9,19,Woman,Right,
46,4,1,0.483695699999771,['n'],0,left,['e'],0,0.14453390000016952,0.1,1,0,FastFast,9,19,Woman,Right,
47,4,1,0.4347569999999905,['n'],0,left,['e'],0,0.20419140000012703,0.2,1,0,FastFast,9,19,Woman,Right,
48,4,1,1.1170959999999468,['c'],0,right,['e'],0,0.3946891000005053,0.2,1,0,FastFast,9,19,Woman,Right,
49,4,1,0.8344849000004615,['c'],1,left,['e'],0,0.20512150000013207,0.4,0,0,FastFast,9,19,Woman,Right,
50,4,1,1.0011686000007103,['c'],0,right,['e'],0,0.1916744000000108,0.1,1,0,FastFast,9,19,Woman,Right,
51,4,1,0.5347193000006882,['n'],0,left,['e'],0,2.740389900000082,0.2,1,0,FastFast,9,19,Woman,Right,
52,4,1,0.9501501999993707,['n'],1,right,['e'],0,0.24439720000009402,0.1,0,0,FastFast,9,19,Woman,Right,
53,4,1,0.4678676000003179,['n'],1,right,['e'],0,0.601679399999739,0.1,0,0,FastFast,9,19,Woman,Right,
54,4,1,0.41716989999986254,['c'],1,left,['e'],0,0.2122177000001102,0.4,0,0,FastFast,9,19,Woman,Right,
55,4,1,1.0839165999996112,['n'],1,right,['e'],0,0.06672209999942424,0.2,0,0,FastFast,9,19,Woman,Right,
56,4,1,0.4000019999994038,['c'],1,left,['e'],0,0.21097050000025774,0.1,0,0,FastFast,9,19,Woman,Right,
57,4,1,0.9513667999999598,['n'],0,left,['e'],0,0.10335109999959968,0.2,1,0,FastFast,9,19,Woman,Right,
58,4,1,0.5664483000000473,['n'],1,right,['e'],0,0.19060630000058154,0.1,0,0,FastFast,9,19,Woman,Right,
59,4,1,0.8841614000002664,['n'],0,left,['e'],0,0.07048510000004171,0.4,1,0,FastFast,9,19,Woman,Right,
0,5,1,1.867286800000329,['n'],1,right,['u'],1,3.71294510000007,0.1,1,0,AccFast,9,19,Woman,Right,
1,5,1,5.016488400000526,x,-99,left,none,-99,-99,0.1,-99,1,AccFast,9,19,Woman,Right,
2,5,1,2.900411499999791,['n'],1,right,['e'],0,4.5022541999996974,0.1,0,0,AccFast,9,19,Woman,Right,
3,5,1,2.350947400000223,['n'],1,right,['e'],0,0.569320599999628,0.4,0,0,AccFast,9,19,Woman,Right,
4,5,1,2.150018999999702,['n'],0,left,['e'],0,4.189969699999892,0.2,1,0,AccFast,9,19,Woman,Right,
5,5,1,4.966884800000116,['n'],1,right,['e'],0,0.6119678999993994,0.4,0,0,AccFast,9,19,Woman,Right,
6,5,1,1.2999669999999242,['n'],1,right,['e'],0,1.1468696000001728,0.1,0,0,AccFast,9,19,Woman,Right,
7,5,1,1.334299799999826,['n'],0,left,['e'],0,0.39346129999921686,0.1,1,0,AccFast,9,19,Woman,Right,
8,5,1,2.3842093000002933,['n'],0,left,['u'],1,1.4218348999993395,0.4,0,0,AccFast,9,19,Woman,Right,
9,5,1,3.2506285999998,['n'],0,left,['u'],1,1.3020260000002963,0.1,0,0,AccFast,9,19,Woman,Right,
10,5,1,1.1509563999998136,['n'],0,left,['e'],0,0.39091929999995045,0.2,1,0,AccFast,9,19,Woman,Right,
11,5,1,2.7995053999993615,['c'],1,left,['u'],1,1.3071079000001191,0.4,1,0,AccFast,9,19,Woman,Right,
12,5,1,1.068139400000291,['n'],1,right,['e'],0,0.9105068999997457,0.4,0,0,AccFast,9,19,Woman,Right,
13,5,1,2.76677380000001,['c'],1,left,['u'],1,0.7507220999996207,0.2,1,0,AccFast,9,19,Woman,Right,
14,5,1,1.4005828999997902,['c'],0,right,['u'],1,0.571418999999878,0.1,0,0,AccFast,9,19,Woman,Right,
15,5,1,2.9003413999998884,['n'],1,right,['u'],1,2.1318105000000287,0.2,1,0,AccFast,9,19,Woman,Right,
16,5,1,1.9840303000000858,['n'],1,right,['u'],1,0.5621000000001004,0.1,1,0,AccFast,9,19,Woman,Right,
17,5,1,1.6672776000004887,['n'],1,right,['u'],1,1.163465300000098,0.2,1,0,AccFast,9,19,Woman,Right,
18,5,1,0.9008855000001859,['n'],0,left,['u'],1,1.1314817000002222,0.1,0,0,AccFast,9,19,Woman,Right,
19,5,1,2.28394709999975,['n'],0,left,['u'],1,1.8937264000005598,0.4,0,0,AccFast,9,19,Woman,Right,
20,5,1,0.7179622000003292,['n'],0,left,['u'],1,0.5286771000000954,0.2,0,0,AccFast,9,19,Woman,Right,
21,5,1,1.8656753000004755,['n'],1,right,['u'],1,0.27616070000021864,0.2,1,0,AccFast,9,19,Woman,Right,
22,5,1,1.884058399999958,['n'],0,left,['u'],1,0.30401330000040616,0.1,0,0,AccFast,9,19,Woman,Right,
23,5,1,1.1675611999999091,['n'],0,left,['u'],1,0.7446179999997184,0.2,0,0,AccFast,9,19,Woman,Right,
24,5,1,0.9841139000000112,['n'],0,left,['u'],1,0.64577460000055,0.2,0,0,AccFast,9,19,Woman,Right,
25,5,1,1.5839225999998234,['n'],1,right,['u'],1,0.19140870000046561,0.2,1,0,AccFast,9,19,Woman,Right,
26,5,1,2.650206999999682,['n'],0,left,['u'],1,0.592816600000333,0.4,0,0,AccFast,9,19,Woman,Right,
27,5,1,0.9845245999995313,['n'],0,left,['u'],1,0.5966078000001289,0.4,0,0,AccFast,9,19,Woman,Right,
28,5,1,0.8685976999995546,['n'],1,right,['u'],1,0.14121129999966797,0.4,1,0,AccFast,9,19,Woman,Right,
29,5,1,2.6002619999999297,['c'],1,left,['u'],1,0.770000199999231,0.4,1,0,AccFast,9,19,Woman,Right,
30,5,1,1.5152988999998342,['n'],0,left,['u'],1,0.794749700000466,0.4,0,0,AccFast,9,19,Woman,Right,
31,5,1,2.1664551000003485,['n'],1,right,['e'],0,0.5667702999999165,0.2,0,0,AccFast,9,19,Woman,Right,
32,5,1,0.8341524999996182,['n'],1,right,['u'],1,0.3050076999998055,0.1,1,0,AccFast,9,19,Woman,Right,
33,5,1,2.217065300000286,['c'],0,right,['e'],0,0.7508618000001661,0.2,1,0,AccFast,9,19,Woman,Right,
34,5,1,1.4337947000003624,['n'],1,right,['e'],0,0.1222330000000511,0.2,0,0,AccFast,9,19,Woman,Right,
35,5,1,1.6854010000006383,['n'],0,left,['u'],1,0.22899760000018432,0.2,0,0,AccFast,9,19,Woman,Right,
36,5,1,0.9843213000003743,['n'],1,right,['u'],1,0.2953324000000066,0.1,1,0,AccFast,9,19,Woman,Right,
37,5,1,0.8841982999992979,['n'],1,right,['u'],1,1.1947582000002512,0.4,1,0,AccFast,9,19,Woman,Right,
38,5,1,1.1010628000003635,['n'],1,right,['u'],1,0.24238510000031965,0.4,1,0,AccFast,9,19,Woman,Right,
39,5,1,0.68364290000045,['n'],1,right,['u'],1,0.4158180000003995,0.1,1,0,AccFast,9,19,Woman,Right,
40,5,1,0.6831732000000557,['n'],0,left,['u'],1,0.23108339999998861,0.4,0,0,AccFast,9,19,Woman,Right,
41,5,1,1.5332481999994343,['n'],0,left,['u'],1,0.14625210000031075,0.4,0,0,AccFast,9,19,Woman,Right,
42,5,1,2.3001875999998447,['c'],1,left,['e'],0,0.9307859999998982,0.4,0,0,AccFast,9,19,Woman,Right,
43,5,1,0.9331357999999454,['n'],1,right,['u'],1,0.4593814999998358,0.1,1,0,AccFast,9,19,Woman,Right,
44,5,1,0.8677804999997534,['n'],1,right,['u'],1,0.648861499999839,0.2,1,0,AccFast,9,19,Woman,Right,
45,5,1,1.9504589999996824,['n'],1,right,['u'],1,0.7077945000000909,0.1,1,0,AccFast,9,19,Woman,Right,
46,5,1,1.4846535999995467,['n'],1,right,['u'],1,0.5598937000004298,0.2,1,0,AccFast,9,19,Woman,Right,
47,5,1,1.7000026000005164,['c'],1,left,['e'],0,0.45629939999980706,0.4,0,0,AccFast,9,19,Woman,Right,
48,5,1,1.0157977999997456,['n'],1,right,['u'],1,0.9604449999997087,0.4,1,0,AccFast,9,19,Woman,Right,
49,5,1,0.6345817000001261,['n'],0,left,['u'],1,1.0745271999994657,0.1,0,0,AccFast,9,19,Woman,Right,
50,5,1,2.1016992000004393,['c'],1,left,['u'],1,1.1588931000005687,0.2,1,0,AccFast,9,19,Woman,Right,
51,5,1,1.467301700000462,['n'],0,left,['u'],1,1.0571965999997701,0.1,0,0,AccFast,9,19,Woman,Right,
52,5,1,1.03372920000038,['n'],1,right,['e'],0,1.408539699999892,0.1,0,0,AccFast,9,19,Woman,Right,
53,5,1,2.6482625999997254,['c'],0,right,['e'],0,0.562547700000323,0.1,1,0,AccFast,9,19,Woman,Right,
54,5,1,2.1349875999994765,['c'],1,left,['u'],1,1.0167420999996466,0.2,1,0,AccFast,9,19,Woman,Right,
55,5,1,0.9500289999996312,['c'],1,left,['u'],1,0.8762850999992224,0.4,1,0,AccFast,9,19,Woman,Right,
56,5,1,2.2341763000003994,['n'],1,right,['e'],0,0.6752396000001681,0.2,0,0,AccFast,9,19,Woman,Right,
57,5,1,1.034398699999656,['n'],0,left,['e'],0,0.7217609999997876,0.2,1,0,AccFast,9,19,Woman,Right,
58,5,1,2.667109099999834,['c'],0,right,['u'],1,2.285355900000468,0.4,0,0,AccFast,9,19,Woman,Right,
59,5,1,1.71723799999927,['n'],0,left,['u'],1,1.1691944000003787,0.1,0,0,AccFast,9,19,Woman,Right,
0,6,1,4.032173200000216,['n'],1,right,['u'],1,3.0541632999993453,0.1,1,0,AccAcc,9,19,Woman,Right,
1,6,1,1.7508082000003924,['n'],0,left,['u'],1,1.7610332999993261,0.1,0,0,AccAcc,9,19,Woman,Right,
2,6,1,1.6163691000001563,['n'],1,right,['u'],1,2.5418241000006674,0.2,1,0,AccAcc,9,19,Woman,Right,
3,6,1,3.1011530000005223,['n'],1,right,['u'],1,1.263119000000188,0.1,1,0,AccAcc,9,19,Woman,Right,
4,6,1,2.2499143999993976,['c'],1,left,['e'],0,2.7094551999998657,0.2,0,0,AccAcc,9,19,Woman,Right,
5,6,1,2.017701699999634,['n'],1,right,['u'],1,2.683966700000383,0.4,1,0,AccAcc,9,19,Woman,Right,
6,6,1,1.8661114999995334,['n'],1,right,['u'],1,0.7618916999999783,0.2,1,0,AccAcc,9,19,Woman,Right,
7,6,1,2.4510952999999063,['n'],0,left,['u'],1,1.259926099999575,0.2,0,0,AccAcc,9,19,Woman,Right,
8,6,1,1.6673553000000538,['n'],0,left,['u'],1,1.3062333999996554,0.2,0,0,AccAcc,9,19,Woman,Right,
9,6,1,1.8328069999997751,['n'],1,right,['u'],1,1.504905300000246,0.4,1,0,AccAcc,9,19,Woman,Right,
10,6,1,2.2661465000001044,['c'],1,left,['u'],1,1.6126248000000487,0.4,1,0,AccAcc,9,19,Woman,Right,
11,6,1,1.9672221999999238,['n'],0,left,['u'],1,1.96902560000035,0.1,0,0,AccAcc,9,19,Woman,Right,
12,6,1,1.382429699999193,['n'],1,right,['e'],0,1.8059738000001744,0.4,0,0,AccAcc,9,19,Woman,Right,
13,6,1,2.5664170000000013,['c'],1,left,['e'],0,1.7614550999996936,0.2,0,0,AccAcc,9,19,Woman,Right,
14,6,1,1.634316800000306,['n'],0,left,['u'],1,1.6125966999998127,0.1,0,0,AccAcc,9,19,Woman,Right,
15,6,1,3.0507831000004444,['c'],0,right,['e'],0,2.517143300000498,0.1,1,0,AccAcc,9,19,Woman,Right,
16,6,1,1.6678350000001956,['n'],1,right,['u'],1,2.545219300000099,0.2,1,0,AccAcc,9,19,Woman,Right,
17,6,1,2.03414309999971,['n'],1,right,['u'],1,2.220908000000236,0.4,1,0,AccAcc,9,19,Woman,Right,
18,6,1,1.968189799999891,['c'],1,left,['e'],0,2.3444653999995353,0.4,0,0,AccAcc,9,19,Woman,Right,
19,6,1,2.284103299999515,['n'],0,left,['u'],1,1.746280100000149,0.1,0,0,AccAcc,9,19,Woman,Right,
20,6,1,2.816775499999494,['n'],1,right,['e'],0,1.4399414999998044,0.2,0,0,AccAcc,9,19,Woman,Right,
21,6,1,3.4671785999998974,['n'],1,right,['e'],0,2.717597300000307,0.4,0,0,AccAcc,9,19,Woman,Right,
22,6,1,1.9842060999999376,['n'],1,right,['u'],1,2.5175153999998656,0.2,1,0,AccAcc,9,19,Woman,Right,
23,6,1,1.5673946999995678,['n'],1,right,['u'],1,4.08491419999973,0.4,1,0,AccAcc,9,19,Woman,Right,
24,6,1,1.1152734999996028,['c'],1,left,['e'],0,1.1292979999998352,0.4,0,0,AccAcc,9,19,Woman,Right,
25,6,1,1.6333176999996795,['n'],1,right,['u'],1,1.3091304999998101,0.1,1,0,AccAcc,9,19,Woman,Right,
26,6,1,2.3174322000004395,['n'],1,right,['e'],0,2.0468203999998877,0.2,0,0,AccAcc,9,19,Woman,Right,
27,6,1,1.084325799999533,['n'],1,right,['u'],1,3.7000660000003336,0.2,1,0,AccAcc,9,19,Woman,Right,
28,6,1,2.367579200000364,['n'],0,left,['e'],0,2.036931700000423,0.2,1,0,AccAcc,9,19,Woman,Right,
29,6,1,1.6670361999995293,['n'],1,right,['u'],1,1.7163333999997121,0.2,1,0,AccAcc,9,19,Woman,Right,
30,6,1,1.5663807999999335,['n'],0,left,['u'],1,0.7236241999999038,0.1,0,0,AccAcc,9,19,Woman,Right,
31,6,1,1.9174764999997933,['n'],0,left,['e'],0,1.4208475999994334,0.4,1,0,AccAcc,9,19,Woman,Right,
32,6,1,1.7168845999995028,['n'],0,left,['u'],1,1.7157575000001088,0.1,0,0,AccAcc,9,19,Woman,Right,
33,6,1,1.934223899999779,['c'],1,left,['u'],1,5.123410999999578,0.4,1,0,AccAcc,9,19,Woman,Right,
34,6,1,1.7844109999996363,['n'],0,left,['u'],1,1.6989721999998437,0.1,0,0,AccAcc,9,19,Woman,Right,
35,6,1,1.8174879999996847,['n'],1,right,['u'],1,1.7694877000003544,0.4,1,0,AccAcc,9,19,Woman,Right,
36,6,1,2.349278300000151,['n'],0,left,['u'],1,1.2244515000002139,0.2,0,0,AccAcc,9,19,Woman,Right,
37,6,1,1.4997509000004356,['n'],1,right,['u'],1,1.0225092000000586,0.4,1,0,AccAcc,9,19,Woman,Right,
38,6,1,1.8485889000003226,['n'],1,right,['u'],1,3.3269067000001087,0.2,1,0,AccAcc,9,19,Woman,Right,
39,6,1,1.2839905000000726,['n'],0,left,['u'],1,3.5931283999998413,0.2,0,0,AccAcc,9,19,Woman,Right,
40,6,1,3.1328199999998105,['c'],1,left,['e'],0,2.0170254000004206,0.4,0,0,AccAcc,9,19,Woman,Right,
41,6,1,1.432152600000336,['n'],1,right,['u'],1,1.6574631999992562,0.1,1,0,AccAcc,9,19,Woman,Right,
42,6,1,1.450016400000095,['n'],1,right,['u'],1,2.159799600000042,0.1,1,0,AccAcc,9,19,Woman,Right,
43,6,1,1.9335405999991053,['n'],0,left,['u'],1,1.679549099999349,0.2,0,0,AccAcc,9,19,Woman,Right,
44,6,1,1.384470400000282,['n'],1,right,['u'],1,0.9358566999999312,0.2,1,0,AccAcc,9,19,Woman,Right,
45,6,1,1.8996212000001833,['n'],1,right,['u'],1,1.4817557999995188,0.1,1,0,AccAcc,9,19,Woman,Right,
46,6,1,1.0678275999998732,['c'],1,left,['e'],0,1.2062669999995705,0.1,0,0,AccAcc,9,19,Woman,Right,
47,6,1,1.7841644000000088,['c'],1,left,['e'],0,1.2666325999998662,0.4,0,0,AccAcc,9,19,Woman,Right,
48,6,1,2.033168900000419,['n'],0,left,['e'],0,1.664469000000281,0.1,1,0,AccAcc,9,19,Woman,Right,
49,6,1,2.5327942999992956,['c'],1,left,['e'],0,1.803429600000527,0.1,0,0,AccAcc,9,19,Woman,Right,
50,6,1,1.2513656000000992,['c'],1,left,['e'],0,1.8288369000001694,0.4,0,0,AccAcc,9,19,Woman,Right,
51,6,1,1.4341535000003205,['n'],1,right,['u'],1,1.6368359999996756,0.1,1,0,AccAcc,9,19,Woman,Right,
52,6,1,2.7164184000002933,['c'],1,left,['e'],0,1.1782247000001007,0.2,0,0,AccAcc,9,19,Woman,Right,
53,6,1,2.7499502999999095,['c'],1,left,['e'],0,2.944030599999678,0.4,0,0,AccAcc,9,19,Woman,Right,
54,6,1,2.083141699999942,['n'],1,right,['u'],1,2.1707925000000614,0.2,1,0,AccAcc,9,19,Woman,Right,
55,6,1,2.8175516000001153,['n'],0,left,['e'],0,1.4144993999998405,0.1,1,0,AccAcc,9,19,Woman,Right,
56,6,1,1.3835447999999815,['n'],1,right,['u'],1,1.3213327000003119,0.4,1,0,AccAcc,9,19,Woman,Right,
57,6,1,1.6490136000002167,['n'],1,right,['u'],1,1.5263693000006242,0.1,1,0,AccAcc,9,19,Woman,Right,
58,6,1,3.1504518000001553,['n'],0,left,['u'],1,1.3901716999998825,0.4,0,0,AccAcc,9,19,Woman,Right,
59,6,1,1.5499299000002793,['n'],1,right,['u'],1,2.6997137999996994,0.4,1,0,AccAcc,9,19,Woman,Right,
0,7,1,1.5173008000001573,['n'],1,right,['u'],1,3.4748774999998204,0.2,1,0,FastAcc,9,19,Woman,Right,
1,7,1,0.8001700000004348,['n'],1,right,['u'],1,1.6913273999998637,0.4,1,0,FastAcc,9,19,Woman,Right,
2,7,1,1.1835080999999263,['c'],1,left,['e'],0,4.747407899999416,0.4,0,0,FastAcc,9,19,Woman,Right,
3,7,1,0.9831783999998152,['n'],0,left,['u'],1,2.1068011000006663,0.4,0,0,FastAcc,9,19,Woman,Right,
4,7,1,0.6170315999997911,['n'],1,right,['e'],0,3.103585899999416,0.4,0,0,FastAcc,9,19,Woman,Right,
5,7,1,0.7844170999997004,['n'],1,right,['e'],0,2.391264400000182,0.2,0,0,FastAcc,9,19,Woman,Right,
6,7,1,0.7156239000005371,['n'],0,left,['u'],1,2.447356700000455,0.1,0,0,FastAcc,9,19,Woman,Right,
7,7,1,0.4168369999997594,['n'],0,left,['e'],0,2.5592869000001883,0.4,1,0,FastAcc,9,19,Woman,Right,
8,7,1,0.41834229999949457,['n'],1,right,['u'],1,3.2905459000003248,0.4,1,0,FastAcc,9,19,Woman,Right,
9,7,1,0.35081219999938185,['n'],0,left,['u'],1,2.844865399999435,0.4,0,0,FastAcc,9,19,Woman,Right,
10,7,1,0.5685505999999805,['n'],1,right,['u'],1,2.9031659000002037,0.2,1,0,FastAcc,9,19,Woman,Right,
11,7,1,0.5836036000000604,['c'],0,right,['u'],1,2.047170200000437,0.1,0,0,FastAcc,9,19,Woman,Right,
12,7,1,0.5841591000007611,['c'],0,right,['u'],1,2.2641679999996995,0.2,0,0,FastAcc,9,19,Woman,Right,
13,7,1,0.6013254999998026,['n'],1,right,['e'],0,1.7531364000005851,0.1,0,0,FastAcc,9,19,Woman,Right,
14,7,1,0.5326499000002514,['c'],1,left,['e'],0,2.4164639999999054,0.4,0,0,FastAcc,9,19,Woman,Right,
15,7,1,0.5178231999998388,['c'],0,right,['e'],0,2.1411527000000206,0.1,1,0,FastAcc,9,19,Woman,Right,
16,7,1,0.5498505000005025,['c'],1,left,['e'],0,2.3730249000000185,0.1,0,0,FastAcc,9,19,Woman,Right,
17,7,1,0.48447660000056203,['c'],0,right,['e'],0,2.6296116000003167,0.2,1,0,FastAcc,9,19,Woman,Right,
18,7,1,2.233363299999837,['c'],0,right,['e'],0,1.14224540000032,0.1,1,0,FastAcc,9,19,Woman,Right,
19,7,1,0.667890300000181,['c'],1,left,['e'],0,2.6411674999999377,0.1,0,0,FastAcc,9,19,Woman,Right,
20,7,1,0.6836028999996415,['c'],0,right,['e'],0,1.6629296000000977,0.2,1,0,FastAcc,9,19,Woman,Right,
21,7,1,0.6168057999993835,['n'],1,right,['e'],0,1.799736099999791,0.2,0,0,FastAcc,9,19,Woman,Right,
22,7,1,0.4657804999997097,['c'],0,right,['u'],1,1.2630073999998785,0.4,0,0,FastAcc,9,19,Woman,Right,
23,7,1,0.5011562999998205,['n'],0,left,['u'],1,2.0104363000000376,0.4,0,0,FastAcc,9,19,Woman,Right,
24,7,1,0.36662109999997483,['c'],1,left,['e'],0,1.9669850999998744,0.2,0,0,FastAcc,9,19,Woman,Right,
25,7,1,0.46696329999940644,['n'],0,left,['e'],0,0.8643535999999585,0.1,1,0,FastAcc,9,19,Woman,Right,
26,7,1,0.5673423999996885,['c'],1,left,['u'],1,1.6263139999991836,0.4,1,0,FastAcc,9,19,Woman,Right,
27,7,1,0.6175809999995181,['n'],0,left,['e'],0,1.6667121000000407,0.1,1,0,FastAcc,9,19,Woman,Right,
28,7,1,0.4168289999997796,['c'],1,left,['u'],1,1.9216804999996384,0.2,1,0,FastAcc,9,19,Woman,Right,
29,7,1,0.6005439999998998,['c'],0,right,['u'],1,2.1446963999997024,0.2,0,0,FastAcc,9,19,Woman,Right,
30,7,1,0.4508955999999671,['c'],0,right,['u'],1,2.2512980000001335,0.2,0,0,FastAcc,9,19,Woman,Right,
31,7,1,0.6333390999998301,['c'],0,right,['u'],1,4.123084299999391,0.1,0,0,FastAcc,9,19,Woman,Right,
32,7,1,1.317382500000349,['c'],1,left,['u'],1,1.2854862000003777,0.1,1,0,FastAcc,9,19,Woman,Right,
33,7,1,0.6853007999998226,['n'],1,right,['u'],1,2.376779400000487,0.4,1,0,FastAcc,9,19,Woman,Right,
34,7,1,0.749752400000034,['n'],0,left,['u'],1,2.6877713000003496,0.1,0,0,FastAcc,9,19,Woman,Right,
35,7,1,0.5180733999995937,['n'],1,right,['u'],1,2.0662396000006993,0.2,1,0,FastAcc,9,19,Woman,Right,
36,7,1,0.6671784999998636,['n'],0,left,['u'],1,3.1602997000009054,0.1,0,0,FastAcc,9,19,Woman,Right,
37,7,1,0.35048230000029434,['n'],1,right,['u'],1,1.7584322999991855,0.2,1,0,FastAcc,9,19,Woman,Right,
38,7,1,0.2835464999998294,['n'],1,right,['u'],1,2.272322100000565,0.4,1,0,FastAcc,9,19,Woman,Right,
39,7,1,0.5176665999997567,['n'],1,right,['u'],1,2.3393411999995806,0.2,1,0,FastAcc,9,19,Woman,Right,
40,7,1,0.26619840000057593,['n'],0,left,['u'],1,2.382872199999838,0.1,0,0,FastAcc,9,19,Woman,Right,
41,7,1,0.3175333999997747,['n'],1,right,['u'],1,2.4533452000005127,0.1,1,0,FastAcc,9,19,Woman,Right,
42,7,1,0.3177178999994794,['n'],1,right,['u'],1,2.3451560000003155,0.2,1,0,FastAcc,9,19,Woman,Right,
43,7,1,0.28350219999992987,['n'],0,left,['u'],1,2.5790573999993285,0.4,0,0,FastAcc,9,19,Woman,Right,
44,7,1,0.38298570000006293,['n'],0,left,['u'],1,2.3352506999999605,0.1,0,0,FastAcc,9,19,Woman,Right,
45,7,1,0.4348974000004091,['n'],0,left,['u'],1,3.458687800000007,0.1,0,0,FastAcc,9,19,Woman,Right,
46,7,1,0.44991040000059,['n'],0,left,['e'],0,2.154434300000503,0.4,1,0,FastAcc,9,19,Woman,Right,
47,7,1,0.5160450999992463,['n'],1,right,['e'],0,2.5466968999999153,0.4,0,0,FastAcc,9,19,Woman,Right,
48,7,1,0.583366400000159,['n'],1,right,['e'],0,2.4879739999996673,0.4,0,0,FastAcc,9,19,Woman,Right,
49,7,1,0.7178278000001228,['n'],0,left,['e'],0,2.026191299999482,0.1,1,0,FastAcc,9,19,Woman,Right,
50,7,1,0.6679210000002058,['c'],1,left,['e'],0,1.8418208000002778,0.2,0,0,FastAcc,9,19,Woman,Right,
51,7,1,0.5174563999999009,['n'],0,left,['e'],0,1.2226292999994257,0.1,1,0,FastAcc,9,19,Woman,Right,
52,7,1,0.48475580000012997,['n'],1,right,['u'],1,2.5810351000000082,0.4,1,0,FastAcc,9,19,Woman,Right,
53,7,1,0.9507586999998239,['c'],0,right,['u'],1,1.9305860000004031,0.2,0,0,FastAcc,9,19,Woman,Right,
54,7,1,0.7671634999996968,['n'],0,left,['e'],0,2.5613875000008193,0.2,1,0,FastAcc,9,19,Woman,Right,
55,7,1,0.4499532999998337,['n'],1,right,['e'],0,2.843966399999772,0.1,0,0,FastAcc,9,19,Woman,Right,
56,7,1,1.400129000000561,['n'],0,left,['u'],1,3.3494596999998976,0.4,0,0,FastAcc,9,19,Woman,Right,
57,7,1,1.2011787999999797,['n'],0,left,['e'],0,1.9869840000001204,0.2,1,0,FastAcc,9,19,Woman,Right,
58,7,1,0.5826946000006501,['c'],1,left,['u'],1,1.999491699999453,0.4,1,0,FastAcc,9,19,Woman,Right,
59,7,1,0.43376200000056997,['n'],0,left,['e'],0,2.080357300000287,0.2,1,0,FastAcc,9,19,Woman,Right,
0,8,1,0.5826924000002691,['n'],0,left,['e'],0,0.7538146999995661,0.1,1,0,FastFast,9,19,Woman,Right,
1,8,1,0.4842062999996415,['c'],1,left,['u'],1,0.4819113000003199,0.4,1,0,FastFast,9,19,Woman,Right,
2,8,1,0.5178013999993709,['c'],0,right,['u'],1,0.2521113000002515,0.1,0,0,FastFast,9,19,Woman,Right,
3,8,1,0.46536749999995664,['c'],1,left,['u'],1,0.3232606000001397,0.1,1,0,FastFast,9,19,Woman,Right,
4,8,1,0.41870119999930466,['c'],1,left,['u'],1,0.3270500999997239,0.1,1,0,FastFast,9,19,Woman,Right,
5,8,1,0.41655590000027587,['c'],1,left,['u'],1,0.38095740000062506,0.2,1,0,FastFast,9,19,Woman,Right,
6,8,1,0.5501714000001812,['n'],1,right,['e'],0,0.21844569999939267,0.4,0,0,FastFast,9,19,Woman,Right,
7,8,1,0.9676217000005636,['n'],1,right,['e'],0,0.36450650000006135,0.2,0,0,FastFast,9,19,Woman,Right,
8,8,1,0.5846624999994674,['n'],1,right,['u'],1,0.3127713000003496,0.4,1,0,FastFast,9,19,Woman,Right,
9,8,1,0.4322846999993999,['n'],0,left,['u'],1,0.2545346000006248,0.1,0,0,FastFast,9,19,Woman,Right,
10,8,1,0.4677553999999873,['n'],0,left,['u'],1,0.2590176000003339,0.4,0,0,FastFast,9,19,Woman,Right,
11,8,1,0.5498761999997441,['n'],0,left,['u'],1,0.5509187999996357,0.2,0,0,FastFast,9,19,Woman,Right,
12,8,1,0.650445000000218,['n'],0,left,['e'],0,0.4720079999997324,0.4,1,0,FastFast,9,19,Woman,Right,
13,8,1,0.5010841999992408,['n'],0,left,['e'],0,0.4837056999995184,0.4,1,0,FastFast,9,19,Woman,Right,
14,8,1,0.5833559000002424,['n'],1,right,['u'],1,0.2530493000003844,0.1,1,0,FastFast,9,19,Woman,Right,
15,8,1,0.7673191999992923,['n'],0,left,['e'],0,0.1335415000003195,0.2,1,0,FastFast,9,19,Woman,Right,
16,8,1,0.38483950000045297,['n'],1,right,['e'],0,0.09921609999946668,0.2,0,0,FastFast,9,19,Woman,Right,
17,8,1,0.48387800000000425,['n'],0,left,['e'],0,0.15821800000048825,0.4,1,0,FastFast,9,19,Woman,Right,
18,8,1,0.9160059999994701,['n'],1,right,['u'],1,0.2794531999998071,0.4,1,0,FastFast,9,19,Woman,Right,
19,8,1,0.6662606999998388,['n'],1,right,['e'],0,0.18054490000031365,0.4,0,0,FastFast,9,19,Woman,Right,
20,8,1,0.4166062000003876,['n'],1,right,['u'],1,0.19055610000032175,0.1,1,0,FastFast,9,19,Woman,Right,
21,8,1,0.5341548999995211,['n'],1,right,['u'],1,0.18000639999991108,0.2,1,0,FastFast,9,19,Woman,Right,
22,8,1,0.3840307999998913,['n'],1,right,['u'],1,0.19244919999982812,0.2,1,0,FastFast,9,19,Woman,Right,
23,8,1,0.3505484000006618,['n'],1,right,['u'],1,0.20434610000029352,0.2,1,0,FastFast,9,19,Woman,Right,
24,8,1,0.2666238000001613,['n'],0,left,['u'],1,0.1886914999995497,0.2,0,0,FastFast,9,19,Woman,Right,
25,8,1,0.43386589999954595,['n'],1,right,['u'],1,0.19846450000022742,0.2,1,0,FastFast,9,19,Woman,Right,
26,8,1,0.3339413000003333,['n'],0,left,['e'],0,0.17869810000047437,0.4,1,0,FastFast,9,19,Woman,Right,
27,8,1,1.349854599999162,['c'],1,left,['e'],0,0.08918180000000575,0.4,0,0,FastFast,9,19,Woman,Right,
28,8,1,0.5487567000000126,['n'],1,right,['e'],0,0.2257593000003908,0.4,0,0,FastFast,9,19,Woman,Right,
29,8,1,0.5851830000001428,['n'],0,left,['u'],1,0.3077549999998155,0.2,0,0,FastFast,9,19,Woman,Right,
30,8,1,0.3160624000001917,['n'],1,right,['u'],1,0.38252749999992375,0.1,1,0,FastFast,9,19,Woman,Right,
31,8,1,0.2669960000002902,['n'],0,left,['e'],0,0.2629790999999386,0.1,1,0,FastFast,9,19,Woman,Right,
32,8,1,0.3006805000004533,['n'],1,right,['u'],1,0.35419999999976426,0.4,1,0,FastFast,9,19,Woman,Right,
33,8,1,0.2677995000003648,['n'],1,right,['u'],1,0.2189834000000701,0.4,1,0,FastFast,9,19,Woman,Right,
34,8,1,0.38555189999988215,['n'],1,right,['u'],1,0.16581609999957436,0.2,1,0,FastFast,9,19,Woman,Right,
35,8,1,0.4181164000001445,['n'],0,left,['u'],1,0.17653000000063912,0.2,0,0,FastFast,9,19,Woman,Right,
36,8,1,0.40059279999968567,['n'],0,left,['u'],1,0.17310670000006212,0.1,0,0,FastFast,9,19,Woman,Right,
37,8,1,0.3169061000007787,['n'],0,left,['u'],1,0.12400950000028388,0.1,0,0,FastFast,9,19,Woman,Right,
38,8,1,1.4337938000007853,['c'],0,right,['e'],0,0.09602530000029219,0.2,1,0,FastFast,9,19,Woman,Right,
39,8,1,0.45057830000041577,['n'],0,left,['e'],0,0.12522040000021661,0.4,1,0,FastFast,9,19,Woman,Right,
40,8,1,0.5828850000007151,['n'],0,left,['e'],0,0.11608129999967787,0.2,1,0,FastFast,9,19,Woman,Right,
41,8,1,0.3853982000000542,['n'],0,left,['e'],0,0.27381009999953676,0.4,1,0,FastFast,9,19,Woman,Right,
42,8,1,0.7176876999992601,['c'],0,right,['e'],0,0.2522205999994185,0.1,1,0,FastFast,9,19,Woman,Right,
43,8,1,0.9496823999998014,['c'],0,right,['e'],0,0.23890570000003208,0.2,1,0,FastFast,9,19,Woman,Right,
44,8,1,0.5501218999997946,['n'],1,right,['u'],1,0.2579079000006459,0.1,1,0,FastFast,9,19,Woman,Right,
45,8,1,0.5164866999994047,['c'],1,left,['e'],0,0.5342510999998922,0.4,0,0,FastFast,9,19,Woman,Right,
46,8,1,1.0009995999998864,['c'],1,left,['u'],1,0.7149181000004319,0.1,1,0,FastFast,9,19,Woman,Right,
47,8,1,0.4844111000002158,['n'],1,right,['e'],0,0.38136109999959444,0.4,0,0,FastFast,9,19,Woman,Right,
48,8,1,0.33327420000023267,['c'],0,right,['e'],0,0.291403100000025,0.1,1,0,FastFast,9,19,Woman,Right,
49,8,1,0.3009390999995958,['n'],1,right,['e'],0,0.28749989999960235,0.2,0,0,FastFast,9,19,Woman,Right,
50,8,1,0.5168158999995285,['c'],1,left,['e'],0,0.2894437000004473,0.1,0,0,FastFast,9,19,Woman,Right,
51,8,1,0.31841979999990144,['n'],1,right,['u'],1,0.5390779999997903,0.4,1,0,FastFast,9,19,Woman,Right,
52,8,1,0.4346199000001434,['c'],1,left,['u'],1,1.0149224999995567,0.2,1,0,FastFast,9,19,Woman,Right,
53,8,1,0.9676110999998855,['n'],1,right,['u'],1,0.18620459999965533,0.2,1,0,FastFast,9,19,Woman,Right,
54,8,1,0.26757550000002084,['c'],0,right,['u'],1,0.42670129999987694,0.1,0,0,FastFast,9,19,Woman,Right,
55,8,1,0.6676760000000286,['n'],1,right,['u'],1,0.33791980000023614,0.1,1,0,FastFast,9,19,Woman,Right,
56,8,1,0.7341698000000179,['n'],1,right,['u'],1,0.2015745999997307,0.2,1,0,FastFast,9,19,Woman,Right,
57,8,1,0.6346018000003824,['n'],0,left,['u'],1,0.2186890000002677,0.1,0,0,FastFast,9,19,Woman,Right,
58,8,1,0.28355589999955555,['n'],0,left,['u'],1,0.5211469000005309,0.4,0,0,FastFast,9,19,Woman,Right,
59,8,1,0.532188799999858,['n'],0,left,['u'],1,0.4024514000002455,0.1,0,0,FastFast,9,19,Woman,Right,
0,9,1,1.7169391000006726,['n'],1,right,['e'],0,0.6060927999997148,0.2,0,0,AccFast,9,19,Woman,Right,
1,9,1,0.9510972000007314,['n'],0,left,['u'],1,0.7707235999996556,0.1,0,0,AccFast,9,19,Woman,Right,
2,9,1,2.733766100000139,['c'],1,left,['u'],1,0.4896844000004421,0.4,1,0,AccFast,9,19,Woman,Right,
3,9,1,0.8667987999997422,['c'],1,left,['u'],1,1.1429638999998133,0.4,1,0,AccFast,9,19,Woman,Right,
4,9,1,0.6336819000007381,['n'],1,right,['u'],1,0.7867145000000164,0.2,1,0,AccFast,9,19,Woman,Right,
5,9,1,1.8347845999996935,['n'],1,right,['u'],1,0.8123454999995374,0.4,1,0,AccFast,9,19,Woman,Right,
6,9,1,0.6179296999998769,['c'],1,left,['u'],1,1.0936985999996978,0.2,1,0,AccFast,9,19,Woman,Right,
7,9,1,0.6328063999999358,['c'],1,left,['u'],1,0.2759826999999859,0.2,1,0,AccFast,9,19,Woman,Right,
8,9,1,1.0502808999999615,['c'],1,left,['e'],0,0.43434399999932793,0.1,0,0,AccFast,9,19,Woman,Right,
9,9,1,0.916169600000103,['c'],1,left,['e'],0,0.4625693999996656,0.1,0,0,AccFast,9,19,Woman,Right,
10,9,1,0.5485884999998234,['n'],1,right,['u'],1,0.6491460000006555,0.4,1,0,AccFast,9,19,Woman,Right,
11,9,1,0.799218899999687,['c'],1,left,['u'],1,0.688931099999536,0.2,1,0,AccFast,9,19,Woman,Right,
12,9,1,0.46586050000041723,['n'],1,right,['u'],1,0.7093905000001541,0.2,1,0,AccFast,9,19,Woman,Right,
13,9,1,1.3999470999997357,['n'],0,left,['u'],1,0.19685470000058558,0.1,0,0,AccFast,9,19,Woman,Right,
14,9,1,1.8833574999998746,['n'],0,left,['e'],0,0.3230170000006183,0.4,1,0,AccFast,9,19,Woman,Right,
15,9,1,0.8336306999999579,['c'],1,left,['u'],1,0.5833743000002869,0.2,1,0,AccFast,9,19,Woman,Right,
16,9,1,0.9829374999999345,['n'],0,left,['u'],1,0.39586269999927026,0.2,0,0,AccFast,9,19,Woman,Right,
17,9,1,0.584819100000459,['n'],1,right,['u'],1,0.18341189999955532,0.1,1,0,AccFast,9,19,Woman,Right,
18,9,1,0.7332397000000128,['n'],0,left,['e'],0,0.40497700000014447,0.2,1,0,AccFast,9,19,Woman,Right,
19,9,1,1.04940600000009,['n'],1,right,['u'],1,0.15733980000004522,0.4,1,0,AccFast,9,19,Woman,Right,
20,9,1,1.2844595000005938,['n'],0,left,['e'],0,0.08666180000000168,0.1,1,0,AccFast,9,19,Woman,Right,
21,9,1,1.0830653000002712,['n'],1,right,['u'],1,0.1544824000002336,0.4,1,0,AccFast,9,19,Woman,Right,
22,9,1,0.7013839000001099,['n'],0,left,['u'],1,0.13814490000004298,0.1,0,0,AccFast,9,19,Woman,Right,
23,9,1,0.8333431999999448,['n'],1,right,['e'],0,0.1021429000002172,0.1,0,0,AccFast,9,19,Woman,Right,
24,9,1,0.5999846999993679,['n'],1,right,['u'],1,0.14084280000042781,0.2,1,0,AccFast,9,19,Woman,Right,
25,9,1,0.984373900000719,['n'],0,left,['u'],1,0.09826880000036908,0.4,0,0,AccFast,9,19,Woman,Right,
26,9,1,1.2497608999992735,['c'],0,right,['u'],1,0.0949296000007962,0.1,0,0,AccFast,9,19,Woman,Right,
27,9,1,0.7340524000001096,['c'],0,right,['e'],0,0.04903999999987718,0.2,1,0,AccFast,9,19,Woman,Right,
28,9,1,0.733827800000654,['c'],0,right,['e'],0,0.13244140000006155,0.1,1,0,AccFast,9,19,Woman,Right,
29,9,1,0.8826979999994364,['n'],0,left,['e'],0,0.17438459999993938,0.1,1,0,AccFast,9,19,Woman,Right,
30,9,1,0.9000368000006347,['c'],1,left,['e'],0,0.10145749999992404,0.4,0,0,AccFast,9,19,Woman,Right,
31,9,1,1.0163571000002776,['n'],1,right,['e'],0,0.07615160000023025,0.4,0,0,AccFast,9,19,Woman,Right,
32,9,1,0.7682670000003782,['n'],1,right,['u'],1,0.26836160000038944,0.1,1,0,AccFast,9,19,Woman,Right,
33,9,1,0.8172944999996616,['n'],1,right,['u'],1,0.19595200000003388,0.1,1,0,AccFast,9,19,Woman,Right,
34,9,1,0.901249700000335,['n'],0,left,['e'],0,0.09001970000008441,0.4,1,0,AccFast,9,19,Woman,Right,
35,9,1,1.1842599999999948,['n'],0,left,['e'],0,0.09025970000038797,0.2,1,0,AccFast,9,19,Woman,Right,
36,9,1,0.4845320999993419,['n'],1,right,['e'],0,0.08559360000072047,0.4,0,0,AccFast,9,19,Woman,Right,
37,9,1,0.31781580000006215,['n'],0,left,['u'],1,0.16782669999975042,0.1,0,0,AccFast,9,19,Woman,Right,
38,9,1,0.24920139999994717,['n'],1,right,['u'],1,0.13859109999975772,0.4,1,0,AccFast,9,19,Woman,Right,
39,9,1,0.3344929000004413,['n'],1,right,['u'],1,0.13739579999946727,0.4,1,0,AccFast,9,19,Woman,Right,
40,9,1,0.2839242000000013,['n'],0,left,['u'],1,0.15508030000000872,0.1,0,0,AccFast,9,19,Woman,Right,
41,9,1,0.4176886999994167,['n'],0,left,['e'],0,0.4551343999992241,0.4,1,0,AccFast,9,19,Woman,Right,
42,9,1,0.4499148000004425,['n'],0,left,['e'],0,0.10145699999975477,0.1,1,0,AccFast,9,19,Woman,Right,
43,9,1,0.5513086999999359,['n'],1,right,['e'],0,0.15767609999966226,0.2,0,0,AccFast,9,19,Woman,Right,
44,9,1,0.4165863000007448,['n'],0,left,['e'],0,0.1061478999999963,0.1,1,0,AccFast,9,19,Woman,Right,
45,9,1,0.3004757000007885,['n'],0,left,['u'],1,0.12452639999992243,0.2,0,0,AccFast,9,19,Woman,Right,
46,9,1,0.3844407999995383,['n'],1,right,['u'],1,0.15423900000041613,0.4,1,0,AccFast,9,19,Woman,Right,
47,9,1,0.2839249999997264,['n'],1,right,['u'],1,0.13902109999980894,0.4,1,0,AccFast,9,19,Woman,Right,
48,9,1,0.5826002000003427,['n'],1,right,['u'],1,0.14571990000058577,0.4,1,0,AccFast,9,19,Woman,Right,
49,9,1,0.3334818000002997,['n'],1,right,['u'],1,0.11190269999951852,0.4,1,0,AccFast,9,19,Woman,Right,
50,9,1,0.30098980000002484,['n'],1,right,['u'],1,0.13050490000023274,0.2,1,0,AccFast,9,19,Woman,Right,
51,9,1,0.301508699999431,['n'],1,right,['u'],1,0.1314964000002874,0.4,1,0,AccFast,9,19,Woman,Right,
52,9,1,0.4000662000007651,['n'],1,right,['u'],1,0.400837600000159,0.2,1,0,AccFast,9,19,Woman,Right,
53,9,1,0.5677064000001337,['c'],1,left,['e'],0,0.347794199999953,0.2,0,0,AccFast,9,19,Woman,Right,
54,9,1,0.46851299999980256,['c'],1,left,['u'],1,0.09413709999989806,0.2,1,0,AccFast,9,19,Woman,Right,
55,9,1,0.7001875999994809,['n'],0,left,['u'],1,0.3524976000007882,0.1,0,0,AccFast,9,19,Woman,Right,
56,9,1,3.499114900000677,['n'],1,right,['u'],1,1.4823561000002883,0.2,1,0,AccFast,9,19,Woman,Right,
57,9,1,1.7999937000004138,['n'],1,right,['u'],1,0.1697643000006792,0.2,1,0,AccFast,9,19,Woman,Right,
58,9,1,1.4512886000002254,['n'],0,left,['u'],1,0.15547700000024633,0.1,0,0,AccFast,9,19,Woman,Right,
59,9,1,0.6679990000002363,['n'],1,right,['u'],1,0.10984730000018317,0.1,1,0,AccFast,9,19,Woman,Right,
0,10,1,2.448671600000125,['n'],1,right,['u'],1,2.0080498999996053,0.2,1,0,AccAcc,9,19,Woman,Right,
1,10,1,1.6835347999995065,['c'],1,left,['u'],1,1.9423635000002832,0.1,1,0,AccAcc,9,19,Woman,Right,
2,10,1,1.0992745999992621,['n'],0,left,['u'],1,2.3999866999993174,0.4,0,0,AccAcc,9,19,Woman,Right,
3,10,1,0.6168300999997882,['n'],1,right,['u'],1,2.6826507999994647,0.2,1,0,AccAcc,9,19,Woman,Right,
4,10,1,0.8011748999997508,['c'],0,right,['e'],0,1.5216839000004256,0.1,1,0,AccAcc,9,19,Woman,Right,
5,10,1,0.7513365000004342,['c'],0,right,['u'],1,2.6658245999997234,0.1,0,0,AccAcc,9,19,Woman,Right,
6,10,1,0.7508298000002469,['n'],0,left,['u'],1,2.2927212000004147,0.4,0,0,AccAcc,9,19,Woman,Right,
7,10,1,1.2673971000003803,['c'],0,right,['u'],1,1.8330013999993753,0.4,0,0,AccAcc,9,19,Woman,Right,
8,10,1,1.1342291000000841,['n'],1,right,['u'],1,1.909904799999822,0.1,1,0,AccAcc,9,19,Woman,Right,
9,10,1,1.0347326000000976,['n'],1,right,['u'],1,1.9548875000000407,0.1,1,0,AccAcc,9,19,Woman,Right,
10,10,1,0.9001083000002836,['n'],0,left,['u'],1,2.211990099999639,0.4,0,0,AccAcc,9,19,Woman,Right,
11,10,1,0.9180000999995173,['n'],0,left,['u'],1,1.9610222999999678,0.1,0,0,AccAcc,9,19,Woman,Right,
12,10,1,0.814922800000204,['n'],0,left,['u'],1,1.9985633999995116,0.1,0,0,AccAcc,9,19,Woman,Right,
13,10,1,0.8334333999991941,['n'],1,right,['u'],1,2.5272727999999915,0.1,1,0,AccAcc,9,19,Woman,Right,
14,10,1,0.849684800000432,['n'],1,right,['u'],1,2.5552601999997933,0.2,1,0,AccAcc,9,19,Woman,Right,
15,10,1,0.80086510000001,['n'],1,right,['u'],1,2.6800497000003816,0.4,1,0,AccAcc,9,19,Woman,Right,
16,10,1,1.05018790000031,['n'],1,right,['u'],1,2.502153599999474,0.2,1,0,AccAcc,9,19,Woman,Right,
17,10,1,0.6342264000004434,['n'],1,right,['u'],1,1.9790501999996195,0.2,1,0,AccAcc,9,19,Woman,Right,
18,10,1,1.3832517999999254,['n'],0,left,['e'],0,1.288025099999686,0.2,1,0,AccAcc,9,19,Woman,Right,
19,10,1,1.7665640999994139,['n'],0,left,['u'],1,1.6962042999994082,0.1,0,0,AccAcc,9,19,Woman,Right,
20,10,1,1.3342833000006067,['n'],0,left,['u'],1,1.7697572000006403,0.2,0,0,AccAcc,9,19,Woman,Right,
21,10,1,0.7678200999998808,['n'],1,right,['u'],1,1.9111182999995435,0.1,1,0,AccAcc,9,19,Woman,Right,
22,10,1,0.717477900000631,['n'],0,left,['u'],1,2.113541699999587,0.4,0,0,AccAcc,9,19,Woman,Right,
23,10,1,1.1174936999996135,['n'],1,right,['e'],0,2.0509367000004204,0.2,0,0,AccAcc,9,19,Woman,Right,
24,10,1,0.9668467999999848,['n'],0,left,['u'],1,1.9658941999996387,0.2,0,0,AccAcc,9,19,Woman,Right,
25,10,1,1.0171398000002227,['n'],1,right,['u'],1,1.9125229000001127,0.2,1,0,AccAcc,9,19,Woman,Right,
26,10,1,0.748870800000077,['n'],0,left,['u'],1,1.8580565000002025,0.2,0,0,AccAcc,9,19,Woman,Right,
27,10,1,1.0502934000005553,['n'],1,right,['e'],0,1.5355996000007508,0.4,0,0,AccAcc,9,19,Woman,Right,
28,10,1,0.7664040999998178,['n'],1,right,['e'],0,2.0231433999997535,0.1,0,0,AccAcc,9,19,Woman,Right,
29,10,1,0.8009685000006357,['c'],0,right,['e'],0,1.7852953999999954,0.4,1,0,AccAcc,9,19,Woman,Right,
30,10,1,0.9509320999995907,['n'],1,right,['u'],1,1.5019476999996186,0.2,1,0,AccAcc,9,19,Woman,Right,
31,10,1,1.9501651000000493,['n'],0,left,['e'],0,2.022844299999633,0.4,1,0,AccAcc,9,19,Woman,Right,
32,10,1,0.9178117999999813,['c'],1,left,['e'],0,2.100302699999702,0.2,0,0,AccAcc,9,19,Woman,Right,
33,10,1,2.65064269999948,['n'],0,left,['e'],0,1.8022621999998591,0.1,1,0,AccAcc,9,19,Woman,Right,
34,10,1,1.8494981000003463,['n'],1,right,['e'],0,1.4184922999993432,0.2,0,0,AccAcc,9,19,Woman,Right,
35,10,1,0.7494635000002745,['n'],1,right,['e'],0,1.2721841000002314,0.4,0,0,AccAcc,9,19,Woman,Right,
36,10,1,0.8325314000003345,['n'],1,right,['e'],0,1.3506545999998707,0.2,0,0,AccAcc,9,19,Woman,Right,
37,10,1,1.500340700000379,['n'],0,left,['u'],1,1.1753113000004305,0.2,0,0,AccAcc,9,19,Woman,Right,
38,10,1,1.833250599999701,['n'],0,left,['u'],1,1.7781191000003673,0.1,0,0,AccAcc,9,19,Woman,Right,
39,10,1,0.9848947000000408,['n'],1,right,['e'],0,1.0297538999993776,0.1,0,0,AccAcc,9,19,Woman,Right,
40,10,1,0.6832672999998977,['n'],0,left,['e'],0,1.0764835999998468,0.2,1,0,AccAcc,9,19,Woman,Right,
41,10,1,1.5334743000003073,['n'],0,left,['u'],1,1.039856399999735,0.1,0,0,AccAcc,9,19,Woman,Right,
42,10,1,0.9667421000003742,['n'],0,left,['u'],1,1.3142539999998917,0.4,0,0,AccAcc,9,19,Woman,Right,
43,10,1,1.2821978000001764,['n'],0,left,['u'],1,1.51715460000014,0.4,0,0,AccAcc,9,19,Woman,Right,
44,10,1,1.5344090999997206,['n'],1,right,['u'],1,1.1734081000004153,0.4,1,0,AccAcc,9,19,Woman,Right,
45,10,1,0.517650799999501,['n'],1,right,['u'],1,1.0439790999998877,0.1,1,0,AccAcc,9,19,Woman,Right,
46,10,1,1.7667312000003221,['n'],0,left,['e'],0,1.2074121999994532,0.4,1,0,AccAcc,9,19,Woman,Right,
47,10,1,0.8334090999996988,['c'],1,left,['e'],0,1.5608876000005694,0.2,0,0,AccAcc,9,19,Woman,Right,
48,10,1,1.0511499000003823,['n'],1,right,['e'],0,1.4749891000001298,0.4,0,0,AccAcc,9,19,Woman,Right,
49,10,1,1.367642999999589,['n'],0,left,['e'],0,1.7165991000001668,0.4,1,0,AccAcc,9,19,Woman,Right,
50,10,1,0.9510232000002361,['n'],0,left,['e'],0,2.300480500000049,0.1,1,0,AccAcc,9,19,Woman,Right,
51,10,1,1.3324557999994795,['n'],0,left,['e'],0,1.2786333000003651,0.1,1,0,AccAcc,9,19,Woman,Right,
52,10,1,0.6676268999999593,['n'],0,left,['e'],0,1.4590164999999615,0.1,1,0,AccAcc,9,19,Woman,Right,
53,10,1,0.3672848000005615,['n'],0,left,['e'],0,1.1976557999996658,0.4,1,0,AccAcc,9,19,Woman,Right,
54,10,1,0.4004125000001295,['n'],1,right,['u'],1,1.61559219999981,0.1,1,0,AccAcc,9,19,Woman,Right,
55,10,1,0.4164581000004546,['n'],0,left,['u'],1,1.2335791999994399,0.4,0,0,AccAcc,9,19,Woman,Right,
56,10,1,0.2668164999995497,['n'],1,right,['u'],1,2.8555999999998676,0.4,1,0,AccAcc,9,19,Woman,Right,
57,10,1,0.4012708999998722,['n'],1,right,['u'],1,1.6086620000005496,0.2,1,0,AccAcc,9,19,Woman,Right,
58,10,1,0.31570079999983136,['n'],0,left,['u'],1,4.991683700000067,0.4,0,0,AccAcc,9,19,Woman,Right,
59,10,1,0.6182142999996358,['n'],1,right,['u'],1,1.3788773000005676,0.2,1,0,AccAcc,9,19,Woman,Right,
0,11,1,0.6351197999993019,['n'],0,left,['e'],0,0.8927394000002096,0.4,1,0,FastAcc,9,19,Woman,Right,
1,11,1,1.100379299999986,['n'],0,left,['u'],1,0.5604936999998245,0.1,0,0,FastAcc,9,19,Woman,Right,
2,11,1,0.7157321000004231,['c'],1,left,['u'],1,0.3526274999994712,0.2,1,0,FastAcc,9,19,Woman,Right,
3,11,1,0.4334317999991981,['n'],1,right,['u'],1,1.075684000000365,0.2,1,0,FastAcc,9,19,Woman,Right,
4,11,1,0.40058140000019193,['c'],1,left,['u'],1,0.5556071000000884,0.4,1,0,FastAcc,9,19,Woman,Right,
5,11,1,0.45007670000086364,['n'],1,right,['u'],1,0.7900234999997338,0.4,1,0,FastAcc,9,19,Woman,Right,
6,11,1,0.40142419999938284,['n'],0,left,['u'],1,0.9678823999993256,0.2,0,0,FastAcc,9,19,Woman,Right,
7,11,1,0.3680023999995683,['n'],0,left,['u'],1,0.7258758000007219,0.4,0,0,FastAcc,9,19,Woman,Right,
8,11,1,0.5820929999999862,['n'],0,left,['e'],0,0.9168485000000146,0.1,1,0,FastAcc,9,19,Woman,Right,
9,11,1,0.8661081999998714,['n'],1,right,['u'],1,0.49613529999987804,0.2,1,0,FastAcc,9,19,Woman,Right,
10,11,1,0.44967650000035064,['c'],1,left,['e'],0,1.212689899999532,0.1,0,0,FastAcc,9,19,Woman,Right,
11,11,1,0.36744309999994584,['n'],0,left,['u'],1,1.2947455999992599,0.2,0,0,FastAcc,9,19,Woman,Right,
12,11,1,0.5190163999996003,['n'],0,left,['e'],0,0.8893168999993577,0.4,1,0,FastAcc,9,19,Woman,Right,
13,11,1,0.4842879999996512,['c'],1,left,['e'],0,0.965242400000534,0.1,0,0,FastAcc,9,19,Woman,Right,
14,11,1,0.46720319999985804,['c'],1,left,['u'],1,1.2143968000000314,0.4,1,0,FastAcc,9,19,Woman,Right,
15,11,1,0.5003927000007025,['c'],0,right,['u'],1,1.2602642000001651,0.1,0,0,FastAcc,9,19,Woman,Right,
16,11,1,0.4006346999995003,['n'],1,right,['u'],1,1.3249857999999222,0.2,1,0,FastAcc,9,19,Woman,Right,
17,11,1,0.5174577999996472,['n'],1,right,['e'],0,0.9503479000004518,0.1,0,0,FastAcc,9,19,Woman,Right,
18,11,1,0.4670155000003433,['n'],1,right,['e'],0,0.8479871999998068,0.2,0,0,FastAcc,9,19,Woman,Right,
19,11,1,0.28395480000017415,['n'],1,right,['u'],1,1.2054590999996435,0.1,1,0,FastAcc,9,19,Woman,Right,
20,11,1,0.4003261999996539,['n'],1,right,['u'],1,0.9204644000001281,0.1,1,0,FastAcc,9,19,Woman,Right,
21,11,1,0.45074709999971674,['n'],1,right,['u'],1,1.0918934000001173,0.1,1,0,FastAcc,9,19,Woman,Right,
22,11,1,0.5337001999996573,['n'],0,left,['e'],0,1.1743057999992743,0.2,1,0,FastAcc,9,19,Woman,Right,
23,11,1,0.5176511999998183,['n'],1,right,['e'],0,0.9809958999994706,0.2,0,0,FastAcc,9,19,Woman,Right,
24,11,1,0.5678764000003866,['c'],1,left,['u'],1,2.121516799999881,0.1,1,0,FastAcc,9,19,Woman,Right,
25,11,1,0.5676262000006318,['n'],1,right,['e'],0,0.16101809999963734,0.4,0,0,FastAcc,9,19,Woman,Right,
26,11,1,0.6345916000000216,['n'],0,left,['e'],0,0.9654789999995046,0.4,1,0,FastAcc,9,19,Woman,Right,
27,11,1,1.1845295000002807,['c'],1,left,['e'],0,0.88065910000023,0.4,0,0,FastAcc,9,19,Woman,Right,
28,11,1,0.8332075000007535,['c'],0,right,['e'],0,1.198602899999969,0.2,1,0,FastAcc,9,19,Woman,Right,
29,11,1,0.3009236999996574,['c'],0,right,['u'],1,1.1255756000000474,0.1,0,0,FastAcc,9,19,Woman,Right,
30,11,1,0.30009310000059486,['c'],0,right,['e'],0,0.9120148000001791,0.4,1,0,FastAcc,9,19,Woman,Right,
31,11,1,0.3012584000007337,['n'],1,right,['e'],0,0.8497993000000861,0.1,0,0,FastAcc,9,19,Woman,Right,
32,11,1,0.38417929999923217,['c'],0,right,['e'],0,0.5470132000000376,0.4,1,0,FastAcc,9,19,Woman,Right,
33,11,1,0.5345673000001625,['n'],0,left,['u'],1,0.28208659999927477,0.2,0,0,FastAcc,9,19,Woman,Right,
34,11,1,0.684405599999991,['c'],1,left,['u'],1,1.0298284999998941,0.1,1,0,FastAcc,9,19,Woman,Right,
35,11,1,0.31662930000038614,['n'],0,left,['u'],1,0.7228297000001476,0.4,0,0,FastAcc,9,19,Woman,Right,
36,11,1,0.5334916000001613,['n'],1,right,['e'],0,0.9630041999998866,0.1,0,0,FastAcc,9,19,Woman,Right,
37,11,1,0.4510840000002645,['c'],0,right,['u'],1,1.0849342000001343,0.4,0,0,FastAcc,9,19,Woman,Right,
38,11,1,0.5501922000003105,['n'],0,left,['u'],1,1.1340229999996154,0.2,0,0,FastAcc,9,19,Woman,Right,
39,11,1,0.5183231000000887,['n'],1,right,['u'],1,0.750571000000491,0.2,1,0,FastAcc,9,19,Woman,Right,
40,11,1,0.45136509999974805,['n'],1,right,['e'],0,0.5292185999996946,0.1,0,0,FastAcc,9,19,Woman,Right,
41,11,1,1.3175200000005134,['n'],0,left,['e'],0,0.44189430000005814,0.4,1,0,FastAcc,9,19,Woman,Right,
42,11,1,0.4175514000007752,['n'],1,right,['e'],0,0.49040809999951307,0.2,0,0,FastAcc,9,19,Woman,Right,
43,11,1,0.33448980000048323,['n'],1,right,['e'],0,0.31608849999975064,0.4,0,0,FastAcc,9,19,Woman,Right,
44,11,1,0.5007845999998608,['n'],0,left,['e'],0,0.1420492999995986,0.2,1,0,FastAcc,9,19,Woman,Right,
45,11,1,0.41811259999940376,['n'],0,left,['e'],0,0.13818240000000515,0.4,1,0,FastAcc,9,19,Woman,Right,
46,11,1,0.401241100000334,['c'],1,left,['u'],1,0.16742570000042178,0.1,1,0,FastAcc,9,19,Woman,Right,
47,11,1,0.28441380000003846,['n'],1,right,['e'],0,0.18366489999971236,0.2,0,0,FastAcc,9,19,Woman,Right,
48,11,1,0.3011136000004626,['c'],0,right,['u'],1,0.3427799999999479,0.2,0,0,FastAcc,9,19,Woman,Right,
49,11,1,0.35065710000071704,['n'],0,left,['e'],0,0.20584760000019742,0.2,1,0,FastAcc,9,19,Woman,Right,
50,11,1,0.28496890000042185,['c'],0,right,['u'],1,0.252793799999381,0.1,0,0,FastAcc,9,19,Woman,Right,
51,11,1,0.31756810000024416,['c'],1,left,['u'],1,0.24904110000079527,0.2,1,0,FastAcc,9,19,Woman,Right,
52,11,1,0.251151899999968,['c'],0,right,['u'],1,0.07105219999994006,0.1,0,0,FastAcc,9,19,Woman,Right,
53,11,1,0.3007366000001639,['n'],0,left,['e'],0,0.1386916999999812,0.1,1,0,FastAcc,9,19,Woman,Right,
54,11,1,0.6000957000005656,['n'],0,left,['e'],0,0.07972289999997884,0.4,1,0,FastAcc,9,19,Woman,Right,
55,11,1,0.4004611999998815,['n'],0,left,['u'],1,0.19079679999958898,0.4,0,0,FastAcc,9,19,Woman,Right,
56,11,1,0.36780890000045474,['c'],1,left,['u'],1,0.267280999999457,0.1,1,0,FastAcc,9,19,Woman,Right,
57,11,1,0.29987740000069607,['c'],0,right,['u'],1,0.20030730000053154,0.4,0,0,FastAcc,9,19,Woman,Right,
58,11,1,0.251101099999687,['c'],0,right,['e'],0,0.20004619999963325,0.2,1,0,FastAcc,9,19,Woman,Right,
59,11,1,0.36759429999983695,['n'],1,right,['u'],1,0.4351018000006661,0.4,1,0,FastAcc,9,19,Woman,Right,
0,12,1,0.2995552000002135,['n'],1,right,['u'],1,0.09207149999929243,0.2,1,0,FastFast,9,19,Woman,Right,
1,12,1,0.28342200000042794,['n'],0,left,['u'],1,0.19076330000007147,0.4,0,0,FastFast,9,19,Woman,Right,
2,12,1,0.46709829999963404,['n'],1,right,['u'],1,0.08674030000020139,0.2,1,0,FastFast,9,19,Woman,Right,
3,12,1,0.3846480000001975,['c'],0,right,['u'],1,0.13401900000008027,0.4,0,0,FastFast,9,19,Woman,Right,
4,12,1,0.31674180000027263,['n'],0,left,['e'],0,0.39102009999987786,0.2,1,0,FastFast,9,19,Woman,Right,
5,12,1,0.41779789999964123,['n'],0,left,['e'],0,0.20089939999979833,0.1,1,0,FastFast,9,19,Woman,Right,
6,12,1,0.4838997999995627,['n'],1,right,['u'],1,0.19196399999964342,0.4,1,0,FastFast,9,19,Woman,Right,
7,12,1,0.41788960000030784,['n'],1,right,['u'],1,0.0904396000005363,0.2,1,0,FastFast,9,19,Woman,Right,
8,12,1,0.6841397000007419,['n'],0,left,['u'],1,0.04630809999980556,0.1,0,0,FastFast,9,19,Woman,Right,
9,12,1,0.8338454000004276,['n'],1,right,['u'],1,0.045638700000381505,0.1,1,0,FastFast,9,19,Woman,Right,
10,12,1,0.41714890000002924,['c'],1,left,['e'],0,0.04515290000017558,0.4,0,0,FastFast,9,19,Woman,Right,
11,12,1,0.8509300000005169,['c'],0,right,['u'],1,0.07577990000027057,0.1,0,0,FastFast,9,19,Woman,Right,
12,12,1,0.7006011000003127,['c'],1,left,['u'],1,0.1275361999996676,0.4,1,0,FastFast,9,19,Woman,Right,
13,12,1,0.7336041999997178,['n'],0,left,['u'],1,0.09583589999965625,0.1,0,0,FastFast,9,19,Woman,Right,
14,12,1,0.38491119999980583,['c'],1,left,['u'],1,0.12666210000043066,0.2,1,0,FastFast,9,19,Woman,Right,
15,12,1,0.3513959000001705,['n'],0,left,['u'],1,0.14252339999984542,0.1,0,0,FastFast,9,19,Woman,Right,
16,12,1,0.4676238000001831,['c'],1,left,['u'],1,0.10489460000007966,0.2,1,0,FastFast,9,19,Woman,Right,
17,12,1,0.4177263999999923,['c'],0,right,['u'],1,0.07093710000026476,0.2,0,0,FastFast,9,19,Woman,Right,
18,12,1,0.3335180999993099,['c'],0,right,['u'],1,0.9209246999998868,0.4,0,0,FastFast,9,19,Woman,Right,
19,12,1,0.2681552999993073,['c'],1,left,['u'],1,3.548217300000033,0.2,1,0,FastFast,9,19,Woman,Right,
20,12,1,0.5999003999995693,['n'],0,left,['u'],1,0.05774610000025859,0.4,0,0,FastFast,9,19,Woman,Right,
21,12,1,0.3342332999991413,['c'],1,left,['u'],1,0.06030879999980243,0.1,1,0,FastFast,9,19,Woman,Right,
22,12,1,0.46758409999983996,['n'],0,left,['e'],0,1.1786769000000277,0.2,1,0,FastFast,9,19,Woman,Right,
23,12,1,0.48509720000038214,['c'],1,left,['u'],1,0.09051180000005843,0.1,1,0,FastFast,9,19,Woman,Right,
24,12,1,0.46786470000006375,['n'],1,right,['u'],1,0.10327379999944242,0.4,1,0,FastFast,9,19,Woman,Right,
25,12,1,0.6842354000000341,['c'],1,left,['u'],1,0.12212369999997463,0.1,1,0,FastFast,9,19,Woman,Right,
26,12,1,0.45111439999982395,['n'],1,right,['u'],1,0.08629089999976713,0.4,1,0,FastFast,9,19,Woman,Right,
27,12,1,1.0181516000002375,['n'],1,right,['u'],1,0.0928633000003174,0.4,1,0,FastFast,9,19,Woman,Right,
28,12,1,0.4677791999993133,['n'],1,right,['u'],1,0.42473809999955847,0.1,1,0,FastFast,9,19,Woman,Right,
29,12,1,0.4339476000004652,['n'],1,right,['u'],1,0.07360109999990527,0.1,1,0,FastFast,9,19,Woman,Right,
30,12,1,0.35136400000010326,['n'],1,right,['u'],1,0.042900100000224484,0.4,1,0,FastFast,9,19,Woman,Right,
31,12,1,0.383958999999777,['n'],1,right,['u'],1,0.02870479999910458,0.1,1,0,FastFast,9,19,Woman,Right,
32,12,1,0.35044960000050196,['n'],1,right,['u'],1,0.016157799999746203,0.4,1,0,FastFast,9,19,Woman,Right,
33,12,1,0.46801219999997556,['n'],0,left,['u'],1,0.11107420000007551,0.1,0,0,FastFast,9,19,Woman,Right,
34,12,1,0.3340278000005128,['n'],0,left,['u'],1,0.01617199999964214,0.4,0,0,FastFast,9,19,Woman,Right,
35,12,1,0.6508326000002853,['n'],0,left,['u'],1,0.05550409999978001,0.2,0,0,FastFast,9,19,Woman,Right,
36,12,1,0.6337849999999889,['c'],1,left,['u'],1,0.14249300000028597,0.2,1,0,FastFast,9,19,Woman,Right,
37,12,1,0.4010965999996188,['n'],1,right,['u'],1,0.043647299999975075,0.1,1,0,FastFast,9,19,Woman,Right,
38,12,1,0.4490789000001314,['n'],1,right,['u'],1,0.05931190000046627,0.2,1,0,FastFast,9,19,Woman,Right,
39,12,1,0.700484700000743,['c'],1,left,['e'],0,0.15914210000028106,0.2,0,0,FastFast,9,19,Woman,Right,
40,12,1,0.5343043000002581,['n'],0,left,['e'],0,0.9829368999999133,0.1,1,0,FastFast,9,19,Woman,Right,
41,12,1,0.6676108000001477,['c'],1,left,['e'],0,0.05488179999974818,0.2,0,0,FastFast,9,19,Woman,Right,
42,12,1,0.7172796000004382,['c'],0,right,['u'],1,0.13922749999983353,0.1,0,0,FastFast,9,19,Woman,Right,
43,12,1,0.38515449999977136,['n'],1,right,['u'],1,0.05631569999968633,0.2,1,0,FastFast,9,19,Woman,Right,
44,12,1,0.26798820000021806,['n'],0,left,['u'],1,0.09395380000023579,0.2,0,0,FastFast,9,19,Woman,Right,
45,12,1,0.3172119000000748,['n'],1,right,['u'],1,0.08028589999958058,0.4,1,0,FastFast,9,19,Woman,Right,
46,12,1,0.26729379999960656,['n'],0,left,['u'],1,0.11744999999973516,0.4,0,0,FastFast,9,19,Woman,Right,
47,12,1,0.28446729999996023,['n'],0,left,['u'],1,0.10306219999984023,0.2,0,0,FastFast,9,19,Woman,Right,
48,12,1,0.6674313000003167,['n'],1,right,['u'],1,0.09126209999976709,0.2,1,0,FastFast,9,19,Woman,Right,
49,12,1,0.40131360000032146,['n'],1,right,['u'],1,0.10585280000032071,0.1,1,0,FastFast,9,19,Woman,Right,
50,12,1,0.2661779000000024,['n'],1,right,['u'],1,0.09441489999971964,0.2,1,0,FastFast,9,19,Woman,Right,
51,12,1,0.41729060000034224,['n'],1,right,['e'],0,0.15596440000081202,0.4,0,0,FastFast,9,19,Woman,Right,
52,12,1,0.7340960999999879,['n'],0,left,['e'],0,0.09117799999967247,0.4,1,0,FastFast,9,19,Woman,Right,
53,12,1,0.4010582000000795,['n'],0,left,['e'],0,0.10607160000017757,0.4,1,0,FastFast,9,19,Woman,Right,
54,12,1,0.25108910000017204,['n'],1,right,['e'],0,0.11112319999938336,0.1,0,0,FastFast,9,19,Woman,Right,
55,12,1,0.4161491999993814,['n'],1,right,['e'],0,0.1407429000000775,0.4,0,0,FastFast,9,19,Woman,Right,
56,12,1,0.93458819999978,['n'],1,right,['e'],0,0.6281122999998843,0.1,0,0,FastFast,9,19,Woman,Right,
57,12,1,1.7677708999999595,['c'],1,left,['e'],0,0.07167410000056407,0.2,0,0,FastFast,9,19,Woman,Right,
58,12,1,0.38319180000053166,['n'],0,left,['u'],1,0.08932050000021263,0.1,0,0,FastFast,9,19,Woman,Right,
59,12,1,0.5161361999998917,['n'],1,right,['u'],1,0.0995894000006956,0.4,1,0,FastFast,9,19,Woman,Right,
0,13,1,1.2165356999994401,['n'],1,right,['e'],0,0.05180509999991045,0.4,0,0,AccFast,9,19,Woman,Right,
1,13,1,0.9335273999995479,['n'],1,right,['u'],1,0.0789652000003116,0.2,1,0,AccFast,9,19,Woman,Right,
2,13,1,1.2163602000000537,['n'],1,right,['u'],1,0.0616321000006792,0.1,1,0,AccFast,9,19,Woman,Right,
3,13,1,0.5847072999995362,['n'],0,left,['u'],1,0.13375950000045123,0.4,0,0,AccFast,9,19,Woman,Right,
4,13,1,1.0672389999999723,['c'],1,left,['u'],1,0.08847860000059882,0.4,1,0,AccFast,9,19,Woman,Right,
5,13,1,0.9177171000001181,['c'],1,left,['u'],1,0.08292419999997946,0.1,1,0,AccFast,9,19,Woman,Right,
6,13,1,1.3002252999995108,['c'],0,right,['u'],1,0.0939555000004475,0.1,0,0,AccFast,9,19,Woman,Right,
7,13,1,1.600597600000583,['n'],1,right,['e'],0,0.06128530000023602,0.1,0,0,AccFast,9,19,Woman,Right,
8,13,1,1.0675994000002902,['n'],1,right,['u'],1,0.11502369999925577,0.2,1,0,AccFast,9,19,Woman,Right,
9,13,1,1.1665323000006538,['c'],1,left,['u'],1,0.06629239999983838,0.2,1,0,AccFast,9,19,Woman,Right,
10,13,1,0.9011970000001384,['n'],1,right,['u'],1,0.12624890000006417,0.1,1,0,AccFast,9,19,Woman,Right,
11,13,1,1.567411600000014,['c'],0,right,['e'],0,0.04573160000018106,0.2,1,0,AccFast,9,19,Woman,Right,
12,13,1,1.0666315999997096,['c'],1,left,['u'],1,0.06819249999989552,0.4,1,0,AccFast,9,19,Woman,Right,
13,13,1,1.032346900000448,['c'],1,left,['e'],0,0.09103020000020479,0.2,0,0,AccFast,9,19,Woman,Right,
14,13,1,0.8842688000004273,['n'],0,left,['e'],0,0.0376008000002912,0.1,1,0,AccFast,9,19,Woman,Right,
15,13,1,1.2173407000000225,['c'],1,left,['e'],0,0.0701626000000033,0.4,0,0,AccFast,9,19,Woman,Right,
16,13,1,1.1008233000002292,['n'],0,left,['e'],0,0.02622490000067046,0.1,1,0,AccFast,9,19,Woman,Right,
17,13,1,0.4352546000000075,['c'],1,left,['e'],0,0.10632389999955194,0.1,0,0,AccFast,9,19,Woman,Right,
18,13,1,0.35101769999982935,['n'],1,right,['e'],0,0.07477420000031998,0.4,0,0,AccFast,9,19,Woman,Right,
19,13,1,1.100196400000641,['c'],0,right,['u'],1,0.04656100000011065,0.4,0,0,AccFast,9,19,Woman,Right,
20,13,1,0.7837540999998964,['n'],1,right,['u'],1,0.17568449999998847,0.2,1,0,AccFast,9,19,Woman,Right,
21,13,1,0.7677083999997194,['n'],0,left,['u'],1,0.1409327999999732,0.2,0,0,AccFast,9,19,Woman,Right,
22,13,1,1.0010866000002352,['n'],0,left,['u'],1,0.08211219999975583,0.1,0,0,AccFast,9,19,Woman,Right,
23,13,1,1.0343960999998671,['c'],1,left,['u'],1,0.05589510000027076,0.4,1,0,AccFast,9,19,Woman,Right,
24,13,1,0.7677329000007376,['c'],0,right,['u'],1,0.0734984999999142,0.2,0,0,AccFast,9,19,Woman,Right,
25,13,1,0.6503320000001622,['c'],1,left,['u'],1,0.031578000000081374,0.1,1,0,AccFast,9,19,Woman,Right,
26,13,1,0.6010167999993428,['c'],0,right,['u'],1,0.040420199999971373,0.2,0,0,AccFast,9,19,Woman,Right,
27,13,1,0.567712300000494,['c'],0,right,['u'],1,0.050852499999564316,0.4,0,0,AccFast,9,19,Woman,Right,
28,13,1,0.41773900000043795,['c'],1,left,['u'],1,1.0745745000003808,0.1,1,0,AccFast,9,19,Woman,Right,
29,13,1,1.1841930000000502,['c'],1,left,['e'],0,0.4432532999999239,0.2,0,0,AccFast,9,19,Woman,Right,
30,13,1,0.7836113000003024,['c'],1,left,['u'],1,0.07718199999999342,0.2,1,0,AccFast,9,19,Woman,Right,
31,13,1,0.6009877999995297,['c'],1,left,['u'],1,0.06917820000035135,0.4,1,0,AccFast,9,19,Woman,Right,
32,13,1,0.549710899999809,['c'],0,right,['u'],1,0.12725589999990916,0.4,0,0,AccFast,9,19,Woman,Right,
33,13,1,0.5848275000007561,['c'],0,right,['u'],1,0.08500350000031176,0.2,0,0,AccFast,9,19,Woman,Right,
34,13,1,0.9162975999997798,['c'],1,left,['u'],1,0.14403499999934866,0.4,1,0,AccFast,9,19,Woman,Right,
35,13,1,0.950622199999998,['c'],0,right,['e'],0,0.07075689999965107,0.4,1,0,AccFast,9,19,Woman,Right,
36,13,1,0.8173837000003914,['c'],1,left,['e'],0,0.08686500000021624,0.2,0,0,AccFast,9,19,Woman,Right,
37,13,1,0.9006144000004497,['c'],1,left,['e'],0,0.050341000000116765,0.2,0,0,AccFast,9,19,Woman,Right,
38,13,1,0.7506878999993205,['c'],1,left,['e'],0,0.08420859999932873,0.1,0,0,AccFast,9,19,Woman,Right,
39,13,1,0.6687560999998823,['c'],0,right,['e'],0,0.13593500000024505,0.1,1,0,AccFast,9,19,Woman,Right,
40,13,1,0.26688409999951546,['n'],1,right,['e'],0,0.09093769999981305,0.4,0,0,AccFast,9,19,Woman,Right,
41,13,1,0.6505243999999948,['n'],1,right,['e'],0,0.09520009999960166,0.2,0,0,AccFast,9,19,Woman,Right,
42,13,1,0.3672440000000279,['n'],0,left,['e'],0,0.07887980000032258,0.4,1,0,AccFast,9,19,Woman,Right,
43,13,1,0.45103350000044884,['n'],1,right,['e'],0,0.20401440000023285,0.1,0,0,AccFast,9,19,Woman,Right,
44,13,1,2.0673698999999033,['n'],1,right,['u'],1,0.6281877000001259,0.1,1,0,AccFast,9,19,Woman,Right,
45,13,1,0.718077199999243,['n'],1,right,['e'],0,0.0813412999996217,0.1,0,0,AccFast,9,19,Woman,Right,
46,13,1,0.3508648999995785,['n'],0,left,['e'],0,0.08238219999930152,0.4,1,0,AccFast,9,19,Woman,Right,
47,13,1,0.2997089999998934,['n'],1,right,['e'],0,0.10186369999973977,0.4,0,0,AccFast,9,19,Woman,Right,
48,13,1,0.3165211999994426,['n'],1,right,['e'],0,0.135613899999953,0.1,0,0,AccFast,9,19,Woman,Right,
49,13,1,0.2676051999997071,['n'],0,left,['e'],0,0.07351669999934529,0.2,1,0,AccFast,9,19,Woman,Right,
50,13,1,0.233773600000859,['n'],1,right,['e'],0,0.08000220000030822,0.4,0,0,AccFast,9,19,Woman,Right,
51,13,1,0.28470349999952305,['n'],0,left,['e'],0,0.08385050000015326,0.1,1,0,AccFast,9,19,Woman,Right,
52,13,1,0.5004259999996066,['n'],1,right,['e'],0,4.17454749999979,0.2,0,0,AccFast,9,19,Woman,Right,
53,13,1,0.3672203999994963,['n'],0,left,['e'],0,0.10882299999957468,0.4,1,0,AccFast,9,19,Woman,Right,
54,13,1,0.26708120000057534,['n'],1,right,['u'],1,0.04807489999984682,0.4,1,0,AccFast,9,19,Woman,Right,
55,13,1,0.750975599999947,['n'],0,left,['e'],0,0.03455579999990732,0.1,1,0,AccFast,9,19,Woman,Right,
56,13,1,0.4509020999994391,['n'],0,left,['e'],0,0.04966409999997268,0.2,1,0,AccFast,9,19,Woman,Right,
57,13,1,0.6338170999997601,['n'],1,right,['u'],1,0.07329500000014377,0.2,1,0,AccFast,9,19,Woman,Right,
58,13,1,0.3674637000003713,['c'],0,right,['u'],1,0.1375062999995862,0.2,0,0,AccFast,9,19,Woman,Right,
59,13,1,0.21778680000079476,['c'],1,left,['e'],0,0.07808819999991101,0.1,0,0,AccFast,9,19,Woman,Right,
0,14,1,1.5508468999996694,['n'],1,right,['e'],0,0.9941539999999804,0.2,0,0,AccAcc,9,19,Woman,Right,
1,14,1,1.2014915000008841,['c'],1,left,['u'],1,1.0063220999991245,0.2,1,0,AccAcc,9,19,Woman,Right,
2,14,1,1.2175274000001082,['n'],0,left,['u'],1,1.031564700000672,0.4,0,0,AccAcc,9,19,Woman,Right,
3,14,1,0.35011519999989105,['c'],1,left,['e'],0,1.2681893999997556,0.1,0,0,AccAcc,9,19,Woman,Right,
4,14,1,0.9163356999997632,['n'],1,right,['u'],1,1.2462877999996635,0.4,1,0,AccAcc,9,19,Woman,Right,
5,14,1,0.3009308000000601,['n'],1,right,['u'],1,1.28284530000019,0.1,1,0,AccAcc,9,19,Woman,Right,
6,14,1,0.400103200000558,['c'],0,right,['u'],1,1.2981996999997136,0.1,0,0,AccAcc,9,19,Woman,Right,
7,14,1,0.5836317999992389,['c'],0,right,['u'],1,1.0660416000000623,0.1,0,0,AccAcc,9,19,Woman,Right,
8,14,1,0.7331742000005761,['n'],0,left,['e'],0,1.172560599999997,0.1,1,0,AccAcc,9,19,Woman,Right,
9,14,1,0.7844427999998516,['c'],0,right,['u'],1,1.0325972000000547,0.4,0,0,AccAcc,9,19,Woman,Right,
10,14,1,0.5348973999998634,['n'],0,left,['e'],0,1.1323781000000963,0.2,1,0,AccAcc,9,19,Woman,Right,
11,14,1,0.7507054999996399,['c'],1,left,['u'],1,1.1078717999998844,0.4,1,0,AccAcc,9,19,Woman,Right,
12,14,1,1.1337039000000004,['n'],1,right,['u'],1,1.117210399999749,0.4,1,0,AccAcc,9,19,Woman,Right,
13,14,1,0.5683067999998457,['c'],1,left,['u'],1,1.3564758000002257,0.4,1,0,AccAcc,9,19,Woman,Right,
14,14,1,0.5177394000002096,['n'],0,left,['u'],1,0.7884648999997808,0.4,0,0,AccAcc,9,19,Woman,Right,
15,14,1,0.767507999999907,['n'],0,left,['e'],0,1.4971175000000585,0.4,1,0,AccAcc,9,19,Woman,Right,
16,14,1,0.6838296999994782,['n'],1,right,['u'],1,1.0923906999996689,0.1,1,0,AccAcc,9,19,Woman,Right,
17,14,1,0.5846230999995896,['n'],1,right,['u'],1,1.204381900000044,0.2,1,0,AccAcc,9,19,Woman,Right,
18,14,1,0.518083399999341,['n'],0,left,['u'],1,1.058151700000053,0.2,0,0,AccAcc,9,19,Woman,Right,
19,14,1,0.5012886999993498,['n'],0,left,['u'],1,1.062967099999696,0.1,0,0,AccAcc,9,19,Woman,Right,
20,14,1,0.38410430000021734,['n'],0,left,['u'],1,1.0075004999998782,0.1,0,0,AccAcc,9,19,Woman,Right,
21,14,1,0.3664071999992302,['n'],0,left,['u'],1,0.9719478999995772,0.2,0,0,AccAcc,9,19,Woman,Right,
22,14,1,0.38419319999957224,['n'],1,right,['u'],1,1.6719307000003027,0.4,1,0,AccAcc,9,19,Woman,Right,
23,14,1,0.2663267999996606,['n'],0,left,['u'],1,1.2139069000004383,0.1,0,0,AccAcc,9,19,Woman,Right,
24,14,1,0.26654359999974986,['n'],0,left,['u'],1,1.173074600000291,0.2,0,0,AccAcc,9,19,Woman,Right,
25,14,1,1.515852200000154,['c'],1,left,['u'],1,1.1326431999996203,0.1,1,0,AccAcc,9,19,Woman,Right,
26,14,1,0.4841937000001053,['c'],0,right,['e'],0,1.7418150999992577,0.2,1,0,AccAcc,9,19,Woman,Right,
27,14,1,0.6514383999992788,['n'],0,left,['u'],1,1.2014284000006228,0.4,0,0,AccAcc,9,19,Woman,Right,
28,14,1,0.3845433000005869,['n'],1,right,['u'],1,0.8687197999997807,0.2,1,0,AccAcc,9,19,Woman,Right,
29,14,1,0.2835664000003817,['n'],1,right,['u'],1,1.0978330999996615,0.4,1,0,AccAcc,9,19,Woman,Right,
30,14,1,0.40034799999921233,['n'],1,right,['u'],1,1.263573400000496,0.1,1,0,AccAcc,9,19,Woman,Right,
31,14,1,0.3510719000005338,['n'],1,right,['u'],1,1.089596800000436,0.4,1,0,AccAcc,9,19,Woman,Right,
32,14,1,0.2504201000001558,['n'],0,left,['u'],1,1.0878149000000121,0.4,0,0,AccAcc,9,19,Woman,Right,
33,14,1,0.26638550000006944,['n'],1,right,['u'],1,0.939969299999575,0.2,1,0,AccAcc,9,19,Woman,Right,
34,14,1,0.26800439999988157,['n'],1,right,['u'],1,1.261975400000665,0.4,1,0,AccAcc,9,19,Woman,Right,
35,14,1,0.3671731999993426,['c'],0,right,['e'],0,1.1349911000006614,0.1,1,0,AccAcc,9,19,Woman,Right,
36,14,1,0.28414539999994304,['n'],0,left,['u'],1,0.7608855999997104,0.1,0,0,AccAcc,9,19,Woman,Right,
37,14,1,0.3175601999992068,['n'],1,right,['u'],1,0.8488640000005034,0.1,1,0,AccAcc,9,19,Woman,Right,
38,14,1,0.5840714000005391,['n'],1,right,['u'],1,0.6820077000002129,0.4,1,0,AccAcc,9,19,Woman,Right,
39,14,1,0.30146549999972194,['n'],1,right,['u'],1,0.9651831000001039,0.1,1,0,AccAcc,9,19,Woman,Right,
40,14,1,0.1843735000002198,['n'],0,left,['u'],1,0.6816908000000694,0.2,0,0,AccAcc,9,19,Woman,Right,
41,14,1,0.4166244000007282,['n'],1,right,['u'],1,0.6567577999994683,0.2,1,0,AccAcc,9,19,Woman,Right,
42,14,1,0.5669585999994524,['n'],0,left,['u'],1,0.6900359000001117,0.2,0,0,AccAcc,9,19,Woman,Right,
43,14,1,0.29903680000006716,['n'],1,right,['u'],1,0.2544932000000699,0.2,1,0,AccAcc,9,19,Woman,Right,
44,14,1,0.7335649999995439,['n'],1,right,['u'],1,0.28176129999974364,0.4,1,0,AccAcc,9,19,Woman,Right,
45,14,1,0.5007021999999779,['n'],1,right,['u'],1,0.26752310000028956,0.4,1,0,AccAcc,9,19,Woman,Right,
46,14,1,0.3355709999996179,['n'],0,left,['u'],1,0.19775029999982507,0.2,0,0,AccAcc,9,19,Woman,Right,
47,14,1,0.26761850000002596,['n'],1,right,['u'],1,0.1816183999999339,0.2,1,0,AccAcc,9,19,Woman,Right,
48,14,1,0.3178244000000632,['n'],0,left,['u'],1,0.371936900000037,0.2,0,0,AccAcc,9,19,Woman,Right,
49,14,1,0.38331300000027113,['n'],0,left,['u'],1,0.15241280000009283,0.1,0,0,AccAcc,9,19,Woman,Right,
50,14,1,0.3179597999996986,['n'],0,left,['u'],1,0.16794079999999667,0.1,0,0,AccAcc,9,19,Woman,Right,
51,14,1,0.25124630000027537,['n'],1,right,['u'],1,0.17016989999956422,0.1,1,0,AccAcc,9,19,Woman,Right,
52,14,1,0.267485399999714,['n'],1,right,['u'],1,0.17068539999945642,0.4,1,0,AccAcc,9,19,Woman,Right,
53,14,1,0.20094199999948614,['n'],0,left,['u'],1,0.15862050000032468,0.2,0,0,AccAcc,9,19,Woman,Right,
54,14,1,0.23433919999934005,['n'],1,right,['u'],1,0.0978317999997671,0.2,1,0,AccAcc,9,19,Woman,Right,
55,14,1,0.233697900000152,['n'],0,left,['u'],1,0.10243509999963862,0.2,0,0,AccAcc,9,19,Woman,Right,
56,14,1,0.2178380000004836,['n'],1,right,['u'],1,0.10829799999919487,0.1,1,0,AccAcc,9,19,Woman,Right,
57,14,1,0.21775890000026266,['n'],0,left,['u'],1,0.06589299999996001,0.4,0,0,AccAcc,9,19,Woman,Right,
58,14,1,0.2680084000003262,['n'],0,left,['e'],0,0.16692090000015014,0.1,1,0,AccAcc,9,19,Woman,Right,
59,14,1,0.501173600000584,['n'],0,left,['u'],1,0.30262149999998655,0.4,0,0,AccAcc,9,19,Woman,Right,
0,15,1,0.34914759999992384,['n'],0,left,['u'],1,0.20495069999924453,0.1,0,0,FastAcc,9,19,Woman,Right,
1,15,1,0.4347071000001961,['c'],1,left,['u'],1,0.14917239999977028,0.2,1,0,FastAcc,9,19,Woman,Right,
2,15,1,0.5830885000004855,['n'],0,left,['e'],0,0.1551657999998497,0.4,1,0,FastAcc,9,19,Woman,Right,
3,15,1,0.5004654999993363,['n'],1,right,['e'],0,0.21113900000000285,0.2,0,0,FastAcc,9,19,Woman,Right,
4,15,1,0.5348567999999432,['c'],1,left,['u'],1,0.2477891999997155,0.2,1,0,FastAcc,9,19,Woman,Right,
5,15,1,0.31753200000002835,['c'],1,left,['u'],1,0.1637298000005103,0.2,1,0,FastAcc,9,19,Woman,Right,
6,15,1,0.3011114999999336,['n'],0,left,['u'],1,0.3719976000002134,0.4,0,0,FastAcc,9,19,Woman,Right,
7,15,1,0.08440220000011323,['c'],1,left,['u'],1,0.13178179999977147,0.2,1,0,FastAcc,9,19,Woman,Right,
8,15,1,0.26672529999996186,['c'],0,right,['u'],1,1.1268307999998797,0.2,0,0,FastAcc,9,19,Woman,Right,
9,15,1,0.43458230000032927,['c'],0,right,['u'],1,0.12270139999964158,0.4,0,0,FastAcc,9,19,Woman,Right,
10,15,1,0.5682702999993126,['c'],1,left,['u'],1,0.5938464000000749,0.1,1,0,FastAcc,9,19,Woman,Right,
11,15,1,0.33374340000045777,['n'],1,right,['u'],1,0.5601796999999351,0.4,1,0,FastAcc,9,19,Woman,Right,
12,15,1,0.43313670000043203,['n'],0,left,['e'],0,0.9226755999998204,0.2,1,0,FastAcc,9,19,Woman,Right,
13,15,1,0.8510039000002507,['n'],1,right,['e'],0,0.694509900000412,0.1,0,0,FastAcc,9,19,Woman,Right,
14,15,1,0.28442160000031436,['c'],1,left,['e'],0,0.6584126999996442,0.2,0,0,FastAcc,9,19,Woman,Right,
15,15,1,0.4843865000002552,['n'],0,left,['e'],0,0.8076365999995687,0.1,1,0,FastAcc,9,19,Woman,Right,
16,15,1,0.6341171000003669,['n'],1,right,['u'],1,0.9287300000005416,0.4,1,0,FastAcc,9,19,Woman,Right,
17,15,1,0.5011879999992743,['n'],1,right,['e'],0,1.0822220000000016,0.1,0,0,FastAcc,9,19,Woman,Right,
18,15,1,0.30109059999995225,['n'],0,left,['e'],0,0.9972306999998182,0.2,1,0,FastAcc,9,19,Woman,Right,
19,15,1,0.551519499999813,['c'],1,left,['e'],0,1.25780930000019,0.4,0,0,FastAcc,9,19,Woman,Right,
20,15,1,0.3010321000001568,['c'],0,right,['u'],1,0.8147113000004538,0.1,0,0,FastAcc,9,19,Woman,Right,
21,15,1,0.4002567999996245,['n'],0,left,['e'],0,0.9763496000005034,0.1,1,0,FastAcc,9,19,Woman,Right,
22,15,1,0.6514499999993859,['c'],0,right,['u'],1,1.1062654999996084,0.1,0,0,FastAcc,9,19,Woman,Right,
23,15,1,0.28331230000003416,['n'],0,left,['e'],0,0.18959929999982705,0.4,1,0,FastAcc,9,19,Woman,Right,
24,15,1,0.7342698000002201,['n'],1,right,['e'],0,0.09127470000021276,0.2,0,0,FastAcc,9,19,Woman,Right,
25,15,1,1.5842356000002837,['c'],1,left,['u'],1,0.29922809999970923,0.4,1,0,FastAcc,9,19,Woman,Right,
26,15,1,0.3023040000007313,['n'],1,right,['e'],0,0.26158619999932853,0.1,0,0,FastAcc,9,19,Woman,Right,
27,15,1,0.6689997999992556,['n'],1,right,['e'],0,0.163337799999681,0.2,0,0,FastAcc,9,19,Woman,Right,
28,15,1,0.317541400000664,['n'],0,left,['e'],0,0.11435739999978978,0.4,1,0,FastAcc,9,19,Woman,Right,
29,15,1,0.45076049999988754,['n'],1,right,['e'],0,0.11040149999917048,0.1,0,0,FastAcc,9,19,Woman,Right,
30,15,1,0.2843053999995391,['n'],0,left,['e'],0,0.1458519999996497,0.4,1,0,FastAcc,9,19,Woman,Right,
31,15,1,0.3177499000003081,['n'],1,right,['e'],0,0.1449285000007876,0.2,0,0,FastAcc,9,19,Woman,Right,
32,15,1,0.28472680000049877,['n'],0,left,['e'],0,0.21081080000021757,0.4,1,0,FastAcc,9,19,Woman,Right,
33,15,1,0.28452570000081323,['n'],0,left,['e'],0,0.22531270000035875,0.4,1,0,FastAcc,9,19,Woman,Right,
34,15,1,0.28375140000025567,['n'],1,right,['e'],0,0.17604019999998854,0.1,0,0,FastAcc,9,19,Woman,Right,
35,15,1,0.951068899999882,['c'],1,left,['e'],0,0.37376080000012735,0.2,0,0,FastAcc,9,19,Woman,Right,
36,15,1,0.583699599999818,['n'],0,left,['e'],0,0.13112110000020039,0.2,1,0,FastAcc,9,19,Woman,Right,
37,15,1,0.5011371000000509,['n'],1,right,['u'],1,0.21943699999974342,0.4,1,0,FastAcc,9,19,Woman,Right,
38,15,1,0.40201519999936863,['n'],0,left,['e'],0,0.3893330999999307,0.4,1,0,FastAcc,9,19,Woman,Right,
39,15,1,0.7167764000005263,['n'],1,right,['e'],0,0.09162379999997938,0.4,0,0,FastAcc,9,19,Woman,Right,
40,15,1,0.5332871999999043,['n'],1,right,['e'],0,0.11809339999945223,0.2,0,0,FastAcc,9,19,Woman,Right,
41,15,1,0.6003067000001465,['n'],1,right,['e'],0,0.1390277000000424,0.1,0,0,FastAcc,9,19,Woman,Right,
42,15,1,0.4177420999994865,['n'],1,right,['e'],0,0.23163389999990613,0.2,0,0,FastAcc,9,19,Woman,Right,
43,15,1,0.6500218999999561,['n'],1,right,['e'],0,0.1345974000005299,0.1,0,0,FastAcc,9,19,Woman,Right,
44,15,1,0.5680091000003813,['n'],0,left,['e'],0,0.17304710000007617,0.4,1,0,FastAcc,9,19,Woman,Right,
45,15,1,0.4844049000002997,['n'],1,right,['e'],0,0.18153399999937392,0.2,0,0,FastAcc,9,19,Woman,Right,
46,15,1,0.30141959999946266,['n'],1,right,['e'],0,0.16455540000060864,0.1,0,0,FastAcc,9,19,Woman,Right,
47,15,1,0.3181409999997413,['n'],1,right,['e'],0,0.1475999000003867,0.4,0,0,FastAcc,9,19,Woman,Right,
48,15,1,0.3346758999996382,['n'],1,right,['e'],0,0.17862539999987348,0.2,0,0,FastAcc,9,19,Woman,Right,
49,15,1,0.41683720000037283,['n'],1,right,['e'],0,0.17306379999990895,0.2,0,0,FastAcc,9,19,Woman,Right,
50,15,1,0.3178013999995528,['n'],0,left,['e'],0,0.18823520000023564,0.1,1,0,FastAcc,9,19,Woman,Right,
51,15,1,0.5172554999999193,['n'],0,left,['e'],0,0.16288329999952111,0.4,1,0,FastAcc,9,19,Woman,Right,
52,15,1,0.4834014999996725,['n'],0,left,['e'],0,0.17169560000002093,0.1,1,0,FastAcc,9,19,Woman,Right,
53,15,1,0.35040919999937614,['n'],1,right,['e'],0,0.23270080000020243,0.2,0,0,FastAcc,9,19,Woman,Right,
54,15,1,0.5663322000000335,['n'],1,right,['e'],0,0.156221899999764,0.1,0,0,FastAcc,9,19,Woman,Right,
55,15,1,0.5679179999997359,['n'],0,left,['e'],0,0.14483079999990878,0.1,1,0,FastAcc,9,19,Woman,Right,
56,15,1,0.30180469999959314,['n'],0,left,['e'],0,0.19398720000026515,0.4,1,0,FastAcc,9,19,Woman,Right,
57,15,1,0.3014792000003581,['n'],0,left,['e'],0,0.1133507999993526,0.1,1,0,FastAcc,9,19,Woman,Right,
58,15,1,0.2677998999997726,['n'],1,right,['e'],0,0.13248290000046836,0.1,0,0,FastAcc,9,19,Woman,Right,
59,15,1,0.2662740000005215,['n'],1,right,['e'],0,0.13534460000028048,0.4,0,0,FastAcc,9,19,Woman,Right,
