withinblocktrial,block,block_repetition,rt,resp,cor,cresp,conf_press,cj,rtconf,coherence,metacognition,slow_trial,manipulation,sub,age,gender,handedness,
0,1,1,1.3184840999997505,['n'],1,right,none,-99,-99,0.5,-99,0,none,3,18,Woman,Right,
1,1,1,0.684690000000046,['c'],0,right,none,-99,-99,0.5,-99,0,none,3,18,Woman,Right,
2,1,1,0.6179735000000619,['n'],1,right,none,-99,-99,0.5,-99,0,none,3,18,Woman,Right,
3,1,1,0.5159963000000971,['n'],0,left,none,-99,-99,0.5,-99,0,none,3,18,Woman,Right,
4,1,1,1.0656819999999243,['n'],1,right,none,-99,-99,0.5,-99,0,none,3,18,Woman,Right,
5,1,1,0.5672792999998819,['c'],1,left,none,-99,-99,0.5,-99,0,none,3,18,Woman,Right,
6,1,1,0.7170875000001615,['n'],1,right,none,-99,-99,0.5,-99,0,none,3,18,Woman,Right,
7,1,1,0.6164213000001837,['c'],1,left,none,-99,-99,0.5,-99,0,none,3,18,Woman,Right,
8,1,1,0.6673971000000165,['n'],0,left,none,-99,-99,0.5,-99,0,none,3,18,Woman,Right,
9,1,1,0.6172599999999875,['c'],0,right,none,-99,-99,0.5,-99,0,none,3,18,Woman,Right,
10,1,1,0.6663862999998855,['c'],1,left,none,-99,-99,0.5,-99,0,none,3,18,Woman,Right,
11,1,1,0.6843469999998888,['c'],1,left,none,-99,-99,0.5,-99,0,none,3,18,Woman,Right,
12,1,1,0.5667946000003212,['n'],0,left,none,-99,-99,0.5,-99,0,none,3,18,Woman,Right,
13,1,1,0.4836305999997421,['c'],1,left,none,-99,-99,0.5,-99,0,none,3,18,Woman,Right,
14,1,1,0.5002423999999337,['c'],1,left,none,-99,-99,0.5,-99,0,none,3,18,Woman,Right,
15,1,1,0.39991520000012315,['n'],0,left,none,-99,-99,0.5,-99,0,none,3,18,Woman,Right,
16,1,1,0.4676118000002134,['c'],0,right,none,-99,-99,0.5,-99,0,none,3,18,Woman,Right,
17,1,1,0.36577570000008564,['c'],0,right,none,-99,-99,0.5,-99,0,none,3,18,Woman,Right,
18,1,1,0.6499460999998519,['n'],1,right,none,-99,-99,0.5,-99,0,none,3,18,Woman,Right,
19,1,1,0.6686210000002575,['c'],1,left,none,-99,-99,0.5,-99,0,none,3,18,Woman,Right,
20,1,1,0.534564600000067,['n'],1,right,none,-99,-99,0.5,-99,0,none,3,18,Woman,Right,
21,1,1,0.268445900000188,['c'],0,right,none,-99,-99,0.5,-99,0,none,3,18,Woman,Right,
22,1,1,0.4994376999998167,['n'],0,left,none,-99,-99,0.5,-99,0,none,3,18,Woman,Right,
23,1,1,0.681966999999986,['c'],0,right,none,-99,-99,0.5,-99,0,none,3,18,Woman,Right,
0,1,2,0.45055550000006406,['n'],0,left,none,-99,-99,0.5,-99,0,none,3,18,Woman,Right,
1,1,2,0.7845038000000386,['c'],0,right,none,-99,-99,0.5,-99,0,none,3,18,Woman,Right,
2,1,2,0.7012002999999822,['n'],1,right,none,-99,-99,0.5,-99,0,none,3,18,Woman,Right,
3,1,2,0.6002229000000625,['c'],1,left,none,-99,-99,0.5,-99,0,none,3,18,Woman,Right,
4,1,2,0.6011759000002712,['n'],1,right,none,-99,-99,0.5,-99,0,none,3,18,Woman,Right,
5,1,2,0.7004657000002226,['c'],0,right,none,-99,-99,0.5,-99,0,none,3,18,Woman,Right,
6,1,2,0.8329266999999163,['c'],1,left,none,-99,-99,0.5,-99,0,none,3,18,Woman,Right,
7,1,2,0.5846400000000358,['n'],1,right,none,-99,-99,0.5,-99,0,none,3,18,Woman,Right,
8,1,2,0.6328151000002435,['n'],1,right,none,-99,-99,0.5,-99,0,none,3,18,Woman,Right,
9,1,2,0.7166078000000198,['c'],1,left,none,-99,-99,0.5,-99,0,none,3,18,Woman,Right,
10,1,2,0.48342189999993934,['c'],1,left,none,-99,-99,0.5,-99,0,none,3,18,Woman,Right,
11,1,2,0.7164003999996567,['c'],1,left,none,-99,-99,0.5,-99,0,none,3,18,Woman,Right,
12,1,2,0.551114399999733,['n'],1,right,none,-99,-99,0.5,-99,0,none,3,18,Woman,Right,
13,1,2,0.5855194000000665,['c'],1,left,none,-99,-99,0.5,-99,0,none,3,18,Woman,Right,
14,1,2,0.7013885999999729,['n'],0,left,none,-99,-99,0.5,-99,0,none,3,18,Woman,Right,
15,1,2,0.6835476999999628,['c'],1,left,none,-99,-99,0.5,-99,0,none,3,18,Woman,Right,
16,1,2,0.7994988000000376,['n'],1,right,none,-99,-99,0.5,-99,0,none,3,18,Woman,Right,
17,1,2,0.8166332000000693,['c'],1,left,none,-99,-99,0.5,-99,0,none,3,18,Woman,Right,
18,1,2,0.5005807000002278,['c'],1,left,none,-99,-99,0.5,-99,0,none,3,18,Woman,Right,
19,1,2,0.6829184999996869,['n'],1,right,none,-99,-99,0.5,-99,0,none,3,18,Woman,Right,
20,1,2,0.6664875000001302,['c'],0,right,none,-99,-99,0.5,-99,0,none,3,18,Woman,Right,
21,1,2,0.534070299999712,['c'],0,right,none,-99,-99,0.5,-99,0,none,3,18,Woman,Right,
22,1,2,1.1827234000002136,['c'],1,left,none,-99,-99,0.5,-99,0,none,3,18,Woman,Right,
23,1,2,1.2490405999997165,['n'],1,right,none,-99,-99,0.5,-99,0,none,3,18,Woman,Right,
0,1,3,0.5012495000000854,['c'],0,right,none,-99,-99,0.5,-99,0,none,3,18,Woman,Right,
1,1,3,0.36690020000014556,['n'],0,left,none,-99,-99,0.5,-99,0,none,3,18,Woman,Right,
2,1,3,0.7166902999997546,['c'],0,right,none,-99,-99,0.5,-99,0,none,3,18,Woman,Right,
3,1,3,0.6178939999999784,['n'],0,left,none,-99,-99,0.5,-99,0,none,3,18,Woman,Right,
4,1,3,0.618669200000113,['c'],1,left,none,-99,-99,0.5,-99,0,none,3,18,Woman,Right,
5,1,3,0.6500492000000122,['n'],1,right,none,-99,-99,0.5,-99,0,none,3,18,Woman,Right,
6,1,3,1.2664035999996486,['c'],0,right,none,-99,-99,0.5,-99,0,none,3,18,Woman,Right,
7,1,3,0.6994758999999249,['n'],1,right,none,-99,-99,0.5,-99,0,none,3,18,Woman,Right,
8,1,3,0.5675934999999299,['c'],1,left,none,-99,-99,0.5,-99,0,none,3,18,Woman,Right,
9,1,3,0.7025182999996105,['n'],1,right,none,-99,-99,0.5,-99,0,none,3,18,Woman,Right,
10,1,3,0.5492410000001655,['c'],1,left,none,-99,-99,0.5,-99,0,none,3,18,Woman,Right,
11,1,3,0.33312210000030973,['c'],0,right,none,-99,-99,0.5,-99,0,none,3,18,Woman,Right,
12,1,3,0.5174443000000792,['n'],1,right,none,-99,-99,0.5,-99,0,none,3,18,Woman,Right,
13,1,3,0.5843660999998974,['c'],1,left,none,-99,-99,0.5,-99,0,none,3,18,Woman,Right,
14,1,3,0.6487351000000672,['n'],1,right,none,-99,-99,0.5,-99,0,none,3,18,Woman,Right,
15,1,3,0.4656927999999425,['c'],1,left,none,-99,-99,0.5,-99,0,none,3,18,Woman,Right,
16,1,3,0.5171049999999013,['n'],1,right,none,-99,-99,0.5,-99,0,none,3,18,Woman,Right,
17,1,3,0.5167146000003413,['c'],1,left,none,-99,-99,0.5,-99,0,none,3,18,Woman,Right,
18,1,3,0.5658708999999362,['n'],1,right,none,-99,-99,0.5,-99,0,none,3,18,Woman,Right,
19,1,3,0.5341325999997935,['c'],1,left,none,-99,-99,0.5,-99,0,none,3,18,Woman,Right,
20,1,3,0.5175149000006058,['c'],1,left,none,-99,-99,0.5,-99,0,none,3,18,Woman,Right,
21,1,3,0.6160281000002215,['c'],1,left,none,-99,-99,0.5,-99,0,none,3,18,Woman,Right,
22,1,3,0.5343995000002906,['c'],1,left,none,-99,-99,0.5,-99,0,none,3,18,Woman,Right,
23,1,3,0.6828106000002663,['n'],1,right,none,-99,-99,0.5,-99,0,none,3,18,Woman,Right,
0,1,4,0.9499605000000884,['c'],1,left,none,-99,-99,0.5,-99,0,none,3,18,Woman,Right,
1,1,4,0.5176566000000093,['c'],1,left,none,-99,-99,0.5,-99,0,none,3,18,Woman,Right,
2,1,4,0.6834702999994988,['n'],1,right,none,-99,-99,0.5,-99,0,none,3,18,Woman,Right,
3,1,4,0.91805579999982,['c'],0,right,none,-99,-99,0.5,-99,0,none,3,18,Woman,Right,
4,1,4,0.6163637999998173,['c'],1,left,none,-99,-99,0.5,-99,0,none,3,18,Woman,Right,
5,1,4,0.5984610000004977,['c'],1,left,none,-99,-99,0.5,-99,0,none,3,18,Woman,Right,
6,1,4,0.4499803000007887,['c'],1,left,none,-99,-99,0.5,-99,0,none,3,18,Woman,Right,
7,1,4,0.6176030000005994,['n'],1,right,none,-99,-99,0.5,-99,0,none,3,18,Woman,Right,
8,1,4,0.5997004000000743,['n'],1,right,none,-99,-99,0.5,-99,0,none,3,18,Woman,Right,
9,1,4,0.4833526000002166,['c'],1,left,none,-99,-99,0.5,-99,0,none,3,18,Woman,Right,
10,1,4,0.4664476999996623,['c'],1,left,none,-99,-99,0.5,-99,0,none,3,18,Woman,Right,
11,1,4,0.5494852000001629,['c'],1,left,none,-99,-99,0.5,-99,0,none,3,18,Woman,Right,
12,1,4,0.7337852999999086,['n'],1,right,none,-99,-99,0.5,-99,0,none,3,18,Woman,Right,
13,1,4,0.7335806999999477,['n'],0,left,none,-99,-99,0.5,-99,0,none,3,18,Woman,Right,
14,1,4,0.38454339999952936,['c'],0,right,none,-99,-99,0.5,-99,0,none,3,18,Woman,Right,
15,1,4,0.5346770999994988,['c'],0,right,none,-99,-99,0.5,-99,0,none,3,18,Woman,Right,
16,1,4,0.9173061000001326,['c'],0,right,none,-99,-99,0.5,-99,0,none,3,18,Woman,Right,
17,1,4,1.1657753999998022,['c'],0,right,none,-99,-99,0.5,-99,0,none,3,18,Woman,Right,
18,1,4,0.4335064000006241,['n'],1,right,none,-99,-99,0.5,-99,0,none,3,18,Woman,Right,
19,1,4,0.6342703999998776,['n'],1,right,none,-99,-99,0.5,-99,0,none,3,18,Woman,Right,
20,1,4,0.45028959999945073,['n'],0,left,none,-99,-99,0.5,-99,0,none,3,18,Woman,Right,
21,1,4,0.835019299999658,['c'],0,right,none,-99,-99,0.5,-99,0,none,3,18,Woman,Right,
22,1,4,0.39977149999958783,['n'],0,left,none,-99,-99,0.5,-99,0,none,3,18,Woman,Right,
23,1,4,0.2693534999998519,['n'],0,left,none,-99,-99,0.5,-99,0,none,3,18,Woman,Right,
0,1,5,0.6168158000000403,['n'],1,right,none,-99,-99,0.5,-99,0,none,3,18,Woman,Right,
1,1,5,0.3984672999995382,['n'],0,left,none,-99,-99,0.5,-99,0,none,3,18,Woman,Right,
2,1,5,0.36638889999994717,['c'],1,left,none,-99,-99,0.5,-99,0,none,3,18,Woman,Right,
3,1,5,0.45001780000075087,['c'],1,left,none,-99,-99,0.5,-99,0,none,3,18,Woman,Right,
4,1,5,0.533158999999614,['c'],0,right,none,-99,-99,0.5,-99,0,none,3,18,Woman,Right,
5,1,5,0.4006023000001733,['n'],0,left,none,-99,-99,0.5,-99,0,none,3,18,Woman,Right,
6,1,5,0.23479780000070605,['c'],0,right,none,-99,-99,0.5,-99,0,none,3,18,Woman,Right,
7,1,5,0.33413430000018707,['c'],0,right,none,-99,-99,0.5,-99,0,none,3,18,Woman,Right,
8,1,5,0.5993144000003667,['c'],1,left,none,-99,-99,0.5,-99,0,none,3,18,Woman,Right,
9,1,5,0.5835883999998259,['c'],1,left,none,-99,-99,0.5,-99,0,none,3,18,Woman,Right,
10,1,5,0.6682015000005777,['n'],0,left,none,-99,-99,0.5,-99,0,none,3,18,Woman,Right,
11,1,5,0.5667163999996774,['c'],1,left,none,-99,-99,0.5,-99,0,none,3,18,Woman,Right,
12,1,5,0.38310120000005554,['c'],0,right,none,-99,-99,0.5,-99,0,none,3,18,Woman,Right,
13,1,5,0.30045289999998204,['n'],0,left,none,-99,-99,0.5,-99,0,none,3,18,Woman,Right,
14,1,5,0.6491458000000421,['c'],1,left,none,-99,-99,0.5,-99,0,none,3,18,Woman,Right,
15,1,5,0.3346745999997438,['c'],0,right,none,-99,-99,0.5,-99,0,none,3,18,Woman,Right,
16,1,5,0.3173760999998194,['n'],1,right,none,-99,-99,0.5,-99,0,none,3,18,Woman,Right,
17,1,5,0.6010397000000012,['n'],1,right,none,-99,-99,0.5,-99,0,none,3,18,Woman,Right,
18,1,5,0.46678759999940667,['n'],1,right,none,-99,-99,0.5,-99,0,none,3,18,Woman,Right,
19,1,5,0.6484033000006093,['n'],1,right,none,-99,-99,0.5,-99,0,none,3,18,Woman,Right,
20,1,5,0.6345408999995925,['n'],1,right,none,-99,-99,0.5,-99,0,none,3,18,Woman,Right,
21,1,5,0.5845653999995193,['n'],0,left,none,-99,-99,0.5,-99,0,none,3,18,Woman,Right,
22,1,5,0.3669184000000314,['c'],1,left,none,-99,-99,0.5,-99,0,none,3,18,Woman,Right,
23,1,5,0.3336411999998745,['c'],0,right,none,-99,-99,0.5,-99,0,none,3,18,Woman,Right,
0,1,6,1.349391900000228,['n'],0,left,none,-99,-99,0.5,-99,0,none,3,18,Woman,Right,
1,1,6,0.9168105999997351,['c'],1,left,none,-99,-99,0.5,-99,0,none,3,18,Woman,Right,
2,1,6,0.5508007999997062,['c'],1,left,none,-99,-99,0.5,-99,0,none,3,18,Woman,Right,
3,1,6,0.6991054999998596,['n'],1,right,none,-99,-99,0.5,-99,0,none,3,18,Woman,Right,
4,1,6,1.2017667999998594,['c'],1,left,none,-99,-99,0.5,-99,0,none,3,18,Woman,Right,
5,1,6,0.7010363999997935,['c'],1,left,none,-99,-99,0.5,-99,0,none,3,18,Woman,Right,
6,1,6,0.43335949999982404,['c'],0,right,none,-99,-99,0.5,-99,0,none,3,18,Woman,Right,
7,1,6,0.6176494000001185,['n'],1,right,none,-99,-99,0.5,-99,0,none,3,18,Woman,Right,
8,1,6,0.45095599999967817,['c'],0,right,none,-99,-99,0.5,-99,0,none,3,18,Woman,Right,
9,1,6,0.5662325000002966,['c'],1,left,none,-99,-99,0.5,-99,0,none,3,18,Woman,Right,
10,1,6,0.535409800000707,['n'],1,right,none,-99,-99,0.5,-99,0,none,3,18,Woman,Right,
11,1,6,0.49920859999929235,['c'],0,right,none,-99,-99,0.5,-99,0,none,3,18,Woman,Right,
12,1,6,0.4169218999995792,['n'],0,left,none,-99,-99,0.5,-99,0,none,3,18,Woman,Right,
13,1,6,0.451048300000366,['n'],0,left,none,-99,-99,0.5,-99,0,none,3,18,Woman,Right,
14,1,6,0.35171919999993406,['c'],1,left,none,-99,-99,0.5,-99,0,none,3,18,Woman,Right,
15,1,6,0.450021900000138,['c'],1,left,none,-99,-99,0.5,-99,0,none,3,18,Woman,Right,
16,1,6,0.517253900000469,['n'],1,right,none,-99,-99,0.5,-99,0,none,3,18,Woman,Right,
17,1,6,0.9505450000006022,['c'],1,left,none,-99,-99,0.5,-99,0,none,3,18,Woman,Right,
18,1,6,0.7156881000000794,['n'],1,right,none,-99,-99,0.5,-99,0,none,3,18,Woman,Right,
19,1,6,0.9995310999993308,['n'],1,right,none,-99,-99,0.5,-99,0,none,3,18,Woman,Right,
20,1,6,0.8999922000002698,['n'],1,right,none,-99,-99,0.5,-99,0,none,3,18,Woman,Right,
21,1,6,0.8157001999998101,['n'],1,right,none,-99,-99,0.5,-99,0,none,3,18,Woman,Right,
22,1,6,1.1992901000003258,['n'],0,left,none,-99,-99,0.5,-99,0,none,3,18,Woman,Right,
23,1,6,0.5171294000001581,['c'],0,right,none,-99,-99,0.5,-99,0,none,3,18,Woman,Right,
0,1,7,0.7682169999998223,['n'],0,left,none,-99,-99,0.5,-99,0,none,3,18,Woman,Right,
1,1,7,0.4163224000003538,['c'],0,right,none,-99,-99,0.5,-99,0,none,3,18,Woman,Right,
2,1,7,0.28320720000010624,['n'],1,right,none,-99,-99,0.5,-99,0,none,3,18,Woman,Right,
3,1,7,0.5003899000003003,['n'],0,left,none,-99,-99,0.5,-99,0,none,3,18,Woman,Right,
4,1,7,0.683490399999755,['c'],0,right,none,-99,-99,0.5,-99,0,none,3,18,Woman,Right,
5,1,7,0.3331746000003477,['n'],0,left,none,-99,-99,0.5,-99,0,none,3,18,Woman,Right,
6,1,7,0.615225499999724,['c'],1,left,none,-99,-99,0.5,-99,0,none,3,18,Woman,Right,
7,1,7,0.6014119999999821,['c'],1,left,none,-99,-99,0.5,-99,0,none,3,18,Woman,Right,
8,1,7,0.6330877999998847,['n'],1,right,none,-99,-99,0.5,-99,0,none,3,18,Woman,Right,
9,1,7,0.6318916000000172,['c'],1,left,none,-99,-99,0.5,-99,0,none,3,18,Woman,Right,
10,1,7,0.9490330999997241,['n'],0,left,none,-99,-99,0.5,-99,0,none,3,18,Woman,Right,
11,1,7,0.7337884000007762,['n'],1,right,none,-99,-99,0.5,-99,0,none,3,18,Woman,Right,
12,1,7,0.4493110000003071,['c'],1,left,none,-99,-99,0.5,-99,0,none,3,18,Woman,Right,
13,1,7,0.40051949999997305,['n'],1,right,none,-99,-99,0.5,-99,0,none,3,18,Woman,Right,
14,1,7,0.5667062000002261,['c'],1,left,none,-99,-99,0.5,-99,0,none,3,18,Woman,Right,
15,1,7,0.7012642999998207,['n'],1,right,none,-99,-99,0.5,-99,0,none,3,18,Woman,Right,
16,1,7,0.4494254999999612,['c'],1,left,none,-99,-99,0.5,-99,0,none,3,18,Woman,Right,
17,1,7,0.49963579999985086,['n'],1,right,none,-99,-99,0.5,-99,0,none,3,18,Woman,Right,
18,1,7,0.5006155000000945,['n'],0,left,none,-99,-99,0.5,-99,0,none,3,18,Woman,Right,
19,1,7,0.40029820000017935,['c'],0,right,none,-99,-99,0.5,-99,0,none,3,18,Woman,Right,
20,1,7,0.6007957999991049,['n'],1,right,none,-99,-99,0.5,-99,0,none,3,18,Woman,Right,
21,1,7,0.38394590000007156,['n'],1,right,none,-99,-99,0.5,-99,0,none,3,18,Woman,Right,
22,1,7,0.4504440999999133,['n'],1,right,none,-99,-99,0.5,-99,0,none,3,18,Woman,Right,
23,1,7,0.7507687999996051,['c'],1,left,none,-99,-99,0.5,-99,0,none,3,18,Woman,Right,
0,1,8,0.70015820000026,['n'],1,right,none,-99,-99,0.5,-99,0,none,3,18,Woman,Right,
1,1,8,0.4010433000003104,['n'],1,right,none,-99,-99,0.5,-99,0,none,3,18,Woman,Right,
2,1,8,0.6997745999997278,['n'],1,right,none,-99,-99,0.5,-99,0,none,3,18,Woman,Right,
3,1,8,0.9338351999995211,['n'],0,left,none,-99,-99,0.5,-99,0,none,3,18,Woman,Right,
4,1,8,1.5667997000000469,['c'],1,left,none,-99,-99,0.5,-99,0,none,3,18,Woman,Right,
5,1,8,0.9342007000004742,['n'],1,right,none,-99,-99,0.5,-99,0,none,3,18,Woman,Right,
6,1,8,0.6014848999993774,['n'],1,right,none,-99,-99,0.5,-99,0,none,3,18,Woman,Right,
7,1,8,0.7490299999999479,['n'],1,right,none,-99,-99,0.5,-99,0,none,3,18,Woman,Right,
8,1,8,0.9004627000003893,['c'],1,left,none,-99,-99,0.5,-99,0,none,3,18,Woman,Right,
9,1,8,0.683089299999665,['n'],0,left,none,-99,-99,0.5,-99,0,none,3,18,Woman,Right,
10,1,8,0.7001965999997992,['n'],1,right,none,-99,-99,0.5,-99,0,none,3,18,Woman,Right,
11,1,8,0.7343551999992997,['n'],0,left,none,-99,-99,0.5,-99,0,none,3,18,Woman,Right,
12,1,8,0.3679837999998199,['c'],1,left,none,-99,-99,0.5,-99,0,none,3,18,Woman,Right,
13,1,8,0.3678532999992967,['n'],0,left,none,-99,-99,0.5,-99,0,none,3,18,Woman,Right,
14,1,8,0.30100299999958224,['c'],1,left,none,-99,-99,0.5,-99,0,none,3,18,Woman,Right,
15,1,8,0.4360255000001416,['c'],1,left,none,-99,-99,0.5,-99,0,none,3,18,Woman,Right,
16,1,8,0.33393810000052326,['c'],1,left,none,-99,-99,0.5,-99,0,none,3,18,Woman,Right,
17,1,8,0.4996210000008432,['n'],1,right,none,-99,-99,0.5,-99,0,none,3,18,Woman,Right,
18,1,8,1.1826363999998648,['c'],0,right,none,-99,-99,0.5,-99,0,none,3,18,Woman,Right,
19,1,8,0.7324220999998943,['c'],0,right,none,-99,-99,0.5,-99,0,none,3,18,Woman,Right,
20,1,8,0.31781339999997726,['n'],0,left,none,-99,-99,0.5,-99,0,none,3,18,Woman,Right,
21,1,8,0.48432599999978265,['c'],1,left,none,-99,-99,0.5,-99,0,none,3,18,Woman,Right,
22,1,8,0.3846882000007099,['c'],0,right,none,-99,-99,0.5,-99,0,none,3,18,Woman,Right,
23,1,8,0.31771979999939504,['n'],1,right,none,-99,-99,0.5,-99,0,none,3,18,Woman,Right,
0,1,9,0.8514699000006658,['n'],0,left,none,-99,-99,0.5,-99,0,none,3,18,Woman,Right,
1,1,9,0.8171588000004704,['n'],0,left,none,-99,-99,0.5,-99,0,none,3,18,Woman,Right,
2,1,9,0.6844399000001431,['c'],1,left,none,-99,-99,0.5,-99,0,none,3,18,Woman,Right,
3,1,9,0.9331657000002451,['n'],1,right,none,-99,-99,0.5,-99,0,none,3,18,Woman,Right,
4,1,9,1.434089800000038,['n'],0,left,none,-99,-99,0.5,-99,0,none,3,18,Woman,Right,
5,1,9,0.41683999999986554,['c'],0,right,none,-99,-99,0.5,-99,0,none,3,18,Woman,Right,
6,1,9,0.7344087000001309,['n'],1,right,none,-99,-99,0.5,-99,0,none,3,18,Woman,Right,
7,1,9,0.5337571000000025,['n'],1,right,none,-99,-99,0.5,-99,0,none,3,18,Woman,Right,
8,1,9,0.5671090000005279,['n'],1,right,none,-99,-99,0.5,-99,0,none,3,18,Woman,Right,
9,1,9,0.6340118999996776,['n'],1,right,none,-99,-99,0.5,-99,0,none,3,18,Woman,Right,
10,1,9,1.0005175000005693,['c'],1,left,none,-99,-99,0.5,-99,0,none,3,18,Woman,Right,
11,1,9,0.7006344999999783,['n'],0,left,none,-99,-99,0.5,-99,0,none,3,18,Woman,Right,
12,1,9,0.6342955999998594,['c'],1,left,none,-99,-99,0.5,-99,0,none,3,18,Woman,Right,
13,1,9,0.9172373000001244,['c'],0,right,none,-99,-99,0.5,-99,0,none,3,18,Woman,Right,
14,1,9,0.79983540000012,['n'],1,right,none,-99,-99,0.5,-99,0,none,3,18,Woman,Right,
15,1,9,0.9026972000001479,['n'],1,right,none,-99,-99,0.5,-99,0,none,3,18,Woman,Right,
16,1,9,0.7687365000001591,['n'],1,right,none,-99,-99,0.5,-99,0,none,3,18,Woman,Right,
17,1,9,0.7988785999996253,['n'],0,left,none,-99,-99,0.5,-99,0,none,3,18,Woman,Right,
18,1,9,0.8510304999999789,['n'],0,left,none,-99,-99,0.5,-99,0,none,3,18,Woman,Right,
19,1,9,0.2674372999999832,['c'],1,left,none,-99,-99,0.5,-99,0,none,3,18,Woman,Right,
20,1,9,0.4510763999996925,['c'],1,left,none,-99,-99,0.5,-99,0,none,3,18,Woman,Right,
21,1,9,0.36727369999971415,['c'],0,right,none,-99,-99,0.5,-99,0,none,3,18,Woman,Right,
22,1,9,0.4662235000005239,['n'],1,right,none,-99,-99,0.5,-99,0,none,3,18,Woman,Right,
23,1,9,0.44997030000013183,['n'],0,left,none,-99,-99,0.5,-99,0,none,3,18,Woman,Right,
0,1,10,0.6848384000004444,['n'],1,right,none,-99,-99,0.5,-99,0,none,3,18,Woman,Right,
1,1,10,0.5674404999999751,['n'],0,left,none,-99,-99,0.5,-99,0,none,3,18,Woman,Right,
2,1,10,0.3512133999993239,['c'],1,left,none,-99,-99,0.5,-99,0,none,3,18,Woman,Right,
3,1,10,0.4013193000000683,['c'],1,left,none,-99,-99,0.5,-99,0,none,3,18,Woman,Right,
4,1,10,0.8669079000001148,['c'],1,left,none,-99,-99,0.5,-99,0,none,3,18,Woman,Right,
5,1,10,0.5836357999996835,['c'],0,right,none,-99,-99,0.5,-99,0,none,3,18,Woman,Right,
6,1,10,0.5158496000003652,['n'],1,right,none,-99,-99,0.5,-99,0,none,3,18,Woman,Right,
7,1,10,1.683790900000531,['n'],0,left,none,-99,-99,0.5,-99,0,none,3,18,Woman,Right,
8,1,10,0.6669294999992417,['n'],1,right,none,-99,-99,0.5,-99,0,none,3,18,Woman,Right,
9,1,10,0.33439670000007027,['n'],1,right,none,-99,-99,0.5,-99,0,none,3,18,Woman,Right,
10,1,10,0.450520499999584,['c'],0,right,none,-99,-99,0.5,-99,0,none,3,18,Woman,Right,
11,1,10,0.38458859999991546,['n'],0,left,none,-99,-99,0.5,-99,0,none,3,18,Woman,Right,
12,1,10,0.6341268000005584,['c'],1,left,none,-99,-99,0.5,-99,0,none,3,18,Woman,Right,
13,1,10,0.6838867000005848,['n'],1,right,none,-99,-99,0.5,-99,0,none,3,18,Woman,Right,
14,1,10,0.8497300999997606,['n'],1,right,none,-99,-99,0.5,-99,0,none,3,18,Woman,Right,
15,1,10,0.8661395999997694,['n'],1,right,none,-99,-99,0.5,-99,0,none,3,18,Woman,Right,
16,1,10,0.817825800000719,['c'],1,left,none,-99,-99,0.5,-99,0,none,3,18,Woman,Right,
17,1,10,0.6995822000008047,['n'],1,right,none,-99,-99,0.5,-99,0,none,3,18,Woman,Right,
18,1,10,0.6502885999998398,['c'],1,left,none,-99,-99,0.5,-99,0,none,3,18,Woman,Right,
19,1,10,0.7169745000001058,['c'],1,left,none,-99,-99,0.5,-99,0,none,3,18,Woman,Right,
20,1,10,0.6508904000002076,['n'],1,right,none,-99,-99,0.5,-99,0,none,3,18,Woman,Right,
21,1,10,0.5165698999999222,['n'],0,left,none,-99,-99,0.5,-99,0,none,3,18,Woman,Right,
22,1,10,0.4343565999997736,['c'],1,left,none,-99,-99,0.5,-99,0,none,3,18,Woman,Right,
23,1,10,0.33364069999970525,['n'],1,right,none,-99,-99,0.5,-99,0,none,3,18,Woman,Right,
0,1,11,0.6503622999998697,['n'],0,left,none,-99,-99,0.5,-99,0,none,3,18,Woman,Right,
1,1,11,0.2668290000001434,['c'],0,right,none,-99,-99,0.5,-99,0,none,3,18,Woman,Right,
2,1,11,0.5339860000003682,['n'],0,left,none,-99,-99,0.5,-99,0,none,3,18,Woman,Right,
3,1,11,0.4176872000007279,['c'],0,right,none,-99,-99,0.5,-99,0,none,3,18,Woman,Right,
4,1,11,0.3666345999999976,['c'],1,left,none,-99,-99,0.5,-99,0,none,3,18,Woman,Right,
5,1,11,1.151445500000591,['n'],1,right,none,-99,-99,0.5,-99,0,none,3,18,Woman,Right,
6,1,11,0.28349379999963276,['c'],1,left,none,-99,-99,0.5,-99,0,none,3,18,Woman,Right,
7,1,11,0.33328810000057274,['n'],1,right,none,-99,-99,0.5,-99,0,none,3,18,Woman,Right,
8,1,11,0.3326388000004954,['c'],1,left,none,-99,-99,0.5,-99,0,none,3,18,Woman,Right,
9,1,11,0.3337026999997761,['n'],1,right,none,-99,-99,0.5,-99,0,none,3,18,Woman,Right,
10,1,11,0.24894839999979013,['c'],1,left,none,-99,-99,0.5,-99,0,none,3,18,Woman,Right,
11,1,11,0.23510320000059437,['n'],0,left,none,-99,-99,0.5,-99,0,none,3,18,Woman,Right,
12,1,11,0.29937859999972716,['n'],1,right,none,-99,-99,0.5,-99,0,none,3,18,Woman,Right,
13,1,11,0.3173022000000856,['c'],1,left,none,-99,-99,0.5,-99,0,none,3,18,Woman,Right,
14,1,11,0.13476160000027448,['n'],0,left,none,-99,-99,0.5,-99,0,none,3,18,Woman,Right,
15,1,11,0.3176114999996571,['n'],1,right,none,-99,-99,0.5,-99,0,none,3,18,Woman,Right,
16,1,11,0.31725879999976314,['c'],0,right,none,-99,-99,0.5,-99,0,none,3,18,Woman,Right,
17,1,11,0.18422320000081527,['c'],0,right,none,-99,-99,0.5,-99,0,none,3,18,Woman,Right,
18,1,11,0.5669511999994938,['n'],1,right,none,-99,-99,0.5,-99,0,none,3,18,Woman,Right,
19,1,11,0.2836124000004929,['n'],1,right,none,-99,-99,0.5,-99,0,none,3,18,Woman,Right,
20,1,11,0.6997868000007657,['c'],1,left,none,-99,-99,0.5,-99,0,none,3,18,Woman,Right,
21,1,11,0.3840848999998343,['c'],0,right,none,-99,-99,0.5,-99,0,none,3,18,Woman,Right,
22,1,11,0.2838713999999527,['c'],1,left,none,-99,-99,0.5,-99,0,none,3,18,Woman,Right,
23,1,11,0.7503768000005948,['c'],1,left,none,-99,-99,0.5,-99,0,none,3,18,Woman,Right,
0,1,12,0.4516420999998445,['n'],1,right,none,-99,-99,0.5,-99,0,none,3,18,Woman,Right,
1,1,12,0.38337529999989783,['c'],1,left,none,-99,-99,0.5,-99,0,none,3,18,Woman,Right,
2,1,12,0.2664497999994637,['n'],0,left,none,-99,-99,0.5,-99,0,none,3,18,Woman,Right,
3,1,12,0.5004007999996247,['n'],1,right,none,-99,-99,0.5,-99,0,none,3,18,Woman,Right,
4,1,12,0.5015971000002537,['n'],1,right,none,-99,-99,0.5,-99,0,none,3,18,Woman,Right,
5,1,12,0.5179096000001664,['n'],0,left,none,-99,-99,0.5,-99,0,none,3,18,Woman,Right,
6,1,12,0.21664160000000265,['c'],1,left,none,-99,-99,0.5,-99,0,none,3,18,Woman,Right,
7,1,12,0.31784030000017083,['c'],0,right,none,-99,-99,0.5,-99,0,none,3,18,Woman,Right,
8,1,12,0.2834939000003942,['n'],0,left,none,-99,-99,0.5,-99,0,none,3,18,Woman,Right,
9,1,12,0.2840529000004608,['c'],1,left,none,-99,-99,0.5,-99,0,none,3,18,Woman,Right,
10,1,12,0.3667243999998391,['c'],1,left,none,-99,-99,0.5,-99,0,none,3,18,Woman,Right,
11,1,12,0.6010366000000431,['n'],1,right,none,-99,-99,0.5,-99,0,none,3,18,Woman,Right,
12,1,12,0.8010798999994222,['n'],1,right,none,-99,-99,0.5,-99,0,none,3,18,Woman,Right,
13,1,12,0.3504221000002872,['c'],0,right,none,-99,-99,0.5,-99,0,none,3,18,Woman,Right,
14,1,12,0.5171401000006881,['n'],1,right,none,-99,-99,0.5,-99,0,none,3,18,Woman,Right,
15,1,12,0.50081979999959,['n'],1,right,none,-99,-99,0.5,-99,0,none,3,18,Woman,Right,
16,1,12,0.5668378000000303,['n'],1,right,none,-99,-99,0.5,-99,0,none,3,18,Woman,Right,
17,1,12,0.33394740000039747,['c'],1,left,none,-99,-99,0.5,-99,0,none,3,18,Woman,Right,
18,1,12,0.6520938000003298,['c'],1,left,none,-99,-99,0.5,-99,0,none,3,18,Woman,Right,
19,1,12,0.5677270999995017,['n'],0,left,none,-99,-99,0.5,-99,0,none,3,18,Woman,Right,
20,1,12,0.4170051999999487,['c'],1,left,none,-99,-99,0.5,-99,0,none,3,18,Woman,Right,
21,1,12,0.6178205000005619,['n'],0,left,none,-99,-99,0.5,-99,0,none,3,18,Woman,Right,
22,1,12,1.116012899999987,['c'],0,right,none,-99,-99,0.5,-99,0,none,3,18,Woman,Right,
23,1,12,0.23181370000020252,['c'],0,right,none,-99,-99,0.5,-99,0,none,3,18,Woman,Right,
0,1,13,0.6680946999995285,['c'],1,left,none,-99,-99,0.5,-99,0,none,3,18,Woman,Right,
1,1,13,0.3825304000001779,['c'],1,left,none,-99,-99,0.5,-99,0,none,3,18,Woman,Right,
2,1,13,0.5349851000000854,['n'],0,left,none,-99,-99,0.5,-99,0,none,3,18,Woman,Right,
3,1,13,0.33385850000013306,['c'],0,right,none,-99,-99,0.5,-99,0,none,3,18,Woman,Right,
4,1,13,0.700853499999539,['n'],0,left,none,-99,-99,0.5,-99,0,none,3,18,Woman,Right,
5,1,13,0.8163961999998719,['n'],1,right,none,-99,-99,0.5,-99,0,none,3,18,Woman,Right,
6,1,13,0.5161268000001655,['n'],1,right,none,-99,-99,0.5,-99,0,none,3,18,Woman,Right,
7,1,13,0.6011954000005062,['c'],1,left,none,-99,-99,0.5,-99,0,none,3,18,Woman,Right,
8,1,13,0.4996428999993441,['n'],0,left,none,-99,-99,0.5,-99,0,none,3,18,Woman,Right,
9,1,13,0.3332377999995515,['c'],1,left,none,-99,-99,0.5,-99,0,none,3,18,Woman,Right,
10,1,13,0.3177005999996254,['n'],1,right,none,-99,-99,0.5,-99,0,none,3,18,Woman,Right,
11,1,13,0.8670964000002641,['n'],0,left,none,-99,-99,0.5,-99,0,none,3,18,Woman,Right,
12,1,13,0.6827584999991814,['n'],1,right,none,-99,-99,0.5,-99,0,none,3,18,Woman,Right,
13,1,13,0.6676604000003863,['n'],1,right,none,-99,-99,0.5,-99,0,none,3,18,Woman,Right,
14,1,13,0.6179643999994369,['c'],0,right,none,-99,-99,0.5,-99,0,none,3,18,Woman,Right,
15,1,13,0.3494588000003205,['n'],0,left,none,-99,-99,0.5,-99,0,none,3,18,Woman,Right,
16,1,13,0.31581960000039544,['c'],0,right,none,-99,-99,0.5,-99,0,none,3,18,Woman,Right,
17,1,13,0.2328508000000511,['c'],1,left,none,-99,-99,0.5,-99,0,none,3,18,Woman,Right,
18,1,13,0.3338634000001548,['n'],0,left,none,-99,-99,0.5,-99,0,none,3,18,Woman,Right,
19,1,13,0.06594940000013594,['c'],1,left,none,-99,-99,0.5,-99,0,none,3,18,Woman,Right,
20,1,13,0.4000943000000916,['c'],0,right,none,-99,-99,0.5,-99,0,none,3,18,Woman,Right,
21,1,13,0.38386929999978747,['c'],0,right,none,-99,-99,0.5,-99,0,none,3,18,Woman,Right,
22,1,13,0.29937359999985347,['n'],1,right,none,-99,-99,0.5,-99,0,none,3,18,Woman,Right,
23,1,13,0.38326670000060403,['n'],1,right,none,-99,-99,0.5,-99,0,none,3,18,Woman,Right,
0,1,14,0.8670098000002326,['c'],0,right,none,-99,-99,0.5,-99,0,none,3,18,Woman,Right,
1,1,14,0.734670300000289,['c'],1,left,none,-99,-99,0.5,-99,0,none,3,18,Woman,Right,
2,1,14,0.5510602000003928,['n'],1,right,none,-99,-99,0.5,-99,0,none,3,18,Woman,Right,
3,1,14,0.9345203000002584,['n'],1,right,none,-99,-99,0.5,-99,0,none,3,18,Woman,Right,
4,1,14,1.3338870999996288,['c'],1,left,none,-99,-99,0.5,-99,0,none,3,18,Woman,Right,
5,1,14,0.6503266999998232,['n'],0,left,none,-99,-99,0.5,-99,0,none,3,18,Woman,Right,
6,1,14,0.715795099999923,['n'],1,right,none,-99,-99,0.5,-99,0,none,3,18,Woman,Right,
7,1,14,0.5832785999991756,['n'],1,right,none,-99,-99,0.5,-99,0,none,3,18,Woman,Right,
8,1,14,0.5834396000000197,['c'],1,left,none,-99,-99,0.5,-99,0,none,3,18,Woman,Right,
9,1,14,0.6010449000004883,['n'],1,right,none,-99,-99,0.5,-99,0,none,3,18,Woman,Right,
10,1,14,0.6815075000004072,['c'],1,left,none,-99,-99,0.5,-99,0,none,3,18,Woman,Right,
11,1,14,0.5673890999996729,['n'],1,right,none,-99,-99,0.5,-99,0,none,3,18,Woman,Right,
12,1,14,0.4339715999994951,['c'],1,left,none,-99,-99,0.5,-99,0,none,3,18,Woman,Right,
13,1,14,0.5345331999997143,['n'],0,left,none,-99,-99,0.5,-99,0,none,3,18,Woman,Right,
14,1,14,0.367045799999687,['c'],0,right,none,-99,-99,0.5,-99,0,none,3,18,Woman,Right,
15,1,14,0.6840298999995866,['n'],1,right,none,-99,-99,0.5,-99,0,none,3,18,Woman,Right,
16,1,14,0.7004606000000422,['n'],1,right,none,-99,-99,0.5,-99,0,none,3,18,Woman,Right,
17,1,14,0.3512036000001899,['n'],0,left,none,-99,-99,0.5,-99,0,none,3,18,Woman,Right,
18,1,14,0.5172743000002811,['n'],1,right,none,-99,-99,0.5,-99,0,none,3,18,Woman,Right,
19,1,14,0.45146569999997155,['n'],0,left,none,-99,-99,0.5,-99,0,none,3,18,Woman,Right,
20,1,14,0.7177782999997362,['c'],0,right,none,-99,-99,0.5,-99,0,none,3,18,Woman,Right,
21,1,14,0.5830645000005461,['n'],0,left,none,-99,-99,0.5,-99,0,none,3,18,Woman,Right,
22,1,14,0.7830251000004864,['c'],1,left,none,-99,-99,0.5,-99,0,none,3,18,Woman,Right,
23,1,14,0.6167799000004379,['c'],1,left,none,-99,-99,0.5,-99,0,none,3,18,Woman,Right,
0,1,15,0.6831234000001132,['n'],1,right,none,-99,-99,0.5,-99,0,none,3,18,Woman,Right,
1,1,15,0.4995409000002837,['c'],1,left,none,-99,-99,0.5,-99,0,none,3,18,Woman,Right,
2,1,15,0.48444430000017746,['n'],1,right,none,-99,-99,0.5,-99,0,none,3,18,Woman,Right,
3,1,15,0.49969509999937145,['n'],1,right,none,-99,-99,0.5,-99,0,none,3,18,Woman,Right,
4,1,15,0.6344840000001568,['n'],0,left,none,-99,-99,0.5,-99,0,none,3,18,Woman,Right,
5,1,15,0.8669931000003999,['c'],1,left,none,-99,-99,0.5,-99,0,none,3,18,Woman,Right,
6,1,15,0.5523075999999492,['n'],1,right,none,-99,-99,0.5,-99,0,none,3,18,Woman,Right,
7,1,15,0.6003455000000031,['n'],1,right,none,-99,-99,0.5,-99,0,none,3,18,Woman,Right,
8,1,15,0.5827524999995148,['n'],1,right,none,-99,-99,0.5,-99,0,none,3,18,Woman,Right,
9,1,15,0.6665385999995124,['c'],1,left,none,-99,-99,0.5,-99,0,none,3,18,Woman,Right,
10,1,15,0.5661313000000519,['n'],1,right,none,-99,-99,0.5,-99,0,none,3,18,Woman,Right,
11,1,15,0.5505354999995689,['c'],1,left,none,-99,-99,0.5,-99,0,none,3,18,Woman,Right,
12,1,15,0.5179344999996829,['n'],1,right,none,-99,-99,0.5,-99,0,none,3,18,Woman,Right,
13,1,15,0.48399979999976495,['c'],1,left,none,-99,-99,0.5,-99,0,none,3,18,Woman,Right,
14,1,15,0.5666700000001583,['n'],1,right,none,-99,-99,0.5,-99,0,none,3,18,Woman,Right,
15,1,15,0.6003660000005766,['c'],1,left,none,-99,-99,0.5,-99,0,none,3,18,Woman,Right,
16,1,15,0.5498964999997042,['n'],1,right,none,-99,-99,0.5,-99,0,none,3,18,Woman,Right,
17,1,15,0.500566799999433,['c'],1,left,none,-99,-99,0.5,-99,0,none,3,18,Woman,Right,
18,1,15,0.5502499999993233,['c'],1,left,none,-99,-99,0.5,-99,0,none,3,18,Woman,Right,
19,1,15,0.599417700000231,['c'],1,left,none,-99,-99,0.5,-99,0,none,3,18,Woman,Right,
20,1,15,0.6662943000001178,['c'],1,left,none,-99,-99,0.5,-99,0,none,3,18,Woman,Right,
21,1,15,0.6182150000004185,['n'],1,right,none,-99,-99,0.5,-99,0,none,3,18,Woman,Right,
22,1,15,0.7176709000004848,['c'],1,left,none,-99,-99,0.5,-99,0,none,3,18,Woman,Right,
23,1,15,0.5345484999998007,['n'],1,right,none,-99,-99,0.5,-99,0,none,3,18,Woman,Right,
0,2,1,0.8330808000000616,['n'],1,right,none,-99,-99,0.4,-99,0,none,3,18,Woman,Right,
1,2,1,0.5504781999998158,['c'],0,right,none,-99,-99,0.4,-99,0,none,3,18,Woman,Right,
2,2,1,0.6670093000002453,['c'],0,right,none,-99,-99,0.1,-99,0,none,3,18,Woman,Right,
3,2,1,1.2171250000001237,['c'],1,left,none,-99,-99,0.1,-99,0,none,3,18,Woman,Right,
4,2,1,0.9826766000005591,['n'],0,left,none,-99,-99,0.4,-99,0,none,3,18,Woman,Right,
5,2,1,0.700928300000669,['c'],1,left,none,-99,-99,0.4,-99,0,none,3,18,Woman,Right,
6,2,1,0.8496006000004854,['n'],1,right,none,-99,-99,0.2,-99,0,none,3,18,Woman,Right,
7,2,1,0.7166342000000441,['c'],0,right,none,-99,-99,0.4,-99,0,none,3,18,Woman,Right,
8,2,1,0.550418400000126,['c'],0,right,none,-99,-99,0.2,-99,0,none,3,18,Woman,Right,
9,2,1,0.6845155999999406,['c'],1,left,none,-99,-99,0.1,-99,0,none,3,18,Woman,Right,
10,2,1,0.6679580999998507,['n'],0,left,none,-99,-99,0.2,-99,0,none,3,18,Woman,Right,
11,2,1,0.7506116999993537,['n'],1,right,none,-99,-99,0.2,-99,0,none,3,18,Woman,Right,
12,2,1,0.4679898000003959,['c'],0,right,none,-99,-99,0.1,-99,0,none,3,18,Woman,Right,
13,2,1,0.549903400000403,['n'],0,left,none,-99,-99,0.2,-99,0,none,3,18,Woman,Right,
14,2,1,0.8818592999996326,['n'],1,right,none,-99,-99,0.2,-99,0,none,3,18,Woman,Right,
15,2,1,0.4843301999999312,['n'],1,right,none,-99,-99,0.1,-99,0,none,3,18,Woman,Right,
16,2,1,1.1836357000001954,['c'],1,left,none,-99,-99,0.4,-99,0,none,3,18,Woman,Right,
17,2,1,0.41676749999987805,['c'],1,left,none,-99,-99,0.1,-99,0,none,3,18,Woman,Right,
18,2,1,0.46838930000012624,['c'],1,left,none,-99,-99,0.4,-99,0,none,3,18,Woman,Right,
19,2,1,0.44934420000026876,['n'],0,left,none,-99,-99,0.2,-99,0,none,3,18,Woman,Right,
20,2,1,0.6170626000002812,['c'],0,right,none,-99,-99,0.2,-99,0,none,3,18,Woman,Right,
21,2,1,0.7179372999999032,['c'],1,left,none,-99,-99,0.1,-99,0,none,3,18,Woman,Right,
22,2,1,0.9348903000000064,['c'],0,right,none,-99,-99,0.1,-99,0,none,3,18,Woman,Right,
23,2,1,0.31812669999999343,['n'],0,left,none,-99,-99,0.4,-99,0,none,3,18,Woman,Right,
0,2,2,0.7176497000000381,['c'],1,left,none,-99,-99,0.4,-99,0,none,3,18,Woman,Right,
1,2,2,0.350778299999547,['c'],0,right,none,-99,-99,0.4,-99,0,none,3,18,Woman,Right,
2,2,2,0.29940930000066146,['n'],0,left,none,-99,-99,0.1,-99,0,none,3,18,Woman,Right,
3,2,2,0.3839369000006627,['n'],0,left,none,-99,-99,0.1,-99,0,none,3,18,Woman,Right,
4,2,2,0.534708000000137,['n'],0,left,none,-99,-99,0.4,-99,0,none,3,18,Woman,Right,
5,2,2,0.6838710000001811,['n'],1,right,none,-99,-99,0.4,-99,0,none,3,18,Woman,Right,
6,2,2,0.5182832000000417,['c'],0,right,none,-99,-99,0.2,-99,0,none,3,18,Woman,Right,
7,2,2,0.39944589999959135,['n'],0,left,none,-99,-99,0.4,-99,0,none,3,18,Woman,Right,
8,2,2,1.3334936999999627,['c'],0,right,none,-99,-99,0.2,-99,0,none,3,18,Woman,Right,
9,2,2,0.6831930999996985,['n'],0,left,none,-99,-99,0.1,-99,0,none,3,18,Woman,Right,
10,2,2,0.7681149999998524,['n'],1,right,none,-99,-99,0.2,-99,0,none,3,18,Woman,Right,
11,2,2,0.4158099999995102,['n'],0,left,none,-99,-99,0.2,-99,0,none,3,18,Woman,Right,
12,2,2,0.533760400000574,['n'],0,left,none,-99,-99,0.1,-99,0,none,3,18,Woman,Right,
13,2,2,0.6830185999997411,['c'],0,right,none,-99,-99,0.2,-99,0,none,3,18,Woman,Right,
14,2,2,0.5993423999998413,['n'],0,left,none,-99,-99,0.2,-99,0,none,3,18,Woman,Right,
15,2,2,0.6344888000003266,['n'],0,left,none,-99,-99,0.1,-99,0,none,3,18,Woman,Right,
16,2,2,1.5016383999991376,['n'],1,right,none,-99,-99,0.4,-99,0,none,3,18,Woman,Right,
17,2,2,0.7348406999999497,['n'],1,right,none,-99,-99,0.1,-99,0,none,3,18,Woman,Right,
18,2,2,0.8660174999995434,['n'],1,right,none,-99,-99,0.4,-99,0,none,3,18,Woman,Right,
19,2,2,0.8319376999997985,['n'],1,right,none,-99,-99,0.2,-99,0,none,3,18,Woman,Right,
20,2,2,0.8516586000005191,['c'],1,left,none,-99,-99,0.2,-99,0,none,3,18,Woman,Right,
21,2,2,1.3334575000008044,['n'],1,right,none,-99,-99,0.1,-99,0,none,3,18,Woman,Right,
22,2,2,0.6182845000002999,['c'],0,right,none,-99,-99,0.1,-99,0,none,3,18,Woman,Right,
23,2,2,0.7331979999999021,['n'],0,left,none,-99,-99,0.4,-99,0,none,3,18,Woman,Right,
0,2,3,0.5684460000002218,['c'],1,left,none,-99,-99,0.4,-99,0,none,3,18,Woman,Right,
1,2,3,0.4498782000000574,['n'],1,right,none,-99,-99,0.4,-99,0,none,3,18,Woman,Right,
2,2,3,0.6010042999996585,['n'],1,right,none,-99,-99,0.1,-99,0,none,3,18,Woman,Right,
3,2,3,0.81502349999937,['n'],1,right,none,-99,-99,0.1,-99,0,none,3,18,Woman,Right,
4,2,3,0.7016265000002022,['n'],0,left,none,-99,-99,0.4,-99,0,none,3,18,Woman,Right,
5,2,3,0.866555800000242,['n'],1,right,none,-99,-99,0.4,-99,0,none,3,18,Woman,Right,
6,2,3,0.8495887999997649,['n'],1,right,none,-99,-99,0.2,-99,0,none,3,18,Woman,Right,
7,2,3,0.8008485000000292,['n'],1,right,none,-99,-99,0.4,-99,0,none,3,18,Woman,Right,
8,2,3,0.6319885000002614,['n'],0,left,none,-99,-99,0.2,-99,0,none,3,18,Woman,Right,
9,2,3,1.084666599999764,['c'],1,left,none,-99,-99,0.1,-99,0,none,3,18,Woman,Right,
10,2,3,0.5829806000001554,['c'],0,right,none,-99,-99,0.2,-99,0,none,3,18,Woman,Right,
11,2,3,0.35250619999987975,['n'],0,left,none,-99,-99,0.2,-99,0,none,3,18,Woman,Right,
12,2,3,0.8499885000001086,['c'],0,right,none,-99,-99,0.1,-99,0,none,3,18,Woman,Right,
13,2,3,0.351317999999992,['n'],1,right,none,-99,-99,0.2,-99,0,none,3,18,Woman,Right,
14,2,3,0.5014057999997021,['n'],1,right,none,-99,-99,0.2,-99,0,none,3,18,Woman,Right,
15,2,3,0.534174699999312,['c'],1,left,none,-99,-99,0.1,-99,0,none,3,18,Woman,Right,
16,2,3,0.3669270999998844,['n'],0,left,none,-99,-99,0.4,-99,0,none,3,18,Woman,Right,
17,2,3,0.09937839999929565,['c'],1,left,none,-99,-99,0.1,-99,0,none,3,18,Woman,Right,
18,2,3,0.3680160000003525,['c'],1,left,none,-99,-99,0.4,-99,0,none,3,18,Woman,Right,
19,2,3,0.4177405999998882,['c'],1,left,none,-99,-99,0.2,-99,0,none,3,18,Woman,Right,
20,2,3,0.717085400000542,['c'],1,left,none,-99,-99,0.2,-99,0,none,3,18,Woman,Right,
21,2,3,0.9670796999998856,['c'],0,right,none,-99,-99,0.1,-99,0,none,3,18,Woman,Right,
22,2,3,0.8328929999997854,['n'],0,left,none,-99,-99,0.1,-99,0,none,3,18,Woman,Right,
23,2,3,0.35024969999994937,['c'],0,right,none,-99,-99,0.4,-99,0,none,3,18,Woman,Right,
0,3,1,0.6506978000006711,['n'],1,right,['e'],0,1.8433703999999125,0.1,0,0,none,3,18,Woman,Right,
1,3,1,0.8670452000005753,['n'],1,right,['u'],1,0.5102121999998417,0.1,1,0,none,3,18,Woman,Right,
2,3,1,0.7182187999997041,['n'],0,left,['u'],1,0.4675287000000026,0.1,0,0,none,3,18,Woman,Right,
3,3,1,0.9182254999996076,['c'],1,left,['u'],1,0.8025657000007413,0.2,1,0,none,3,18,Woman,Right,
4,3,1,1.0829647999998997,['n'],0,left,['u'],1,0.7664135000004535,0.1,0,0,none,3,18,Woman,Right,
5,3,1,0.8675445999997464,['n'],1,right,['u'],1,0.4348661000003631,0.4,1,0,none,3,18,Woman,Right,
6,3,1,1.4348559000000023,['n'],1,right,['e'],0,0.8462276000000202,0.4,0,0,none,3,18,Woman,Right,
7,3,1,0.7167497000000367,['n'],0,left,['e'],0,0.3740742999998474,0.2,1,0,none,3,18,Woman,Right,
8,3,1,1.566259700000046,['n'],0,left,['u'],1,0.31900259999929403,0.1,0,0,none,3,18,Woman,Right,
9,3,1,1.101101899999776,['n'],1,right,['u'],1,0.5096323999996457,0.1,1,0,none,3,18,Woman,Right,
10,3,1,2.1009928999992553,['c'],0,right,['e'],0,0.2831060999997135,0.2,1,0,none,3,18,Woman,Right,
11,3,1,0.7340979999999035,['n'],0,left,['e'],0,0.36093499999969936,0.4,1,0,none,3,18,Woman,Right,
12,3,1,1.4848339000000124,['n'],1,right,['u'],1,0.3416366999999809,0.2,1,0,none,3,18,Woman,Right,
13,3,1,1.4345179000001735,['n'],1,right,['e'],0,0.3252740999996604,0.4,0,0,none,3,18,Woman,Right,
14,3,1,2.4179376000001866,['c'],1,left,['u'],1,4.302490899999611,0.4,1,0,none,3,18,Woman,Right,
15,3,1,0.767442100000153,['n'],1,right,['u'],1,0.3948660000005475,0.2,1,0,none,3,18,Woman,Right,
16,3,1,1.1824160000005577,['c'],1,left,['e'],0,0.41982370000005176,0.4,0,0,none,3,18,Woman,Right,
17,3,1,3.352083499999935,['c'],0,right,['u'],1,1.1382715999998254,0.4,0,0,none,3,18,Woman,Right,
18,3,1,2.03317590000006,['c'],1,left,['u'],1,0.39501319999999396,0.1,1,0,none,3,18,Woman,Right,
19,3,1,3.6846165000006295,['c'],1,left,['u'],1,0.5580897999998342,0.1,1,0,none,3,18,Woman,Right,
20,3,1,2.3340993000001617,['c'],1,left,['u'],1,1.0414332000000286,0.2,1,0,none,3,18,Woman,Right,
21,3,1,2.101161999999931,['c'],1,left,['u'],1,0.3473524000000907,0.4,1,0,none,3,18,Woman,Right,
22,3,1,1.95073020000018,['n'],1,right,['e'],0,0.42086139999992156,0.2,0,0,none,3,18,Woman,Right,
23,3,1,2.500802300000032,['c'],0,right,['u'],1,0.4389328999995996,0.2,0,0,none,3,18,Woman,Right,
0,4,1,2.6990649999997913,['n'],0,left,['e'],0,0.1505920999998125,0.4,1,0,FastFast,3,18,Woman,Right,
1,4,1,1.2676323999994565,['n'],1,right,['e'],0,0.16066409999984899,0.2,0,0,FastFast,3,18,Woman,Right,
2,4,1,1.1342452999997477,['c'],0,right,['u'],1,0.20633420000012848,0.4,0,0,FastFast,3,18,Woman,Right,
3,4,1,0.7831962999998723,['c'],1,left,['u'],1,0.13817099999960192,0.2,1,0,FastFast,3,18,Woman,Right,
4,4,1,0.5170574000003398,['n'],0,left,['e'],0,0.1469323000001168,0.1,1,0,FastFast,3,18,Woman,Right,
5,4,1,0.617634100000032,['c'],1,left,['u'],1,0.13319090000004508,0.2,1,0,FastFast,3,18,Woman,Right,
6,4,1,0.9834052000005613,['c'],0,right,['u'],1,0.20423789999949804,0.1,0,0,FastFast,3,18,Woman,Right,
7,4,1,1.4336296000001312,['n'],0,left,['e'],0,0.1881862000000183,0.2,1,0,FastFast,3,18,Woman,Right,
8,4,1,1.4329903999996532,['c'],0,right,['u'],1,0.3505997000002026,0.1,0,0,FastFast,3,18,Woman,Right,
9,4,1,1.3486427999996522,['n'],0,left,['e'],0,0.5254476000000068,0.1,1,0,FastFast,3,18,Woman,Right,
10,4,1,0.3333244999994349,['c'],1,left,['u'],1,0.061291500000152155,0.4,1,0,FastFast,3,18,Woman,Right,
11,4,1,0.49967480000032083,['n'],1,right,['e'],0,0.13747129999956087,0.1,0,0,FastFast,3,18,Woman,Right,
12,4,1,0.9850304000001415,['n'],0,left,['u'],1,0.19044310000026599,0.1,0,0,FastFast,3,18,Woman,Right,
13,4,1,0.6164967999993678,['n'],1,right,['u'],1,0.14590159999988828,0.1,1,0,FastFast,3,18,Woman,Right,
14,4,1,0.8330134999996517,['n'],1,right,['e'],0,0.17399889999978768,0.4,0,0,FastFast,3,18,Woman,Right,
15,4,1,0.8997773999999481,['c'],0,right,['u'],1,0.05248120000032941,0.1,0,0,FastFast,3,18,Woman,Right,
16,4,1,0.6004050000001371,['n'],1,right,['e'],0,0.22111500000028173,0.2,0,0,FastFast,3,18,Woman,Right,
17,4,1,0.9835579000000507,['c'],1,left,['u'],1,0.17601099999956205,0.1,1,0,FastFast,3,18,Woman,Right,
18,4,1,1.701571999999942,['c'],1,left,['u'],1,0.08631140000034065,0.4,1,0,FastFast,3,18,Woman,Right,
19,4,1,0.3496715999999651,['n'],1,right,['e'],0,0.13624650000019756,0.4,0,0,FastFast,3,18,Woman,Right,
20,4,1,0.3997129999997924,['n'],1,right,['e'],0,0.18160809999972116,0.2,0,0,FastFast,3,18,Woman,Right,
21,4,1,0.4321938000002774,['c'],1,left,['e'],0,0.46380839999983436,0.1,0,0,FastFast,3,18,Woman,Right,
22,4,1,0.43452049999996234,['c'],0,right,['u'],1,0.14177939999990485,0.1,0,0,FastFast,3,18,Woman,Right,
23,4,1,0.4664498000001913,['n'],1,right,['u'],1,0.13523390000045765,0.2,1,0,FastFast,3,18,Woman,Right,
24,4,1,0.31853570000021136,['n'],1,right,['e'],0,0.13486089999969408,0.4,0,0,FastFast,3,18,Woman,Right,
25,4,1,0.3186697000001004,['c'],1,left,['u'],1,0.19940260000021226,0.2,1,0,FastFast,3,18,Woman,Right,
26,4,1,0.5500976000002993,['n'],1,right,['e'],0,0.2678602999994837,0.4,0,0,FastFast,3,18,Woman,Right,
27,4,1,0.6497206000003644,['c'],0,right,['u'],1,0.1701813999998194,0.4,0,0,FastFast,3,18,Woman,Right,
28,4,1,0.3663608999995631,['c'],0,right,['u'],1,0.15140340000016295,0.1,0,0,FastFast,3,18,Woman,Right,
29,4,1,0.499994599999809,['n'],0,left,['u'],1,0.12653529999988677,0.4,0,0,FastFast,3,18,Woman,Right,
30,4,1,0.36607070000081876,['n'],0,left,['e'],0,0.14235939999980474,0.1,1,0,FastFast,3,18,Woman,Right,
31,4,1,0.6004547000002276,['c'],0,right,['u'],1,0.2260576000007859,0.1,0,0,FastFast,3,18,Woman,Right,
32,4,1,1.0005183000002944,['c'],1,left,['u'],1,0.2130352000003768,0.1,1,0,FastFast,3,18,Woman,Right,
33,4,1,1.2846608999998352,['n'],0,left,['e'],0,0.10626440000032744,0.2,1,0,FastFast,3,18,Woman,Right,
34,4,1,2.3006987999997364,['c'],1,left,['u'],1,0.3009111999999732,0.2,1,0,FastFast,3,18,Woman,Right,
35,4,1,0.41646249999939755,['c'],1,left,['u'],1,0.10010489999967831,0.2,1,0,FastFast,3,18,Woman,Right,
36,4,1,0.649540700000216,['n'],1,right,['e'],0,0.11988560000008874,0.2,0,0,FastFast,3,18,Woman,Right,
37,4,1,1.000654399999803,['c'],1,left,['u'],1,0.12458209999931569,0.2,1,0,FastFast,3,18,Woman,Right,
38,4,1,0.39964880000025005,['c'],0,right,['u'],1,0.18657460000031278,0.4,0,0,FastFast,3,18,Woman,Right,
39,4,1,0.6014242000001104,['n'],1,right,['e'],0,0.17414240000016434,0.2,0,0,FastFast,3,18,Woman,Right,
40,4,1,0.38473769999927754,['c'],0,right,['u'],1,0.16896689999975933,0.1,0,0,FastFast,3,18,Woman,Right,
41,4,1,0.3180706999992253,['n'],1,right,['u'],1,0.13592659999994794,0.4,1,0,FastFast,3,18,Woman,Right,
42,4,1,0.35171990000071673,['n'],1,right,['u'],1,0.16709739999987505,0.4,1,0,FastFast,3,18,Woman,Right,
43,4,1,0.45009420000042155,['n'],0,left,['e'],0,0.1454518000000462,0.1,1,0,FastFast,3,18,Woman,Right,
44,4,1,0.38268730000072537,['c'],0,right,['u'],1,0.14296719999947527,0.1,0,0,FastFast,3,18,Woman,Right,
45,4,1,0.3837967999998,['c'],1,left,['u'],1,0.10776590000023134,0.1,1,0,FastFast,3,18,Woman,Right,
46,4,1,0.6179779000003691,['n'],0,left,['e'],0,0.09729880000031699,0.4,1,0,FastFast,3,18,Woman,Right,
47,4,1,0.6014433000000281,['c'],1,left,['u'],1,0.21598210000047402,0.4,1,0,FastFast,3,18,Woman,Right,
48,4,1,0.5002599999997983,['n'],0,left,['e'],0,0.12588360000063403,0.2,1,0,FastFast,3,18,Woman,Right,
49,4,1,0.834584399999585,['n'],0,left,['e'],0,0.12144269999953394,0.4,1,0,FastFast,3,18,Woman,Right,
50,4,1,0.732720099999824,['c'],0,right,['e'],0,0.23488309999993362,0.2,1,0,FastFast,3,18,Woman,Right,
51,4,1,0.33336919999965176,['c'],0,right,['u'],1,0.1022635999997874,0.2,0,0,FastFast,3,18,Woman,Right,
52,4,1,0.43531350000012026,['n'],1,right,['u'],1,0.1145925000000716,0.4,1,0,FastFast,3,18,Woman,Right,
53,4,1,0.3516599000004135,['n'],0,left,['u'],1,0.11408059999939724,0.1,0,0,FastFast,3,18,Woman,Right,
54,4,1,0.2674282000007224,['c'],1,left,['u'],1,0.16485959999954503,0.2,1,0,FastFast,3,18,Woman,Right,
55,4,1,0.7511537999998836,['c'],1,left,['u'],1,0.0989662000001772,0.4,1,0,FastFast,3,18,Woman,Right,
56,4,1,0.30163590000029217,['n'],1,right,['e'],0,0.11689449999994395,0.4,0,0,FastFast,3,18,Woman,Right,
57,4,1,0.26781000000028143,['c'],1,left,['u'],1,0.12002080000002024,0.2,1,0,FastFast,3,18,Woman,Right,
58,4,1,0.3012344999997367,['n'],0,left,['u'],1,0.1532470000001922,0.4,0,0,FastFast,3,18,Woman,Right,
59,4,1,0.4012480000001233,['n'],1,right,['e'],0,0.08543009999993956,0.2,0,0,FastFast,3,18,Woman,Right,
0,5,1,1.7498685999998997,['n'],0,left,['e'],0,0.13044319999971776,0.4,1,0,AccFast,3,18,Woman,Right,
1,5,1,1.167011999999886,['n'],1,right,['e'],0,0.20886259999952017,0.1,0,0,AccFast,3,18,Woman,Right,
2,5,1,1.0181572999999844,['c'],0,right,['u'],1,0.24221680000027845,0.4,0,0,AccFast,3,18,Woman,Right,
3,5,1,0.8679934000001595,['n'],0,left,['e'],0,0.28064290000020264,0.4,1,0,AccFast,3,18,Woman,Right,
4,5,1,1.2004416999998284,['c'],0,right,['u'],1,0.4475524999998015,0.1,0,0,AccFast,3,18,Woman,Right,
5,5,1,0.3337539000003744,['n'],1,right,['e'],0,0.419020599999385,0.1,0,0,AccFast,3,18,Woman,Right,
6,5,1,2.0178103999996893,['n'],1,right,['u'],1,0.10071100000004662,0.2,1,0,AccFast,3,18,Woman,Right,
7,5,1,1.084574600000451,['n'],0,left,['e'],0,0.1985039000001052,0.1,1,0,AccFast,3,18,Woman,Right,
8,5,1,1.6844492000000173,['n'],1,right,['e'],0,0.30186589999993885,0.1,0,0,AccFast,3,18,Woman,Right,
9,5,1,2.500491300000249,['n'],0,left,['e'],0,0.43226529999992636,0.4,1,0,AccFast,3,18,Woman,Right,
10,5,1,1.233840500000042,['n'],1,right,['e'],0,0.5760886999996728,0.1,0,0,AccFast,3,18,Woman,Right,
11,5,1,0.68419460000041,['n'],0,left,['e'],0,0.38453110000045854,0.1,1,0,AccFast,3,18,Woman,Right,
12,5,1,0.36607120000007853,['c'],1,left,['u'],1,0.15014179999980115,0.2,1,0,AccFast,3,18,Woman,Right,
13,5,1,0.3497547000006307,['c'],0,right,['e'],0,0.1801487000002453,0.4,1,0,AccFast,3,18,Woman,Right,
14,5,1,0.8344551000000138,['n'],0,left,['e'],0,0.23686670000006416,0.4,1,0,AccFast,3,18,Woman,Right,
15,5,1,0.3179853000001458,['c'],0,right,['e'],0,0.1689386000007289,0.1,1,0,AccFast,3,18,Woman,Right,
16,5,1,0.517791400000533,['c'],1,left,['u'],1,0.3837770999998611,0.2,1,0,AccFast,3,18,Woman,Right,
17,5,1,0.317775000000438,['n'],0,left,['e'],0,0.2785259000002043,0.2,1,0,AccFast,3,18,Woman,Right,
18,5,1,0.6013137999998435,['n'],1,right,['u'],1,0.2769315999994433,0.4,1,0,AccFast,3,18,Woman,Right,
19,5,1,0.5006639000002906,['c'],0,right,['e'],0,0.5213342000006378,0.2,1,0,AccFast,3,18,Woman,Right,
20,5,1,1.151394800000162,['c'],1,left,['u'],1,0.2645260999997845,0.1,1,0,AccFast,3,18,Woman,Right,
21,5,1,0.583622899999682,['n'],0,left,['u'],1,0.3296829999999318,0.1,0,0,AccFast,3,18,Woman,Right,
22,5,1,0.5175551000002088,['c'],0,right,['e'],0,0.5211840000001757,0.4,1,0,AccFast,3,18,Woman,Right,
23,5,1,0.33495919999950274,['c'],1,left,['u'],1,0.5387978999997358,0.4,1,0,AccFast,3,18,Woman,Right,
24,5,1,1.1662962000000334,['n'],1,right,['u'],1,0.40862860000015644,0.2,1,0,AccFast,3,18,Woman,Right,
25,5,1,0.5822558999998364,['n'],1,right,['e'],0,0.2443173999999999,0.4,0,0,AccFast,3,18,Woman,Right,
26,5,1,0.702009900000121,['c'],1,left,['u'],1,0.36782640000001265,0.2,1,0,AccFast,3,18,Woman,Right,
27,5,1,0.418305700000019,['n'],0,left,['e'],0,0.13103920000048674,0.4,1,0,AccFast,3,18,Woman,Right,
28,5,1,0.1344136999996408,['c'],1,left,['u'],1,0.2836654999991879,0.1,1,0,AccFast,3,18,Woman,Right,
29,5,1,1.3510503000006793,['n'],1,right,['e'],0,0.7954747999992833,0.1,0,0,AccFast,3,18,Woman,Right,
30,5,1,0.3005954999998721,['c'],1,left,['u'],1,0.8338714999999866,0.2,1,0,AccFast,3,18,Woman,Right,
31,5,1,1.1844184000001405,['n'],1,right,['u'],1,0.579743000000235,0.4,1,0,AccFast,3,18,Woman,Right,
32,5,1,1.501299999999901,['c'],0,right,['e'],0,0.48274270000001707,0.2,1,0,AccFast,3,18,Woman,Right,
33,5,1,1.0507172999996328,['c'],1,left,['u'],1,0.1997731000001295,0.2,1,0,AccFast,3,18,Woman,Right,
34,5,1,0.5166509999999107,['n'],0,left,['e'],0,0.36615510000046925,0.1,1,0,AccFast,3,18,Woman,Right,
35,5,1,1.3347112999999808,['c'],0,right,['u'],1,0.39621250000072905,0.1,0,0,AccFast,3,18,Woman,Right,
36,5,1,0.3662026000001788,['n'],0,left,['u'],1,0.19268059999922116,0.4,0,0,AccFast,3,18,Woman,Right,
37,5,1,0.5495142999998279,['n'],0,left,['e'],0,0.21334659999956784,0.1,1,0,AccFast,3,18,Woman,Right,
38,5,1,0.451430099999925,['c'],1,left,['u'],1,0.9887806000006094,0.1,1,0,AccFast,3,18,Woman,Right,
39,5,1,0.7998393000007127,['n'],1,right,['e'],0,0.327166699999907,0.1,0,0,AccFast,3,18,Woman,Right,
40,5,1,0.951776200000495,['c'],0,right,['u'],1,0.1348087000005762,0.1,0,0,AccFast,3,18,Woman,Right,
41,5,1,0.534082799999851,['n'],1,right,['e'],0,0.07840020000003278,0.1,0,0,AccFast,3,18,Woman,Right,
42,5,1,0.9516078999995443,['n'],0,left,['u'],1,1.464250600000014,0.4,0,0,AccFast,3,18,Woman,Right,
43,5,1,1.4684901999999056,['n'],1,right,['u'],1,1.6046922000004997,0.4,1,0,AccFast,3,18,Woman,Right,
44,5,1,1.7673676999993404,['c'],0,right,['u'],1,0.12923640000008163,0.4,0,0,AccFast,3,18,Woman,Right,
45,5,1,1.0019742000004044,['c'],1,left,['u'],1,0.29363869999997405,0.4,1,0,AccFast,3,18,Woman,Right,
46,5,1,0.7668519999997443,['c'],0,right,['u'],1,0.09487979999994423,0.2,0,0,AccFast,3,18,Woman,Right,
47,5,1,0.5016863999999259,['n'],0,left,['e'],0,0.1689899000002697,0.2,1,0,AccFast,3,18,Woman,Right,
48,5,1,0.15162260000033712,['n'],1,right,['e'],0,0.1756161000002976,0.2,0,0,AccFast,3,18,Woman,Right,
49,5,1,0.767160800000056,['c'],0,right,['u'],1,0.21941809999952966,0.2,0,0,AccFast,3,18,Woman,Right,
50,5,1,0.5508896999999706,['n'],0,left,['u'],1,0.19100799999978335,0.2,0,0,AccFast,3,18,Woman,Right,
51,5,1,0.4510302999997293,['c'],1,left,['e'],0,0.37677140000050713,0.2,0,0,AccFast,3,18,Woman,Right,
52,5,1,0.35123790000034205,['c'],1,left,['e'],0,0.3188359000005221,0.2,0,0,AccFast,3,18,Woman,Right,
53,5,1,0.4005057000003944,['n'],1,right,['u'],1,0.16336839999985386,0.1,1,0,AccFast,3,18,Woman,Right,
54,5,1,0.7185591999996177,['n'],0,left,['e'],0,0.22617369999989023,0.2,1,0,AccFast,3,18,Woman,Right,
55,5,1,0.6352509000007558,['c'],1,left,['u'],1,1.2345455000004222,0.2,1,0,AccFast,3,18,Woman,Right,
56,5,1,0.3668280000001687,['n'],1,right,['e'],0,0.549562700000024,0.4,0,0,AccFast,3,18,Woman,Right,
57,5,1,0.1498993999994127,['n'],1,right,['e'],0,0.379880299999968,0.4,0,0,AccFast,3,18,Woman,Right,
58,5,1,1.167291199999454,['c'],1,left,['u'],1,0.35164890000032756,0.4,1,0,AccFast,3,18,Woman,Right,
59,5,1,0.7514766999993299,['n'],1,right,['e'],0,0.45423289999962435,0.2,0,0,AccFast,3,18,Woman,Right,
0,6,1,2.11746949999997,['n'],1,right,['e'],0,1.572617299999365,0.1,0,0,AccAcc,3,18,Woman,Right,
1,6,1,1.0504523999998128,['c'],0,right,['u'],1,1.42253029999938,0.4,0,0,AccAcc,3,18,Woman,Right,
2,6,1,3.5176112999997713,['c'],1,left,['e'],0,0.9079424999999901,0.4,0,0,AccAcc,3,18,Woman,Right,
3,6,1,1.1020018999997774,['n'],0,left,['e'],0,0.9103558999995585,0.2,1,0,AccAcc,3,18,Woman,Right,
4,6,1,1.0504108000004635,['c'],1,left,['u'],1,1.1872375000002648,0.2,1,0,AccAcc,3,18,Woman,Right,
5,6,1,0.6676255000002129,['n'],1,right,['u'],1,1.6760451000000103,0.2,1,0,AccAcc,3,18,Woman,Right,
6,6,1,0.9010934000007182,['n'],1,right,['e'],0,0.9031508000007307,0.1,0,0,AccAcc,3,18,Woman,Right,
7,6,1,0.8846497000004092,['c'],0,right,['e'],0,1.1069651999996495,0.4,1,0,AccAcc,3,18,Woman,Right,
8,6,1,0.8499343999992561,['c'],1,left,['e'],0,0.8548312999992049,0.4,0,0,AccAcc,3,18,Woman,Right,
9,6,1,0.4842731000007916,['n'],1,right,['u'],1,0.8679744999999457,0.1,1,0,AccAcc,3,18,Woman,Right,
10,6,1,0.5845571999998356,['c'],1,left,['u'],1,1.1162051000001156,0.2,1,0,AccAcc,3,18,Woman,Right,
11,6,1,0.7013393999995969,['n'],1,right,['e'],0,1.301792100000057,0.2,0,0,AccAcc,3,18,Woman,Right,
12,6,1,0.6680147999995825,['c'],0,right,['u'],1,0.7456750999999713,0.4,0,0,AccAcc,3,18,Woman,Right,
13,6,1,1.3846616000000722,['c'],1,left,['u'],1,1.0307034999996176,0.2,1,0,AccAcc,3,18,Woman,Right,
14,6,1,0.7015132000005906,['n'],1,right,['u'],1,0.9638653000001796,0.1,1,0,AccAcc,3,18,Woman,Right,
15,6,1,0.2513079000000289,['c'],0,right,['e'],0,0.6774682999994184,0.4,1,0,AccAcc,3,18,Woman,Right,
16,6,1,0.9007697999995798,['n'],0,left,['u'],1,0.7292176999999356,0.2,0,0,AccAcc,3,18,Woman,Right,
17,6,1,0.8510107999991305,['n'],1,right,['u'],1,0.30140320000009524,0.2,1,0,AccAcc,3,18,Woman,Right,
18,6,1,0.3001704000007521,['c'],1,left,['u'],1,0.35897560000012163,0.4,1,0,AccAcc,3,18,Woman,Right,
19,6,1,0.3346425999998246,['c'],1,left,['e'],0,0.8135744000001068,0.4,0,0,AccAcc,3,18,Woman,Right,
20,6,1,0.6847325999997338,['c'],1,left,['e'],0,0.21241430000009132,0.2,0,0,AccAcc,3,18,Woman,Right,
21,6,1,1.2998121999999057,['n'],0,left,['u'],1,0.2183591000002707,0.2,0,0,AccAcc,3,18,Woman,Right,
22,6,1,0.2840509999996357,['c'],1,left,['e'],0,2.840556399999514,0.4,0,0,AccAcc,3,18,Woman,Right,
23,6,1,0.4514890000000378,['n'],1,right,['u'],1,0.2792429999999513,0.1,1,0,AccAcc,3,18,Woman,Right,
24,6,1,0.5846553000001222,['c'],0,right,['e'],0,0.9828079999997499,0.4,1,0,AccAcc,3,18,Woman,Right,
25,6,1,0.8339899000002333,['c'],0,right,['e'],0,2.1608909999995376,0.2,1,0,AccAcc,3,18,Woman,Right,
26,6,1,1.384678399999757,['n'],0,left,['u'],1,0.3582560000004378,0.1,0,0,AccAcc,3,18,Woman,Right,
27,6,1,1.250162199999977,['n'],0,left,['e'],0,0.4883712999999261,0.1,1,0,AccAcc,3,18,Woman,Right,
28,6,1,1.1512007999999696,['n'],1,right,['u'],1,0.9213026000006721,0.4,1,0,AccAcc,3,18,Woman,Right,
29,6,1,1.0513013999998293,['n'],0,left,['u'],1,0.17352609999943525,0.1,0,0,AccAcc,3,18,Woman,Right,
30,6,1,0.7348141000002215,['n'],1,right,['u'],1,0.18740939999952388,0.2,1,0,AccAcc,3,18,Woman,Right,
31,6,1,1.0346882999992886,['n'],1,right,['u'],1,0.3971499999997832,0.1,1,0,AccAcc,3,18,Woman,Right,
32,6,1,2.3179509000001417,['n'],0,left,['u'],1,0.25892560000011144,0.2,0,0,AccAcc,3,18,Woman,Right,
33,6,1,2.049848800000291,['n'],1,right,['u'],1,0.15413690000059432,0.4,1,0,AccAcc,3,18,Woman,Right,
34,6,1,0.9006703000004563,['n'],0,left,['u'],1,0.14625160000014148,0.1,0,0,AccAcc,3,18,Woman,Right,
35,6,1,0.9164349000002403,['c'],0,right,['e'],0,1.0980459000002156,0.1,1,0,AccAcc,3,18,Woman,Right,
36,6,1,0.5511531000001924,['c'],1,left,['u'],1,0.25002200000017183,0.4,1,0,AccAcc,3,18,Woman,Right,
37,6,1,2.000950699999521,['n'],1,right,['e'],0,0.17883179999989807,0.2,0,0,AccAcc,3,18,Woman,Right,
38,6,1,2.533928200000446,['n'],1,right,['u'],1,0.13613140000052226,0.1,1,0,AccAcc,3,18,Woman,Right,
39,6,1,0.584703499999705,['n'],1,right,['e'],0,0.14176750000024185,0.2,0,0,AccAcc,3,18,Woman,Right,
40,6,1,0.8177773999996134,['c'],0,right,['u'],1,0.33021649999955116,0.4,0,0,AccAcc,3,18,Woman,Right,
41,6,1,0.45142680000026303,['n'],0,left,['e'],0,0.12553370000023278,0.1,1,0,AccAcc,3,18,Woman,Right,
42,6,1,0.317961099999593,['c'],0,right,['e'],0,0.3180210000000443,0.2,1,0,AccAcc,3,18,Woman,Right,
43,6,1,0.7510617999996612,['c'],1,left,['e'],0,0.14973770000051445,0.1,0,0,AccAcc,3,18,Woman,Right,
44,6,1,2.0167185000000245,['n'],1,right,['u'],1,2.3056130000004487,0.4,1,0,AccAcc,3,18,Woman,Right,
45,6,1,0.4344817000001058,['c'],0,right,['e'],0,1.2710241000004316,0.2,1,0,AccAcc,3,18,Woman,Right,
46,6,1,0.6845880000000761,['n'],0,left,['e'],0,1.30746309999995,0.1,1,0,AccAcc,3,18,Woman,Right,
47,6,1,0.5678545000000668,['c'],0,right,['e'],0,1.155120600000373,0.2,1,0,AccAcc,3,18,Woman,Right,
48,6,1,0.30134480000015174,['c'],1,left,['u'],1,0.4441760999998223,0.2,1,0,AccAcc,3,18,Woman,Right,
49,6,1,0.41629139999986364,['n'],0,left,['e'],0,0.38122850000036124,0.4,1,0,AccAcc,3,18,Woman,Right,
50,6,1,0.9180904000004375,['c'],1,left,['u'],1,0.3139750999998796,0.4,1,0,AccAcc,3,18,Woman,Right,
51,6,1,0.9175871999996161,['n'],1,right,['e'],0,0.4590220000000045,0.4,0,0,AccAcc,3,18,Woman,Right,
52,6,1,0.7688796000002185,['c'],0,right,['u'],1,1.3247643000004246,0.2,0,0,AccAcc,3,18,Woman,Right,
53,6,1,1.4005857000001924,['n'],1,right,['e'],0,0.6427442999993218,0.1,0,0,AccAcc,3,18,Woman,Right,
54,6,1,0.4168445999994219,['n'],0,left,['e'],0,0.9876501999997345,0.1,1,0,AccAcc,3,18,Woman,Right,
55,6,1,0.7995243999994273,['c'],1,left,['e'],0,0.3106134999998176,0.1,0,0,AccAcc,3,18,Woman,Right,
56,6,1,1.3011585000003834,['n'],0,left,['u'],1,0.23250680000001012,0.4,0,0,AccAcc,3,18,Woman,Right,
57,6,1,0.3676832999999533,['n'],0,left,['e'],0,0.19555049999962648,0.1,1,0,AccAcc,3,18,Woman,Right,
58,6,1,0.38485900000068796,['c'],1,left,['u'],1,0.19064060000073368,0.1,1,0,AccAcc,3,18,Woman,Right,
59,6,1,1.8682762999997067,['n'],0,left,['e'],0,0.19064940000043862,0.4,1,0,AccAcc,3,18,Woman,Right,
0,7,1,0.49972150000030524,['n'],0,left,['e'],0,0.9960441000002902,0.1,1,0,FastAcc,3,18,Woman,Right,
1,7,1,0.8334060000006502,['c'],1,left,['e'],0,0.18877640000027895,0.4,0,0,FastAcc,3,18,Woman,Right,
2,7,1,0.5670227000000523,['n'],1,right,['u'],1,0.24055550000048243,0.4,1,0,FastAcc,3,18,Woman,Right,
3,7,1,0.36753159999989293,['n'],1,right,['e'],0,0.1721311000001151,0.2,0,0,FastAcc,3,18,Woman,Right,
4,7,1,0.3512449999998353,['n'],0,left,['e'],0,0.13648769999963406,0.1,1,0,FastAcc,3,18,Woman,Right,
5,7,1,0.48398619999989023,['c'],1,left,['u'],1,0.19474879999961558,0.1,1,0,FastAcc,3,18,Woman,Right,
6,7,1,0.517280899999605,['n'],1,right,['e'],0,0.7122982999999294,0.4,0,0,FastAcc,3,18,Woman,Right,
7,7,1,0.3986547000004066,['n'],1,right,['u'],1,0.19128470000032394,0.4,1,0,FastAcc,3,18,Woman,Right,
8,7,1,1.149856699999873,['n'],1,right,['e'],0,0.18694630000027246,0.1,0,0,FastAcc,3,18,Woman,Right,
9,7,1,0.3175432999996701,['n'],0,left,['e'],0,0.15477050000026793,0.1,1,0,FastAcc,3,18,Woman,Right,
10,7,1,0.684990700000526,['n'],0,left,['u'],1,0.31416989999979705,0.1,0,0,FastAcc,3,18,Woman,Right,
11,7,1,0.7517299999999523,['n'],0,left,['e'],0,0.2912631999997757,0.2,1,0,FastAcc,3,18,Woman,Right,
12,7,1,0.9833988000000318,['c'],1,left,['u'],1,0.37097410000023956,0.1,1,0,FastAcc,3,18,Woman,Right,
13,7,1,0.41867219999949157,['c'],0,right,['u'],1,0.45298490000004676,0.4,0,0,FastAcc,3,18,Woman,Right,
14,7,1,1.0006874999999127,['c'],1,left,['e'],0,0.3494811000000482,0.2,0,0,FastAcc,3,18,Woman,Right,
15,7,1,0.7832654000003458,['c'],1,left,['u'],1,0.2594693000000916,0.1,1,0,FastAcc,3,18,Woman,Right,
16,7,1,3.6166118999999526,['n'],1,right,['e'],0,0.12209200000052078,0.1,0,0,FastAcc,3,18,Woman,Right,
17,7,1,0.45025669999995444,['n'],1,right,['e'],0,0.13514450000002398,0.4,0,0,FastAcc,3,18,Woman,Right,
18,7,1,0.5318009000002348,['c'],0,right,['u'],1,1.4865555999995195,0.1,0,0,FastAcc,3,18,Woman,Right,
19,7,1,0.3680759999997463,['n'],1,right,['e'],0,0.9183724000004077,0.1,0,0,FastAcc,3,18,Woman,Right,
20,7,1,0.9843957000002774,['n'],1,right,['e'],0,0.652333500000168,0.2,0,0,FastAcc,3,18,Woman,Right,
21,7,1,0.9160132999995767,['c'],1,left,['e'],0,0.44910040000013396,0.1,0,0,FastAcc,3,18,Woman,Right,
22,7,1,0.6183946000001015,['n'],0,left,['u'],1,0.7595638000002509,0.2,0,0,FastAcc,3,18,Woman,Right,
23,7,1,0.5999394999998913,['n'],1,right,['u'],1,0.24388739999994868,0.2,1,0,FastAcc,3,18,Woman,Right,
24,7,1,0.4187875999996322,['c'],0,right,['u'],1,0.2360724999998638,0.2,0,0,FastAcc,3,18,Woman,Right,
25,7,1,0.3678600000002916,['n'],1,right,['e'],0,0.18237700000008772,0.1,0,0,FastAcc,3,18,Woman,Right,
26,7,1,0.8999991999999111,['n'],0,left,['u'],1,1.325548699999672,0.4,0,0,FastAcc,3,18,Woman,Right,
27,7,1,1.6498375000001033,['c'],1,left,['e'],0,0.9866285000007338,0.4,0,0,FastAcc,3,18,Woman,Right,
28,7,1,0.16736589999982243,['n'],1,right,['e'],0,1.374166000000514,0.2,0,0,FastAcc,3,18,Woman,Right,
29,7,1,0.551795200000015,['n'],1,right,['e'],0,0.8356588999995438,0.4,0,0,FastAcc,3,18,Woman,Right,
30,7,1,0.3493466999998418,['c'],1,left,['e'],0,0.24771590000000288,0.4,0,0,FastAcc,3,18,Woman,Right,
31,7,1,0.33393919999980426,['n'],1,right,['e'],0,0.1613059000001158,0.4,0,0,FastAcc,3,18,Woman,Right,
32,7,1,0.40063999999983935,['n'],1,right,['u'],1,0.1591419999995196,0.2,1,0,FastAcc,3,18,Woman,Right,
33,7,1,0.40180229999987205,['n'],0,left,['e'],0,0.20172879999972793,0.2,1,0,FastAcc,3,18,Woman,Right,
34,7,1,0.35063569999965694,['n'],1,right,['e'],0,0.1358224000005066,0.2,0,0,FastAcc,3,18,Woman,Right,
35,7,1,0.4172688000007838,['c'],0,right,['u'],1,0.11578499999995984,0.2,0,0,FastAcc,3,18,Woman,Right,
36,7,1,0.6005481000001964,['c'],1,left,['e'],0,0.1361416999998255,0.4,0,0,FastAcc,3,18,Woman,Right,
37,7,1,0.4342276999996102,['n'],1,right,['u'],1,0.05321269999967626,0.1,1,0,FastAcc,3,18,Woman,Right,
38,7,1,0.3844006999997873,['c'],0,right,['u'],1,0.9165904000001319,0.2,0,0,FastAcc,3,18,Woman,Right,
39,7,1,0.9009667000000263,['n'],0,left,['u'],1,0.14242730000023585,0.1,0,0,FastAcc,3,18,Woman,Right,
40,7,1,0.6839319999999134,['n'],0,left,['e'],0,0.368663899999774,0.4,1,0,FastAcc,3,18,Woman,Right,
41,7,1,0.36818680000033055,['c'],0,right,['e'],0,0.5647146000001158,0.1,1,0,FastAcc,3,18,Woman,Right,
42,7,1,0.3346542999997837,['n'],0,left,['e'],0,0.4351886000004015,0.1,1,0,FastAcc,3,18,Woman,Right,
43,7,1,0.467939899999692,['c'],0,right,['u'],1,0.33741139999983716,0.1,0,0,FastAcc,3,18,Woman,Right,
44,7,1,0.6006708999993862,['c'],0,right,['e'],0,0.30311429999983375,0.4,1,0,FastAcc,3,18,Woman,Right,
45,7,1,0.6013709999997445,['n'],0,left,['u'],1,20.89299949999986,0.4,0,0,FastAcc,3,18,Woman,Right,
46,7,1,1.267688800000542,['n'],0,left,['e'],0,0.45919169999979204,0.1,1,0,FastAcc,3,18,Woman,Right,
47,7,1,0.46783640000012383,['c'],1,left,['u'],1,0.28079559999969206,0.2,1,0,FastAcc,3,18,Woman,Right,
48,7,1,0.3345362000000023,['n'],0,left,['e'],0,0.14662789999965753,0.4,1,0,FastAcc,3,18,Woman,Right,
49,7,1,0.6666277999993326,['c'],0,right,['u'],1,0.16447400000015477,0.4,0,0,FastAcc,3,18,Woman,Right,
50,7,1,0.3505835999994815,['n'],0,left,['e'],0,0.3695861000005607,0.2,1,0,FastAcc,3,18,Woman,Right,
51,7,1,0.45130000000062864,['c'],1,left,['e'],0,0.40311119999933,0.2,0,0,FastAcc,3,18,Woman,Right,
52,7,1,0.3178639999996449,['c'],1,left,['u'],1,0.1530311000005895,0.4,1,0,FastAcc,3,18,Woman,Right,
53,7,1,0.4845655999997689,['n'],1,right,['e'],0,0.12970360000053915,0.2,0,0,FastAcc,3,18,Woman,Right,
54,7,1,0.38442810000015015,['c'],0,right,['u'],1,0.17544619999989663,0.2,0,0,FastAcc,3,18,Woman,Right,
55,7,1,0.13499209999918094,['n'],0,left,['u'],1,0.24561139999968873,0.2,0,0,FastAcc,3,18,Woman,Right,
56,7,1,0.25086669999927835,['n'],0,left,['e'],0,0.14798599999994622,0.4,1,0,FastAcc,3,18,Woman,Right,
57,7,1,0.750583000000006,['c'],0,right,['u'],1,0.16217980000055832,0.2,0,0,FastAcc,3,18,Woman,Right,
58,7,1,0.2847291000007317,['n'],1,right,['e'],0,0.2423188000002483,0.4,0,0,FastAcc,3,18,Woman,Right,
59,7,1,0.3347199999998338,['c'],1,left,['u'],1,0.25427720000061527,0.1,1,0,FastAcc,3,18,Woman,Right,
0,8,1,0.6510748000000603,['n'],0,left,['e'],0,0.06918300000052113,0.4,1,0,FastFast,3,18,Woman,Right,
1,8,1,0.3012564000000566,['c'],0,right,['u'],1,0.08835259999978007,0.4,0,0,FastFast,3,18,Woman,Right,
2,8,1,0.33389140000053885,['n'],0,left,['e'],0,0.08989930000007007,0.4,1,0,FastFast,3,18,Woman,Right,
3,8,1,0.2506647999998677,['n'],0,left,['e'],0,0.07891719999952329,0.2,1,0,FastFast,3,18,Woman,Right,
4,8,1,0.5681234000003315,['c'],0,right,['u'],1,0.08699350000006234,0.4,0,0,FastFast,3,18,Woman,Right,
5,8,1,0.3855163000007451,['n'],1,right,['e'],0,0.10276809999959369,0.1,0,0,FastFast,3,18,Woman,Right,
6,8,1,0.08488929999930406,['c'],1,left,['e'],0,0.12953980000020238,0.4,0,0,FastFast,3,18,Woman,Right,
7,8,1,0.33471989999998186,['c'],0,right,['u'],1,0.09711179999976594,0.2,0,0,FastFast,3,18,Woman,Right,
8,8,1,0.2514492000000246,['n'],1,right,['e'],0,0.06945539999924222,0.4,0,0,FastFast,3,18,Woman,Right,
9,8,1,0.3012221999997564,['c'],1,left,['e'],0,0.12193489999935991,0.4,0,0,FastFast,3,18,Woman,Right,
10,8,1,0.3679463999997097,['n'],1,right,['u'],1,0.0558138999995208,0.1,1,0,FastFast,3,18,Woman,Right,
11,8,1,0.4172094000005018,['n'],1,right,['e'],0,0.08758699999998498,0.1,0,0,FastFast,3,18,Woman,Right,
12,8,1,0.35049139999955514,['n'],1,right,['e'],0,0.0725204999998823,0.1,0,0,FastFast,3,18,Woman,Right,
13,8,1,0.23397270000077697,['c'],1,left,['u'],1,0.09503660000063974,0.2,1,0,FastFast,3,18,Woman,Right,
14,8,1,0.2684041000002253,['n'],1,right,['e'],0,0.13021939999998722,0.4,0,0,FastFast,3,18,Woman,Right,
15,8,1,0.45172050000019226,['n'],0,left,['e'],0,0.09336640000037733,0.1,1,0,FastFast,3,18,Woman,Right,
16,8,1,0.18504240000038408,['n'],1,right,['e'],0,0.1806936000002679,0.4,0,0,FastFast,3,18,Woman,Right,
17,8,1,0.36820669999997335,['c'],1,left,['u'],1,0.09725969999999506,0.2,1,0,FastFast,3,18,Woman,Right,
18,8,1,0.684925800000201,['c'],0,right,['e'],0,0.13289009999971313,0.1,1,0,FastFast,3,18,Woman,Right,
19,8,1,0.3680825999999797,['n'],0,left,['e'],0,0.09825259999979608,0.2,1,0,FastFast,3,18,Woman,Right,
20,8,1,0.2514092999999775,['n'],0,left,['e'],0,0.11834220000037021,0.2,1,0,FastFast,3,18,Woman,Right,
21,8,1,1.101298399999905,['n'],0,left,['u'],1,0.02429019999999582,0.1,0,0,FastFast,3,18,Woman,Right,
22,8,1,0.23237410000001546,['n'],0,left,['e'],0,0.08129509999980655,0.2,1,0,FastFast,3,18,Woman,Right,
23,8,1,0.06827450000037061,['c'],0,right,['e'],0,0.1404646999999386,0.1,1,0,FastFast,3,18,Woman,Right,
24,8,1,0.3519360999998753,['n'],0,left,['u'],1,0.10775079999984882,0.4,0,0,FastFast,3,18,Woman,Right,
25,8,1,0.3514411999994991,['c'],0,right,['u'],1,0.15587669999968057,0.1,0,0,FastFast,3,18,Woman,Right,
26,8,1,0.2680299000003288,['n'],1,right,['e'],0,0.12561579999965033,0.4,0,0,FastFast,3,18,Woman,Right,
27,8,1,0.5506353000000672,['c'],0,right,['u'],1,0.14946799999961513,0.4,0,0,FastFast,3,18,Woman,Right,
28,8,1,0.6848288999999568,['n'],0,left,['e'],0,0.13381739999931597,0.1,1,0,FastFast,3,18,Woman,Right,
29,8,1,0.26676360000055865,['n'],0,left,['e'],0,0.10500819999924715,0.2,1,0,FastFast,3,18,Woman,Right,
30,8,1,0.5014495000004899,['c'],1,left,['u'],1,0.11426699999992707,0.2,1,0,FastFast,3,18,Woman,Right,
31,8,1,0.30146180000065215,['n'],1,right,['u'],1,0.1960516999997708,0.4,1,0,FastFast,3,18,Woman,Right,
32,8,1,0.6680437999993956,['n'],1,right,['e'],0,0.09966569999960484,0.4,0,0,FastFast,3,18,Woman,Right,
33,8,1,0.4184456000002683,['n'],0,left,['e'],0,0.09724019999976008,0.4,1,0,FastFast,3,18,Woman,Right,
34,8,1,0.8671435999995083,['c'],0,right,['u'],1,0.09368290000020352,0.2,0,0,FastFast,3,18,Woman,Right,
35,8,1,0.9843481999996584,['n'],0,left,['e'],0,0.06860069999947882,0.2,1,0,FastFast,3,18,Woman,Right,
36,8,1,0.2684387000008428,['c'],1,left,['u'],1,0.08974350000062259,0.1,1,0,FastFast,3,18,Woman,Right,
37,8,1,0.26716080000005604,['n'],1,right,['u'],1,0.07853309999973135,0.2,1,0,FastFast,3,18,Woman,Right,
38,8,1,0.05054980000022624,['n'],0,left,['e'],0,0.15624399999978777,0.2,1,0,FastFast,3,18,Woman,Right,
39,8,1,0.31768580000061775,['c'],0,right,['u'],1,0.10752719999982219,0.1,0,0,FastFast,3,18,Woman,Right,
40,8,1,0.3186104999995223,['n'],1,right,['e'],0,0.10847779999949125,0.1,0,0,FastFast,3,18,Woman,Right,
41,8,1,0.28404909999972006,['c'],1,left,['u'],1,0.14351259999966715,0.1,1,0,FastFast,3,18,Woman,Right,
42,8,1,0.5015508000005866,['n'],0,left,['e'],0,0.15350129999933415,0.4,1,0,FastFast,3,18,Woman,Right,
43,8,1,1.2513748000001215,['n'],1,right,['e'],0,0.06678370000008726,0.2,0,0,FastFast,3,18,Woman,Right,
44,8,1,0.3178836000006413,['n'],1,right,['u'],1,0.03754879999996774,0.2,1,0,FastFast,3,18,Woman,Right,
45,8,1,0.36804380000012316,['n'],1,right,['e'],0,0.08806189999995695,0.1,0,0,FastFast,3,18,Woman,Right,
46,8,1,0.267801199999667,['c'],0,right,['e'],0,0.1720895999997083,0.2,1,0,FastFast,3,18,Woman,Right,
47,8,1,0.33466320000025007,['c'],0,right,['e'],0,0.02646770000046672,0.1,1,0,FastFast,3,18,Woman,Right,
48,8,1,0.6837107000001197,['c'],1,left,['e'],0,0.06476930000007997,0.4,0,0,FastFast,3,18,Woman,Right,
49,8,1,0.5174744000005376,['n'],1,right,['e'],0,0.10760080000000016,0.4,0,0,FastFast,3,18,Woman,Right,
50,8,1,0.3349340000004304,['n'],0,left,['e'],0,0.10856580000017857,0.1,1,0,FastFast,3,18,Woman,Right,
51,8,1,0.45061249999980646,['c'],1,left,['e'],0,0.10573339999973541,0.2,0,0,FastFast,3,18,Woman,Right,
52,8,1,0.3015384999998787,['n'],0,left,['e'],0,0.12306090000038239,0.2,1,0,FastFast,3,18,Woman,Right,
53,8,1,0.534626699999535,['c'],0,right,['u'],1,0.16377529999954277,0.1,0,0,FastFast,3,18,Woman,Right,
54,8,1,0.5510064000000057,['n'],0,left,['e'],0,0.13666030000058527,0.4,1,0,FastFast,3,18,Woman,Right,
55,8,1,0.26677029999973456,['c'],1,left,['u'],1,0.07649819999915053,0.2,1,0,FastFast,3,18,Woman,Right,
56,8,1,0.5348523999991812,['n'],1,right,['u'],1,0.14949559999968187,0.1,1,0,FastFast,3,18,Woman,Right,
57,8,1,1.6013530000000173,['c'],1,left,['e'],0,0.16178149999996094,0.1,0,0,FastFast,3,18,Woman,Right,
58,8,1,0.717902100000174,['c'],0,right,['u'],1,0.112963800000216,0.4,0,0,FastFast,3,18,Woman,Right,
59,8,1,0.28342369999973016,['n'],0,left,['e'],0,0.09987569999975676,0.2,1,0,FastFast,3,18,Woman,Right,
0,9,1,0.7341118000003917,['n'],1,right,['u'],1,0.10339849999945727,0.4,1,0,AccFast,3,18,Woman,Right,
1,9,1,0.8847811000005095,['c'],0,right,['e'],0,0.08211059999939607,0.4,1,0,AccFast,3,18,Woman,Right,
2,9,1,0.8170147000000725,['c'],0,right,['e'],0,0.16118400000050315,0.1,1,0,AccFast,3,18,Woman,Right,
3,9,1,0.41799189999983355,['c'],0,right,['u'],1,0.07607120000011491,0.4,0,0,AccFast,3,18,Woman,Right,
4,9,1,0.7175933000007717,['n'],0,left,['u'],1,0.09496730000046227,0.1,0,0,AccFast,3,18,Woman,Right,
5,9,1,0.5163312000004225,['n'],1,right,"['u', 'e']",1,0.1697266999999556,0.2,1,0,AccFast,3,18,Woman,Right,
6,9,1,0.5343014999998559,['n'],0,left,['e'],0,0.1269337000003361,0.2,1,0,AccFast,3,18,Woman,Right,
7,9,1,0.3512281000002986,['c'],1,left,['u'],1,0.11077320000003965,0.2,1,0,AccFast,3,18,Woman,Right,
8,9,1,0.2836283000006006,['n'],0,left,['u'],1,0.09797419999995327,0.1,0,0,AccFast,3,18,Woman,Right,
9,9,1,1.0180588999992324,['n'],0,left,['u'],1,0.08703140000034182,0.4,0,0,AccFast,3,18,Woman,Right,
10,9,1,0.8676680999997188,['c'],1,left,['e'],0,0.22729289999915636,0.4,0,0,AccFast,3,18,Woman,Right,
11,9,1,0.8685264000005191,['n'],1,right,['u'],1,0.12222400000064226,0.4,1,0,AccFast,3,18,Woman,Right,
12,9,1,0.4677825999997367,['c'],0,right,['u'],1,0.13368370000080176,0.4,0,0,AccFast,3,18,Woman,Right,
13,9,1,0.8999405000004117,['c'],1,left,['u'],1,0.12700500000028114,0.2,1,0,AccFast,3,18,Woman,Right,
14,9,1,0.9679096999998364,['c'],0,right,['u'],1,0.1334470000001602,0.1,0,0,AccFast,3,18,Woman,Right,
15,9,1,1.867935000000216,['n'],1,right,['e'],0,0.10377299999981915,0.1,0,0,AccFast,3,18,Woman,Right,
16,9,1,0.4511136000000988,['c'],1,left,['u'],1,0.13207790000069508,0.2,1,0,AccFast,3,18,Woman,Right,
17,9,1,1.5511851999999635,['n'],1,right,['e'],0,0.06738419999965117,0.1,0,0,AccFast,3,18,Woman,Right,
18,9,1,0.33451289999993605,['c'],1,left,['u'],1,0.11758150000059686,0.2,1,0,AccFast,3,18,Woman,Right,
19,9,1,1.051295399999617,['n'],1,right,['e'],0,0.1371889000001829,0.4,0,0,AccFast,3,18,Woman,Right,
20,9,1,0.33327210000061314,['c'],1,left,['e'],0,0.13741879999997764,0.2,0,0,AccFast,3,18,Woman,Right,
21,9,1,0.36678850000043894,['c'],1,left,['u'],1,0.1517215000003489,0.2,1,0,AccFast,3,18,Woman,Right,
22,9,1,0.6338693999996394,['n'],0,left,['e'],0,0.15382559999943624,0.1,1,0,AccFast,3,18,Woman,Right,
23,9,1,0.3013747000004514,['c'],0,right,['u'],1,0.6341327999998612,0.2,0,0,AccFast,3,18,Woman,Right,
24,9,1,0.817909200000031,['n'],1,right,['e'],0,0.19447869999930845,0.2,0,0,AccFast,3,18,Woman,Right,
25,9,1,0.8348489999998492,['c'],0,right,['u'],1,0.06000390000008338,0.1,0,0,AccFast,3,18,Woman,Right,
26,9,1,0.38474649999989197,['n'],1,right,['e'],0,0.18936690000009548,0.4,0,0,AccFast,3,18,Woman,Right,
27,9,1,0.45147889999952895,['c'],0,right,['e'],0,0.6939774000002217,0.2,1,0,AccFast,3,18,Woman,Right,
28,9,1,0.8347459000005983,['c'],1,left,['e'],0,0.1565055000000939,0.4,0,0,AccFast,3,18,Woman,Right,
29,9,1,0.6170408000007228,['n'],0,left,['e'],0,0.06342589999985648,0.2,1,0,AccFast,3,18,Woman,Right,
30,9,1,0.7514001999998072,['c'],0,right,['u'],1,0.08136490000015328,0.1,0,0,AccFast,3,18,Woman,Right,
31,9,1,0.36801999999988766,['n'],0,left,['e'],0,0.12922140000046056,0.1,1,0,AccFast,3,18,Woman,Right,
32,9,1,0.3171775000000707,['n'],1,right,['e'],0,0.09749499999998079,0.2,0,0,AccFast,3,18,Woman,Right,
33,9,1,0.43407569999999396,['c'],1,left,['u'],1,0.07847639999999956,0.1,1,0,AccFast,3,18,Woman,Right,
34,9,1,0.6002140000000509,['c'],0,right,['u'],1,0.10220320000007632,0.4,0,0,AccFast,3,18,Woman,Right,
35,9,1,1.100244900000689,['n'],0,left,['e'],0,1.1925766000003932,0.4,1,0,AccFast,3,18,Woman,Right,
36,9,1,1.8506174999993164,['n'],0,left,['e'],0,0.3849512999995568,0.4,1,0,AccFast,3,18,Woman,Right,
37,9,1,0.6174430999999458,['c'],1,left,['u'],1,0.18720410000059928,0.4,1,0,AccFast,3,18,Woman,Right,
38,9,1,0.5017216000005646,['c'],0,right,['u'],1,0.5781767999997101,0.1,0,0,AccFast,3,18,Woman,Right,
39,9,1,0.5683047999991686,['n'],0,left,['e'],0,0.18257440000070346,0.1,1,0,AccFast,3,18,Woman,Right,
40,9,1,0.38482480000038777,['c'],0,right,['e'],0,0.19452850000016042,0.2,1,0,AccFast,3,18,Woman,Right,
41,9,1,0.8342953999999736,['n'],0,left,['e'],0,0.20439430000078573,0.1,1,0,AccFast,3,18,Woman,Right,
42,9,1,0.4838897999998153,['c'],1,left,['u'],1,0.4030462000000625,0.2,1,0,AccFast,3,18,Woman,Right,
43,9,1,0.30172459999994317,['n'],1,right,['e'],0,0.13727990000006685,0.4,0,0,AccFast,3,18,Woman,Right,
44,9,1,0.13414449999982025,['n'],0,left,['e'],0,0.19259479999982432,0.2,1,0,AccFast,3,18,Woman,Right,
45,9,1,0.33396210000046267,['n'],0,left,['e'],0,0.1103744000001825,0.4,1,0,AccFast,3,18,Woman,Right,
46,9,1,0.3332417000001442,['c'],0,right,['u'],1,0.15929630000027828,0.2,0,0,AccFast,3,18,Woman,Right,
47,9,1,0.31809549999979936,['n'],1,right,['e'],0,0.23876470000050176,0.1,0,0,AccFast,3,18,Woman,Right,
48,9,1,0.4847499000006792,['n'],0,left,['e'],0,1.0764158000001771,0.4,1,0,AccFast,3,18,Woman,Right,
49,9,1,0.6838351999995211,['c'],1,left,['e'],0,0.6407801999994263,0.2,0,0,AccFast,3,18,Woman,Right,
50,9,1,0.499726400000327,['n'],0,left,['e'],0,0.1182423000000199,0.2,1,0,AccFast,3,18,Woman,Right,
51,9,1,0.6687878000002456,['n'],1,right,['u'],1,1.1768245000002935,0.1,1,0,AccFast,3,18,Woman,Right,
52,9,1,0.7848056000002543,['n'],1,right,['e'],0,0.12519690000044648,0.4,0,0,AccFast,3,18,Woman,Right,
53,9,1,0.5182055000004766,['c'],0,right,['u'],1,0.07017820000055508,0.4,0,0,AccFast,3,18,Woman,Right,
54,9,1,0.4179621000002953,['n'],1,right,['e'],0,0.11717870000029507,0.1,0,0,AccFast,3,18,Woman,Right,
55,9,1,0.4507198999999673,['n'],0,left,['e'],0,0.11277489999974932,0.1,1,0,AccFast,3,18,Woman,Right,
56,9,1,0.7345001000003322,['c'],1,left,['u'],1,0.3211263000002873,0.1,1,0,AccFast,3,18,Woman,Right,
57,9,1,0.35124090000044816,['n'],1,right,['e'],0,0.28051789999972243,0.4,0,0,AccFast,3,18,Woman,Right,
58,9,1,0.5675578999998834,['n'],1,right,['e'],0,0.16896560000077443,0.1,0,0,AccFast,3,18,Woman,Right,
59,9,1,0.2848078999995778,['c'],1,left,['u'],1,0.13789550000001327,0.2,1,0,AccFast,3,18,Woman,Right,
0,10,1,1.6510155999994822,['n'],1,right,['e'],0,0.8972831999999471,0.1,0,0,AccAcc,3,18,Woman,Right,
1,10,1,0.3842664000003424,['c'],0,right,['u'],1,0.8009335000006104,0.1,0,0,AccAcc,3,18,Woman,Right,
2,10,1,0.33443650000026537,['c'],0,right,['u'],1,0.4055034999992131,0.1,0,0,AccAcc,3,18,Woman,Right,
3,10,1,0.618695299999672,['n'],0,left,['e'],0,0.27083049999964715,0.2,1,0,AccAcc,3,18,Woman,Right,
4,10,1,0.38520100000005186,['c'],0,right,['u'],1,0.5671308000000863,0.4,0,0,AccAcc,3,18,Woman,Right,
5,10,1,0.26806240000041726,['n'],0,left,['u'],1,0.3121489000004658,0.4,0,0,AccAcc,3,18,Woman,Right,
6,10,1,0.3512568000005558,['n'],1,right,['e'],0,0.09655850000035571,0.4,0,0,AccAcc,3,18,Woman,Right,
7,10,1,0.3339882000000216,['c'],0,right,['e'],0,0.14481869999963237,0.1,1,0,AccAcc,3,18,Woman,Right,
8,10,1,0.3507019999997283,['n'],0,left,['u'],1,0.17562790000010864,0.4,0,0,AccAcc,3,18,Woman,Right,
9,10,1,0.33280960000047344,['n'],1,right,['e'],0,0.1746394000001601,0.4,0,0,AccAcc,3,18,Woman,Right,
10,10,1,0.3011984000004304,['c'],1,left,['u'],1,0.25345130000005156,0.1,1,0,AccAcc,3,18,Woman,Right,
11,10,1,0.3845832999995764,['n'],1,right,['e'],0,0.47043089999988297,0.1,0,0,AccAcc,3,18,Woman,Right,
12,10,1,0.1339299999999639,['n'],0,left,['e'],0,0.19280090000029304,0.4,1,0,AccAcc,3,18,Woman,Right,
13,10,1,0.5179055999997217,['c'],1,left,['e'],0,0.23107030000028317,0.4,0,0,AccAcc,3,18,Woman,Right,
14,10,1,0.2849730999996609,['n'],1,right,['e'],0,0.1486893000001146,0.2,0,0,AccAcc,3,18,Woman,Right,
15,10,1,0.3178533000000243,['c'],1,left,['u'],1,0.19627560000026278,0.2,1,0,AccAcc,3,18,Woman,Right,
16,10,1,0.2514625999992859,['c'],0,right,['e'],0,0.2924466000004031,0.1,1,0,AccAcc,3,18,Woman,Right,
17,10,1,0.20168120000016643,['n'],1,right,['e'],0,0.17930950000027224,0.4,0,0,AccAcc,3,18,Woman,Right,
18,10,1,0.28475929999967775,['n'],0,left,['u'],1,0.17896589999963908,0.2,0,0,AccAcc,3,18,Woman,Right,
19,10,1,0.4351563999998689,['n'],1,right,['u'],1,0.6205972999996447,0.4,1,0,AccAcc,3,18,Woman,Right,
20,10,1,0.40096470000025874,['c'],1,left,['e'],0,0.39019639999969513,0.2,0,0,AccAcc,3,18,Woman,Right,
21,10,1,0.35128250000070693,['n'],0,left,['u'],1,0.31537659999958123,0.4,0,0,AccAcc,3,18,Woman,Right,
22,10,1,0.41799619999983406,['n'],0,left,['e'],0,0.19202359999962937,0.2,1,0,AccAcc,3,18,Woman,Right,
23,10,1,0.7507030000006125,['n'],0,left,['e'],0,0.25326680000034685,0.4,1,0,AccAcc,3,18,Woman,Right,
24,10,1,0.3179571999999098,['n'],0,left,['e'],0,0.23272679999990942,0.4,1,0,AccAcc,3,18,Woman,Right,
25,10,1,3.2335567000000083,['n'],1,right,['e'],0,0.16047849999995378,0.2,0,0,AccAcc,3,18,Woman,Right,
26,10,1,0.9509477000001425,['c'],1,left,['e'],0,0.21497439999984636,0.2,0,0,AccAcc,3,18,Woman,Right,
27,10,1,0.21804139999949257,['c'],1,left,['e'],0,0.2479302000001553,0.1,0,0,AccAcc,3,18,Woman,Right,
28,10,1,0.3334534000005078,['n'],1,right,['e'],0,0.16364829999929498,0.4,0,0,AccAcc,3,18,Woman,Right,
29,10,1,0.40076779999981227,['n'],1,right,['u'],1,0.462686500000018,0.4,1,0,AccAcc,3,18,Woman,Right,
30,10,1,1.5174177999997482,['n'],1,right,['e'],0,0.2095263999999588,0.4,0,0,AccAcc,3,18,Woman,Right,
31,10,1,0.3515870000001087,['c'],0,right,['u'],1,0.25381449999986216,0.2,0,0,AccAcc,3,18,Woman,Right,
32,10,1,0.10116430000016408,['n'],0,left,['e'],0,0.17814890000045125,0.4,1,0,AccAcc,3,18,Woman,Right,
33,10,1,0.9516100000000733,['n'],0,left,['e'],0,0.18367749999924854,0.1,1,0,AccAcc,3,18,Woman,Right,
34,10,1,0.784947999999531,['n'],0,left,['e'],0,0.1796433999998044,0.2,1,0,AccAcc,3,18,Woman,Right,
35,10,1,0.44888390000051004,['n'],1,right,['e'],0,0.23713599999973667,0.4,0,0,AccAcc,3,18,Woman,Right,
36,10,1,0.26835790000041015,['c'],1,left,['e'],0,0.3145903000004182,0.1,0,0,AccAcc,3,18,Woman,Right,
37,10,1,0.45040979999976116,['n'],1,right,['e'],0,0.11039670000081969,0.1,0,0,AccAcc,3,18,Woman,Right,
38,10,1,0.4846207000000504,['c'],0,right,['e'],0,0.23330039999927976,0.1,1,0,AccAcc,3,18,Woman,Right,
39,10,1,0.4672270999999455,['n'],1,right,['u'],1,0.2235696999996435,0.2,1,0,AccAcc,3,18,Woman,Right,
40,10,1,0.033593199999813805,['n'],0,left,['e'],0,0.2477785999999469,0.2,1,0,AccAcc,3,18,Woman,Right,
41,10,1,0.43456890000015846,['c'],1,left,['u'],1,0.22275159999935568,0.2,1,0,AccAcc,3,18,Woman,Right,
42,10,1,0.05145670000001701,['c'],0,right,['e'],0,0.8062748000002102,0.1,1,0,AccAcc,3,18,Woman,Right,
43,10,1,0.5344965000003867,['c'],0,right,['e'],0,0.9313845999995465,0.1,1,0,AccAcc,3,18,Woman,Right,
44,10,1,0.34964170000057493,['c'],1,left,['u'],1,0.3391166000001249,0.1,1,0,AccAcc,3,18,Woman,Right,
45,10,1,0.4177001999996719,['c'],1,left,['u'],1,0.31060579999939364,0.2,1,0,AccAcc,3,18,Woman,Right,
46,10,1,0.3343620000005103,['n'],1,right,['u'],1,0.25635310000052414,0.2,1,0,AccAcc,3,18,Woman,Right,
47,10,1,0.35126059999947756,['n'],0,left,['u'],1,0.21778770000037184,0.2,0,0,AccAcc,3,18,Woman,Right,
48,10,1,0.3848747000001822,['c'],1,left,['u'],1,0.19611609999992652,0.1,1,0,AccAcc,3,18,Woman,Right,
49,10,1,1.1835777000005692,['c'],1,left,['u'],1,0.5910582999995313,0.4,1,0,AccAcc,3,18,Woman,Right,
50,10,1,0.8347012000003815,['n'],1,right,['e'],0,0.8408353000004354,0.4,0,0,AccAcc,3,18,Woman,Right,
51,10,1,0.5517062999997506,['n'],1,right,['u'],1,0.16373870000006718,0.1,1,0,AccAcc,3,18,Woman,Right,
52,10,1,0.7839472999994541,['n'],1,right,['u'],1,0.240210300000399,0.2,1,0,AccAcc,3,18,Woman,Right,
53,10,1,0.4337988999996014,['n'],0,left,['u'],1,0.26454999999987194,0.2,0,0,AccAcc,3,18,Woman,Right,
54,10,1,1.4328191999993578,['c'],1,left,['u'],1,0.13552269999945565,0.1,1,0,AccAcc,3,18,Woman,Right,
55,10,1,0.3022946999999476,['n'],0,left,['e'],0,0.07117070000003878,0.4,1,0,AccAcc,3,18,Woman,Right,
56,10,1,0.5675412000000506,['n'],1,right,['e'],0,0.12820149999970454,0.1,0,0,AccAcc,3,18,Woman,Right,
57,10,1,0.26801090000026306,['c'],0,right,['u'],1,0.11537200000020675,0.2,0,0,AccAcc,3,18,Woman,Right,
58,10,1,0.3850628999998662,['n'],0,left,['e'],0,0.6735163000003013,0.2,1,0,AccAcc,3,18,Woman,Right,
59,10,1,0.5013279999993756,['c'],0,right,['u'],1,0.02179969999997411,0.1,0,0,AccAcc,3,18,Woman,Right,
0,11,1,0.7173051999998279,['n'],0,left,['e'],0,0.10456459999932122,0.4,1,0,FastAcc,3,18,Woman,Right,
1,11,1,0.3512040000005072,['c'],1,left,['e'],0,0.10484899999937625,0.4,0,0,FastAcc,3,18,Woman,Right,
2,11,1,0.400350900000376,['c'],1,left,['e'],0,0.15110899999945104,0.2,0,0,FastAcc,3,18,Woman,Right,
3,11,1,0.2679996000006213,['c'],0,right,['u'],1,0.13798189999943133,0.4,0,0,FastAcc,3,18,Woman,Right,
4,11,1,0.383310100000017,['n'],1,right,['e'],0,0.11825109999972483,0.4,0,0,FastAcc,3,18,Woman,Right,
5,11,1,0.3345124000006763,['n'],0,left,['u'],1,0.07063369999923452,0.2,0,0,FastAcc,3,18,Woman,Right,
6,11,1,0.9177266000006057,['n'],0,left,['u'],1,0.04940019999958167,0.2,0,0,FastAcc,3,18,Woman,Right,
7,11,1,0.6844623999995747,['n'],1,right,['e'],0,0.2782493999993676,0.2,0,0,FastAcc,3,18,Woman,Right,
8,11,1,0.33447139999952924,['n'],1,right,['e'],0,0.09602349999931903,0.2,0,0,FastAcc,3,18,Woman,Right,
9,11,1,0.35055840000040916,['c'],1,left,['u'],1,0.11219220000020869,0.2,1,0,FastAcc,3,18,Woman,Right,
10,11,1,0.5168710000007195,['n'],0,left,['e'],0,0.15370659999916825,0.4,1,0,FastAcc,3,18,Woman,Right,
11,11,1,0.33476299999983894,['n'],1,right,['e'],0,0.11995459999980085,0.1,0,0,FastAcc,3,18,Woman,Right,
12,11,1,0.9179997999999614,['c'],0,right,['u'],1,0.11339279999992868,0.1,0,0,FastAcc,3,18,Woman,Right,
13,11,1,0.4013825000001816,['c'],0,right,['u'],1,0.12655269999959273,0.2,0,0,FastAcc,3,18,Woman,Right,
14,11,1,0.26844379999965895,['n'],0,left,['e'],0,0.2256398999998055,0.4,1,0,FastAcc,3,18,Woman,Right,
15,11,1,0.9176051000004009,['n'],1,right,['u'],1,0.1027103000005809,0.2,1,0,FastAcc,3,18,Woman,Right,
16,11,1,0.817823800000042,['n'],1,right,['u'],1,0.14821269999993092,0.4,1,0,FastAcc,3,18,Woman,Right,
17,11,1,0.9839754000004177,['n'],0,left,['u'],1,0.07316790000004403,0.4,0,0,FastAcc,3,18,Woman,Right,
18,11,1,0.683481799999754,['n'],0,left,['e'],0,0.1414613000006284,0.1,1,0,FastAcc,3,18,Woman,Right,
19,11,1,1.5174305999998978,['c'],1,left,['e'],0,0.07799960000011197,0.1,0,0,FastAcc,3,18,Woman,Right,
20,11,1,0.31761509999978443,['n'],1,right,['u'],1,0.0489305000000968,0.2,1,0,FastAcc,3,18,Woman,Right,
21,11,1,0.3347774000003483,['n'],0,left,['e'],0,0.06768610000017361,0.1,1,0,FastAcc,3,18,Woman,Right,
22,11,1,0.5346332999997685,['c'],0,right,['u'],1,0.11047959999996237,0.4,0,0,FastAcc,3,18,Woman,Right,
23,11,1,0.40157859999999346,['c'],0,right,['e'],0,0.12429789999987406,0.4,1,0,FastAcc,3,18,Woman,Right,
24,11,1,0.568199999999706,['c'],1,left,['u'],1,0.051269600000523496,0.4,1,0,FastAcc,3,18,Woman,Right,
25,11,1,0.6006443000005675,['n'],0,left,['u'],1,0.09152660000017931,0.2,0,0,FastAcc,3,18,Woman,Right,
26,11,1,0.4000930000001972,['n'],1,right,['e'],0,0.1066516999999294,0.2,0,0,FastAcc,3,18,Woman,Right,
27,11,1,0.4013736999995672,['c'],1,left,['u'],1,0.07268010000007052,0.1,1,0,FastAcc,3,18,Woman,Right,
28,11,1,0.30146240000067337,['c'],1,left,['e'],0,0.10935210000025108,0.1,0,0,FastAcc,3,18,Woman,Right,
29,11,1,0.5007456000003003,['n'],0,left,['e'],0,0.10266939999928582,0.1,1,0,FastAcc,3,18,Woman,Right,
30,11,1,0.4684642000001986,['n'],0,left,['e'],0,0.09821290000036242,0.1,1,0,FastAcc,3,18,Woman,Right,
31,11,1,0.5505897999992158,['c'],1,left,['e'],0,0.21871860000010201,0.1,0,0,FastAcc,3,18,Woman,Right,
32,11,1,0.1855491999995138,['n'],0,left,['e'],0,0.1725592000002507,0.2,1,0,FastAcc,3,18,Woman,Right,
33,11,1,0.6161499999998341,['c'],0,right,['e'],0,0.11302239999986341,0.2,1,0,FastAcc,3,18,Woman,Right,
34,11,1,0.2677621000002546,['c'],0,right,['e'],0,0.11493559999962599,0.1,1,0,FastAcc,3,18,Woman,Right,
35,11,1,0.6011746999993193,['c'],0,right,['u'],1,0.20011669999985315,0.2,0,0,FastAcc,3,18,Woman,Right,
36,11,1,0.4343598999994356,['n'],0,left,['e'],0,0.11325320000014472,0.1,1,0,FastAcc,3,18,Woman,Right,
37,11,1,0.13457180000023072,['n'],0,left,['e'],0,0.48950520000016695,0.4,1,0,FastAcc,3,18,Woman,Right,
38,11,1,0.4848191000000952,['n'],1,right,['e'],0,0.11696990000018559,0.1,0,0,FastAcc,3,18,Woman,Right,
39,11,1,1.3175444999997126,['n'],1,right,['e'],0,0.14238339999974414,0.2,0,0,FastAcc,3,18,Woman,Right,
40,11,1,0.38441400000010617,['n'],1,right,['u'],1,0.20367040000019188,0.4,1,0,FastAcc,3,18,Woman,Right,
41,11,1,0.48503400000026886,['c'],1,left,['u'],1,0.08276299999943149,0.4,1,0,FastAcc,3,18,Woman,Right,
42,11,1,0.1678778000004968,['n'],1,right,['e'],0,0.10681339999973716,0.4,0,0,FastAcc,3,18,Woman,Right,
43,11,1,0.2832301999997071,['c'],0,right,['u'],1,0.07814440000038303,0.1,0,0,FastAcc,3,18,Woman,Right,
44,11,1,0.3500958000004175,['n'],0,left,['e'],0,0.07905990000017482,0.2,1,0,FastAcc,3,18,Woman,Right,
45,11,1,0.750918400000046,['n'],1,right,['e'],0,0.0969160999993619,0.2,0,0,FastAcc,3,18,Woman,Right,
46,11,1,0.23438339999938762,['c'],1,left,['u'],1,0.06861720000051719,0.1,1,0,FastAcc,3,18,Woman,Right,
47,11,1,0.28480690000014874,['n'],1,right,['e'],0,0.08872820000033244,0.4,0,0,FastAcc,3,18,Woman,Right,
48,11,1,0.7513103999999657,['n'],1,right,['e'],0,0.18579350000072736,0.2,0,0,FastAcc,3,18,Woman,Right,
49,11,1,0.3515978000004907,['n'],0,left,['u'],1,0.07055450000007113,0.4,0,0,FastAcc,3,18,Woman,Right,
50,11,1,0.5014573999997083,['c'],0,right,['u'],1,0.09840239999994083,0.1,0,0,FastAcc,3,18,Woman,Right,
51,11,1,0.45068559999981517,['n'],1,right,['e'],0,0.17455470000004425,0.4,0,0,FastAcc,3,18,Woman,Right,
52,11,1,0.30050829999981943,['n'],0,left,['e'],0,0.11023690000001807,0.1,1,0,FastAcc,3,18,Woman,Right,
53,11,1,0.300170700000308,['n'],1,right,['u'],1,0.09653029999935825,0.1,1,0,FastAcc,3,18,Woman,Right,
54,11,1,0.40065469999990455,['n'],1,right,['e'],0,1.470806100000118,0.4,0,0,FastAcc,3,18,Woman,Right,
55,11,1,0.3348625999997239,['n'],0,left,['e'],0,0.16924159999962285,0.1,1,0,FastAcc,3,18,Woman,Right,
56,11,1,0.3178680000000895,['n'],1,right,['u'],1,0.07220059999963269,0.4,1,0,FastAcc,3,18,Woman,Right,
57,11,1,0.31716880000021774,['n'],1,right,['e'],0,0.10699849999946309,0.2,0,0,FastAcc,3,18,Woman,Right,
58,11,1,0.4172420000004422,['c'],1,left,['e'],0,0.08863060000021505,0.1,0,0,FastAcc,3,18,Woman,Right,
59,11,1,0.31790820000060194,['c'],1,left,['e'],0,0.07485569999971631,0.2,0,0,FastAcc,3,18,Woman,Right,
0,12,1,0.6011195999999472,['n'],0,left,['u'],1,0.03832460000012361,0.1,0,0,FastFast,3,18,Woman,Right,
1,12,1,0.31783790000008594,['n'],1,right,['e'],0,0.10667620000003808,0.2,0,0,FastFast,3,18,Woman,Right,
2,12,1,0.38451460000032966,['n'],1,right,['u'],1,0.10560390000046027,0.2,1,0,FastFast,3,18,Woman,Right,
3,12,1,0.31789779999962775,['n'],0,left,['e'],0,0.1869182999998884,0.2,1,0,FastFast,3,18,Woman,Right,
4,12,1,0.35177849999945465,['n'],0,left,['u'],1,0.055946599999515456,0.2,0,0,FastFast,3,18,Woman,Right,
5,12,1,0.28470179999931133,['n'],0,left,['e'],0,0.10897179999938089,0.2,1,0,FastFast,3,18,Woman,Right,
6,12,1,0.3842172999993636,['n'],0,left,['e'],0,0.07598589999997785,0.1,1,0,FastFast,3,18,Woman,Right,
7,12,1,0.4850008000003072,['c'],0,right,['e'],0,0.08806750000076136,0.4,1,0,FastFast,3,18,Woman,Right,
8,12,1,0.268244699999741,['c'],1,left,['e'],0,0.10831620000044495,0.1,0,0,FastFast,3,18,Woman,Right,
9,12,1,0.40150030000040715,['n'],0,left,['u'],1,0.058511400000497815,0.2,0,0,FastFast,3,18,Woman,Right,
10,12,1,0.3180302999999185,['n'],0,left,['e'],0,0.07823700000062672,0.1,1,0,FastFast,3,18,Woman,Right,
11,12,1,0.2680521000002045,['n'],0,left,['e'],0,0.05041689999961818,0.4,1,0,FastFast,3,18,Woman,Right,
12,12,1,0.9679005999996662,['c'],0,right,['u'],1,0.0922365999995236,0.2,0,0,FastFast,3,18,Woman,Right,
13,12,1,0.4347194000001764,['c'],1,left,['e'],0,0.07362349999948492,0.4,0,0,FastFast,3,18,Woman,Right,
14,12,1,0.2678059999998368,['n'],0,left,['e'],0,0.09464659999957803,0.1,1,0,FastFast,3,18,Woman,Right,
15,12,1,0.28482199999962177,['c'],1,left,['u'],1,0.06617410000035306,0.4,1,0,FastFast,3,18,Woman,Right,
16,12,1,0.3183853000000454,['n'],1,right,['e'],0,0.10118730000067444,0.2,0,0,FastFast,3,18,Woman,Right,
17,12,1,0.3681258999995407,['c'],0,right,['u'],1,0.0690457000000606,0.4,0,0,FastFast,3,18,Woman,Right,
18,12,1,0.4511680999994496,['n'],1,right,['e'],0,0.1304334000005838,0.2,0,0,FastFast,3,18,Woman,Right,
19,12,1,0.5680379000004905,['n'],0,left,['u'],1,0.10458660000040254,0.4,0,0,FastFast,3,18,Woman,Right,
20,12,1,0.46795139999994717,['n'],1,right,['u'],1,0.11619070000051579,0.4,1,0,FastFast,3,18,Woman,Right,
21,12,1,0.5503669999998237,['c'],0,right,['e'],0,0.10863379999955214,0.1,1,0,FastFast,3,18,Woman,Right,
22,12,1,0.38325540000005276,['c'],0,right,['e'],0,0.04320499999994354,0.2,1,0,FastFast,3,18,Woman,Right,
23,12,1,0.416382600000361,['c'],1,left,['u'],1,0.07587820000026113,0.1,1,0,FastFast,3,18,Woman,Right,
24,12,1,0.16776430000027176,['n'],0,left,['u'],1,0.11565989999962767,0.1,0,0,FastFast,3,18,Woman,Right,
25,12,1,0.868287600000258,['n'],1,right,['e'],0,0.126810600000681,0.1,0,0,FastFast,3,18,Woman,Right,
26,12,1,0.28439369999978226,['c'],1,left,['u'],1,0.06530689999999595,0.4,1,0,FastFast,3,18,Woman,Right,
27,12,1,0.35140640000008716,['n'],1,right,['u'],1,0.05060899999989488,0.4,1,0,FastFast,3,18,Woman,Right,
28,12,1,0.2514013999998497,['n'],1,right,['e'],0,0.0896922000001723,0.4,0,0,FastFast,3,18,Woman,Right,
29,12,1,0.3356690999999046,['n'],0,left,['e'],0,0.09054900000046473,0.2,1,0,FastFast,3,18,Woman,Right,
30,12,1,0.2683256000000256,['c'],0,right,['e'],0,0.1266885999993974,0.1,1,0,FastFast,3,18,Woman,Right,
31,12,1,0.35013879999951314,['c'],0,right,['e'],0,0.09434140000030311,0.1,1,0,FastFast,3,18,Woman,Right,
32,12,1,0.25119850000010047,['c'],0,right,['e'],0,0.13130499999988388,0.4,1,0,FastFast,3,18,Woman,Right,
33,12,1,0.25133569999979954,['n'],1,right,['e'],0,0.08602909999990516,0.2,0,0,FastFast,3,18,Woman,Right,
34,12,1,0.3011716000000888,['n'],0,left,['e'],0,0.10542650000024878,0.2,1,0,FastFast,3,18,Woman,Right,
35,12,1,0.3684088999998494,['n'],0,left,['u'],1,0.040630000000419386,0.1,0,0,FastFast,3,18,Woman,Right,
36,12,1,0.1846917000002577,['c'],0,right,['u'],1,0.13000689999989845,0.1,0,0,FastFast,3,18,Woman,Right,
37,12,1,0.18480129999989003,['n'],1,right,['e'],0,0.08775880000030156,0.4,0,0,FastFast,3,18,Woman,Right,
38,12,1,0.2522613999999521,['n'],1,right,['e'],0,0.09257479999996576,0.4,0,0,FastFast,3,18,Woman,Right,
39,12,1,0.30021490000035556,['n'],1,right,['e'],0,0.06356440000035946,0.2,0,0,FastFast,3,18,Woman,Right,
40,12,1,0.1518674999997529,['c'],0,right,['u'],1,0.15305950000038138,0.1,0,0,FastFast,3,18,Woman,Right,
41,12,1,0.4335508000003756,['n'],0,left,['e'],0,0.16407540000000154,0.1,1,0,FastFast,3,18,Woman,Right,
42,12,1,0.6333431999992172,['n'],0,left,['e'],0,0.10242729999936273,0.2,1,0,FastFast,3,18,Woman,Right,
43,12,1,0.01630289999957313,['n'],0,left,['e'],0,0.18042810000042664,0.1,1,0,FastFast,3,18,Woman,Right,
44,12,1,0.41677359999994223,['n'],1,right,['u'],1,0.1421301999998832,0.2,1,0,FastFast,3,18,Woman,Right,
45,12,1,0.5675404000003255,['n'],0,left,['e'],0,0.1809200999996392,0.4,1,0,FastFast,3,18,Woman,Right,
46,12,1,0.5177485000003799,['n'],1,right,['e'],0,0.1866474999997081,0.4,0,0,FastFast,3,18,Woman,Right,
47,12,1,0.21827719999964756,['n'],1,right,['e'],0,0.18943469999976514,0.4,0,0,FastFast,3,18,Woman,Right,
48,12,1,0.5515505999992456,['n'],0,left,['e'],0,0.16215810000085185,0.4,1,0,FastFast,3,18,Woman,Right,
49,12,1,1.6843680000001768,['n'],0,left,['u'],1,0.3782264999999825,0.2,0,0,FastFast,3,18,Woman,Right,
50,12,1,0.3012194000002637,['n'],0,left,['u'],1,0.09809949999998935,0.2,0,0,FastFast,3,18,Woman,Right,
51,12,1,0.8343215999993845,['n'],1,right,['e'],0,0.14227259999915987,0.1,0,0,FastFast,3,18,Woman,Right,
52,12,1,0.4846548999994411,['n'],1,right,['e'],0,0.11986200000046665,0.2,0,0,FastFast,3,18,Woman,Right,
53,12,1,0.5671914000004108,['n'],0,left,['e'],0,0.1429086999996798,0.4,1,0,FastFast,3,18,Woman,Right,
54,12,1,0.5833281000004717,['c'],0,right,['e'],0,0.11716290000003937,0.2,1,0,FastFast,3,18,Woman,Right,
55,12,1,0.4011919999993552,['c'],1,left,['e'],0,0.04996720000053756,0.4,0,0,FastFast,3,18,Woman,Right,
56,12,1,0.4001715999993394,['c'],0,right,['e'],0,0.05048750000059954,0.1,1,0,FastFast,3,18,Woman,Right,
57,12,1,0.3010383999999249,['n'],0,left,['u'],1,0.022767999999814492,0.4,0,0,FastFast,3,18,Woman,Right,
58,12,1,0.30100619999939227,['n'],1,right,['u'],1,0.0283687999999529,0.1,1,0,FastFast,3,18,Woman,Right,
59,12,1,0.4180834999997387,['n'],0,left,['e'],0,0.0923518999998123,0.1,1,0,FastFast,3,18,Woman,Right,
0,13,1,0.5334302000001117,['n'],0,left,['e'],0,0.2432251999998698,0.4,1,0,AccFast,3,18,Woman,Right,
1,13,1,0.35175640000034036,['n'],1,right,['e'],0,0.12578769999981887,0.1,0,0,AccFast,3,18,Woman,Right,
2,13,1,0.4348133000003145,['c'],0,right,['e'],0,0.17000029999962862,0.4,1,0,AccFast,3,18,Woman,Right,
3,13,1,0.33478999999988446,['c'],1,left,['u'],1,0.1684250999996948,0.4,1,0,AccFast,3,18,Woman,Right,
4,13,1,0.3503168999995978,['c'],0,right,['e'],0,0.165738999999121,0.4,1,0,AccFast,3,18,Woman,Right,
5,13,1,0.5335638999995354,['c'],0,right,['u'],1,0.36460280000028433,0.1,0,0,AccFast,3,18,Woman,Right,
6,13,1,0.8336169999993217,['n'],1,right,['e'],0,0.15850989999944431,0.1,0,0,AccFast,3,18,Woman,Right,
7,13,1,0.6499357000002419,['n'],1,right,['e'],0,0.25668279999990773,0.1,0,0,AccFast,3,18,Woman,Right,
8,13,1,0.5341490999999223,['n'],1,right,['e'],0,0.16419679999944492,0.2,0,0,AccFast,3,18,Woman,Right,
9,13,1,0.31593619999966904,['c'],0,right,['u'],1,0.1640159999997195,0.4,0,0,AccFast,3,18,Woman,Right,
10,13,1,0.33522890000040206,['n'],1,right,['e'],0,0.17706290000023728,0.2,0,0,AccFast,3,18,Woman,Right,
11,13,1,0.1344500999994125,['c'],1,left,['u'],1,0.18322360000001936,0.2,1,0,AccFast,3,18,Woman,Right,
12,13,1,0.2845972000004622,['n'],0,left,['e'],0,0.1507766000004267,0.2,1,0,AccFast,3,18,Woman,Right,
13,13,1,0.6179888999995455,['n'],1,right,['e'],0,0.23419039999953384,0.4,0,0,AccFast,3,18,Woman,Right,
14,13,1,0.38466040000002977,['c'],0,right,['u'],1,0.17973290000009,0.1,0,0,AccFast,3,18,Woman,Right,
15,13,1,0.3840853000001516,['n'],0,left,['e'],0,0.17549830000007205,0.1,1,0,AccFast,3,18,Woman,Right,
16,13,1,0.3183304999993197,['c'],1,left,['u'],1,0.1904511000002458,0.2,1,0,AccFast,3,18,Woman,Right,
17,13,1,0.5662238000004436,['n'],0,left,['e'],0,0.08291419999932259,0.1,1,0,AccFast,3,18,Woman,Right,
18,13,1,0.4341252000003806,['n'],1,right,['e'],0,0.09641549999923882,0.4,0,0,AccFast,3,18,Woman,Right,
19,13,1,0.2685110000002169,['c'],0,right,['u'],1,0.14802859999963403,0.1,0,0,AccFast,3,18,Woman,Right,
20,13,1,0.3678802000003998,['n'],1,right,['e'],0,0.11371770000005199,0.2,0,0,AccFast,3,18,Woman,Right,
21,13,1,0.3331279000003633,['c'],1,left,['e'],0,0.13076839999939693,0.2,0,0,AccFast,3,18,Woman,Right,
22,13,1,0.15141790000052424,['n'],0,left,['e'],0,0.16863530000046012,0.1,1,0,AccFast,3,18,Woman,Right,
23,13,1,0.3176951999994344,['c'],1,left,['u'],1,0.11951430000044638,0.4,1,0,AccFast,3,18,Woman,Right,
24,13,1,0.16763280000031955,['n'],1,right,['u'],1,0.20635920000040642,0.2,1,0,AccFast,3,18,Woman,Right,
25,13,1,0.45141700000021956,['n'],0,left,['e'],0,0.15068160000009811,0.1,1,0,AccFast,3,18,Woman,Right,
26,13,1,0.4672342000003482,['c'],0,right,['e'],0,0.14435669999966194,0.1,1,0,AccFast,3,18,Woman,Right,
27,13,1,0.21830940000018018,['n'],0,left,['e'],0,0.1646362000001318,0.1,1,0,AccFast,3,18,Woman,Right,
28,13,1,0.34926419999919744,['n'],0,left,['e'],0,0.5636168000000907,0.4,1,0,AccFast,3,18,Woman,Right,
29,13,1,0.26689840000017284,['c'],1,left,['u'],1,0.09931329999926675,0.2,1,0,AccFast,3,18,Woman,Right,
30,13,1,0.2516742999996495,['n'],0,left,['e'],0,0.11937039999975241,0.2,1,0,AccFast,3,18,Woman,Right,
31,13,1,0.5664356999996016,['n'],0,left,['e'],0,0.27032560000043304,0.1,1,0,AccFast,3,18,Woman,Right,
32,13,1,0.3180145000005723,['c'],1,left,['u'],1,0.2814336999999796,0.2,1,0,AccFast,3,18,Woman,Right,
33,13,1,1.568050900000344,['c'],0,right,['u'],1,0.12985509999998612,0.2,0,0,AccFast,3,18,Woman,Right,
34,13,1,0.7840083999999479,['n'],1,right,['e'],0,0.20722269999987475,0.4,0,0,AccFast,3,18,Woman,Right,
35,13,1,1.0338739999997415,['n'],0,left,['u'],1,0.33704820000002655,0.1,0,0,AccFast,3,18,Woman,Right,
36,13,1,1.6519954000004873,['c'],1,left,['e'],0,0.14737900000000081,0.2,0,0,AccFast,3,18,Woman,Right,
37,13,1,2.034469199999876,['n'],0,left,['u'],1,0.31859069999973144,0.2,0,0,AccFast,3,18,Woman,Right,
38,13,1,1.9843260000006921,['n'],1,right,['e'],0,0.2779600000003484,0.4,0,0,AccFast,3,18,Woman,Right,
39,13,1,1.1667456000004677,['n'],0,left,['e'],0,0.43019619999995484,0.4,1,0,AccFast,3,18,Woman,Right,
40,13,1,0.2847935999998299,['c'],0,right,['u'],1,0.1638745000000199,0.2,0,0,AccFast,3,18,Woman,Right,
41,13,1,0.26812299999983225,['n'],1,right,['e'],0,0.08550439999999071,0.2,0,0,AccFast,3,18,Woman,Right,
42,13,1,0.16818179999972926,['c'],0,right,['e'],0,0.1250088999995569,0.2,1,0,AccFast,3,18,Woman,Right,
43,13,1,0.20224940000025526,['n'],1,right,['e'],0,0.08233429999927466,0.4,0,0,AccFast,3,18,Woman,Right,
44,13,1,0.35097510000014154,['c'],0,right,['u'],1,0.14743999999973312,0.1,0,0,AccFast,3,18,Woman,Right,
45,13,1,0.3347496999995201,['c'],1,left,['e'],0,0.09916690000045492,0.2,0,0,AccFast,3,18,Woman,Right,
46,13,1,0.33410080000066955,['c'],0,right,['e'],0,0.14726560000053723,0.1,1,0,AccFast,3,18,Woman,Right,
47,13,1,1.2847916000000623,['c'],0,right,['u'],1,0.20423269999992044,0.1,0,0,AccFast,3,18,Woman,Right,
48,13,1,0.46810570000070584,['c'],1,left,['u'],1,0.3080106999996133,0.4,1,0,AccFast,3,18,Woman,Right,
49,13,1,0.39991439999994327,['n'],0,left,['u'],1,0.12259079999967071,0.4,0,0,AccFast,3,18,Woman,Right,
50,13,1,0.45169350000014674,['n'],1,right,['e'],0,0.2461704000006648,0.2,0,0,AccFast,3,18,Woman,Right,
51,13,1,0.6179529999999431,['n'],0,left,['u'],1,0.08551050000005489,0.4,0,0,AccFast,3,18,Woman,Right,
52,13,1,0.301479400000062,['c'],0,right,['u'],1,0.15238189999945462,0.2,0,0,AccFast,3,18,Woman,Right,
53,13,1,0.36727699999937613,['n'],0,left,['e'],0,0.11789860000044428,0.1,1,0,AccFast,3,18,Woman,Right,
54,13,1,0.684906399999818,['c'],1,left,['u'],1,0.3280939000005674,0.1,1,0,AccFast,3,18,Woman,Right,
55,13,1,0.38307349999922735,['n'],1,right,['e'],0,3.2303969000004145,0.4,0,0,AccFast,3,18,Woman,Right,
