withinblocktrial,block,block_repetition,rt,resp,cor,cresp,conf_press,cj,rtconf,coherence,metacognition,slow_trial,manipulation,sub,age,gender,handedness,
0,1,1,1.68454359999987,['c'],0,right,none,-99,-99,0.5,-99,0,none,5,19,Woman,Right,
1,1,1,1.267054399999779,['n'],1,right,none,-99,-99,0.5,-99,0,none,5,19,Woman,Right,
2,1,1,0.7173229999998512,['n'],1,right,none,-99,-99,0.5,-99,0,none,5,19,Woman,Right,
3,1,1,0.9178976000002876,['c'],1,left,none,-99,-99,0.5,-99,0,none,5,19,Woman,Right,
4,1,1,0.7172489999998106,['n'],1,right,none,-99,-99,0.5,-99,0,none,5,19,Woman,Right,
5,1,1,0.9183011999998598,['n'],0,left,none,-99,-99,0.5,-99,0,none,5,19,Woman,Right,
6,1,1,0.6828245000001516,['n'],1,right,none,-99,-99,0.5,-99,0,none,5,19,Woman,Right,
7,1,1,0.899022099999911,['c'],1,left,none,-99,-99,0.5,-99,0,none,5,19,Woman,Right,
8,1,1,0.6681852000001527,['n'],1,right,none,-99,-99,0.5,-99,0,none,5,19,Woman,Right,
9,1,1,0.7679098999997223,['n'],1,right,none,-99,-99,0.5,-99,0,none,5,19,Woman,Right,
10,1,1,0.48423430000002554,['c'],1,left,none,-99,-99,0.5,-99,0,none,5,19,Woman,Right,
11,1,1,0.5345737000002373,['n'],0,left,none,-99,-99,0.5,-99,0,none,5,19,Woman,Right,
12,1,1,0.8334793999997601,['c'],0,right,none,-99,-99,0.5,-99,0,none,5,19,Woman,Right,
13,1,1,0.5502261999999973,['c'],1,left,none,-99,-99,0.5,-99,0,none,5,19,Woman,Right,
14,1,1,1.1656270000003133,['n'],0,left,none,-99,-99,0.5,-99,0,none,5,19,Woman,Right,
15,1,1,0.5838886999999886,['c'],0,right,none,-99,-99,0.5,-99,0,none,5,19,Woman,Right,
16,1,1,0.667235299999902,['c'],1,left,none,-99,-99,0.5,-99,0,none,5,19,Woman,Right,
17,1,1,0.5656110999998418,['n'],1,right,none,-99,-99,0.5,-99,0,none,5,19,Woman,Right,
18,1,1,0.5166147999998429,['c'],1,left,none,-99,-99,0.5,-99,0,none,5,19,Woman,Right,
19,1,1,0.5318757999998525,['c'],1,left,none,-99,-99,0.5,-99,0,none,5,19,Woman,Right,
20,1,1,0.6838544000002003,['n'],1,right,none,-99,-99,0.5,-99,0,none,5,19,Woman,Right,
21,1,1,0.5828686999998354,['n'],0,left,none,-99,-99,0.5,-99,0,none,5,19,Woman,Right,
22,1,1,0.5849076999998033,['n'],1,right,none,-99,-99,0.5,-99,0,none,5,19,Woman,Right,
23,1,1,0.6850205000000642,['n'],0,left,none,-99,-99,0.5,-99,0,none,5,19,Woman,Right,
0,1,2,0.7161044999998012,['n'],1,right,none,-99,-99,0.5,-99,0,none,5,19,Woman,Right,
1,1,2,0.6499765000003208,['n'],1,right,none,-99,-99,0.5,-99,0,none,5,19,Woman,Right,
2,1,2,0.45239170000013473,['c'],1,left,none,-99,-99,0.5,-99,0,none,5,19,Woman,Right,
3,1,2,0.6332535999999891,['n'],0,left,none,-99,-99,0.5,-99,0,none,5,19,Woman,Right,
4,1,2,0.5339438000000882,['c'],1,left,none,-99,-99,0.5,-99,0,none,5,19,Woman,Right,
5,1,2,0.5505726999999752,['n'],1,right,none,-99,-99,0.5,-99,0,none,5,19,Woman,Right,
6,1,2,0.616129600000022,['c'],0,right,none,-99,-99,0.5,-99,0,none,5,19,Woman,Right,
7,1,2,0.5824144999996861,['n'],1,right,none,-99,-99,0.5,-99,0,none,5,19,Woman,Right,
8,1,2,0.6007872999998654,['c'],1,left,none,-99,-99,0.5,-99,0,none,5,19,Woman,Right,
9,1,2,0.4995509000000311,['n'],0,left,none,-99,-99,0.5,-99,0,none,5,19,Woman,Right,
10,1,2,0.6509707000000162,['n'],0,left,none,-99,-99,0.5,-99,0,none,5,19,Woman,Right,
11,1,2,0.61819609999975,['c'],1,left,none,-99,-99,0.5,-99,0,none,5,19,Woman,Right,
12,1,2,0.48382489999994505,['n'],1,right,none,-99,-99,0.5,-99,0,none,5,19,Woman,Right,
13,1,2,0.4010582000000795,['c'],0,right,none,-99,-99,0.5,-99,0,none,5,19,Woman,Right,
14,1,2,0.5672734999998283,['c'],1,left,none,-99,-99,0.5,-99,0,none,5,19,Woman,Right,
15,1,2,0.6336146999997254,['n'],0,left,none,-99,-99,0.5,-99,0,none,5,19,Woman,Right,
16,1,2,0.48304219999999987,['n'],1,right,none,-99,-99,0.5,-99,0,none,5,19,Woman,Right,
17,1,2,0.6176126999998814,['n'],1,right,none,-99,-99,0.5,-99,0,none,5,19,Woman,Right,
18,1,2,0.548845700000129,['c'],1,left,none,-99,-99,0.5,-99,0,none,5,19,Woman,Right,
19,1,2,0.466545700000097,['c'],1,left,none,-99,-99,0.5,-99,0,none,5,19,Woman,Right,
20,1,2,0.8171915000002627,['c'],1,left,none,-99,-99,0.5,-99,0,none,5,19,Woman,Right,
21,1,2,0.9180332999999337,['c'],0,right,none,-99,-99,0.5,-99,0,none,5,19,Woman,Right,
22,1,2,0.4184205999999904,['n'],1,right,none,-99,-99,0.5,-99,0,none,5,19,Woman,Right,
23,1,2,0.48410439999997834,['n'],1,right,none,-99,-99,0.5,-99,0,none,5,19,Woman,Right,
0,1,3,0.5171746000000894,['n'],1,right,none,-99,-99,0.5,-99,0,none,5,19,Woman,Right,
1,1,3,0.43352340000001277,['c'],1,left,none,-99,-99,0.5,-99,0,none,5,19,Woman,Right,
2,1,3,0.4326747999998588,['n'],1,right,none,-99,-99,0.5,-99,0,none,5,19,Woman,Right,
3,1,3,0.43387380000012854,['c'],1,left,none,-99,-99,0.5,-99,0,none,5,19,Woman,Right,
4,1,3,0.417710199999874,['c'],1,left,none,-99,-99,0.5,-99,0,none,5,19,Woman,Right,
5,1,3,0.5017622000000301,['n'],1,right,none,-99,-99,0.5,-99,0,none,5,19,Woman,Right,
6,1,3,0.41868390000036015,['c'],1,left,none,-99,-99,0.5,-99,0,none,5,19,Woman,Right,
7,1,3,0.4175905000001876,['n'],1,right,none,-99,-99,0.5,-99,0,none,5,19,Woman,Right,
8,1,3,0.4836225000003651,['n'],1,right,none,-99,-99,0.5,-99,0,none,5,19,Woman,Right,
9,1,3,0.3997048999999606,['c'],1,left,none,-99,-99,0.5,-99,0,none,5,19,Woman,Right,
10,1,3,0.40138649999971676,['c'],1,left,none,-99,-99,0.5,-99,0,none,5,19,Woman,Right,
11,1,3,0.5344712000000982,['n'],0,left,none,-99,-99,0.5,-99,0,none,5,19,Woman,Right,
12,1,3,0.4653528000003462,['n'],1,right,none,-99,-99,0.5,-99,0,none,5,19,Woman,Right,
13,1,3,0.4494337999999516,['n'],1,right,none,-99,-99,0.5,-99,0,none,5,19,Woman,Right,
14,1,3,0.5663287000002128,['n'],1,right,none,-99,-99,0.5,-99,0,none,5,19,Woman,Right,
15,1,3,0.4517060999996829,['n'],1,right,none,-99,-99,0.5,-99,0,none,5,19,Woman,Right,
16,1,3,0.4009244000003491,['c'],1,left,none,-99,-99,0.5,-99,0,none,5,19,Woman,Right,
17,1,3,0.8842941999996583,['n'],1,right,none,-99,-99,0.5,-99,0,none,5,19,Woman,Right,
18,1,3,0.966490000000249,['c'],0,right,none,-99,-99,0.5,-99,0,none,5,19,Woman,Right,
19,1,3,0.8853026000001591,['c'],1,left,none,-99,-99,0.5,-99,0,none,5,19,Woman,Right,
20,1,3,0.649626100000205,['n'],1,right,none,-99,-99,0.5,-99,0,none,5,19,Woman,Right,
21,1,3,0.4181145999996261,['c'],1,left,none,-99,-99,0.5,-99,0,none,5,19,Woman,Right,
22,1,3,0.500191399999494,['c'],1,left,none,-99,-99,0.5,-99,0,none,5,19,Woman,Right,
23,1,3,0.46928290000050765,['c'],1,left,none,-99,-99,0.5,-99,0,none,5,19,Woman,Right,
0,2,1,0.6185703999999532,['n'],1,right,none,-99,-99,0.4,-99,0,none,5,19,Woman,Right,
1,2,1,0.6489818000000014,['c'],1,left,none,-99,-99,0.1,-99,0,none,5,19,Woman,Right,
2,2,1,0.5008809999999357,['n'],1,right,none,-99,-99,0.2,-99,0,none,5,19,Woman,Right,
3,2,1,0.45268880000003264,['n'],0,left,none,-99,-99,0.1,-99,0,none,5,19,Woman,Right,
4,2,1,0.6322607000001881,['c'],1,left,none,-99,-99,0.2,-99,0,none,5,19,Woman,Right,
5,2,1,0.448562800000218,['c'],0,right,none,-99,-99,0.1,-99,0,none,5,19,Woman,Right,
6,2,1,0.7655331999994814,['c'],1,left,none,-99,-99,0.2,-99,0,none,5,19,Woman,Right,
7,2,1,0.6001181999999972,['n'],0,left,none,-99,-99,0.4,-99,0,none,5,19,Woman,Right,
8,2,1,0.5511140999997224,['c'],1,left,none,-99,-99,0.4,-99,0,none,5,19,Woman,Right,
9,2,1,0.6014623000000938,['c'],1,left,none,-99,-99,0.1,-99,0,none,5,19,Woman,Right,
10,2,1,0.4831678999998985,['c'],1,left,none,-99,-99,0.2,-99,0,none,5,19,Woman,Right,
11,2,1,0.6510190999997576,['n'],0,left,none,-99,-99,0.4,-99,0,none,5,19,Woman,Right,
12,2,1,0.6670349999994869,['n'],1,right,none,-99,-99,0.2,-99,0,none,5,19,Woman,Right,
13,2,1,0.5670151999993323,['n'],1,right,none,-99,-99,0.2,-99,0,none,5,19,Woman,Right,
14,2,1,0.5659012000005532,['c'],1,left,none,-99,-99,0.2,-99,0,none,5,19,Woman,Right,
15,2,1,0.6671115000008285,['n'],1,right,none,-99,-99,0.4,-99,0,none,5,19,Woman,Right,
16,2,1,0.5327834999998231,['n'],1,right,none,-99,-99,0.2,-99,0,none,5,19,Woman,Right,
17,2,1,0.5508372000003874,['c'],0,right,none,-99,-99,0.1,-99,0,none,5,19,Woman,Right,
18,2,1,0.6343379999998433,['n'],1,right,none,-99,-99,0.1,-99,0,none,5,19,Woman,Right,
19,2,1,0.582731500000591,['c'],1,left,none,-99,-99,0.1,-99,0,none,5,19,Woman,Right,
20,2,1,0.4677066999993258,['c'],0,right,none,-99,-99,0.4,-99,0,none,5,19,Woman,Right,
21,2,1,0.7320396999994045,['c'],0,right,none,-99,-99,0.1,-99,0,none,5,19,Woman,Right,
22,2,1,0.6148675000004005,['n'],1,right,none,-99,-99,0.4,-99,0,none,5,19,Woman,Right,
23,2,1,0.4681884000001446,['c'],1,left,none,-99,-99,0.4,-99,0,none,5,19,Woman,Right,
0,3,1,0.7835175999998683,['n'],1,right,['u'],1,1.2109286999993856,0.4,1,0,none,5,19,Woman,Right,
1,3,1,5.015975799999978,x,-99,right,none,-99,-99,0.1,-99,1,none,5,19,Woman,Right,
2,3,1,4.799102599999969,['c'],1,left,['e'],0,3.841238500000145,0.2,0,0,none,5,19,Woman,Right,
3,3,1,1.0178611000001183,['c'],1,left,['u'],1,0.9327616999999009,0.1,1,0,none,5,19,Woman,Right,
4,3,1,0.899750600000516,['n'],1,right,['e'],0,1.0098446000001786,0.2,0,0,none,5,19,Woman,Right,
5,3,1,0.602136900000005,['n'],1,right,['e'],0,1.1282563999993727,0.4,0,0,none,5,19,Woman,Right,
6,3,1,1.1504291999999623,['c'],1,left,['u'],1,0.9316003000003548,0.2,1,0,none,5,19,Woman,Right,
7,3,1,0.8179253999996945,['n'],0,left,['e'],0,0.7717709999997169,0.4,1,0,none,5,19,Woman,Right,
8,3,1,0.5837713000000804,['n'],1,right,['u'],1,0.4207810999996582,0.4,1,0,none,5,19,Woman,Right,
9,3,1,0.7662352999996074,['c'],1,left,['e'],0,0.5558651999999711,0.2,0,0,none,5,19,Woman,Right,
10,3,1,0.5346754000001965,['n'],1,right,['u'],1,0.5499536999996053,0.1,1,0,none,5,19,Woman,Right,
11,3,1,0.6520469000006415,['c'],1,left,['u'],1,0.8123004999997647,0.4,1,0,none,5,19,Woman,Right,
12,3,1,1.4342591000004177,['n'],0,left,['u'],1,0.824677800000245,0.2,0,0,none,5,19,Woman,Right,
13,3,1,0.7332139999998617,['n'],1,right,['u'],1,0.4017313999993348,0.1,1,0,none,5,19,Woman,Right,
14,3,1,1.0672395999999935,['n'],0,left,['e'],0,0.8287156999995204,0.2,1,0,none,5,19,Woman,Right,
15,3,1,0.8017266000006202,['n'],1,right,['u'],1,0.46598749999975553,0.4,1,0,none,5,19,Woman,Right,
16,3,1,0.818417500000578,['c'],1,left,['u'],1,0.8218272999993133,0.2,1,0,none,5,19,Woman,Right,
17,3,1,1.1182523999996192,['n'],0,left,['u'],1,0.7982847000002948,0.1,0,0,none,5,19,Woman,Right,
18,3,1,0.8003082000004724,['c'],0,right,['u'],1,0.8369766000005257,0.1,0,0,none,5,19,Woman,Right,
19,3,1,0.7167546000000584,['n'],0,left,['e'],0,0.8613338999994085,0.4,1,0,none,5,19,Woman,Right,
20,3,1,0.884797200000321,['c'],1,left,['u'],1,1.1814381000003777,0.1,1,0,none,5,19,Woman,Right,
21,3,1,1.5999410999993415,['c'],0,right,['e'],0,0.8686286000001928,0.1,1,0,none,5,19,Woman,Right,
22,3,1,0.6506615999996939,['n'],1,right,['u'],1,0.5595548999999664,0.2,1,0,none,5,19,Woman,Right,
23,3,1,0.867648200000076,['c'],0,right,['e'],0,1.0358120000000781,0.4,1,0,none,5,19,Woman,Right,
0,4,1,1.482444399999622,['c'],0,right,['u'],1,1.3873444000000745,0.4,0,0,FastFast,5,19,Woman,Right,
1,4,1,0.8841974000006303,['c'],0,right,['e'],0,0.8678259000007529,0.2,1,0,FastFast,5,19,Woman,Right,
2,4,1,0.867886300000464,['n'],0,left,['e'],0,1.151412899999741,0.2,1,0,FastFast,5,19,Woman,Right,
3,4,1,0.6507474999998522,['c'],1,left,['e'],0,0.921854400000484,0.1,0,0,FastFast,5,19,Woman,Right,
4,4,1,0.5012919000000693,['n'],1,right,['e'],0,0.820281100000102,0.1,0,0,FastFast,5,19,Woman,Right,
5,4,1,0.8001247000001968,['c'],1,left,['e'],0,0.8535252000001492,0.1,0,0,FastFast,5,19,Woman,Right,
6,4,1,0.6836272000000463,['c'],1,left,['e'],0,0.6180793000003177,0.2,0,0,FastFast,5,19,Woman,Right,
7,4,1,0.849579900000208,['c'],0,right,['e'],0,0.6737003999996887,0.2,1,0,FastFast,5,19,Woman,Right,
8,4,1,0.9012026000000333,['n'],1,right,['e'],0,0.7258068999999523,0.2,0,0,FastFast,5,19,Woman,Right,
9,4,1,0.7664882999997644,['c'],0,right,['e'],0,0.5250718999996025,0.1,1,0,FastFast,5,19,Woman,Right,
10,4,1,0.8341752000005727,['c'],0,right,['e'],0,0.7127007999997659,0.2,1,0,FastFast,5,19,Woman,Right,
11,4,1,0.7672490000004473,['c'],0,right,['e'],0,0.49572510000052716,0.1,1,0,FastFast,5,19,Woman,Right,
12,4,1,0.9165517000001273,['n'],1,right,['e'],0,0.45805399999971996,0.4,0,0,FastFast,5,19,Woman,Right,
13,4,1,1.0830579000003127,['c'],1,left,['e'],0,0.6233894999995755,0.1,0,0,FastFast,5,19,Woman,Right,
14,4,1,0.6666032000002815,['n'],0,left,['e'],0,0.6378278000001956,0.2,1,0,FastFast,5,19,Woman,Right,
15,4,1,0.6522071999997934,['c'],0,right,['e'],0,0.5083365000000413,0.2,1,0,FastFast,5,19,Woman,Right,
16,4,1,0.6500141000005897,['c'],1,left,['u'],1,0.9132822999999917,0.4,1,0,FastFast,5,19,Woman,Right,
17,4,1,0.8014640999999756,['n'],1,right,['u'],1,0.7664097999995647,0.4,1,0,FastFast,5,19,Woman,Right,
18,4,1,0.9677928999999494,['c'],0,right,['u'],1,0.5552637000000686,0.2,0,0,FastFast,5,19,Woman,Right,
19,4,1,0.6508380999994188,['n'],1,right,['e'],0,0.7977793999998539,0.2,0,0,FastFast,5,19,Woman,Right,
20,4,1,0.7837448999998742,['n'],0,left,['u'],1,0.43264450000060606,0.4,0,0,FastFast,5,19,Woman,Right,
21,4,1,2.1670883000006143,['c'],1,left,['e'],0,0.7950743000001239,0.1,0,0,FastFast,5,19,Woman,Right,
22,4,1,0.7162250999999742,['n'],0,left,['e'],0,0.6570162999996683,0.1,1,0,FastFast,5,19,Woman,Right,
23,4,1,0.6342880000001969,['n'],1,right,['e'],0,0.6399012000001676,0.4,0,0,FastFast,5,19,Woman,Right,
24,4,1,1.134401200000866,['c'],1,left,['e'],0,0.9076372999998057,0.4,0,0,FastFast,5,19,Woman,Right,
25,4,1,0.9169572000000699,['n'],1,right,['u'],1,0.7899281999998493,0.4,1,0,FastFast,5,19,Woman,Right,
26,4,1,0.602423500000441,['n'],1,right,['u'],1,0.5602582999999868,0.4,1,0,FastFast,5,19,Woman,Right,
27,4,1,1.0683120000003328,['c'],1,left,['e'],0,0.6097915000000285,0.1,0,0,FastFast,5,19,Woman,Right,
28,4,1,0.5502005999996982,['n'],1,right,['e'],0,1.1740258999998332,0.1,0,0,FastFast,5,19,Woman,Right,
29,4,1,0.8184709999995903,['c'],1,left,['e'],0,0.44113760000072944,0.1,0,0,FastFast,5,19,Woman,Right,
30,4,1,1.284406100000524,['c'],0,right,['u'],1,1.6229171000004499,0.1,0,0,FastFast,5,19,Woman,Right,
31,4,1,0.4495641000003161,['c'],1,left,['u'],1,0.5354335000001811,0.1,1,0,FastFast,5,19,Woman,Right,
32,4,1,0.8012021000004097,['n'],0,left,['e'],0,0.7555351000000883,0.1,1,0,FastFast,5,19,Woman,Right,
33,4,1,0.5342797000002975,['n'],1,right,['u'],1,0.86681100000078,0.4,1,0,FastFast,5,19,Woman,Right,
34,4,1,0.7491717000002609,['c'],1,left,['u'],1,0.5177149999999529,0.4,1,0,FastFast,5,19,Woman,Right,
35,4,1,0.5499807000005603,['n'],1,right,['u'],1,0.4773884000005637,0.4,1,0,FastFast,5,19,Woman,Right,
36,4,1,0.6827586000008523,['c'],0,right,['u'],1,0.7215936999991754,0.1,0,0,FastFast,5,19,Woman,Right,
37,4,1,0.5836350999998103,['n'],1,right,['u'],1,0.38314210000044113,0.4,1,0,FastFast,5,19,Woman,Right,
38,4,1,0.8177256999997553,['c'],1,left,['u'],1,0.752738700000009,0.2,1,0,FastFast,5,19,Woman,Right,
39,4,1,0.7167178999998214,['c'],1,left,['u'],1,0.4091350999997303,0.2,1,0,FastFast,5,19,Woman,Right,
40,4,1,0.500872800000252,['n'],0,left,['u'],1,0.34255260000009,0.2,0,0,FastFast,5,19,Woman,Right,
41,4,1,0.5179642000002787,['c'],0,right,['u'],1,0.37516300000061165,0.1,0,0,FastFast,5,19,Woman,Right,
42,4,1,0.800989400000617,['n'],1,right,['u'],1,0.3467099999998027,0.1,1,0,FastFast,5,19,Woman,Right,
43,4,1,0.5841839000004256,['c'],1,left,['u'],1,0.34344379999947705,0.2,1,0,FastFast,5,19,Woman,Right,
44,4,1,0.683165899999949,['n'],1,right,['u'],1,0.33806950000052893,0.2,1,0,FastFast,5,19,Woman,Right,
45,4,1,0.5509154000001217,['c'],1,left,['u'],1,0.3199488999998721,0.1,1,0,FastFast,5,19,Woman,Right,
46,4,1,0.5502385999998296,['n'],1,right,['u'],1,0.3206030000001192,0.1,1,0,FastFast,5,19,Woman,Right,
47,4,1,0.5010453000004418,['c'],1,left,['u'],1,0.289640099999815,0.4,1,0,FastFast,5,19,Woman,Right,
48,4,1,0.6504407000002175,['n'],1,right,['u'],1,0.27054690000022674,0.4,1,0,FastFast,5,19,Woman,Right,
49,4,1,0.5174010000000635,['c'],1,left,['u'],1,0.2570098999995025,0.2,1,0,FastFast,5,19,Woman,Right,
50,4,1,0.5679072000002634,['c'],1,left,['u'],1,0.2426417999995465,0.4,1,0,FastFast,5,19,Woman,Right,
51,4,1,0.4345505999999659,['n'],1,right,['u'],1,0.31422160000056465,0.2,1,0,FastFast,5,19,Woman,Right,
52,4,1,0.5012961000002178,['c'],1,left,['u'],1,0.2997433999998975,0.4,1,0,FastFast,5,19,Woman,Right,
53,4,1,0.5166488000004392,['c'],1,left,['u'],1,0.20621310000024096,0.2,1,0,FastFast,5,19,Woman,Right,
54,4,1,0.7857489999996687,['n'],1,right,['u'],1,0.21639260000029026,0.4,1,0,FastFast,5,19,Woman,Right,
55,4,1,0.5995573999998669,['c'],0,right,['e'],0,1.1628951000002417,0.1,1,0,FastFast,5,19,Woman,Right,
56,4,1,0.7995804000001954,['c'],1,left,['u'],1,0.3824531999998726,0.2,1,0,FastFast,5,19,Woman,Right,
57,4,1,0.6009507999997368,['c'],1,left,['u'],1,0.39299920000030397,0.4,1,0,FastFast,5,19,Woman,Right,
58,4,1,0.484118700000181,['c'],1,left,['u'],1,0.31216369999947347,0.4,1,0,FastFast,5,19,Woman,Right,
59,4,1,0.43537519999972574,['n'],0,left,['u'],1,0.2684950000002573,0.2,0,0,FastFast,5,19,Woman,Right,
0,5,1,0.9504855000004682,['n'],1,right,['u'],1,1.5650532999998177,0.1,1,0,AccFast,5,19,Woman,Right,
1,5,1,0.7344725000002654,['c'],1,left,['u'],1,0.7076060999997935,0.4,1,0,AccFast,5,19,Woman,Right,
2,5,1,1.5344850999999835,['c'],1,left,['u'],1,1.0843148000003566,0.4,1,0,AccFast,5,19,Woman,Right,
3,5,1,0.8840963000002375,['n'],1,right,['u'],1,1.2317801999997755,0.2,1,0,AccFast,5,19,Woman,Right,
4,5,1,1.1509927999995853,['n'],1,right,['u'],1,0.5310444999995525,0.4,1,0,AccFast,5,19,Woman,Right,
5,5,1,1.3340213999999833,['c'],1,left,['u'],1,0.6989220000004934,0.4,1,0,AccFast,5,19,Woman,Right,
6,5,1,1.2679297000004226,['n'],1,right,['u'],1,0.5914073000003555,0.4,1,0,AccFast,5,19,Woman,Right,
7,5,1,0.6496436999996149,['n'],1,right,['u'],1,0.4803256000004694,0.4,1,0,AccFast,5,19,Woman,Right,
8,5,1,0.6005255000000034,['n'],1,right,['u'],1,0.43836390000069514,0.1,1,0,AccFast,5,19,Woman,Right,
9,5,1,0.8846470999997109,['n'],1,right,['u'],1,0.3401153000004342,0.2,1,0,AccFast,5,19,Woman,Right,
10,5,1,0.81799140000021,['n'],0,left,['u'],1,0.4242878999993991,0.1,0,0,AccFast,5,19,Woman,Right,
11,5,1,0.7515173000001596,['c'],1,left,['u'],1,0.36390579999988404,0.1,1,0,AccFast,5,19,Woman,Right,
12,5,1,0.7833928999998534,['n'],1,right,['u'],1,0.28927850000036415,0.4,1,0,AccFast,5,19,Woman,Right,
13,5,1,0.5681300999995074,['n'],0,left,['u'],1,0.5284825000007913,0.1,0,0,AccFast,5,19,Woman,Right,
14,5,1,0.5836711000001742,['n'],1,right,['u'],1,0.2156104999994568,0.4,1,0,AccFast,5,19,Woman,Right,
15,5,1,0.6670319000004383,['n'],1,right,['u'],1,0.2138375000004089,0.4,1,0,AccFast,5,19,Woman,Right,
16,5,1,1.1512087999999494,['n'],1,right,['u'],1,0.30580170000030193,0.4,1,0,AccFast,5,19,Woman,Right,
17,5,1,0.5348358999999618,['n'],1,right,['u'],1,0.2895571999997628,0.1,1,0,AccFast,5,19,Woman,Right,
18,5,1,0.7661060000000361,['c'],1,left,['u'],1,0.2515075000001161,0.2,1,0,AccFast,5,19,Woman,Right,
19,5,1,5.0167271000000255,x,-99,left,none,-99,-99,0.1,-99,1,AccFast,5,19,Woman,Right,
20,5,1,1.0506953000003705,['c'],1,left,['u'],1,0.9305147000004581,0.2,1,0,AccFast,5,19,Woman,Right,
21,5,1,1.2331369000003178,['c'],1,left,['e'],0,0.3347987999995894,0.4,0,0,AccFast,5,19,Woman,Right,
22,5,1,1.7837556000004042,['c'],1,left,['e'],0,0.7802436000001762,0.2,0,0,AccFast,5,19,Woman,Right,
23,5,1,1.5834225999997216,['c'],1,left,['e'],0,0.5933445000000575,0.2,0,0,AccFast,5,19,Woman,Right,
24,5,1,1.5836285999994288,['c'],1,left,['e'],0,0.26840530000026774,0.1,0,0,AccFast,5,19,Woman,Right,
25,5,1,1.266490099999828,['c'],1,left,['e'],0,0.3046883999995771,0.1,0,0,AccFast,5,19,Woman,Right,
26,5,1,0.8847359000001234,['c'],0,right,['e'],0,0.25949149999996735,0.1,1,0,AccFast,5,19,Woman,Right,
27,5,1,1.0826308000005156,['c'],1,left,['e'],0,0.30430709999927785,0.2,0,0,AccFast,5,19,Woman,Right,
28,5,1,2.017999400000008,['n'],0,left,['e'],0,0.7742805999996563,0.4,1,0,AccFast,5,19,Woman,Right,
29,5,1,1.3845816000002742,['c'],0,right,['e'],0,0.7706209999996645,0.4,1,0,AccFast,5,19,Woman,Right,
30,5,1,0.7011774000002333,['n'],1,right,['e'],0,0.6980498999992051,0.4,0,0,AccFast,5,19,Woman,Right,
31,5,1,1.1164763999995557,['c'],0,right,['e'],0,0.6602330999994592,0.1,1,0,AccFast,5,19,Woman,Right,
32,5,1,1.3012860999997429,['c'],0,right,['e'],0,0.4722676000001229,0.2,1,0,AccFast,5,19,Woman,Right,
33,5,1,1.268201500000032,['c'],1,left,['u'],1,0.32545700000082434,0.1,1,0,AccFast,5,19,Woman,Right,
34,5,1,1.100712499999645,['c'],0,right,['e'],0,0.8310011999992639,0.2,1,0,AccFast,5,19,Woman,Right,
35,5,1,0.8834535999994841,['c'],1,left,['e'],0,0.7815378999994209,0.2,0,0,AccFast,5,19,Woman,Right,
36,5,1,1.0180183000002216,['c'],0,right,['e'],0,0.8070866999996724,0.4,1,0,AccFast,5,19,Woman,Right,
37,5,1,1.0673894000001383,['c'],0,right,['e'],0,0.15874580000036076,0.2,1,0,AccFast,5,19,Woman,Right,
38,5,1,1.6177831000004517,['c'],0,right,['e'],0,0.426781199999823,0.1,1,0,AccFast,5,19,Woman,Right,
39,5,1,0.9176225999999588,['c'],1,left,['e'],0,0.21558320000076492,0.2,0,0,AccFast,5,19,Woman,Right,
40,5,1,1.2665501000001314,['c'],1,left,['e'],0,0.17456189999938942,0.4,0,0,AccFast,5,19,Woman,Right,
41,5,1,0.9993043999993461,['c'],0,right,['u'],1,0.19391480000012962,0.2,0,0,AccFast,5,19,Woman,Right,
42,5,1,1.0512894000003143,['c'],1,left,['u'],1,0.29189339999993535,0.2,1,0,AccFast,5,19,Woman,Right,
43,5,1,0.968315299999631,['c'],0,right,['u'],1,0.14750520000052347,0.1,0,0,AccFast,5,19,Woman,Right,
44,5,1,0.8171302000000651,['c'],1,left,['u'],1,0.17507500000010623,0.1,1,0,AccFast,5,19,Woman,Right,
45,5,1,1.7013262999998915,['c'],1,left,['e'],0,0.6945175000000745,0.2,0,0,AccFast,5,19,Woman,Right,
46,5,1,0.9669384999997419,['c'],1,left,['u'],1,0.264280499999586,0.2,1,0,AccFast,5,19,Woman,Right,
47,5,1,1.0845046000004004,['c'],1,left,['e'],0,0.1793571999996857,0.2,0,0,AccFast,5,19,Woman,Right,
48,5,1,1.0012334000002738,['c'],0,right,['e'],0,0.31066009999995003,0.1,1,0,AccFast,5,19,Woman,Right,
49,5,1,0.9344191999998657,['c'],1,left,['e'],0,0.12046169999939593,0.4,0,0,AccFast,5,19,Woman,Right,
50,5,1,0.7323406000004979,['c'],1,left,['e'],0,0.05657580000024609,0.2,0,0,AccFast,5,19,Woman,Right,
51,5,1,1.167945399999553,['c'],0,right,['e'],0,0.041290899999694375,0.1,1,0,AccFast,5,19,Woman,Right,
52,5,1,0.851393700000699,['c'],0,right,['u'],1,0.10413549999975658,0.4,0,0,AccFast,5,19,Woman,Right,
53,5,1,0.9176646999994773,['c'],1,left,['e'],0,0.4019265999995696,0.2,0,0,AccFast,5,19,Woman,Right,
54,5,1,1.018185199999607,['c'],1,left,['u'],1,0.4593494999999166,0.1,1,0,AccFast,5,19,Woman,Right,
55,5,1,0.8672716000000946,['n'],1,right,['u'],1,0.23402420000002166,0.4,1,0,AccFast,5,19,Woman,Right,
56,5,1,0.7836298000001989,['c'],0,right,['u'],1,0.6433057999993252,0.2,0,0,AccFast,5,19,Woman,Right,
57,5,1,0.9857406999999512,['n'],0,left,['u'],1,0.46836810000058904,0.4,0,0,AccFast,5,19,Woman,Right,
58,5,1,0.8179927999999563,['c'],0,right,['u'],1,0.33953530000053433,0.1,0,0,AccFast,5,19,Woman,Right,
59,5,1,0.9839406999999483,['n'],1,right,['e'],0,0.6409091000004992,0.1,0,0,AccFast,5,19,Woman,Right,
0,6,1,1.0820048000005045,['n'],0,left,['u'],1,1.117944399999942,0.4,0,0,AccAcc,5,19,Woman,Right,
1,6,1,1.1520165000001725,['n'],1,right,['u'],1,0.5003237000000809,0.4,1,0,AccAcc,5,19,Woman,Right,
2,6,1,1.750434800000221,['c'],1,left,['e'],0,0.7017020000002958,0.1,0,0,AccAcc,5,19,Woman,Right,
3,6,1,1.1006372000001647,['n'],1,right,['u'],1,1.0631531999997605,0.2,1,0,AccAcc,5,19,Woman,Right,
4,6,1,2.100229599999693,['c'],0,right,['e'],0,0.6999593000000459,0.2,1,0,AccAcc,5,19,Woman,Right,
5,6,1,1.1345073999991655,['n'],1,right,['u'],1,1.2362653999998656,0.4,1,0,AccAcc,5,19,Woman,Right,
6,6,1,0.7667688999999882,['c'],1,left,['u'],1,0.7112203999995472,0.4,1,0,AccAcc,5,19,Woman,Right,
7,6,1,1.450915100000202,['n'],1,right,['e'],0,0.707038300000022,0.1,0,0,AccAcc,5,19,Woman,Right,
8,6,1,1.4339474999997037,['c'],0,right,['e'],0,1.0879240999993272,0.2,1,0,AccAcc,5,19,Woman,Right,
9,6,1,0.9670960000003106,['n'],0,left,['u'],1,0.6722287000002325,0.2,0,0,AccAcc,5,19,Woman,Right,
10,6,1,1.133540200000425,['c'],0,right,['e'],0,0.5226056999999855,0.1,1,0,AccAcc,5,19,Woman,Right,
11,6,1,0.7342071000002761,['n'],1,right,['u'],1,0.474880600000688,0.4,1,0,AccAcc,5,19,Woman,Right,
12,6,1,0.8495202000003701,['c'],1,left,['e'],0,0.3771176000000196,0.2,0,0,AccAcc,5,19,Woman,Right,
13,6,1,0.5665692000002309,['n'],1,right,['u'],1,0.3896027000000686,0.4,1,0,AccAcc,5,19,Woman,Right,
14,6,1,0.8172144999998636,['n'],1,right,['e'],0,0.7280318999992232,0.2,0,0,AccAcc,5,19,Woman,Right,
15,6,1,0.9343309999994744,['c'],0,right,['u'],1,0.9365845000002082,0.1,0,0,AccAcc,5,19,Woman,Right,
16,6,1,0.6848044999997001,['n'],1,right,['u'],1,0.4579647999998997,0.2,1,0,AccAcc,5,19,Woman,Right,
17,6,1,1.217149000000063,['c'],0,right,['e'],0,0.42704570000023523,0.4,1,0,AccAcc,5,19,Woman,Right,
18,6,1,0.849457600000278,['c'],1,left,['u'],1,0.34605759999976726,0.4,1,0,AccAcc,5,19,Woman,Right,
19,6,1,0.7672065999995539,['n'],0,left,['u'],1,0.5108540000001085,0.2,0,0,AccAcc,5,19,Woman,Right,
20,6,1,1.0500609999999142,['c'],1,left,['e'],0,0.45257949999995617,0.2,0,0,AccAcc,5,19,Woman,Right,
21,6,1,0.8013608999999633,['n'],1,right,['u'],1,0.4354536000000735,0.2,1,0,AccAcc,5,19,Woman,Right,
22,6,1,1.7005059000002802,['c'],1,left,['e'],0,0.3844789999993736,0.1,0,0,AccAcc,5,19,Woman,Right,
23,6,1,0.8010125999999218,['n'],0,left,['e'],0,1.012746700000207,0.2,1,0,AccAcc,5,19,Woman,Right,
24,6,1,0.8010879000003115,['n'],0,left,['e'],0,0.7490086000007068,0.1,1,0,AccAcc,5,19,Woman,Right,
25,6,1,0.9345411000003878,['n'],0,left,['e'],0,1.100445099999888,0.4,1,0,AccAcc,5,19,Woman,Right,
26,6,1,1.3156786999998076,['c'],1,left,['u'],1,0.7994160999996893,0.4,1,0,AccAcc,5,19,Woman,Right,
27,6,1,0.884552800000165,['n'],1,right,['u'],1,0.41302639999958046,0.2,1,0,AccAcc,5,19,Woman,Right,
28,6,1,1.2499213000000964,['c'],0,right,['u'],1,1.277425399999629,0.1,0,0,AccAcc,5,19,Woman,Right,
29,6,1,0.6834260999994513,['c'],1,left,['u'],1,0.3217998999998599,0.2,1,0,AccAcc,5,19,Woman,Right,
30,6,1,0.967271399999845,['c'],1,left,['u'],1,1.1688644000005297,0.4,1,0,AccAcc,5,19,Woman,Right,
31,6,1,0.8350185999997848,['n'],0,left,['u'],1,2.546348599999874,0.2,0,0,AccAcc,5,19,Woman,Right,
32,6,1,1.0860210000000734,['n'],1,right,['u'],1,0.7398708000000624,0.4,1,0,AccAcc,5,19,Woman,Right,
33,6,1,0.6847092999996676,['n'],0,left,['u'],1,0.5252562000005128,0.2,0,0,AccAcc,5,19,Woman,Right,
34,6,1,0.6339096000001518,['c'],0,right,['e'],0,1.1710191000001942,0.2,1,0,AccAcc,5,19,Woman,Right,
35,6,1,0.668280799999593,['n'],1,right,['u'],1,0.2504732999996122,0.1,1,0,AccAcc,5,19,Woman,Right,
36,6,1,0.8347588999995423,['n'],1,right,['u'],1,0.17810170000029757,0.1,1,0,AccAcc,5,19,Woman,Right,
37,6,1,0.7493092000004253,['n'],1,right,['u'],1,0.1760188999996899,0.4,1,0,AccAcc,5,19,Woman,Right,
38,6,1,0.6021811000000525,['n'],0,left,['u'],1,0.09874949999993987,0.4,0,0,AccAcc,5,19,Woman,Right,
39,6,1,1.184635999999955,['c'],1,left,['u'],1,0.8177315999992061,0.2,1,0,AccAcc,5,19,Woman,Right,
40,6,1,1.1004003999996712,['c'],1,left,['u'],1,0.6315363000003344,0.1,1,0,AccAcc,5,19,Woman,Right,
41,6,1,0.6346371999998155,['n'],1,right,['u'],1,0.11912299999949028,0.1,1,0,AccAcc,5,19,Woman,Right,
42,6,1,0.5843985000001339,['n'],0,left,['u'],1,0.12563090000003285,0.1,0,0,AccAcc,5,19,Woman,Right,
43,6,1,0.835283100000197,['c'],1,left,['e'],0,0.08967649999976857,0.2,0,0,AccAcc,5,19,Woman,Right,
44,6,1,0.6328717999995206,['n'],1,right,['u'],1,0.1286197000008542,0.1,1,0,AccAcc,5,19,Woman,Right,
45,6,1,1.1344950000002427,['n'],0,left,['u'],1,0.15941389999989042,0.4,0,0,AccAcc,5,19,Woman,Right,
46,6,1,0.6345813999996608,['n'],0,left,['u'],1,0.2103184000006877,0.4,0,0,AccAcc,5,19,Woman,Right,
47,6,1,0.8005685999996786,['n'],1,right,['u'],1,0.22124780000012834,0.1,1,0,AccAcc,5,19,Woman,Right,
48,6,1,0.6006772000000637,['n'],0,left,['u'],1,0.23821380000026693,0.1,0,0,AccAcc,5,19,Woman,Right,
49,6,1,0.6010683999993489,['n'],1,right,['u'],1,0.191140699999778,0.1,1,0,AccAcc,5,19,Woman,Right,
50,6,1,0.7179249999999229,['n'],0,left,['u'],1,0.2854016999999658,0.4,0,0,AccAcc,5,19,Woman,Right,
51,6,1,0.7013206000001446,['n'],1,right,['u'],1,0.18441749999965396,0.2,1,0,AccAcc,5,19,Woman,Right,
52,6,1,0.767309099999693,['n'],0,left,['u'],1,0.14876100000037695,0.2,0,0,AccAcc,5,19,Woman,Right,
53,6,1,0.5842376999999033,['n'],1,right,['u'],1,0.10551919999943493,0.4,1,0,AccAcc,5,19,Woman,Right,
54,6,1,0.46807239999998274,['n'],1,right,['u'],1,0.1333162999999331,0.1,1,0,AccAcc,5,19,Woman,Right,
55,6,1,0.5835751000004166,['n'],1,right,['u'],1,0.23462819999986095,0.4,1,0,AccAcc,5,19,Woman,Right,
56,6,1,0.5500708999998096,['n'],0,left,['u'],1,0.22258740000052057,0.1,0,0,AccAcc,5,19,Woman,Right,
57,6,1,0.5840491999997539,['n'],1,right,['u'],1,0.19220450000011624,0.1,1,0,AccAcc,5,19,Woman,Right,
58,6,1,0.6669534000002386,['n'],0,left,['u'],1,0.09716610000032233,0.1,0,0,AccAcc,5,19,Woman,Right,
59,6,1,0.767564300000231,['n'],0,left,['u'],1,0.09594240000024001,0.4,0,0,AccAcc,5,19,Woman,Right,
0,7,1,0.6678324000004068,['n'],1,right,['u'],1,0.9786700000004203,0.4,1,0,FastAcc,5,19,Woman,Right,
1,7,1,0.6510728000002928,['c'],1,left,['e'],0,1.2523041999993438,0.4,0,0,FastAcc,5,19,Woman,Right,
2,7,1,0.43407289999959175,['n'],0,left,['u'],1,1.6995052000002033,0.1,0,0,FastAcc,5,19,Woman,Right,
3,7,1,0.5328005999999732,['c'],0,right,['u'],1,0.6042417999997269,0.2,0,0,FastAcc,5,19,Woman,Right,
4,7,1,0.4845705999996426,['n'],1,right,['u'],1,1.346770099999958,0.1,1,0,FastAcc,5,19,Woman,Right,
5,7,1,0.5167865000003076,['n'],0,left,['u'],1,0.7463065000001734,0.2,0,0,FastAcc,5,19,Woman,Right,
6,7,1,0.41670239999984915,['n'],1,right,['u'],1,0.830960000000232,0.4,1,0,FastAcc,5,19,Woman,Right,
7,7,1,0.5184791000001496,['c'],0,right,['e'],0,0.778641100000641,0.4,1,0,FastAcc,5,19,Woman,Right,
8,7,1,0.534633300000678,['n'],1,right,['u'],1,0.5839906999999585,0.2,1,0,FastAcc,5,19,Woman,Right,
9,7,1,0.5014813000007052,['n'],0,left,['u'],1,0.5433216999999786,0.2,0,0,FastAcc,5,19,Woman,Right,
10,7,1,0.8181499000002077,['c'],1,left,['e'],0,0.60431299999982,0.2,0,0,FastAcc,5,19,Woman,Right,
11,7,1,0.48491829999966285,['n'],1,right,['u'],1,0.7702564000001075,0.2,1,0,FastAcc,5,19,Woman,Right,
12,7,1,0.5829496000005747,['n'],1,right,['u'],1,0.15882779999992636,0.1,1,0,FastAcc,5,19,Woman,Right,
13,7,1,0.5334576000004745,['n'],1,right,['u'],1,0.165496699999494,0.2,1,0,FastAcc,5,19,Woman,Right,
14,7,1,0.5505966000000626,['n'],1,right,['u'],1,0.36326699999972334,0.4,1,0,FastAcc,5,19,Woman,Right,
15,7,1,0.5345929999994041,['n'],0,left,['u'],1,0.3131751000000804,0.2,0,0,FastAcc,5,19,Woman,Right,
16,7,1,0.5178222000004098,['n'],1,right,['u'],1,0.1862606999993659,0.1,1,0,FastAcc,5,19,Woman,Right,
17,7,1,0.5666124999997919,['n'],1,right,['u'],1,0.15844700000070588,0.1,1,0,FastAcc,5,19,Woman,Right,
18,7,1,0.5170515999998315,['n'],1,right,['u'],1,0.6301168999998481,0.1,1,0,FastAcc,5,19,Woman,Right,
19,7,1,0.5850032000007559,['n'],0,left,['u'],1,0.1996994999999515,0.4,0,0,FastAcc,5,19,Woman,Right,
20,7,1,0.6515304000004107,['n'],1,right,['u'],1,0.5358982999996442,0.2,1,0,FastAcc,5,19,Woman,Right,
21,7,1,0.48430830000052083,['n'],0,left,['u'],1,0.19353059999957622,0.2,0,0,FastAcc,5,19,Woman,Right,
22,7,1,0.5339888999997129,['n'],0,left,['u'],1,0.43924189999961527,0.1,0,0,FastAcc,5,19,Woman,Right,
23,7,1,0.5998053000002983,['n'],1,right,['u'],1,0.3364168999996764,0.4,1,0,FastAcc,5,19,Woman,Right,
24,7,1,0.4852571999999782,['n'],0,left,['u'],1,0.3695533999998588,0.2,0,0,FastAcc,5,19,Woman,Right,
25,7,1,0.4508246000004874,['n'],1,right,['u'],1,0.2592439000000013,0.1,1,0,FastAcc,5,19,Woman,Right,
26,7,1,0.5671087000000625,['n'],0,left,['u'],1,0.26084650000029797,0.4,0,0,FastAcc,5,19,Woman,Right,
27,7,1,0.5660816000008708,['n'],1,right,['u'],1,0.21577119999983552,0.2,1,0,FastAcc,5,19,Woman,Right,
28,7,1,0.46712360000037734,['n'],0,left,['u'],1,0.6539608999992197,0.1,0,0,FastAcc,5,19,Woman,Right,
29,7,1,0.4685435999999754,['n'],1,right,['u'],1,0.4190253999995548,0.2,1,0,FastAcc,5,19,Woman,Right,
30,7,1,0.48344189999988885,['n'],0,left,['u'],1,0.40198080000027403,0.4,0,0,FastAcc,5,19,Woman,Right,
31,7,1,0.451330599999892,['n'],0,left,['u'],1,0.3214699999998629,0.1,0,0,FastAcc,5,19,Woman,Right,
32,7,1,0.467953899999884,['n'],0,left,['u'],1,0.1975401999998212,0.2,0,0,FastAcc,5,19,Woman,Right,
33,7,1,0.4027522999995199,['n'],0,left,['u'],1,0.1746305000006032,0.1,0,0,FastAcc,5,19,Woman,Right,
34,7,1,0.3675094000000172,['n'],0,left,['u'],1,0.1889273000006142,0.1,0,0,FastAcc,5,19,Woman,Right,
35,7,1,0.5495811999999205,['n'],0,left,['u'],1,2.3218878000006953,0.4,0,0,FastAcc,5,19,Woman,Right,
36,7,1,0.5006292999996731,['n'],1,right,['u'],1,0.1782974000007016,0.4,1,0,FastAcc,5,19,Woman,Right,
37,7,1,0.5356108999994831,['n'],1,right,['u'],1,0.2333011999999144,0.4,1,0,FastAcc,5,19,Woman,Right,
38,7,1,0.3988624000003256,['n'],1,right,['u'],1,0.17826850000074046,0.1,1,0,FastAcc,5,19,Woman,Right,
39,7,1,0.36588320000009844,['n'],1,right,['u'],1,0.09505040000021836,0.2,1,0,FastAcc,5,19,Woman,Right,
40,7,1,0.41599540000061097,['n'],0,left,['u'],1,0.09336590000020806,0.1,0,0,FastAcc,5,19,Woman,Right,
41,7,1,0.48272180000003573,['n'],0,left,['u'],1,0.07287769999948068,0.4,0,0,FastAcc,5,19,Woman,Right,
42,7,1,0.4492969000002631,['n'],0,left,['u'],1,0.10246779999943101,0.4,0,0,FastAcc,5,19,Woman,Right,
43,7,1,0.49902280000060273,['n'],0,left,['u'],1,0.09660630000053061,0.1,0,0,FastAcc,5,19,Woman,Right,
44,7,1,0.3508420999996815,['n'],0,left,['u'],1,2.1119097999999212,0.1,0,0,FastAcc,5,19,Woman,Right,
45,7,1,0.4017812000001868,['n'],1,right,['u'],1,0.09330909999971482,0.4,1,0,FastAcc,5,19,Woman,Right,
46,7,1,0.533237900000131,['n'],0,left,['u'],1,0.10430550000000949,0.2,0,0,FastAcc,5,19,Woman,Right,
47,7,1,0.500616500000433,['n'],0,left,['u'],1,0.354400700000042,0.2,0,0,FastAcc,5,19,Woman,Right,
48,7,1,0.4528063999996448,['n'],1,right,['u'],1,0.1966355000004114,0.4,1,0,FastAcc,5,19,Woman,Right,
49,7,1,0.5678042000008645,['n'],1,right,['u'],1,0.15092249999997875,0.4,1,0,FastAcc,5,19,Woman,Right,
50,7,1,0.4344544000005044,['n'],1,right,['u'],1,0.13061720000041532,0.1,1,0,FastAcc,5,19,Woman,Right,
51,7,1,0.9493093999999473,['n'],0,left,['u'],1,0.1861338999997315,0.1,0,0,FastAcc,5,19,Woman,Right,
52,7,1,1.00089029999981,['n'],1,right,['e'],0,0.6516968999994788,0.2,0,0,FastAcc,5,19,Woman,Right,
53,7,1,0.717236899999989,['c'],0,right,['e'],0,0.7440882999999303,0.4,1,0,FastAcc,5,19,Woman,Right,
54,7,1,0.6499414999998407,['c'],1,left,['u'],1,0.4512555000001157,0.4,1,0,FastAcc,5,19,Woman,Right,
55,7,1,1.5654004999996687,['c'],1,left,['e'],0,0.5974114000000554,0.1,0,0,FastAcc,5,19,Woman,Right,
56,7,1,0.44906670000000304,['n'],1,right,['u'],1,0.3656636999994589,0.2,1,0,FastAcc,5,19,Woman,Right,
57,7,1,0.4523374000000331,['c'],1,left,['e'],0,1.213914200000545,0.2,0,0,FastAcc,5,19,Woman,Right,
58,7,1,0.5165710000001127,['c'],0,right,['e'],0,1.2751663000008193,0.4,1,0,FastAcc,5,19,Woman,Right,
59,7,1,0.5168624999996609,['n'],0,left,['e'],0,0.6635211000002528,0.1,1,0,FastAcc,5,19,Woman,Right,
0,8,1,1.1013027999997576,['c'],1,left,['u'],1,1.4688257999996495,0.2,1,0,FastFast,5,19,Woman,Right,
1,8,1,0.6002726999995502,['n'],0,left,['u'],1,0.2848952000003919,0.1,0,0,FastFast,5,19,Woman,Right,
2,8,1,0.5162113999995199,['c'],0,right,['e'],0,0.6079637000002549,0.4,1,0,FastFast,5,19,Woman,Right,
3,8,1,0.9173230000005788,['c'],1,left,['e'],0,0.1640954000004058,0.2,0,0,FastFast,5,19,Woman,Right,
4,8,1,0.5173666999999114,['n'],0,left,['u'],1,0.15512390000003506,0.2,0,0,FastFast,5,19,Woman,Right,
5,8,1,0.5826133999999001,['n'],0,left,['u'],1,0.1295140000001993,0.1,0,0,FastFast,5,19,Woman,Right,
6,8,1,0.4666292000001704,['c'],1,left,['u'],1,0.3962485000001834,0.1,1,0,FastFast,5,19,Woman,Right,
7,8,1,0.6015275999998266,['n'],0,left,['u'],1,0.11802630000056524,0.1,0,0,FastFast,5,19,Woman,Right,
8,8,1,0.8185914999994566,['c'],1,left,['e'],0,0.3220296999998027,0.2,0,0,FastFast,5,19,Woman,Right,
9,8,1,0.8169179999995322,['c'],1,left,['e'],0,0.16851459999998042,0.2,0,0,FastFast,5,19,Woman,Right,
10,8,1,0.4673475999998118,['n'],1,right,['u'],1,0.19208099999923434,0.4,1,0,FastFast,5,19,Woman,Right,
11,8,1,1.1319729999995616,['c'],1,left,['u'],1,0.19103829999949085,0.4,1,0,FastFast,5,19,Woman,Right,
12,8,1,0.5356824000000415,['n'],1,right,['u'],1,0.1153176000007079,0.4,1,0,FastFast,5,19,Woman,Right,
13,8,1,0.5511670999994749,['n'],1,right,['e'],0,0.6189097999995283,0.2,0,0,FastFast,5,19,Woman,Right,
14,8,1,0.9667439999993803,['c'],0,right,['u'],1,0.3185743999993065,0.2,0,0,FastFast,5,19,Woman,Right,
15,8,1,0.667910799999845,['n'],1,right,['u'],1,0.05757110000013199,0.4,1,0,FastFast,5,19,Woman,Right,
16,8,1,2.0676609000001918,['c'],0,right,['e'],0,1.0143093999995472,0.2,1,0,FastFast,5,19,Woman,Right,
17,8,1,0.5338271000000532,['n'],1,right,['u'],1,0.10786779999943974,0.4,1,0,FastFast,5,19,Woman,Right,
18,8,1,0.6667894000001979,['n'],1,right,['u'],1,0.09461170000031416,0.4,1,0,FastFast,5,19,Woman,Right,
19,8,1,0.8175682000000961,['c'],0,right,['u'],1,0.28465890000006766,0.1,0,0,FastFast,5,19,Woman,Right,
20,8,1,1.0992042999996556,['c'],0,right,['u'],1,0.24841060000017023,0.1,0,0,FastFast,5,19,Woman,Right,
21,8,1,1.0509369000001243,['c'],0,right,['u'],1,0.549999700000626,0.2,0,0,FastFast,5,19,Woman,Right,
22,8,1,1.0833754000004774,['c'],1,left,['u'],1,0.18359430000055,0.1,1,0,FastFast,5,19,Woman,Right,
23,8,1,0.8174701999996614,['c'],1,left,['u'],1,0.25733059999947727,0.4,1,0,FastFast,5,19,Woman,Right,
24,8,1,0.716807400000107,['n'],1,right,['u'],1,0.3173737999995865,0.4,1,0,FastFast,5,19,Woman,Right,
25,8,1,0.6012614000001122,['c'],1,left,['u'],1,0.1554067999995823,0.4,1,0,FastFast,5,19,Woman,Right,
26,8,1,0.8501233999995748,['n'],0,left,['e'],0,0.7894248000002335,0.2,1,0,FastFast,5,19,Woman,Right,
27,8,1,1.351165399999445,['n'],1,right,['u'],1,0.2258719999999812,0.1,1,0,FastFast,5,19,Woman,Right,
28,8,1,0.6509869000001345,['n'],1,right,['u'],1,0.09722830000009708,0.1,1,0,FastFast,5,19,Woman,Right,
29,8,1,1.650752300000022,['c'],1,left,['e'],0,0.39896820000012667,0.1,0,0,FastFast,5,19,Woman,Right,
30,8,1,0.5002819000001182,['n'],1,right,['u'],1,0.09339099999942846,0.4,1,0,FastFast,5,19,Woman,Right,
31,8,1,0.6166409999996176,['n'],0,left,['u'],1,0.01966990000073565,0.1,0,0,FastFast,5,19,Woman,Right,
32,8,1,0.6982914999998684,['n'],0,left,['u'],1,0.07263799999964249,0.1,0,0,FastFast,5,19,Woman,Right,
33,8,1,0.6491701000004468,['c'],1,left,['e'],0,0.07853780000004917,0.2,0,0,FastFast,5,19,Woman,Right,
34,8,1,0.667127700000492,['c'],1,left,['u'],1,0.13042880000011792,0.4,1,0,FastFast,5,19,Woman,Right,
35,8,1,0.6348738999995476,['n'],0,left,['u'],1,0.006621900000027381,0.1,0,0,FastFast,5,19,Woman,Right,
36,8,1,0.5008251000008386,['c'],1,left,['u'],1,0.16335760000038135,0.4,1,0,FastFast,5,19,Woman,Right,
37,8,1,0.6333665000001929,['n'],0,left,['u'],1,0.08621149999999034,0.1,0,0,FastFast,5,19,Woman,Right,
38,8,1,0.5508150000005116,['c'],0,right,['u'],1,0.03133149999939633,0.1,0,0,FastFast,5,19,Woman,Right,
39,8,1,0.5847313999993276,['n'],1,right,['u'],1,1.0804885999996259,0.2,1,0,FastFast,5,19,Woman,Right,
40,8,1,1.5673284999993484,['n'],1,right,['u'],1,0.8966902000001937,0.4,1,0,FastFast,5,19,Woman,Right,
41,8,1,1.0017656999998508,['c'],1,left,['u'],1,0.1524680000002263,0.1,1,0,FastFast,5,19,Woman,Right,
42,8,1,0.517685399999209,['n'],1,right,['u'],1,0.014634900000601192,0.4,1,0,FastFast,5,19,Woman,Right,
43,8,1,0.7332746000001862,['c'],1,left,['u'],1,0.08317630000055942,0.4,1,0,FastFast,5,19,Woman,Right,
44,8,1,0.6170185999999376,['c'],1,left,['u'],1,0.04189609999957611,0.1,1,0,FastFast,5,19,Woman,Right,
45,8,1,0.4512147000004916,['n'],1,right,['u'],1,0.6800624999996217,0.2,1,0,FastFast,5,19,Woman,Right,
46,8,1,0.6342330999996193,['n'],1,right,['u'],1,0.03762989999995625,0.4,1,0,FastFast,5,19,Woman,Right,
47,8,1,0.6844332999999097,['n'],1,right,['u'],1,0.1076571999992666,0.2,1,0,FastFast,5,19,Woman,Right,
48,8,1,0.7846923000006427,['c'],1,left,['u'],1,1.0186854000003223,0.1,1,0,FastFast,5,19,Woman,Right,
49,8,1,0.7168660999996064,['n'],0,left,['u'],1,0.05517310000050202,0.1,0,0,FastFast,5,19,Woman,Right,
50,8,1,0.4014226999997845,['c'],0,right,['e'],0,0.983703400000195,0.2,1,0,FastFast,5,19,Woman,Right,
51,8,1,0.4674419000002672,['n'],0,left,['u'],1,0.01635950000036246,0.2,0,0,FastFast,5,19,Woman,Right,
52,8,1,0.46817709999959334,['n'],1,right,['u'],1,0.8786980000004405,0.2,1,0,FastFast,5,19,Woman,Right,
53,8,1,0.6674390999996831,['n'],0,left,['e'],0,0.6592894999994314,0.4,1,0,FastFast,5,19,Woman,Right,
54,8,1,0.7660039000002143,['n'],1,right,['u'],1,0.02963409999938449,0.2,1,0,FastFast,5,19,Woman,Right,
55,8,1,0.5340591999993194,['n'],1,right,['u'],1,0.8081710000005842,0.2,1,0,FastFast,5,19,Woman,Right,
56,8,1,0.5157509999999093,['n'],1,right,['u'],1,0.0071883999999045045,0.4,1,0,FastFast,5,19,Woman,Right,
57,8,1,0.5175030999998853,['n'],1,right,['u'],1,0.01999379999961093,0.2,1,0,FastFast,5,19,Woman,Right,
58,8,1,0.9337733000002117,['n'],0,left,['u'],1,0.5117316999994728,0.4,0,0,FastFast,5,19,Woman,Right,
59,8,1,0.6166047999995499,['n'],1,right,['u'],1,0.7253031999998711,0.1,1,0,FastFast,5,19,Woman,Right,
0,9,1,1.2995396000005712,['n'],0,left,['u'],1,0.8299330999998347,0.1,0,0,AccFast,5,19,Woman,Right,
1,9,1,0.5335135000004811,['n'],1,right,['u'],1,0.45624190000035014,0.1,1,0,AccFast,5,19,Woman,Right,
2,9,1,0.5520010000000184,['c'],1,left,['u'],1,0.22672569999940606,0.4,1,0,AccFast,5,19,Woman,Right,
3,9,1,0.5679558000001634,['n'],0,left,['u'],1,0.27742750000015803,0.1,0,0,AccFast,5,19,Woman,Right,
4,9,1,0.7343089999994845,['n'],1,right,['u'],1,0.1115548999996463,0.1,1,0,AccFast,5,19,Woman,Right,
5,9,1,0.6017515000003186,['n'],1,right,['u'],1,0.1334353000002011,0.1,1,0,AccFast,5,19,Woman,Right,
6,9,1,0.6007713999997577,['n'],1,right,['u'],1,0.1389523999996527,0.2,1,0,AccFast,5,19,Woman,Right,
7,9,1,0.48435390000031475,['n'],1,right,['u'],1,0.1157668999994712,0.4,1,0,AccFast,5,19,Woman,Right,
8,9,1,0.6335385000002134,['n'],1,right,['u'],1,0.104650500000389,0.4,1,0,AccFast,5,19,Woman,Right,
9,9,1,1.234423500000048,['c'],1,left,['e'],0,0.4370899000005011,0.2,0,0,AccFast,5,19,Woman,Right,
10,9,1,1.217822999999953,['c'],1,left,['u'],1,0.18160750000060943,0.4,1,0,AccFast,5,19,Woman,Right,
11,9,1,0.567283999999745,['n'],1,right,['u'],1,0.10591389999990497,0.1,1,0,AccFast,5,19,Woman,Right,
12,9,1,0.5999902000003203,['c'],1,left,['e'],0,0.14463700000032986,0.1,0,0,AccFast,5,19,Woman,Right,
13,9,1,0.9503998999998657,['c'],1,left,['u'],1,0.23168110000005981,0.1,1,0,AccFast,5,19,Woman,Right,
14,9,1,0.9012818999999581,['n'],0,left,['u'],1,0.3797819999999774,0.2,0,0,AccFast,5,19,Woman,Right,
15,9,1,1.1009451999998419,['c'],0,right,['e'],0,0.5313062999994145,0.2,1,0,AccFast,5,19,Woman,Right,
16,9,1,0.5345155999993949,['n'],1,right,['u'],1,0.282416000000012,0.1,1,0,AccFast,5,19,Woman,Right,
17,9,1,0.5675178999999844,['c'],0,right,['u'],1,0.23606460000064544,0.2,0,0,AccFast,5,19,Woman,Right,
18,9,1,1.0512333999995462,['c'],1,left,['e'],0,0.521648400000231,0.2,0,0,AccFast,5,19,Woman,Right,
19,9,1,0.7838711000003968,['c'],0,right,['u'],1,0.13658889999987878,0.2,0,0,AccFast,5,19,Woman,Right,
20,9,1,1.1846463000001677,['c'],1,left,['u'],1,0.19745349999993778,0.2,1,0,AccFast,5,19,Woman,Right,
21,9,1,0.6999316000001272,['c'],1,left,['u'],1,0.0686822999996366,0.4,1,0,AccFast,5,19,Woman,Right,
22,9,1,0.7676154999999198,['n'],1,right,['u'],1,0.021343999999771768,0.2,1,0,AccFast,5,19,Woman,Right,
23,9,1,1.0992441999997027,['c'],0,right,['e'],0,0.5871444000003976,0.1,1,0,AccFast,5,19,Woman,Right,
24,9,1,0.584361700000045,['n'],1,right,['u'],1,0.04606619999958639,0.4,1,0,AccFast,5,19,Woman,Right,
25,9,1,1.0687394000005952,['c'],1,left,['e'],0,0.11671639999985928,0.2,0,0,AccFast,5,19,Woman,Right,
26,9,1,0.8492901999998139,['n'],1,right,['u'],1,0.06388139999944542,0.4,1,0,AccFast,5,19,Woman,Right,
27,9,1,1.0686938999997437,['c'],0,right,['e'],0,0.18023309999989579,0.1,1,0,AccFast,5,19,Woman,Right,
28,9,1,1.0854932000002009,['c'],0,right,['e'],0,0.05187200000000303,0.1,1,0,AccFast,5,19,Woman,Right,
29,9,1,0.7851270999999542,['c'],0,right,['u'],1,0.164585999999872,0.2,0,0,AccFast,5,19,Woman,Right,
30,9,1,0.9179786000004242,['c'],1,left,['e'],0,0.13990600000033737,0.1,0,0,AccFast,5,19,Woman,Right,
31,9,1,0.7009419000005437,['c'],1,left,['e'],0,0.04460470000049099,0.2,0,0,AccFast,5,19,Woman,Right,
32,9,1,0.7845775000005233,['c'],0,right,['e'],0,0.095373500000278,0.1,1,0,AccFast,5,19,Woman,Right,
33,9,1,0.717319100000168,['n'],0,left,['e'],0,1.216849800000091,0.2,1,0,AccFast,5,19,Woman,Right,
34,9,1,1.3343493000002127,['c'],1,left,['u'],1,0.6050143999991633,0.2,1,0,AccFast,5,19,Woman,Right,
35,9,1,0.817872399999942,['n'],1,right,['e'],0,0.8065693999997166,0.4,0,0,AccFast,5,19,Woman,Right,
36,9,1,0.9683642999998483,['n'],1,right,['u'],1,0.8023280000006707,0.1,1,0,AccFast,5,19,Woman,Right,
37,9,1,1.0173946000004435,['n'],0,left,['u'],1,0.3486634999999296,0.1,0,0,AccFast,5,19,Woman,Right,
38,9,1,1.0515642999998818,['c'],1,left,['u'],1,0.5823485000000801,0.4,1,0,AccFast,5,19,Woman,Right,
39,9,1,0.6853479999999763,['n'],1,right,['u'],1,0.13389100000040344,0.2,1,0,AccFast,5,19,Woman,Right,
40,9,1,0.7328006999996433,['n'],1,right,['e'],0,0.3265047000004415,0.4,0,0,AccFast,5,19,Woman,Right,
41,9,1,1.0677582999996957,['c'],1,left,['u'],1,0.20957439999983762,0.4,1,0,AccFast,5,19,Woman,Right,
42,9,1,0.7181673000004594,['n'],0,left,['e'],0,0.43007959999977174,0.2,1,0,AccFast,5,19,Woman,Right,
43,9,1,0.651119799999833,['n'],0,left,['u'],1,0.22912120000000868,0.1,0,0,AccFast,5,19,Woman,Right,
44,9,1,0.8333689000000959,['n'],1,right,['u'],1,0.22060379999948054,0.4,1,0,AccFast,5,19,Woman,Right,
45,9,1,0.4681503000001612,['c'],1,left,['u'],1,0.13155969999934314,0.4,1,0,AccFast,5,19,Woman,Right,
46,9,1,0.9165869999997085,['n'],1,right,['u'],1,0.1888754000001427,0.4,1,0,AccFast,5,19,Woman,Right,
47,9,1,1.034668000000238,['c'],0,right,['e'],0,0.5255313000006936,0.2,1,0,AccFast,5,19,Woman,Right,
48,9,1,0.9178994000003513,['c'],1,left,['e'],0,0.07072750000043015,0.2,0,0,AccFast,5,19,Woman,Right,
49,9,1,1.0832685999994283,['n'],0,left,['e'],0,0.0911487000003035,0.4,1,0,AccFast,5,19,Woman,Right,
50,9,1,0.7185427000003983,['n'],1,right,['u'],1,0.06104120000054536,0.2,1,0,AccFast,5,19,Woman,Right,
51,9,1,1.2344536000000517,['n'],0,left,['e'],0,0.15684740000051534,0.1,1,0,AccFast,5,19,Woman,Right,
52,9,1,0.751004899999316,['n'],1,right,['u'],1,0.02661219999936293,0.2,1,0,AccFast,5,19,Woman,Right,
53,9,1,0.8011110000006738,['n'],0,left,['e'],0,1.4358544999995502,0.4,1,0,AccFast,5,19,Woman,Right,
54,9,1,0.7343143999996755,['n'],1,right,['u'],1,0.05564409999988129,0.1,1,0,AccFast,5,19,Woman,Right,
55,9,1,0.8179147000000739,['c'],1,left,['e'],0,0.05612250000012864,0.4,0,0,AccFast,5,19,Woman,Right,
56,9,1,0.8662313999993785,['c'],1,left,['u'],1,0.13348779999978433,0.4,1,0,AccFast,5,19,Woman,Right,
57,9,1,0.8016942999993262,['n'],0,left,['u'],1,0.049815899999885005,0.4,0,0,AccFast,5,19,Woman,Right,
58,9,1,1.6512254999997822,['c'],0,right,['e'],0,0.3683229999996911,0.1,1,0,AccFast,5,19,Woman,Right,
59,9,1,0.9852044999997815,['n'],0,left,['e'],0,0.3644691999998031,0.4,1,0,AccFast,5,19,Woman,Right,
0,10,1,1.0343962000006286,['c'],0,right,['u'],1,0.9187485000002198,0.1,0,0,AccAcc,5,19,Woman,Right,
1,10,1,0.7843599000007089,['c'],1,left,['u'],1,0.9658561999995072,0.2,1,0,AccAcc,5,19,Woman,Right,
2,10,1,0.9017659000001004,['c'],1,left,['u'],1,0.9405521000007866,0.4,1,0,AccAcc,5,19,Woman,Right,
3,10,1,0.7512467999995351,['n'],1,right,['u'],1,0.828008299999965,0.4,1,0,AccAcc,5,19,Woman,Right,
4,10,1,0.7506881999997859,['c'],1,left,['u'],1,0.6712658999995256,0.2,1,0,AccAcc,5,19,Woman,Right,
5,10,1,1.4163510999997015,['c'],1,left,['e'],0,0.6872160999992047,0.4,0,0,AccAcc,5,19,Woman,Right,
6,10,1,0.7663990000000922,['n'],1,right,['u'],1,0.5515185999993264,0.1,1,0,AccAcc,5,19,Woman,Right,
7,10,1,1.0843708000002152,['c'],0,right,['e'],0,0.7445695999995223,0.2,1,0,AccAcc,5,19,Woman,Right,
8,10,1,0.7337290000004941,['n'],1,right,['u'],1,0.7673100000001796,0.2,1,0,AccAcc,5,19,Woman,Right,
9,10,1,1.9012157000006482,['c'],0,right,['e'],0,0.39095240000006015,0.1,1,0,AccAcc,5,19,Woman,Right,
10,10,1,2.300829099999646,['c'],1,left,['e'],0,0.5742261999994298,0.2,0,0,AccAcc,5,19,Woman,Right,
11,10,1,1.2175800000004529,['c'],0,right,['e'],0,0.8733761000003142,0.2,1,0,AccAcc,5,19,Woman,Right,
12,10,1,0.7015363999998954,['c'],1,left,['u'],1,0.556900399999904,0.4,1,0,AccAcc,5,19,Woman,Right,
13,10,1,0.6167295000004742,['n'],1,right,['u'],1,0.5290970999994897,0.4,1,0,AccAcc,5,19,Woman,Right,
14,10,1,0.7844396000000415,['c'],0,right,['u'],1,0.3022532000004503,0.2,0,0,AccAcc,5,19,Woman,Right,
15,10,1,1.318213300000025,['c'],1,left,['e'],0,0.6078415000001769,0.4,0,0,AccAcc,5,19,Woman,Right,
16,10,1,0.9842785000000731,['c'],0,right,['e'],0,0.6277423000001363,0.1,1,0,AccAcc,5,19,Woman,Right,
17,10,1,0.7171392999998716,['n'],1,right,['u'],1,0.5438510000003589,0.2,1,0,AccAcc,5,19,Woman,Right,
18,10,1,1.216805099999874,['c'],0,right,['u'],1,0.47704669999984617,0.4,0,0,AccAcc,5,19,Woman,Right,
19,10,1,1.4182447000002867,['n'],0,left,['e'],0,0.5166972000006353,0.1,1,0,AccAcc,5,19,Woman,Right,
20,10,1,0.8671856999999363,['n'],0,left,['e'],0,2.0146623999999065,0.2,1,0,AccAcc,5,19,Woman,Right,
21,10,1,1.1349047999992763,['n'],0,left,['u'],1,0.21082789999945817,0.4,0,0,AccAcc,5,19,Woman,Right,
22,10,1,1.950522799999817,['n'],1,right,['e'],0,0.6392387999994753,0.1,0,0,AccAcc,5,19,Woman,Right,
23,10,1,0.8688222000000678,['n'],1,right,['u'],1,1.173558999999841,0.1,1,0,AccAcc,5,19,Woman,Right,
24,10,1,2.3332968000004257,['c'],1,left,['u'],1,1.3570573999995759,0.2,1,0,AccAcc,5,19,Woman,Right,
25,10,1,0.7011321999998472,['c'],1,left,['u'],1,0.8607388000000356,0.2,1,0,AccAcc,5,19,Woman,Right,
26,10,1,1.084989900000437,['c'],0,right,['u'],1,0.4974718000003122,0.1,0,0,AccAcc,5,19,Woman,Right,
27,10,1,1.2003545999996277,['c'],1,left,['e'],0,0.9281805000000531,0.4,0,0,AccAcc,5,19,Woman,Right,
28,10,1,1.1169390000004569,['c'],1,left,['u'],1,0.5129310999991503,0.2,1,0,AccAcc,5,19,Woman,Right,
29,10,1,0.7343221000000995,['n'],1,right,['u'],1,1.4095160000006217,0.4,1,0,AccAcc,5,19,Woman,Right,
30,10,1,0.984118600000329,['c'],0,right,['e'],0,1.1414484000006269,0.2,1,0,AccAcc,5,19,Woman,Right,
31,10,1,1.2179753000000346,['c'],1,left,['e'],0,0.9054599000000962,0.2,0,0,AccAcc,5,19,Woman,Right,
32,10,1,2.3678580999994665,['n'],0,left,['e'],0,0.9526385999997729,0.1,1,0,AccAcc,5,19,Woman,Right,
33,10,1,0.7516914999996516,['n'],1,right,['e'],0,0.7109982000001764,0.4,0,0,AccAcc,5,19,Woman,Right,
34,10,1,1.2508868999993865,['c'],0,right,['e'],0,0.7315890999998373,0.1,1,0,AccAcc,5,19,Woman,Right,
35,10,1,1.1012700999999652,['n'],1,right,['e'],0,0.5004275999999663,0.1,0,0,AccAcc,5,19,Woman,Right,
36,10,1,1.6184942999998384,['n'],0,left,['e'],0,1.6980625999995027,0.2,1,0,AccAcc,5,19,Woman,Right,
37,10,1,1.3177724999995917,['c'],1,left,['e'],0,1.179880900000171,0.2,0,0,AccAcc,5,19,Woman,Right,
38,10,1,1.0015085000004547,['c'],1,left,['u'],1,0.9990671000005023,0.4,1,0,AccAcc,5,19,Woman,Right,
39,10,1,1.499874600000112,['c'],1,left,['u'],1,1.093563099999301,0.1,1,0,AccAcc,5,19,Woman,Right,
40,10,1,1.216662499999984,['n'],1,right,['u'],1,0.8125905000006242,0.4,1,0,AccAcc,5,19,Woman,Right,
41,10,1,0.9692912999998953,['c'],1,left,['u'],1,0.7748546000002534,0.1,1,0,AccAcc,5,19,Woman,Right,
42,10,1,1.6678561000007903,['c'],0,right,['u'],1,0.18616170000041166,0.1,0,0,AccAcc,5,19,Woman,Right,
43,10,1,1.1514555000003384,['c'],0,right,['u'],1,0.4863904999992883,0.2,0,0,AccAcc,5,19,Woman,Right,
44,10,1,0.9499523999993471,['n'],1,right,['u'],1,0.22211559999959718,0.4,1,0,AccAcc,5,19,Woman,Right,
45,10,1,0.8154238999995869,['c'],1,left,['u'],1,0.7125774999994974,0.1,1,0,AccAcc,5,19,Woman,Right,
46,10,1,0.7673924000000625,['n'],1,right,['u'],1,0.23865240000031918,0.4,1,0,AccAcc,5,19,Woman,Right,
47,10,1,0.8000941000000239,['c'],1,left,['u'],1,0.3121936999996251,0.2,1,0,AccAcc,5,19,Woman,Right,
48,10,1,0.6350881999997,['n'],1,right,['u'],1,0.24371810000047844,0.4,1,0,AccAcc,5,19,Woman,Right,
49,10,1,2.1663471000001664,['n'],1,right,['u'],1,0.4390975999995135,0.1,1,0,AccAcc,5,19,Woman,Right,
50,10,1,0.8670091000003595,['c'],1,left,['u'],1,0.629493000000366,0.1,1,0,AccAcc,5,19,Woman,Right,
51,10,1,0.7832038999995348,['c'],1,left,['u'],1,0.3358057000004919,0.4,1,0,AccAcc,5,19,Woman,Right,
52,10,1,0.6171479999993608,['n'],1,right,['u'],1,0.36346880000019155,0.4,1,0,AccAcc,5,19,Woman,Right,
53,10,1,1.4190326999996614,['n'],0,left,['e'],0,0.8856637999997474,0.1,1,0,AccAcc,5,19,Woman,Right,
54,10,1,0.7183459000007133,['n'],0,left,['u'],1,0.5200916000003417,0.1,0,0,AccAcc,5,19,Woman,Right,
55,10,1,1.116608699999233,['c'],1,left,['u'],1,0.6338787000004231,0.1,1,0,AccAcc,5,19,Woman,Right,
56,10,1,1.6507486000000426,['c'],1,left,['e'],0,0.41600109999944834,0.2,0,0,AccAcc,5,19,Woman,Right,
57,10,1,1.05056439999953,['c'],1,left,['u'],1,0.35962089999975433,0.4,1,0,AccAcc,5,19,Woman,Right,
58,10,1,0.684070199999951,['n'],1,right,['u'],1,0.4013511000002836,0.2,1,0,AccAcc,5,19,Woman,Right,
59,10,1,0.7498034999998708,['n'],1,right,['u'],1,0.2616165999997975,0.4,1,0,AccAcc,5,19,Woman,Right,
0,11,1,1.0004451000004337,['c'],1,left,['e'],0,1.3195165000006455,0.1,0,0,FastAcc,5,19,Woman,Right,
1,11,1,0.5512943999992785,['n'],1,right,['e'],0,1.326545800000531,0.1,0,0,FastAcc,5,19,Woman,Right,
2,11,1,0.5017328000003545,['n'],1,right,['e'],0,1.0483829000004334,0.4,0,0,FastAcc,5,19,Woman,Right,
3,11,1,0.4509594000001016,['c'],1,left,['e'],0,0.8944996000000174,0.4,0,0,FastAcc,5,19,Woman,Right,
4,11,1,0.41659960000015417,['n'],1,right,['e'],0,0.7816247999999177,0.2,0,0,FastAcc,5,19,Woman,Right,
5,11,1,0.5349290999993173,['n'],0,left,['e'],0,0.8585480000001553,0.2,1,0,FastAcc,5,19,Woman,Right,
6,11,1,0.5018645999998625,['n'],1,right,['u'],1,0.487165599999571,0.4,1,0,FastAcc,5,19,Woman,Right,
7,11,1,0.5340038000003915,['c'],1,left,['u'],1,0.3043347000002541,0.4,1,0,FastAcc,5,19,Woman,Right,
8,11,1,0.5676674000005733,['n'],1,right,['u'],1,0.5919251000004806,0.2,1,0,FastAcc,5,19,Woman,Right,
9,11,1,0.5015289000002667,['n'],1,right,['u'],1,0.5187749000006079,0.2,1,0,FastAcc,5,19,Woman,Right,
10,11,1,0.5845803000001979,['n'],0,left,['e'],0,0.7171308999995745,0.2,1,0,FastAcc,5,19,Woman,Right,
11,11,1,0.533331999999973,['n'],0,left,['e'],0,0.4620383999999831,0.1,1,0,FastAcc,5,19,Woman,Right,
12,11,1,0.7011791999993875,['n'],1,right,['e'],0,0.6251147000002675,0.1,0,0,FastAcc,5,19,Woman,Right,
13,11,1,0.6184943999996904,['c'],1,left,['u'],1,0.530275399999482,0.4,1,0,FastAcc,5,19,Woman,Right,
14,11,1,0.5491339000000153,['n'],0,left,['u'],1,0.538482699999804,0.1,0,0,FastAcc,5,19,Woman,Right,
15,11,1,0.6688143000001219,['c'],1,left,['u'],1,0.34759960000064893,0.1,1,0,FastAcc,5,19,Woman,Right,
16,11,1,0.4833177999998952,['n'],1,right,['u'],1,0.1729752000001099,0.1,1,0,FastAcc,5,19,Woman,Right,
17,11,1,0.5012400999994497,['n'],1,right,['u'],1,0.14808319999974628,0.4,1,0,FastAcc,5,19,Woman,Right,
18,11,1,0.6179083999995783,['n'],0,left,['u'],1,0.10348290000001725,0.2,0,0,FastAcc,5,19,Woman,Right,
19,11,1,0.5843179000003147,['c'],1,left,['e'],0,0.7825737000002846,0.1,0,0,FastAcc,5,19,Woman,Right,
20,11,1,0.6845087000001513,['n'],1,right,['u'],1,1.4940540999996301,0.1,1,0,FastAcc,5,19,Woman,Right,
21,11,1,0.5513855999997759,['n'],1,right,['u'],1,0.2312511000000086,0.4,1,0,FastAcc,5,19,Woman,Right,
22,11,1,1.2340063000001464,['c'],0,right,['e'],0,0.31978020000042306,0.2,1,0,FastAcc,5,19,Woman,Right,
23,11,1,0.5840352999994138,['n'],1,right,['e'],0,0.38116119999995135,0.1,0,0,FastAcc,5,19,Woman,Right,
24,11,1,0.5847257999994326,['n'],1,right,['u'],1,0.26451819999965664,0.4,1,0,FastAcc,5,19,Woman,Right,
25,11,1,0.8005339999999705,['c'],1,left,['u'],1,0.19230049999987386,0.4,1,0,FastAcc,5,19,Woman,Right,
26,11,1,0.8339212000000771,['c'],1,left,['u'],1,0.8265268000004653,0.1,1,0,FastAcc,5,19,Woman,Right,
27,11,1,0.8680228000002899,['c'],1,left,['e'],0,0.5367995999995401,0.1,0,0,FastAcc,5,19,Woman,Right,
28,11,1,1.7178874999999607,['n'],0,left,['e'],0,0.5774498000000676,0.1,1,0,FastAcc,5,19,Woman,Right,
29,11,1,0.9180170999998154,['c'],1,left,['e'],0,0.31382029999986116,0.2,0,0,FastAcc,5,19,Woman,Right,
30,11,1,1.0847663999993529,['c'],1,left,['u'],1,0.1625225000007049,0.2,1,0,FastAcc,5,19,Woman,Right,
31,11,1,0.8179198999996515,['c'],1,left,['u'],1,0.2697107000003598,0.2,1,0,FastAcc,5,19,Woman,Right,
32,11,1,0.6845349999994141,['n'],0,left,['u'],1,0.13796670000010636,0.1,0,0,FastAcc,5,19,Woman,Right,
33,11,1,0.8183341000003566,['c'],0,right,['e'],0,1.3179767000001448,0.1,1,0,FastAcc,5,19,Woman,Right,
34,11,1,1.0011116999994556,['c'],1,left,['e'],0,0.8117290000000139,0.4,0,0,FastAcc,5,19,Woman,Right,
35,11,1,0.6690164999999979,['n'],0,left,['e'],0,1.7948120999999446,0.1,1,0,FastAcc,5,19,Woman,Right,
36,11,1,0.41795769999953336,['n'],1,right,['u'],1,0.42897679999987304,0.4,1,0,FastAcc,5,19,Woman,Right,
37,11,1,0.6839378999993642,['n'],0,left,['e'],0,0.8345418999997491,0.2,1,0,FastAcc,5,19,Woman,Right,
38,11,1,0.9006538999992699,['n'],1,right,['e'],0,0.4473717000000761,0.2,0,0,FastAcc,5,19,Woman,Right,
39,11,1,0.534585800000059,['n'],0,left,['u'],1,2.8102011000000857,0.2,0,0,FastAcc,5,19,Woman,Right,
40,11,1,0.8514158999996653,['c'],0,right,['e'],0,0.6028436999995392,0.1,1,0,FastAcc,5,19,Woman,Right,
41,11,1,0.66808729999957,['n'],1,right,['u'],1,1.2583474999992177,0.1,1,0,FastAcc,5,19,Woman,Right,
42,11,1,0.7511891999993168,['c'],1,left,['u'],1,0.6848799999997937,0.4,1,0,FastAcc,5,19,Woman,Right,
43,11,1,0.601358199999595,['n'],1,right,['u'],1,0.41174019999925804,0.4,1,0,FastAcc,5,19,Woman,Right,
44,11,1,0.7339731000001848,['n'],1,right,['u'],1,0.095961900000475,0.4,1,0,FastAcc,5,19,Woman,Right,
45,11,1,0.6186821999999665,['n'],1,right,['u'],1,0.16557990000001155,0.2,1,0,FastAcc,5,19,Woman,Right,
46,11,1,1.2335811999992075,['c'],1,left,['e'],0,0.944037300000673,0.2,0,0,FastAcc,5,19,Woman,Right,
47,11,1,0.5013911999994889,['n'],1,right,['u'],1,0.15285700000004,0.4,1,0,FastAcc,5,19,Woman,Right,
48,11,1,0.6684530000002269,['c'],1,left,['u'],1,0.41057569999975385,0.4,1,0,FastAcc,5,19,Woman,Right,
49,11,1,1.2514861999998175,['c'],1,left,['e'],0,1.1310346000000209,0.2,0,0,FastAcc,5,19,Woman,Right,
50,11,1,0.5013722000003327,['n'],1,right,['u'],1,0.07589079999979731,0.4,1,0,FastAcc,5,19,Woman,Right,
51,11,1,0.6021258999999191,['n'],1,right,['u'],1,0.08353420000003098,0.4,1,0,FastAcc,5,19,Woman,Right,
52,11,1,0.6178275000002031,['c'],0,right,['e'],0,0.18562810000003083,0.1,1,0,FastAcc,5,19,Woman,Right,
53,11,1,0.7017981999997573,['n'],0,left,['u'],1,0.024792600000182574,0.1,0,0,FastAcc,5,19,Woman,Right,
54,11,1,0.5678807000003872,['c'],1,left,['u'],1,0.0994421000004877,0.4,1,0,FastAcc,5,19,Woman,Right,
55,11,1,0.48434570000063104,['n'],1,right,['u'],1,0.014370000000781147,0.2,1,0,FastAcc,5,19,Woman,Right,
56,11,1,0.5333160999998654,['n'],1,right,['u'],1,3.8506821999999374,0.2,1,0,FastAcc,5,19,Woman,Right,
57,11,1,0.5843033000001014,['n'],1,right,['u'],1,0.09214609999980894,0.2,1,0,FastAcc,5,19,Woman,Right,
58,11,1,0.6180544999997437,['n'],1,right,['u'],1,0.09833309999976336,0.2,1,0,FastAcc,5,19,Woman,Right,
59,11,1,0.5680014999998093,['n'],0,left,['u'],1,0.10595549999925424,0.4,0,0,FastAcc,5,19,Woman,Right,
0,12,1,0.766689199999746,['n'],1,right,['u'],1,0.6385708999996496,0.4,1,0,FastFast,5,19,Woman,Right,
1,12,1,0.7014853999999104,['n'],0,left,['u'],1,0.02775370000017574,0.1,0,0,FastFast,5,19,Woman,Right,
2,12,1,0.48427859999992506,['n'],1,right,['u'],1,0.057334300000547955,0.4,1,0,FastFast,5,19,Woman,Right,
3,12,1,0.8512166999998954,['c'],0,right,['u'],1,0.03952269999990676,0.2,0,0,FastFast,5,19,Woman,Right,
4,12,1,0.6339104999997289,['c'],1,left,['e'],0,0.04726639999989857,0.2,0,0,FastFast,5,19,Woman,Right,
5,12,1,0.5010547000001679,['n'],1,right,['u'],1,0.57117130000006,0.2,1,0,FastFast,5,19,Woman,Right,
6,12,1,0.7848997000000963,['c'],1,left,['u'],1,0.0396149999996851,0.4,1,0,FastFast,5,19,Woman,Right,
7,12,1,0.5514565000003131,['n'],0,left,['u'],1,0.034581599999910395,0.4,0,0,FastFast,5,19,Woman,Right,
8,12,1,0.8513282000003528,['n'],1,right,['u'],1,0.06538450000061857,0.2,1,0,FastFast,5,19,Woman,Right,
9,12,1,0.7681935000000522,['c'],1,left,['u'],1,0.0029899000001023524,0.2,1,0,FastFast,5,19,Woman,Right,
10,12,1,0.5171791000002486,['n'],1,right,['u'],1,0.016470399999889196,0.4,1,0,FastFast,5,19,Woman,Right,
11,12,1,0.46748139999999694,['n'],0,left,['u'],1,0.6067702000000281,0.1,0,0,FastFast,5,19,Woman,Right,
12,12,1,0.5680692000005365,['c'],1,left,['u'],1,0.08245110000007116,0.1,1,0,FastFast,5,19,Woman,Right,
13,12,1,0.5677838999999949,['n'],1,right,['u'],1,0.058748499999637716,0.2,1,0,FastFast,5,19,Woman,Right,
14,12,1,0.7007060999994792,['c'],1,left,['u'],1,0.09489260000009381,0.1,1,0,FastFast,5,19,Woman,Right,
15,12,1,0.5014460000002146,['n'],1,right,['u'],1,0.041155500000058964,0.2,1,0,FastFast,5,19,Woman,Right,
16,12,1,0.5179161000005479,['c'],1,left,['u'],1,0.10162839999975404,0.4,1,0,FastFast,5,19,Woman,Right,
17,12,1,0.4343811000007918,['n'],1,right,['u'],1,0.06648789999962901,0.1,1,0,FastFast,5,19,Woman,Right,
18,12,1,0.5017991000004258,['n'],0,left,['u'],1,0.014351600000736653,0.1,0,0,FastFast,5,19,Woman,Right,
19,12,1,0.4166469000001598,['n'],0,left,['u'],1,1.0228235000004133,0.4,0,0,FastFast,5,19,Woman,Right,
20,12,1,0.4681393000000753,['n'],1,right,['u'],1,0.05390629999965313,0.4,1,0,FastFast,5,19,Woman,Right,
21,12,1,0.48396839999986696,['c'],1,left,['e'],0,0.7229239999996935,0.2,0,0,FastFast,5,19,Woman,Right,
22,12,1,0.4517777999999453,['n'],0,left,['u'],1,0.007073599999785074,0.4,0,0,FastFast,5,19,Woman,Right,
23,12,1,0.49989240000013524,['n'],1,right,['u'],1,0.005371899999772722,0.1,1,0,FastFast,5,19,Woman,Right,
24,12,1,0.4011040999994293,['n'],0,left,['u'],1,1.334765900000093,0.1,0,0,FastFast,5,19,Woman,Right,
25,12,1,0.5339534999993703,['n'],0,left,['u'],1,0.6224139999994804,0.2,0,0,FastFast,5,19,Woman,Right,
26,12,1,0.5513111000000208,['n'],1,right,['u'],1,0.002761400000053982,0.1,1,0,FastFast,5,19,Woman,Right,
27,12,1,0.46725700000024517,['n'],0,left,['u'],1,0.049562199999854784,0.2,0,0,FastFast,5,19,Woman,Right,
28,12,1,0.38472140000067157,['n'],0,left,['u'],1,0.5304386000007071,0.1,0,0,FastFast,5,19,Woman,Right,
29,12,1,0.6176381999994192,['n'],0,left,['u'],1,0.5831140000000232,0.2,0,0,FastFast,5,19,Woman,Right,
30,12,1,0.5843752999999197,['n'],0,left,['u'],1,0.362374300000738,0.4,0,0,FastFast,5,19,Woman,Right,
31,12,1,0.46591760000046634,['n'],1,right,['u'],1,0.07610550000026706,0.2,1,0,FastFast,5,19,Woman,Right,
32,12,1,0.4517228000004252,['n'],1,right,['u'],1,0.009599500000149419,0.4,1,0,FastFast,5,19,Woman,Right,
33,12,1,0.38378889999967214,['n'],0,left,['u'],1,0.027408800000557676,0.2,0,0,FastFast,5,19,Woman,Right,
34,12,1,0.6012269000002561,['n'],1,right,['u'],1,0.11609390000012354,0.2,1,0,FastFast,5,19,Woman,Right,
35,12,1,0.48457930000040506,['n'],0,left,['u'],1,0.11033389999920473,0.1,0,0,FastFast,5,19,Woman,Right,
36,12,1,0.6009820000008403,['c'],1,left,['u'],1,0.13244620000023133,0.4,1,0,FastFast,5,19,Woman,Right,
37,12,1,0.685441699999501,['n'],1,right,['u'],1,0.0700832000002265,0.1,1,0,FastFast,5,19,Woman,Right,
38,12,1,0.46810740000000806,['n'],1,right,['u'],1,0.08296770000015385,0.4,1,0,FastFast,5,19,Woman,Right,
39,12,1,0.5012719000005745,['n'],1,right,['u'],1,0.09393520000048738,0.4,1,0,FastFast,5,19,Woman,Right,
40,12,1,0.5679324000002453,['c'],0,right,['u'],1,0.13406400000076246,0.1,0,0,FastFast,5,19,Woman,Right,
41,12,1,0.5844474000004993,['n'],1,right,['u'],1,0.05988950000028126,0.2,1,0,FastFast,5,19,Woman,Right,
42,12,1,0.5347074999999677,['n'],1,right,['u'],1,0.007381399999758287,0.4,1,0,FastFast,5,19,Woman,Right,
43,12,1,0.4342773999997007,['n'],1,right,['u'],1,0.054875300000276184,0.1,1,0,FastFast,5,19,Woman,Right,
44,12,1,0.6006956000001082,['n'],0,left,['u'],1,0.04707990000042628,0.2,0,0,FastFast,5,19,Woman,Right,
45,12,1,0.8345595000000685,['n'],0,left,['e'],0,0.6859518999999636,0.4,1,0,FastFast,5,19,Woman,Right,
46,12,1,0.651460699999916,['c'],1,left,['u'],1,0.09095849999994243,0.1,1,0,FastFast,5,19,Woman,Right,
47,12,1,0.48470459999953164,['n'],0,left,['u'],1,0.08666350000021339,0.2,0,0,FastFast,5,19,Woman,Right,
48,12,1,0.5682280000000901,['n'],1,right,['u'],1,0.030979900000602356,0.1,1,0,FastFast,5,19,Woman,Right,
49,12,1,0.6346396999997523,['c'],0,right,['u'],1,0.10223510000014358,0.2,0,0,FastFast,5,19,Woman,Right,
50,12,1,0.517240899999706,['c'],0,right,['u'],1,0.11183820000042033,0.4,0,0,FastFast,5,19,Woman,Right,
51,12,1,0.46791490000032354,['c'],1,left,['u'],1,0.10675670000000537,0.2,1,0,FastFast,5,19,Woman,Right,
52,12,1,0.31768149999970774,['n'],1,right,['u'],1,0.5247510999997758,0.4,1,0,FastFast,5,19,Woman,Right,
53,12,1,1.0178108000000066,['c'],1,left,['u'],1,0.11347859999932552,0.1,1,0,FastFast,5,19,Woman,Right,
54,12,1,0.6018401000001177,['n'],1,right,['u'],1,0.03903809999974328,0.1,1,0,FastFast,5,19,Woman,Right,
55,12,1,0.6007791000001816,['c'],1,left,['u'],1,0.09577840000019933,0.2,1,0,FastFast,5,19,Woman,Right,
56,12,1,0.4990669999997408,['c'],1,left,['u'],1,0.07551590000002761,0.1,1,0,FastFast,5,19,Woman,Right,
57,12,1,0.3363165000000663,['n'],1,right,['u'],1,0.10845880000033503,0.4,1,0,FastFast,5,19,Woman,Right,
58,12,1,0.2671948999995948,['c'],0,right,['u'],1,0.031912000000374974,0.4,0,0,FastFast,5,19,Woman,Right,
59,12,1,0.2841526000001977,['n'],1,right,['u'],1,0.006202199999279401,0.1,1,0,FastFast,5,19,Woman,Right,
0,13,1,0.6680772999998226,['n'],1,right,['e'],0,0.6010925000000498,0.2,0,0,AccFast,5,19,Woman,Right,
1,13,1,0.8345286999992823,['c'],1,left,['e'],0,1.0419216999998753,0.1,0,0,AccFast,5,19,Woman,Right,
2,13,1,0.5183767999997144,['c'],0,right,['e'],0,0.7260928999994576,0.2,1,0,AccFast,5,19,Woman,Right,
3,13,1,0.8514476999998806,['n'],0,left,['e'],0,0.5379062000001795,0.1,1,0,AccFast,5,19,Woman,Right,
4,13,1,0.768485900000087,['c'],1,left,['u'],1,0.23217300000032992,0.1,1,0,AccFast,5,19,Woman,Right,
5,13,1,0.8500670000003083,['n'],1,right,['u'],1,0.1271774999995614,0.2,1,0,AccFast,5,19,Woman,Right,
6,13,1,0.5513862000007066,['n'],1,right,['u'],1,0.07065499999953317,0.1,1,0,AccFast,5,19,Woman,Right,
7,13,1,0.5510033000000476,['n'],1,right,['u'],1,0.06452059999992343,0.4,1,0,AccFast,5,19,Woman,Right,
8,13,1,0.5341429999998581,['c'],1,left,['u'],1,0.12239190000036615,0.1,1,0,AccFast,5,19,Woman,Right,
9,13,1,0.5509563999994498,['n'],1,right,['u'],1,0.19401770000058605,0.1,1,0,AccFast,5,19,Woman,Right,
10,13,1,0.8849327999996603,['n'],0,left,['u'],1,0.08965340000031574,0.1,0,0,AccFast,5,19,Woman,Right,
11,13,1,0.7177773999992496,['n'],0,left,['u'],1,0.04411739999977726,0.1,0,0,AccFast,5,19,Woman,Right,
12,13,1,0.7343062999998438,['c'],1,left,['u'],1,0.1273894999994809,0.2,1,0,AccFast,5,19,Woman,Right,
13,13,1,0.6017201000004206,['c'],1,left,['u'],1,0.07040099999994709,0.4,1,0,AccFast,5,19,Woman,Right,
14,13,1,0.5340073000006669,['c'],1,left,['u'],1,0.06338640000012674,0.1,1,0,AccFast,5,19,Woman,Right,
15,13,1,0.7513668000001417,['n'],1,right,['u'],1,0.06493229999978212,0.2,1,0,AccFast,5,19,Woman,Right,
16,13,1,0.6350617999996757,['c'],1,left,['u'],1,0.08728859999973793,0.2,1,0,AccFast,5,19,Woman,Right,
17,13,1,0.501999799999794,['c'],1,left,['u'],1,0.06637599999976374,0.4,1,0,AccFast,5,19,Woman,Right,
18,13,1,0.751422299999831,['c'],1,left,['u'],1,0.03575509999973292,0.4,1,0,AccFast,5,19,Woman,Right,
19,13,1,0.5514797000005274,['n'],1,right,['u'],1,0.046790400000645604,0.4,1,0,AccFast,5,19,Woman,Right,
20,13,1,0.4007643000004464,['c'],1,left,['u'],1,0.07918200000040088,0.4,1,0,AccFast,5,19,Woman,Right,
21,13,1,0.7847787999999127,['n'],1,right,['u'],1,0.046617300000434625,0.2,1,0,AccFast,5,19,Woman,Right,
22,13,1,0.5674049999997806,['c'],1,left,['u'],1,0.07229089999964344,0.4,1,0,AccFast,5,19,Woman,Right,
23,13,1,0.48359500000060507,['n'],1,right,['u'],1,0.020764599999893107,0.4,1,0,AccFast,5,19,Woman,Right,
24,13,1,0.5338008999997328,['n'],0,left,['u'],1,0.592481300000145,0.1,0,0,AccFast,5,19,Woman,Right,
25,13,1,0.8345958999998402,['c'],1,left,['u'],1,0.05836170000020502,0.4,1,0,AccFast,5,19,Woman,Right,
26,13,1,0.7008779999996477,['c'],1,left,['u'],1,0.04629650000060792,0.2,1,0,AccFast,5,19,Woman,Right,
27,13,1,0.7159655999994357,['c'],0,right,['u'],1,0.06751549999989948,0.4,0,0,AccFast,5,19,Woman,Right,
28,13,1,0.8676664999993591,['n'],1,right,['u'],1,0.46288689999983035,0.4,1,0,AccFast,5,19,Woman,Right,
29,13,1,0.7012899000001198,['n'],0,left,['u'],1,0.0504335000005085,0.2,0,0,AccFast,5,19,Woman,Right,
30,13,1,0.8013783000005787,['n'],1,right,['u'],1,0.003442899999754445,0.2,1,0,AccFast,5,19,Woman,Right,
31,13,1,0.983709699999963,['n'],0,left,['u'],1,0.46160689999942406,0.4,0,0,AccFast,5,19,Woman,Right,
32,13,1,0.5013073000000077,['n'],1,right,['u'],1,0.02675660000022617,0.2,1,0,AccFast,5,19,Woman,Right,
33,13,1,0.58489709999958,['n'],0,left,['u'],1,0.052438599999732105,0.2,0,0,AccFast,5,19,Woman,Right,
34,13,1,0.6176328000001376,['n'],1,right,['u'],1,0.04324059999999008,0.2,1,0,AccFast,5,19,Woman,Right,
35,13,1,0.6836189999994531,['c'],1,left,['u'],1,0.032712899999751244,0.2,1,0,AccFast,5,19,Woman,Right,
36,13,1,1.3674345999997968,['c'],1,left,['e'],0,0.07544309999957477,0.1,0,0,AccFast,5,19,Woman,Right,
37,13,1,1.083115800000087,['c'],0,right,['u'],1,0.04804539999986446,0.1,0,0,AccFast,5,19,Woman,Right,
38,13,1,0.718156199999612,['n'],1,right,['u'],1,0.0036597999996956787,0.4,1,0,AccFast,5,19,Woman,Right,
39,13,1,0.9490890999995827,['c'],0,right,['u'],1,0.14322999999967578,0.1,0,0,AccFast,5,19,Woman,Right,
40,13,1,1.068751799999518,['c'],0,right,['u'],1,0.06529140000020561,0.4,0,0,AccFast,5,19,Woman,Right,
41,13,1,0.5679638000001432,['c'],1,left,['u'],1,0.05921240000043326,0.1,1,0,AccFast,5,19,Woman,Right,
42,13,1,0.6182363999996596,['n'],1,right,['u'],1,0.04986120000012306,0.2,1,0,AccFast,5,19,Woman,Right,
43,13,1,0.5845992000004117,['c'],0,right,['u'],1,0.09106270000029326,0.1,0,0,AccFast,5,19,Woman,Right,
44,13,1,0.5683625000001484,['c'],0,right,['u'],1,0.09943530000055034,0.1,0,0,AccFast,5,19,Woman,Right,
45,13,1,0.6011893999993845,['c'],0,right,['u'],1,0.10521429999971588,0.2,0,0,AccFast,5,19,Woman,Right,
46,13,1,0.5839615000004414,['c'],0,right,['u'],1,0.0962072000002081,0.4,0,0,AccFast,5,19,Woman,Right,
47,13,1,0.7011127999994642,['n'],1,right,['u'],1,0.05073179999999411,0.4,1,0,AccFast,5,19,Woman,Right,
48,13,1,0.6846309000002293,['c'],0,right,['u'],1,0.07167589999971824,0.2,0,0,AccFast,5,19,Woman,Right,
49,13,1,0.5833925000006275,['c'],1,left,['u'],1,0.07987299999967945,0.1,1,0,AccFast,5,19,Woman,Right,
50,13,1,0.6836759999996502,['c'],0,right,['u'],1,0.06746039999961795,0.2,0,0,AccFast,5,19,Woman,Right,
51,13,1,0.5023375999999189,['c'],0,right,['u'],1,0.04688590000023396,0.2,0,0,AccFast,5,19,Woman,Right,
52,13,1,0.5014361000003191,['c'],1,left,['u'],1,0.05913529999997991,0.4,1,0,AccFast,5,19,Woman,Right,
53,13,1,0.36704939999981434,['c'],1,left,['u'],1,0.0936068000000887,0.4,1,0,AccFast,5,19,Woman,Right,
54,13,1,0.48514590000013413,['c'],1,left,['u'],1,0.088190499999655,0.1,1,0,AccFast,5,19,Woman,Right,
55,13,1,0.6333015999998679,['c'],1,left,['u'],1,0.09383029999935388,0.4,1,0,AccFast,5,19,Woman,Right,
56,13,1,0.40109449999999924,['c'],1,left,['u'],1,0.044707000000016706,0.1,1,0,AccFast,5,19,Woman,Right,
57,13,1,0.38334609999947133,['c'],1,left,['u'],1,0.06293759999971371,0.1,1,0,AccFast,5,19,Woman,Right,
58,13,1,0.6179192999998122,['n'],1,right,['u'],1,0.0217108000006192,0.4,1,0,AccFast,5,19,Woman,Right,
59,13,1,0.5838599999997314,['c'],0,right,['u'],1,0.8961421000003611,0.2,0,0,AccFast,5,19,Woman,Right,
0,14,1,1.2179243999999017,['n'],1,right,['u'],1,0.31268960000033985,0.4,1,0,AccAcc,5,19,Woman,Right,
1,14,1,0.6683518999998341,['c'],1,left,['u'],1,0.46738939999977447,0.4,1,0,AccAcc,5,19,Woman,Right,
2,14,1,0.6681929000005766,['c'],1,left,['u'],1,0.6805317999996987,0.2,1,0,AccAcc,5,19,Woman,Right,
3,14,1,0.9845560000003388,['n'],1,right,['u'],1,1.0320368000002418,0.1,1,0,AccAcc,5,19,Woman,Right,
4,14,1,1.167654599999878,['c'],1,left,['e'],0,0.9945484999998371,0.4,0,0,AccAcc,5,19,Woman,Right,
5,14,1,0.6840910999999323,['n'],0,left,['e'],0,0.8501691000001301,0.2,1,0,AccAcc,5,19,Woman,Right,
6,14,1,0.6681784000002153,['n'],1,right,['u'],1,0.6159550000002127,0.4,1,0,AccAcc,5,19,Woman,Right,
7,14,1,0.7015603999998348,['n'],1,right,['u'],1,0.6776208000001134,0.4,1,0,AccAcc,5,19,Woman,Right,
8,14,1,0.5683736999999383,['n'],1,right,['u'],1,0.6623685000004116,0.2,1,0,AccAcc,5,19,Woman,Right,
9,14,1,0.7833534999999756,['n'],0,left,['e'],0,0.4788226000000577,0.1,1,0,AccAcc,5,19,Woman,Right,
10,14,1,0.6846565000005285,['n'],0,left,['e'],0,0.4666566000005332,0.1,1,0,AccAcc,5,19,Woman,Right,
11,14,1,0.6320494999999937,['n'],1,right,['u'],1,0.5860452000006262,0.1,1,0,AccAcc,5,19,Woman,Right,
12,14,1,0.7349057999999786,['n'],1,right,['u'],1,0.5183802999999898,0.2,1,0,AccAcc,5,19,Woman,Right,
13,14,1,1.0846067000002222,['n'],1,right,['u'],1,0.5855087999998432,0.1,1,0,AccAcc,5,19,Woman,Right,
14,14,1,1.2177663999991637,['c'],0,right,['e'],0,0.5949282000001404,0.1,1,0,AccAcc,5,19,Woman,Right,
15,14,1,1.1170596000001751,['c'],1,left,['e'],0,0.4010409000002255,0.2,0,0,AccAcc,5,19,Woman,Right,
16,14,1,2.265875600000072,['c'],1,left,['e'],0,0.2020489999995334,0.4,0,0,AccAcc,5,19,Woman,Right,
17,14,1,0.6678007000000434,['n'],1,right,['u'],1,0.5050125999996453,0.4,1,0,AccAcc,5,19,Woman,Right,
18,14,1,1.100262300000395,['n'],1,right,['u'],1,0.3955491999995502,0.4,1,0,AccAcc,5,19,Woman,Right,
19,14,1,0.8834427000001597,['n'],1,right,['u'],1,0.395311600000241,0.1,1,0,AccAcc,5,19,Woman,Right,
20,14,1,0.6999506000001929,['n'],1,right,['u'],1,0.3702285999997912,0.1,1,0,AccAcc,5,19,Woman,Right,
21,14,1,1.4010464000002685,['c'],1,left,['u'],1,0.41293969999969704,0.4,1,0,AccAcc,5,19,Woman,Right,
22,14,1,1.068300800000543,['c'],1,left,['e'],0,0.6917551000005915,0.2,0,0,AccAcc,5,19,Woman,Right,
23,14,1,1.550407499999892,['c'],1,left,['u'],1,0.4137940999999046,0.2,1,0,AccAcc,5,19,Woman,Right,
24,14,1,0.7160465999995722,['n'],1,right,['u'],1,0.3706465000004755,0.2,1,0,AccAcc,5,19,Woman,Right,
25,14,1,0.9178370999998151,['n'],0,left,['e'],0,1.1049496000005092,0.4,1,0,AccAcc,5,19,Woman,Right,
26,14,1,1.4333227000006445,['c'],1,left,['e'],0,0.5109376000000339,0.2,0,0,AccAcc,5,19,Woman,Right,
27,14,1,0.8997479999998177,['n'],1,right,['e'],0,0.8890144999995755,0.1,0,0,AccAcc,5,19,Woman,Right,
28,14,1,1.4499880000003031,['n'],1,right,['u'],1,0.4613958999998431,0.4,1,0,AccAcc,5,19,Woman,Right,
29,14,1,0.8002186000003348,['n'],0,left,['e'],0,0.7662622999996529,0.4,1,0,AccAcc,5,19,Woman,Right,
30,14,1,0.7681498000001739,['n'],0,left,['u'],1,0.6106890000000931,0.4,0,0,AccAcc,5,19,Woman,Right,
31,14,1,0.832997699999396,['n'],0,left,['u'],1,0.4926030999995419,0.1,0,0,AccAcc,5,19,Woman,Right,
32,14,1,0.8665633999999045,['c'],1,left,['u'],1,0.47322150000036345,0.2,1,0,AccAcc,5,19,Woman,Right,
33,14,1,1.1997366999994483,['n'],0,left,['u'],1,1.0971545000002152,0.1,0,0,AccAcc,5,19,Woman,Right,
34,14,1,0.7330775000000358,['n'],1,right,['u'],1,0.08200610000039887,0.2,1,0,AccAcc,5,19,Woman,Right,
35,14,1,0.4995613000000958,['n'],1,right,['u'],1,0.029091600000356266,0.1,1,0,AccAcc,5,19,Woman,Right,
36,14,1,0.9333710999999312,['n'],1,right,['u'],1,0.025275799999690207,0.2,1,0,AccAcc,5,19,Woman,Right,
37,14,1,1.1833957999997438,['n'],0,left,['e'],0,0.23563019999983226,0.1,1,0,AccAcc,5,19,Woman,Right,
38,14,1,0.7346153999997114,['n'],1,right,['e'],0,0.3899658999998792,0.1,0,0,AccAcc,5,19,Woman,Right,
39,14,1,0.8157682999999452,['n'],0,left,['u'],1,0.2655571000004784,0.4,0,0,AccAcc,5,19,Woman,Right,
40,14,1,0.7674612000000707,['n'],0,left,['u'],1,0.0665580000004411,0.2,0,0,AccAcc,5,19,Woman,Right,
41,14,1,0.599603799999386,['c'],0,right,['u'],1,0.17006769999989046,0.2,0,0,AccAcc,5,19,Woman,Right,
42,14,1,0.7022038999994038,['n'],0,left,['u'],1,0.08831860000009328,0.1,0,0,AccAcc,5,19,Woman,Right,
43,14,1,0.5839247000003525,['n'],1,right,['u'],1,0.12847179999971559,0.2,1,0,AccAcc,5,19,Woman,Right,
44,14,1,0.3994321999998647,"['n', 'c']",0,left,['e'],0,0.159054599999763,0.4,1,0,AccAcc,5,19,Woman,Right,
45,14,1,0.46728989999974146,['c'],1,left,['u'],1,0.13617940000040107,0.4,1,0,AccAcc,5,19,Woman,Right,
46,14,1,0.4339411000000837,"['n', 'c']",1,right,['e'],0,0.16393760000028124,0.2,0,0,AccAcc,5,19,Woman,Right,
47,14,1,0.4168369999997594,['n'],0,left,['u'],1,0.14265900000009424,0.2,0,0,AccAcc,5,19,Woman,Right,
48,14,1,0.6166227000003346,['n'],1,right,['u'],1,0.09863190000032773,0.1,1,0,AccAcc,5,19,Woman,Right,
49,14,1,0.58426849999978,['n'],1,right,['u'],1,0.2494168000002901,0.4,1,0,AccAcc,5,19,Woman,Right,
50,14,1,0.683466700000281,['n'],1,right,['u'],1,0.19835779999993974,0.2,1,0,AccAcc,5,19,Woman,Right,
51,14,1,0.5995514000005642,['n'],0,left,['u'],1,0.3766740999999456,0.1,0,0,AccAcc,5,19,Woman,Right,
52,14,1,1.3673372000002928,['c'],1,left,['e'],0,0.6455492000004597,0.1,0,0,AccAcc,5,19,Woman,Right,
53,14,1,0.5012418999995134,['n'],1,right,['u'],1,0.2343855999997686,0.4,1,0,AccAcc,5,19,Woman,Right,
54,14,1,0.44983870000032766,['n'],1,right,['u'],1,0.22505079999973532,0.4,1,0,AccAcc,5,19,Woman,Right,
55,14,1,0.5503129999997327,['n'],1,right,['u'],1,0.1795961999996507,0.4,1,0,AccAcc,5,19,Woman,Right,
56,14,1,0.4512193999998999,['n'],0,left,['u'],1,0.253349700000399,0.1,0,0,AccAcc,5,19,Woman,Right,
57,14,1,0.46733450000010635,['n'],0,left,['u'],1,0.30616099999951985,0.2,0,0,AccAcc,5,19,Woman,Right,
58,14,1,0.4493456000000151,['n'],1,right,['u'],1,0.19934659999944415,0.2,1,0,AccAcc,5,19,Woman,Right,
59,14,1,1.0997635000003356,['c'],1,left,['u'],1,0.3091906999998173,0.1,1,0,AccAcc,5,19,Woman,Right,
0,15,1,0.5005984999997963,['n'],1,right,['u'],1,0.8266522000003533,0.4,1,0,FastAcc,5,19,Woman,Right,
1,15,1,0.5006659999999101,['n'],1,right,['u'],1,0.21608679999917513,0.1,1,0,FastAcc,5,19,Woman,Right,
2,15,1,0.4835447000004933,['n'],1,right,['u'],1,1.118399899999531,0.4,1,0,FastAcc,5,19,Woman,Right,
3,15,1,0.5336323999999877,['n'],1,right,['u'],1,0.15876959999968676,0.1,1,0,FastAcc,5,19,Woman,Right,
4,15,1,0.5164168999999674,['n'],1,right,['u'],1,0.4064982999998392,0.1,1,0,FastAcc,5,19,Woman,Right,
5,15,1,0.48422609999943234,['n'],0,left,['e'],0,0.757445899999766,0.2,1,0,FastAcc,5,19,Woman,Right,
6,15,1,0.5332555000004504,['n'],0,left,['u'],1,0.7882122000000891,0.2,0,0,FastAcc,5,19,Woman,Right,
7,15,1,0.61852110000018,['c'],1,left,['e'],0,0.7017359999999826,0.1,0,0,FastAcc,5,19,Woman,Right,
8,15,1,0.5351536999996824,['c'],1,left,['u'],1,0.25511850000020786,0.1,1,0,FastAcc,5,19,Woman,Right,
9,15,1,0.7850852999999915,['n'],0,left,['u'],1,1.3198447999993732,0.1,0,0,FastAcc,5,19,Woman,Right,
10,15,1,0.6326365999993868,['n'],1,right,['u'],1,0.09375889999955689,0.4,1,0,FastAcc,5,19,Woman,Right,
11,15,1,0.48536439999952563,['n'],1,right,['u'],1,0.3438090999998167,0.2,1,0,FastAcc,5,19,Woman,Right,
12,15,1,0.7498001000003569,['n'],0,left,['u'],1,1.2788697999994838,0.2,0,0,FastAcc,5,19,Woman,Right,
13,15,1,0.5668261000000712,['n'],0,left,['u'],1,0.9678591000001688,0.4,0,0,FastAcc,5,19,Woman,Right,
14,15,1,0.4347903999996561,['n'],1,right,['u'],1,0.14537209999980405,0.2,1,0,FastAcc,5,19,Woman,Right,
15,15,1,0.517524400000184,['n'],1,right,['u'],1,0.08891459999995277,0.1,1,0,FastAcc,5,19,Woman,Right,
16,15,1,1.8347303000000466,['c'],1,left,['e'],0,0.942713299999923,0.4,0,0,FastAcc,5,19,Woman,Right,
17,15,1,0.5184657999998308,['n'],1,right,['u'],1,0.9671144999992975,0.2,1,0,FastAcc,5,19,Woman,Right,
18,15,1,0.5512950000002093,['c'],0,right,['e'],0,1.068566799999644,0.4,1,0,FastAcc,5,19,Woman,Right,
19,15,1,0.5001127999994424,['c'],0,right,['u'],1,0.5124150999999983,0.4,0,0,FastAcc,5,19,Woman,Right,
20,15,1,0.8846991000000344,['c'],1,left,['u'],1,0.37861290000000736,0.1,1,0,FastAcc,5,19,Woman,Right,
21,15,1,0.6171989000004032,['n'],1,right,['u'],1,0.13319330000012997,0.4,1,0,FastAcc,5,19,Woman,Right,
22,15,1,0.6014549000001352,['c'],1,left,['u'],1,0.15378860000055283,0.2,1,0,FastAcc,5,19,Woman,Right,
23,15,1,0.4679071999998996,['n'],0,left,['u'],1,0.06746529999963968,0.2,0,0,FastAcc,5,19,Woman,Right,
24,15,1,0.5497875999999451,['n'],0,left,['u'],1,0.029821699999956763,0.4,0,0,FastAcc,5,19,Woman,Right,
25,15,1,0.6505118999994011,['n'],0,left,['u'],1,0.035981400000309804,0.4,0,0,FastAcc,5,19,Woman,Right,
26,15,1,0.768051099999866,['n'],0,left,['u'],1,0.022415899999941757,0.1,0,0,FastAcc,5,19,Woman,Right,
27,15,1,0.8177193999999872,['c'],1,left,['u'],1,0.0870124000002761,0.4,1,0,FastAcc,5,19,Woman,Right,
28,15,1,0.5839756000004854,['c'],0,right,['u'],1,0.015139499999349937,0.1,0,0,FastAcc,5,19,Woman,Right,
29,15,1,0.766468600000735,['n'],0,left,['u'],1,0.050445200000467594,0.4,0,0,FastAcc,5,19,Woman,Right,
30,15,1,0.5676785000005111,['c'],0,right,['u'],1,0.09126000000014756,0.2,0,0,FastAcc,5,19,Woman,Right,
31,15,1,1.0504718000001958,['c'],0,right,['e'],0,0.2560501000007207,0.2,1,0,FastAcc,5,19,Woman,Right,
32,15,1,0.8508292999995319,['c'],0,right,['e'],0,0.9504504999995333,0.2,1,0,FastAcc,5,19,Woman,Right,
33,15,1,0.8178711000000476,['c'],1,left,['u'],1,0.7548937999999907,0.1,1,0,FastAcc,5,19,Woman,Right,
34,15,1,0.6683388000001287,['n'],0,left,['u'],1,0.33179259999997157,0.4,0,0,FastAcc,5,19,Woman,Right,
35,15,1,0.8679449999999633,['c'],0,right,['u'],1,1.5020580000000336,0.1,0,0,FastAcc,5,19,Woman,Right,
36,15,1,0.916349000000082,['c'],1,left,['u'],1,1.1839151000003767,0.2,1,0,FastAcc,5,19,Woman,Right,
37,15,1,0.45070639999994455,['n'],1,right,['u'],1,0.8008419999996477,0.4,1,0,FastAcc,5,19,Woman,Right,
38,15,1,0.7851713999998537,['n'],1,right,['u'],1,0.579985399999714,0.4,1,0,FastAcc,5,19,Woman,Right,
39,15,1,0.5678422999999384,['n'],1,right,['u'],1,0.20000069999969128,0.2,1,0,FastAcc,5,19,Woman,Right,
40,15,1,0.466454800000065,['n'],1,right,['u'],1,0.6571871999994983,0.1,1,0,FastAcc,5,19,Woman,Right,
41,15,1,0.5842824999999721,['n'],1,right,['u'],1,0.5927646000000095,0.4,1,0,FastAcc,5,19,Woman,Right,
42,15,1,0.6013483999995515,['n'],1,right,['u'],1,0.4680064999993192,0.1,1,0,FastAcc,5,19,Woman,Right,
43,15,1,0.5162589999999909,['n'],0,left,['u'],1,0.6878658000005089,0.2,0,0,FastAcc,5,19,Woman,Right,
44,15,1,0.834402699999373,['n'],0,left,['u'],1,0.5323491999997714,0.1,0,0,FastAcc,5,19,Woman,Right,
45,15,1,0.5184516999997868,['n'],1,right,['u'],1,0.15684890000011364,0.4,1,0,FastAcc,5,19,Woman,Right,
46,15,1,0.6678345000000263,['c'],1,left,['u'],1,0.2862450999991779,0.4,1,0,FastAcc,5,19,Woman,Right,
47,15,1,0.5341376000005766,['n'],0,left,['u'],1,0.04768609999973705,0.1,0,0,FastAcc,5,19,Woman,Right,
48,15,1,0.5178710000000137,['n'],0,left,['u'],1,0.07522010000047885,0.2,0,0,FastAcc,5,19,Woman,Right,
49,15,1,0.6347998000001098,['c'],0,right,['u'],1,0.09753610000007029,0.1,0,0,FastAcc,5,19,Woman,Right,
50,15,1,0.6001588000008269,['c'],1,left,['u'],1,0.08819909999965603,0.2,1,0,FastAcc,5,19,Woman,Right,
51,15,1,0.5825887000000876,['c'],0,right,['u'],1,0.09553540000069916,0.4,0,0,FastAcc,5,19,Woman,Right,
52,15,1,1.049574799999391,['n'],0,left,['u'],1,0.8842215000004217,0.2,0,0,FastAcc,5,19,Woman,Right,
53,15,1,0.55202669999926,['c'],0,right,['u'],1,0.17353060000004916,0.4,0,0,FastAcc,5,19,Woman,Right,
54,15,1,0.583941899999445,['n'],0,left,['u'],1,0.09704779999992752,0.1,0,0,FastAcc,5,19,Woman,Right,
55,15,1,0.4181708999994953,['c'],1,left,['u'],1,0.11059519999980694,0.2,1,0,FastAcc,5,19,Woman,Right,
56,15,1,0.5007209999994302,['n'],1,right,['u'],1,0.056636600000274484,0.1,1,0,FastAcc,5,19,Woman,Right,
57,15,1,0.3516912000004595,['c'],1,left,"['u', 'e']",1,0.2032125999994605,0.1,1,0,FastAcc,5,19,Woman,Right,
58,15,1,0.2511957999995502,['n'],1,right,"['u', 'e']",1,0.2514163000005283,0.2,1,0,FastAcc,5,19,Woman,Right,
59,15,1,0.4017859000005046,['n'],0,left,['u'],1,0.08347739999953774,0.2,0,0,FastAcc,5,19,Woman,Right,
