withinblocktrial,block,block_repetition,rt,resp,cor,cresp,conf_press,cj,rtconf,coherence,metacognition,slow_trial,manipulation,sub,age,gender,handedness,
0,1,1,4.465950400000111,['n'],1,right,none,-99,-99,0.5,-99,0,none,2,19,Woman,Right,
1,1,1,2.6662528000001657,['c'],1,left,none,-99,-99,0.5,-99,0,none,2,19,Woman,Right,
2,1,1,2.5356564000003345,['c'],0,right,none,-99,-99,0.5,-99,0,none,2,19,Woman,Right,
3,1,1,2.5648512000002484,['n'],1,right,none,-99,-99,0.5,-99,0,none,2,19,Woman,Right,
4,1,1,1.4854960000002393,['n'],1,right,none,-99,-99,0.5,-99,0,none,2,19,Woman,Right,
5,1,1,1.2662786999999298,['n'],1,right,none,-99,-99,0.5,-99,0,none,2,19,Woman,Right,
6,1,1,1.8345719999997527,['n'],1,right,none,-99,-99,0.5,-99,0,none,2,19,Woman,Right,
7,1,1,4.23279679999996,['c'],1,left,none,-99,-99,0.5,-99,0,none,2,19,Woman,Right,
8,1,1,2.6326748999999836,['c'],1,left,none,-99,-99,0.5,-99,0,none,2,19,Woman,Right,
9,1,1,5.015421300000071,x,-99,left,none,-99,-99,0.5,-99,1,none,2,19,Woman,Right,
10,1,1,2.317587300000014,['n'],0,left,none,-99,-99,0.5,-99,0,none,2,19,Woman,Right,
11,1,1,1.9488966999997501,['c'],1,left,none,-99,-99,0.5,-99,0,none,2,19,Woman,Right,
12,1,1,1.2671172999998817,['c'],1,left,none,-99,-99,0.5,-99,0,none,2,19,Woman,Right,
13,1,1,0.9338705000000118,['n'],1,right,none,-99,-99,0.5,-99,0,none,2,19,Woman,Right,
14,1,1,3.2990184000000227,['n'],0,left,none,-99,-99,0.5,-99,0,none,2,19,Woman,Right,
15,1,1,2.5014118999997663,['c'],1,left,none,-99,-99,0.5,-99,0,none,2,19,Woman,Right,
16,1,1,1.4179565000004004,['n'],0,left,none,-99,-99,0.5,-99,0,none,2,19,Woman,Right,
17,1,1,1.384062399999948,['n'],1,right,none,-99,-99,0.5,-99,0,none,2,19,Woman,Right,
18,1,1,1.2486679000003278,['n'],1,right,none,-99,-99,0.5,-99,0,none,2,19,Woman,Right,
19,1,1,2.415878899999825,['c'],1,left,none,-99,-99,0.5,-99,0,none,2,19,Woman,Right,
20,1,1,2.217083999999886,['c'],1,left,none,-99,-99,0.5,-99,0,none,2,19,Woman,Right,
21,1,1,2.017174300000079,['c'],0,right,none,-99,-99,0.5,-99,0,none,2,19,Woman,Right,
22,1,1,1.0513464000000567,['n'],1,right,none,-99,-99,0.5,-99,0,none,2,19,Woman,Right,
23,1,1,1.2669417000001886,['n'],1,right,none,-99,-99,0.5,-99,0,none,2,19,Woman,Right,
0,1,2,3.0999909000001935,['n'],1,right,none,-99,-99,0.5,-99,0,none,2,19,Woman,Right,
1,1,2,2.0009009999998852,['c'],1,left,none,-99,-99,0.5,-99,0,none,2,19,Woman,Right,
2,1,2,1.0173173999996834,['n'],1,right,none,-99,-99,0.5,-99,0,none,2,19,Woman,Right,
3,1,2,2.1178264999998646,['n'],0,left,none,-99,-99,0.5,-99,0,none,2,19,Woman,Right,
4,1,2,1.4183568000003106,['n'],0,left,none,-99,-99,0.5,-99,0,none,2,19,Woman,Right,
5,1,2,1.466182800000297,['c'],0,right,none,-99,-99,0.5,-99,0,none,2,19,Woman,Right,
6,1,2,3.0666784000000007,['n'],1,right,none,-99,-99,0.5,-99,0,none,2,19,Woman,Right,
7,1,2,0.9848379999998542,['n'],1,right,none,-99,-99,0.5,-99,0,none,2,19,Woman,Right,
8,1,2,1.84897890000002,['c'],1,left,none,-99,-99,0.5,-99,0,none,2,19,Woman,Right,
9,1,2,1.4008681000000252,['c'],1,left,none,-99,-99,0.5,-99,0,none,2,19,Woman,Right,
10,1,2,2.199995999999828,['n'],1,right,none,-99,-99,0.5,-99,0,none,2,19,Woman,Right,
11,1,2,1.9658188999997037,['n'],1,right,none,-99,-99,0.5,-99,0,none,2,19,Woman,Right,
12,1,2,1.167859199999839,['c'],1,left,none,-99,-99,0.5,-99,0,none,2,19,Woman,Right,
13,1,2,1.1999491999999918,['n'],1,right,none,-99,-99,0.5,-99,0,none,2,19,Woman,Right,
14,1,2,0.7839311000002454,['c'],1,left,none,-99,-99,0.5,-99,0,none,2,19,Woman,Right,
15,1,2,1.3175616999997146,['c'],1,left,none,-99,-99,0.5,-99,0,none,2,19,Woman,Right,
16,1,2,1.2986605999994936,['n'],1,right,none,-99,-99,0.5,-99,0,none,2,19,Woman,Right,
17,1,2,0.9334207000001697,['c'],1,left,none,-99,-99,0.5,-99,0,none,2,19,Woman,Right,
18,1,2,1.0337921000000279,['n'],1,right,none,-99,-99,0.5,-99,0,none,2,19,Woman,Right,
19,1,2,0.6844762000000628,['c'],1,left,none,-99,-99,0.5,-99,0,none,2,19,Woman,Right,
20,1,2,1.182465300000331,['n'],1,right,none,-99,-99,0.5,-99,0,none,2,19,Woman,Right,
21,1,2,0.7664899000001242,['c'],1,left,none,-99,-99,0.5,-99,0,none,2,19,Woman,Right,
22,1,2,0.7999048000001494,['n'],1,right,none,-99,-99,0.5,-99,0,none,2,19,Woman,Right,
23,1,2,2.151327100000344,['c'],1,left,none,-99,-99,0.5,-99,0,none,2,19,Woman,Right,
0,2,1,1.2843897999991896,['c'],1,left,none,-99,-99,0.1,-99,0,none,2,19,Woman,Right,
1,2,1,0.6507689999998547,['c'],1,left,none,-99,-99,0.2,-99,0,none,2,19,Woman,Right,
2,2,1,1.0008736999998291,['c'],1,left,none,-99,-99,0.2,-99,0,none,2,19,Woman,Right,
3,2,1,0.8652428000004875,['c'],1,left,none,-99,-99,0.1,-99,0,none,2,19,Woman,Right,
4,2,1,1.0169449999993958,['n'],1,right,none,-99,-99,0.4,-99,0,none,2,19,Woman,Right,
5,2,1,0.7513300999999046,['c'],1,left,none,-99,-99,0.1,-99,0,none,2,19,Woman,Right,
6,2,1,0.6492641000004369,['n'],1,right,none,-99,-99,0.4,-99,0,none,2,19,Woman,Right,
7,2,1,0.5838746999997966,['c'],1,left,none,-99,-99,0.4,-99,0,none,2,19,Woman,Right,
8,2,1,0.949581599999874,['n'],1,right,none,-99,-99,0.1,-99,0,none,2,19,Woman,Right,
9,2,1,1.0171364999996513,['c'],1,left,none,-99,-99,0.1,-99,0,none,2,19,Woman,Right,
10,2,1,0.6658314999995127,['n'],1,right,none,-99,-99,0.4,-99,0,none,2,19,Woman,Right,
11,2,1,1.5514438999998674,['c'],0,right,none,-99,-99,0.2,-99,0,none,2,19,Woman,Right,
12,2,1,1.233414299999822,['c'],1,left,none,-99,-99,0.4,-99,0,none,2,19,Woman,Right,
13,2,1,1.76789749999989,['c'],0,right,none,-99,-99,0.2,-99,0,none,2,19,Woman,Right,
14,2,1,1.617997400000604,['n'],0,left,none,-99,-99,0.2,-99,0,none,2,19,Woman,Right,
15,2,1,0.9347193000003244,['c'],1,left,none,-99,-99,0.4,-99,0,none,2,19,Woman,Right,
16,2,1,0.6666851999998471,['n'],1,right,none,-99,-99,0.1,-99,0,none,2,19,Woman,Right,
17,2,1,0.8506235000004381,['c'],1,left,none,-99,-99,0.2,-99,0,none,2,19,Woman,Right,
18,2,1,1.4846410000000105,['n'],1,right,none,-99,-99,0.2,-99,0,none,2,19,Woman,Right,
19,2,1,0.6015727000003608,['n'],1,right,none,-99,-99,0.4,-99,0,none,2,19,Woman,Right,
20,2,1,1.550934199999574,['c'],1,left,none,-99,-99,0.2,-99,0,none,2,19,Woman,Right,
21,2,1,0.7658496999993076,['n'],1,right,none,-99,-99,0.4,-99,0,none,2,19,Woman,Right,
22,2,1,0.7503877999997712,['c'],0,right,none,-99,-99,0.1,-99,0,none,2,19,Woman,Right,
23,2,1,1.583038600000691,['n'],1,right,none,-99,-99,0.1,-99,0,none,2,19,Woman,Right,
0,3,1,3.185648699999547,['n'],1,right,['e'],1,2.2118657000000894,0.1,1,0,none,2,19,Woman,Right,
1,3,1,1.936072200000126,['n'],1,right,['e'],1,1.5729792000001908,0.2,1,0,none,2,19,Woman,Right,
2,3,1,3.850730299999668,['n'],0,left,['u'],0,0.9792773999997735,0.1,1,0,none,2,19,Woman,Right,
3,3,1,1.4014330999998492,['c'],1,left,['e'],1,0.6658207999998922,0.4,1,0,none,2,19,Woman,Right,
4,3,1,3.417845799999668,['c'],1,left,['u'],0,0.7170012000005954,0.2,0,0,none,2,19,Woman,Right,
5,3,1,3.899489299999914,['c'],1,left,['u'],0,0.76411410000037,0.4,0,0,none,2,19,Woman,Right,
6,3,1,1.8352342999996836,['n'],1,right,['e'],1,0.9371640000008483,0.4,1,0,none,2,19,Woman,Right,
7,3,1,2.999599099999614,['c'],1,left,['u'],0,0.7864835999998832,0.2,0,0,none,2,19,Woman,Right,
8,3,1,3.4166062000003876,['n'],1,right,['u'],0,0.5935764000005292,0.1,0,0,none,2,19,Woman,Right,
9,3,1,2.9015395999995235,['n'],1,right,['e'],1,0.39568599999984144,0.2,1,0,none,2,19,Woman,Right,
10,3,1,2.800884899999801,['n'],1,right,['e'],1,0.9947877000004155,0.4,1,0,none,2,19,Woman,Right,
11,3,1,3.3187185999995563,['c'],0,right,['u'],0,0.6845839999996315,0.1,1,0,none,2,19,Woman,Right,
12,3,1,2.3010819000000993,['c'],1,left,['e'],1,1.0038917000001675,0.4,1,0,none,2,19,Woman,Right,
13,3,1,3.94968340000014,['n'],1,right,['e'],1,0.44442009999966103,0.4,1,0,none,2,19,Woman,Right,
14,3,1,3.6175428000005923,['n'],1,right,['e'],1,0.7530096999998932,0.1,1,0,none,2,19,Woman,Right,
15,3,1,2.5848237000000154,['n'],1,right,['e'],1,0.785635999999613,0.2,1,0,none,2,19,Woman,Right,
16,3,1,1.8845449000000372,['c'],1,left,['e'],1,1.677263600000515,0.2,1,0,none,2,19,Woman,Right,
17,3,1,4.184812400000737,['c'],1,left,['u'],0,0.9709194999995816,0.4,0,0,none,2,19,Woman,Right,
18,3,1,4.034409400000186,['c'],1,left,['u'],0,0.45630869999968127,0.4,0,0,none,2,19,Woman,Right,
19,3,1,2.716429600000083,['c'],1,left,['e'],1,0.6728817000002891,0.2,1,0,none,2,19,Woman,Right,
20,3,1,5.00082459999976,x,-99,left,none,-99,-99,0.1,-99,1,none,2,19,Woman,Right,
21,3,1,3.4185005999997884,['n'],1,right,['u'],0,0.6417713000000731,0.1,0,0,none,2,19,Woman,Right,
22,3,1,1.8830689000005805,['c'],1,left,['u'],0,6.067576299999928,0.1,0,0,none,2,19,Woman,Right,
23,3,1,2.2852882999995927,['n'],1,right,['e'],1,0.7804266000002826,0.2,1,0,none,2,19,Woman,Right,
0,4,1,0.9180662999997367,['n'],0,left,['u'],0,1.604321599999821,0.1,1,0,FastFast,2,19,Woman,Right,
1,4,1,0.7332257999996727,['n'],0,left,['u'],0,0.6653152000008049,0.1,1,0,FastFast,2,19,Woman,Right,
2,4,1,0.6836864999995669,['c'],1,left,['e'],1,0.32517039999947883,0.4,1,0,FastFast,2,19,Woman,Right,
3,4,1,0.6665458000006765,['n'],1,right,['e'],1,0.831843700000718,0.4,1,0,FastFast,2,19,Woman,Right,
4,4,1,1.4174105000001873,['n'],0,left,['u'],0,0.7765573000006043,0.2,1,0,FastFast,2,19,Woman,Right,
5,4,1,1.3516135999998369,['n'],1,right,['e'],1,0.45435880000059115,0.4,1,0,FastFast,2,19,Woman,Right,
6,4,1,1.1162126999997781,['c'],1,left,['u'],0,0.5700528999996095,0.2,0,0,FastFast,2,19,Woman,Right,
7,4,1,1.501495800000157,['n'],1,right,['e'],1,0.36106699999982084,0.2,1,0,FastFast,2,19,Woman,Right,
8,4,1,1.5683634999995775,['n'],1,right,['e'],1,0.6545470999999452,0.4,1,0,FastFast,2,19,Woman,Right,
9,4,1,1.25125990000015,['n'],0,left,['u'],0,0.37276810000003024,0.2,1,0,FastFast,2,19,Woman,Right,
10,4,1,1.4335418999999092,['n'],0,left,['e'],1,0.7675767000000633,0.2,0,0,FastFast,2,19,Woman,Right,
11,4,1,1.0513270000001285,['n'],1,right,['e'],1,0.5208793000001606,0.1,1,0,FastFast,2,19,Woman,Right,
12,4,1,1.0345993000000817,['n'],0,left,['u'],0,0.7012604000001375,0.4,1,0,FastFast,2,19,Woman,Right,
13,4,1,1.317287099999703,['n'],0,left,['e'],1,0.6386940000002141,0.1,0,0,FastFast,2,19,Woman,Right,
14,4,1,1.6017122000002928,['n'],1,right,['u'],0,0.35983829999986483,0.1,0,0,FastFast,2,19,Woman,Right,
15,4,1,1.3341614999999365,['n'],1,right,['u'],0,0.3433581999997841,0.1,0,0,FastFast,2,19,Woman,Right,
16,4,1,2.26797439999973,['n'],1,right,['u'],0,0.4330810000001293,0.4,0,0,FastFast,2,19,Woman,Right,
17,4,1,1.3670637999994142,['n'],0,left,['u'],0,0.5394935000003898,0.1,1,0,FastFast,2,19,Woman,Right,
18,4,1,1.2179251999996268,['c'],1,left,['e'],1,0.9036490000007689,0.2,1,0,FastFast,2,19,Woman,Right,
19,4,1,1.2670024000008198,['n'],0,left,['e'],1,0.628272900000411,0.2,0,0,FastFast,2,19,Woman,Right,
20,4,1,1.235256599999957,['n'],0,left,['u'],0,0.5235832000007576,0.1,1,0,FastFast,2,19,Woman,Right,
21,4,1,2.201583799999753,['n'],0,left,['e'],1,0.30535130000043864,0.4,0,0,FastFast,2,19,Woman,Right,
22,4,1,1.050996899999518,['n'],1,right,['e'],1,0.25365140000030806,0.2,1,0,FastFast,2,19,Woman,Right,
23,4,1,1.3179297000006045,['n'],0,left,['e'],1,0.2248251999999411,0.1,0,0,FastFast,2,19,Woman,Right,
24,4,1,0.901450799999111,['c'],0,right,['e'],1,0.48665250000067317,0.2,0,0,FastFast,2,19,Woman,Right,
25,4,1,1.4844869999997172,['n'],0,left,['e'],1,0.4423746000002211,0.4,0,0,FastFast,2,19,Woman,Right,
26,4,1,0.9517703999999867,['n'],1,right,['u'],0,0.29319049999958224,0.2,0,0,FastFast,2,19,Woman,Right,
27,4,1,1.1172686999998405,['n'],1,right,['u'],0,0.28749859999970795,0.2,0,0,FastFast,2,19,Woman,Right,
28,4,1,1.4182003999994777,['n'],0,left,['e'],1,0.2537156000007599,0.1,0,0,FastFast,2,19,Woman,Right,
29,4,1,1.251214599999912,['n'],0,left,['e'],1,0.5320369999999457,0.4,0,0,FastFast,2,19,Woman,Right,
30,4,1,1.0837328000006892,['c'],0,right,['u'],0,0.3581490999995367,0.2,1,0,FastFast,2,19,Woman,Right,
31,4,1,1.5184061999998448,['n'],0,left,['e'],1,0.4134194000007483,0.1,0,0,FastFast,2,19,Woman,Right,
32,4,1,1.2846129999998084,['n'],1,right,['u'],0,0.39552659999935713,0.1,0,0,FastFast,2,19,Woman,Right,
33,4,1,1.199808800000028,['c'],1,left,['u'],0,0.7345153000005666,0.2,0,0,FastFast,2,19,Woman,Right,
34,4,1,1.1847791000000143,['n'],1,right,['e'],1,0.4196273999996265,0.4,1,0,FastFast,2,19,Woman,Right,
35,4,1,1.3671926000006351,['c'],1,left,['e'],1,0.6383237000000008,0.4,1,0,FastFast,2,19,Woman,Right,
36,4,1,1.8003924999993615,['n'],0,left,['u'],0,0.38348690000020724,0.2,1,0,FastFast,2,19,Woman,Right,
37,4,1,2.6485405000003084,['n'],1,right,['e'],1,0.48933690000012575,0.4,1,0,FastFast,2,19,Woman,Right,
38,4,1,1.9507954999999129,['c'],1,left,['u'],0,0.5536334999997052,0.1,0,0,FastFast,2,19,Woman,Right,
39,4,1,1.2837862999995195,['n'],1,right,['e'],1,0.7867310000001453,0.2,1,0,FastFast,2,19,Woman,Right,
40,4,1,2.0511967000002187,['n'],1,right,['u'],0,0.8524403999999777,0.1,0,0,FastFast,2,19,Woman,Right,
41,4,1,1.7009839000002103,['c'],1,left,['u'],0,0.5277801000002,0.1,0,0,FastFast,2,19,Woman,Right,
42,4,1,1.8512449999998353,['c'],1,left,['u'],0,0.5163895000005141,0.2,0,0,FastFast,2,19,Woman,Right,
43,4,1,1.6684834999996383,['n'],1,right,['u'],0,0.5266162000007171,0.4,0,0,FastFast,2,19,Woman,Right,
44,4,1,1.6846740999999383,['n'],1,right,['e'],1,0.4727863999996771,0.4,1,0,FastFast,2,19,Woman,Right,
45,4,1,1.4173663000001397,['n'],1,right,['e'],1,0.51185119999991,0.2,1,0,FastFast,2,19,Woman,Right,
46,4,1,1.9832092999995439,['c'],0,right,['u'],0,0.510252600000058,0.1,1,0,FastFast,2,19,Woman,Right,
47,4,1,2.2849975999997696,['n'],1,right,['e'],1,0.5453927999997177,0.1,1,0,FastFast,2,19,Woman,Right,
48,4,1,1.7014318000001367,['n'],1,right,['u'],0,0.37754769999992277,0.2,0,0,FastFast,2,19,Woman,Right,
49,4,1,1.417045600000165,['c'],0,right,['u'],0,0.9333532999999079,0.4,1,0,FastFast,2,19,Woman,Right,
50,4,1,2.200008499999967,['n'],1,right,['u'],0,0.36251809999976103,0.1,0,0,FastFast,2,19,Woman,Right,
51,4,1,2.033230199999707,['c'],1,left,['e'],1,0.3482904000002236,0.4,1,0,FastFast,2,19,Woman,Right,
52,4,1,1.7011357999999746,['n'],1,right,['u'],0,0.3002624000000651,0.4,0,0,FastFast,2,19,Woman,Right,
53,4,1,1.5013365999993766,['c'],1,left,['e'],1,0.48643540000011853,0.4,1,0,FastFast,2,19,Woman,Right,
54,4,1,2.517766500000107,['n'],1,right,['u'],0,0.4495420000002923,0.1,0,0,FastFast,2,19,Woman,Right,
55,4,1,1.5511774000005971,['c'],1,left,['u'],0,0.3552979000005507,0.1,0,0,FastFast,2,19,Woman,Right,
56,4,1,1.3666119999998045,['c'],1,left,['e'],1,0.30538069999965956,0.4,1,0,FastFast,2,19,Woman,Right,
57,4,1,1.80081969999992,['c'],1,left,['e'],1,0.3351896999993187,0.4,1,0,FastFast,2,19,Woman,Right,
58,4,1,1.4012337000003754,['c'],0,right,['u'],0,0.8921211999995649,0.2,1,0,FastFast,2,19,Woman,Right,
59,4,1,3.0683469999994486,['n'],1,right,['u'],0,0.3527059999996709,0.2,0,0,FastFast,2,19,Woman,Right,
0,5,1,4.8344772999998895,['c'],0,right,['u'],0,0.5017935000005309,0.1,1,0,AccFast,2,19,Woman,Right,
1,5,1,3.368312199999309,['n'],1,right,['u'],0,0.8287114000004294,0.1,0,0,AccFast,2,19,Woman,Right,
2,5,1,3.8331559000007474,['n'],1,right,['u'],0,0.7907475000001796,0.1,0,0,AccFast,2,19,Woman,Right,
3,5,1,2.3686113999992813,['c'],1,left,['u'],0,0.45720669999991514,0.1,0,0,AccFast,2,19,Woman,Right,
4,5,1,1.417518199999904,['n'],1,right,['e'],1,0.4491551999999501,0.4,1,0,AccFast,2,19,Woman,Right,
5,5,1,3.2675216999996337,['c'],1,left,['u'],0,0.942465699999957,0.1,0,0,AccFast,2,19,Woman,Right,
6,5,1,2.433029899999383,['n'],1,right,['u'],0,0.5389818000003288,0.2,0,0,AccFast,2,19,Woman,Right,
7,5,1,4.6667286000001695,['n'],1,right,['u'],0,0.6860436999995727,0.4,0,0,AccFast,2,19,Woman,Right,
8,5,1,4.052448800000093,['n'],0,left,['u'],0,0.6101595999998608,0.1,1,0,AccFast,2,19,Woman,Right,
9,5,1,1.3008386999999857,['n'],1,right,['e'],1,0.2323593000000983,0.4,1,0,AccFast,2,19,Woman,Right,
10,5,1,5.000627200000054,x,-99,left,none,-99,-99,0.1,-99,1,AccFast,2,19,Woman,Right,
11,5,1,3.8343058999998902,['n'],1,right,['e'],1,1.2029772999994748,0.4,1,0,AccFast,2,19,Woman,Right,
12,5,1,1.867841999999655,['c'],1,left,['e'],1,1.0667427999997017,0.4,1,0,AccFast,2,19,Woman,Right,
13,5,1,4.017719399999805,['c'],1,left,['u'],0,1.4102781000001414,0.1,0,0,AccFast,2,19,Woman,Right,
14,5,1,2.7510625999993863,['n'],0,left,['e'],1,0.41436499999963416,0.2,0,0,AccFast,2,19,Woman,Right,
15,5,1,4.300193699999909,['n'],0,left,['u'],0,0.5645574000000124,0.1,1,0,AccFast,2,19,Woman,Right,
16,5,1,2.432901799999854,['n'],1,right,['e'],1,0.4306726999993771,0.1,1,0,AccFast,2,19,Woman,Right,
17,5,1,2.6675187999999252,['n'],0,left,['u'],0,0.4212250000000495,0.2,1,0,AccFast,2,19,Woman,Right,
18,5,1,2.284359299999778,['c'],1,left,['e'],1,0.4274026999992202,0.4,1,0,AccFast,2,19,Woman,Right,
19,5,1,4.734056199999941,['n'],1,right,['e'],1,1.4722773000003144,0.2,1,0,AccFast,2,19,Woman,Right,
20,5,1,3.0339209000003393,['n'],0,left,['u'],0,0.6545620999995663,0.2,1,0,AccFast,2,19,Woman,Right,
21,5,1,5.01594920000025,x,-99,right,none,-99,-99,0.2,-99,1,AccFast,2,19,Woman,Right,
22,5,1,3.8675468000001274,['c'],1,left,['e'],1,0.6145512000002782,0.2,1,0,AccFast,2,19,Woman,Right,
23,5,1,4.26683679999951,['c'],1,left,['e'],1,0.5337098999998489,0.4,1,0,AccFast,2,19,Woman,Right,
24,5,1,2.784548300000097,['c'],1,left,['e'],1,0.4195300000001225,0.2,1,0,AccFast,2,19,Woman,Right,
25,5,1,2.9507180000000517,['n'],1,right,['e'],1,0.3518338000003496,0.4,1,0,AccFast,2,19,Woman,Right,
26,5,1,1.9996176000004198,['c'],1,left,['e'],1,0.5474363000002995,0.1,1,0,AccFast,2,19,Woman,Right,
27,5,1,4.001700400000118,['n'],0,left,['u'],0,0.4800948000001881,0.1,1,0,AccFast,2,19,Woman,Right,
28,5,1,3.316028700000061,['n'],1,right,['e'],1,0.44396750000032625,0.1,1,0,AccFast,2,19,Woman,Right,
29,5,1,4.067756800000097,['c'],1,left,['u'],0,0.5539602999997442,0.1,0,0,AccFast,2,19,Woman,Right,
30,5,1,3.5162583999999697,['n'],0,left,['u'],0,1.1138208000002123,0.2,1,0,AccFast,2,19,Woman,Right,
31,5,1,2.067403000000013,['n'],1,right,['e'],1,0.39639620000070863,0.4,1,0,AccFast,2,19,Woman,Right,
32,5,1,1.5842149999998583,['n'],1,right,['e'],1,0.41507200000069133,0.2,1,0,AccFast,2,19,Woman,Right,
33,5,1,3.134720600000037,['n'],0,left,['u'],0,0.6113559000004898,0.1,1,0,AccFast,2,19,Woman,Right,
34,5,1,3.5675459000003684,['n'],1,right,['u'],0,0.5277145000000019,0.2,0,0,AccFast,2,19,Woman,Right,
35,5,1,2.3844712000000072,['c'],1,left,['e'],1,0.6536028999998962,0.2,1,0,AccFast,2,19,Woman,Right,
36,5,1,2.849042599999848,['c'],1,left,['e'],1,0.7255066000006991,0.4,1,0,AccFast,2,19,Woman,Right,
37,5,1,4.667368299999907,['n'],1,right,['u'],0,1.0712840999995024,0.2,0,0,AccFast,2,19,Woman,Right,
38,5,1,3.4514067999998588,['n'],1,right,['u'],0,0.8933264999996027,0.2,0,0,AccFast,2,19,Woman,Right,
39,5,1,4.451313799999298,['c'],0,right,['u'],0,0.5549563000004127,0.4,1,0,AccFast,2,19,Woman,Right,
40,5,1,4.651005399999121,['c'],0,right,['u'],0,0.9095477999999275,0.1,1,0,AccFast,2,19,Woman,Right,
41,5,1,4.501060999999936,['n'],0,left,['u'],0,0.8078432000002067,0.4,1,0,AccFast,2,19,Woman,Right,
42,5,1,2.3506790000001274,['c'],1,left,['u'],0,0.780117500000415,0.4,0,0,AccFast,2,19,Woman,Right,
43,5,1,4.333996399999705,['c'],1,left,['u'],0,0.5941327000000456,0.2,0,0,AccFast,2,19,Woman,Right,
44,5,1,4.001664899999923,['n'],1,right,['u'],0,1.5331888000000617,0.4,0,0,AccFast,2,19,Woman,Right,
45,5,1,4.650217699999303,['n'],0,left,['u'],0,1.0324059999993551,0.1,1,0,AccFast,2,19,Woman,Right,
46,5,1,2.3832976000003327,['n'],1,right,['u'],0,1.2830783999997948,0.1,0,0,AccFast,2,19,Woman,Right,
47,5,1,4.400530800000524,['n'],0,left,['u'],0,0.7377038000004177,0.2,1,0,AccFast,2,19,Woman,Right,
48,5,1,2.7843218000007255,['n'],1,right,['e'],1,0.6953995000003488,0.4,1,0,AccFast,2,19,Woman,Right,
49,5,1,5.0002206999997725,x,-99,right,none,-99,-99,0.2,-99,1,AccFast,2,19,Woman,Right,
50,5,1,3.617480500000056,['n'],1,right,['u'],0,0.6960030999998708,0.1,0,0,AccFast,2,19,Woman,Right,
51,5,1,2.899461699999847,['n'],1,right,['u'],0,0.5395313999997597,0.4,0,0,AccFast,2,19,Woman,Right,
52,5,1,4.382451200000105,['n'],1,right,['u'],0,0.5858163000002605,0.4,0,0,AccFast,2,19,Woman,Right,
53,5,1,2.301405700000032,['c'],1,left,['e'],1,0.7114520000004632,0.4,1,0,AccFast,2,19,Woman,Right,
54,5,1,4.4850272000003315,['n'],1,right,['u'],0,0.3792174000000159,0.2,0,0,AccFast,2,19,Woman,Right,
55,5,1,1.5512371999993775,['c'],1,left,['e'],1,0.6396867999992537,0.4,1,0,AccFast,2,19,Woman,Right,
56,5,1,5.0012080999995305,x,-99,right,none,-99,-99,0.1,-99,1,AccFast,2,19,Woman,Right,
57,5,1,3.333647700000256,['c'],1,left,['u'],0,1.134931499999766,0.2,0,0,AccFast,2,19,Woman,Right,
58,5,1,3.4505150000004505,['c'],1,left,['e'],1,1.210066900000129,0.4,1,0,AccFast,2,19,Woman,Right,
59,5,1,1.801298599999427,['n'],1,right,['u'],0,0.7397867999998198,0.2,0,0,AccFast,2,19,Woman,Right,
0,6,1,3.551441999999952,['n'],0,left,['u'],0,3.6842061999996076,0.2,1,0,AccAcc,2,19,Woman,Right,
1,6,1,4.117178200000126,['n'],1,right,['e'],1,0.7825702000000092,0.2,1,0,AccAcc,2,19,Woman,Right,
2,6,1,4.085069299999304,['c'],1,left,['u'],0,1.5672066999995877,0.4,0,0,AccAcc,2,19,Woman,Right,
3,6,1,4.717672300000231,['n'],0,left,['u'],0,5.670157900000049,0.1,1,0,AccAcc,2,19,Woman,Right,
4,6,1,4.365907399999742,['c'],1,left,['u'],0,0.9517731000005369,0.1,0,0,AccAcc,2,19,Woman,Right,
5,6,1,1.5011913999996978,['n'],1,right,['e'],1,1.0638233999998192,0.4,1,0,AccAcc,2,19,Woman,Right,
6,6,1,4.234340500000144,['c'],0,right,['u'],0,4.822351000000708,0.1,1,0,AccAcc,2,19,Woman,Right,
7,6,1,3.9839437000000544,['n'],1,right,['e'],1,4.089864199999283,0.1,1,0,AccAcc,2,19,Woman,Right,
8,6,1,4.417638099999749,['n'],1,right,['e'],1,6.088074000000233,0.1,1,0,AccAcc,2,19,Woman,Right,
9,6,1,4.051282100000208,['n'],1,right,['u'],0,2.614061700000093,0.2,0,0,AccAcc,2,19,Woman,Right,
10,6,1,5.0002429999995,x,-99,right,none,-99,-99,0.1,-99,1,AccAcc,2,19,Woman,Right,
11,6,1,3.5833732999999484,['c'],1,left,['u'],0,2.267479899999671,0.4,0,0,AccAcc,2,19,Woman,Right,
12,6,1,1.8499870999994528,['c'],1,left,['u'],0,2.249880600000324,0.4,0,0,AccAcc,2,19,Woman,Right,
13,6,1,4.282034400000157,['n'],0,left,['u'],0,2.7432042000000365,0.1,1,0,AccAcc,2,19,Woman,Right,
14,6,1,4.584759100000156,['c'],1,left,['u'],0,2.180612299999666,0.1,0,0,AccAcc,2,19,Woman,Right,
15,6,1,4.417082199999641,['n'],1,right,['e'],1,2.927139200000056,0.1,1,0,AccAcc,2,19,Woman,Right,
16,6,1,2.716971100000592,['n'],1,right,['e'],1,1.4247334000001501,0.4,1,0,AccAcc,2,19,Woman,Right,
17,6,1,3.4670186000003014,['n'],1,right,['e'],1,0.5757675999993808,0.1,1,0,AccAcc,2,19,Woman,Right,
18,6,1,4.848870599999827,['c'],1,left,['u'],0,3.339221400000497,0.1,0,0,AccAcc,2,19,Woman,Right,
19,6,1,3.850765400000455,['n'],1,right,['e'],1,3.485330800000156,0.1,1,0,AccAcc,2,19,Woman,Right,
20,6,1,5.016524599999684,x,-99,left,none,-99,-99,0.1,-99,1,AccAcc,2,19,Woman,Right,
21,6,1,2.0005903999999646,['n'],1,right,['u'],0,3.1824839999999313,0.2,0,0,AccAcc,2,19,Woman,Right,
22,6,1,3.0011100000001534,['n'],0,left,['e'],1,2.521908199999416,0.1,0,0,AccAcc,2,19,Woman,Right,
23,6,1,3.1353762999997343,['n'],1,right,['e'],1,2.394529000000148,0.2,1,0,AccAcc,2,19,Woman,Right,
24,6,1,3.0352295000002414,['c'],1,left,['u'],0,1.8765370000000985,0.2,0,0,AccAcc,2,19,Woman,Right,
25,6,1,1.6177267999992182,['n'],1,right,['e'],1,2.2675174000005427,0.4,1,0,AccAcc,2,19,Woman,Right,
26,6,1,2.9841206000000966,['n'],1,right,['u'],0,1.8844374999998763,0.2,0,0,AccAcc,2,19,Woman,Right,
27,6,1,1.4344829000001482,['n'],1,right,['e'],1,2.5378296999997474,0.4,1,0,AccAcc,2,19,Woman,Right,
28,6,1,4.517036499999449,['n'],0,left,['u'],0,2.4025746999996045,0.2,1,0,AccAcc,2,19,Woman,Right,
29,6,1,3.301212899999882,['n'],1,right,['e'],1,1.601292100000137,0.2,1,0,AccAcc,2,19,Woman,Right,
30,6,1,4.250721899999917,['c'],1,left,['u'],0,2.905933400000322,0.4,0,0,AccAcc,2,19,Woman,Right,
31,6,1,4.917576400000144,['n'],0,left,['u'],0,1.3816077000001314,0.1,1,0,AccAcc,2,19,Woman,Right,
32,6,1,3.16599959999985,['n'],1,right,['e'],1,2.466001800000413,0.2,1,0,AccAcc,2,19,Woman,Right,
33,6,1,3.4504045000003316,['c'],1,left,['e'],1,2.5519478999995044,0.2,1,0,AccAcc,2,19,Woman,Right,
34,6,1,3.3686835000007704,['n'],1,right,['u'],0,2.365037499999744,0.2,0,0,AccAcc,2,19,Woman,Right,
35,6,1,5.000933999999688,x,-99,right,none,-99,-99,0.2,-99,1,AccAcc,2,19,Woman,Right,
36,6,1,1.3505433000000266,['n'],1,right,['e'],1,1.8291125000005195,0.4,1,0,AccAcc,2,19,Woman,Right,
37,6,1,3.701000099999874,['c'],1,left,['u'],0,1.6264391999993677,0.2,0,0,AccAcc,2,19,Woman,Right,
38,6,1,2.3680214000005435,['c'],1,left,['e'],1,1.6614826999993966,0.4,1,0,AccAcc,2,19,Woman,Right,
39,6,1,1.916295099999843,['n'],1,right,['e'],1,2.306015600000137,0.4,1,0,AccAcc,2,19,Woman,Right,
40,6,1,2.048868300000322,['n'],1,right,['e'],1,1.9105541999997513,0.4,1,0,AccAcc,2,19,Woman,Right,
41,6,1,2.7004981000000043,['n'],1,right,['e'],1,1.903634499999498,0.4,1,0,AccAcc,2,19,Woman,Right,
42,6,1,3.2183672999999544,['c'],1,left,['u'],0,2.053576399999656,0.1,0,0,AccAcc,2,19,Woman,Right,
43,6,1,3.3657812000001286,['n'],1,right,['u'],0,1.6321982999998,0.4,0,0,AccAcc,2,19,Woman,Right,
44,6,1,2.8842038000002503,['c'],0,right,['e'],1,1.517680200000541,0.4,0,0,AccAcc,2,19,Woman,Right,
45,6,1,2.8524527000008675,['c'],1,left,['u'],0,1.3611653999996634,0.2,0,0,AccAcc,2,19,Woman,Right,
46,6,1,4.200577199999316,['n'],0,left,['u'],0,1.0138551999998526,0.2,1,0,AccAcc,2,19,Woman,Right,
47,6,1,3.2167664999997214,['n'],1,right,['u'],0,0.6554367999997339,0.2,0,0,AccAcc,2,19,Woman,Right,
48,6,1,3.1348557000001165,['c'],0,right,['u'],0,1.7861311000006026,0.4,1,0,AccAcc,2,19,Woman,Right,
49,6,1,2.632980999999745,['c'],1,left,['u'],0,1.4046172999996998,0.4,0,0,AccAcc,2,19,Woman,Right,
50,6,1,2.46721720000005,['n'],0,left,['u'],0,1.9400761999995666,0.4,1,0,AccAcc,2,19,Woman,Right,
51,6,1,4.650376099999448,['c'],1,left,['u'],0,1.119163800000024,0.1,0,0,AccAcc,2,19,Woman,Right,
52,6,1,4.183155900000202,['n'],0,left,['u'],0,1.0379683999999543,0.2,1,0,AccAcc,2,19,Woman,Right,
53,6,1,1.8668081000005259,['c'],1,left,['u'],0,1.677423799999815,0.1,0,0,AccAcc,2,19,Woman,Right,
54,6,1,2.467633399999613,['c'],1,left,['u'],0,1.0653628000000026,0.2,0,0,AccAcc,2,19,Woman,Right,
55,6,1,4.101343299999826,['n'],0,left,['u'],0,2.413951900000029,0.1,1,0,AccAcc,2,19,Woman,Right,
56,6,1,2.817944599999464,['n'],1,right,['e'],1,1.6625887000000148,0.4,1,0,AccAcc,2,19,Woman,Right,
57,6,1,3.4831569999996645,['n'],0,left,['u'],0,1.15583770000012,0.4,1,0,AccAcc,2,19,Woman,Right,
58,6,1,2.9999111999995876,['n'],1,right,['u'],0,0.6876144999996541,0.2,0,0,AccAcc,2,19,Woman,Right,
59,6,1,3.3003005999999004,['n'],0,left,['u'],0,1.2827605000002222,0.1,1,0,AccAcc,2,19,Woman,Right,
0,7,1,1.1010029999997641,['n'],0,left,['u'],0,3.8397896999995282,0.4,1,0,FastAcc,2,19,Woman,Right,
1,7,1,1.0335154000003968,['n'],1,right,['e'],1,4.126951799999915,0.4,1,0,FastAcc,2,19,Woman,Right,
2,7,1,1.8014833999995972,['n'],1,right,['u'],0,3.316928199999893,0.2,0,0,FastAcc,2,19,Woman,Right,
3,7,1,1.2671460999999908,['c'],1,left,['e'],1,1.5849412999996275,0.2,1,0,FastAcc,2,19,Woman,Right,
4,7,1,1.2511392000005799,['n'],1,right,['e'],1,3.0094011999999566,0.2,1,0,FastAcc,2,19,Woman,Right,
5,7,1,3.184356200000366,['n'],0,left,['u'],0,3.2608253999997032,0.2,1,0,FastAcc,2,19,Woman,Right,
6,7,1,1.1014497999995,['n'],1,right,['e'],1,2.9289351999996143,0.1,1,0,FastAcc,2,19,Woman,Right,
7,7,1,1.2336810000006153,['c'],1,left,['e'],1,1.5016077000000223,0.4,1,0,FastAcc,2,19,Woman,Right,
8,7,1,2.1506941999996343,['c'],1,left,['e'],1,2.4465116999999736,0.4,1,0,FastAcc,2,19,Woman,Right,
9,7,1,1.2678058999999848,['n'],1,right,['u'],0,2.2684595999999146,0.2,0,0,FastAcc,2,19,Woman,Right,
10,7,1,1.467803799999274,['c'],1,left,['e'],1,2.0402673999997205,0.4,1,0,FastAcc,2,19,Woman,Right,
11,7,1,3.26771589999953,['c'],1,left,['u'],0,3.831615599999168,0.2,0,0,FastAcc,2,19,Woman,Right,
12,7,1,1.0684111999999004,['n'],1,right,['e'],1,2.5507743000007395,0.4,1,0,FastAcc,2,19,Woman,Right,
13,7,1,0.9677685999995447,['n'],1,right,['e'],1,2.8112984999997934,0.4,1,0,FastAcc,2,19,Woman,Right,
14,7,1,1.0675950000004377,['c'],1,left,['e'],1,2.6582634999995207,0.1,1,0,FastAcc,2,19,Woman,Right,
15,7,1,1.684983199999806,['c'],1,left,['u'],0,2.471700199999759,0.2,0,0,FastAcc,2,19,Woman,Right,
16,7,1,2.200221299999612,['c'],0,right,['u'],0,2.8314734000005046,0.2,1,0,FastAcc,2,19,Woman,Right,
17,7,1,1.284947899999679,['c'],1,left,['u'],0,2.189236900000651,0.1,0,0,FastAcc,2,19,Woman,Right,
18,7,1,1.7677930999998352,['c'],1,left,['u'],0,2.7377016999998887,0.1,0,0,FastAcc,2,19,Woman,Right,
19,7,1,1.5012163999999757,['n'],0,left,['u'],0,1.8829624999998487,0.1,1,0,FastAcc,2,19,Woman,Right,
20,7,1,1.1179369999999835,['c'],1,left,['e'],1,2.005257600000732,0.4,1,0,FastAcc,2,19,Woman,Right,
21,7,1,1.9001883999999336,['n'],1,right,['u'],0,2.34914260000005,0.1,0,0,FastAcc,2,19,Woman,Right,
22,7,1,0.9163065000002462,['c'],1,left,['e'],1,3.004374999999527,0.1,1,0,FastAcc,2,19,Woman,Right,
23,7,1,1.799716499999704,['n'],0,left,['u'],0,2.2699750000001586,0.2,1,0,FastAcc,2,19,Woman,Right,
24,7,1,1.2684887999994316,['n'],1,right,['e'],1,1.6832690999999613,0.4,1,0,FastAcc,2,19,Woman,Right,
25,7,1,0.9678948000000673,['n'],1,right,['e'],1,2.3636876000000484,0.4,1,0,FastAcc,2,19,Woman,Right,
26,7,1,1.5513860999999451,['n'],1,right,['e'],1,1.4892903999998452,0.2,1,0,FastAcc,2,19,Woman,Right,
27,7,1,0.86607019999974,['n'],1,right,['e'],1,3.0142581999998583,0.4,1,0,FastAcc,2,19,Woman,Right,
28,7,1,1.0003679000001284,['n'],1,right,['u'],0,2.29595689999951,0.1,0,0,FastAcc,2,19,Woman,Right,
29,7,1,1.1333258000004207,['n'],0,left,['e'],1,2.3371504999995523,0.1,0,0,FastAcc,2,19,Woman,Right,
30,7,1,1.0515586999999869,['n'],1,right,['u'],0,2.28388619999987,0.2,0,0,FastAcc,2,19,Woman,Right,
31,7,1,1.1014695000003485,['c'],1,left,['e'],1,4.0867183999998815,0.2,1,0,FastAcc,2,19,Woman,Right,
32,7,1,1.1661669000004622,['n'],1,right,['u'],0,2.0402233000004344,0.1,0,0,FastAcc,2,19,Woman,Right,
33,7,1,1.1008402000006754,['c'],0,right,['u'],0,2.492561299999579,0.1,1,0,FastAcc,2,19,Woman,Right,
34,7,1,1.1345498999999108,['c'],1,left,['e'],1,2.206191100000069,0.2,1,0,FastAcc,2,19,Woman,Right,
35,7,1,0.8343365000000631,['c'],1,left,['e'],1,3.559723700000177,0.4,1,0,FastAcc,2,19,Woman,Right,
36,7,1,1.9345284999999421,['c'],0,right,['u'],0,2.592077100000097,0.1,1,0,FastAcc,2,19,Woman,Right,
37,7,1,1.0834826999998768,['c'],1,left,['e'],1,4.063166100000672,0.2,1,0,FastAcc,2,19,Woman,Right,
38,7,1,1.3511085000000094,['c'],1,left,['e'],1,1.4644078999999692,0.1,1,0,FastAcc,2,19,Woman,Right,
39,7,1,1.5513132000005498,['n'],1,right,['u'],0,1.8262218999998368,0.4,0,0,FastAcc,2,19,Woman,Right,
40,7,1,1.0179498999996213,['c'],0,right,['e'],1,2.4029582000002847,0.2,0,0,FastAcc,2,19,Woman,Right,
41,7,1,0.8846891999992295,['c'],1,left,['e'],1,2.675097299999834,0.4,1,0,FastAcc,2,19,Woman,Right,
42,7,1,0.9183496000005107,['c'],0,right,['u'],0,2.485407000000123,0.1,1,0,FastAcc,2,19,Woman,Right,
43,7,1,1.684490800000276,['n'],1,right,['u'],0,2.00121450000006,0.4,0,0,FastAcc,2,19,Woman,Right,
44,7,1,1.6005731000004744,['c'],1,left,['u'],0,3.0595186999998987,0.1,0,0,FastAcc,2,19,Woman,Right,
45,7,1,1.8179787999997643,['n'],1,right,['e'],1,1.587466000000859,0.4,1,0,FastAcc,2,19,Woman,Right,
46,7,1,1.2679559999996854,['n'],1,right,['u'],0,2.099846300000536,0.4,0,0,FastAcc,2,19,Woman,Right,
47,7,1,1.4846182000001136,['n'],1,right,['u'],0,2.1188750000001164,0.2,0,0,FastAcc,2,19,Woman,Right,
48,7,1,2.084152399999766,['n'],1,right,['e'],1,1.2974500000000262,0.2,1,0,FastAcc,2,19,Woman,Right,
49,7,1,1.8000308999999106,['c'],1,left,['u'],0,1.6406624000001102,0.4,0,0,FastAcc,2,19,Woman,Right,
50,7,1,2.6495349999995597,['c'],0,right,['u'],0,2.8151262999999744,0.1,1,0,FastAcc,2,19,Woman,Right,
51,7,1,2.8337163999995028,['c'],1,left,['u'],0,1.6000402999998187,0.1,0,0,FastAcc,2,19,Woman,Right,
52,7,1,1.7668772000006356,['n'],1,right,['e'],1,1.0359236000003875,0.2,1,0,FastAcc,2,19,Woman,Right,
53,7,1,0.883987100000013,['c'],1,left,['u'],0,1.825096300000041,0.1,0,0,FastAcc,2,19,Woman,Right,
54,7,1,2.1344328999994104,['c'],1,left,['e'],1,1.6535358999999517,0.4,1,0,FastAcc,2,19,Woman,Right,
55,7,1,0.8513726000001043,['c'],1,left,['e'],1,2.036023899999236,0.2,1,0,FastAcc,2,19,Woman,Right,
56,7,1,0.7679132000002937,['n'],1,right,['e'],1,2.1031681999993452,0.4,1,0,FastAcc,2,19,Woman,Right,
57,7,1,2.6849726000000373,['c'],1,left,['u'],0,2.1374548000003415,0.2,0,0,FastAcc,2,19,Woman,Right,
58,7,1,1.4155833999993774,['n'],1,right,['u'],0,1.886760200000026,0.1,0,0,FastAcc,2,19,Woman,Right,
59,7,1,1.749090299999807,['n'],0,left,['u'],0,1.104514399999971,0.1,1,0,FastAcc,2,19,Woman,Right,
0,8,1,0.6678916000000754,['n'],1,right,['u'],0,0.9278233000004548,0.2,0,0,FastFast,2,19,Woman,Right,
1,8,1,0.5349279000001843,['c'],1,left,['e'],1,0.35970150000048307,0.2,1,0,FastFast,2,19,Woman,Right,
2,8,1,0.5346502000002147,['n'],1,right,['e'],1,0.4706897999994908,0.1,1,0,FastFast,2,19,Woman,Right,
3,8,1,0.501108700000259,['c'],1,left,['e'],1,0.35398389999954816,0.1,1,0,FastFast,2,19,Woman,Right,
4,8,1,0.8343542000002344,['n'],1,right,['e'],1,0.804874700000255,0.4,1,0,FastFast,2,19,Woman,Right,
5,8,1,0.45044249999955355,['n'],1,right,['e'],1,0.3899540000002162,0.2,1,0,FastFast,2,19,Woman,Right,
6,8,1,0.5180576000002475,['c'],0,right,['u'],0,0.7875009999997928,0.4,1,0,FastFast,2,19,Woman,Right,
7,8,1,0.7345407000002524,['c'],1,left,['u'],0,0.9050695999994787,0.1,0,0,FastFast,2,19,Woman,Right,
8,8,1,1.0837897999999768,['n'],1,right,['u'],0,0.4119333999997252,0.1,0,0,FastFast,2,19,Woman,Right,
9,8,1,1.0174004999998942,['n'],0,left,['u'],0,0.45293409999976575,0.1,1,0,FastFast,2,19,Woman,Right,
10,8,1,0.550364400000035,['c'],1,left,['u'],0,0.5752022999995461,0.4,0,0,FastFast,2,19,Woman,Right,
11,8,1,1.7336939000006168,['n'],0,left,['u'],0,0.5495429000002332,0.1,1,0,FastFast,2,19,Woman,Right,
12,8,1,0.5839091999996526,['c'],1,left,['e'],1,0.4103227000005063,0.2,1,0,FastFast,2,19,Woman,Right,
13,8,1,0.6846839999998338,['n'],1,right,['e'],1,0.4012775999999576,0.4,1,0,FastFast,2,19,Woman,Right,
14,8,1,1.7496594000003824,['c'],0,right,['u'],0,0.6542775999996593,0.2,1,0,FastFast,2,19,Woman,Right,
15,8,1,0.8181193999998868,['n'],1,right,['u'],0,0.5171405999999479,0.1,0,0,FastFast,2,19,Woman,Right,
16,8,1,0.5682228000005125,['n'],0,left,['u'],0,0.8598882999995112,0.1,1,0,FastFast,2,19,Woman,Right,
17,8,1,0.8675317999995968,['n'],0,left,['u'],0,0.5857900999999401,0.1,1,0,FastFast,2,19,Woman,Right,
18,8,1,2.0678862999993726,['n'],1,right,['u'],0,0.48297459999957937,0.1,0,0,FastFast,2,19,Woman,Right,
19,8,1,1.317074099999445,['n'],1,right,['u'],0,0.9245756999998775,0.1,0,0,FastFast,2,19,Woman,Right,
20,8,1,1.1183918999995512,['c'],0,right,['u'],0,0.6701081999999587,0.1,1,0,FastFast,2,19,Woman,Right,
21,8,1,0.9663527000002432,['c'],1,left,['e'],1,0.7183304999998654,0.4,1,0,FastFast,2,19,Woman,Right,
22,8,1,0.9507720000001427,['c'],1,left,['u'],0,0.9107663999993747,0.4,0,0,FastFast,2,19,Woman,Right,
23,8,1,1.0670459000002666,['n'],1,right,['e'],1,0.40190590000020165,0.2,1,0,FastFast,2,19,Woman,Right,
24,8,1,1.533018400000401,['c'],1,left,['e'],1,0.3914143000001786,0.2,1,0,FastFast,2,19,Woman,Right,
25,8,1,0.701392300000407,['n'],0,left,['e'],1,0.4613638999999239,0.1,0,0,FastFast,2,19,Woman,Right,
26,8,1,0.7678052000001117,['c'],1,left,['e'],1,0.3840818999997282,0.4,1,0,FastFast,2,19,Woman,Right,
27,8,1,1.1511171000001923,['n'],0,left,['u'],0,0.3398663999996643,0.1,1,0,FastFast,2,19,Woman,Right,
28,8,1,0.9182424999999057,['c'],1,left,['e'],1,0.4840715000000273,0.2,1,0,FastFast,2,19,Woman,Right,
29,8,1,0.7005491999998412,['n'],1,right,['e'],1,0.4406914000001052,0.1,1,0,FastFast,2,19,Woman,Right,
30,8,1,0.5836916999996902,['c'],1,left,['e'],1,0.5782307999998011,0.4,1,0,FastFast,2,19,Woman,Right,
31,8,1,1.618910400000459,['n'],0,left,['u'],0,0.23564150000038353,0.1,1,0,FastFast,2,19,Woman,Right,
32,8,1,0.6346754000005603,['n'],1,right,['e'],1,0.491061599999739,0.4,1,0,FastFast,2,19,Woman,Right,
33,8,1,0.9188759999997274,['n'],1,right,['e'],1,0.38939029999983177,0.4,1,0,FastFast,2,19,Woman,Right,
34,8,1,0.6329114999998637,['c'],0,right,['e'],1,0.3677983999996286,0.2,0,0,FastFast,2,19,Woman,Right,
35,8,1,0.932884699999704,['n'],1,right,['u'],0,0.39860809999936464,0.1,0,0,FastFast,2,19,Woman,Right,
36,8,1,0.6680804999996326,['n'],1,right,['e'],1,0.51725179999994,0.1,1,0,FastFast,2,19,Woman,Right,
37,8,1,1.3008825000006254,['n'],0,left,['u'],0,0.8799188000002687,0.4,1,0,FastFast,2,19,Woman,Right,
38,8,1,1.0341435000000274,['c'],1,left,['e'],1,0.5168625000005704,0.4,1,0,FastFast,2,19,Woman,Right,
39,8,1,1.4177648999993835,['n'],1,right,['e'],1,0.48911930000031134,0.2,1,0,FastFast,2,19,Woman,Right,
40,8,1,0.9681007999997746,['c'],1,left,['e'],1,0.4172376999995322,0.1,1,0,FastFast,2,19,Woman,Right,
41,8,1,1.4830062999999427,['c'],0,right,['u'],0,0.31297900000026857,0.4,1,0,FastFast,2,19,Woman,Right,
42,8,1,1.0846597999998266,['c'],0,right,['e'],1,0.9140047999999297,0.2,0,0,FastFast,2,19,Woman,Right,
43,8,1,0.8819602000003215,['n'],1,right,['e'],1,0.3815752999998949,0.4,1,0,FastFast,2,19,Woman,Right,
44,8,1,0.5016003000000637,['c'],1,left,['e'],1,0.41233660000034433,0.4,1,0,FastFast,2,19,Woman,Right,
45,8,1,1.1674935000000914,['c'],1,left,['e'],1,0.5441685999994661,0.2,1,0,FastFast,2,19,Woman,Right,
46,8,1,0.885835600000064,['c'],0,right,['e'],1,0.36015409999981784,0.2,0,0,FastFast,2,19,Woman,Right,
47,8,1,1.9818583999995099,['n'],1,right,['u'],0,0.46272529999987455,0.4,0,0,FastFast,2,19,Woman,Right,
48,8,1,0.9009414000001925,['c'],0,right,['u'],0,0.6496637000000192,0.4,1,0,FastFast,2,19,Woman,Right,
49,8,1,1.367286900000181,['c'],1,left,['u'],0,0.5390528999996604,0.1,0,0,FastFast,2,19,Woman,Right,
50,8,1,1.6697630000007848,['n'],1,right,['e'],1,0.9653378000002704,0.2,1,0,FastFast,2,19,Woman,Right,
51,8,1,0.9347367000000304,['c'],1,left,['u'],0,0.4436761999995724,0.4,0,0,FastFast,2,19,Woman,Right,
52,8,1,0.9671571999997468,['c'],1,left,['u'],0,0.32698919999984355,0.2,0,0,FastFast,2,19,Woman,Right,
53,8,1,1.5682514000000083,['c'],1,left,['e'],1,0.5089861999995264,0.2,1,0,FastFast,2,19,Woman,Right,
54,8,1,0.8346066999993127,['n'],1,right,['e'],1,1.25786860000062,0.4,1,0,FastFast,2,19,Woman,Right,
55,8,1,1.0345635000003313,['c'],1,left,['u'],0,0.38483069999983854,0.4,0,0,FastFast,2,19,Woman,Right,
56,8,1,1.2523363000000245,['c'],1,left,['e'],1,0.38571799999954237,0.2,1,0,FastFast,2,19,Woman,Right,
57,8,1,1.7171046000003116,['n'],1,right,['u'],0,0.432256299999608,0.2,0,0,FastFast,2,19,Woman,Right,
58,8,1,1.8175387000001137,['n'],1,right,['e'],1,0.2803567999999359,0.2,1,0,FastFast,2,19,Woman,Right,
59,8,1,1.318403300000682,['c'],1,left,['u'],0,0.7307250000003478,0.2,0,0,FastFast,2,19,Woman,Right,
0,9,1,2.833471200000531,['n'],1,right,['e'],1,1.0703087000001688,0.4,1,0,AccFast,2,19,Woman,Right,
1,9,1,3.9677219000004698,['c'],1,left,['u'],0,0.6306045000001177,0.1,0,0,AccFast,2,19,Woman,Right,
2,9,1,1.5682184999996025,['n'],1,right,['e'],1,2.896964200000184,0.2,1,0,AccFast,2,19,Woman,Right,
3,9,1,1.7846788999995624,['n'],1,right,['u'],0,1.8802181999999448,0.2,0,0,AccFast,2,19,Woman,Right,
4,9,1,1.2839516999993066,['c'],1,left,['u'],0,2.443933799999286,0.4,0,0,AccFast,2,19,Woman,Right,
5,9,1,1.1677697000004628,['n'],1,right,['e'],1,0.94255449999946,0.4,1,0,AccFast,2,19,Woman,Right,
6,9,1,1.1517868999999337,['c'],1,left,['e'],1,2.3332147000000987,0.2,1,0,AccFast,2,19,Woman,Right,
7,9,1,1.484830299999885,['c'],1,left,['e'],1,0.9511204000000362,0.2,1,0,AccFast,2,19,Woman,Right,
8,9,1,0.8840199999995093,['n'],1,right,['e'],1,0.6083542999995188,0.4,1,0,AccFast,2,19,Woman,Right,
9,9,1,3.800897299999633,['n'],0,left,['u'],0,0.99454760000026,0.4,1,0,AccFast,2,19,Woman,Right,
10,9,1,1.2354534000005515,['c'],1,left,['u'],0,1.0681813999999576,0.2,0,0,AccFast,2,19,Woman,Right,
11,9,1,3.8335646000005,['c'],1,left,['u'],0,1.147441200000685,0.1,0,0,AccFast,2,19,Woman,Right,
12,9,1,1.28411959999994,['c'],1,left,['e'],1,1.1479889000002004,0.4,1,0,AccFast,2,19,Woman,Right,
13,9,1,3.9180184000006193,['n'],0,left,['u'],0,0.6437760000007984,0.2,1,0,AccFast,2,19,Woman,Right,
14,9,1,2.167573700000503,['n'],0,left,['u'],0,0.7103050000005169,0.2,1,0,AccFast,2,19,Woman,Right,
15,9,1,2.768209900000329,['n'],0,left,['u'],0,0.23778419999962352,0.2,1,0,AccFast,2,19,Woman,Right,
16,9,1,1.4004413999991812,['n'],1,right,['e'],1,0.30369920000066486,0.4,1,0,AccFast,2,19,Woman,Right,
17,9,1,2.1679886000001716,['n'],0,left,['e'],1,0.41446240000004764,0.1,0,0,AccFast,2,19,Woman,Right,
18,9,1,2.184612400000333,['c'],1,left,['u'],0,0.360827600000448,0.4,0,0,AccFast,2,19,Woman,Right,
19,9,1,1.068855700000313,['n'],1,right,['u'],0,0.466438599999492,0.4,0,0,AccFast,2,19,Woman,Right,
20,9,1,2.017584799999895,['n'],1,right,['u'],0,0.6575347999996666,0.2,0,0,AccFast,2,19,Woman,Right,
21,9,1,1.4170925000007628,['n'],1,right,['e'],1,0.3540004000005865,0.1,1,0,AccFast,2,19,Woman,Right,
22,9,1,1.4511589000003369,['c'],1,left,['u'],0,0.5394792000006419,0.4,0,0,AccFast,2,19,Woman,Right,
23,9,1,2.0513502000003427,['n'],1,right,['u'],0,0.3433556999998473,0.1,0,0,AccFast,2,19,Woman,Right,
24,9,1,2.818112399999336,['c'],1,left,['u'],0,0.8108276000002661,0.2,0,0,AccFast,2,19,Woman,Right,
25,9,1,0.9513721000002988,['n'],1,right,['e'],1,0.8550801000001229,0.4,1,0,AccFast,2,19,Woman,Right,
26,9,1,1.516677300000083,['c'],1,left,['u'],0,0.331102699999974,0.2,0,0,AccFast,2,19,Woman,Right,
27,9,1,4.5508984999996756,['c'],0,right,['u'],0,1.2742056000006414,0.1,1,0,AccFast,2,19,Woman,Right,
28,9,1,0.8847285000001648,['c'],1,left,['e'],1,0.518443599999955,0.4,1,0,AccFast,2,19,Woman,Right,
29,9,1,3.517866899999717,['n'],1,right,['u'],0,0.5836226000001261,0.1,0,0,AccFast,2,19,Woman,Right,
30,9,1,1.751822400000492,['n'],1,right,['u'],0,0.7644274000003861,0.4,0,0,AccFast,2,19,Woman,Right,
31,9,1,1.5177364999999554,['n'],1,right,['e'],1,0.4354904000001625,0.2,1,0,AccFast,2,19,Woman,Right,
32,9,1,1.683373599999868,['c'],1,left,['e'],1,0.8177646000003733,0.2,1,0,AccFast,2,19,Woman,Right,
33,9,1,1.9845499000002746,['c'],1,left,['e'],1,0.7555452000005971,0.1,1,0,AccFast,2,19,Woman,Right,
34,9,1,2.067866200000026,['n'],1,right,['e'],1,0.6772590999999011,0.1,1,0,AccFast,2,19,Woman,Right,
35,9,1,4.00056129999939,['c'],1,left,['e'],1,0.8939922000008664,0.2,1,0,AccFast,2,19,Woman,Right,
36,9,1,1.551672800000233,['n'],1,right,['e'],1,2.238209099999949,0.2,1,0,AccFast,2,19,Woman,Right,
37,9,1,2.3681666000002224,['c'],1,left,['u'],0,1.0007915000005596,0.1,0,0,AccFast,2,19,Woman,Right,
38,9,1,2.3170939999999973,['c'],1,left,['u'],0,0.934562299999925,0.4,0,0,AccFast,2,19,Woman,Right,
39,9,1,1.1835227000001396,['n'],1,right,['e'],1,0.9000290000003588,0.1,1,0,AccFast,2,19,Woman,Right,
40,9,1,2.4838793999997506,['c'],1,left,['u'],0,1.2632284000001164,0.1,0,0,AccFast,2,19,Woman,Right,
41,9,1,2.3834512000003087,['n'],1,right,['e'],1,1.4556392000004053,0.1,1,0,AccFast,2,19,Woman,Right,
42,9,1,1.2679521999998542,['n'],1,right,['e'],1,1.7333834000000934,0.1,1,0,AccFast,2,19,Woman,Right,
43,9,1,1.0161796999991566,['n'],1,right,['u'],0,1.2586121000003914,0.2,0,0,AccFast,2,19,Woman,Right,
44,9,1,0.985022800000479,['c'],1,left,['u'],0,1.5066994999997405,0.4,0,0,AccFast,2,19,Woman,Right,
45,9,1,1.4494633999993312,['c'],1,left,['u'],0,1.2326038999999582,0.1,0,0,AccFast,2,19,Woman,Right,
46,9,1,2.299909899999875,['n'],0,left,['e'],1,0.7410538000003726,0.1,0,0,AccFast,2,19,Woman,Right,
47,9,1,2.5838010999996186,['n'],1,right,['e'],1,1.602046199999677,0.4,1,0,AccFast,2,19,Woman,Right,
48,9,1,0.984550300000592,['n'],1,right,['u'],0,1.0370665000000372,0.4,0,0,AccFast,2,19,Woman,Right,
49,9,1,3.583335199999965,['c'],0,right,['u'],0,0.4398071000005075,0.1,1,0,AccFast,2,19,Woman,Right,
50,9,1,1.0833204999998998,['n'],1,right,['e'],1,0.7645957000004273,0.2,1,0,AccFast,2,19,Woman,Right,
51,9,1,1.3342681000003722,['n'],1,right,['u'],0,1.1949835000004896,0.1,0,0,AccFast,2,19,Woman,Right,
52,9,1,1.533978699999352,['n'],1,right,['u'],0,0.35180380000019795,0.4,0,0,AccFast,2,19,Woman,Right,
53,9,1,2.1677726999996594,['n'],0,left,['u'],0,0.49357140000029176,0.1,1,0,AccFast,2,19,Woman,Right,
54,9,1,1.4345908000004783,['c'],0,right,['u'],0,0.483107399999426,0.2,1,0,AccFast,2,19,Woman,Right,
55,9,1,3.1847883999998885,['c'],0,right,['u'],0,0.6749094999995577,0.1,1,0,AccFast,2,19,Woman,Right,
56,9,1,1.2514436999999816,['c'],1,left,['e'],1,0.8406750999993164,0.4,1,0,AccFast,2,19,Woman,Right,
57,9,1,3.5845534000000043,['n'],0,left,['u'],0,0.9384563999992679,0.2,1,0,AccFast,2,19,Woman,Right,
58,9,1,1.9011273999994955,['n'],1,right,['u'],0,0.6034311000003072,0.4,0,0,AccFast,2,19,Woman,Right,
59,9,1,2.2008599000000686,['c'],1,left,['u'],0,1.5828400000000329,0.2,0,0,AccFast,2,19,Woman,Right,
0,10,1,1.3182715000002645,['c'],0,right,['u'],0,1.428077900000062,0.2,1,0,AccAcc,2,19,Woman,Right,
1,10,1,3.168183599999793,['c'],1,left,['u'],0,2.207581499999833,0.2,0,0,AccAcc,2,19,Woman,Right,
2,10,1,3.567036200000075,['c'],1,left,['e'],1,1.9627190999999584,0.2,1,0,AccAcc,2,19,Woman,Right,
3,10,1,3.817775800000163,['c'],0,right,['u'],0,1.3342077999996036,0.1,1,0,AccAcc,2,19,Woman,Right,
4,10,1,2.7167833000003156,['c'],0,right,['u'],0,0.8232127000001128,0.2,1,0,AccAcc,2,19,Woman,Right,
5,10,1,4.034454900000128,['n'],0,left,['u'],0,1.7030198000002201,0.1,1,0,AccAcc,2,19,Woman,Right,
6,10,1,2.034607400000823,['c'],1,left,['e'],1,1.732152400000814,0.4,1,0,AccAcc,2,19,Woman,Right,
7,10,1,3.5179564000000028,['n'],1,right,['u'],0,1.7167441999999937,0.2,0,0,AccAcc,2,19,Woman,Right,
8,10,1,3.3513512999998056,['n'],0,left,['u'],0,1.4685871000001498,0.1,1,0,AccAcc,2,19,Woman,Right,
9,10,1,2.950394600000436,['n'],0,left,['u'],0,1.0546534999994037,0.2,1,0,AccAcc,2,19,Woman,Right,
10,10,1,3.0171792000001005,['n'],1,right,['u'],0,0.8786241999996491,0.1,0,0,AccAcc,2,19,Woman,Right,
11,10,1,1.9338903999996546,['c'],1,left,['e'],1,1.2160809000006338,0.2,1,0,AccAcc,2,19,Woman,Right,
12,10,1,1.5683174000005238,['n'],1,right,['u'],0,1.9390994000004866,0.1,0,0,AccAcc,2,19,Woman,Right,
13,10,1,2.351177600000483,['n'],1,right,['u'],0,0.5222937999997157,0.1,0,0,AccAcc,2,19,Woman,Right,
14,10,1,0.951424599999882,['c'],1,left,['e'],1,1.2502049999993687,0.2,1,0,AccAcc,2,19,Woman,Right,
15,10,1,1.9680795000003855,['n'],1,right,['e'],1,1.1237160999999105,0.4,1,0,AccAcc,2,19,Woman,Right,
16,10,1,3.7835235000002285,['n'],0,left,['u'],0,0.8981676000003063,0.1,1,0,AccAcc,2,19,Woman,Right,
17,10,1,1.6340850000005958,['n'],1,right,['e'],1,0.3512814999994589,0.2,1,0,AccAcc,2,19,Woman,Right,
18,10,1,2.784531000000243,['n'],1,right,['u'],0,0.6290242000004582,0.1,0,0,AccAcc,2,19,Woman,Right,
19,10,1,1.2180149999994683,['n'],1,right,['e'],1,0.5245076999999583,0.1,1,0,AccAcc,2,19,Woman,Right,
20,10,1,1.4670587999999043,['n'],1,right,['u'],0,1.1515376999996079,0.2,0,0,AccAcc,2,19,Woman,Right,
21,10,1,1.4666019999995115,['c'],1,left,['e'],1,0.5858121999999639,0.4,1,0,AccAcc,2,19,Woman,Right,
22,10,1,3.1329077000000325,['n'],1,right,['u'],0,0.3925279999994018,0.2,0,0,AccAcc,2,19,Woman,Right,
23,10,1,3.7836287999998603,['n'],0,left,['u'],0,0.371755099999973,0.1,1,0,AccAcc,2,19,Woman,Right,
24,10,1,3.151196899999377,['n'],0,left,['u'],0,0.5207219999992958,0.4,1,0,AccAcc,2,19,Woman,Right,
25,10,1,2.38444249999975,['n'],0,left,['u'],0,0.9351386999996976,0.4,1,0,AccAcc,2,19,Woman,Right,
26,10,1,3.0346251999999367,['n'],0,left,['u'],0,0.44263669999963895,0.2,1,0,AccAcc,2,19,Woman,Right,
27,10,1,2.8683099999998376,['n'],1,right,['e'],1,0.8097010000001319,0.2,1,0,AccAcc,2,19,Woman,Right,
28,10,1,3.001792399999431,['c'],1,left,['u'],0,1.0597743999996965,0.4,0,0,AccAcc,2,19,Woman,Right,
29,10,1,1.1003866999999445,['c'],1,left,['e'],1,0.592076700000689,0.4,1,0,AccAcc,2,19,Woman,Right,
30,10,1,2.384652499999902,['n'],1,right,['e'],1,0.6357973000003767,0.4,1,0,AccAcc,2,19,Woman,Right,
31,10,1,3.367579400000068,['n'],1,right,['u'],0,0.9101884000001519,0.1,0,0,AccAcc,2,19,Woman,Right,
32,10,1,1.6185984000003373,['n'],1,right,['u'],0,0.6526794999999765,0.2,0,0,AccAcc,2,19,Woman,Right,
33,10,1,2.9512182999997094,['c'],1,left,['u'],0,0.7033172999999806,0.1,0,0,AccAcc,2,19,Woman,Right,
34,10,1,1.3679356000002372,['n'],1,right,['u'],0,0.8142207000000781,0.4,0,0,AccAcc,2,19,Woman,Right,
35,10,1,2.885643400000845,['n'],1,right,['e'],1,0.3964485999995304,0.4,1,0,AccAcc,2,19,Woman,Right,
36,10,1,1.999891800000114,['c'],1,left,['e'],1,0.5753487999991194,0.2,1,0,AccAcc,2,19,Woman,Right,
37,10,1,3.333469100000002,['n'],1,right,['e'],1,0.4374291000003723,0.4,1,0,AccAcc,2,19,Woman,Right,
38,10,1,1.5845885999997336,['c'],1,left,['u'],0,0.45500390000051993,0.4,0,0,AccAcc,2,19,Woman,Right,
39,10,1,1.2682862000001478,['c'],1,left,['u'],0,0.5166321000006064,0.2,0,0,AccAcc,2,19,Woman,Right,
40,10,1,1.267295899999226,['n'],1,right,['u'],0,0.6715257000005295,0.4,0,0,AccAcc,2,19,Woman,Right,
41,10,1,1.8504241999999067,['c'],1,left,['u'],0,0.9413330999996106,0.1,0,0,AccAcc,2,19,Woman,Right,
42,10,1,1.7176202999999077,['n'],1,right,['e'],1,0.9338997000004383,0.4,1,0,AccAcc,2,19,Woman,Right,
43,10,1,1.2670488999992813,['c'],1,left,['u'],0,1.2002083000006678,0.2,0,0,AccAcc,2,19,Woman,Right,
44,10,1,3.1180013999992298,['n'],1,right,['u'],0,1.2378265999996074,0.1,0,0,AccAcc,2,19,Woman,Right,
45,10,1,2.4499196000006123,['c'],1,left,['e'],1,0.9177061000000322,0.4,1,0,AccAcc,2,19,Woman,Right,
46,10,1,3.567713100000219,['c'],1,left,['u'],0,1.0604646000001594,0.1,0,0,AccAcc,2,19,Woman,Right,
47,10,1,1.5845449999997072,['n'],1,right,['e'],1,1.245270100000198,0.2,1,0,AccAcc,2,19,Woman,Right,
48,10,1,1.7010206000004473,['n'],1,right,['e'],1,0.7458722999999736,0.4,1,0,AccAcc,2,19,Woman,Right,
49,10,1,1.4007805999999619,['n'],1,right,['u'],0,1.0296801000004052,0.2,0,0,AccAcc,2,19,Woman,Right,
50,10,1,2.5832733000006556,['n'],0,left,['u'],0,0.7438708999998198,0.1,1,0,AccAcc,2,19,Woman,Right,
51,10,1,1.0502925999999206,['c'],1,left,['e'],1,0.48346349999974336,0.4,1,0,AccAcc,2,19,Woman,Right,
52,10,1,2.68579039999986,['c'],1,left,['u'],0,1.126140899999882,0.1,0,0,AccAcc,2,19,Woman,Right,
53,10,1,1.368408699999236,['c'],1,left,['u'],0,1.429402800000389,0.4,0,0,AccAcc,2,19,Woman,Right,
54,10,1,3.4835362000003443,['c'],1,left,['u'],0,0.8352200999997876,0.1,0,0,AccAcc,2,19,Woman,Right,
55,10,1,1.4846355999998195,['n'],1,right,['u'],0,0.6169292000004134,0.2,0,0,AccAcc,2,19,Woman,Right,
56,10,1,2.4011688999999024,['c'],1,left,['e'],1,1.5866329000000405,0.1,1,0,AccAcc,2,19,Woman,Right,
57,10,1,2.4178070999996635,['n'],1,right,['e'],1,0.7251542999993035,0.4,1,0,AccAcc,2,19,Woman,Right,
58,10,1,1.201154299999871,['n'],1,right,['u'],0,0.7955541000001176,0.1,0,0,AccAcc,2,19,Woman,Right,
59,10,1,1.735039300000608,['c'],0,right,['e'],1,0.6967198000002099,0.4,0,0,AccAcc,2,19,Woman,Right,
0,11,1,0.6519891999996617,['c'],1,left,['e'],1,1.9873760000000402,0.2,1,0,FastAcc,2,19,Woman,Right,
1,11,1,0.8851085000005696,['n'],1,right,['u'],0,1.1708676999996896,0.1,0,0,FastAcc,2,19,Woman,Right,
2,11,1,0.6845143000000462,['c'],1,left,['e'],1,1.083107000000382,0.2,1,0,FastAcc,2,19,Woman,Right,
3,11,1,1.2675562000003993,['c'],0,right,['e'],1,0.5434181000000535,0.2,0,0,FastAcc,2,19,Woman,Right,
4,11,1,0.6179523999999219,['n'],1,right,['e'],1,0.6276578999995763,0.4,1,0,FastAcc,2,19,Woman,Right,
5,11,1,0.5506144999999378,['c'],1,left,['e'],1,1.8474790000000212,0.2,1,0,FastAcc,2,19,Woman,Right,
6,11,1,1.4672617999995055,['c'],0,right,['u'],0,0.8055834999995568,0.2,1,0,FastAcc,2,19,Woman,Right,
7,11,1,1.1514934999995603,['c'],0,right,['u'],0,1.4654998000005435,0.1,1,0,FastAcc,2,19,Woman,Right,
8,11,1,0.6681189000000813,['c'],1,left,['e'],1,0.7266386000001148,0.4,1,0,FastAcc,2,19,Woman,Right,
9,11,1,1.4848578999999518,['c'],0,right,['u'],0,0.6083497999998144,0.1,1,0,FastAcc,2,19,Woman,Right,
10,11,1,0.7000913000001674,['c'],0,right,['e'],1,1.6948792000002868,0.2,0,0,FastAcc,2,19,Woman,Right,
11,11,1,0.9840291000000434,['c'],1,left,['u'],0,0.7913934999996854,0.2,0,0,FastAcc,2,19,Woman,Right,
12,11,1,1.2680278999996517,['c'],1,left,['u'],0,0.6943457999996099,0.1,0,0,FastAcc,2,19,Woman,Right,
13,11,1,1.4679839000000356,['n'],1,right,['e'],1,0.7705125000002226,0.1,1,0,FastAcc,2,19,Woman,Right,
14,11,1,1.5681087999992087,['n'],1,right,['e'],1,1.0795545000000857,0.2,1,0,FastAcc,2,19,Woman,Right,
15,11,1,1.0845253999996203,['c'],0,right,['u'],0,0.483242600000267,0.4,1,0,FastAcc,2,19,Woman,Right,
16,11,1,1.5017516999996587,['n'],1,right,['u'],0,0.5501461999992898,0.1,0,0,FastAcc,2,19,Woman,Right,
17,11,1,2.0837685000005877,['c'],1,left,['u'],0,0.8634885999999824,0.1,0,0,FastAcc,2,19,Woman,Right,
18,11,1,0.6680360000000292,['c'],0,right,['u'],0,0.8202287000003707,0.2,1,0,FastAcc,2,19,Woman,Right,
19,11,1,0.9002195000002757,['c'],1,left,['u'],0,0.7222357000000557,0.2,0,0,FastAcc,2,19,Woman,Right,
20,11,1,1.134451099999751,['n'],1,right,['u'],0,0.8101404999997612,0.1,0,0,FastAcc,2,19,Woman,Right,
21,11,1,1.1007841000000553,['c'],1,left,['u'],0,0.8803058000003148,0.4,0,0,FastAcc,2,19,Woman,Right,
22,11,1,2.0006515000004583,['n'],0,left,['u'],0,1.9033096000002843,0.1,1,0,FastAcc,2,19,Woman,Right,
23,11,1,0.5671235999998316,['c'],1,left,['u'],0,1.1033379999998942,0.2,0,0,FastAcc,2,19,Woman,Right,
24,11,1,1.2164671999998973,['n'],1,right,['e'],1,0.5656164000001809,0.2,1,0,FastAcc,2,19,Woman,Right,
25,11,1,1.2170393000005788,['n'],1,right,['e'],1,0.9277164999994056,0.2,1,0,FastAcc,2,19,Woman,Right,
26,11,1,0.5683048999999301,['c'],1,left,['e'],1,0.8227297000003091,0.2,1,0,FastAcc,2,19,Woman,Right,
27,11,1,0.4847773999999845,['n'],1,right,['e'],1,1.5410001999998713,0.2,1,0,FastAcc,2,19,Woman,Right,
28,11,1,0.8684713000002375,['n'],1,right,['e'],1,0.7434171000004426,0.1,1,0,FastAcc,2,19,Woman,Right,
29,11,1,0.8680421000008209,['c'],1,left,['u'],0,1.2096342999993794,0.1,0,0,FastAcc,2,19,Woman,Right,
30,11,1,0.9003026000000318,['c'],1,left,['u'],0,1.048020200000792,0.4,0,0,FastAcc,2,19,Woman,Right,
31,11,1,0.6182010000002265,['n'],1,right,['e'],1,0.7915545000005295,0.4,1,0,FastAcc,2,19,Woman,Right,
32,11,1,0.45174320000023727,['c'],1,left,['u'],0,1.1292014999999083,0.4,0,0,FastAcc,2,19,Woman,Right,
33,11,1,0.5180206000004546,['c'],1,left,['u'],0,1.4967241000003924,0.4,0,0,FastAcc,2,19,Woman,Right,
34,11,1,0.6179579999998168,['c'],1,left,['u'],0,0.9023688999996011,0.4,0,0,FastAcc,2,19,Woman,Right,
35,11,1,0.5654622000001837,['n'],0,left,['u'],0,1.1512652999999773,0.1,1,0,FastAcc,2,19,Woman,Right,
36,11,1,1.8009578999999576,['n'],0,left,['u'],0,1.0184586000004856,0.1,1,0,FastAcc,2,19,Woman,Right,
37,11,1,0.7179769999993368,['c'],1,left,['u'],0,0.9191313999999693,0.4,0,0,FastAcc,2,19,Woman,Right,
38,11,1,0.5168326000002708,['n'],1,right,['u'],0,1.024071200000435,0.4,0,0,FastAcc,2,19,Woman,Right,
39,11,1,0.8172392999995282,['n'],0,left,['u'],0,1.0652380999999878,0.1,1,0,FastAcc,2,19,Woman,Right,
40,11,1,0.48454969999966124,['n'],1,right,['e'],1,0.5734824000001026,0.2,1,0,FastAcc,2,19,Woman,Right,
41,11,1,0.901380500000414,['n'],1,right,['u'],0,0.7250142999992022,0.1,0,0,FastAcc,2,19,Woman,Right,
42,11,1,0.634716099999423,['c'],1,left,['e'],1,0.6892201999999088,0.4,1,0,FastAcc,2,19,Woman,Right,
43,11,1,0.5184594000002107,['n'],1,right,['e'],1,0.5809464000003572,0.4,1,0,FastAcc,2,19,Woman,Right,
44,11,1,0.8522759999996197,['n'],0,left,['u'],0,0.7805716000002576,0.2,1,0,FastAcc,2,19,Woman,Right,
45,11,1,0.4839793000001009,['n'],1,right,['u'],0,0.7640411000002132,0.4,0,0,FastAcc,2,19,Woman,Right,
46,11,1,0.8505074000004242,['n'],1,right,['u'],0,0.9095359000002645,0.4,0,0,FastAcc,2,19,Woman,Right,
47,11,1,2.5179283000006762,['n'],1,right,['e'],1,0.5832581999993636,0.4,1,0,FastAcc,2,19,Woman,Right,
48,11,1,0.9011319999999614,['n'],0,left,['u'],0,0.6384418999996342,0.2,1,0,FastAcc,2,19,Woman,Right,
49,11,1,0.6167236999999659,['n'],1,right,['e'],1,0.5432086000000709,0.1,1,0,FastAcc,2,19,Woman,Right,
50,11,1,0.7176595999999336,['c'],1,left,['e'],1,0.47877669999979844,0.4,1,0,FastAcc,2,19,Woman,Right,
51,11,1,1.4683084999996936,['n'],1,right,['u'],0,0.5150804999993852,0.2,0,0,FastAcc,2,19,Woman,Right,
52,11,1,1.0516014999993786,['n'],0,left,['u'],0,0.6627672000004168,0.1,1,0,FastAcc,2,19,Woman,Right,
53,11,1,1.067989199999829,['n'],1,right,['u'],0,0.595664499999657,0.4,0,0,FastAcc,2,19,Woman,Right,
54,11,1,1.5850710000004256,['c'],0,right,['u'],0,0.5745788000003813,0.1,1,0,FastAcc,2,19,Woman,Right,
55,11,1,1.235082500000317,['n'],0,left,['u'],0,0.4889212000007319,0.2,1,0,FastAcc,2,19,Woman,Right,
56,11,1,1.3171136000000843,['n'],0,left,['e'],1,0.48318269999981567,0.1,0,0,FastAcc,2,19,Woman,Right,
57,11,1,0.6690426000004663,['c'],0,right,['u'],0,0.6955506000003879,0.4,1,0,FastAcc,2,19,Woman,Right,
58,11,1,0.8349277999996048,['c'],1,left,['e'],1,0.44433070000013686,0.4,1,0,FastAcc,2,19,Woman,Right,
59,11,1,0.9348928000008527,['n'],0,left,['u'],0,0.8399669000000358,0.1,1,0,FastAcc,2,19,Woman,Right,
0,12,1,0.6495393999994121,['c'],1,left,['e'],1,0.4596678999996584,0.2,1,0,FastFast,2,19,Woman,Right,
1,12,1,0.5179899999993722,['n'],1,right,['u'],0,0.6136671000003844,0.4,0,0,FastFast,2,19,Woman,Right,
2,12,1,0.5662862999997742,['c'],0,right,['u'],0,0.4901164000002609,0.1,1,0,FastFast,2,19,Woman,Right,
3,12,1,1.0015038000001368,['c'],1,left,['e'],1,0.735527899999397,0.1,1,0,FastFast,2,19,Woman,Right,
4,12,1,0.551237200000287,['c'],1,left,['e'],1,0.430399199999556,0.4,1,0,FastFast,2,19,Woman,Right,
5,12,1,0.634642700000768,['c'],0,right,['u'],0,0.48629170000003796,0.1,1,0,FastFast,2,19,Woman,Right,
6,12,1,0.7503888000001098,['c'],0,right,['u'],0,0.5349126999999498,0.2,1,0,FastFast,2,19,Woman,Right,
7,12,1,1.3338592999998582,['c'],0,right,['e'],1,0.6065871000000698,0.1,0,0,FastFast,2,19,Woman,Right,
8,12,1,1.0515519999999015,['c'],0,right,['e'],1,0.43070739999984653,0.2,0,0,FastFast,2,19,Woman,Right,
9,12,1,1.168370800000048,['n'],1,right,['u'],0,0.4812464999995427,0.1,0,0,FastFast,2,19,Woman,Right,
10,12,1,1.1505299999998897,['n'],0,left,['u'],0,0.48203620000003866,0.1,1,0,FastFast,2,19,Woman,Right,
11,12,1,0.7520653999999922,['c'],1,left,['e'],1,0.3389575999999579,0.1,1,0,FastFast,2,19,Woman,Right,
12,12,1,1.1512168999997812,['n'],1,right,['u'],0,0.4895936000002621,0.2,0,0,FastFast,2,19,Woman,Right,
13,12,1,0.7015860999999859,['c'],0,right,['u'],0,0.5576908000002732,0.4,1,0,FastFast,2,19,Woman,Right,
14,12,1,0.6014845999998215,['c'],1,left,['e'],1,0.3532303000001775,0.4,1,0,FastFast,2,19,Woman,Right,
15,12,1,0.6677902000001268,['c'],1,left,['e'],1,0.41055099999994127,0.1,1,0,FastFast,2,19,Woman,Right,
16,12,1,1.6849846000004618,['n'],1,right,['e'],1,0.5217732999999498,0.2,1,0,FastFast,2,19,Woman,Right,
17,12,1,0.751256900000044,['c'],1,left,['e'],1,0.28116570000020147,0.1,1,0,FastFast,2,19,Woman,Right,
18,12,1,0.9340763999998671,['c'],0,right,['u'],0,0.34671830000024784,0.1,1,0,FastFast,2,19,Woman,Right,
19,12,1,1.117932899999687,['c'],1,left,['e'],1,0.5145314999999755,0.4,1,0,FastFast,2,19,Woman,Right,
20,12,1,1.2339373999993768,['n'],1,right,['u'],0,0.41469640000013896,0.2,0,0,FastFast,2,19,Woman,Right,
21,12,1,1.5835142000005362,['n'],1,right,['e'],1,0.5449929000005795,0.1,1,0,FastFast,2,19,Woman,Right,
22,12,1,0.767358900000545,['c'],1,left,['e'],1,0.3184686000004149,0.4,1,0,FastFast,2,19,Woman,Right,
23,12,1,0.9677209999999832,['c'],1,left,['u'],0,0.41342470000017784,0.4,0,0,FastFast,2,19,Woman,Right,
24,12,1,0.8325745000001916,['c'],1,left,['e'],1,0.35048790000018926,0.2,1,0,FastFast,2,19,Woman,Right,
25,12,1,1.4513907000000472,['n'],0,left,['u'],0,0.48796040000070207,0.2,1,0,FastFast,2,19,Woman,Right,
26,12,1,0.7673104999994393,['c'],0,right,['e'],1,0.32832409999991796,0.1,0,0,FastFast,2,19,Woman,Right,
27,12,1,1.117102100000011,['c'],1,left,['u'],0,0.384689100000287,0.2,0,0,FastFast,2,19,Woman,Right,
28,12,1,1.4504354999999123,['n'],0,left,['u'],0,0.4423137999992832,0.2,1,0,FastFast,2,19,Woman,Right,
29,12,1,0.9515127999993638,['c'],0,right,['u'],0,0.3890644000002794,0.2,1,0,FastFast,2,19,Woman,Right,
30,12,1,0.868327600000157,['c'],1,left,['u'],0,0.6605974000003698,0.1,0,0,FastFast,2,19,Woman,Right,
31,12,1,1.018449099999998,['c'],1,left,['u'],0,0.40419290000045294,0.4,0,0,FastFast,2,19,Woman,Right,
32,12,1,1.0013284000006024,['c'],0,right,['u'],0,0.35033389999989595,0.2,1,0,FastFast,2,19,Woman,Right,
33,12,1,1.184676799999579,['c'],1,left,['e'],1,0.5313943999999537,0.1,1,0,FastFast,2,19,Woman,Right,
34,12,1,0.9677591999998185,['n'],0,left,['u'],0,0.4576575999999477,0.1,1,0,FastFast,2,19,Woman,Right,
35,12,1,0.5512979000004634,['c'],1,left,['e'],1,0.579896700000063,0.4,1,0,FastFast,2,19,Woman,Right,
36,12,1,1.034838900000068,['n'],1,right,['e'],1,0.5334302000001117,0.4,1,0,FastFast,2,19,Woman,Right,
37,12,1,0.9176421000001938,['c'],1,left,['e'],1,0.3657576000005065,0.4,1,0,FastFast,2,19,Woman,Right,
38,12,1,0.7503132000001642,['n'],1,right,['e'],1,0.3072394999999233,0.4,1,0,FastFast,2,19,Woman,Right,
39,12,1,0.6340347999994265,['c'],1,left,['u'],0,0.30412280000018654,0.4,0,0,FastFast,2,19,Woman,Right,
40,12,1,1.133878900000127,['n'],1,right,['u'],0,0.3451425000002928,0.1,0,0,FastFast,2,19,Woman,Right,
41,12,1,1.66817809999975,['c'],0,right,['u'],0,0.37905529999989085,0.1,1,0,FastFast,2,19,Woman,Right,
42,12,1,1.233667399999831,['c'],1,left,['e'],1,0.31626020000021526,0.2,1,0,FastFast,2,19,Woman,Right,
43,12,1,1.6675524999991467,['n'],0,left,['e'],1,0.3047237999999197,0.1,0,0,FastFast,2,19,Woman,Right,
44,12,1,1.0178361999996923,['n'],1,right,['u'],0,0.6529988000002049,0.4,0,0,FastFast,2,19,Woman,Right,
45,12,1,1.3014530999998897,['c'],1,left,['e'],1,0.28921919999993406,0.2,1,0,FastFast,2,19,Woman,Right,
46,12,1,1.051101799999742,['n'],0,left,['u'],0,0.4461565999999948,0.2,1,0,FastFast,2,19,Woman,Right,
47,12,1,0.6856462999994619,['c'],0,right,['u'],0,0.5789689999992333,0.2,1,0,FastFast,2,19,Woman,Right,
48,12,1,1.2165170999996917,['n'],1,right,['u'],0,0.3497176999999283,0.2,0,0,FastFast,2,19,Woman,Right,
49,12,1,0.6846166000004814,['c'],1,left,['e'],1,0.24628450000000157,0.4,1,0,FastFast,2,19,Woman,Right,
50,12,1,1.8342321999998603,['n'],0,left,['u'],0,0.30923949999942124,0.2,1,0,FastFast,2,19,Woman,Right,
51,12,1,1.067340399999921,['n'],1,right,['e'],1,0.20952130000023317,0.4,1,0,FastFast,2,19,Woman,Right,
52,12,1,1.0839489999998477,['n'],0,left,['e'],1,0.31969179999941844,0.4,0,0,FastFast,2,19,Woman,Right,
53,12,1,0.8845707999998922,['n'],1,right,['e'],1,0.3058720999997604,0.2,1,0,FastFast,2,19,Woman,Right,
54,12,1,0.9016079000002719,['n'],1,right,['e'],1,0.29218390000005456,0.4,1,0,FastFast,2,19,Woman,Right,
55,12,1,0.7169882000007419,['c'],1,left,['e'],1,0.3183320999996795,0.1,1,0,FastFast,2,19,Woman,Right,
56,12,1,1.635001900000134,['n'],1,right,['u'],0,0.3227170999998634,0.1,0,0,FastFast,2,19,Woman,Right,
57,12,1,0.7682224000000133,['n'],1,right,['e'],1,0.34559579999950074,0.4,1,0,FastFast,2,19,Woman,Right,
58,12,1,0.867838600000141,['n'],1,right,['e'],1,0.3470173000005161,0.4,1,0,FastFast,2,19,Woman,Right,
59,12,1,1.0180643999992753,['c'],0,right,['u'],0,0.35865060000014637,0.2,1,0,FastFast,2,19,Woman,Right,
0,13,1,1.051427700000204,['n'],1,right,['e'],1,2.187530400000469,0.4,1,0,AccFast,2,19,Woman,Right,
1,13,1,1.5012901999998576,['c'],1,left,['u'],0,1.1778432000000976,0.4,0,0,AccFast,2,19,Woman,Right,
2,13,1,1.0185347999995429,['c'],1,left,['e'],1,0.30898079999951733,0.2,1,0,AccFast,2,19,Woman,Right,
3,13,1,3.3177009000000908,['n'],0,left,['u'],0,1.6549316000000545,0.2,1,0,AccFast,2,19,Woman,Right,
4,13,1,1.0171904999997423,['n'],1,right,['e'],1,0.6064502999997785,0.2,1,0,AccFast,2,19,Woman,Right,
5,13,1,0.9987418999999136,['c'],1,left,['u'],0,0.5463297000005696,0.4,0,0,AccFast,2,19,Woman,Right,
6,13,1,1.6679856999999174,['n'],0,left,['u'],0,1.146965299999465,0.1,1,0,AccFast,2,19,Woman,Right,
7,13,1,1.3680427999997846,['c'],1,left,['e'],1,0.793441900000289,0.4,1,0,AccFast,2,19,Woman,Right,
8,13,1,1.4991923000006864,['n'],0,left,['u'],0,0.5931332000000111,0.2,1,0,AccFast,2,19,Woman,Right,
9,13,1,1.084684099999322,['c'],1,left,['e'],1,0.7675061999998434,0.2,1,0,AccFast,2,19,Woman,Right,
10,13,1,1.50114880000001,['n'],0,left,['u'],0,0.9988311999995858,0.2,1,0,AccFast,2,19,Woman,Right,
11,13,1,1.534410299999763,['n'],1,right,['e'],1,0.6443686000002344,0.4,1,0,AccFast,2,19,Woman,Right,
12,13,1,1.7833270999999513,['n'],0,left,['e'],1,0.4534985999998753,0.2,0,0,AccFast,2,19,Woman,Right,
13,13,1,1.8176954999998998,['c'],1,left,['e'],1,0.5573187999998481,0.4,1,0,AccFast,2,19,Woman,Right,
14,13,1,2.0012550000001283,['n'],0,left,['u'],0,0.426095400000122,0.2,1,0,AccFast,2,19,Woman,Right,
15,13,1,2.3847050000003946,['c'],0,right,['u'],0,1.004168700000264,0.1,1,0,AccFast,2,19,Woman,Right,
16,13,1,1.3347396999997727,['n'],1,right,['e'],1,0.48113439999997354,0.4,1,0,AccFast,2,19,Woman,Right,
17,13,1,1.9513598000003185,['n'],1,right,['e'],1,0.32189610000023094,0.2,1,0,AccFast,2,19,Woman,Right,
18,13,1,3.4338582999998835,['c'],1,left,['u'],0,0.6545544000000518,0.1,0,0,AccFast,2,19,Woman,Right,
19,13,1,2.6843802999992477,['c'],1,left,['u'],0,0.9236225000004197,0.1,0,0,AccFast,2,19,Woman,Right,
20,13,1,2.101062499999898,['c'],1,left,['e'],1,0.613229899999169,0.4,1,0,AccFast,2,19,Woman,Right,
21,13,1,3.1682169999994585,['c'],1,left,['u'],0,0.5446976000002905,0.1,0,0,AccFast,2,19,Woman,Right,
22,13,1,3.618294599999899,['c'],1,left,['u'],0,0.6051482999992004,0.1,0,0,AccFast,2,19,Woman,Right,
23,13,1,1.451486500000101,['n'],1,right,['e'],1,1.501461500000005,0.4,1,0,AccFast,2,19,Woman,Right,
24,13,1,1.6843188000002556,['n'],1,right,['u'],0,0.5283554000006916,0.2,0,0,AccFast,2,19,Woman,Right,
25,13,1,2.1176669999995283,['n'],1,right,['u'],0,0.6806571000006443,0.1,0,0,AccFast,2,19,Woman,Right,
26,13,1,1.2671862999995938,['c'],1,left,['e'],1,0.6211723000005804,0.2,1,0,AccFast,2,19,Woman,Right,
27,13,1,2.3513003999996727,['n'],0,left,['u'],0,0.6975662000004377,0.2,1,0,AccFast,2,19,Woman,Right,
28,13,1,1.717873800000234,['c'],1,left,['e'],1,0.586449000000357,0.2,1,0,AccFast,2,19,Woman,Right,
29,13,1,1.3002319999995962,['n'],1,right,['e'],1,0.6733378999997512,0.4,1,0,AccFast,2,19,Woman,Right,
30,13,1,1.7851058999995075,['n'],1,right,['u'],0,0.6096845000001849,0.2,0,0,AccFast,2,19,Woman,Right,
31,13,1,2.001064099999894,['c'],0,right,['u'],0,0.42823820000012347,0.1,1,0,AccFast,2,19,Woman,Right,
32,13,1,2.0842661000006046,['n'],1,right,['e'],1,1.0499214999999822,0.1,1,0,AccFast,2,19,Woman,Right,
33,13,1,1.2340585000001738,['n'],1,right,['u'],0,1.0088605999999345,0.4,0,0,AccFast,2,19,Woman,Right,
34,13,1,1.6513485000004948,['c'],1,left,['u'],0,0.6009587999997166,0.2,0,0,AccFast,2,19,Woman,Right,
35,13,1,2.0673321999993277,['c'],1,left,['e'],1,0.672794399999475,0.1,1,0,AccFast,2,19,Woman,Right,
36,13,1,1.50131330000022,['n'],1,right,['u'],0,0.6365458999998737,0.2,0,0,AccFast,2,19,Woman,Right,
37,13,1,1.435506400000122,['c'],1,left,['u'],0,0.5722746999999799,0.4,0,0,AccFast,2,19,Woman,Right,
38,13,1,2.4011396000005334,['c'],0,right,['u'],0,0.4246765999996569,0.1,1,0,AccFast,2,19,Woman,Right,
39,13,1,2.0999463999996806,['n'],0,left,['u'],0,0.3744109999997818,0.1,1,0,AccFast,2,19,Woman,Right,
40,13,1,2.3842647999999826,['n'],1,right,['u'],0,0.5060331000004226,0.2,0,0,AccFast,2,19,Woman,Right,
41,13,1,2.2341357999994216,['n'],1,right,['u'],0,0.44701619999977993,0.1,0,0,AccFast,2,19,Woman,Right,
42,13,1,1.801209000000199,['c'],1,left,['u'],0,0.7592058000000179,0.4,0,0,AccFast,2,19,Woman,Right,
43,13,1,1.4349231999995027,['n'],0,left,['u'],0,0.6103757999999289,0.4,1,0,AccFast,2,19,Woman,Right,
44,13,1,2.284920300000522,['n'],1,right,['u'],0,1.345370200000616,0.4,0,0,AccFast,2,19,Woman,Right,
45,13,1,1.9011872999999468,['n'],1,right,['e'],1,0.9457121999994342,0.1,1,0,AccFast,2,19,Woman,Right,
46,13,1,1.7843913999995493,['n'],1,right,['u'],0,0.9668592000007266,0.4,0,0,AccFast,2,19,Woman,Right,
47,13,1,1.550445399999262,['c'],1,left,['u'],0,0.6446733000002496,0.1,0,0,AccFast,2,19,Woman,Right,
48,13,1,1.233532600000217,['n'],1,right,['u'],0,0.5249377000000095,0.4,0,0,AccFast,2,19,Woman,Right,
49,13,1,1.3017504999997982,['n'],1,right,['u'],0,0.5018058999994537,0.2,0,0,AccFast,2,19,Woman,Right,
50,13,1,1.484850799999549,['n'],1,right,['u'],0,0.5847495999996681,0.4,0,0,AccFast,2,19,Woman,Right,
51,13,1,2.1175557999995362,['c'],0,right,['u'],0,0.3511174999994182,0.1,1,0,AccFast,2,19,Woman,Right,
52,13,1,1.568023899999389,['n'],0,left,['u'],0,0.45279719999962253,0.1,1,0,AccFast,2,19,Woman,Right,
53,13,1,1.2825456999999005,['n'],1,right,['e'],1,0.355154500000026,0.2,1,0,AccFast,2,19,Woman,Right,
54,13,1,1.3181918000000223,['n'],1,right,['e'],1,0.38526379999984783,0.4,1,0,AccFast,2,19,Woman,Right,
55,13,1,1.6679730000005293,['c'],0,right,['u'],0,0.35361460000058287,0.1,1,0,AccFast,2,19,Woman,Right,
56,13,1,1.3498181999993903,['n'],1,right,['u'],0,0.6404436000002534,0.1,0,0,AccFast,2,19,Woman,Right,
57,13,1,1.334669799999574,['c'],1,left,['e'],1,0.38748219999979483,0.2,1,0,AccFast,2,19,Woman,Right,
58,13,1,1.8157701000000088,['c'],0,right,['u'],0,0.46242290000009234,0.1,1,0,AccFast,2,19,Woman,Right,
59,13,1,0.9346805999994103,['c'],1,left,['u'],0,0.7280500999995638,0.4,0,0,AccFast,2,19,Woman,Right,
0,14,1,2.2667006000001493,['c'],1,left,['u'],0,1.448055700000623,0.1,0,0,AccAcc,2,19,Woman,Right,
1,14,1,1.8844987999991645,['n'],1,right,['e'],1,1.316652100000283,0.2,1,0,AccAcc,2,19,Woman,Right,
2,14,1,2.6010461000005307,['c'],1,left,['e'],1,0.5223439000001235,0.1,1,0,AccAcc,2,19,Woman,Right,
3,14,1,1.233627499999784,['c'],1,left,['e'],1,0.9675360000001092,0.4,1,0,AccAcc,2,19,Woman,Right,
4,14,1,1.5496550999996543,['n'],1,right,['e'],1,0.8684074000002511,0.4,1,0,AccAcc,2,19,Woman,Right,
5,14,1,1.583162999999331,['c'],0,right,['u'],0,0.8857801999993171,0.1,1,0,AccAcc,2,19,Woman,Right,
6,14,1,1.3346824000000197,['n'],1,right,['e'],1,0.942388999999821,0.4,1,0,AccAcc,2,19,Woman,Right,
7,14,1,1.484355499999765,['c'],0,right,['u'],0,0.4160295000001497,0.1,1,0,AccAcc,2,19,Woman,Right,
8,14,1,1.384596999999303,['c'],1,left,['e'],1,1.0188756000006833,0.2,1,0,AccAcc,2,19,Woman,Right,
9,14,1,2.4332899000000907,['c'],1,left,['u'],0,0.7717433000007077,0.1,0,0,AccAcc,2,19,Woman,Right,
10,14,1,1.1179092000002129,['c'],1,left,['e'],1,0.5698769000000539,0.4,1,0,AccAcc,2,19,Woman,Right,
11,14,1,2.067004500000621,['n'],0,left,['u'],0,0.5469054999994114,0.2,1,0,AccAcc,2,19,Woman,Right,
12,14,1,1.7010761000001366,['c'],1,left,['u'],0,1.5311522000001787,0.4,0,0,AccAcc,2,19,Woman,Right,
13,14,1,1.8178867999995418,['c'],1,left,['u'],0,1.0475820999999996,0.2,0,0,AccAcc,2,19,Woman,Right,
14,14,1,2.034619400000338,['n'],1,right,['u'],0,1.9026229999999487,0.2,0,0,AccAcc,2,19,Woman,Right,
15,14,1,1.9516577999993387,['n'],0,left,['u'],0,0.6150916999995388,0.2,1,0,AccAcc,2,19,Woman,Right,
16,14,1,1.5009860000000117,['c'],1,left,['u'],0,0.485162400000263,0.4,0,0,AccAcc,2,19,Woman,Right,
17,14,1,1.5347130000000107,['n'],0,left,['e'],1,0.48645659999965574,0.4,0,0,AccAcc,2,19,Woman,Right,
18,14,1,1.384084599999369,['n'],1,right,['u'],0,0.49419769999985874,0.2,0,0,AccAcc,2,19,Woman,Right,
19,14,1,2.249577500000669,['n'],1,right,['u'],0,0.35524830000031216,0.2,0,0,AccAcc,2,19,Woman,Right,
20,14,1,1.1178897999998298,['c'],1,left,['e'],1,0.6026245000002746,0.4,1,0,AccAcc,2,19,Woman,Right,
21,14,1,1.3671745000001465,['n'],0,left,['u'],0,0.4142578999999387,0.4,1,0,AccAcc,2,19,Woman,Right,
22,14,1,1.4828237000001536,['c'],1,left,['u'],0,0.5339983000003485,0.1,0,0,AccAcc,2,19,Woman,Right,
23,14,1,1.267575200000465,['n'],1,right,['e'],1,0.7990540000000692,0.2,1,0,AccAcc,2,19,Woman,Right,
24,14,1,2.5012278999993214,['c'],0,right,['u'],0,0.8293724000004659,0.2,1,0,AccAcc,2,19,Woman,Right,
25,14,1,1.9664667000006375,['n'],1,right,['u'],0,1.007681400000365,0.1,0,0,AccAcc,2,19,Woman,Right,
26,14,1,1.934258299999783,['c'],1,left,['u'],0,0.6529507000004742,0.1,0,0,AccAcc,2,19,Woman,Right,
27,14,1,1.5852122000005693,['n'],1,right,['u'],0,0.7099048000000039,0.4,0,0,AccAcc,2,19,Woman,Right,
28,14,1,1.334646899999825,['n'],1,right,['e'],1,0.5667200000007142,0.4,1,0,AccAcc,2,19,Woman,Right,
29,14,1,1.0839674999997442,['n'],1,right,['u'],0,0.7907627999993565,0.4,0,0,AccAcc,2,19,Woman,Right,
30,14,1,1.816191500000059,['c'],1,left,['u'],0,0.5780426000001171,0.4,0,0,AccAcc,2,19,Woman,Right,
31,14,1,3.234093799999755,['c'],1,left,['u'],0,0.5559197000002314,0.1,0,0,AccAcc,2,19,Woman,Right,
32,14,1,1.5514636000007158,['c'],1,left,['u'],0,0.5220582000001741,0.1,0,0,AccAcc,2,19,Woman,Right,
33,14,1,1.833950499999446,['c'],1,left,['u'],0,0.4304793999999674,0.2,0,0,AccAcc,2,19,Woman,Right,
34,14,1,1.2684022000003097,['n'],1,right,['u'],0,0.6215239000002839,0.1,0,0,AccAcc,2,19,Woman,Right,
35,14,1,0.9003892000000633,['c'],1,left,['e'],1,0.4346159999995507,0.4,1,0,AccAcc,2,19,Woman,Right,
36,14,1,2.0009006999998746,['n'],1,right,['u'],0,0.5632308999993256,0.2,0,0,AccAcc,2,19,Woman,Right,
37,14,1,2.0512942999994266,['c'],1,left,['u'],0,1.0531542999997328,0.2,0,0,AccAcc,2,19,Woman,Right,
38,14,1,1.7015331999991758,['n'],1,right,['u'],0,0.41755860000012035,0.2,0,0,AccAcc,2,19,Woman,Right,
39,14,1,1.851064999999835,['n'],1,right,['u'],0,0.4257999999999811,0.2,0,0,AccAcc,2,19,Woman,Right,
40,14,1,2.1333684999999605,['c'],1,left,['u'],0,0.4702739999993355,0.1,0,0,AccAcc,2,19,Woman,Right,
41,14,1,0.9507186999999249,['n'],1,right,['u'],0,0.5911783999999898,0.2,0,0,AccAcc,2,19,Woman,Right,
42,14,1,0.9345659999999043,['c'],1,left,['u'],0,0.5005811999999423,0.1,0,0,AccAcc,2,19,Woman,Right,
43,14,1,1.8679935000000114,['c'],1,left,['e'],1,0.42440630000055535,0.4,1,0,AccAcc,2,19,Woman,Right,
44,14,1,1.4682794000000285,['n'],1,right,['e'],1,0.5272290000002613,0.2,1,0,AccAcc,2,19,Woman,Right,
45,14,1,1.6337518999998792,['n'],1,right,['u'],0,0.49235659999976633,0.2,0,0,AccAcc,2,19,Woman,Right,
46,14,1,1.03359619999992,['c'],1,left,['e'],1,0.46536490000016784,0.4,1,0,AccAcc,2,19,Woman,Right,
47,14,1,1.3515655000001061,['n'],1,right,['u'],0,0.49119270000028337,0.2,0,0,AccAcc,2,19,Woman,Right,
48,14,1,1.3850311000005604,['c'],0,right,['u'],0,0.434393600000476,0.1,1,0,AccAcc,2,19,Woman,Right,
49,14,1,1.8181875000000218,['n'],1,right,['u'],0,0.4907448999992994,0.1,0,0,AccAcc,2,19,Woman,Right,
50,14,1,1.034351099999185,['c'],0,right,['u'],0,0.48041319999992993,0.1,1,0,AccAcc,2,19,Woman,Right,
51,14,1,2.4345665999999255,['n'],1,right,['u'],0,0.4628318999994008,0.1,0,0,AccAcc,2,19,Woman,Right,
52,14,1,0.9016997000007905,['c'],1,left,['e'],1,0.4896556999992754,0.4,1,0,AccAcc,2,19,Woman,Right,
53,14,1,1.3512423000001945,['c'],1,left,['e'],1,0.4031427999998414,0.2,1,0,AccAcc,2,19,Woman,Right,
54,14,1,1.40128630000072,['c'],0,right,['u'],0,0.429036399999859,0.1,1,0,AccAcc,2,19,Woman,Right,
55,14,1,1.417412400000103,['c'],0,right,['u'],0,0.46948429999974906,0.1,1,0,AccAcc,2,19,Woman,Right,
56,14,1,1.1010157000000618,['c'],1,left,['u'],0,0.4091732000006232,0.4,0,0,AccAcc,2,19,Woman,Right,
57,14,1,1.7182650000004287,['c'],1,left,['u'],0,0.9984836999992694,0.1,0,0,AccAcc,2,19,Woman,Right,
58,14,1,1.5497519999998985,['n'],1,right,['e'],1,0.46693340000001626,0.4,1,0,AccAcc,2,19,Woman,Right,
59,14,1,2.2345017999996344,['c'],0,right,['u'],0,0.4892890000000989,0.4,1,0,AccAcc,2,19,Woman,Right,
0,15,1,0.6012689999997747,['c'],1,left,['u'],0,0.6001956000000064,0.1,0,0,FastAcc,2,19,Woman,Right,
1,15,1,1.05119299999933,['c'],0,right,['u'],0,1.0003892999993695,0.1,1,0,FastAcc,2,19,Woman,Right,
2,15,1,1.0180515000001833,['c'],0,right,['u'],0,1.4498634000001402,0.1,1,0,FastAcc,2,19,Woman,Right,
3,15,1,1.201433399999587,['c'],1,left,['u'],0,0.8502107999993314,0.1,0,0,FastAcc,2,19,Woman,Right,
4,15,1,1.2175988999997571,['c'],1,left,['u'],0,0.8500562999997783,0.1,0,0,FastAcc,2,19,Woman,Right,
5,15,1,1.2505676000000676,['c'],0,right,['e'],1,0.7202504999995654,0.2,0,0,FastAcc,2,19,Woman,Right,
6,15,1,1.4678697999997894,['n'],1,right,['e'],1,0.5710978999995859,0.4,1,0,FastAcc,2,19,Woman,Right,
7,15,1,0.9840788000001339,['n'],1,right,['u'],0,1.8073154000003342,0.4,0,0,FastAcc,2,19,Woman,Right,
8,15,1,0.7847925999994914,['c'],1,left,['e'],1,1.7545283999997991,0.2,1,0,FastAcc,2,19,Woman,Right,
9,15,1,1.0179211000004216,['c'],1,left,['u'],0,1.2781850999999733,0.4,0,0,FastAcc,2,19,Woman,Right,
10,15,1,1.5674037999997381,['n'],1,right,['u'],0,1.7273278000002392,0.2,0,0,FastAcc,2,19,Woman,Right,
11,15,1,0.9012235000000146,['n'],1,right,['u'],0,0.5841770000006363,0.4,0,0,FastAcc,2,19,Woman,Right,
12,15,1,0.751399499999934,['c'],1,left,['e'],1,0.39016540000011446,0.2,1,0,FastAcc,2,19,Woman,Right,
13,15,1,1.217405499999586,['n'],1,right,['e'],1,0.9675825000003897,0.1,1,0,FastAcc,2,19,Woman,Right,
14,15,1,0.8673001999995904,['n'],1,right,['e'],1,1.6657162999999855,0.2,1,0,FastAcc,2,19,Woman,Right,
15,15,1,1.8342087000000902,['c'],1,left,['u'],0,2.0707610999997996,0.1,0,0,FastAcc,2,19,Woman,Right,
16,15,1,0.517609700000321,['n'],1,right,['u'],0,1.7301692000000912,0.1,0,0,FastAcc,2,19,Woman,Right,
17,15,1,0.46759040000051755,['c'],1,left,['e'],1,1.260276299999532,0.2,1,0,FastAcc,2,19,Woman,Right,
18,15,1,0.5016486000004079,['c'],1,left,['e'],1,1.096562300000187,0.4,1,0,FastAcc,2,19,Woman,Right,
19,15,1,0.8005736999994042,['n'],1,right,['e'],1,1.0068371999996089,0.4,1,0,FastAcc,2,19,Woman,Right,
20,15,1,1.017265600000428,['c'],0,right,['u'],0,0.8964769999993223,0.2,1,0,FastAcc,2,19,Woman,Right,
21,15,1,0.8005089999996926,['n'],0,left,['u'],0,1.2946331999992253,0.2,1,0,FastAcc,2,19,Woman,Right,
22,15,1,0.9012242999997397,['n'],1,right,['e'],1,0.9377294999994774,0.1,1,0,FastAcc,2,19,Woman,Right,
23,15,1,0.6016881000005014,['c'],1,left,['u'],0,0.7025616999999329,0.1,0,0,FastAcc,2,19,Woman,Right,
24,15,1,0.5845491999998558,['c'],1,left,['e'],1,1.3576599999996688,0.4,1,0,FastAcc,2,19,Woman,Right,
25,15,1,1.367767400000048,['n'],0,left,['u'],0,1.300649599999815,0.1,1,0,FastAcc,2,19,Woman,Right,
26,15,1,0.5010896000003413,['n'],1,right,['u'],0,0.9896785999999338,0.4,0,0,FastAcc,2,19,Woman,Right,
27,15,1,0.5012955000001966,['c'],1,left,['e'],1,1.156557399999656,0.2,1,0,FastAcc,2,19,Woman,Right,
28,15,1,0.6173071000002892,['n'],1,right,['e'],1,0.9602622000002157,0.1,1,0,FastAcc,2,19,Woman,Right,
29,15,1,0.36833690000003116,['n'],1,right,['u'],0,1.0856888999996954,0.2,0,0,FastAcc,2,19,Woman,Right,
30,15,1,0.5015526000006503,['c'],1,left,['u'],0,1.1365522999994937,0.2,0,0,FastAcc,2,19,Woman,Right,
31,15,1,0.7184170000000449,['n'],1,right,['u'],0,1.5288823999999295,0.1,0,0,FastAcc,2,19,Woman,Right,
32,15,1,0.6168864999999641,['c'],1,left,['e'],1,0.8219648999993296,0.1,1,0,FastAcc,2,19,Woman,Right,
33,15,1,0.5672604999999749,['n'],0,left,['u'],0,1.0720314000000144,0.2,1,0,FastAcc,2,19,Woman,Right,
34,15,1,0.6344126000003598,['c'],0,right,['u'],0,1.1344497999998566,0.2,1,0,FastAcc,2,19,Woman,Right,
35,15,1,1.3010768000003736,['n'],0,left,['u'],0,1.7434554000001299,0.2,1,0,FastAcc,2,19,Woman,Right,
36,15,1,0.434567799999968,['c'],1,left,['e'],1,1.0030670000005557,0.4,1,0,FastAcc,2,19,Woman,Right,
37,15,1,1.0014314000000013,['c'],1,left,['u'],0,1.0216046999994433,0.2,0,0,FastAcc,2,19,Woman,Right,
38,15,1,1.7008309000002555,['n'],0,left,['u'],0,1.4270876000000499,0.2,1,0,FastAcc,2,19,Woman,Right,
39,15,1,0.4514145000002827,['c'],1,left,['e'],1,1.2747059000002992,0.4,1,0,FastAcc,2,19,Woman,Right,
40,15,1,0.8348453000007794,['n'],0,left,['u'],0,0.9851557000001776,0.4,1,0,FastAcc,2,19,Woman,Right,
41,15,1,0.8511174000004758,['c'],0,right,['e'],1,1.2658166999999594,0.4,0,0,FastAcc,2,19,Woman,Right,
42,15,1,0.6183379999993122,['c'],1,left,['u'],0,0.8249361999996836,0.4,0,0,FastAcc,2,19,Woman,Right,
43,15,1,0.4847218000004432,['c'],1,left,['u'],0,1.3191305999998804,0.1,0,0,FastAcc,2,19,Woman,Right,
44,15,1,0.5326869999998962,['c'],0,right,['u'],0,1.1848733999995602,0.1,1,0,FastAcc,2,19,Woman,Right,
45,15,1,0.9355243999998493,['n'],1,right,['e'],1,0.877243200000521,0.1,1,0,FastAcc,2,19,Woman,Right,
46,15,1,0.8174250999991273,['c'],0,right,['u'],0,1.068114799999421,0.4,1,0,FastAcc,2,19,Woman,Right,
47,15,1,0.8013146000002962,['c'],1,left,['e'],1,1.0437191999999413,0.2,1,0,FastAcc,2,19,Woman,Right,
48,15,1,0.8332349000002068,['c'],1,left,['u'],0,0.8600603000004412,0.2,0,0,FastAcc,2,19,Woman,Right,
49,15,1,0.9173898999997618,['n'],0,left,['u'],0,0.8229933999991772,0.2,1,0,FastAcc,2,19,Woman,Right,
50,15,1,0.834785699999884,['c'],1,left,['u'],0,1.063274299999648,0.4,0,0,FastAcc,2,19,Woman,Right,
51,15,1,1.2177045999997063,['n'],1,right,['e'],1,0.8143124000007447,0.4,1,0,FastAcc,2,19,Woman,Right,
52,15,1,0.768059600000015,['n'],1,right,['e'],1,0.7533340999998472,0.4,1,0,FastAcc,2,19,Woman,Right,
53,15,1,0.9507527999994636,['n'],1,right,['u'],0,0.7994844999993802,0.4,0,0,FastAcc,2,19,Woman,Right,
54,15,1,0.8673027000004367,['n'],1,right,['e'],1,0.7670184999997218,0.1,1,0,FastAcc,2,19,Woman,Right,
55,15,1,1.984705099999701,['c'],1,left,['u'],0,1.4602002999999968,0.1,0,0,FastAcc,2,19,Woman,Right,
56,15,1,0.7013355999997657,['n'],1,right,['e'],1,0.8797170999996524,0.1,1,0,FastAcc,2,19,Woman,Right,
57,15,1,0.8843791999997848,['n'],1,right,['u'],0,1.2114086999999927,0.4,0,0,FastAcc,2,19,Woman,Right,
58,15,1,1.0674949000003835,['n'],1,right,['e'],1,0.6113843000002817,0.2,1,0,FastAcc,2,19,Woman,Right,
59,15,1,1.1687473000001773,['n'],1,right,['u'],0,0.8794899000004079,0.4,0,0,FastAcc,2,19,Woman,Right,
