withinblocktrial,block,block_repetition,rt,resp,cor,cresp,conf_press,cj,rtconf,coherence,metacognition,slow_trial,manipulation,sub,age,gender,handedness,
0,1,1,3.4326710999998795,['n'],0,left,none,-99,-99,0.5,-99,0,none,1,17,Woman,Right,
1,1,1,0.9507441999999173,['n'],1,right,none,-99,-99,0.5,-99,0,none,1,17,Woman,Right,
2,1,1,2.3675702999998975,['c'],1,left,none,-99,-99,0.5,-99,0,none,1,17,Woman,Right,
3,1,1,1.516820899999857,['n'],1,right,none,-99,-99,0.5,-99,0,none,1,17,Woman,Right,
4,1,1,4.932779400000072,['n'],0,left,none,-99,-99,0.5,-99,0,none,1,17,Woman,Right,
5,1,1,1.0507250999999087,['n'],1,right,none,-99,-99,0.5,-99,0,none,1,17,Woman,Right,
6,1,1,2.0827432000000954,['n'],0,left,none,-99,-99,0.5,-99,0,none,1,17,Woman,Right,
7,1,1,0.7171992999997201,['n'],1,right,none,-99,-99,0.5,-99,0,none,1,17,Woman,Right,
8,1,1,1.0169369000000188,['c'],1,left,none,-99,-99,0.5,-99,0,none,1,17,Woman,Right,
9,1,1,0.9996918000001642,['n'],1,right,none,-99,-99,0.5,-99,0,none,1,17,Woman,Right,
10,1,1,0.9676614999998492,['n'],1,right,none,-99,-99,0.5,-99,0,none,1,17,Woman,Right,
11,1,1,1.1326556999997592,['c'],1,left,none,-99,-99,0.5,-99,0,none,1,17,Woman,Right,
12,1,1,1.199711600000228,['c'],1,left,none,-99,-99,0.5,-99,0,none,1,17,Woman,Right,
13,1,1,1.617032399999971,['c'],1,left,none,-99,-99,0.5,-99,0,none,1,17,Woman,Right,
14,1,1,0.8317856999997275,['n'],1,right,none,-99,-99,0.5,-99,0,none,1,17,Woman,Right,
15,1,1,1.3182965000000877,['c'],1,left,none,-99,-99,0.5,-99,0,none,1,17,Woman,Right,
16,1,1,0.6677173000002767,['n'],1,right,none,-99,-99,0.5,-99,0,none,1,17,Woman,Right,
17,1,1,0.7005352999999559,['n'],1,right,none,-99,-99,0.5,-99,0,none,1,17,Woman,Right,
18,1,1,0.8672827999998844,['c'],1,left,none,-99,-99,0.5,-99,0,none,1,17,Woman,Right,
19,1,1,0.5509753999999703,['n'],1,right,none,-99,-99,0.5,-99,0,none,1,17,Woman,Right,
20,1,1,0.5017844000003606,['n'],1,right,none,-99,-99,0.5,-99,0,none,1,17,Woman,Right,
21,1,1,0.7326251999998021,['n'],1,right,none,-99,-99,0.5,-99,0,none,1,17,Woman,Right,
22,1,1,0.7163525999999365,['c'],1,left,none,-99,-99,0.5,-99,0,none,1,17,Woman,Right,
23,1,1,1.1177337000003718,['n'],0,left,none,-99,-99,0.5,-99,0,none,1,17,Woman,Right,
0,1,2,0.8178133999999773,['c'],1,left,none,-99,-99,0.5,-99,0,none,1,17,Woman,Right,
1,1,2,0.5013826000003974,['n'],1,right,none,-99,-99,0.5,-99,0,none,1,17,Woman,Right,
2,1,2,1.001197300000058,['n'],0,left,none,-99,-99,0.5,-99,0,none,1,17,Woman,Right,
3,1,2,0.5159227999997711,['n'],0,left,none,-99,-99,0.5,-99,0,none,1,17,Woman,Right,
4,1,2,0.6838999000001422,['c'],1,left,none,-99,-99,0.5,-99,0,none,1,17,Woman,Right,
5,1,2,0.8174828000001071,['c'],1,left,none,-99,-99,0.5,-99,0,none,1,17,Woman,Right,
6,1,2,0.8669224000000213,['c'],1,left,none,-99,-99,0.5,-99,0,none,1,17,Woman,Right,
7,1,2,0.5015555999998469,['n'],1,right,none,-99,-99,0.5,-99,0,none,1,17,Woman,Right,
8,1,2,0.5325551000000814,['n'],1,right,none,-99,-99,0.5,-99,0,none,1,17,Woman,Right,
9,1,2,0.6498196999996253,['n'],1,right,none,-99,-99,0.5,-99,0,none,1,17,Woman,Right,
10,1,2,0.5327173999999104,['n'],1,right,none,-99,-99,0.5,-99,0,none,1,17,Woman,Right,
11,1,2,0.883708100000149,['c'],1,left,none,-99,-99,0.5,-99,0,none,1,17,Woman,Right,
12,1,2,0.49878320000016174,['n'],1,right,none,-99,-99,0.5,-99,0,none,1,17,Woman,Right,
13,1,2,0.5678824000001441,['n'],1,right,none,-99,-99,0.5,-99,0,none,1,17,Woman,Right,
14,1,2,0.6180602999997973,['n'],1,right,none,-99,-99,0.5,-99,0,none,1,17,Woman,Right,
15,1,2,0.5340415999999095,['n'],1,right,none,-99,-99,0.5,-99,0,none,1,17,Woman,Right,
16,1,2,0.5330649000002268,['n'],0,left,none,-99,-99,0.5,-99,0,none,1,17,Woman,Right,
17,1,2,0.8504136000001381,['c'],1,left,none,-99,-99,0.5,-99,0,none,1,17,Woman,Right,
18,1,2,0.5167664999999033,['n'],1,right,none,-99,-99,0.5,-99,0,none,1,17,Woman,Right,
19,1,2,0.4691547000002174,['c'],1,left,none,-99,-99,0.5,-99,0,none,1,17,Woman,Right,
20,1,2,0.4867730000000847,['n'],1,right,none,-99,-99,0.5,-99,0,none,1,17,Woman,Right,
21,1,2,0.7164001999999527,['c'],1,left,none,-99,-99,0.5,-99,0,none,1,17,Woman,Right,
22,1,2,0.5648031999999148,['c'],1,left,none,-99,-99,0.5,-99,0,none,1,17,Woman,Right,
23,1,2,0.4682078000000729,['n'],1,right,none,-99,-99,0.5,-99,0,none,1,17,Woman,Right,
0,2,1,1.0667784000006577,['c'],1,left,none,-99,-99,0.2,-99,0,none,1,17,Woman,Right,
1,2,1,0.7500906999994186,['n'],1,right,none,-99,-99,0.1,-99,0,none,1,17,Woman,Right,
2,2,1,0.6178116000000955,['n'],0,left,none,-99,-99,0.2,-99,0,none,1,17,Woman,Right,
3,2,1,0.5338003999995635,['n'],1,right,none,-99,-99,0.2,-99,0,none,1,17,Woman,Right,
4,2,1,0.6651941999998598,['n'],1,right,none,-99,-99,0.4,-99,0,none,1,17,Woman,Right,
5,2,1,1.252036799999587,['n'],1,right,none,-99,-99,0.4,-99,0,none,1,17,Woman,Right,
6,2,1,0.6512895999994726,['c'],0,right,none,-99,-99,0.2,-99,0,none,1,17,Woman,Right,
7,2,1,0.5490093999997043,['n'],1,right,none,-99,-99,0.1,-99,0,none,1,17,Woman,Right,
8,2,1,0.4674416999996538,['c'],1,left,none,-99,-99,0.1,-99,0,none,1,17,Woman,Right,
9,2,1,0.5169329999998808,['n'],1,right,none,-99,-99,0.4,-99,0,none,1,17,Woman,Right,
10,2,1,0.8842005999995308,['c'],1,left,none,-99,-99,0.2,-99,0,none,1,17,Woman,Right,
11,2,1,0.7504914999999528,['n'],1,right,none,-99,-99,0.4,-99,0,none,1,17,Woman,Right,
12,2,1,0.7336460999995325,['c'],0,right,none,-99,-99,0.4,-99,0,none,1,17,Woman,Right,
13,2,1,0.6336612000004607,['c'],1,left,none,-99,-99,0.1,-99,0,none,1,17,Woman,Right,
14,2,1,0.7667825999997149,['n'],1,right,none,-99,-99,0.1,-99,0,none,1,17,Woman,Right,
15,2,1,0.6498818999998548,['c'],1,left,none,-99,-99,0.2,-99,0,none,1,17,Woman,Right,
16,2,1,0.49902250000013737,['n'],1,right,none,-99,-99,0.4,-99,0,none,1,17,Woman,Right,
17,2,1,0.5670774999998685,['c'],1,left,none,-99,-99,0.2,-99,0,none,1,17,Woman,Right,
18,2,1,0.61653860000024,['c'],0,right,none,-99,-99,0.1,-99,0,none,1,17,Woman,Right,
19,2,1,0.5486480999998093,['n'],0,left,none,-99,-99,0.4,-99,0,none,1,17,Woman,Right,
20,2,1,0.7336193999999523,['c'],1,left,none,-99,-99,0.2,-99,0,none,1,17,Woman,Right,
21,2,1,0.5497652000003654,['c'],1,left,none,-99,-99,0.1,-99,0,none,1,17,Woman,Right,
22,2,1,0.6007530000006227,['c'],1,left,none,-99,-99,0.4,-99,0,none,1,17,Woman,Right,
23,2,1,0.8344011999997747,['c'],1,left,none,-99,-99,0.1,-99,0,none,1,17,Woman,Right,
0,3,1,2.3013438000007227,['c'],1,left,['e'],0,2.502636000000166,0.1,0,0,none,1,17,Woman,Right,
1,3,1,0.5847609000002194,['n'],1,right,['u'],1,0.7218638000003921,0.4,1,0,none,1,17,Woman,Right,
2,3,1,1.7504078000001755,['n'],1,right,['e'],0,1.0295249000000695,0.4,0,0,none,1,17,Woman,Right,
3,3,1,1.367653700000119,['n'],0,left,['e'],0,0.4921932999995988,0.2,1,0,none,1,17,Woman,Right,
4,3,1,3.0178954000002705,['n'],0,left,['e'],0,0.34267739999995683,0.4,1,0,none,1,17,Woman,Right,
5,3,1,1.4014971999995396,['n'],1,right,['e'],0,0.5677254000001994,0.1,0,0,none,1,17,Woman,Right,
6,3,1,2.5177985000000263,['c'],1,left,['e'],0,0.660351599999558,0.4,0,0,none,1,17,Woman,Right,
7,3,1,1.40121949999957,['c'],1,left,['e'],0,0.4717123000000356,0.4,0,0,none,1,17,Woman,Right,
8,3,1,0.5850260999995953,['n'],1,right,['u'],1,0.6934892999997828,0.2,1,0,none,1,17,Woman,Right,
9,3,1,1.317340300000069,['n'],1,right,['e'],0,0.31489369999962946,0.1,0,0,none,1,17,Woman,Right,
10,3,1,0.6674048000004404,['n'],1,right,['u'],1,0.5055160000001706,0.2,1,0,none,1,17,Woman,Right,
11,3,1,0.8003023999999641,['n'],1,right,['u'],1,0.3322689000005994,0.2,1,0,none,1,17,Woman,Right,
12,3,1,0.7847020999997767,['n'],1,right,['u'],1,0.35859630000049947,0.4,1,0,none,1,17,Woman,Right,
13,3,1,1.4011150000005728,['n'],0,left,['e'],0,0.32566529999985505,0.4,1,0,none,1,17,Woman,Right,
14,3,1,2.0008372000002055,['c'],0,right,['e'],0,0.3675549999998111,0.1,1,0,none,1,17,Woman,Right,
15,3,1,1.8000615999999354,['c'],1,left,['e'],0,0.4154680000001463,0.1,0,0,none,1,17,Woman,Right,
16,3,1,1.3009067000002688,['n'],0,left,['e'],0,0.3052434000001085,0.1,1,0,none,1,17,Woman,Right,
17,3,1,1.199862999999823,['n'],1,right,['e'],0,0.3322035000001051,0.4,0,0,none,1,17,Woman,Right,
18,3,1,1.251492800000051,['n'],0,left,['e'],0,0.7547406999992745,0.2,1,0,none,1,17,Woman,Right,
19,3,1,0.9848351999999068,['n'],0,left,['u'],1,0.4357503999999608,0.2,0,0,none,1,17,Woman,Right,
20,3,1,1.1340560999997251,['n'],1,right,['u'],1,0.379727699999421,0.2,1,0,none,1,17,Woman,Right,
21,3,1,0.8836385000004157,['n'],1,right,['u'],1,0.36787309999999707,0.2,1,0,none,1,17,Woman,Right,
22,3,1,0.7847156999996514,['n'],0,left,['u'],1,0.8554176999996344,0.1,0,0,none,1,17,Woman,Right,
23,3,1,1.449608800000533,['n'],0,left,['e'],0,0.5470162000001437,0.1,1,0,none,1,17,Woman,Right,
0,4,1,1.50084920000063,['n'],1,right,['e'],0,0.3443963999998232,0.2,0,0,FastFast,1,17,Woman,Right,
1,4,1,1.0338392000003296,['n'],1,right,['e'],0,0.2126469000004363,0.4,0,0,FastFast,1,17,Woman,Right,
2,4,1,0.8011866999995618,['n'],1,right,['e'],0,0.19121830000040063,0.4,0,0,FastFast,1,17,Woman,Right,
3,4,1,0.9176620999996885,['n'],0,left,['e'],0,0.196307600000182,0.1,1,0,FastFast,1,17,Woman,Right,
4,4,1,0.9331661999995049,['n'],0,left,['e'],0,0.23406049999994138,0.2,1,0,FastFast,1,17,Woman,Right,
5,4,1,0.7514398000002984,['n'],0,left,['u'],1,0.3563702999999805,0.4,0,0,FastFast,1,17,Woman,Right,
6,4,1,1.4014195999998265,['c'],1,left,['e'],0,0.20902290000049106,0.4,0,0,FastFast,1,17,Woman,Right,
7,4,1,1.0012163999999757,['c'],1,left,['u'],1,0.2593655000000581,0.4,1,0,FastFast,1,17,Woman,Right,
8,4,1,1.3998832000006587,['n'],1,right,['e'],0,0.1803989999998521,0.1,0,0,FastFast,1,17,Woman,Right,
9,4,1,0.8329786000003878,['c'],1,left,['u'],1,0.5584410999999818,0.4,1,0,FastFast,1,17,Woman,Right,
10,4,1,0.8175058999995599,['n'],1,right,['e'],0,0.37872150000021065,0.2,0,0,FastFast,1,17,Woman,Right,
11,4,1,1.2682174000001396,['n'],1,right,['e'],0,0.4264682000002722,0.2,0,0,FastFast,1,17,Woman,Right,
12,4,1,1.1847592000003715,['c'],0,right,['e'],0,0.3489273000004687,0.1,1,0,FastFast,1,17,Woman,Right,
13,4,1,1.2501132999996116,['c'],0,right,['e'],0,0.19237489999977697,0.2,1,0,FastFast,1,17,Woman,Right,
14,4,1,1.0176663000002009,['c'],1,left,['u'],1,0.6258822999998301,0.4,1,0,FastFast,1,17,Woman,Right,
15,4,1,1.2498387000005096,['c'],1,left,['u'],1,0.5864174999996976,0.4,1,0,FastFast,1,17,Woman,Right,
16,4,1,1.1512462999999116,['n'],0,left,['e'],0,0.326910400000088,0.2,1,0,FastFast,1,17,Woman,Right,
17,4,1,0.8833749999994325,['n'],1,right,['u'],1,0.666303599999992,0.1,1,0,FastFast,1,17,Woman,Right,
18,4,1,0.6515425999996296,['n'],1,right,['u'],1,0.18301819999942381,0.4,1,0,FastFast,1,17,Woman,Right,
19,4,1,0.7510322000007363,['n'],1,right,['u'],1,0.1962954999999056,0.4,1,0,FastFast,1,17,Woman,Right,
20,4,1,0.9508998000001156,['c'],1,left,['u'],1,0.3452087000005122,0.2,1,0,FastFast,1,17,Woman,Right,
21,4,1,0.7347432999995362,['c'],1,left,['u'],1,0.14415180000014516,0.4,1,0,FastFast,1,17,Woman,Right,
22,4,1,0.8834973000002719,['c'],0,right,['u'],1,0.15420329999960813,0.1,0,0,FastFast,1,17,Woman,Right,
23,4,1,0.884942200000296,['c'],0,right,['u'],1,0.1788375999994969,0.2,0,0,FastFast,1,17,Woman,Right,
24,4,1,1.3158947000001717,['c'],1,left,['e'],0,0.5862428999998883,0.2,0,0,FastFast,1,17,Woman,Right,
25,4,1,1.1162032000002,['c'],1,left,['e'],0,0.15254499999991822,0.2,0,0,FastFast,1,17,Woman,Right,
26,4,1,0.9510485000000699,['c'],1,left,['e'],0,0.6553083999997398,0.4,0,0,FastFast,1,17,Woman,Right,
27,4,1,0.7334200000004785,['n'],1,right,['e'],0,0.18543290000070556,0.2,0,0,FastFast,1,17,Woman,Right,
28,4,1,1.1182040000003326,['c'],0,right,['e'],0,0.3759226000001945,0.1,1,0,FastFast,1,17,Woman,Right,
29,4,1,0.7510717000004661,['c'],1,left,['e'],0,0.18953520000013668,0.1,0,0,FastFast,1,17,Woman,Right,
30,4,1,1.0506539999996676,['n'],1,right,['e'],0,0.15858440000010887,0.1,0,0,FastFast,1,17,Woman,Right,
31,4,1,1.016984599999887,['n'],0,left,['e'],0,0.14665200000035838,0.4,1,0,FastFast,1,17,Woman,Right,
32,4,1,1.0492371000000276,['n'],0,left,['u'],1,0.6458627000001798,0.2,0,0,FastFast,1,17,Woman,Right,
33,4,1,0.9023570999997901,['n'],1,right,['u'],1,0.1535109000005832,0.2,1,0,FastFast,1,17,Woman,Right,
34,4,1,1.1340511999997034,['n'],0,left,['e'],0,0.264647199999672,0.4,1,0,FastFast,1,17,Woman,Right,
35,4,1,1.2670371000003797,['n'],0,left,['e'],0,0.2383761000000959,0.2,1,0,FastFast,1,17,Woman,Right,
36,4,1,1.0346276999998736,['n'],0,left,['e'],0,0.10917560000052617,0.1,1,0,FastFast,1,17,Woman,Right,
37,4,1,0.984622599999966,['n'],1,right,['u'],1,0.3242731000000276,0.1,1,0,FastFast,1,17,Woman,Right,
38,4,1,0.9179754000006142,['n'],1,right,['u'],1,0.14947429999938322,0.2,1,0,FastFast,1,17,Woman,Right,
39,4,1,1.0012015000002066,['n'],0,left,['u'],1,0.2017803000007916,0.2,0,0,FastFast,1,17,Woman,Right,
40,4,1,0.8842319000004863,['n'],0,left,['u'],1,0.14472790000036184,0.1,0,0,FastFast,1,17,Woman,Right,
41,4,1,0.8664465000001655,['n'],1,right,['u'],1,0.122869200000423,0.2,1,0,FastFast,1,17,Woman,Right,
42,4,1,1.5499565999998595,['c'],0,right,['e'],0,0.154396099999758,0.2,1,0,FastFast,1,17,Woman,Right,
43,4,1,1.2016929000001255,['n'],1,right,['u'],1,0.37482639999961975,0.1,1,0,FastFast,1,17,Woman,Right,
44,4,1,1.3511395000004995,['n'],0,left,['e'],0,0.38871740000013233,0.2,1,0,FastFast,1,17,Woman,Right,
45,4,1,0.8662999999996828,['n'],1,right,['e'],0,0.11727080000036949,0.4,0,0,FastFast,1,17,Woman,Right,
46,4,1,1.0668559999994613,['n'],0,left,['e'],0,0.16809490000014193,0.4,1,0,FastFast,1,17,Woman,Right,
47,4,1,0.9672893999995722,['n'],0,left,['u'],1,0.3332879999998113,0.1,0,0,FastFast,1,17,Woman,Right,
48,4,1,1.2671497999999701,['n'],1,right,['e'],0,0.20792059999985213,0.1,0,0,FastFast,1,17,Woman,Right,
49,4,1,1.167762500000208,['c'],1,left,['e'],0,0.13974679999955697,0.1,0,0,FastFast,1,17,Woman,Right,
50,4,1,1.3846174999998766,['c'],0,right,['e'],0,0.12933049999992363,0.1,1,0,FastFast,1,17,Woman,Right,
51,4,1,0.9845759999998336,['n'],1,right,['u'],1,0.13573910000013711,0.2,1,0,FastFast,1,17,Woman,Right,
52,4,1,1.000503799999933,['n'],1,right,['e'],0,0.4128037000000404,0.4,0,0,FastFast,1,17,Woman,Right,
53,4,1,1.1000749000004362,['n'],1,right,['u'],1,0.14596900000015012,0.4,1,0,FastFast,1,17,Woman,Right,
54,4,1,0.8843921999996383,['n'],1,right,['u'],1,0.12300330000016402,0.1,1,0,FastFast,1,17,Woman,Right,
55,4,1,1.4993832000000111,['c'],0,right,['e'],0,0.17332690000057482,0.1,1,0,FastFast,1,17,Woman,Right,
56,4,1,0.949357699999382,['c'],1,left,['e'],0,0.14725309999994352,0.4,0,0,FastFast,1,17,Woman,Right,
57,4,1,1.6160651000000144,['c'],1,left,['e'],0,0.3191226999997525,0.4,0,0,FastFast,1,17,Woman,Right,
58,4,1,1.7002487999998266,['n'],0,left,['e'],0,0.4962752999999793,0.1,1,0,FastFast,1,17,Woman,Right,
59,4,1,0.9500277000006463,['n'],0,left,['e'],0,0.12127690000033908,0.1,1,0,FastFast,1,17,Woman,Right,
0,5,1,1.4673017999994045,['n'],1,right,['e'],0,0.6267670999995971,0.4,0,0,AccFast,1,17,Woman,Right,
1,5,1,1.2349010999996608,['n'],1,right,['u'],1,0.394981700000244,0.1,1,0,AccFast,1,17,Woman,Right,
2,5,1,3.3331387999996878,['n'],0,left,['u'],1,0.45660080000016023,0.4,0,0,AccFast,1,17,Woman,Right,
3,5,1,1.8164275999997699,['n'],0,left,['u'],1,0.20851500000026135,0.1,0,0,AccFast,1,17,Woman,Right,
4,5,1,2.3826990000006845,['c'],1,left,['e'],0,0.3973401000002923,0.4,0,0,AccFast,1,17,Woman,Right,
5,5,1,1.6828244999996969,['n'],1,right,['e'],0,0.18801369999982853,0.1,0,0,AccFast,1,17,Woman,Right,
6,5,1,2.9501510999998573,['n'],1,right,['e'],0,0.89718399999947,0.4,0,0,AccFast,1,17,Woman,Right,
7,5,1,1.8822270999999091,['c'],0,right,['e'],0,0.7571975999999268,0.1,1,0,AccFast,1,17,Woman,Right,
8,5,1,3.2496657000001505,['n'],1,right,['e'],0,0.7917333999994298,0.2,0,0,AccFast,1,17,Woman,Right,
9,5,1,2.249942800000099,['c'],1,left,['e'],0,0.24094569999942905,0.4,0,0,AccFast,1,17,Woman,Right,
10,5,1,1.6511923999996725,['c'],1,left,['u'],1,0.1350801999997202,0.4,1,0,AccFast,1,17,Woman,Right,
11,5,1,4.766355900000235,['c'],1,left,['e'],0,0.5820967999998174,0.4,0,0,AccFast,1,17,Woman,Right,
12,5,1,2.0496299999995244,['n'],1,right,['u'],1,0.22333290000005945,0.2,1,0,AccFast,1,17,Woman,Right,
13,5,1,2.6334286000001157,['c'],1,left,['u'],1,0.3520553000007567,0.1,1,0,AccFast,1,17,Woman,Right,
14,5,1,1.7491863999994166,['c'],0,right,['e'],0,0.3033004999997502,0.2,1,0,AccFast,1,17,Woman,Right,
15,5,1,2.6009375000003274,['c'],1,left,['e'],0,0.3494461999998748,0.4,0,0,AccFast,1,17,Woman,Right,
16,5,1,2.217398700000558,['n'],1,right,['e'],0,0.15381880000040837,0.1,0,0,AccFast,1,17,Woman,Right,
17,5,1,2.0004808999992747,['n'],0,left,['e'],0,1.0949422000003324,0.4,1,0,AccFast,1,17,Woman,Right,
18,5,1,2.0173870999997234,['n'],1,right,['e'],0,0.1403362000000925,0.1,0,0,AccFast,1,17,Woman,Right,
19,5,1,1.700741200000266,['c'],1,left,['u'],1,0.1823048000005656,0.2,1,0,AccFast,1,17,Woman,Right,
20,5,1,2.8487768000004507,['n'],1,right,['u'],1,0.20767140000043582,0.2,1,0,AccFast,1,17,Woman,Right,
21,5,1,5.015421399999468,x,-99,left,none,-99,-99,0.1,-99,1,AccFast,1,17,Woman,Right,
22,5,1,1.3845565999999963,['n'],0,left,['e'],0,0.22081640000033076,0.4,1,0,AccFast,1,17,Woman,Right,
23,5,1,1.6343236000002435,['c'],0,right,['e'],0,0.19795499999963795,0.4,1,0,AccFast,1,17,Woman,Right,
24,5,1,1.783595100000639,['n'],1,right,['e'],0,0.29647879999993165,0.1,0,0,AccFast,1,17,Woman,Right,
25,5,1,1.601522400000249,['n'],1,right,['e'],0,0.1908331000004182,0.1,0,0,AccFast,1,17,Woman,Right,
26,5,1,1.268546499999502,['c'],1,left,['u'],1,0.3759986000004574,0.4,1,0,AccFast,1,17,Woman,Right,
27,5,1,1.7351888000002873,['n'],1,right,['e'],0,0.40631070000017644,0.4,0,0,AccFast,1,17,Woman,Right,
28,5,1,1.46639309999955,['c'],0,right,['e'],0,0.18963950000033947,0.1,1,0,AccFast,1,17,Woman,Right,
29,5,1,1.8677895999999237,['c'],1,left,['e'],0,0.20624839999982214,0.2,0,0,AccFast,1,17,Woman,Right,
30,5,1,1.584336699999767,['n'],1,right,['e'],0,0.21737419999954,0.4,0,0,AccFast,1,17,Woman,Right,
31,5,1,1.8669880000006742,['n'],0,left,['e'],0,0.23301379999975325,0.2,1,0,AccFast,1,17,Woman,Right,
32,5,1,1.6012817000000723,['n'],0,left,['e'],0,0.17806149999978516,0.1,1,0,AccFast,1,17,Woman,Right,
33,5,1,1.8012189999999464,['c'],1,left,['e'],0,0.3578846999998859,0.4,0,0,AccFast,1,17,Woman,Right,
34,5,1,1.1002502999999706,['n'],1,right,['u'],1,0.20601080000051297,0.2,1,0,AccFast,1,17,Woman,Right,
35,5,1,1.334475300000122,['n'],1,right,['u'],1,0.22745020000002114,0.2,1,0,AccFast,1,17,Woman,Right,
36,5,1,1.5159192999999505,['n'],0,left,['u'],1,0.1610515000002124,0.1,0,0,AccFast,1,17,Woman,Right,
37,5,1,1.0842108000006192,['n'],0,left,['e'],0,0.09773580000000948,0.1,1,0,AccFast,1,17,Woman,Right,
38,5,1,1.268132200000764,['n'],1,right,['e'],0,0.18911600000046747,0.2,0,0,AccFast,1,17,Woman,Right,
39,5,1,1.4169623999996475,['n'],1,right,['u'],1,0.15963599999940925,0.2,1,0,AccFast,1,17,Woman,Right,
40,5,1,1.8831803000002765,['c'],1,left,['e'],0,0.2416377999998076,0.2,0,0,AccFast,1,17,Woman,Right,
41,5,1,1.2493071999997483,['n'],1,right,['e'],0,0.13752910000039265,0.2,0,0,AccFast,1,17,Woman,Right,
42,5,1,1.5157566999996561,['c'],1,left,['e'],0,0.18515879999995377,0.2,0,0,AccFast,1,17,Woman,Right,
43,5,1,1.801454799999192,['c'],1,left,['e'],0,0.1719197999991593,0.1,0,0,AccFast,1,17,Woman,Right,
44,5,1,1.4338473999996495,['n'],1,right,['e'],0,0.20616730000074313,0.4,0,0,AccFast,1,17,Woman,Right,
45,5,1,1.0492011000005732,['n'],1,right,['u'],1,0.15943289999995613,0.1,1,0,AccFast,1,17,Woman,Right,
46,5,1,1.3000757999998314,['c'],1,left,['e'],0,0.1675123999993957,0.1,0,0,AccFast,1,17,Woman,Right,
47,5,1,1.2659454999993613,['c'],1,left,['e'],0,0.1615641999997024,0.2,0,0,AccFast,1,17,Woman,Right,
48,5,1,1.149996099999953,['c'],1,left,['e'],0,0.15867029999935767,0.1,0,0,AccFast,1,17,Woman,Right,
49,5,1,1.9692623999999341,['n'],1,right,['e'],0,0.15700870000000577,0.2,0,0,AccFast,1,17,Woman,Right,
50,5,1,2.317764299999908,['c'],0,right,['e'],0,0.17258730000048672,0.2,1,0,AccFast,1,17,Woman,Right,
51,5,1,1.399618599999485,['n'],1,right,['e'],0,0.12894060000053287,0.4,0,0,AccFast,1,17,Woman,Right,
52,5,1,1.3013167999997677,['n'],1,right,['e'],0,0.15356020000035642,0.4,0,0,AccFast,1,17,Woman,Right,
53,5,1,1.3998636000005718,['c'],1,left,['u'],1,0.14270750000014232,0.4,1,0,AccFast,1,17,Woman,Right,
54,5,1,1.4504987000000256,['c'],0,right,['e'],0,0.2569511000001512,0.2,1,0,AccFast,1,17,Woman,Right,
55,5,1,1.9170409000007567,['n'],1,right,['e'],0,0.20487260000027163,0.4,0,0,AccFast,1,17,Woman,Right,
56,5,1,2.0508634999996502,['c'],1,left,['e'],0,0.1654023999999481,0.2,0,0,AccFast,1,17,Woman,Right,
57,5,1,2.533795700000155,['c'],1,left,['e'],0,0.5885238999999274,0.1,0,0,AccFast,1,17,Woman,Right,
58,5,1,1.5835038000004715,['c'],1,left,['e'],0,0.18398640000032174,0.2,0,0,AccFast,1,17,Woman,Right,
59,5,1,1.2340901999996277,['n'],0,left,['u'],1,0.2745703999999023,0.1,0,0,AccFast,1,17,Woman,Right,
0,6,1,2.3330425000003743,['c'],1,left,['u'],1,2.29267499999969,0.1,1,0,AccAcc,1,17,Woman,Right,
1,6,1,2.716204999999718,['n'],1,right,['e'],0,0.4630116000007547,0.1,0,0,AccAcc,1,17,Woman,Right,
2,6,1,1.7674729999998817,['n'],0,left,['e'],0,1.4161721999998917,0.1,1,0,AccAcc,1,17,Woman,Right,
3,6,1,2.08374829999957,['n'],0,left,['e'],0,0.47904149999976653,0.1,1,0,AccAcc,1,17,Woman,Right,
4,6,1,2.0492261999997936,['n'],0,left,['e'],0,0.33356580000054237,0.2,1,0,AccAcc,1,17,Woman,Right,
5,6,1,1.5522903000000952,['c'],1,left,['u'],1,0.1952979999996387,0.4,1,0,AccAcc,1,17,Woman,Right,
6,6,1,2.600842200000443,['n'],1,right,['u'],1,1.5427731999998286,0.4,1,0,AccAcc,1,17,Woman,Right,
7,6,1,2.1178682999998273,['n'],0,left,['u'],1,0.4391016999998101,0.2,0,0,AccAcc,1,17,Woman,Right,
8,6,1,1.7669310999999652,['n'],0,left,['e'],0,0.4493365999996968,0.1,1,0,AccAcc,1,17,Woman,Right,
9,6,1,0.8838958000005732,['c'],1,left,['u'],1,0.15830710000045656,0.4,1,0,AccAcc,1,17,Woman,Right,
10,6,1,2.6164903999997478,['n'],1,right,['e'],0,0.5954682999999932,0.1,0,0,AccAcc,1,17,Woman,Right,
11,6,1,1.1848365000005288,['n'],0,left,['e'],0,0.1903052999996362,0.1,1,0,AccAcc,1,17,Woman,Right,
12,6,1,1.334259999999631,['n'],1,right,['e'],0,0.3399754000001849,0.1,0,0,AccAcc,1,17,Woman,Right,
13,6,1,1.801402699999926,['n'],1,right,['e'],0,0.17711249999956635,0.1,0,0,AccAcc,1,17,Woman,Right,
14,6,1,1.484409499999856,['n'],1,right,['e'],0,0.19383060000018304,0.2,0,0,AccAcc,1,17,Woman,Right,
15,6,1,1.150931600000149,['n'],1,right,['e'],0,0.20693829999981972,0.2,0,0,AccAcc,1,17,Woman,Right,
16,6,1,1.5843722999998135,['n'],1,right,['e'],0,0.2023748000001433,0.2,0,0,AccAcc,1,17,Woman,Right,
17,6,1,1.3168085999996038,['c'],1,left,['e'],0,0.20776389999991807,0.1,0,0,AccAcc,1,17,Woman,Right,
18,6,1,1.5517744999997376,['c'],1,left,['u'],1,0.3011350999995557,0.4,1,0,AccAcc,1,17,Woman,Right,
19,6,1,1.3677527999998347,['n'],1,right,['e'],0,0.3160496999998941,0.2,0,0,AccAcc,1,17,Woman,Right,
20,6,1,1.5003734000001714,['c'],1,left,['e'],0,0.6782032000000981,0.4,0,0,AccAcc,1,17,Woman,Right,
21,6,1,1.583485699999983,['n'],0,left,['u'],1,0.4305351000002702,0.4,0,0,AccAcc,1,17,Woman,Right,
22,6,1,1.5516059999999925,['n'],1,right,['e'],0,0.20970190000025468,0.1,0,0,AccAcc,1,17,Woman,Right,
23,6,1,1.4844505000000936,['n'],0,left,['e'],0,0.304866999999831,0.1,1,0,AccAcc,1,17,Woman,Right,
24,6,1,1.4827248999999938,['c'],1,left,['e'],0,0.25285080000048765,0.4,0,0,AccAcc,1,17,Woman,Right,
25,6,1,2.7171827999991365,['c'],1,left,['e'],0,0.4240344999998342,0.1,0,0,AccAcc,1,17,Woman,Right,
26,6,1,1.1514930000003005,['n'],0,left,['u'],1,0.23577810000006139,0.2,0,0,AccAcc,1,17,Woman,Right,
27,6,1,1.334043699999711,['c'],1,left,['u'],1,0.255716300000131,0.4,1,0,AccAcc,1,17,Woman,Right,
28,6,1,1.3516266999995423,['n'],0,left,['e'],0,0.29007629999978235,0.4,1,0,AccAcc,1,17,Woman,Right,
29,6,1,1.7494778000000224,['c'],1,left,['e'],0,0.8048139000002266,0.4,0,0,AccAcc,1,17,Woman,Right,
30,6,1,1.8001074000003427,['n'],1,right,['e'],0,0.3983176000001549,0.2,0,0,AccAcc,1,17,Woman,Right,
31,6,1,1.4332444000001487,['n'],0,left,['e'],0,0.5680080000001908,0.2,1,0,AccAcc,1,17,Woman,Right,
32,6,1,1.3998962999994546,['n'],1,right,['e'],0,0.2034142000002248,0.4,0,0,AccAcc,1,17,Woman,Right,
33,6,1,1.2510572000001048,['n'],1,right,['e'],0,0.2755028999999922,0.2,0,0,AccAcc,1,17,Woman,Right,
34,6,1,1.4162709000001996,['n'],1,right,['e'],0,0.19518269999935,0.2,0,0,AccAcc,1,17,Woman,Right,
35,6,1,1.3501940999994986,['n'],1,right,['e'],0,0.2004943000001731,0.2,0,0,AccAcc,1,17,Woman,Right,
36,6,1,1.5506589999995413,['c'],0,right,['e'],0,0.21242249999977503,0.1,1,0,AccAcc,1,17,Woman,Right,
37,6,1,1.417743399999381,['c'],1,left,['u'],1,0.18212270000003628,0.2,1,0,AccAcc,1,17,Woman,Right,
38,6,1,1.6511350000000675,['c'],0,right,['e'],0,0.4625286000000415,0.2,1,0,AccAcc,1,17,Woman,Right,
39,6,1,1.101151299999401,['n'],1,right,['u'],1,0.24238300000070012,0.2,1,0,AccAcc,1,17,Woman,Right,
40,6,1,2.1177010999999766,['c'],1,left,['e'],0,0.4069687999999587,0.1,0,0,AccAcc,1,17,Woman,Right,
41,6,1,1.2498795999999857,['n'],1,right,['u'],1,0.3441298999996434,0.4,1,0,AccAcc,1,17,Woman,Right,
42,6,1,1.2344295000002603,['n'],1,right,['u'],1,0.20320170000013604,0.4,1,0,AccAcc,1,17,Woman,Right,
43,6,1,1.9176934999995865,['n'],1,right,['e'],0,0.24913160000050993,0.2,0,0,AccAcc,1,17,Woman,Right,
44,6,1,1.4164448000001357,['n'],1,right,['e'],0,0.21768169999995735,0.1,0,0,AccAcc,1,17,Woman,Right,
45,6,1,1.3844540000000052,['n'],0,left,['u'],1,0.2361652999998114,0.2,0,0,AccAcc,1,17,Woman,Right,
46,6,1,1.384471499999563,['n'],0,left,['e'],0,0.26912850000007893,0.2,1,0,AccAcc,1,17,Woman,Right,
47,6,1,1.4825939000002109,['n'],0,left,['e'],0,0.6185169999998834,0.1,1,0,AccAcc,1,17,Woman,Right,
48,6,1,2.115859100000307,['c'],1,left,['e'],0,0.33552179999969667,0.2,0,0,AccAcc,1,17,Woman,Right,
49,6,1,1.2328685000002224,['n'],1,right,['e'],0,0.19563670000025013,0.2,0,0,AccAcc,1,17,Woman,Right,
50,6,1,1.1317758999994112,['c'],1,left,['e'],0,0.2571271999995588,0.1,0,0,AccAcc,1,17,Woman,Right,
51,6,1,1.3516624000003503,['n'],1,right,['e'],0,0.722455500000251,0.4,0,0,AccAcc,1,17,Woman,Right,
52,6,1,1.700573300000542,['c'],0,right,['u'],1,0.24500470000020869,0.4,0,0,AccAcc,1,17,Woman,Right,
53,6,1,2.101387199999408,['c'],0,right,['e'],0,0.20152619999953458,0.4,1,0,AccAcc,1,17,Woman,Right,
54,6,1,1.6681166999997004,['n'],0,left,['e'],0,0.2573889999994208,0.4,1,0,AccAcc,1,17,Woman,Right,
55,6,1,1.3176634999999806,['n'],1,right,['e'],0,0.35717680000016117,0.4,0,0,AccAcc,1,17,Woman,Right,
56,6,1,1.4176478999997926,['n'],1,right,['u'],1,0.22499539999989793,0.4,1,0,AccAcc,1,17,Woman,Right,
57,6,1,1.1984456000000137,['n'],1,right,['e'],0,1.388267100000121,0.4,0,0,AccAcc,1,17,Woman,Right,
58,6,1,1.2832199000004039,['n'],0,left,['e'],0,0.2275456999996095,0.1,1,0,AccAcc,1,17,Woman,Right,
59,6,1,1.5500496000004205,['n'],1,right,['e'],0,0.17454870000074152,0.1,0,0,AccAcc,1,17,Woman,Right,
0,7,1,0.4998710999998366,['n'],0,left,['u'],1,1.390354799999841,0.2,0,0,FastAcc,1,17,Woman,Right,
1,7,1,1.1344662999999855,['n'],1,right,['e'],0,0.7475635999999213,0.4,0,0,FastAcc,1,17,Woman,Right,
2,7,1,1.23477290000028,['n'],1,right,['u'],1,2.4948703000000023,0.4,1,0,FastAcc,1,17,Woman,Right,
3,7,1,0.7841117999996641,['c'],1,left,['u'],1,0.6223625000002357,0.4,1,0,FastAcc,1,17,Woman,Right,
4,7,1,0.8676240000004327,['n'],0,left,['e'],0,0.5334928000002037,0.4,1,0,FastAcc,1,17,Woman,Right,
5,7,1,1.9006600000002436,['n'],0,left,['e'],0,0.40671799999927316,0.1,1,0,FastAcc,1,17,Woman,Right,
6,7,1,1.4665612999997393,['c'],1,left,['e'],0,0.38332699999955366,0.2,0,0,FastAcc,1,17,Woman,Right,
7,7,1,0.9001520000001619,['n'],1,right,['u'],1,0.4304093999999168,0.4,1,0,FastAcc,1,17,Woman,Right,
8,7,1,1.0992972000003647,['c'],1,left,['e'],0,1.0595713000002434,0.1,0,0,FastAcc,1,17,Woman,Right,
9,7,1,1.1510118000005605,['n'],0,left,['e'],0,0.3172738000002937,0.1,1,0,FastAcc,1,17,Woman,Right,
10,7,1,1.0839956999998321,['n'],1,right,['e'],0,0.3597293000002537,0.2,0,0,FastAcc,1,17,Woman,Right,
11,7,1,0.5672752000000401,['n'],0,left,['u'],1,0.5496124999999665,0.2,0,0,FastAcc,1,17,Woman,Right,
12,7,1,0.9002594000003228,['c'],0,right,['e'],0,0.2858549000002313,0.2,1,0,FastAcc,1,17,Woman,Right,
13,7,1,1.0011483000007502,['n'],1,right,['e'],0,0.23692960000062158,0.4,0,0,FastAcc,1,17,Woman,Right,
14,7,1,0.9342175000001589,['c'],0,right,['e'],0,0.2887362999999823,0.1,1,0,FastAcc,1,17,Woman,Right,
15,7,1,0.950105099999746,['n'],1,right,['e'],0,0.2737442000006922,0.1,0,0,FastAcc,1,17,Woman,Right,
16,7,1,1.0011457000000519,['n'],1,right,['e'],0,0.32163280000077066,0.1,0,0,FastAcc,1,17,Woman,Right,
17,7,1,0.8342867000001206,['n'],1,right,['e'],0,1.093866600000183,0.2,0,0,FastAcc,1,17,Woman,Right,
18,7,1,0.8173397000000477,['c'],0,right,['u'],1,2.076737100000173,0.2,0,0,FastAcc,1,17,Woman,Right,
19,7,1,1.284782499999892,['c'],0,right,['e'],0,0.8412502000001041,0.2,1,0,FastAcc,1,17,Woman,Right,
20,7,1,0.8840897000000041,['c'],1,left,['u'],1,0.21534880000035628,0.4,1,0,FastAcc,1,17,Woman,Right,
21,7,1,1.1342841999994562,['c'],1,left,['u'],1,0.7075832999998966,0.4,1,0,FastAcc,1,17,Woman,Right,
22,7,1,1.1677515000001222,['n'],1,right,['u'],1,1.6593189999994138,0.2,1,0,FastAcc,1,17,Woman,Right,
23,7,1,1.6850519999998141,['c'],0,right,['e'],0,0.552568500000234,0.1,1,0,FastAcc,1,17,Woman,Right,
24,7,1,1.0821481000002677,['n'],0,left,['e'],0,0.3788129000004119,0.4,1,0,FastAcc,1,17,Woman,Right,
25,7,1,0.6663816000000224,['n'],1,right,['u'],1,0.40285579999999754,0.2,1,0,FastAcc,1,17,Woman,Right,
26,7,1,1.1170157999995354,['c'],0,right,['e'],0,0.24868940000033035,0.1,1,0,FastAcc,1,17,Woman,Right,
27,7,1,1.233186200000091,['n'],1,right,['e'],0,0.4001021000003675,0.4,0,0,FastAcc,1,17,Woman,Right,
28,7,1,1.250431700000263,['n'],0,left,['e'],0,0.7202864000000773,0.4,1,0,FastAcc,1,17,Woman,Right,
29,7,1,1.115915700000187,['n'],1,right,['u'],1,1.1309314000000086,0.1,1,0,FastAcc,1,17,Woman,Right,
30,7,1,1.5012694000006377,['c'],1,left,['u'],1,1.2671000000000276,0.1,1,0,FastAcc,1,17,Woman,Right,
31,7,1,1.2181621999998242,['n'],0,left,['u'],1,1.7944756999995661,0.2,0,0,FastAcc,1,17,Woman,Right,
32,7,1,1.133805200000097,['n'],0,left,['u'],1,2.1130036999993536,0.2,0,0,FastAcc,1,17,Woman,Right,
33,7,1,1.0178273999999874,['c'],0,right,['e'],0,1.2056007999999565,0.4,1,0,FastAcc,1,17,Woman,Right,
34,7,1,0.5680825999997978,['n'],0,left,['e'],0,0.5935911000005945,0.1,1,0,FastAcc,1,17,Woman,Right,
35,7,1,0.734022399999958,['c'],1,left,['e'],0,1.4871170000005804,0.1,0,0,FastAcc,1,17,Woman,Right,
36,7,1,0.8678885999997874,['n'],1,right,['u'],1,2.0372095000002446,0.2,1,0,FastAcc,1,17,Woman,Right,
37,7,1,1.1683516000002783,['n'],0,left,['e'],0,0.5985946999999214,0.2,1,0,FastAcc,1,17,Woman,Right,
38,7,1,0.6819844999999987,['n'],0,left,['e'],0,0.6783582999996725,0.1,1,0,FastAcc,1,17,Woman,Right,
39,7,1,0.8501133999998274,['c'],1,left,['e'],0,1.052267000000029,0.4,0,0,FastAcc,1,17,Woman,Right,
40,7,1,1.6011357999996108,['n'],0,left,['e'],0,1.5728353000004063,0.1,1,0,FastAcc,1,17,Woman,Right,
41,7,1,1.0018223999995826,['c'],0,right,['e'],0,1.3598074000001361,0.2,1,0,FastAcc,1,17,Woman,Right,
42,7,1,0.7165082000001348,['n'],1,right,['e'],0,0.4331881999996767,0.1,0,0,FastAcc,1,17,Woman,Right,
43,7,1,0.5167648999995436,['n'],0,left,['e'],0,0.4446216000005734,0.2,1,0,FastAcc,1,17,Woman,Right,
44,7,1,0.6162408000000141,['n'],0,left,['e'],0,0.4056789000005665,0.4,1,0,FastAcc,1,17,Woman,Right,
45,7,1,0.6021829999999682,['n'],1,right,['e'],0,0.43089469999995345,0.4,0,0,FastAcc,1,17,Woman,Right,
46,7,1,0.8172119000000748,['n'],0,left,['e'],0,0.6080389999997351,0.1,1,0,FastAcc,1,17,Woman,Right,
47,7,1,0.8173884999996517,['n'],0,left,['e'],0,1.1769773000005443,0.2,1,0,FastAcc,1,17,Woman,Right,
48,7,1,1.2500718000001143,['c'],0,right,['e'],0,0.31501570000000356,0.2,1,0,FastAcc,1,17,Woman,Right,
49,7,1,0.9174964999992881,['c'],1,left,['u'],1,0.2519497000002957,0.4,1,0,FastAcc,1,17,Woman,Right,
50,7,1,0.8346224000006259,['n'],1,right,['u'],1,1.1551538000003347,0.4,1,0,FastAcc,1,17,Woman,Right,
51,7,1,0.9506042000002708,['n'],0,left,['e'],0,1.3935586999996303,0.4,1,0,FastAcc,1,17,Woman,Right,
52,7,1,1.101299900000413,['n'],1,right,['e'],0,0.3382621000000654,0.1,0,0,FastAcc,1,17,Woman,Right,
53,7,1,0.7513955000003989,['c'],1,left,['e'],0,1.159907100000055,0.1,0,0,FastAcc,1,17,Woman,Right,
54,7,1,1.1516221000001678,['c'],0,right,['e'],0,0.7186467999999877,0.2,1,0,FastAcc,1,17,Woman,Right,
55,7,1,0.7845621999995274,['n'],1,right,['e'],0,2.1170701999999437,0.4,0,0,FastAcc,1,17,Woman,Right,
56,7,1,0.6993259999999282,['n'],0,left,['e'],0,0.32845670000006066,0.4,1,0,FastAcc,1,17,Woman,Right,
57,7,1,1.7347976999999446,['n'],0,left,['e'],0,0.7274545999998736,0.1,1,0,FastAcc,1,17,Woman,Right,
58,7,1,0.8166161999997712,['n'],1,right,['u'],1,0.34939810000014404,0.1,1,0,FastAcc,1,17,Woman,Right,
59,7,1,1.0845229999995354,['n'],1,right,['e'],0,0.2945454000000609,0.2,0,0,FastAcc,1,17,Woman,Right,
0,8,1,0.45114190000003873,['n'],0,left,['e'],0,0.6282731999999669,0.2,1,0,FastFast,1,17,Woman,Right,
1,8,1,0.41661389999990206,['n'],1,right,['u'],1,0.7175944999999047,0.1,1,0,FastFast,1,17,Woman,Right,
2,8,1,0.7669026000003214,['c'],0,right,['e'],0,0.9159366000003502,0.1,1,0,FastFast,1,17,Woman,Right,
3,8,1,0.5341144999993048,['n'],1,right,['u'],1,0.3489098999998532,0.4,1,0,FastFast,1,17,Woman,Right,
4,8,1,1.0844949000002089,['n'],1,right,['e'],0,0.5981302999998661,0.2,0,0,FastFast,1,17,Woman,Right,
5,8,1,0.6348871000000145,['n'],1,right,['e'],0,0.9822288999994271,0.4,0,0,FastFast,1,17,Woman,Right,
6,8,1,0.7841447000000699,['n'],0,left,['e'],0,0.1788485999995828,0.1,1,0,FastFast,1,17,Woman,Right,
7,8,1,0.7850467999996908,['c'],0,right,['e'],0,0.19052079999983107,0.2,1,0,FastFast,1,17,Woman,Right,
8,8,1,0.8676189999996495,['c'],0,right,['e'],0,0.23082479999993666,0.2,1,0,FastFast,1,17,Woman,Right,
9,8,1,0.7008322000001499,['c'],1,left,['u'],1,0.356087999999545,0.4,1,0,FastFast,1,17,Woman,Right,
10,8,1,0.9012701000001471,['c'],1,left,['e'],0,0.21244429999933345,0.1,0,0,FastFast,1,17,Woman,Right,
11,8,1,0.767061399999875,['c'],1,left,['e'],0,0.2073608000000604,0.2,0,0,FastFast,1,17,Woman,Right,
12,8,1,0.8343412000003809,['n'],1,right,['u'],1,0.2803877000005741,0.4,1,0,FastFast,1,17,Woman,Right,
13,8,1,0.6816378000003169,['n'],1,right,['u'],1,0.2616170000001148,0.4,1,0,FastFast,1,17,Woman,Right,
14,8,1,0.8509776999999303,['n'],1,right,['e'],0,0.1880258999999569,0.1,0,0,FastFast,1,17,Woman,Right,
15,8,1,0.7334393000001,['n'],1,right,['e'],0,0.29630749999978434,0.4,0,0,FastFast,1,17,Woman,Right,
16,8,1,0.8844181000004028,['n'],0,left,['u'],1,0.684027000000242,0.1,0,0,FastFast,1,17,Woman,Right,
17,8,1,0.9160956000005172,['c'],1,left,['u'],1,0.6068309000002046,0.4,1,0,FastFast,1,17,Woman,Right,
18,8,1,1.1178518999995504,['c'],1,left,['e'],0,0.2355798999997205,0.4,0,0,FastFast,1,17,Woman,Right,
19,8,1,0.9006122999999207,['n'],1,right,['u'],1,0.19286290000036388,0.2,1,0,FastFast,1,17,Woman,Right,
20,8,1,0.7166071000001466,['n'],1,right,['u'],1,0.17655670000021928,0.4,1,0,FastFast,1,17,Woman,Right,
21,8,1,0.6842587000001004,['n'],1,right,['u'],1,0.14345899999989342,0.4,1,0,FastFast,1,17,Woman,Right,
22,8,1,1.6332878000002893,['n'],0,left,['u'],1,0.3159955999999511,0.2,0,0,FastFast,1,17,Woman,Right,
23,8,1,0.7513177000000724,['n'],1,right,['u'],1,0.17998999999963416,0.4,1,0,FastFast,1,17,Woman,Right,
24,8,1,1.2667927000002237,['c'],0,right,['e'],0,0.17127110000001267,0.2,1,0,FastFast,1,17,Woman,Right,
25,8,1,0.8512946000000738,['n'],1,right,['e'],0,0.21332350000011502,0.4,0,0,FastFast,1,17,Woman,Right,
26,8,1,0.8179083000004539,['n'],0,left,['e'],0,0.17558550000012474,0.1,1,0,FastFast,1,17,Woman,Right,
27,8,1,0.9678720000001704,['c'],1,left,['e'],0,0.27532700000028854,0.2,0,0,FastFast,1,17,Woman,Right,
28,8,1,0.8165767999998934,['n'],0,left,['e'],0,0.1711459999996805,0.1,1,0,FastFast,1,17,Woman,Right,
29,8,1,0.6497090000002572,['n'],0,left,['e'],0,0.2210728999998537,0.1,1,0,FastFast,1,17,Woman,Right,
30,8,1,1.1996858999991673,['n'],1,right,['e'],0,0.534654999999475,0.2,0,0,FastFast,1,17,Woman,Right,
31,8,1,0.916671399999359,['n'],0,left,['e'],0,0.14264129999992292,0.4,1,0,FastFast,1,17,Woman,Right,
32,8,1,0.9514623999994001,['n'],1,right,['e'],0,0.16523240000060468,0.2,0,0,FastFast,1,17,Woman,Right,
33,8,1,1.0993791000000783,['n'],1,right,['e'],0,0.1816833000002589,0.2,0,0,FastFast,1,17,Woman,Right,
34,8,1,1.0004437000006874,['c'],1,left,['e'],0,0.7280943999994633,0.2,0,0,FastFast,1,17,Woman,Right,
35,8,1,0.9839796000005663,['n'],1,right,['e'],0,0.5502291000002515,0.4,0,0,FastFast,1,17,Woman,Right,
36,8,1,0.6176856000001862,['n'],0,left,['e'],0,0.2336222000003545,0.1,1,0,FastFast,1,17,Woman,Right,
37,8,1,0.8172981000006985,['n'],0,left,['e'],0,0.22629670000060287,0.2,1,0,FastFast,1,17,Woman,Right,
38,8,1,1.0181726999999228,['c'],0,right,['e'],0,0.2272358999998687,0.2,1,0,FastFast,1,17,Woman,Right,
39,8,1,1.0843126999998276,['c'],1,left,['u'],1,0.2575925000001007,0.1,1,0,FastFast,1,17,Woman,Right,
40,8,1,1.4503801999999268,['n'],0,left,['u'],1,0.8480780999998387,0.1,0,0,FastFast,1,17,Woman,Right,
41,8,1,0.8338721000000078,['n'],0,left,['e'],0,0.159262299999682,0.1,1,0,FastFast,1,17,Woman,Right,
42,8,1,0.88439820000076,['c'],1,left,['u'],1,0.2804660000001604,0.1,1,0,FastFast,1,17,Woman,Right,
43,8,1,0.884589500000402,['c'],1,left,['e'],0,0.3324351999999635,0.4,0,0,FastFast,1,17,Woman,Right,
44,8,1,1.2330679999995482,['n'],1,right,['e'],0,0.6238660999997592,0.4,0,0,FastFast,1,17,Woman,Right,
45,8,1,1.0015786000003573,['n'],1,right,['e'],0,0.16165130000081263,0.1,0,0,FastFast,1,17,Woman,Right,
46,8,1,0.9010209999996732,['n'],0,left,['e'],0,0.21822179999981017,0.4,1,0,FastFast,1,17,Woman,Right,
47,8,1,0.5005773000002591,['n'],1,right,['e'],0,0.20728890000009415,0.4,0,0,FastFast,1,17,Woman,Right,
48,8,1,0.8849190000000817,['n'],0,left,['e'],0,0.6460945000007996,0.4,1,0,FastFast,1,17,Woman,Right,
49,8,1,0.9159377999994831,['c'],0,right,['e'],0,0.4105371000005107,0.1,1,0,FastFast,1,17,Woman,Right,
50,8,1,1.0495522999999594,['c'],0,right,['e'],0,0.8030255999992733,0.2,1,0,FastFast,1,17,Woman,Right,
51,8,1,0.8663322000002154,['c'],1,left,['u'],1,0.17812079999930575,0.4,1,0,FastFast,1,17,Woman,Right,
52,8,1,0.9010234000006676,['c'],0,right,['u'],1,0.16962800000055722,0.2,0,0,FastFast,1,17,Woman,Right,
53,8,1,1.3657357000001866,['c'],0,right,['u'],1,0.3512825999996494,0.2,0,0,FastFast,1,17,Woman,Right,
54,8,1,1.651044400000501,['n'],0,left,['e'],0,0.2894563999998354,0.1,1,0,FastFast,1,17,Woman,Right,
55,8,1,0.9665246000004117,['c'],0,right,['u'],1,0.1620861999999761,0.2,0,0,FastFast,1,17,Woman,Right,
56,8,1,1.1838035999999192,['c'],1,left,['e'],0,0.23840369999925315,0.1,0,0,FastFast,1,17,Woman,Right,
57,8,1,1.0010703000007197,['c'],1,left,['e'],0,0.39950799999951414,0.1,0,0,FastFast,1,17,Woman,Right,
58,8,1,1.0011390999998184,['c'],1,left,['e'],0,0.21790519999922253,0.1,0,0,FastFast,1,17,Woman,Right,
59,8,1,1.1513841000005414,['c'],1,left,['e'],0,0.1977577999996356,0.2,0,0,FastFast,1,17,Woman,Right,
0,9,1,1.4664505999999164,['n'],0,left,['e'],0,0.5113616999997248,0.2,1,0,AccFast,1,17,Woman,Right,
1,9,1,1.1011806999995315,['n'],1,right,['e'],0,0.30576939999991737,0.4,0,0,AccFast,1,17,Woman,Right,
2,9,1,1.8845110000002023,['n'],1,right,['e'],0,0.26903499999934866,0.1,0,0,AccFast,1,17,Woman,Right,
3,9,1,0.9504910999994536,['n'],1,right,['u'],1,1.1186308000005738,0.4,1,0,AccFast,1,17,Woman,Right,
4,9,1,1.3677010999999766,['c'],1,left,['e'],0,0.22219510000013543,0.4,0,0,AccFast,1,17,Woman,Right,
5,9,1,1.4510103000002346,['c'],0,right,['e'],0,0.2537200999995548,0.1,1,0,AccFast,1,17,Woman,Right,
6,9,1,1.167884000000413,['n'],1,right,['e'],0,0.1835479999999734,0.4,0,0,AccFast,1,17,Woman,Right,
7,9,1,1.3004263000002538,['n'],0,left,['e'],0,0.6866700000000492,0.2,1,0,AccFast,1,17,Woman,Right,
8,9,1,2.0167520000004515,['c'],0,right,['e'],0,0.3738279999997758,0.1,1,0,AccFast,1,17,Woman,Right,
9,9,1,1.2498520999997709,['n'],0,left,['e'],0,0.1845833000006678,0.2,1,0,AccFast,1,17,Woman,Right,
10,9,1,1.0678986000002624,['n'],1,right,['e'],0,0.18354830000043876,0.4,0,0,AccFast,1,17,Woman,Right,
11,9,1,1.7328545000000304,['n'],0,left,['e'],0,0.23749640000005456,0.2,1,0,AccFast,1,17,Woman,Right,
12,9,1,1.1343151000000944,['c'],1,left,['e'],0,0.1852203999997073,0.1,0,0,AccFast,1,17,Woman,Right,
13,9,1,1.3680553999993208,['c'],1,left,['u'],1,0.20566059999964637,0.4,1,0,AccFast,1,17,Woman,Right,
14,9,1,1.2838229999997566,['c'],1,left,['e'],0,0.21264920000066923,0.1,0,0,AccFast,1,17,Woman,Right,
15,9,1,1.5680447000004278,['n'],1,right,['e'],0,1.1373127999995631,0.1,0,0,AccFast,1,17,Woman,Right,
16,9,1,1.9505815000002258,['n'],0,left,['e'],0,0.487319099999695,0.4,1,0,AccFast,1,17,Woman,Right,
17,9,1,1.551138599999831,['n'],0,left,['e'],0,0.36102200000004814,0.4,1,0,AccFast,1,17,Woman,Right,
18,9,1,1.1497378999993089,['n'],1,right,['e'],0,0.22432390000085434,0.4,0,0,AccFast,1,17,Woman,Right,
19,9,1,1.5000610000006418,['c'],1,left,['u'],1,0.4607009999999718,0.2,1,0,AccFast,1,17,Woman,Right,
20,9,1,2.052073300000302,['c'],1,left,['e'],0,0.4114630000003672,0.4,0,0,AccFast,1,17,Woman,Right,
21,9,1,1.6675661000008404,['n'],1,right,['e'],0,0.2030862999999954,0.1,0,0,AccFast,1,17,Woman,Right,
22,9,1,1.5014360999994096,['n'],1,right,['e'],0,0.20134450000023207,0.2,0,0,AccFast,1,17,Woman,Right,
23,9,1,1.5676967999997942,['c'],0,right,['e'],0,0.21314239999992424,0.1,1,0,AccFast,1,17,Woman,Right,
24,9,1,1.3501786000006177,['n'],1,right,['e'],0,0.1687668999993548,0.1,0,0,AccFast,1,17,Woman,Right,
25,9,1,1.2329478999999992,['c'],1,left,['e'],0,1.4278889999995954,0.2,0,0,AccFast,1,17,Woman,Right,
26,9,1,1.5846817999999985,['n'],1,right,['e'],0,0.18985679999968852,0.2,0,0,AccFast,1,17,Woman,Right,
27,9,1,1.1832266999999774,['c'],0,right,['e'],0,0.1383691999999428,0.2,1,0,AccFast,1,17,Woman,Right,
28,9,1,1.1336553999999524,['n'],1,right,['e'],0,0.21767279999949096,0.1,0,0,AccFast,1,17,Woman,Right,
29,9,1,1.767707299999529,['n'],0,left,['e'],0,0.172512099999949,0.1,1,0,AccFast,1,17,Woman,Right,
30,9,1,1.217371799999455,['c'],1,left,['u'],1,0.21664199999941047,0.4,1,0,AccFast,1,17,Woman,Right,
31,9,1,1.284147700000176,['n'],0,left,['e'],0,0.1910103000000163,0.1,1,0,AccFast,1,17,Woman,Right,
32,9,1,1.151123199999347,['n'],1,right,['e'],0,0.2199876000004224,0.1,0,0,AccFast,1,17,Woman,Right,
33,9,1,1.2675029000001814,['n'],1,right,['e'],0,0.29024719999961235,0.2,0,0,AccFast,1,17,Woman,Right,
34,9,1,1.1500788000003013,['n'],0,left,['e'],0,0.22026610000011715,0.1,1,0,AccFast,1,17,Woman,Right,
35,9,1,1.3010488999998415,['n'],0,left,['e'],0,0.2571771000002627,0.1,1,0,AccFast,1,17,Woman,Right,
36,9,1,1.5992065999998886,['n'],1,right,['e'],0,0.15513389999978244,0.2,0,0,AccFast,1,17,Woman,Right,
37,9,1,1.1497773000000961,['n'],1,right,['e'],0,0.2330760000004375,0.1,0,0,AccFast,1,17,Woman,Right,
38,9,1,1.0828427000005831,['c'],1,left,['e'],0,0.18287519999921642,0.1,0,0,AccFast,1,17,Woman,Right,
39,9,1,1.3173876999999266,['c'],1,left,['e'],0,0.2367826999998215,0.2,0,0,AccFast,1,17,Woman,Right,
40,9,1,1.1673320999998396,['n'],0,left,['e'],0,0.19901690000006056,0.4,1,0,AccFast,1,17,Woman,Right,
41,9,1,1.1009063000001333,['n'],0,left,['e'],0,0.21401689999947848,0.4,1,0,AccFast,1,17,Woman,Right,
42,9,1,0.8680022999997163,['n'],1,right,['e'],0,0.1731893999995009,0.4,0,0,AccFast,1,17,Woman,Right,
43,9,1,1.3334657000004881,['c'],1,left,['e'],0,0.1629203000002235,0.2,0,0,AccFast,1,17,Woman,Right,
44,9,1,1.117039200000363,['n'],0,left,['e'],0,0.16315930000018852,0.2,1,0,AccFast,1,17,Woman,Right,
45,9,1,1.0995263999993767,['n'],1,right,['u'],1,0.27463469999929657,0.2,1,0,AccFast,1,17,Woman,Right,
46,9,1,1.6493368999999802,['c'],1,left,['e'],0,0.29700299999967683,0.2,0,0,AccFast,1,17,Woman,Right,
47,9,1,1.1506426000005376,['n'],1,right,['e'],0,0.19192590000056953,0.2,0,0,AccFast,1,17,Woman,Right,
48,9,1,1.3176298999997016,['c'],1,left,['e'],0,0.15060119999998278,0.2,0,0,AccFast,1,17,Woman,Right,
49,9,1,1.2333161999995355,['n'],1,right,['e'],0,0.22699540000030538,0.2,0,0,AccFast,1,17,Woman,Right,
50,9,1,1.1176532999998017,['c'],1,left,['e'],0,0.20686019999993732,0.4,0,0,AccFast,1,17,Woman,Right,
51,9,1,1.2180585000005522,['n'],0,left,['e'],0,0.1683695000001535,0.1,1,0,AccFast,1,17,Woman,Right,
52,9,1,1.167876200000137,['n'],0,left,['e'],0,0.18168150000019523,0.4,1,0,AccFast,1,17,Woman,Right,
53,9,1,1.150641600000199,['n'],1,right,['e'],0,0.16293820000009873,0.4,0,0,AccFast,1,17,Woman,Right,
54,9,1,1.0502590999994936,['n'],1,right,['e'],0,0.149436899999273,0.4,0,0,AccFast,1,17,Woman,Right,
55,9,1,1.1834748000001127,['n'],1,right,['e'],0,0.2099503999997978,0.2,0,0,AccFast,1,17,Woman,Right,
56,9,1,1.2018761999997878,['n'],1,right,['e'],0,0.28389789999982895,0.1,0,0,AccFast,1,17,Woman,Right,
57,9,1,1.1854278000000704,['n'],1,right,['e'],0,0.3237340999994558,0.4,0,0,AccFast,1,17,Woman,Right,
58,9,1,1.0170029999999315,['n'],1,right,['e'],0,0.1450967999999193,0.4,0,0,AccFast,1,17,Woman,Right,
59,9,1,1.335356600000523,['n'],0,left,['e'],0,0.18501539999942906,0.1,1,0,AccFast,1,17,Woman,Right,
0,10,1,1.0339368999993894,['n'],0,left,['e'],0,0.41062220000003435,0.4,1,0,AccAcc,1,17,Woman,Right,
1,10,1,1.1658096000001024,['n'],1,right,['u'],1,0.25559789999988425,0.1,1,0,AccAcc,1,17,Woman,Right,
2,10,1,1.5495819000007032,['c'],1,left,['u'],1,1.4656096000007892,0.2,1,0,AccAcc,1,17,Woman,Right,
3,10,1,2.1174260999996477,['n'],0,left,['e'],0,0.31652200000007724,0.4,1,0,AccAcc,1,17,Woman,Right,
4,10,1,1.5160324999997101,['c'],1,left,['e'],0,0.19747209999968618,0.2,0,0,AccAcc,1,17,Woman,Right,
5,10,1,1.3174577999998291,['n'],0,left,['e'],0,0.13899430000037682,0.1,1,0,AccAcc,1,17,Woman,Right,
6,10,1,1.116634900000463,['n'],1,right,['u'],1,0.21961060000012367,0.4,1,0,AccAcc,1,17,Woman,Right,
7,10,1,1.3172537999998895,['c'],1,left,['e'],0,0.22452869999960967,0.4,0,0,AccAcc,1,17,Woman,Right,
8,10,1,1.3190377999999328,['n'],1,right,['e'],0,0.22985220000009576,0.4,0,0,AccAcc,1,17,Woman,Right,
9,10,1,1.3517610999997487,['n'],1,right,['u'],1,0.4103859000006196,0.4,1,0,AccAcc,1,17,Woman,Right,
10,10,1,1.335875799999485,['n'],0,left,['e'],0,2.262058700000125,0.4,1,0,AccAcc,1,17,Woman,Right,
11,10,1,1.8651165999999648,['n'],1,right,['e'],0,0.6930862999997771,0.1,0,0,AccAcc,1,17,Woman,Right,
12,10,1,1.33375580000029,['c'],0,right,['u'],1,0.16569080000044778,0.2,0,0,AccAcc,1,17,Woman,Right,
13,10,1,1.4183583000003637,['c'],1,left,['e'],0,0.2485404999997627,0.4,0,0,AccAcc,1,17,Woman,Right,
14,10,1,1.1847974000002068,['n'],0,left,['e'],0,0.2896842000000106,0.1,1,0,AccAcc,1,17,Woman,Right,
15,10,1,2.416435700000875,['n'],1,right,['e'],0,0.2168206000005739,0.2,0,0,AccAcc,1,17,Woman,Right,
16,10,1,1.4841324999997596,['n'],0,left,['e'],0,0.34293340000022,0.2,1,0,AccAcc,1,17,Woman,Right,
17,10,1,1.1849874999998065,['c'],1,left,['e'],0,0.20458569999937026,0.2,0,0,AccAcc,1,17,Woman,Right,
18,10,1,1.1499266000000716,['c'],0,right,['e'],0,0.28176780000012513,0.1,1,0,AccAcc,1,17,Woman,Right,
19,10,1,1.1178522000000157,['n'],0,left,['e'],0,0.2115827999996327,0.4,1,0,AccAcc,1,17,Woman,Right,
20,10,1,1.1321680000000924,['n'],1,right,['u'],1,0.7531011000000944,0.1,1,0,AccAcc,1,17,Woman,Right,
21,10,1,1.2994605000003503,['n'],1,right,['u'],1,0.2245892000000822,0.1,1,0,AccAcc,1,17,Woman,Right,
22,10,1,1.850436400000035,['n'],0,left,['e'],0,0.30424200000015844,0.2,1,0,AccAcc,1,17,Woman,Right,
23,10,1,1.2008918999999878,['c'],0,right,['e'],0,0.1988056999998662,0.4,1,0,AccAcc,1,17,Woman,Right,
24,10,1,1.1670931999997265,['c'],0,right,['e'],0,0.22732389999964653,0.1,1,0,AccAcc,1,17,Woman,Right,
25,10,1,1.184983199999806,['c'],1,left,['e'],0,0.2849273000001631,0.2,0,0,AccAcc,1,17,Woman,Right,
26,10,1,1.2337609000005614,['n'],1,right,['e'],0,0.2275891999997839,0.2,0,0,AccAcc,1,17,Woman,Right,
27,10,1,1.2167093999996723,['n'],0,left,['e'],0,0.2527806000007331,0.1,1,0,AccAcc,1,17,Woman,Right,
28,10,1,1.1012310000005527,['c'],0,right,['u'],1,0.2644950999992943,0.4,0,0,AccAcc,1,17,Woman,Right,
29,10,1,1.7184438000003865,['c'],0,right,['u'],1,0.25138260000039736,0.2,0,0,AccAcc,1,17,Woman,Right,
30,10,1,1.3171018999992157,['c'],0,right,['u'],1,0.28750850000051287,0.4,0,0,AccAcc,1,17,Woman,Right,
31,10,1,2.484496600000057,['n'],0,left,['e'],0,0.8513171000004149,0.4,1,0,AccAcc,1,17,Woman,Right,
32,10,1,1.5510081000002174,['n'],1,right,['e'],0,0.2458253999993758,0.1,0,0,AccAcc,1,17,Woman,Right,
33,10,1,1.18377799999962,['n'],1,right,['u'],1,0.2390464999998585,0.4,1,0,AccAcc,1,17,Woman,Right,
34,10,1,1.8502934000007372,['c'],1,left,['e'],0,0.2230279999994309,0.2,0,0,AccAcc,1,17,Woman,Right,
35,10,1,1.0346769000007043,['c'],1,left,['u'],1,0.2708695000001171,0.4,1,0,AccAcc,1,17,Woman,Right,
36,10,1,1.1682732999997825,['n'],0,left,['e'],0,0.19969330000003538,0.2,1,0,AccAcc,1,17,Woman,Right,
37,10,1,1.4340183999993315,['n'],0,left,['e'],0,0.2650824000002103,0.2,1,0,AccAcc,1,17,Woman,Right,
38,10,1,1.3335299999998824,['c'],0,right,['e'],0,0.2518765999993775,0.1,1,0,AccAcc,1,17,Woman,Right,
39,10,1,1.6676656999998158,['n'],0,left,['e'],0,0.1620015999997122,0.1,1,0,AccAcc,1,17,Woman,Right,
40,10,1,1.133261500000117,['n'],1,right,['e'],0,0.19245130000035715,0.4,0,0,AccAcc,1,17,Woman,Right,
41,10,1,1.133847500000229,['c'],0,right,['e'],0,0.20602959999996528,0.2,1,0,AccAcc,1,17,Woman,Right,
42,10,1,1.1999922999993942,['c'],1,left,['e'],0,0.23288810000030935,0.1,0,0,AccAcc,1,17,Woman,Right,
43,10,1,1.2669464000000517,['n'],0,left,['u'],1,0.3030023999999685,0.2,0,0,AccAcc,1,17,Woman,Right,
44,10,1,1.0841803000002983,['n'],0,left,['e'],0,0.18740499999967142,0.2,1,0,AccAcc,1,17,Woman,Right,
45,10,1,1.0011867000002894,['n'],1,right,['e'],0,0.28513760000078037,0.4,0,0,AccAcc,1,17,Woman,Right,
46,10,1,1.3686718999997538,['c'],1,left,['e'],0,0.5574945000007574,0.2,0,0,AccAcc,1,17,Woman,Right,
47,10,1,0.9347820000002685,['n'],1,right,['e'],0,0.26077299999997194,0.2,0,0,AccAcc,1,17,Woman,Right,
48,10,1,1.4515293000004021,['n'],1,right,['e'],0,0.5152225000001636,0.1,0,0,AccAcc,1,17,Woman,Right,
49,10,1,1.350698100000045,['c'],1,left,['e'],0,0.20307469999988825,0.1,0,0,AccAcc,1,17,Woman,Right,
50,10,1,1.0677128000006633,['n'],0,left,['e'],0,0.2188304999999673,0.4,1,0,AccAcc,1,17,Woman,Right,
51,10,1,0.9511685999996189,['n'],1,right,['e'],0,0.20658629999979894,0.2,0,0,AccAcc,1,17,Woman,Right,
52,10,1,0.967666100000315,['n'],1,right,['e'],0,0.21028019999994285,0.1,0,0,AccAcc,1,17,Woman,Right,
53,10,1,1.2828507999993235,['n'],1,right,['e'],0,0.21825519999947574,0.2,0,0,AccAcc,1,17,Woman,Right,
54,10,1,1.5174858000000313,['n'],0,left,['e'],0,0.21531950000007782,0.1,1,0,AccAcc,1,17,Woman,Right,
55,10,1,1.1502839000004315,['n'],1,right,['e'],0,0.24330269999973098,0.4,0,0,AccAcc,1,17,Woman,Right,
56,10,1,1.2839230999998108,['n'],1,right,['e'],0,0.216255799999999,0.1,0,0,AccAcc,1,17,Woman,Right,
57,10,1,1.1340746999994735,['c'],1,left,['u'],1,0.181376999999884,0.4,1,0,AccAcc,1,17,Woman,Right,
58,10,1,1.1494352999998227,['n'],1,right,['e'],0,0.21099619999949937,0.1,0,0,AccAcc,1,17,Woman,Right,
59,10,1,0.9676460000000588,['c'],1,left,['u'],1,0.19811549999940326,0.1,1,0,AccAcc,1,17,Woman,Right,
0,11,1,1.600578000000496,['c'],0,right,['e'],0,1.9277835000002597,0.2,1,0,FastAcc,1,17,Woman,Right,
1,11,1,0.449972099999286,['n'],1,right,['u'],1,0.7154919000004156,0.4,1,0,FastAcc,1,17,Woman,Right,
2,11,1,0.64988589999939,['c'],0,right,['e'],0,0.8550114000008762,0.1,1,0,FastAcc,1,17,Woman,Right,
3,11,1,0.5494627000007313,['n'],0,left,['u'],1,0.9943983000002845,0.4,0,0,FastAcc,1,17,Woman,Right,
4,11,1,0.5497191000004022,['n'],0,left,['e'],0,0.5350544000002628,0.1,1,0,FastAcc,1,17,Woman,Right,
5,11,1,0.6671919000000344,['n'],0,left,['e'],0,0.568933399999878,0.4,1,0,FastAcc,1,17,Woman,Right,
6,11,1,0.6511169999994308,['n'],1,right,['e'],0,0.5555694999993648,0.2,0,0,FastAcc,1,17,Woman,Right,
7,11,1,0.6664888000004794,['n'],1,right,['e'],0,0.5565309000003253,0.1,0,0,FastAcc,1,17,Woman,Right,
8,11,1,0.6160491999999067,['n'],1,right,['e'],0,0.44937300000037794,0.1,0,0,FastAcc,1,17,Woman,Right,
9,11,1,0.6673381999999037,['c'],1,left,['u'],1,0.7901804000002812,0.4,1,0,FastAcc,1,17,Woman,Right,
10,11,1,1.0335260000001654,['n'],1,right,['e'],0,0.7838130000000092,0.2,0,0,FastAcc,1,17,Woman,Right,
11,11,1,0.6515521999999692,['n'],0,left,['e'],0,0.28102469999976165,0.4,1,0,FastAcc,1,17,Woman,Right,
12,11,1,1.2855313999998543,['n'],0,left,['e'],0,0.22067859999970096,0.1,1,0,FastAcc,1,17,Woman,Right,
13,11,1,0.8329705999994985,['n'],1,right,['u'],1,0.7105070999996315,0.4,1,0,FastAcc,1,17,Woman,Right,
14,11,1,0.6518713000004936,['n'],0,left,['e'],0,1.1856744000006074,0.4,1,0,FastAcc,1,17,Woman,Right,
15,11,1,0.6002791000000798,['n'],1,right,['e'],0,0.2529701000003115,0.4,0,0,FastAcc,1,17,Woman,Right,
16,11,1,0.7831476000001203,['n'],0,left,['e'],0,0.2626330000002781,0.2,1,0,FastAcc,1,17,Woman,Right,
17,11,1,0.9333411999996315,['c'],0,right,['e'],0,0.361104499999783,0.2,1,0,FastAcc,1,17,Woman,Right,
18,11,1,1.234346799999912,['n'],0,left,['e'],0,0.22013730000071519,0.2,1,0,FastAcc,1,17,Woman,Right,
19,11,1,1.08461460000035,['c'],1,left,['e'],0,0.21779609999975946,0.1,0,0,FastAcc,1,17,Woman,Right,
20,11,1,0.8169989000007263,['n'],1,right,['u'],1,0.6269634999998743,0.4,1,0,FastAcc,1,17,Woman,Right,
21,11,1,0.8501549000002342,['n'],1,right,['e'],0,0.5072680000002947,0.2,0,0,FastAcc,1,17,Woman,Right,
22,11,1,0.6664840000003096,['n'],0,left,['e'],0,0.6869434999998703,0.4,1,0,FastAcc,1,17,Woman,Right,
23,11,1,0.6342924999999013,['c'],1,left,['e'],0,0.6359474999999293,0.2,0,0,FastAcc,1,17,Woman,Right,
24,11,1,1.433734700000059,['n'],1,right,['e'],0,0.47609379999994417,0.1,0,0,FastAcc,1,17,Woman,Right,
25,11,1,1.4512553000004118,['c'],0,right,['e'],0,0.37113529999987804,0.1,1,0,FastAcc,1,17,Woman,Right,
26,11,1,0.9170321999999942,['c'],1,left,['e'],0,0.16109009999945556,0.2,0,0,FastAcc,1,17,Woman,Right,
27,11,1,0.6504471999996895,['n'],0,left,['e'],0,0.19528249999984837,0.1,1,0,FastAcc,1,17,Woman,Right,
28,11,1,0.7830646000002162,['n'],0,left,['e'],0,0.22223219999978028,0.2,1,0,FastAcc,1,17,Woman,Right,
29,11,1,0.834719500000574,['n'],0,left,['e'],0,0.26261499999964144,0.4,1,0,FastAcc,1,17,Woman,Right,
30,11,1,0.7178973000000042,['n'],1,right,['e'],0,0.27423130000079254,0.2,0,0,FastAcc,1,17,Woman,Right,
31,11,1,0.7336544999998296,['n'],0,left,['e'],0,0.20492469999953755,0.4,1,0,FastAcc,1,17,Woman,Right,
32,11,1,0.6364803999995274,['n'],1,right,['e'],0,0.2695917000000918,0.2,0,0,FastAcc,1,17,Woman,Right,
33,11,1,0.6510841999997865,['n'],1,right,['e'],0,0.25087429999985034,0.2,0,0,FastAcc,1,17,Woman,Right,
34,11,1,0.8499410999993415,['n'],1,right,['e'],0,0.20997999999963213,0.4,0,0,FastAcc,1,17,Woman,Right,
35,11,1,1.0180924999995113,['c'],1,left,['e'],0,0.17895390000012412,0.4,0,0,FastAcc,1,17,Woman,Right,
36,11,1,0.9838823999998567,['n'],1,right,['e'],0,0.18261880000045494,0.1,0,0,FastAcc,1,17,Woman,Right,
37,11,1,1.100976499999888,['c'],0,right,['e'],0,0.21383919999971113,0.2,1,0,FastAcc,1,17,Woman,Right,
38,11,1,0.9011725999998816,['n'],1,right,['e'],0,0.17168349999974453,0.1,0,0,FastAcc,1,17,Woman,Right,
39,11,1,0.9508427000000665,['n'],1,right,['e'],0,0.19406789999993634,0.4,0,0,FastAcc,1,17,Woman,Right,
40,11,1,0.9678661999996621,['c'],0,right,['e'],0,0.22976480000033916,0.4,1,0,FastAcc,1,17,Woman,Right,
41,11,1,1.0018756999998004,['c'],1,left,['u'],1,0.9027364000003217,0.2,1,0,FastAcc,1,17,Woman,Right,
42,11,1,1.082462399999713,['n'],0,left,['e'],0,0.20274650000010297,0.1,1,0,FastAcc,1,17,Woman,Right,
43,11,1,1.249906799999735,['n'],1,right,['e'],0,0.22679280000011204,0.1,0,0,FastAcc,1,17,Woman,Right,
44,11,1,0.8512775999997757,['n'],1,right,['e'],0,0.2181577000001198,0.4,0,0,FastAcc,1,17,Woman,Right,
45,11,1,0.9336669000003894,['n'],0,left,['e'],0,0.1746618999995917,0.1,1,0,FastAcc,1,17,Woman,Right,
46,11,1,0.9510270999999193,['c'],1,left,['e'],0,0.27640510000037466,0.2,0,0,FastAcc,1,17,Woman,Right,
47,11,1,0.7664787000003344,['c'],0,right,['u'],1,0.3341620999999577,0.2,0,0,FastAcc,1,17,Woman,Right,
48,11,1,0.901362199999312,['c'],1,left,['e'],0,0.6064624999999069,0.1,0,0,FastAcc,1,17,Woman,Right,
49,11,1,0.8844290999995792,['c'],1,left,['e'],0,0.2305884999996124,0.1,0,0,FastAcc,1,17,Woman,Right,
50,11,1,1.5178954000002705,['n'],0,left,['e'],0,0.3062910999997257,0.2,1,0,FastAcc,1,17,Woman,Right,
51,11,1,1.0675452000004952,['n'],0,left,['e'],0,0.15803690000029746,0.1,1,0,FastAcc,1,17,Woman,Right,
52,11,1,1.7493586999999025,['c'],1,left,['e'],0,0.21380849999968632,0.1,0,0,FastAcc,1,17,Woman,Right,
53,11,1,1.5668289000004734,['c'],1,left,['e'],0,0.14383670000006532,0.2,0,0,FastAcc,1,17,Woman,Right,
54,11,1,1.2844620000005307,['c'],0,right,['e'],0,0.21736959999998362,0.4,1,0,FastAcc,1,17,Woman,Right,
55,11,1,1.3177930000001652,['n'],1,right,['e'],0,0.23839539999971748,0.1,0,0,FastAcc,1,17,Woman,Right,
56,11,1,1.0172867999999653,['n'],0,left,['e'],0,0.23889460000009421,0.1,1,0,FastAcc,1,17,Woman,Right,
57,11,1,1.1842938999998296,['n'],1,right,['e'],0,0.18457779999971535,0.4,0,0,FastAcc,1,17,Woman,Right,
58,11,1,1.1849628999998458,['c'],1,left,['e'],0,0.14844220000031783,0.2,0,0,FastAcc,1,17,Woman,Right,
59,11,1,0.9673851000006835,['n'],1,right,['e'],0,0.1543125999996846,0.4,0,0,FastAcc,1,17,Woman,Right,
0,12,1,0.784403900000143,['n'],1,right,['e'],0,0.15038929999991524,0.4,0,0,FastFast,1,17,Woman,Right,
1,12,1,0.8672446999999011,['c'],1,left,['e'],0,0.12854710000010527,0.1,0,0,FastFast,1,17,Woman,Right,
2,12,1,0.6491455000004862,['n'],1,right,['e'],0,0.13187569999990956,0.4,0,0,FastFast,1,17,Woman,Right,
3,12,1,0.7846614000000045,['c'],1,left,['e'],0,0.14512699999977485,0.4,0,0,FastFast,1,17,Woman,Right,
4,12,1,0.7994501000002856,['c'],1,left,['e'],0,0.17435659999955533,0.2,0,0,FastFast,1,17,Woman,Right,
5,12,1,0.7512283000005482,['n'],0,left,['e'],0,0.17138650000015332,0.2,1,0,FastFast,1,17,Woman,Right,
6,12,1,0.634475900000325,['n'],0,left,['e'],0,0.1576193000000785,0.4,1,0,FastFast,1,17,Woman,Right,
7,12,1,0.7659985999998753,['c'],0,right,['e'],0,0.15634829999999056,0.2,1,0,FastFast,1,17,Woman,Right,
8,12,1,0.7502870999996958,['c'],0,right,['e'],0,0.1540621000003739,0.1,1,0,FastFast,1,17,Woman,Right,
9,12,1,0.7334089999994831,['c'],0,right,['e'],0,0.16946789999929024,0.1,1,0,FastFast,1,17,Woman,Right,
10,12,1,0.7994531999993342,['c'],0,right,['e'],0,0.6776600000002873,0.4,1,0,FastFast,1,17,Woman,Right,
11,12,1,1.017807599999287,['n'],1,right,['e'],0,0.259610099999918,0.2,0,0,FastFast,1,17,Woman,Right,
12,12,1,0.7838622999997824,['c'],1,left,['e'],0,0.15670899999986432,0.1,0,0,FastFast,1,17,Woman,Right,
13,12,1,0.8515467999995963,['n'],1,right,['e'],0,0.15099089999966964,0.1,0,0,FastFast,1,17,Woman,Right,
14,12,1,0.700067200000376,['n'],1,right,['e'],0,0.1835442999999941,0.2,0,0,FastFast,1,17,Woman,Right,
15,12,1,0.8347025000002759,['c'],1,left,['e'],0,0.16197490000013204,0.2,0,0,FastFast,1,17,Woman,Right,
16,12,1,0.7844654000000446,['c'],1,left,['e'],0,0.15809119999994437,0.4,0,0,FastFast,1,17,Woman,Right,
17,12,1,1.0000760000002629,['c'],1,left,['e'],0,0.11450299999978597,0.2,0,0,FastFast,1,17,Woman,Right,
18,12,1,1.1512573999998494,['c'],1,left,['e'],0,0.19468809999943915,0.1,0,0,FastFast,1,17,Woman,Right,
19,12,1,0.7673655999997209,['n'],1,right,['e'],0,0.17468399999961548,0.4,0,0,FastFast,1,17,Woman,Right,
20,12,1,0.9007856999996875,['n'],1,right,['e'],0,0.1343401999993148,0.4,0,0,FastFast,1,17,Woman,Right,
21,12,1,0.8341794999996637,['n'],1,right,['e'],0,0.13104820000080508,0.1,0,0,FastFast,1,17,Woman,Right,
22,12,1,0.767231300000276,['n'],0,left,['e'],0,0.14524770000025455,0.1,1,0,FastFast,1,17,Woman,Right,
23,12,1,0.7663108999995529,['n'],1,right,['e'],0,0.190816199999972,0.4,0,0,FastFast,1,17,Woman,Right,
24,12,1,1.1512431999999535,['c'],1,left,['e'],0,0.10785089999990305,0.1,0,0,FastFast,1,17,Woman,Right,
25,12,1,1.9843140000002677,['n'],1,right,['e'],0,0.15505819999998494,0.2,0,0,FastFast,1,17,Woman,Right,
26,12,1,0.8013510000000679,['n'],0,left,['e'],0,0.13565050000033807,0.1,1,0,FastFast,1,17,Woman,Right,
27,12,1,0.684803500000271,['c'],1,left,['e'],0,0.18526480000036827,0.4,0,0,FastFast,1,17,Woman,Right,
28,12,1,0.9152407000001404,['c'],1,left,['e'],0,0.17712309999933495,0.1,0,0,FastFast,1,17,Woman,Right,
29,12,1,0.8331814000002851,['c'],1,left,['e'],0,0.1383300000006784,0.1,0,0,FastFast,1,17,Woman,Right,
30,12,1,0.7516169000000446,['c'],1,left,['e'],0,0.16903170000023238,0.2,0,0,FastFast,1,17,Woman,Right,
31,12,1,0.7345682000004672,['c'],1,left,['e'],0,0.1674260999998296,0.2,0,0,FastFast,1,17,Woman,Right,
32,12,1,1.0178757000003316,['n'],1,right,['e'],0,0.26805640000020503,0.1,0,0,FastFast,1,17,Woman,Right,
33,12,1,0.9168509000000995,['c'],0,right,['e'],0,0.9584563999997044,0.4,1,0,FastFast,1,17,Woman,Right,
34,12,1,0.7993200000000797,['n'],0,left,['e'],0,1.2912815999998202,0.2,1,0,FastFast,1,17,Woman,Right,
35,12,1,1.5004792999998244,['c'],1,left,['e'],0,0.11018720000083704,0.4,0,0,FastFast,1,17,Woman,Right,
36,12,1,0.9670635000002221,['c'],1,left,['e'],0,0.08605319999969652,0.4,0,0,FastFast,1,17,Woman,Right,
37,12,1,1.051507400000446,['c'],0,right,['e'],0,0.13826679999965563,0.1,1,0,FastFast,1,17,Woman,Right,
38,12,1,1.6345845000005284,['c'],1,left,['e'],0,0.1023590000004333,0.2,0,0,FastFast,1,17,Woman,Right,
39,12,1,1.1339682999996512,['n'],1,right,['e'],0,0.15225220000047557,0.2,0,0,FastFast,1,17,Woman,Right,
40,12,1,0.9497197000000597,['n'],0,left,['e'],0,0.17452140000023064,0.1,1,0,FastFast,1,17,Woman,Right,
41,12,1,0.8341388999997434,['n'],1,right,['e'],0,0.15228130000014062,0.2,0,0,FastFast,1,17,Woman,Right,
42,12,1,0.9177395999995497,['n'],1,right,['e'],0,0.07963459999973566,0.4,0,0,FastFast,1,17,Woman,Right,
43,12,1,1.0359968000002482,['n'],1,right,['e'],0,0.08526089999941178,0.2,0,0,FastFast,1,17,Woman,Right,
44,12,1,0.9991202999999587,['c'],1,left,['e'],0,0.12596160000066448,0.1,0,0,FastFast,1,17,Woman,Right,
45,12,1,1.4160544999995182,['c'],1,left,['e'],0,0.09848239999973885,0.4,0,0,FastFast,1,17,Woman,Right,
46,12,1,1.14970059999996,['c'],0,right,['e'],0,0.2753528000002916,0.1,1,0,FastFast,1,17,Woman,Right,
47,12,1,0.9326862999996592,['n'],1,right,['e'],0,0.18177120000018476,0.4,0,0,FastFast,1,17,Woman,Right,
48,12,1,1.2178958000004059,['n'],0,left,['e'],0,0.20685099999991508,0.2,1,0,FastFast,1,17,Woman,Right,
49,12,1,0.8498192999995808,['n'],1,right,['e'],0,0.10441880000053061,0.4,0,0,FastFast,1,17,Woman,Right,
50,12,1,1.0514133999995465,['n'],1,right,['e'],0,0.1409868999999162,0.1,0,0,FastFast,1,17,Woman,Right,
51,12,1,0.9657045000003563,['c'],0,right,['e'],0,0.09940709999955288,0.2,1,0,FastFast,1,17,Woman,Right,
52,12,1,1.1500685999999405,['n'],1,right,['e'],0,0.1159390999991956,0.4,0,0,FastFast,1,17,Woman,Right,
53,12,1,1.2156323999997767,['c'],0,right,['e'],0,0.0970140999997966,0.2,1,0,FastFast,1,17,Woman,Right,
54,12,1,1.332691800000248,['c'],1,left,['e'],0,0.1532563000000664,0.4,0,0,FastFast,1,17,Woman,Right,
55,12,1,1.3991230000001451,['n'],0,left,['e'],0,0.12646370000038587,0.2,1,0,FastFast,1,17,Woman,Right,
56,12,1,0.9007706000002145,['c'],1,left,['e'],0,0.120816300000115,0.1,0,0,FastFast,1,17,Woman,Right,
57,12,1,1.7336582999996608,['c'],1,left,['e'],0,0.3514390000000276,0.2,0,0,FastFast,1,17,Woman,Right,
58,12,1,1.033096199999818,['n'],1,right,['e'],0,0.15447089999997843,0.1,0,0,FastFast,1,17,Woman,Right,
59,12,1,0.8331964000008156,['n'],1,right,['e'],0,0.15090070000042033,0.4,0,0,FastFast,1,17,Woman,Right,
0,13,1,0.8324301000002379,['n'],1,right,['e'],0,0.1255981000003885,0.4,0,0,AccFast,1,17,Woman,Right,
1,13,1,0.7174168000001373,['n'],1,right,['e'],0,0.17389800000000832,0.4,0,0,AccFast,1,17,Woman,Right,
2,13,1,1.0683854999997493,['c'],1,left,['u'],1,0.19081030000052124,0.4,1,0,AccFast,1,17,Woman,Right,
3,13,1,0.9166816000006293,['c'],1,left,['e'],0,0.1970815999993647,0.2,0,0,AccFast,1,17,Woman,Right,
4,13,1,0.7663666999997076,['n'],1,right,['e'],0,0.16188190000048053,0.1,0,0,AccFast,1,17,Woman,Right,
5,13,1,0.7845080999995844,['n'],0,left,['e'],0,0.1255885999999009,0.2,1,0,AccFast,1,17,Woman,Right,
6,13,1,0.7010174000006373,['n'],1,right,['e'],0,0.12718039999981556,0.2,0,0,AccFast,1,17,Woman,Right,
7,13,1,0.8842081000002509,['c'],1,left,['e'],0,0.21767110000018874,0.1,0,0,AccFast,1,17,Woman,Right,
8,13,1,0.8838356999995085,['n'],1,right,['e'],0,0.24014549999992596,0.4,0,0,AccFast,1,17,Woman,Right,
9,13,1,0.935099999999693,['n'],1,right,['e'],0,0.08414480000010371,0.2,0,0,AccFast,1,17,Woman,Right,
10,13,1,0.9012943000006999,['n'],1,right,['e'],0,0.1426515000002837,0.1,0,0,AccFast,1,17,Woman,Right,
11,13,1,0.7342010000002119,['n'],1,right,['e'],0,0.14255100000082166,0.4,0,0,AccFast,1,17,Woman,Right,
12,13,1,0.768130100000235,['c'],1,left,['e'],0,0.15683979999994335,0.4,0,0,AccFast,1,17,Woman,Right,
13,13,1,0.7492707999999766,['n'],0,left,['e'],0,0.12468989999979385,0.1,1,0,AccFast,1,17,Woman,Right,
14,13,1,0.7180776000004698,['n'],1,right,['e'],0,0.12411189999966155,0.2,0,0,AccFast,1,17,Woman,Right,
15,13,1,0.7512384000001475,['n'],1,right,['e'],0,0.10880919999999605,0.4,0,0,AccFast,1,17,Woman,Right,
16,13,1,0.7004562000001897,['n'],1,right,['e'],0,0.11021160000018426,0.4,0,0,AccFast,1,17,Woman,Right,
17,13,1,0.6179502000004504,['c'],1,left,['e'],0,0.27582470000015746,0.4,0,0,AccFast,1,17,Woman,Right,
18,13,1,0.667333399999734,['c'],1,left,['e'],0,0.09683940000013536,0.2,0,0,AccFast,1,17,Woman,Right,
19,13,1,0.900972699999329,['n'],1,right,['e'],0,0.13926300000002811,0.1,0,0,AccFast,1,17,Woman,Right,
20,13,1,0.9848456999998234,['n'],0,left,['e'],0,0.14503249999961554,0.2,1,0,AccFast,1,17,Woman,Right,
21,13,1,0.8506888000001709,['c'],1,left,['e'],0,0.12343370000053255,0.2,0,0,AccFast,1,17,Woman,Right,
22,13,1,0.6998039999998582,['n'],1,right,['e'],0,0.1580493999999817,0.4,0,0,AccFast,1,17,Woman,Right,
23,13,1,0.8178253999994922,['n'],1,right,['e'],0,0.13688139999976556,0.4,0,0,AccFast,1,17,Woman,Right,
24,13,1,0.8344685000001846,['c'],1,left,['e'],0,0.10144950000085373,0.2,0,0,AccFast,1,17,Woman,Right,
25,13,1,0.9167205000003378,['c'],1,left,['e'],0,0.07847130000027391,0.1,0,0,AccFast,1,17,Woman,Right,
26,13,1,1.067508799999814,['c'],1,left,['e'],0,0.08271179999974265,0.2,0,0,AccFast,1,17,Woman,Right,
27,13,1,1.000802799999292,['c'],1,left,['e'],0,0.3937955999999758,0.1,0,0,AccFast,1,17,Woman,Right,
28,13,1,0.8347825000000739,['n'],1,right,['e'],0,0.1396799000003739,0.4,0,0,AccFast,1,17,Woman,Right,
29,13,1,1.2160581999996793,['n'],0,left,['e'],0,0.08963219999986904,0.1,1,0,AccFast,1,17,Woman,Right,
30,13,1,1.0855724000002738,['n'],0,left,['e'],0,0.17185040000003937,0.4,1,0,AccFast,1,17,Woman,Right,
31,13,1,1.0003452999999354,['c'],1,left,['e'],0,0.14334909999979573,0.4,0,0,AccFast,1,17,Woman,Right,
32,13,1,1.251334499999757,['n'],1,right,['e'],0,0.1384637000001021,0.4,0,0,AccFast,1,17,Woman,Right,
33,13,1,1.4511970999992627,['c'],1,left,['e'],0,0.14172460000008869,0.1,0,0,AccFast,1,17,Woman,Right,
34,13,1,1.0347273999996105,['c'],1,left,['e'],0,0.12946329999977024,0.4,0,0,AccFast,1,17,Woman,Right,
35,13,1,1.1347446999998283,['n'],0,left,['e'],0,0.1293009000000893,0.2,1,0,AccFast,1,17,Woman,Right,
36,13,1,1.184257500000058,['c'],0,right,['e'],0,0.11107160000028671,0.1,1,0,AccFast,1,17,Woman,Right,
37,13,1,1.0515694999994594,['n'],1,right,['e'],0,0.11577579999993759,0.1,0,0,AccFast,1,17,Woman,Right,
38,13,1,1.0843827999997302,['n'],1,right,['e'],0,0.11804279999978462,0.1,0,0,AccFast,1,17,Woman,Right,
39,13,1,1.2515762000002724,['c'],0,right,['e'],0,0.08171810000021651,0.2,1,0,AccFast,1,17,Woman,Right,
40,13,1,1.2673812000002727,['n'],0,left,['e'],0,0.12618519999978162,0.2,1,0,AccFast,1,17,Woman,Right,
41,13,1,0.8675916000001962,['n'],0,left,['e'],0,0.10506310000073427,0.2,1,0,AccFast,1,17,Woman,Right,
42,13,1,0.7513374999998632,['n'],1,right,['e'],0,0.1217953999994279,0.2,0,0,AccFast,1,17,Woman,Right,
43,13,1,0.9176866999996491,['n'],0,left,['e'],0,0.7224354999998468,0.2,1,0,AccFast,1,17,Woman,Right,
44,13,1,0.9348741000003429,['n'],0,left,['e'],0,0.09885419999955047,0.1,1,0,AccFast,1,17,Woman,Right,
45,13,1,0.984616200000346,['n'],0,left,['e'],0,0.09025209999981598,0.1,1,0,AccFast,1,17,Woman,Right,
46,13,1,0.9177592999994886,['n'],1,right,['e'],0,0.1003299000003608,0.1,0,0,AccFast,1,17,Woman,Right,
47,13,1,0.7997447999996439,['n'],1,right,['e'],0,0.0834285999999338,0.4,0,0,AccFast,1,17,Woman,Right,
48,13,1,1.2182725000002392,['c'],0,right,['e'],0,0.08102340000004915,0.2,1,0,AccFast,1,17,Woman,Right,
49,13,1,1.7012210000002597,['n'],1,right,['e'],0,0.26838750000024447,0.4,0,0,AccFast,1,17,Woman,Right,
50,13,1,1.3002747999998974,['c'],1,left,['e'],0,0.09643869999945309,0.1,0,0,AccFast,1,17,Woman,Right,
51,13,1,1.0497285000001284,['c'],0,right,['e'],0,0.10114900000007765,0.1,1,0,AccFast,1,17,Woman,Right,
52,13,1,0.800677899999755,['n'],1,right,['e'],0,0.11507119999987481,0.2,0,0,AccFast,1,17,Woman,Right,
53,13,1,0.8161086000000068,['n'],1,right,['e'],0,0.048025300000517746,0.4,0,0,AccFast,1,17,Woman,Right,
54,13,1,0.9509690000004412,['c'],0,right,['e'],0,0.07444660000055592,0.2,1,0,AccFast,1,17,Woman,Right,
55,13,1,2.4844037000002572,['c'],1,left,['u'],1,0.9028328000003967,0.1,1,0,AccFast,1,17,Woman,Right,
56,13,1,1.750324599999658,['n'],0,left,['e'],0,0.11150249999991502,0.1,1,0,AccFast,1,17,Woman,Right,
57,13,1,1.4001956999991307,['c'],1,left,['u'],1,0.5495783000005758,0.4,1,0,AccFast,1,17,Woman,Right,
58,13,1,1.1348563999999897,['n'],0,left,['e'],0,0.14844099999936589,0.1,1,0,AccFast,1,17,Woman,Right,
59,13,1,2.316527199999655,['n'],1,right,['e'],0,0.45323310000003403,0.2,0,0,AccFast,1,17,Woman,Right,
0,14,1,1.4167594999998983,['c'],1,left,['u'],1,0.16021420000015496,0.4,1,0,AccAcc,1,17,Woman,Right,
1,14,1,1.0513860000000932,['n'],0,left,['e'],0,0.11422880000009172,0.2,1,0,AccAcc,1,17,Woman,Right,
2,14,1,1.1511128000001918,['n'],0,left,['e'],0,0.1139074000002438,0.2,1,0,AccAcc,1,17,Woman,Right,
3,14,1,1.0511283999994703,['c'],0,right,['e'],0,0.1496925999999803,0.1,1,0,AccAcc,1,17,Woman,Right,
4,14,1,0.7514652999998361,['n'],1,right,['e'],0,0.13201400000070862,0.2,0,0,AccAcc,1,17,Woman,Right,
5,14,1,0.999746899999991,['n'],1,right,['e'],0,0.23362160000033327,0.2,0,0,AccAcc,1,17,Woman,Right,
6,14,1,1.0679129000000103,['c'],1,left,['e'],0,0.407672299999831,0.2,0,0,AccAcc,1,17,Woman,Right,
7,14,1,1.1163489999999001,['n'],1,right,['e'],0,0.142225800000233,0.4,0,0,AccAcc,1,17,Woman,Right,
8,14,1,0.8512792000001355,['n'],1,right,['e'],0,0.10436570000001666,0.4,0,0,AccAcc,1,17,Woman,Right,
9,14,1,1.1173317000002498,['c'],0,right,['e'],0,0.15501730000050884,0.2,1,0,AccAcc,1,17,Woman,Right,
10,14,1,0.9500984999995126,['c'],1,left,['u'],1,0.7047351000001072,0.4,1,0,AccAcc,1,17,Woman,Right,
11,14,1,0.9178959000000759,['n'],1,right,['e'],0,0.3383656999994855,0.4,0,0,AccAcc,1,17,Woman,Right,
12,14,1,1.100035200000093,['c'],1,left,['e'],0,0.17205660000036005,0.2,0,0,AccAcc,1,17,Woman,Right,
13,14,1,1.117817099999229,['n'],1,right,['u'],1,0.23537729999952717,0.4,1,0,AccAcc,1,17,Woman,Right,
14,14,1,1.1681704000002355,['c'],1,left,['e'],0,0.11710679999941931,0.2,0,0,AccAcc,1,17,Woman,Right,
15,14,1,0.918044000000009,['c'],1,left,['e'],0,0.14212529999986145,0.1,0,0,AccAcc,1,17,Woman,Right,
16,14,1,1.1345461999999316,['n'],0,left,['e'],0,0.1579648000006273,0.1,1,0,AccAcc,1,17,Woman,Right,
17,14,1,0.851389399999789,['n'],1,right,['e'],0,0.10434919999988779,0.1,0,0,AccAcc,1,17,Woman,Right,
18,14,1,1.4175985000001674,['c'],0,right,['e'],0,0.12591760000032082,0.1,1,0,AccAcc,1,17,Woman,Right,
19,14,1,1.1341021000007458,['n'],1,right,['e'],0,0.11073360000045795,0.2,0,0,AccAcc,1,17,Woman,Right,
20,14,1,1.233578000000307,['c'],1,left,['e'],0,0.10870060000070225,0.2,0,0,AccAcc,1,17,Woman,Right,
21,14,1,1.3350779000002149,['c'],1,left,['u'],1,0.11654940000062197,0.4,1,0,AccAcc,1,17,Woman,Right,
22,14,1,2.1511679000004733,['n'],1,right,['e'],0,0.15740869999990537,0.4,0,0,AccAcc,1,17,Woman,Right,
23,14,1,1.7179034000000684,['n'],0,left,['e'],0,0.21238379999977042,0.2,1,0,AccAcc,1,17,Woman,Right,
24,14,1,1.1182188000002498,['n'],1,right,['e'],0,0.1454396999997698,0.2,0,0,AccAcc,1,17,Woman,Right,
25,14,1,1.1323251000003438,['c'],1,left,['e'],0,0.24144129999967845,0.1,0,0,AccAcc,1,17,Woman,Right,
26,14,1,1.1163831000003483,['n'],1,right,['e'],0,0.1575233000003209,0.4,0,0,AccAcc,1,17,Woman,Right,
27,14,1,1.2676776999996946,['n'],1,right,['e'],0,0.15096170000015263,0.4,0,0,AccAcc,1,17,Woman,Right,
28,14,1,1.3845068000000538,['c'],0,right,['e'],0,0.17269670000041515,0.4,1,0,AccAcc,1,17,Woman,Right,
29,14,1,1.1347021999999924,['n'],1,right,['u'],1,0.9703991000005772,0.1,1,0,AccAcc,1,17,Woman,Right,
30,14,1,1.834343099999387,['n'],0,left,['e'],0,0.8769773000003624,0.1,1,0,AccAcc,1,17,Woman,Right,
31,14,1,1.2014557999991666,['c'],1,left,['e'],0,0.14092400000026828,0.4,0,0,AccAcc,1,17,Woman,Right,
32,14,1,1.135135999999875,['n'],1,right,['e'],0,0.12452650000068388,0.1,0,0,AccAcc,1,17,Woman,Right,
33,14,1,1.267723300000398,['n'],1,right,['e'],0,0.1357735000001412,0.2,0,0,AccAcc,1,17,Woman,Right,
34,14,1,1.7833513000005041,['c'],1,left,['e'],0,0.22186379999948258,0.1,0,0,AccAcc,1,17,Woman,Right,
35,14,1,1.8336970999998812,['n'],0,left,['e'],0,0.17430100000001403,0.1,1,0,AccAcc,1,17,Woman,Right,
36,14,1,1.600988099999995,['c'],1,left,['e'],0,0.13789149999956862,0.1,0,0,AccAcc,1,17,Woman,Right,
37,14,1,1.8334225999997216,['n'],0,left,['e'],0,0.1099991000000955,0.4,1,0,AccAcc,1,17,Woman,Right,
38,14,1,1.1339600000001155,['n'],1,right,['u'],1,0.17489980000027572,0.4,1,0,AccAcc,1,17,Woman,Right,
39,14,1,1.3177396999999473,['c'],1,left,['e'],0,0.16763869999977032,0.2,0,0,AccAcc,1,17,Woman,Right,
40,14,1,1.201592499999606,['n'],0,left,['e'],0,0.08200070000020787,0.2,1,0,AccAcc,1,17,Woman,Right,
41,14,1,1.0331968000000415,['n'],1,right,['e'],0,0.1362315000005765,0.4,0,0,AccAcc,1,17,Woman,Right,
42,14,1,1.0325112999998964,['c'],1,left,['e'],0,0.1394626999999673,0.2,0,0,AccAcc,1,17,Woman,Right,
43,14,1,1.1331301000000167,['c'],1,left,['e'],0,0.12387710000075458,0.4,0,0,AccAcc,1,17,Woman,Right,
44,14,1,1.1672609999995984,['n'],1,right,['e'],0,0.1220143000000462,0.4,0,0,AccAcc,1,17,Woman,Right,
45,14,1,1.0516887000003408,['n'],0,left,['e'],0,0.10979709999992338,0.1,1,0,AccAcc,1,17,Woman,Right,
46,14,1,1.517026900000019,['n'],1,right,['e'],0,0.1115669999999227,0.1,0,0,AccAcc,1,17,Woman,Right,
47,14,1,1.3676380000006247,['n'],1,right,['e'],0,0.1347922999993898,0.2,0,0,AccAcc,1,17,Woman,Right,
48,14,1,1.3346660999995947,['n'],0,left,['e'],0,0.09462210000037885,0.1,1,0,AccAcc,1,17,Woman,Right,
49,14,1,1.2348797999993621,['n'],1,right,['e'],0,0.17233050000049843,0.2,0,0,AccAcc,1,17,Woman,Right,
50,14,1,1.0338377999996737,['c'],1,left,['e'],0,0.11088610000024346,0.1,0,0,AccAcc,1,17,Woman,Right,
51,14,1,0.8668903999996473,['n'],1,right,['e'],0,0.10673859999951674,0.4,0,0,AccAcc,1,17,Woman,Right,
52,14,1,0.9835855999999694,['n'],1,right,['e'],0,0.06582459999935963,0.1,0,0,AccAcc,1,17,Woman,Right,
53,14,1,1.399842599999829,['n'],1,right,['e'],0,0.1375042999998186,0.2,0,0,AccAcc,1,17,Woman,Right,
54,14,1,0.8510041999998066,['n'],1,right,['e'],0,0.1324799999993047,0.4,0,0,AccAcc,1,17,Woman,Right,
55,14,1,1.184693000000152,['n'],0,left,['e'],0,0.09809010000026319,0.1,1,0,AccAcc,1,17,Woman,Right,
56,14,1,0.9846856999993179,['c'],1,left,['e'],0,0.13711240000066027,0.1,0,0,AccAcc,1,17,Woman,Right,
57,14,1,1.000522500000443,['c'],1,left,['e'],0,0.11104010000053677,0.2,0,0,AccAcc,1,17,Woman,Right,
58,14,1,1.0839271000004373,['c'],0,right,['e'],0,0.09712109999964014,0.1,1,0,AccAcc,1,17,Woman,Right,
59,14,1,1.1336503000002267,['c'],1,left,['e'],0,0.1463939000004757,0.4,0,0,AccAcc,1,17,Woman,Right,
0,15,1,0.917291099999602,['c'],1,left,['e'],0,0.1678001000000222,0.2,0,0,FastAcc,1,17,Woman,Right,
1,15,1,0.8492901000008715,['n'],0,left,['e'],0,0.11488729999928182,0.1,1,0,FastAcc,1,17,Woman,Right,
2,15,1,0.9347738999995272,['n'],1,right,['u'],1,0.5059735999993791,0.4,1,0,FastAcc,1,17,Woman,Right,
3,15,1,0.9174592999997913,['n'],0,left,['e'],0,0.11659750000035274,0.4,1,0,FastAcc,1,17,Woman,Right,
4,15,1,1.0012205000002723,['c'],1,left,['u'],1,0.1692854000002626,0.4,1,0,FastAcc,1,17,Woman,Right,
5,15,1,1.001201499999297,['n'],1,right,['e'],0,0.1250634000007267,0.2,0,0,FastAcc,1,17,Woman,Right,
6,15,1,0.9840979000000516,['n'],0,left,['e'],0,0.14731669999946462,0.1,1,0,FastAcc,1,17,Woman,Right,
7,15,1,0.9017183999994813,['n'],1,right,['u'],1,0.44392249999964406,0.4,1,0,FastAcc,1,17,Woman,Right,
8,15,1,1.2012744000003295,['c'],1,left,['u'],1,0.7971883999998681,0.4,1,0,FastAcc,1,17,Woman,Right,
9,15,1,0.6348239999997531,['n'],1,right,['u'],1,1.6381616999997277,0.1,1,0,FastAcc,1,17,Woman,Right,
10,15,1,0.71767490000002,['n'],1,right,['e'],0,1.1787431999991895,0.2,0,0,FastAcc,1,17,Woman,Right,
11,15,1,0.7832876000002216,['n'],1,right,['e'],0,1.4392500000003565,0.1,0,0,FastAcc,1,17,Woman,Right,
12,15,1,0.834736800000428,['n'],0,left,['e'],0,0.4864809000000605,0.1,1,0,FastAcc,1,17,Woman,Right,
13,15,1,1.2671585000007326,['c'],0,right,['e'],0,0.2277537999998458,0.2,1,0,FastAcc,1,17,Woman,Right,
14,15,1,1.0858677999995052,['c'],1,left,['e'],0,0.11340440000003582,0.2,0,0,FastAcc,1,17,Woman,Right,
15,15,1,1.6148166000002675,['n'],1,right,['e'],0,0.5760792000000947,0.1,0,0,FastAcc,1,17,Woman,Right,
16,15,1,0.9852936999996018,['n'],1,right,['e'],0,0.13094069999988278,0.1,0,0,FastAcc,1,17,Woman,Right,
17,15,1,1.0014235999997254,['c'],0,right,['e'],0,0.2000452000002042,0.4,1,0,FastAcc,1,17,Woman,Right,
18,15,1,1.0340131000002657,['n'],1,right,['e'],0,0.18507690000024013,0.2,0,0,FastAcc,1,17,Woman,Right,
19,15,1,1.1012042000002111,['n'],1,right,['e'],0,0.15233939999961876,0.2,0,0,FastAcc,1,17,Woman,Right,
20,15,1,0.9678446999996595,['n'],1,right,['e'],0,1.0539447000001019,0.1,0,0,FastAcc,1,17,Woman,Right,
21,15,1,0.9680889999999636,['n'],1,right,['e'],0,0.08041139999932057,0.1,0,0,FastAcc,1,17,Woman,Right,
22,15,1,1.0009714999996504,['c'],1,left,['e'],0,0.2309964999994918,0.2,0,0,FastAcc,1,17,Woman,Right,
23,15,1,0.9333687999996982,['n'],1,right,['e'],0,0.1388995999996041,0.2,0,0,FastAcc,1,17,Woman,Right,
24,15,1,1.0348497999993924,['c'],1,left,['e'],0,0.14227000000028056,0.4,0,0,FastAcc,1,17,Woman,Right,
25,15,1,0.8999931999996988,['n'],0,left,['e'],0,0.16818830000011076,0.2,1,0,FastAcc,1,17,Woman,Right,
26,15,1,1.0675398000003042,['c'],1,left,['e'],0,0.1526707000002716,0.2,0,0,FastAcc,1,17,Woman,Right,
27,15,1,0.7344184999992649,['n'],1,right,['e'],0,0.19951680000031047,0.4,0,0,FastAcc,1,17,Woman,Right,
28,15,1,1.2012614999994184,['c'],0,right,['e'],0,0.1459127999996781,0.1,1,0,FastAcc,1,17,Woman,Right,
29,15,1,0.6670702999999776,['n'],0,left,['e'],0,0.08442860000013752,0.2,1,0,FastAcc,1,17,Woman,Right,
30,15,1,1.0666633999999249,['n'],1,right,['e'],0,0.07222360000014305,0.2,0,0,FastAcc,1,17,Woman,Right,
31,15,1,0.917814599999474,['n'],1,right,['e'],0,0.2752215000000433,0.2,0,0,FastAcc,1,17,Woman,Right,
32,15,1,0.8345795000004728,['n'],1,right,['e'],0,0.5058891999997286,0.1,0,0,FastAcc,1,17,Woman,Right,
33,15,1,0.9513927000007243,['c'],0,right,['e'],0,0.25793029999931605,0.2,1,0,FastAcc,1,17,Woman,Right,
34,15,1,0.800976399999854,['c'],0,right,['e'],0,0.18640500000037719,0.1,1,0,FastAcc,1,17,Woman,Right,
35,15,1,0.900883000000249,['c'],0,right,['e'],0,0.14540180000039982,0.2,1,0,FastAcc,1,17,Woman,Right,
36,15,1,0.9847082000005685,['c'],1,left,['u'],1,0.24724089999926946,0.1,1,0,FastAcc,1,17,Woman,Right,
37,15,1,0.9179037000003518,['c'],1,left,['e'],0,0.2822739000002912,0.1,0,0,FastAcc,1,17,Woman,Right,
38,15,1,0.9348677999996653,['c'],0,right,['u'],1,1.0040066000001389,0.1,0,0,FastAcc,1,17,Woman,Right,
39,15,1,1.1011263000000326,['c'],1,left,['u'],1,1.0676838999997926,0.4,1,0,FastAcc,1,17,Woman,Right,
40,15,1,1.0512813000004826,['c'],1,left,['e'],0,0.24833750000016153,0.2,0,0,FastAcc,1,17,Woman,Right,
41,15,1,0.9502904999999373,['c'],1,left,['u'],1,0.2667177000002994,0.4,1,0,FastAcc,1,17,Woman,Right,
42,15,1,2.417625100000805,['n'],1,right,['e'],0,0.1940854999993462,0.1,0,0,FastAcc,1,17,Woman,Right,
43,15,1,1.1343157000001156,['n'],0,left,['e'],0,0.3038909999995667,0.1,1,0,FastAcc,1,17,Woman,Right,
44,15,1,0.9500634999994872,['c'],0,right,['e'],0,0.17632469999989553,0.2,1,0,FastAcc,1,17,Woman,Right,
45,15,1,1.0838125999998738,['c'],1,left,['e'],0,1.440943900000093,0.4,0,0,FastAcc,1,17,Woman,Right,
46,15,1,1.1007571999998618,['n'],1,right,['e'],0,0.17404280000027939,0.4,0,0,FastAcc,1,17,Woman,Right,
47,15,1,0.7358986000008372,['n'],1,right,['e'],0,0.2043535000002521,0.4,0,0,FastAcc,1,17,Woman,Right,
48,15,1,1.1184511999999813,['n'],1,right,['e'],0,0.20207120000031864,0.2,0,0,FastAcc,1,17,Woman,Right,
49,15,1,1.0176683999998204,['c'],1,left,['e'],0,0.3160496999998941,0.1,0,0,FastAcc,1,17,Woman,Right,
50,15,1,0.7845102000001134,['n'],0,left,['u'],1,0.33849480000026233,0.4,0,0,FastAcc,1,17,Woman,Right,
51,15,1,0.9664678999997705,['c'],1,left,['u'],1,0.20878929999980755,0.4,1,0,FastAcc,1,17,Woman,Right,
52,15,1,1.0526215999998385,['n'],0,left,['e'],0,0.12907189999987168,0.1,1,0,FastAcc,1,17,Woman,Right,
53,15,1,0.9006138999993709,['n'],0,left,['e'],0,0.12226929999997083,0.1,1,0,FastAcc,1,17,Woman,Right,
54,15,1,1.1511781999997766,['c'],1,left,['e'],0,0.4260129999993296,0.4,0,0,FastAcc,1,17,Woman,Right,
55,15,1,1.001560900000186,['n'],1,right,['u'],1,0.46780910000052245,0.4,1,0,FastAcc,1,17,Woman,Right,
56,15,1,0.9182891000000382,['c'],1,left,['u'],1,0.2709351000003153,0.4,1,0,FastAcc,1,17,Woman,Right,
57,15,1,1.0678796000001967,['c'],1,left,['e'],0,1.9159852000002502,0.4,0,0,FastAcc,1,17,Woman,Right,
58,15,1,1.1008671999998114,['c'],1,left,['e'],0,0.3900521999994453,0.2,0,0,FastAcc,1,17,Woman,Right,
59,15,1,1.0505163000007087,['c'],1,left,['e'],0,0.415183099999922,0.4,0,0,FastAcc,1,17,Woman,Right,
