withinblocktrial,block,block_repetition,rt,resp,cor,cresp,conf_press,cj,rtconf,coherence,metacognition,slow_trial,manipulation,sub,age,gender,handedness,
0,1,1,1.583099299999958,['c'],1,left,none,-99,-99,0.5,-99,0,none,10,18,Woman,Left,
1,1,1,0.5835591999998542,['c'],0,right,none,-99,-99,0.5,-99,0,none,10,18,Woman,Left,
2,1,1,0.6679644000000735,['c'],1,left,none,-99,-99,0.5,-99,0,none,10,18,Woman,Left,
3,1,1,0.48407600000018647,['n'],1,right,none,-99,-99,0.5,-99,0,none,10,18,Woman,Left,
4,1,1,0.7501389999997627,['n'],1,right,none,-99,-99,0.5,-99,0,none,10,18,Woman,Left,
5,1,1,0.8689993000002687,['n'],1,right,none,-99,-99,0.5,-99,0,none,10,18,Woman,Left,
6,1,1,0.5004650000000765,['c'],1,left,none,-99,-99,0.5,-99,0,none,10,18,Woman,Left,
7,1,1,0.48329199999989214,['n'],1,right,none,-99,-99,0.5,-99,0,none,10,18,Woman,Left,
8,1,1,0.6341717999998764,['c'],1,left,none,-99,-99,0.5,-99,0,none,10,18,Woman,Left,
9,1,1,0.7002738000001045,['c'],1,left,none,-99,-99,0.5,-99,0,none,10,18,Woman,Left,
10,1,1,0.5831223000000136,['n'],1,right,none,-99,-99,0.5,-99,0,none,10,18,Woman,Left,
11,1,1,0.5003566999998839,['c'],1,left,none,-99,-99,0.5,-99,0,none,10,18,Woman,Left,
12,1,1,0.6675006999998914,['n'],0,left,none,-99,-99,0.5,-99,0,none,10,18,Woman,Left,
13,1,1,0.5013859000000593,['c'],1,left,none,-99,-99,0.5,-99,0,none,10,18,Woman,Left,
14,1,1,0.6841438999999809,['n'],1,right,none,-99,-99,0.5,-99,0,none,10,18,Woman,Left,
15,1,1,0.45110010000007605,['c'],1,left,none,-99,-99,0.5,-99,0,none,10,18,Woman,Left,
16,1,1,0.4337174000002051,['n'],1,right,none,-99,-99,0.5,-99,0,none,10,18,Woman,Left,
17,1,1,0.6511456000002909,['n'],1,right,none,-99,-99,0.5,-99,0,none,10,18,Woman,Left,
18,1,1,0.46698220000007495,['c'],1,left,none,-99,-99,0.5,-99,0,none,10,18,Woman,Left,
19,1,1,0.33396859999993467,['n'],1,right,none,-99,-99,0.5,-99,0,none,10,18,Woman,Left,
20,1,1,0.5341343999998571,['c'],1,left,none,-99,-99,0.5,-99,0,none,10,18,Woman,Left,
21,1,1,0.4998823999999331,['c'],1,left,none,-99,-99,0.5,-99,0,none,10,18,Woman,Left,
22,1,1,0.5171257000001788,['n'],1,right,none,-99,-99,0.5,-99,0,none,10,18,Woman,Left,
23,1,1,0.7838685000001533,['n'],1,right,none,-99,-99,0.5,-99,0,none,10,18,Woman,Left,
0,2,1,0.9158717000000252,['n'],1,right,none,-99,-99,0.1,-99,0,none,10,18,Woman,Left,
1,2,1,0.666034800000034,['n'],1,right,none,-99,-99,0.4,-99,0,none,10,18,Woman,Left,
2,2,1,0.5168613000000732,['c'],1,left,none,-99,-99,0.4,-99,0,none,10,18,Woman,Left,
3,2,1,0.4671658000002026,['n'],0,left,none,-99,-99,0.1,-99,0,none,10,18,Woman,Left,
4,2,1,0.49981260000004113,['c'],0,right,none,-99,-99,0.2,-99,0,none,10,18,Woman,Left,
5,2,1,0.6179514999998901,['n'],1,right,none,-99,-99,0.2,-99,0,none,10,18,Woman,Left,
6,2,1,0.9663161999997101,['n'],0,left,none,-99,-99,0.1,-99,0,none,10,18,Woman,Left,
7,2,1,0.7005683000002136,['n'],0,left,none,-99,-99,0.1,-99,0,none,10,18,Woman,Left,
8,2,1,0.6506154999997307,['c'],1,left,none,-99,-99,0.4,-99,0,none,10,18,Woman,Left,
9,2,1,0.6662311999998565,['n'],0,left,none,-99,-99,0.2,-99,0,none,10,18,Woman,Left,
10,2,1,0.5829398000000765,['n'],1,right,none,-99,-99,0.4,-99,0,none,10,18,Woman,Left,
11,2,1,0.7842987000003632,['n'],1,right,none,-99,-99,0.2,-99,0,none,10,18,Woman,Left,
12,2,1,0.8677956999999878,['n'],0,left,none,-99,-99,0.1,-99,0,none,10,18,Woman,Left,
13,2,1,1.100792199999887,['n'],1,right,none,-99,-99,0.4,-99,0,none,10,18,Woman,Left,
14,2,1,0.7006912000001648,['n'],1,right,none,-99,-99,0.2,-99,0,none,10,18,Woman,Left,
15,2,1,0.6163109999997687,['n'],1,right,none,-99,-99,0.4,-99,0,none,10,18,Woman,Left,
16,2,1,0.733702699999867,['n'],0,left,none,-99,-99,0.2,-99,0,none,10,18,Woman,Left,
17,2,1,0.6502113999999892,['n'],1,right,none,-99,-99,0.2,-99,0,none,10,18,Woman,Left,
18,2,1,1.0505854000002728,['n'],1,right,none,-99,-99,0.1,-99,0,none,10,18,Woman,Left,
19,2,1,0.833685499999774,['c'],1,left,none,-99,-99,0.1,-99,0,none,10,18,Woman,Left,
20,2,1,0.8836108000000422,['c'],1,left,none,-99,-99,0.2,-99,0,none,10,18,Woman,Left,
21,2,1,0.6004167999999481,['c'],1,left,none,-99,-99,0.1,-99,0,none,10,18,Woman,Left,
22,2,1,0.9669583999998395,['c'],1,left,none,-99,-99,0.4,-99,0,none,10,18,Woman,Left,
23,2,1,0.6986864000000423,['n'],1,right,none,-99,-99,0.4,-99,0,none,10,18,Woman,Left,
0,3,1,1.0845180999999684,['c'],1,left,['e'],1,0.7067725000001701,0.2,1,0,none,10,18,Woman,Left,
1,3,1,0.9658851999997751,['n'],0,left,['u'],0,0.4237146999998913,0.1,1,0,none,10,18,Woman,Left,
2,3,1,1.2500734000000193,['n'],0,left,['u'],0,0.8585972000000766,0.2,1,0,none,10,18,Woman,Left,
3,3,1,0.7672243000001799,['c'],1,left,['e'],1,0.40053779999971084,0.1,1,0,none,10,18,Woman,Left,
4,3,1,1.117782299999817,['n'],0,left,['e'],1,0.36139689999981783,0.2,0,0,none,10,18,Woman,Left,
5,3,1,0.8855490000000827,['n'],1,right,['e'],1,0.22236089999978503,0.4,1,0,none,10,18,Woman,Left,
6,3,1,1.2008404999996856,['c'],0,right,['e'],1,0.25205600000026607,0.2,0,0,none,10,18,Woman,Left,
7,3,1,1.5005418999999165,['c'],1,left,['u'],0,0.3965791000000536,0.1,0,0,none,10,18,Woman,Left,
8,3,1,0.7335311000001639,['n'],0,left,['u'],0,1.3172500000000582,0.2,1,0,none,10,18,Woman,Left,
9,3,1,1.5341467999996894,['c'],0,right,['e'],1,0.20178740000028483,0.4,0,0,none,10,18,Woman,Left,
10,3,1,0.734413300000142,['c'],0,right,['e'],1,0.20253200000024663,0.1,0,0,none,10,18,Woman,Left,
11,3,1,1.8669190000000526,['n'],0,left,['u'],0,1.1662255999999616,0.1,1,0,none,10,18,Woman,Left,
12,3,1,0.8488832999996703,['c'],0,right,['e'],1,0.22915790000024572,0.1,0,0,none,10,18,Woman,Left,
13,3,1,0.6662568000001556,['c'],0,right,['e'],1,0.1841472999999496,0.4,0,0,none,10,18,Woman,Left,
14,3,1,0.8675299999999879,['n'],1,right,['u'],0,0.24432600000000093,0.4,0,0,none,10,18,Woman,Left,
15,3,1,1.0010816999997587,['n'],1,right,['e'],1,0.23325960000011037,0.2,1,0,none,10,18,Woman,Left,
16,3,1,0.8332688000000417,['n'],0,left,['e'],1,0.40489290000004985,0.2,0,0,none,10,18,Woman,Left,
17,3,1,2.3833808999997927,['c'],1,left,['u'],0,0.2838301000001593,0.1,0,0,none,10,18,Woman,Left,
18,3,1,1.1337872999997671,['c'],0,right,['e'],1,0.26544490000014775,0.4,0,0,none,10,18,Woman,Left,
19,3,1,2.0160187999999835,['c'],1,left,['u'],0,0.32472509999979593,0.2,0,0,none,10,18,Woman,Left,
20,3,1,0.6834825999999339,['c'],0,right,['u'],0,0.2279364999999416,0.4,1,0,none,10,18,Woman,Left,
21,3,1,0.8498762000003808,['c'],0,right,['e'],1,0.17434360000015658,0.4,0,0,none,10,18,Woman,Left,
22,3,1,2.8671847000000525,['n'],0,left,['u'],0,0.45847279999998136,0.1,1,0,none,10,18,Woman,Left,
23,3,1,1.1510346000000027,['c'],0,right,['e'],1,0.25676190000012866,0.4,0,0,none,10,18,Woman,Left,
0,4,1,0.5180014999996274,['c'],0,right,['e'],1,0.06408400000009351,0.4,0,0,FastFast,10,18,Woman,Left,
1,4,1,0.6004485000003115,['c'],0,right,['e'],1,0.1358818999997311,0.2,0,0,FastFast,10,18,Woman,Left,
2,4,1,0.7674334999996972,['n'],1,right,['u'],0,0.14970020000009754,0.4,0,0,FastFast,10,18,Woman,Left,
3,4,1,0.6343756000001122,['c'],0,right,['u'],0,0.12101660000007541,0.4,1,0,FastFast,10,18,Woman,Left,
4,4,1,0.7178976999998667,['c'],1,left,['e'],1,0.12189769999986311,0.4,1,0,FastFast,10,18,Woman,Left,
5,4,1,0.8671460000000479,['c'],1,left,['e'],1,0.10089449999986755,0.2,1,0,FastFast,10,18,Woman,Left,
6,4,1,0.7341448000001947,['c'],0,right,['u'],0,0.11779339999975491,0.1,1,0,FastFast,10,18,Woman,Left,
7,4,1,0.5835936999997102,['c'],1,left,['e'],1,0.1878588999998101,0.2,1,0,FastFast,10,18,Woman,Left,
8,4,1,0.7332810999996582,['n'],1,right,['u'],0,0.16984469999988505,0.1,0,0,FastFast,10,18,Woman,Left,
9,4,1,1.2342989999997371,['c'],1,left,['u'],0,0.1962922000002436,0.1,0,0,FastFast,10,18,Woman,Left,
10,4,1,0.6339274000001751,['c'],1,left,['e'],1,0.13285929999983637,0.4,1,0,FastFast,10,18,Woman,Left,
11,4,1,0.8668289000002005,['c'],0,right,['e'],1,0.1429814999996779,0.1,0,0,FastFast,10,18,Woman,Left,
12,4,1,0.6162909999998192,['n'],0,left,['u'],0,0.1479130000002442,0.4,1,0,FastFast,10,18,Woman,Left,
13,4,1,0.6343562999995811,['n'],0,left,['e'],1,0.10273469999992813,0.1,0,0,FastFast,10,18,Woman,Left,
14,4,1,0.7662107999999535,['c'],0,right,['e'],1,0.1501626999997825,0.2,0,0,FastFast,10,18,Woman,Left,
15,4,1,0.8343952999998692,['c'],1,left,['u'],0,0.1449174999997922,0.4,0,0,FastFast,10,18,Woman,Left,
16,4,1,0.9344631000003574,['n'],0,left,['u'],0,0.1844850000002225,0.1,1,0,FastFast,10,18,Woman,Left,
17,4,1,0.9338446000001568,['c'],1,left,['u'],0,0.14181450000023688,0.4,0,0,FastFast,10,18,Woman,Left,
18,4,1,1.1163510999999744,['c'],0,right,['u'],0,0.09499189999996815,0.1,1,0,FastFast,10,18,Woman,Left,
19,4,1,0.7179136999998263,['n'],1,right,['u'],0,0.1928288999997676,0.2,0,0,FastFast,10,18,Woman,Left,
20,4,1,1.0174221000002035,['n'],0,left,['u'],0,0.14700859999993554,0.1,1,0,FastFast,10,18,Woman,Left,
21,4,1,0.5674552000000403,['c'],1,left,['u'],0,0.18469909999976153,0.4,0,0,FastFast,10,18,Woman,Left,
22,4,1,0.7168763999998191,['c'],1,left,['e'],1,0.13514460000033068,0.2,1,0,FastFast,10,18,Woman,Left,
23,4,1,0.8168519999999262,['c'],1,left,['u'],0,0.14765760000000228,0.1,0,0,FastFast,10,18,Woman,Left,
24,4,1,0.9827978999996958,['c'],0,right,['e'],1,0.12150810000002821,0.1,0,0,FastFast,10,18,Woman,Left,
25,4,1,0.9167608999996446,['c'],0,right,['u'],0,0.5464011999997638,0.2,1,0,FastFast,10,18,Woman,Left,
26,4,1,0.9841197000000648,['c'],1,left,['e'],1,0.1671107999995911,0.4,1,0,FastFast,10,18,Woman,Left,
27,4,1,0.5995733999998265,['n'],1,right,['u'],0,0.20311219999985042,0.4,0,0,FastFast,10,18,Woman,Left,
28,4,1,0.9668904999998631,['n'],1,right,['e'],1,0.15772440000000643,0.4,1,0,FastFast,10,18,Woman,Left,
29,4,1,0.8173855000000003,['n'],0,left,['e'],1,0.105239999999867,0.1,0,0,FastFast,10,18,Woman,Left,
30,4,1,0.6488821999996617,['n'],1,right,['e'],1,0.12694280000005165,0.1,1,0,FastFast,10,18,Woman,Left,
31,4,1,0.9666942999997445,['n'],1,right,['e'],1,0.14938489999985904,0.2,1,0,FastFast,10,18,Woman,Left,
32,4,1,0.800761699999839,['n'],1,right,['e'],1,0.17709199999990233,0.1,1,0,FastFast,10,18,Woman,Left,
33,4,1,0.7004191999999421,['c'],1,left,['e'],1,0.20855040000014924,0.4,1,0,FastFast,10,18,Woman,Left,
34,4,1,0.9011683999997331,['c'],1,left,['e'],1,0.16669999999976426,0.4,1,0,FastFast,10,18,Woman,Left,
35,4,1,1.1009798999998566,['n'],1,right,['e'],1,0.135170399999879,0.2,1,0,FastFast,10,18,Woman,Left,
36,4,1,0.9338736999998218,['c'],0,right,['e'],1,0.22202980000020034,0.1,0,0,FastFast,10,18,Woman,Left,
37,4,1,0.8012870000002295,['n'],0,left,['e'],1,0.43989239999973506,0.2,0,0,FastFast,10,18,Woman,Left,
38,4,1,0.7004335999999967,['n'],1,right,['e'],1,0.2206372000000556,0.1,1,0,FastFast,10,18,Woman,Left,
39,4,1,0.784473799999887,['c'],1,left,['e'],1,0.11896000000024287,0.4,1,0,FastFast,10,18,Woman,Left,
40,4,1,0.884128299999702,['n'],1,right,['e'],1,0.14568019999978787,0.1,1,0,FastFast,10,18,Woman,Left,
41,4,1,0.6177599999996346,['n'],1,right,['e'],1,0.22925489999988713,0.2,1,0,FastFast,10,18,Woman,Left,
42,4,1,0.6335880000001453,['n'],0,left,['e'],1,0.1487702999997964,0.1,0,0,FastFast,10,18,Woman,Left,
43,4,1,0.7334106999996948,['n'],0,left,['e'],1,0.2600764000003437,0.1,0,0,FastFast,10,18,Woman,Left,
44,4,1,1.1004157000002124,['n'],0,left,['e'],1,0.4003726999999344,0.4,0,0,FastFast,10,18,Woman,Left,
45,4,1,2.284080500000073,['c'],0,right,['u'],0,0.39101609999988796,0.2,1,0,FastFast,10,18,Woman,Left,
46,4,1,0.7346833999999944,['c'],1,left,['u'],0,0.1891379999997298,0.2,0,0,FastFast,10,18,Woman,Left,
47,4,1,0.8003915999997844,['c'],1,left,['e'],1,0.15188320000015665,0.2,1,0,FastFast,10,18,Woman,Left,
48,4,1,1.5675796000000446,['c'],1,left,['u'],0,0.1018432999999277,0.2,0,0,FastFast,10,18,Woman,Left,
49,4,1,0.6667896000003566,['c'],1,left,['u'],0,0.12148510000042734,0.4,0,0,FastFast,10,18,Woman,Left,
50,4,1,0.4834693000002517,['c'],0,right,['e'],1,0.0835623999996642,0.2,0,0,FastFast,10,18,Woman,Left,
51,4,1,0.9173396000001048,['c'],1,left,['u'],0,0.7655083999998169,0.1,0,0,FastFast,10,18,Woman,Left,
52,4,1,0.7843421000002309,['c'],1,left,['u'],0,0.09828830000014932,0.4,0,0,FastFast,10,18,Woman,Left,
53,4,1,0.9497512999996616,['c'],0,right,['e'],1,0.10671279999996841,0.2,0,0,FastFast,10,18,Woman,Left,
54,4,1,1.4663919999998143,['n'],1,right,['u'],0,0.09409599999980856,0.4,0,0,FastFast,10,18,Woman,Left,
55,4,1,1.116552099999808,['n'],1,right,['u'],0,1.632807099999809,0.1,0,0,FastFast,10,18,Woman,Left,
56,4,1,1.267099700000017,['n'],1,right,['u'],0,0.27074240000001737,0.2,0,0,FastFast,10,18,Woman,Left,
57,4,1,1.066286300000229,['c'],0,right,['e'],1,0.01224629999978788,0.2,0,0,FastFast,10,18,Woman,Left,
58,4,1,0.8995365000000675,['c'],0,right,['e'],1,0.058065199999873585,0.2,0,0,FastFast,10,18,Woman,Left,
59,4,1,0.8511763000001338,['c'],1,left,['e'],1,0.10361409999995885,0.4,1,0,FastFast,10,18,Woman,Left,
0,5,1,1.4668392999997195,['c'],1,left,['e'],1,0.12101440000014918,0.1,1,0,AccFast,10,18,Woman,Left,
1,5,1,1.25004540000009,['n'],0,left,['e'],1,0.148950700000114,0.1,0,0,AccFast,10,18,Woman,Left,
2,5,1,1.3164013000000523,['c'],1,left,['e'],1,0.14095150000002832,0.2,1,0,AccFast,10,18,Woman,Left,
3,5,1,3.8339076999995996,['n'],1,right,['u'],0,0.12862420000010388,0.1,0,0,AccFast,10,18,Woman,Left,
4,5,1,1.7339253000000099,['c'],1,left,['u'],0,0.13712050000003728,0.2,0,0,AccFast,10,18,Woman,Left,
5,5,1,0.9673370000000432,['c'],0,right,['e'],1,0.06340300000010757,0.1,0,0,AccFast,10,18,Woman,Left,
6,5,1,2.232715499999813,['n'],1,right,['u'],0,0.08605820000002495,0.1,0,0,AccFast,10,18,Woman,Left,
7,5,1,1.067337899999984,['c'],0,right,['u'],0,0.1378577000000405,0.4,1,0,AccFast,10,18,Woman,Left,
8,5,1,2.266756799999712,['n'],1,right,['e'],1,0.3805919999999787,0.1,1,0,AccFast,10,18,Woman,Left,
9,5,1,1.2173831000000064,['n'],0,left,['e'],1,0.1745813000002272,0.1,0,0,AccFast,10,18,Woman,Left,
10,5,1,0.8011074999999437,['n'],1,right,['e'],1,0.15454090000002907,0.4,1,0,AccFast,10,18,Woman,Left,
11,5,1,1.001146399999925,['n'],1,right,['e'],1,0.2066346000001431,0.4,1,0,AccFast,10,18,Woman,Left,
12,5,1,1.6507818999998563,['n'],0,left,['e'],1,0.24712719999979527,0.2,0,0,AccFast,10,18,Woman,Left,
13,5,1,0.9675857000001997,['c'],1,left,['e'],1,0.42476369999985764,0.4,1,0,AccFast,10,18,Woman,Left,
14,5,1,1.2491303000001608,['n'],1,right,['e'],1,0.2171238999999332,0.2,1,0,AccFast,10,18,Woman,Left,
15,5,1,1.001861799999915,['n'],1,right,['e'],1,0.2823124999999891,0.4,1,0,AccFast,10,18,Woman,Left,
16,5,1,1.5009996999997384,['n'],0,left,['e'],1,0.7733496000000741,0.2,0,0,AccFast,10,18,Woman,Left,
17,5,1,0.8343835999999101,['n'],1,right,['u'],0,0.1196565999998711,0.4,0,0,AccFast,10,18,Woman,Left,
18,5,1,1.5507521999998062,['n'],0,left,['u'],0,0.13535739999997531,0.2,1,0,AccFast,10,18,Woman,Left,
19,5,1,0.9668031000001065,['n'],1,right,['e'],1,0.17369259999986753,0.4,1,0,AccFast,10,18,Woman,Left,
20,5,1,1.6334074999999757,['c'],1,left,['u'],0,0.6329390000000785,0.2,0,0,AccFast,10,18,Woman,Left,
21,5,1,0.8836403999998765,['c'],0,right,['u'],0,0.1588040000001456,0.4,1,0,AccFast,10,18,Woman,Left,
22,5,1,0.6830740000000333,['n'],1,right,['e'],1,0.20791629999985162,0.4,1,0,AccFast,10,18,Woman,Left,
23,5,1,1.1664160999998785,['n'],1,right,['e'],1,0.20348100000001068,0.2,1,0,AccFast,10,18,Woman,Left,
24,5,1,1.7825361999998677,['c'],0,right,['u'],0,0.23848259999977017,0.1,1,0,AccFast,10,18,Woman,Left,
25,5,1,0.9501406999997926,['n'],0,left,['e'],1,0.09776120000014998,0.2,0,0,AccFast,10,18,Woman,Left,
26,5,1,0.8669154999997772,['n'],0,left,['e'],1,0.17230889999973442,0.2,0,0,AccFast,10,18,Woman,Left,
27,5,1,1.5168831999999384,['n'],1,right,['u'],0,0.28363230000013573,0.1,0,0,AccFast,10,18,Woman,Left,
28,5,1,0.9163343000000168,['n'],0,left,['u'],0,0.11083610000014232,0.2,1,0,AccFast,10,18,Woman,Left,
29,5,1,1.4830340000003162,['n'],0,left,['u'],0,0.20961929999975837,0.1,1,0,AccFast,10,18,Woman,Left,
30,5,1,1.6495009999998729,['c'],1,left,['u'],0,0.17011849999971673,0.4,0,0,AccFast,10,18,Woman,Left,
31,5,1,1.1501048000000083,['n'],1,right,['e'],1,0.21568149999984598,0.2,1,0,AccFast,10,18,Woman,Left,
32,5,1,0.9337774000000536,['n'],1,right,['e'],1,0.18814470000006622,0.2,1,0,AccFast,10,18,Woman,Left,
33,5,1,0.7500483000003442,['n'],0,left,['e'],1,0.12118229999987307,0.1,0,0,AccFast,10,18,Woman,Left,
34,5,1,0.9507770999998684,['n'],0,left,['e'],1,0.28866459999971994,0.2,0,0,AccFast,10,18,Woman,Left,
35,5,1,1.199539800000366,['n'],0,left,['e'],1,0.2477324999999837,0.2,0,0,AccFast,10,18,Woman,Left,
36,5,1,0.8501980000000913,['n'],0,left,['e'],1,0.3821324000000459,0.4,0,0,AccFast,10,18,Woman,Left,
37,5,1,3.083105700000033,['n'],1,right,['e'],1,0.27794200000016644,0.4,1,0,AccFast,10,18,Woman,Left,
38,5,1,1.8675424999996721,['n'],0,left,['e'],1,0.25923199999988356,0.4,0,0,AccFast,10,18,Woman,Left,
39,5,1,1.115886699999919,['c'],1,left,['e'],1,0.5269521999998688,0.4,1,0,AccFast,10,18,Woman,Left,
40,5,1,0.9999851000002309,['n'],1,right,['e'],1,0.2123850000002676,0.4,1,0,AccFast,10,18,Woman,Left,
41,5,1,0.7830116000000089,['c'],1,left,['u'],0,0.23936529999991762,0.2,0,0,AccFast,10,18,Woman,Left,
42,5,1,1.3674667999998746,['n'],1,right,['u'],0,0.30586100000027727,0.1,0,0,AccFast,10,18,Woman,Left,
43,5,1,0.7832957999999053,['n'],1,right,['e'],1,0.21659829999998692,0.4,1,0,AccFast,10,18,Woman,Left,
44,5,1,1.6985815999996703,['c'],0,right,['u'],0,0.3186046000000715,0.2,1,0,AccFast,10,18,Woman,Left,
45,5,1,0.9334710000002815,['n'],0,left,['e'],1,0.2389805000002525,0.2,0,0,AccFast,10,18,Woman,Left,
46,5,1,2.183624900000268,['n'],0,left,['u'],0,0.144683200000145,0.1,1,0,AccFast,10,18,Woman,Left,
47,5,1,0.7000925000002098,['n'],1,right,['e'],1,0.24177190000000337,0.4,1,0,AccFast,10,18,Woman,Left,
48,5,1,0.7658118999997896,['c'],1,left,['e'],1,0.26813670000001366,0.1,1,0,AccFast,10,18,Woman,Left,
49,5,1,0.8166842000000543,['c'],1,left,['e'],1,0.22707320000017717,0.4,1,0,AccFast,10,18,Woman,Left,
50,5,1,1.2006790999998884,['c'],1,left,['e'],1,0.3006959000003917,0.1,1,0,AccFast,10,18,Woman,Left,
51,5,1,0.9009190000001581,['n'],1,right,['e'],1,0.4630062999999609,0.2,1,0,AccFast,10,18,Woman,Left,
52,5,1,0.9337717999997039,['n'],1,right,['e'],1,0.32936110000036933,0.4,1,0,AccFast,10,18,Woman,Left,
53,5,1,1.1513624999997774,['n'],1,right,['e'],1,0.3201797000001534,0.2,1,0,AccFast,10,18,Woman,Left,
54,5,1,2.600052200000391,['c'],0,right,['u'],0,0.2066410000002179,0.1,1,0,AccFast,10,18,Woman,Left,
55,5,1,2.3508113000002595,['n'],0,left,['u'],0,0.25031940000008035,0.1,1,0,AccFast,10,18,Woman,Left,
56,5,1,2.066802800000005,['n'],1,right,['u'],0,0.1603199000001041,0.1,0,0,AccFast,10,18,Woman,Left,
57,5,1,1.2168916000000536,['n'],1,right,['u'],0,0.2680021000001034,0.1,0,0,AccFast,10,18,Woman,Left,
58,5,1,0.783444099999997,['c'],1,left,['e'],1,0.2922595000000001,0.4,1,0,AccFast,10,18,Woman,Left,
59,5,1,2.3166943999999603,['n'],0,left,['u'],0,0.1587217999999666,0.1,1,0,AccFast,10,18,Woman,Left,
0,6,1,1.1994582000002083,['n'],1,right,['e'],1,1.151423600000271,0.4,1,0,AccAcc,10,18,Woman,Left,
1,6,1,1.9004522999998699,['n'],0,left,['u'],0,1.687585599999693,0.1,1,0,AccAcc,10,18,Woman,Left,
2,6,1,2.301173700000163,['n'],1,right,['e'],1,1.7707000000000335,0.4,1,0,AccAcc,10,18,Woman,Left,
3,6,1,1.6672725999997056,['c'],1,left,['u'],0,2.5638607999999294,0.4,0,0,AccAcc,10,18,Woman,Left,
4,6,1,3.999989199999618,['n'],1,right,['e'],1,1.568855700000313,0.4,1,0,AccAcc,10,18,Woman,Left,
5,6,1,1.8009316999996372,['n'],1,right,['e'],1,1.4844599000002745,0.2,1,0,AccAcc,10,18,Woman,Left,
6,6,1,4.766808800000035,['c'],1,left,['u'],0,0.6780383000000256,0.2,0,0,AccAcc,10,18,Woman,Left,
7,6,1,2.0003492999999253,['n'],0,left,['e'],1,1.9972767999997814,0.1,0,0,AccAcc,10,18,Woman,Left,
8,6,1,3.133474600000227,['n'],1,right,['u'],0,2.243074699999852,0.2,0,0,AccAcc,10,18,Woman,Left,
9,6,1,2.3168948000002274,['n'],1,right,['u'],0,1.2632814999997208,0.1,0,0,AccAcc,10,18,Woman,Left,
10,6,1,2.0337658000003103,['n'],1,right,['u'],0,1.4220522000000528,0.2,0,0,AccAcc,10,18,Woman,Left,
11,6,1,1.434547300000304,['c'],1,left,['e'],1,1.166431100000409,0.4,1,0,AccAcc,10,18,Woman,Left,
12,6,1,3.982460899999751,['n'],0,left,['u'],0,1.0284311999998863,0.2,1,0,AccAcc,10,18,Woman,Left,
13,6,1,1.2663630999995803,['n'],1,right,['e'],1,1.0828567000003204,0.2,1,0,AccAcc,10,18,Woman,Left,
14,6,1,3.4006773999999496,['n'],0,left,['u'],0,1.018225799999982,0.1,1,0,AccAcc,10,18,Woman,Left,
15,6,1,2.5500252000001637,['n'],0,left,['u'],0,1.0224183999998786,0.1,1,0,AccAcc,10,18,Woman,Left,
16,6,1,1.3514832000000752,['c'],1,left,['e'],1,1.0418447000001834,0.4,1,0,AccAcc,10,18,Woman,Left,
17,6,1,3.55087500000036,['n'],1,right,['u'],0,0.9410415000002104,0.1,0,0,AccAcc,10,18,Woman,Left,
18,6,1,1.9174776999998357,['n'],1,right,['u'],0,1.8056252999999742,0.1,0,0,AccAcc,10,18,Woman,Left,
19,6,1,2.517444500000238,['n'],0,left,['u'],0,1.5238408999998683,0.2,1,0,AccAcc,10,18,Woman,Left,
20,6,1,2.850455000000238,['n'],0,left,['u'],0,1.6559132000002137,0.1,1,0,AccAcc,10,18,Woman,Left,
21,6,1,2.3499723999998423,['n'],1,right,['u'],0,0.9227522999999564,0.1,0,0,AccAcc,10,18,Woman,Left,
22,6,1,1.950757799999792,['n'],1,right,['u'],0,1.1308152999999947,0.4,0,0,AccAcc,10,18,Woman,Left,
23,6,1,1.2674933999996938,['c'],1,left,['e'],1,1.0373316999998679,0.4,1,0,AccAcc,10,18,Woman,Left,
24,6,1,3.349178800000118,['c'],1,left,['u'],0,0.7216530999999122,0.2,0,0,AccAcc,10,18,Woman,Left,
25,6,1,3.5663465999996333,['n'],0,left,['u'],0,1.5773494999998547,0.1,1,0,AccAcc,10,18,Woman,Left,
26,6,1,4.100745000000188,['c'],1,left,['u'],0,1.5771064999998998,0.1,0,0,AccAcc,10,18,Woman,Left,
27,6,1,1.1510996000001796,['c'],1,left,['e'],1,0.9903810000000703,0.4,1,0,AccAcc,10,18,Woman,Left,
28,6,1,2.1995538000001034,['n'],1,right,['e'],1,1.0423495000000003,0.2,1,0,AccAcc,10,18,Woman,Left,
29,6,1,2.767059999999674,['c'],1,left,['e'],1,0.636620899999798,0.2,1,0,AccAcc,10,18,Woman,Left,
30,6,1,2.2176675999999134,['c'],1,left,['u'],0,0.6851117000001068,0.1,0,0,AccAcc,10,18,Woman,Left,
31,6,1,1.3003360999996403,['c'],1,left,['e'],1,0.5283651999998256,0.4,1,0,AccAcc,10,18,Woman,Left,
32,6,1,2.1674471999999696,['n'],1,right,['u'],0,0.8076806000003671,0.2,0,0,AccAcc,10,18,Woman,Left,
33,6,1,0.8505168000001504,['c'],1,left,['e'],1,1.0642134000004262,0.4,1,0,AccAcc,10,18,Woman,Left,
34,6,1,1.7674424999995608,['n'],1,right,['u'],0,0.9213431999996828,0.2,0,0,AccAcc,10,18,Woman,Left,
35,6,1,1.4167921000002934,['n'],1,right,['e'],1,0.9110623000001397,0.4,1,0,AccAcc,10,18,Woman,Left,
36,6,1,1.1504667999997764,['c'],1,left,['e'],1,1.0073123000001942,0.4,1,0,AccAcc,10,18,Woman,Left,
37,6,1,1.3168910999997934,['n'],1,right,['e'],1,1.0607519999998658,0.2,1,0,AccAcc,10,18,Woman,Left,
38,6,1,1.182531200000085,['c'],1,left,['e'],1,1.0869902999997976,0.4,1,0,AccAcc,10,18,Woman,Left,
39,6,1,1.717579200000273,['n'],1,right,['u'],0,1.008761399999912,0.2,0,0,AccAcc,10,18,Woman,Left,
40,6,1,1.2350510000001123,['c'],1,left,['e'],1,1.33792319999975,0.2,1,0,AccAcc,10,18,Woman,Left,
41,6,1,1.9012722000002213,['n'],1,right,['u'],0,1.9153328000002148,0.1,0,0,AccAcc,10,18,Woman,Left,
42,6,1,1.8841449999999895,['n'],1,right,['e'],1,2.1820496999998795,0.4,1,0,AccAcc,10,18,Woman,Left,
43,6,1,2.500167000000147,['n'],0,left,['u'],0,1.1978914999999688,0.4,1,0,AccAcc,10,18,Woman,Left,
44,6,1,1.4675301000002037,['n'],1,right,['u'],0,1.5734734999996363,0.4,0,0,AccAcc,10,18,Woman,Left,
45,6,1,2.783479599999737,['n'],1,right,['u'],0,1.2431835000002138,0.2,0,0,AccAcc,10,18,Woman,Left,
46,6,1,1.4842909000003601,['n'],1,right,['u'],0,1.1844210999997813,0.4,0,0,AccAcc,10,18,Woman,Left,
47,6,1,2.8500794999999925,['c'],1,left,['u'],0,1.7466425000002346,0.1,0,0,AccAcc,10,18,Woman,Left,
48,6,1,2.1494136000001163,['c'],1,left,['u'],0,1.0340050999998311,0.1,0,0,AccAcc,10,18,Woman,Left,
49,6,1,2.066153299999769,['n'],1,right,['u'],0,1.0070266000002448,0.1,0,0,AccAcc,10,18,Woman,Left,
50,6,1,2.45000489999984,['n'],0,left,['u'],0,0.7758345000002009,0.2,1,0,AccAcc,10,18,Woman,Left,
51,6,1,2.0336170999999013,['n'],1,right,['e'],1,1.0345099000001028,0.2,1,0,AccAcc,10,18,Woman,Left,
52,6,1,3.3334976000001006,['n'],1,right,['u'],0,0.9103590999998232,0.1,0,0,AccAcc,10,18,Woman,Left,
53,6,1,3.249264999999923,['n'],1,right,['u'],0,0.9710609999997359,0.1,0,0,AccAcc,10,18,Woman,Left,
54,6,1,1.0838874999999462,['n'],1,right,['e'],1,0.8757646999997633,0.4,1,0,AccAcc,10,18,Woman,Left,
55,6,1,1.4675444999998035,['c'],1,left,['e'],1,1.4890338999998676,0.2,1,0,AccAcc,10,18,Woman,Left,
56,6,1,2.5505330999999387,['c'],0,right,['u'],0,1.7303831999997783,0.1,1,0,AccAcc,10,18,Woman,Left,
57,6,1,1.8675657999997384,['n'],0,left,['u'],0,1.8775095000000874,0.2,1,0,AccAcc,10,18,Woman,Left,
58,6,1,1.2669691999999486,['c'],0,right,['e'],1,1.4506790000000365,0.1,0,0,AccAcc,10,18,Woman,Left,
59,6,1,1.0498964999997042,['c'],1,left,['e'],1,0.9210844999997789,0.4,1,0,AccAcc,10,18,Woman,Left,
0,7,1,0.5173362000000452,['c'],1,left,['e'],1,1.9751479999999901,0.2,1,0,FastAcc,10,18,Woman,Left,
1,7,1,0.5832162000001517,['n'],1,right,['e'],1,0.7401522000000114,0.4,1,0,FastAcc,10,18,Woman,Left,
2,7,1,1.484453499999745,['n'],1,right,['e'],1,3.517873800000416,0.2,1,0,FastAcc,10,18,Woman,Left,
3,7,1,0.46761030000016035,['n'],1,right,['e'],1,2.0331833999998707,0.2,1,0,FastAcc,10,18,Woman,Left,
4,7,1,0.46686810000028345,['c'],0,right,['u'],0,1.5517264000000068,0.4,1,0,FastAcc,10,18,Woman,Left,
5,7,1,0.7013000000001739,['c'],1,left,['e'],1,2.119948900000054,0.4,1,0,FastAcc,10,18,Woman,Left,
6,7,1,0.4509728999996696,['n'],1,right,['e'],1,2.5160820000000967,0.2,1,0,FastAcc,10,18,Woman,Left,
7,7,1,0.8006157999998322,['n'],1,right,['e'],1,1.794489700000213,0.2,1,0,FastAcc,10,18,Woman,Left,
8,7,1,0.40047869999989416,['n'],0,left,['u'],0,1.6772980000000643,0.1,1,0,FastAcc,10,18,Woman,Left,
9,7,1,0.4832169999999678,['c'],0,right,['u'],0,1.929954799999905,0.2,1,0,FastAcc,10,18,Woman,Left,
10,7,1,0.6172281999997722,['n'],1,right,['u'],0,2.582293800000116,0.1,0,0,FastAcc,10,18,Woman,Left,
11,7,1,1.716368500000499,['n'],1,right,['u'],0,4.045389400000204,0.1,0,0,FastAcc,10,18,Woman,Left,
12,7,1,0.7836332000006223,['c'],0,right,['u'],0,1.5346984999996494,0.1,1,0,FastAcc,10,18,Woman,Left,
13,7,1,0.4502984999999171,['c'],1,left,['u'],0,1.361727499999688,0.1,0,0,FastAcc,10,18,Woman,Left,
14,7,1,0.4664579000000231,['c'],1,left,['e'],1,2.139381900000444,0.4,1,0,FastAcc,10,18,Woman,Left,
15,7,1,0.4177338999998028,['n'],0,left,['u'],0,1.7201891000004252,0.2,1,0,FastAcc,10,18,Woman,Left,
16,7,1,0.45045500000014727,['c'],0,right,['u'],0,1.8277398999998695,0.2,1,0,FastAcc,10,18,Woman,Left,
17,7,1,0.5502501999999367,['n'],1,right,['e'],1,1.6077135000005,0.2,1,0,FastAcc,10,18,Woman,Left,
18,7,1,0.6841444000001502,['c'],1,left,['e'],1,1.8063326999999845,0.4,1,0,FastAcc,10,18,Woman,Left,
19,7,1,0.45086559999981546,['n'],0,left,['u'],0,1.702892399999655,0.2,1,0,FastAcc,10,18,Woman,Left,
20,7,1,0.38377740000032645,['c'],0,right,['u'],0,1.4143825000001016,0.2,1,0,FastAcc,10,18,Woman,Left,
21,7,1,0.5008883000000424,['n'],1,right,['e'],1,1.483948000000055,0.4,1,0,FastAcc,10,18,Woman,Left,
22,7,1,0.4167331999997259,['n'],1,right,['e'],1,1.4427591000003304,0.2,1,0,FastAcc,10,18,Woman,Left,
23,7,1,0.5161981000001106,['n'],1,right,['e'],1,1.734988500000327,0.4,1,0,FastAcc,10,18,Woman,Left,
24,7,1,0.38411750000068423,['n'],0,left,['u'],0,2.1812066000002233,0.1,1,0,FastAcc,10,18,Woman,Left,
25,7,1,0.63401629999953,['n'],1,right,['e'],1,1.958804500000042,0.1,1,0,FastAcc,10,18,Woman,Left,
26,7,1,0.7173224999996819,['c'],1,left,['u'],0,1.5667868999998973,0.2,0,0,FastAcc,10,18,Woman,Left,
27,7,1,0.5008849999994709,['c'],1,left,['e'],1,1.599230400000124,0.4,1,0,FastAcc,10,18,Woman,Left,
28,7,1,0.8335286000001361,['c'],0,right,['u'],0,1.6157180999998673,0.1,1,0,FastAcc,10,18,Woman,Left,
29,7,1,0.7342765000003055,['n'],1,right,['u'],0,1.668132400000104,0.1,0,0,FastAcc,10,18,Woman,Left,
30,7,1,0.8342114999995829,['c'],1,left,['u'],0,3.027256000000307,0.1,0,0,FastAcc,10,18,Woman,Left,
31,7,1,0.6668140000001586,['c'],1,left,['e'],1,1.2190270000000965,0.4,1,0,FastAcc,10,18,Woman,Left,
32,7,1,0.732633700000406,['c'],1,left,['u'],0,1.0478463999997985,0.2,0,0,FastAcc,10,18,Woman,Left,
33,7,1,0.6171144999998432,['c'],0,right,['u'],0,1.2229602999996132,0.4,1,0,FastAcc,10,18,Woman,Left,
34,7,1,0.9679227000005994,['c'],1,left,['u'],0,2.002233299999716,0.4,0,0,FastAcc,10,18,Woman,Left,
35,7,1,0.8009896999992634,['c'],1,left,['u'],0,1.6521393000002718,0.1,0,0,FastAcc,10,18,Woman,Left,
36,7,1,0.5846075999997993,['n'],0,left,['u'],0,1.6613672000003135,0.4,1,0,FastAcc,10,18,Woman,Left,
37,7,1,0.6171494000000166,['c'],0,right,['u'],0,1.5257655000004888,0.1,1,0,FastAcc,10,18,Woman,Left,
38,7,1,0.9006101999993916,['c'],1,left,['e'],1,1.4791371000001163,0.4,1,0,FastAcc,10,18,Woman,Left,
39,7,1,0.7342661999991833,['n'],0,left,['u'],0,1.3131357000002026,0.1,1,0,FastAcc,10,18,Woman,Left,
40,7,1,0.6674175999996805,['n'],1,right,['e'],1,1.3165198999995482,0.4,1,0,FastAcc,10,18,Woman,Left,
41,7,1,0.7008458000000246,['n'],0,left,['u'],0,1.4148787999993147,0.1,1,0,FastAcc,10,18,Woman,Left,
42,7,1,0.6504578000003676,['n'],0,left,['u'],0,1.1738362999994933,0.2,1,0,FastAcc,10,18,Woman,Left,
43,7,1,0.50094529999933,['c'],1,left,['e'],1,1.8615622000006624,0.1,1,0,FastAcc,10,18,Woman,Left,
44,7,1,0.5161914000000252,['n'],1,right,['e'],1,1.7691797000006773,0.1,1,0,FastAcc,10,18,Woman,Left,
45,7,1,0.6002157000002626,['c'],1,left,['e'],1,1.196770700000343,0.4,1,0,FastAcc,10,18,Woman,Left,
46,7,1,0.6340577999999368,['n'],1,right,['e'],1,1.5899419999996098,0.2,1,0,FastAcc,10,18,Woman,Left,
47,7,1,0.6667262000000846,['n'],1,right,['e'],1,1.4866890000002968,0.2,1,0,FastAcc,10,18,Woman,Left,
48,7,1,0.550152299999354,['c'],1,left,['e'],1,1.6477211000001262,0.4,1,0,FastAcc,10,18,Woman,Left,
49,7,1,0.5340163000000757,['n'],0,left,['e'],1,2.4108815999998114,0.1,0,0,FastAcc,10,18,Woman,Left,
50,7,1,0.3680682000003799,['n'],0,left,['u'],0,1.2148816000008082,0.4,1,0,FastAcc,10,18,Woman,Left,
51,7,1,0.9169900999995662,['n'],0,left,['u'],0,2.251974199999495,0.2,1,0,FastAcc,10,18,Woman,Left,
52,7,1,0.7840136999993774,['n'],1,right,['e'],1,1.7493172000004051,0.2,1,0,FastAcc,10,18,Woman,Left,
53,7,1,0.8171540000003006,['c'],1,left,['e'],1,1.3930828000002293,0.4,1,0,FastAcc,10,18,Woman,Left,
54,7,1,0.48394559999997,['n'],1,right,['e'],1,2.0573991999999635,0.1,1,0,FastAcc,10,18,Woman,Left,
55,7,1,0.4674957999995968,['c'],0,right,['u'],0,1.158681500000057,0.4,1,0,FastAcc,10,18,Woman,Left,
56,7,1,0.6003147000001263,['c'],1,left,['e'],1,1.5552940000006856,0.4,1,0,FastAcc,10,18,Woman,Left,
57,7,1,0.666687599999932,['n'],1,right,['e'],1,1.5335599999998522,0.2,1,0,FastAcc,10,18,Woman,Left,
58,7,1,0.4174166000002515,['n'],0,left,['u'],0,1.2657793999997011,0.1,1,0,FastAcc,10,18,Woman,Left,
59,7,1,0.6674759000006816,['n'],1,right,['u'],0,1.4309047000006103,0.1,0,0,FastAcc,10,18,Woman,Left,
0,8,1,0.8833139000007577,['c'],0,right,['e'],1,0.17356639999979961,0.2,0,0,FastFast,10,18,Woman,Left,
1,8,1,0.616812100000061,['n'],1,right,['e'],1,0.22419949999948585,0.4,1,0,FastFast,10,18,Woman,Left,
2,8,1,0.7008681000006618,['n'],1,right,['e'],1,0.27002790000005916,0.1,1,0,FastFast,10,18,Woman,Left,
3,8,1,0.5497026000002734,['n'],1,right,['u'],0,0.19252209999922343,0.4,0,0,FastFast,10,18,Woman,Left,
4,8,1,0.7176452000003337,['n'],0,left,['u'],0,0.3979141999998319,0.2,1,0,FastFast,10,18,Woman,Left,
5,8,1,0.7007944999995743,['c'],1,left,['e'],1,0.18026350000036473,0.4,1,0,FastFast,10,18,Woman,Left,
6,8,1,0.6667985000003682,['c'],1,left,['e'],1,0.14871010000024398,0.1,1,0,FastFast,10,18,Woman,Left,
7,8,1,0.48477469999943423,['n'],1,right,['e'],1,0.2701161000004504,0.1,1,0,FastFast,10,18,Woman,Left,
8,8,1,0.7008974000000308,['c'],0,right,['u'],0,0.1852362000008725,0.1,1,0,FastFast,10,18,Woman,Left,
9,8,1,0.6173172999997405,['n'],1,right,['u'],0,0.21963439999944967,0.1,0,0,FastFast,10,18,Woman,Left,
10,8,1,0.6837691000000632,['c'],1,left,['e'],1,0.3458832000005714,0.4,1,0,FastFast,10,18,Woman,Left,
11,8,1,0.7006400000000212,['n'],1,right,['u'],0,0.194200599999931,0.1,0,0,FastFast,10,18,Woman,Left,
12,8,1,1.0347820999995747,['n'],1,right,['e'],1,0.21203160000004573,0.4,1,0,FastFast,10,18,Woman,Left,
13,8,1,1.084325799999533,['c'],1,left,['u'],0,0.16198890000032407,0.1,0,0,FastFast,10,18,Woman,Left,
14,8,1,0.5010031000001618,['c'],1,left,['u'],0,0.21876119999978982,0.2,0,0,FastFast,10,18,Woman,Left,
15,8,1,0.5678090000001248,['c'],0,right,['u'],0,0.18975649999993038,0.2,1,0,FastFast,10,18,Woman,Left,
16,8,1,0.8345382999996218,['n'],1,right,['u'],0,0.27876889999970444,0.4,0,0,FastFast,10,18,Woman,Left,
17,8,1,0.8838178000005428,['c'],1,left,['u'],0,0.23440779999964434,0.4,0,0,FastFast,10,18,Woman,Left,
18,8,1,0.7992881999998644,['c'],1,left,['e'],1,0.18076380000002246,0.2,1,0,FastFast,10,18,Woman,Left,
19,8,1,0.7823005999998713,['c'],1,left,['e'],1,0.08045270000002347,0.4,1,0,FastFast,10,18,Woman,Left,
20,8,1,0.9173894999994445,['c'],1,left,['e'],1,0.28262569999969855,0.4,1,0,FastFast,10,18,Woman,Left,
21,8,1,1.0513742000002821,['c'],0,right,['e'],1,0.31073699999979,0.2,0,0,FastFast,10,18,Woman,Left,
22,8,1,1.017736099999638,['c'],0,right,['u'],0,0.19631079999999201,0.1,1,0,FastFast,10,18,Woman,Left,
23,8,1,1.1341228000001138,['n'],0,left,['e'],1,0.27394360000016604,0.2,0,0,FastFast,10,18,Woman,Left,
24,8,1,1.4998582000007445,['n'],0,left,['u'],0,0.18933320000087406,0.1,1,0,FastFast,10,18,Woman,Left,
25,8,1,1.2009273000003304,['n'],0,left,['e'],1,0.21662190000006376,0.2,0,0,FastFast,10,18,Woman,Left,
26,8,1,0.9173624000004565,['c'],0,right,['u'],0,0.9732696000000942,0.2,1,0,FastFast,10,18,Woman,Left,
27,8,1,0.8009751999998116,['c'],1,left,['e'],1,0.3939959999997882,0.4,1,0,FastFast,10,18,Woman,Left,
28,8,1,1.1333113999999114,['n'],1,right,['e'],1,0.2230156999994506,0.2,1,0,FastFast,10,18,Woman,Left,
29,8,1,0.8838937999998961,['c'],0,right,['e'],1,0.3412977999996656,0.2,0,0,FastFast,10,18,Woman,Left,
30,8,1,0.9501795999995011,['n'],0,left,['u'],0,0.42051489999994374,0.2,1,0,FastFast,10,18,Woman,Left,
31,8,1,0.7341747000000396,['c'],1,left,['e'],1,0.24874629999976605,0.1,1,0,FastFast,10,18,Woman,Left,
32,8,1,0.700758400000268,['n'],1,right,['e'],1,0.277615799999694,0.2,1,0,FastFast,10,18,Woman,Left,
33,8,1,1.1173167000006288,['n'],1,right,['e'],1,0.20788569999967876,0.4,1,0,FastFast,10,18,Woman,Left,
34,8,1,0.5677704999998241,['n'],1,right,['e'],1,0.21176009999999224,0.4,1,0,FastFast,10,18,Woman,Left,
35,8,1,0.6509447999997064,['c'],1,left,['e'],1,0.16454199999952834,0.2,1,0,FastFast,10,18,Woman,Left,
36,8,1,0.7676828000003297,['c'],1,left,['u'],0,0.1770392999997057,0.1,0,0,FastFast,10,18,Woman,Left,
37,8,1,0.816985399999794,['c'],0,right,['u'],0,0.18853869999929884,0.1,1,0,FastFast,10,18,Woman,Left,
38,8,1,0.683487100000093,['n'],1,right,['e'],1,0.3799414999994042,0.1,1,0,FastFast,10,18,Woman,Left,
39,8,1,0.7184748999998192,['n'],1,right,['u'],0,0.16220830000020214,0.4,0,0,FastFast,10,18,Woman,Left,
40,8,1,1.1170050000000629,['n'],1,right,['e'],1,0.27346399999987625,0.2,1,0,FastFast,10,18,Woman,Left,
41,8,1,0.7496443999998519,['n'],1,right,['e'],1,0.17128579999916838,0.4,1,0,FastFast,10,18,Woman,Left,
42,8,1,0.6179397999994762,['c'],1,left,['e'],1,0.3659803999998985,0.4,1,0,FastFast,10,18,Woman,Left,
43,8,1,0.6501941999995324,['c'],1,left,['e'],1,0.2156292999998186,0.4,1,0,FastFast,10,18,Woman,Left,
44,8,1,1.0335470999998506,['c'],1,left,['u'],0,0.80889070000012,0.1,0,0,FastFast,10,18,Woman,Left,
45,8,1,0.9344168999996327,['c'],1,left,['u'],0,0.1814550999997664,0.1,0,0,FastFast,10,18,Woman,Left,
46,8,1,0.6008487999997669,['c'],0,right,['u'],0,1.3049616000007518,0.4,1,0,FastFast,10,18,Woman,Left,
47,8,1,0.9005914999997913,['c'],1,left,['u'],0,0.35464849999971193,0.1,0,0,FastFast,10,18,Woman,Left,
48,8,1,0.8503256000003603,['n'],1,right,['e'],1,0.16561240000010002,0.2,1,0,FastFast,10,18,Woman,Left,
49,8,1,0.8505653999991409,['c'],0,right,['u'],0,0.5107605000002877,0.2,1,0,FastFast,10,18,Woman,Left,
50,8,1,1.2836076000003231,['n'],1,right,['u'],0,0.15435270000034507,0.1,0,0,FastFast,10,18,Woman,Left,
51,8,1,0.801093299999593,['c'],1,left,['e'],1,0.550705999999991,0.4,1,0,FastFast,10,18,Woman,Left,
52,8,1,0.9677261999995608,['c'],1,left,['e'],1,0.23637000000053376,0.4,1,0,FastFast,10,18,Woman,Left,
53,8,1,1.0337177999999767,['n'],1,right,['u'],0,0.36430660000041826,0.1,0,0,FastFast,10,18,Woman,Left,
54,8,1,0.8010422000006656,['c'],1,left,['u'],0,0.19125770000027842,0.2,0,0,FastFast,10,18,Woman,Left,
55,8,1,0.601534299999912,['c'],1,left,['e'],1,0.3064659000001484,0.1,1,0,FastFast,10,18,Woman,Left,
56,8,1,0.7185874000006152,['n'],0,left,['e'],1,0.3321710999998686,0.1,0,0,FastFast,10,18,Woman,Left,
57,8,1,0.7005583000000115,['n'],0,left,['e'],1,0.14927850000003673,0.2,0,0,FastFast,10,18,Woman,Left,
58,8,1,0.6839976999999635,['c'],1,left,['e'],1,0.2620273000002271,0.4,1,0,FastFast,10,18,Woman,Left,
59,8,1,0.7170484000007491,['c'],0,right,['u'],0,0.19352880000042205,0.2,1,0,FastFast,10,18,Woman,Left,
0,9,1,3.000399199999265,['c'],1,left,['e'],1,0.8966101999994862,0.4,1,0,AccFast,10,18,Woman,Left,
1,9,1,1.0174915999996301,['n'],1,right,['e'],1,0.5501752999998644,0.1,1,0,AccFast,10,18,Woman,Left,
2,9,1,1.6328853999993953,['n'],0,left,['u'],0,0.689694700000473,0.1,1,0,AccFast,10,18,Woman,Left,
3,9,1,0.9007774000001518,['n'],1,right,['u'],0,0.2605129000003217,0.4,0,0,AccFast,10,18,Woman,Left,
4,9,1,1.0009713999997985,['c'],1,left,['e'],1,0.1176740000000791,0.2,1,0,AccFast,10,18,Woman,Left,
5,9,1,0.617457899999863,['n'],1,right,['e'],1,0.1698567000003095,0.4,1,0,AccFast,10,18,Woman,Left,
6,9,1,2.0335124000002907,['n'],1,right,['u'],0,0.08434380000016972,0.2,0,0,AccFast,10,18,Woman,Left,
7,9,1,1.0999909000001935,['n'],0,left,['u'],0,0.3279591000000437,0.4,1,0,AccFast,10,18,Woman,Left,
8,9,1,1.0178305999997974,['c'],1,left,['u'],0,0.2449190000006638,0.2,0,0,AccFast,10,18,Woman,Left,
9,9,1,0.8345547999997507,['n'],1,right,['e'],1,0.3165249000003314,0.4,1,0,AccFast,10,18,Woman,Left,
10,9,1,0.8672006000006149,['c'],1,left,['e'],1,0.2711656999999832,0.4,1,0,AccFast,10,18,Woman,Left,
11,9,1,1.0345432000003711,['c'],1,left,['e'],1,0.26957289999973,0.4,1,0,AccFast,10,18,Woman,Left,
12,9,1,1.7503010000000359,['n'],0,left,['u'],0,0.22338810000019294,0.2,1,0,AccFast,10,18,Woman,Left,
13,9,1,1.2163783000005424,['n'],1,right,['u'],0,0.21719599999960337,0.2,0,0,AccFast,10,18,Woman,Left,
14,9,1,0.98346760000004,['n'],1,right,['e'],1,0.7148918000002595,0.4,1,0,AccFast,10,18,Woman,Left,
15,9,1,0.815625899999759,['n'],1,right,['e'],1,0.19316230000003998,0.2,1,0,AccFast,10,18,Woman,Left,
16,9,1,0.7343629999995755,['c'],1,left,['e'],1,0.20570649999990565,0.4,1,0,AccFast,10,18,Woman,Left,
17,9,1,0.98415230000046,['n'],1,right,['e'],1,0.32075019999956567,0.1,1,0,AccFast,10,18,Woman,Left,
18,9,1,0.7845816999997623,['c'],1,left,['e'],1,0.7591781999999512,0.4,1,0,AccFast,10,18,Woman,Left,
19,9,1,2.684431100000438,['c'],1,left,['u'],0,0.1766150999992533,0.2,0,0,AccFast,10,18,Woman,Left,
20,9,1,2.8337916000000405,['c'],1,left,['u'],0,0.3951037000006181,0.1,0,0,AccFast,10,18,Woman,Left,
21,9,1,1.499373900000137,['n'],1,right,['u'],0,0.3066216999995959,0.2,0,0,AccFast,10,18,Woman,Left,
22,9,1,0.9506743000001734,['c'],1,left,['u'],0,0.29085289999966335,0.2,0,0,AccFast,10,18,Woman,Left,
23,9,1,1.051103900000271,['c'],1,left,['e'],1,0.20754520000082266,0.4,1,0,AccFast,10,18,Woman,Left,
24,9,1,0.7499893000003794,['n'],1,right,['e'],1,0.23553220000030706,0.4,1,0,AccFast,10,18,Woman,Left,
25,9,1,0.634374399999615,['c'],1,left,['e'],1,0.6030541000000085,0.4,1,0,AccFast,10,18,Woman,Left,
26,9,1,1.4005684000003384,['c'],1,left,['u'],0,0.1583506999995734,0.2,0,0,AccFast,10,18,Woman,Left,
27,9,1,0.9334853999998813,['n'],1,right,['e'],1,0.1968005999997331,0.2,1,0,AccFast,10,18,Woman,Left,
28,9,1,2.1672859999998764,['n'],1,right,['e'],1,0.1523870999999417,0.1,1,0,AccFast,10,18,Woman,Left,
29,9,1,1.2341221000006044,['n'],1,right,['u'],0,0.21219160000055126,0.1,0,0,AccFast,10,18,Woman,Left,
30,9,1,0.6341597000000547,['c'],1,left,['u'],0,0.27665130000059435,0.2,0,0,AccFast,10,18,Woman,Left,
31,9,1,1.1842276999996102,['n'],1,right,['e'],1,0.2531522999997833,0.4,1,0,AccFast,10,18,Woman,Left,
32,9,1,2.4346283000004405,['n'],0,left,['u'],0,0.2442083999994793,0.1,1,0,AccFast,10,18,Woman,Left,
33,9,1,1.3501591000003828,['n'],1,right,['u'],0,0.26385260000006383,0.4,0,0,AccFast,10,18,Woman,Left,
34,9,1,1.0673507000001337,['n'],0,left,['u'],0,0.7402125999997224,0.1,1,0,AccFast,10,18,Woman,Left,
35,9,1,1.4336709999997765,['n'],1,right,['u'],0,0.11278070000025764,0.1,0,0,AccFast,10,18,Woman,Left,
36,9,1,0.8341454000001249,['n'],1,right,['e'],1,0.22057150000000547,0.4,1,0,AccFast,10,18,Woman,Left,
37,9,1,1.4173319999999876,['n'],0,left,['u'],0,0.14197779999994964,0.4,1,0,AccFast,10,18,Woman,Left,
38,9,1,1.1502210000007835,['c'],1,left,['u'],0,0.22126200000002427,0.2,0,0,AccFast,10,18,Woman,Left,
39,9,1,0.9659413999997923,['c'],1,left,['u'],0,0.16022260000045208,0.1,0,0,AccFast,10,18,Woman,Left,
40,9,1,1.4839067000002615,['c'],1,left,['u'],0,0.17705579999983456,0.2,0,0,AccFast,10,18,Woman,Left,
41,9,1,1.684331800000109,['n'],1,right,['u'],0,0.1693992000000435,0.1,0,0,AccFast,10,18,Woman,Left,
42,9,1,0.9666563999999198,['n'],1,right,['e'],1,0.15909310000006371,0.4,1,0,AccFast,10,18,Woman,Left,
43,9,1,1.3839788000004773,['c'],1,left,['e'],1,0.21160710000003746,0.1,1,0,AccFast,10,18,Woman,Left,
44,9,1,2.466337000000749,['c'],0,right,['u'],0,0.8599554000002172,0.1,1,0,AccFast,10,18,Woman,Left,
45,9,1,0.8174928999997064,['n'],0,left,['e'],1,0.13971800000035728,0.1,0,0,AccFast,10,18,Woman,Left,
46,9,1,0.7175467999995817,['n'],1,right,['e'],1,0.13976329999968584,0.4,1,0,AccFast,10,18,Woman,Left,
47,9,1,0.8011974999999438,['n'],1,right,['e'],1,0.20033479999983683,0.4,1,0,AccFast,10,18,Woman,Left,
48,9,1,0.8831940000000031,['c'],1,left,['e'],1,0.36823399999957473,0.2,1,0,AccFast,10,18,Woman,Left,
49,9,1,1.73356160000003,['n'],0,left,['u'],0,0.19052339999961987,0.1,1,0,AccFast,10,18,Woman,Left,
50,9,1,1.1503093000001172,['n'],1,right,['u'],0,0.4111583999992945,0.2,0,0,AccFast,10,18,Woman,Left,
51,9,1,1.2664780000004612,['c'],0,right,['u'],0,0.1872003999997105,0.2,1,0,AccFast,10,18,Woman,Left,
52,9,1,1.2835709000000861,['n'],0,left,['u'],0,0.11473299999943265,0.1,1,0,AccFast,10,18,Woman,Left,
53,9,1,1.399930200000199,['n'],1,right,['u'],0,0.15319460000046092,0.2,0,0,AccFast,10,18,Woman,Left,
54,9,1,1.3496248000001287,['n'],1,right,['u'],0,0.22295190000022558,0.1,0,0,AccFast,10,18,Woman,Left,
55,9,1,1.249880000000303,['n'],1,right,['u'],0,0.471707100000458,0.1,0,0,AccFast,10,18,Woman,Left,
56,9,1,0.9008425000001807,['n'],1,right,['u'],0,0.3227704000000813,0.1,0,0,AccFast,10,18,Woman,Left,
57,9,1,1.0171054000002187,['n'],1,right,['u'],0,0.1755033999997977,0.2,0,0,AccFast,10,18,Woman,Left,
58,9,1,1.7674017999997886,['n'],0,left,['u'],0,0.16489540000020497,0.1,1,0,AccFast,10,18,Woman,Left,
59,9,1,0.8677080999996178,['c'],1,left,['u'],0,0.3175602000001163,0.2,0,0,AccFast,10,18,Woman,Left,
0,10,1,0.8668164000000615,['c'],1,left,['e'],1,1.2108296000005794,0.4,1,0,AccAcc,10,18,Woman,Left,
1,10,1,0.9842923000005612,['n'],1,right,['e'],1,1.0941188999995575,0.4,1,0,AccAcc,10,18,Woman,Left,
2,10,1,1.5663585000002058,['n'],1,right,['e'],1,1.0868773000001966,0.1,1,0,AccAcc,10,18,Woman,Left,
3,10,1,1.1011228999996092,['n'],1,right,['e'],1,1.1297856000001048,0.4,1,0,AccAcc,10,18,Woman,Left,
4,10,1,1.983015499999965,['n'],1,right,['u'],0,0.8639681999993627,0.2,0,0,AccAcc,10,18,Woman,Left,
5,10,1,1.2834567999998399,['n'],1,right,['e'],1,0.9887568000003739,0.4,1,0,AccAcc,10,18,Woman,Left,
6,10,1,2.1677703999994264,['n'],0,left,['u'],0,1.0088260000002265,0.1,1,0,AccAcc,10,18,Woman,Left,
7,10,1,2.183541200000036,['n'],1,right,['u'],0,1.7321153000002596,0.1,0,0,AccAcc,10,18,Woman,Left,
8,10,1,1.8002118000003975,['n'],1,right,['u'],0,1.7374857999993765,0.1,0,0,AccAcc,10,18,Woman,Left,
9,10,1,0.7837637999991784,['c'],1,left,['e'],1,1.7994160999996893,0.4,1,0,AccAcc,10,18,Woman,Left,
10,10,1,1.5674967000004472,['n'],0,left,['u'],0,1.6681775000006382,0.2,1,0,AccAcc,10,18,Woman,Left,
11,10,1,0.9002320000008694,['n'],1,right,['e'],1,1.8874367999997048,0.4,1,0,AccAcc,10,18,Woman,Left,
12,10,1,2.051579099999799,['c'],0,right,['u'],0,1.7174334000001181,0.1,1,0,AccAcc,10,18,Woman,Left,
13,10,1,1.0002833999997165,['c'],1,left,['u'],0,1.9948341999997865,0.4,0,0,AccAcc,10,18,Woman,Left,
14,10,1,0.8509261999997761,['n'],1,right,['e'],1,1.7400238000000172,0.4,1,0,AccAcc,10,18,Woman,Left,
15,10,1,1.0674949000003835,['c'],1,left,['e'],1,1.71069290000014,0.4,1,0,AccAcc,10,18,Woman,Left,
16,10,1,1.033785099999477,['c'],1,left,['e'],1,1.940134699999362,0.1,1,0,AccAcc,10,18,Woman,Left,
17,10,1,1.5839421999999104,['c'],0,right,['u'],0,1.6739629000003333,0.1,1,0,AccAcc,10,18,Woman,Left,
18,10,1,1.0669868000004499,['c'],1,left,['u'],0,1.4077197999995406,0.2,0,0,AccAcc,10,18,Woman,Left,
19,10,1,1.6836546999993516,['n'],0,left,['u'],0,1.4784968000003573,0.4,1,0,AccAcc,10,18,Woman,Left,
20,10,1,0.8668570999998337,['c'],1,left,['u'],0,2.1234386999994967,0.2,0,0,AccAcc,10,18,Woman,Left,
21,10,1,1.3173460999996678,['n'],0,left,['u'],0,2.484796099999585,0.2,1,0,AccAcc,10,18,Woman,Left,
22,10,1,0.9008433999997578,['n'],1,right,['e'],1,1.6638338000002477,0.4,1,0,AccAcc,10,18,Woman,Left,
23,10,1,1.9675428999998985,['n'],0,left,['u'],0,1.1692687999993723,0.2,1,0,AccAcc,10,18,Woman,Left,
24,10,1,1.1842762999995102,['n'],0,left,['u'],0,1.5096966999999495,0.1,1,0,AccAcc,10,18,Woman,Left,
25,10,1,0.9678351000002294,['c'],1,left,['u'],0,1.4775158000002193,0.4,0,0,AccAcc,10,18,Woman,Left,
26,10,1,2.0510623000000123,['c'],0,right,['u'],0,0.8436247999998159,0.2,1,0,AccAcc,10,18,Woman,Left,
27,10,1,0.8671586000000389,['c'],1,left,['e'],1,1.018563699999504,0.4,1,0,AccAcc,10,18,Woman,Left,
28,10,1,1.0840424999996685,['n'],1,right,['u'],0,1.1924864000002344,0.2,0,0,AccAcc,10,18,Woman,Left,
29,10,1,1.2852090999995198,['n'],1,right,['u'],0,1.4484220000003916,0.2,0,0,AccAcc,10,18,Woman,Left,
30,10,1,1.5506312999996226,['n'],0,left,['u'],0,1.3791842999999062,0.1,1,0,AccAcc,10,18,Woman,Left,
31,10,1,1.0162574000005407,['n'],1,right,['u'],0,1.398078300000634,0.4,0,0,AccAcc,10,18,Woman,Left,
32,10,1,0.9855043999996269,['n'],0,left,['e'],1,1.3047488000001977,0.2,0,0,AccAcc,10,18,Woman,Left,
33,10,1,0.9341769999991811,['n'],1,right,['e'],1,1.0421555999992052,0.1,1,0,AccAcc,10,18,Woman,Left,
34,10,1,1.2172570000002452,['n'],0,left,['e'],1,1.3867064000005485,0.2,0,0,AccAcc,10,18,Woman,Left,
35,10,1,1.0508039999995162,['n'],1,right,['e'],1,1.5484044999993785,0.4,1,0,AccAcc,10,18,Woman,Left,
36,10,1,1.08384020000085,['n'],1,right,['e'],1,1.2056296000000657,0.1,1,0,AccAcc,10,18,Woman,Left,
37,10,1,1.0001306000003751,['c'],1,left,['e'],1,1.0560300000006464,0.4,1,0,AccAcc,10,18,Woman,Left,
38,10,1,2.733885499999815,['n'],0,left,['u'],0,1.2270951000000423,0.2,1,0,AccAcc,10,18,Woman,Left,
39,10,1,1.3509919999996782,['n'],1,right,['u'],0,0.8388519999998607,0.1,0,0,AccAcc,10,18,Woman,Left,
40,10,1,0.9338812999994843,['n'],1,right,['u'],0,0.8038761000007071,0.1,0,0,AccAcc,10,18,Woman,Left,
41,10,1,1.3676695000003747,['n'],1,right,['u'],0,0.6065359000003809,0.2,0,0,AccAcc,10,18,Woman,Left,
42,10,1,1.2513107999993736,['n'],0,left,['u'],0,0.6949278000001868,0.1,1,0,AccAcc,10,18,Woman,Left,
43,10,1,0.934342800000195,['n'],0,left,['u'],0,0.7448082999999315,0.1,1,0,AccAcc,10,18,Woman,Left,
44,10,1,0.9345015999997486,['n'],1,right,['e'],1,0.7766399999991336,0.2,1,0,AccAcc,10,18,Woman,Left,
45,10,1,1.8175668999992922,['c'],1,left,['u'],0,0.7717662000004566,0.1,0,0,AccAcc,10,18,Woman,Left,
46,10,1,1.8329894000007698,['c'],1,left,['u'],0,0.8146942000003037,0.2,0,0,AccAcc,10,18,Woman,Left,
47,10,1,2.050350399999843,['c'],1,left,['e'],1,1.0063472000001639,0.4,1,0,AccAcc,10,18,Woman,Left,
48,10,1,1.4503128000005745,['n'],0,left,['u'],0,0.9908617999999478,0.2,1,0,AccAcc,10,18,Woman,Left,
49,10,1,1.3335753000001205,['n'],1,right,['u'],0,1.1251519999996162,0.2,0,0,AccAcc,10,18,Woman,Left,
50,10,1,1.3340953000006266,['c'],1,left,['e'],1,0.8054873999999472,0.4,1,0,AccAcc,10,18,Woman,Left,
51,10,1,1.0173037000004115,['n'],1,right,['e'],1,1.199048500000572,0.4,1,0,AccAcc,10,18,Woman,Left,
52,10,1,1.7334184000001187,['n'],1,right,['u'],0,0.8127133999996659,0.1,0,0,AccAcc,10,18,Woman,Left,
53,10,1,1.1007076999994752,['n'],0,left,['e'],1,1.0581678000007742,0.1,0,0,AccAcc,10,18,Woman,Left,
54,10,1,1.9672381000000314,['n'],1,right,['e'],1,1.1483945999998468,0.2,1,0,AccAcc,10,18,Woman,Left,
55,10,1,1.4169674000004306,['n'],0,left,['e'],1,1.017337199999929,0.2,0,0,AccAcc,10,18,Woman,Left,
56,10,1,1.584254699999292,['n'],0,left,['u'],0,0.8187275999998747,0.2,1,0,AccAcc,10,18,Woman,Left,
57,10,1,1.2840038000003915,['n'],1,right,['e'],1,0.8974573999994391,0.1,1,0,AccAcc,10,18,Woman,Left,
58,10,1,0.9168617000004815,['n'],1,right,['e'],1,0.8430908999998792,0.4,1,0,AccAcc,10,18,Woman,Left,
59,10,1,0.8348251000006712,['n'],1,right,['e'],1,0.6833144000001994,0.1,1,0,AccAcc,10,18,Woman,Left,
0,11,1,0.6009866000003967,['n'],1,right,['u'],0,1.0710902999999234,0.1,0,0,FastAcc,10,18,Woman,Left,
1,11,1,0.4841857000001255,['n'],1,right,['u'],0,1.9233901999996306,0.2,0,0,FastAcc,10,18,Woman,Left,
2,11,1,0.4511066999994,['c'],1,left,['e'],1,1.4631620999998631,0.4,1,0,FastAcc,10,18,Woman,Left,
3,11,1,0.417404699999679,['n'],1,right,['e'],1,1.678177499999947,0.4,1,0,FastAcc,10,18,Woman,Left,
4,11,1,0.567750100000012,['c'],1,left,['e'],1,1.8154849999991711,0.1,1,0,FastAcc,10,18,Woman,Left,
5,11,1,0.46787720000065747,['n'],1,right,['e'],1,1.7748209999999744,0.4,1,0,FastAcc,10,18,Woman,Left,
6,11,1,0.6497964000000138,['c'],1,left,['e'],1,1.4889806000001045,0.4,1,0,FastAcc,10,18,Woman,Left,
7,11,1,0.8174568000004001,['c'],1,left,['u'],0,1.55885600000056,0.2,0,0,FastAcc,10,18,Woman,Left,
8,11,1,0.6512278000000151,['n'],1,right,['e'],1,1.4415515000000596,0.2,1,0,FastAcc,10,18,Woman,Left,
9,11,1,0.3509094000000914,['n'],1,right,['e'],1,2.108828899999935,0.4,1,0,FastAcc,10,18,Woman,Left,
10,11,1,0.467022700000598,['c'],1,left,['u'],0,1.913174700000127,0.1,0,0,FastAcc,10,18,Woman,Left,
11,11,1,0.5331511999993381,['c'],1,left,['u'],0,1.8173864000000322,0.2,0,0,FastAcc,10,18,Woman,Left,
12,11,1,0.7998446999999942,['n'],0,left,['u'],0,1.7315897999997105,0.1,1,0,FastAcc,10,18,Woman,Left,
13,11,1,0.5843586999999388,['n'],1,right,['e'],1,1.5129569000000629,0.2,1,0,FastAcc,10,18,Woman,Left,
14,11,1,0.866207499999291,['n'],0,left,['u'],0,1.6934079000002384,0.1,1,0,FastAcc,10,18,Woman,Left,
15,11,1,0.700025099999948,['n'],1,right,['u'],0,1.4395542000002024,0.4,0,0,FastAcc,10,18,Woman,Left,
16,11,1,0.9335786999999982,['n'],1,right,['u'],0,1.4754038999999466,0.1,0,0,FastAcc,10,18,Woman,Left,
17,11,1,0.3990198000001328,['n'],0,left,['u'],0,1.7711575000002995,0.2,1,0,FastAcc,10,18,Woman,Left,
18,11,1,0.4673302999999578,['c'],1,left,['e'],1,1.6043571999998676,0.4,1,0,FastAcc,10,18,Woman,Left,
19,11,1,0.517391299999872,['n'],1,right,['e'],1,1.8102554000006421,0.4,1,0,FastAcc,10,18,Woman,Left,
20,11,1,0.4175820999998905,['n'],0,left,['u'],0,1.5799606000000495,0.2,1,0,FastAcc,10,18,Woman,Left,
21,11,1,0.684388200000285,['c'],1,left,['e'],1,1.8759178000000247,0.4,1,0,FastAcc,10,18,Woman,Left,
22,11,1,0.6501708999994662,['n'],1,right,['e'],1,1.4099355999996988,0.4,1,0,FastAcc,10,18,Woman,Left,
23,11,1,1.0159153000004153,['c'],1,left,['u'],0,1.3328642000005857,0.2,0,0,FastAcc,10,18,Woman,Left,
24,11,1,0.667313899999499,['n'],0,left,['u'],0,1.4782756000004156,0.2,1,0,FastAcc,10,18,Woman,Left,
25,11,1,0.7834095000007437,['n'],0,left,['u'],0,1.5511320999994496,0.1,1,0,FastAcc,10,18,Woman,Left,
26,11,1,0.8677772000000914,['n'],1,right,['e'],1,1.40914309999971,0.2,1,0,FastAcc,10,18,Woman,Left,
27,11,1,0.8341790000004039,['n'],1,right,['u'],0,1.4816405000001396,0.2,0,0,FastAcc,10,18,Woman,Left,
28,11,1,0.8502046999992672,['c'],1,left,['e'],1,1.310870199999954,0.2,1,0,FastAcc,10,18,Woman,Left,
29,11,1,0.4342790000000605,['n'],0,left,['u'],0,1.260144500000024,0.2,1,0,FastAcc,10,18,Woman,Left,
30,11,1,0.5166151000003083,['c'],1,left,['e'],1,1.2563208000001396,0.4,1,0,FastAcc,10,18,Woman,Left,
31,11,1,0.4494953000003079,['n'],1,right,['e'],1,1.3672240999994756,0.4,1,0,FastAcc,10,18,Woman,Left,
32,11,1,0.46732500000052823,['n'],0,left,['u'],0,1.4554279999993014,0.2,1,0,FastAcc,10,18,Woman,Left,
33,11,1,0.9176445000002786,['n'],1,right,['u'],0,1.8593169000005219,0.2,0,0,FastAcc,10,18,Woman,Left,
34,11,1,0.5664510000005976,['c'],1,left,['e'],1,1.9732742999995025,0.4,1,0,FastAcc,10,18,Woman,Left,
35,11,1,0.7507879000004323,['n'],1,right,['u'],0,1.5471287000000302,0.1,0,0,FastAcc,10,18,Woman,Left,
36,11,1,0.7011804000003394,['n'],1,right,['e'],1,1.5556907999998657,0.2,1,0,FastAcc,10,18,Woman,Left,
37,11,1,0.3840983000000051,['c'],0,right,['u'],0,1.8649656999996296,0.2,1,0,FastAcc,10,18,Woman,Left,
38,11,1,0.4335574999995515,['n'],1,right,['e'],1,1.375548300000446,0.4,1,0,FastAcc,10,18,Woman,Left,
39,11,1,0.6504162000001088,['n'],0,left,['u'],0,1.5537696000001233,0.1,1,0,FastAcc,10,18,Woman,Left,
40,11,1,1.101118800000222,['c'],1,left,['u'],0,1.5617541999999958,0.1,0,0,FastAcc,10,18,Woman,Left,
41,11,1,0.4340336000004754,['n'],1,right,['u'],0,1.7084810000005746,0.1,0,0,FastAcc,10,18,Woman,Left,
42,11,1,0.500321200000144,['n'],1,right,['e'],1,1.2708161999998993,0.1,1,0,FastAcc,10,18,Woman,Left,
43,11,1,0.7341281999997591,['c'],1,left,['u'],0,1.3057902000000468,0.4,0,0,FastAcc,10,18,Woman,Left,
44,11,1,0.3177335000000312,['n'],0,left,['u'],0,1.595456999999442,0.2,1,0,FastAcc,10,18,Woman,Left,
45,11,1,0.4178900999995676,['c'],1,left,['u'],0,1.5650714000003063,0.1,0,0,FastAcc,10,18,Woman,Left,
46,11,1,0.33397559999957593,['n'],1,right,['u'],0,1.4274310999999216,0.1,0,0,FastAcc,10,18,Woman,Left,
47,11,1,0.45035569999981817,['n'],0,left,['u'],0,1.6913380999994843,0.1,1,0,FastAcc,10,18,Woman,Left,
48,11,1,0.6171637999996165,['n'],0,left,['e'],1,1.9219869999997172,0.1,0,0,FastAcc,10,18,Woman,Left,
49,11,1,0.48383579999972426,['n'],1,right,['e'],1,1.7164955999996891,0.1,1,0,FastAcc,10,18,Woman,Left,
50,11,1,0.43420510000032664,['n'],1,right,['e'],1,1.9049016999997548,0.1,1,0,FastAcc,10,18,Woman,Left,
51,11,1,0.5168855000001713,['n'],1,right,['e'],1,1.7947519999997894,0.4,1,0,FastAcc,10,18,Woman,Left,
52,11,1,0.4843790999993871,['n'],1,right,['e'],1,1.5305779999998776,0.4,1,0,FastAcc,10,18,Woman,Left,
53,11,1,0.7846162999994704,['n'],0,left,['u'],0,1.7126599999992322,0.2,1,0,FastAcc,10,18,Woman,Left,
54,11,1,0.4840349999994942,['c'],1,left,['e'],1,1.7870623999997406,0.4,1,0,FastAcc,10,18,Woman,Left,
55,11,1,0.8006046000000424,['n'],1,right,['u'],0,1.5267415000007531,0.1,0,0,FastAcc,10,18,Woman,Left,
56,11,1,0.732509200000095,['c'],1,left,['e'],1,1.4399663000003784,0.4,1,0,FastAcc,10,18,Woman,Left,
57,11,1,0.5175951000001078,['n'],1,right,['u'],0,1.651474500000404,0.2,0,0,FastAcc,10,18,Woman,Left,
58,11,1,0.883501499999511,['n'],1,right,['u'],0,1.5363859999997658,0.1,0,0,FastAcc,10,18,Woman,Left,
59,11,1,0.9832541999994646,['n'],1,right,['u'],0,1.7107732000004034,0.4,0,0,FastAcc,10,18,Woman,Left,
0,12,1,0.5668367999996917,['c'],1,left,['u'],0,0.12161819999982981,0.2,0,0,FastFast,10,18,Woman,Left,
1,12,1,0.46740289999979723,['c'],0,right,['u'],0,0.11597309999979188,0.1,1,0,FastFast,10,18,Woman,Left,
2,12,1,0.3676458999998431,['n'],0,left,['u'],0,0.21096209999996063,0.2,1,0,FastFast,10,18,Woman,Left,
3,12,1,0.5167382999998154,['n'],1,right,['u'],0,0.13714710000022023,0.1,0,0,FastFast,10,18,Woman,Left,
4,12,1,0.46752359999936743,['c'],1,left,['e'],1,0.2428675999999541,0.4,1,0,FastFast,10,18,Woman,Left,
5,12,1,0.7000920999998925,['n'],1,right,['u'],0,0.27185240000017075,0.4,0,0,FastFast,10,18,Woman,Left,
6,12,1,0.4508538000000044,['c'],0,right,['e'],1,0.16553269999985787,0.2,0,0,FastFast,10,18,Woman,Left,
7,12,1,0.501310800000283,['n'],1,right,['e'],1,0.20517070000005333,0.4,1,0,FastFast,10,18,Woman,Left,
8,12,1,0.4667419000006703,['c'],1,left,['e'],1,0.3571470999995654,0.2,1,0,FastFast,10,18,Woman,Left,
9,12,1,0.5004672999994,['n'],1,right,['e'],1,0.24573719999989407,0.2,1,0,FastFast,10,18,Woman,Left,
10,12,1,0.6344160999997257,['n'],1,right,['e'],1,0.2771162999997614,0.4,1,0,FastFast,10,18,Woman,Left,
11,12,1,0.4509176999999909,['n'],1,right,['e'],1,0.4424901000002137,0.4,1,0,FastFast,10,18,Woman,Left,
12,12,1,0.8006548000003022,['n'],0,left,['u'],0,0.34754139999949984,0.2,1,0,FastFast,10,18,Woman,Left,
13,12,1,0.5164868000001661,['n'],1,right,['u'],0,0.2995412000000215,0.4,0,0,FastFast,10,18,Woman,Left,
14,12,1,0.6676382000005106,['n'],1,right,['e'],1,0.5668279000001348,0.2,1,0,FastFast,10,18,Woman,Left,
15,12,1,0.5006751000000804,['c'],1,left,['u'],0,0.6224128000003475,0.1,0,0,FastFast,10,18,Woman,Left,
16,12,1,0.71699450000051,['n'],0,left,['u'],0,0.7000723999999536,0.4,1,0,FastFast,10,18,Woman,Left,
17,12,1,0.732517800000096,['n'],1,right,['e'],1,0.46869690000039554,0.1,1,0,FastFast,10,18,Woman,Left,
18,12,1,1.3336938000002192,['n'],1,right,['u'],0,0.11213220000081492,0.4,0,0,FastFast,10,18,Woman,Left,
19,12,1,0.8679340999997294,['c'],0,right,['u'],0,0.10688320000008389,0.1,1,0,FastFast,10,18,Woman,Left,
20,12,1,0.667614400000275,['c'],1,left,['u'],0,0.1264541000000463,0.4,0,0,FastFast,10,18,Woman,Left,
21,12,1,0.8495230999997148,['n'],1,right,['e'],1,0.21902479999971547,0.4,1,0,FastFast,10,18,Woman,Left,
22,12,1,0.43380660000002536,['c'],1,left,['e'],1,0.22651300000052288,0.2,1,0,FastFast,10,18,Woman,Left,
23,12,1,0.7003193000000465,['n'],1,right,['e'],1,0.35204609999982495,0.1,1,0,FastFast,10,18,Woman,Left,
24,12,1,0.7841363999996247,['c'],1,left,['e'],1,0.13311000000066997,0.4,1,0,FastFast,10,18,Woman,Left,
25,12,1,0.9995824000006905,['c'],1,left,['u'],0,0.2025275000005422,0.1,0,0,FastFast,10,18,Woman,Left,
26,12,1,0.6175991000000067,['c'],1,left,['u'],0,0.18784920000052807,0.1,0,0,FastFast,10,18,Woman,Left,
27,12,1,0.6347412000004624,['n'],0,left,['u'],0,0.17350659999920026,0.1,1,0,FastFast,10,18,Woman,Left,
28,12,1,0.8667374999995445,['c'],1,left,['e'],1,0.11884900000040943,0.2,1,0,FastFast,10,18,Woman,Left,
29,12,1,0.5504677000008087,['c'],1,left,['e'],1,0.20681009999952948,0.2,1,0,FastFast,10,18,Woman,Left,
30,12,1,0.6002337999998417,['n'],1,right,['u'],0,0.22449930000038876,0.2,0,0,FastFast,10,18,Woman,Left,
31,12,1,0.9830167000000074,['n'],0,left,['u'],0,0.11543720000008761,0.1,1,0,FastFast,10,18,Woman,Left,
32,12,1,0.8507780999998431,['n'],0,left,['u'],0,0.14361300000018673,0.2,1,0,FastFast,10,18,Woman,Left,
33,12,1,0.9182504999998855,['n'],1,right,['u'],0,0.13485040000068693,0.1,0,0,FastFast,10,18,Woman,Left,
34,12,1,0.8676650999996127,['n'],1,right,['u'],0,0.2093046999998478,0.1,0,0,FastFast,10,18,Woman,Left,
35,12,1,0.8994834999994055,['n'],0,left,['u'],0,0.29583720000027824,0.2,1,0,FastFast,10,18,Woman,Left,
36,12,1,0.8832746999996743,['n'],1,right,['e'],1,0.1710849999999482,0.4,1,0,FastFast,10,18,Woman,Left,
37,12,1,0.7841630000002624,['c'],1,left,['e'],1,0.18425910000041767,0.4,1,0,FastFast,10,18,Woman,Left,
38,12,1,0.8669907999992574,['n'],1,right,['u'],0,0.2235305000003791,0.1,0,0,FastFast,10,18,Woman,Left,
39,12,1,0.9010502000000997,['n'],1,right,['u'],0,0.1978826000004119,0.1,0,0,FastFast,10,18,Woman,Left,
40,12,1,0.6166683000001285,['c'],1,left,['e'],1,0.21506980000049225,0.4,1,0,FastFast,10,18,Woman,Left,
41,12,1,0.6006885999995575,['n'],1,right,['e'],1,0.297153999999864,0.4,1,0,FastFast,10,18,Woman,Left,
42,12,1,0.7175044000005073,['n'],0,left,['u'],0,0.2750779000007242,0.1,1,0,FastFast,10,18,Woman,Left,
43,12,1,0.6666481000002022,['c'],1,left,['u'],0,0.1915780999997878,0.1,0,0,FastFast,10,18,Woman,Left,
44,12,1,0.6498384999995324,['c'],1,left,['e'],1,0.14487690000078146,0.2,1,0,FastFast,10,18,Woman,Left,
45,12,1,0.5510959000002913,['n'],1,right,['e'],1,0.24777939999967202,0.4,1,0,FastFast,10,18,Woman,Left,
46,12,1,0.7836547000006249,['n'],0,left,['u'],0,0.19219749999956548,0.1,1,0,FastFast,10,18,Woman,Left,
47,12,1,0.5509252000001652,['n'],1,right,['u'],0,0.2770487999996476,0.1,0,0,FastFast,10,18,Woman,Left,
48,12,1,0.616718000000219,['c'],0,right,['u'],0,0.22847420000016427,0.2,1,0,FastFast,10,18,Woman,Left,
49,12,1,0.484102399999756,['n'],1,right,['e'],1,0.23445010000068578,0.4,1,0,FastFast,10,18,Woman,Left,
50,12,1,0.7842678999995769,['c'],1,left,['e'],1,0.1802439000002778,0.2,1,0,FastFast,10,18,Woman,Left,
51,12,1,0.9500208999997994,['c'],1,left,['u'],0,0.20114720000037778,0.1,0,0,FastFast,10,18,Woman,Left,
52,12,1,0.8179092999998829,['n'],0,left,['e'],1,0.16276990000005753,0.2,0,0,FastFast,10,18,Woman,Left,
53,12,1,0.6834089999993012,['n'],1,right,['u'],0,0.6758540000000721,0.2,0,0,FastFast,10,18,Woman,Left,
54,12,1,0.6177438999993683,['n'],1,right,['e'],1,0.2903034999999363,0.4,1,0,FastFast,10,18,Woman,Left,
55,12,1,0.7507860999994591,['n'],1,right,['u'],0,0.5712303000000247,0.2,0,0,FastFast,10,18,Woman,Left,
56,12,1,0.5164984000002733,['c'],1,left,['e'],1,0.19537010000021837,0.4,1,0,FastFast,10,18,Woman,Left,
57,12,1,0.49977600000056555,['c'],0,right,['u'],0,0.3617554000002201,0.4,1,0,FastFast,10,18,Woman,Left,
58,12,1,0.9012023999994199,['n'],0,left,['u'],0,0.4576554999994187,0.2,1,0,FastFast,10,18,Woman,Left,
59,12,1,0.6848792999999205,['n'],0,left,['u'],0,0.2876092999995308,0.1,1,0,FastFast,10,18,Woman,Left,
0,13,1,1.2003033999999388,['n'],1,right,['e'],1,0.25976300000002084,0.2,1,0,AccFast,10,18,Woman,Left,
1,13,1,1.0843952999994144,['n'],1,right,['e'],1,0.24071120000007795,0.4,1,0,AccFast,10,18,Woman,Left,
2,13,1,1.4501493999996455,['n'],0,left,['u'],0,0.33579939999981434,0.1,1,0,AccFast,10,18,Woman,Left,
3,13,1,1.117349899999681,['n'],1,right,['e'],1,0.21609820000048785,0.4,1,0,AccFast,10,18,Woman,Left,
4,13,1,0.984085099999902,['c'],1,left,['e'],1,0.23493630000029952,0.4,1,0,AccFast,10,18,Woman,Left,
5,13,1,1.5510009999998147,['n'],0,left,['e'],1,0.5657275999992635,0.2,0,0,AccFast,10,18,Woman,Left,
6,13,1,1.6008761000002778,['n'],0,left,['u'],0,0.12968809999983932,0.2,1,0,AccFast,10,18,Woman,Left,
7,13,1,1.1334157999999661,['n'],0,left,['u'],0,0.19360090000009222,0.2,1,0,AccFast,10,18,Woman,Left,
8,13,1,0.9653154000006907,['c'],1,left,['e'],1,0.5979352000003928,0.2,1,0,AccFast,10,18,Woman,Left,
9,13,1,1.0840143999994325,['n'],1,right,['u'],0,0.261091899999883,0.1,0,0,AccFast,10,18,Woman,Left,
10,13,1,0.767237699999896,['n'],1,right,['e'],1,0.3345320999997057,0.4,1,0,AccFast,10,18,Woman,Left,
11,13,1,1.433280399999603,['c'],1,left,['e'],1,0.13846529999955237,0.4,1,0,AccFast,10,18,Woman,Left,
12,13,1,1.3346419999998034,['n'],1,right,['e'],1,0.21014909999939846,0.2,1,0,AccFast,10,18,Woman,Left,
13,13,1,1.1505371000002924,['n'],1,right,['e'],1,0.3024402999999438,0.2,1,0,AccFast,10,18,Woman,Left,
14,13,1,1.8007259999994858,['n'],0,left,['u'],0,0.30085000000053697,0.1,1,0,AccFast,10,18,Woman,Left,
15,13,1,1.0504073000001881,['c'],1,left,['e'],1,0.2333892000006017,0.4,1,0,AccFast,10,18,Woman,Left,
16,13,1,2.334023399999751,['n'],0,left,['u'],0,0.26131270000041695,0.2,1,0,AccFast,10,18,Woman,Left,
17,13,1,1.800772099999449,['n'],1,right,['e'],1,0.37369850000050064,0.4,1,0,AccFast,10,18,Woman,Left,
18,13,1,0.8844521000000896,['n'],1,right,['e'],1,0.5341363999996247,0.4,1,0,AccFast,10,18,Woman,Left,
19,13,1,1.9337860999994518,['n'],1,right,['u'],0,0.2782133000000613,0.2,0,0,AccFast,10,18,Woman,Left,
20,13,1,0.9176708999993934,['n'],1,right,['e'],1,0.2008577000005971,0.4,1,0,AccFast,10,18,Woman,Left,
21,13,1,1.4677296999998362,['n'],1,right,['u'],0,0.40886910000062926,0.1,0,0,AccFast,10,18,Woman,Left,
22,13,1,1.317465600000105,['n'],1,right,['e'],1,0.6624756000001071,0.4,1,0,AccFast,10,18,Woman,Left,
23,13,1,1.067523199999414,['n'],0,left,['u'],0,0.2758819999999105,0.1,1,0,AccFast,10,18,Woman,Left,
24,13,1,1.9674769000002925,['n'],0,left,['u'],0,0.18909660000008444,0.2,1,0,AccFast,10,18,Woman,Left,
25,13,1,1.1329672000001665,['n'],1,right,['u'],0,0.3947961999992913,0.1,0,0,AccFast,10,18,Woman,Left,
26,13,1,0.9180969999997615,['c'],1,left,['e'],1,0.5055535999999847,0.4,1,0,AccFast,10,18,Woman,Left,
27,13,1,1.1836058000008052,['n'],1,right,['e'],1,0.18419159999939438,0.1,1,0,AccFast,10,18,Woman,Left,
28,13,1,1.3508664000000863,['c'],1,left,['e'],1,0.15724800000043615,0.4,1,0,AccFast,10,18,Woman,Left,
29,13,1,1.4835024000003614,['n'],1,right,['u'],0,0.4144849999993312,0.2,0,0,AccFast,10,18,Woman,Left,
30,13,1,0.9678001000002041,['n'],1,right,['u'],0,0.298154600000089,0.1,0,0,AccFast,10,18,Woman,Left,
31,13,1,1.2170022000000245,['n'],0,left,['u'],0,0.4635858999999982,0.1,1,0,AccFast,10,18,Woman,Left,
32,13,1,1.3000330000004396,['n'],1,right,['u'],0,0.18728579999969952,0.1,0,0,AccFast,10,18,Woman,Left,
33,13,1,0.9667425000006915,['c'],1,left,['e'],1,0.1115445000004911,0.4,1,0,AccFast,10,18,Woman,Left,
34,13,1,1.217708300000595,['n'],1,right,['u'],0,0.17328170000018872,0.1,0,0,AccFast,10,18,Woman,Left,
35,13,1,1.0667112999999517,['n'],0,left,['u'],0,0.1901757000005091,0.1,1,0,AccFast,10,18,Woman,Left,
36,13,1,0.7340393000004042,['c'],1,left,['e'],1,0.09256699999968987,0.4,1,0,AccFast,10,18,Woman,Left,
37,13,1,1.0003153000006932,['n'],1,right,['u'],0,0.1629862999998295,0.1,0,0,AccFast,10,18,Woman,Left,
38,13,1,1.1004354999995485,['n'],1,right,['u'],0,0.27582910000000993,0.2,0,0,AccFast,10,18,Woman,Left,
39,13,1,0.734608699999626,['c'],1,left,['e'],1,0.20511350000015227,0.2,1,0,AccFast,10,18,Woman,Left,
40,13,1,0.6680169999999634,['c'],1,left,['e'],1,0.15664829999968788,0.4,1,0,AccFast,10,18,Woman,Left,
41,13,1,1.8827470999995057,['n'],0,left,['u'],0,0.22237270000005083,0.2,1,0,AccFast,10,18,Woman,Left,
42,13,1,1.3506279000002905,['c'],1,left,['u'],0,0.1620296999999482,0.1,0,0,AccFast,10,18,Woman,Left,
43,13,1,0.7007716000007349,['c'],0,right,['u'],0,0.1931983999993463,0.2,1,0,AccFast,10,18,Woman,Left,
44,13,1,0.750314800000524,['c'],1,left,['u'],0,0.19022540000059962,0.4,0,0,AccFast,10,18,Woman,Left,
45,13,1,1.0501105000003008,['n'],0,left,['u'],0,0.1752409999999145,0.1,1,0,AccFast,10,18,Woman,Left,
46,13,1,0.7985727000004772,['c'],1,left,['u'],0,0.17205809999995836,0.1,0,0,AccFast,10,18,Woman,Left,
47,13,1,0.6671242000002167,['c'],1,left,['u'],0,0.2684963000001517,0.4,0,0,AccFast,10,18,Woman,Left,
48,13,1,0.9004507999998168,['c'],0,right,['u'],0,0.7838774000001649,0.2,1,0,AccFast,10,18,Woman,Left,
49,13,1,0.7671721000006073,['n'],1,right,['u'],0,0.22816669999974692,0.1,0,0,AccFast,10,18,Woman,Left,
50,13,1,0.9663905999996132,['n'],0,left,['u'],0,0.1674130999999761,0.1,1,0,AccFast,10,18,Woman,Left,
51,13,1,1.3168304999999236,['c'],1,left,['e'],1,0.12642529999993712,0.2,1,0,AccFast,10,18,Woman,Left,
52,13,1,0.8004226000002745,['n'],1,right,['e'],1,0.18868130000009842,0.4,1,0,AccFast,10,18,Woman,Left,
53,13,1,0.6007607000001371,['n'],1,right,['e'],1,0.17520070000045962,0.4,1,0,AccFast,10,18,Woman,Left,
54,13,1,0.8511748000000807,['c'],1,left,['e'],1,0.153204199999891,0.2,1,0,AccFast,10,18,Woman,Left,
55,13,1,0.8835841999998593,['n'],1,right,['e'],1,0.43373280000014347,0.2,1,0,AccFast,10,18,Woman,Left,
56,13,1,0.9168255999993562,['n'],1,right,['e'],1,0.19010459999935847,0.1,1,0,AccFast,10,18,Woman,Left,
57,13,1,0.7177964000002248,['n'],1,right,['e'],1,0.2686301000003368,0.4,1,0,AccFast,10,18,Woman,Left,
58,13,1,1.9008738000002268,['c'],1,left,['u'],0,0.24838030000046274,0.2,0,0,AccFast,10,18,Woman,Left,
59,13,1,1.4173369000000093,['n'],1,right,['u'],0,0.18429730000025302,0.1,0,0,AccFast,10,18,Woman,Left,
0,14,1,2.417218999999932,['n'],0,left,['u'],0,0.8490192999997817,0.2,1,0,AccAcc,10,18,Woman,Left,
1,14,1,1.2834286000006614,['c'],1,left,['e'],1,1.5662844999997105,0.2,1,0,AccAcc,10,18,Woman,Left,
2,14,1,1.5677330999997139,['n'],0,left,['u'],0,0.9795310999998037,0.1,1,0,AccAcc,10,18,Woman,Left,
3,14,1,1.4508824000004097,['n'],1,right,['e'],1,1.540629799999806,0.4,1,0,AccAcc,10,18,Woman,Left,
4,14,1,0.9665389000001596,['c'],1,left,['e'],1,2.1164780999997674,0.4,1,0,AccAcc,10,18,Woman,Left,
5,14,1,1.0018268000003445,['c'],1,left,['e'],1,1.5773631000001842,0.4,1,0,AccAcc,10,18,Woman,Left,
6,14,1,1.1831434000005174,['c'],1,left,['u'],0,1.5988741000001028,0.4,0,0,AccAcc,10,18,Woman,Left,
7,14,1,1.8832369000001563,['n'],0,left,['u'],0,1.6214638999999806,0.1,1,0,AccAcc,10,18,Woman,Left,
8,14,1,1.8841123000001971,['n'],1,right,['u'],0,1.1487340000003314,0.1,0,0,AccAcc,10,18,Woman,Left,
9,14,1,1.0683257000000594,['n'],1,right,['u'],0,1.5415551000005507,0.2,0,0,AccAcc,10,18,Woman,Left,
10,14,1,1.7329964000000473,['n'],0,left,['u'],0,1.462171699999999,0.1,1,0,AccAcc,10,18,Woman,Left,
11,14,1,1.2505707999998776,['n'],1,right,['u'],0,1.3559049000004961,0.1,0,0,AccAcc,10,18,Woman,Left,
12,14,1,1.284199400000034,['n'],0,left,['u'],0,1.7651285000001735,0.1,1,0,AccAcc,10,18,Woman,Left,
13,14,1,1.6838390999992043,['n'],0,left,['u'],0,0.9258761999999479,0.1,1,0,AccAcc,10,18,Woman,Left,
14,14,1,1.017794600000343,['c'],1,left,['e'],1,0.9788914000000659,0.4,1,0,AccAcc,10,18,Woman,Left,
15,14,1,0.833751599999232,['n'],1,right,['e'],1,0.8606440000003204,0.2,1,0,AccAcc,10,18,Woman,Left,
16,14,1,0.832740300000296,['n'],1,right,['e'],1,1.2129869999998846,0.4,1,0,AccAcc,10,18,Woman,Left,
17,14,1,1.1339787999995679,['n'],1,right,['u'],0,0.9604529999996885,0.1,0,0,AccAcc,10,18,Woman,Left,
18,14,1,1.0173924999999144,['n'],0,left,['u'],0,0.8201992999993308,0.2,1,0,AccAcc,10,18,Woman,Left,
19,14,1,0.9173258999999234,['n'],1,right,['u'],0,0.8175473999999667,0.2,0,0,AccAcc,10,18,Woman,Left,
20,14,1,0.8009513999995761,['c'],1,left,['e'],1,1.1232552999999825,0.4,1,0,AccAcc,10,18,Woman,Left,
21,14,1,1.3507714999996097,['c'],1,left,['e'],1,1.3948934000000008,0.4,1,0,AccAcc,10,18,Woman,Left,
22,14,1,1.1167857999998887,['n'],1,right,['u'],0,1.2506412000002456,0.1,0,0,AccAcc,10,18,Woman,Left,
23,14,1,1.501071700000466,['n'],0,left,['u'],0,1.5104808000005505,0.1,1,0,AccAcc,10,18,Woman,Left,
24,14,1,1.066288899999563,['n'],1,right,['e'],1,1.1066560999997819,0.4,1,0,AccAcc,10,18,Woman,Left,
25,14,1,1.3672419999993508,['n'],1,right,['u'],0,1.1060408000003008,0.1,0,0,AccAcc,10,18,Woman,Left,
26,14,1,1.29933230000006,['n'],1,right,['u'],0,1.1895709000000352,0.2,0,0,AccAcc,10,18,Woman,Left,
27,14,1,1.4337095000000772,['n'],1,right,['u'],0,1.2464322000005268,0.2,0,0,AccAcc,10,18,Woman,Left,
28,14,1,0.8672001999993881,['c'],1,left,['e'],1,1.0042806000001292,0.4,1,0,AccAcc,10,18,Woman,Left,
29,14,1,1.6839853000001312,['n'],1,right,['u'],0,0.9474505000007412,0.1,0,0,AccAcc,10,18,Woman,Left,
30,14,1,2.2003946999993786,['n'],0,left,['u'],0,0.9205055000002176,0.2,1,0,AccAcc,10,18,Woman,Left,
31,14,1,1.1844642999994903,['n'],1,right,['u'],0,1.6069471999999223,0.4,0,0,AccAcc,10,18,Woman,Left,
32,14,1,1.9666897999995854,['n'],0,left,['u'],0,0.9869029000001319,0.1,1,0,AccAcc,10,18,Woman,Left,
33,14,1,2.1005395000001954,['n'],1,right,['u'],0,1.3620285999995758,0.2,0,0,AccAcc,10,18,Woman,Left,
34,14,1,1.1835166000000754,['n'],1,right,['e'],1,1.1990402999999787,0.4,1,0,AccAcc,10,18,Woman,Left,
35,14,1,1.2835316999999122,['n'],1,right,['u'],0,0.9904066999997667,0.2,0,0,AccAcc,10,18,Woman,Left,
36,14,1,1.0845957999999882,['c'],1,left,['e'],1,1.1178251000001183,0.4,1,0,AccAcc,10,18,Woman,Left,
37,14,1,1.4004382000002806,['n'],1,right,['u'],0,0.8758713000006537,0.2,0,0,AccAcc,10,18,Woman,Left,
38,14,1,0.8661536999998134,['n'],1,right,['e'],1,0.9851530999994793,0.4,1,0,AccAcc,10,18,Woman,Left,
39,14,1,1.2506041000006007,['c'],1,left,['e'],1,1.0420182999996541,0.2,1,0,AccAcc,10,18,Woman,Left,
40,14,1,1.217657600000166,['n'],0,left,['e'],1,1.2745875999999043,0.1,0,0,AccAcc,10,18,Woman,Left,
41,14,1,1.0511913000000277,['n'],1,right,['e'],1,1.1203519000000597,0.4,1,0,AccAcc,10,18,Woman,Left,
42,14,1,1.2673752000000604,['c'],1,left,['u'],0,1.2835777000000235,0.2,0,0,AccAcc,10,18,Woman,Left,
43,14,1,1.0836409000003187,['c'],1,left,['e'],1,1.367893599999661,0.4,1,0,AccAcc,10,18,Woman,Left,
44,14,1,1.484537000000273,['n'],1,right,['u'],0,1.1121229000000312,0.2,0,0,AccAcc,10,18,Woman,Left,
45,14,1,1.4497713000000658,['n'],0,left,['u'],0,1.075861399999667,0.2,1,0,AccAcc,10,18,Woman,Left,
46,14,1,1.0174741999999242,['n'],1,right,['e'],1,1.3790254999994431,0.1,1,0,AccAcc,10,18,Woman,Left,
47,14,1,1.0841283999998268,['c'],1,left,['e'],1,1.0430597999993552,0.2,1,0,AccAcc,10,18,Woman,Left,
48,14,1,0.8839655000001585,['n'],1,right,['e'],1,1.0973374000004696,0.4,1,0,AccAcc,10,18,Woman,Left,
49,14,1,1.000620799999524,['n'],1,right,['e'],1,0.9353903000001083,0.2,1,0,AccAcc,10,18,Woman,Left,
50,14,1,1.0165391000000454,['c'],1,left,['e'],1,1.0208554000000731,0.4,1,0,AccAcc,10,18,Woman,Left,
51,14,1,0.9678571000004013,['n'],1,right,['e'],1,0.9110927000001539,0.4,1,0,AccAcc,10,18,Woman,Left,
52,14,1,0.9332612999996854,['c'],1,left,['e'],1,0.9205657000002248,0.2,1,0,AccAcc,10,18,Woman,Left,
53,14,1,0.8668741000001319,['c'],1,left,['e'],1,1.043370800000048,0.2,1,0,AccAcc,10,18,Woman,Left,
54,14,1,0.7507618999998158,['c'],1,left,['e'],1,0.8944399000001795,0.4,1,0,AccAcc,10,18,Woman,Left,
55,14,1,1.0340699999997014,['c'],0,right,['e'],1,0.7401748000002044,0.1,0,0,AccAcc,10,18,Woman,Left,
56,14,1,0.8677177999998094,['c'],0,right,['e'],1,0.6144555000000764,0.1,0,0,AccAcc,10,18,Woman,Left,
57,14,1,0.7842663999999786,['c'],0,right,['e'],1,0.800875900000392,0.1,0,0,AccAcc,10,18,Woman,Left,
58,14,1,0.9331750999999713,['c'],1,left,['e'],1,0.7829627000000983,0.1,1,0,AccAcc,10,18,Woman,Left,
59,14,1,1.484184599999935,['c'],0,right,['e'],1,0.9180851000000985,0.1,0,0,AccAcc,10,18,Woman,Left,
0,15,1,0.5493195999997624,['c'],0,right,['u'],0,0.8761374000005162,0.2,1,0,FastAcc,10,18,Woman,Left,
1,15,1,0.48393920000034996,['c'],1,left,['e'],1,0.888865099999748,0.4,1,0,FastAcc,10,18,Woman,Left,
2,15,1,0.33362399999987247,['n'],0,left,['u'],0,0.6505324999998265,0.1,1,0,FastAcc,10,18,Woman,Left,
3,15,1,0.6508614000003945,['c'],0,right,['e'],1,1.4323766999996224,0.1,0,0,FastAcc,10,18,Woman,Left,
4,15,1,0.5997800000004645,['c'],0,right,['e'],1,1.8340065000002141,0.1,0,0,FastAcc,10,18,Woman,Left,
5,15,1,0.3171775999999227,['n'],0,left,['u'],0,1.9262422000001607,0.4,1,0,FastAcc,10,18,Woman,Left,
6,15,1,0.6166137999998682,['c'],1,left,['e'],1,1.6195519000002605,0.1,1,0,FastAcc,10,18,Woman,Left,
7,15,1,0.3842653000001519,['n'],0,left,['u'],0,1.5259043000005477,0.4,1,0,FastAcc,10,18,Woman,Left,
8,15,1,0.4509101000003284,['c'],0,right,['e'],1,1.4500158000000738,0.1,0,0,FastAcc,10,18,Woman,Left,
9,15,1,0.45075790000009874,['n'],0,left,['u'],0,1.2160824000002322,0.1,1,0,FastAcc,10,18,Woman,Left,
10,15,1,0.984934300000532,['n'],1,right,['u'],0,1.035655399999996,0.4,0,0,FastAcc,10,18,Woman,Left,
11,15,1,0.46739330000036716,['c'],1,left,['e'],1,1.6490695000002233,0.2,1,0,FastAcc,10,18,Woman,Left,
12,15,1,0.7181571999999505,['n'],1,right,['u'],0,1.1574546000001646,0.2,0,0,FastAcc,10,18,Woman,Left,
13,15,1,0.3176069999999527,['n'],0,left,['u'],0,2.189174600000115,0.2,1,0,FastAcc,10,18,Woman,Left,
14,15,1,0.6843392000000676,['n'],1,right,['e'],1,2.172734099999616,0.1,1,0,FastAcc,10,18,Woman,Left,
15,15,1,0.4342773999997007,['n'],0,left,['u'],0,2.231227199999921,0.2,1,0,FastAcc,10,18,Woman,Left,
16,15,1,0.4336923000000752,['c'],0,right,['u'],0,2.62322100000074,0.1,1,0,FastAcc,10,18,Woman,Left,
17,15,1,0.6336295000000973,['n'],0,left,['u'],0,1.9678561000000627,0.1,1,0,FastAcc,10,18,Woman,Left,
18,15,1,0.8005130999999892,['c'],1,left,['e'],1,1.6358802999993713,0.4,1,0,FastAcc,10,18,Woman,Left,
19,15,1,0.5675919000004797,['c'],1,left,['e'],1,1.4544838000001619,0.2,1,0,FastAcc,10,18,Woman,Left,
20,15,1,0.6326228999996601,['n'],1,right,['e'],1,1.3426988999999594,0.2,1,0,FastAcc,10,18,Woman,Left,
21,15,1,0.7829289999999673,['n'],0,left,['e'],1,1.0196783000001233,0.4,0,0,FastAcc,10,18,Woman,Left,
22,15,1,0.4499753999998575,['n'],1,right,['e'],1,1.5873732000000018,0.2,1,0,FastAcc,10,18,Woman,Left,
23,15,1,0.45089009999992413,['n'],1,right,['e'],1,1.4601754000004803,0.4,1,0,FastAcc,10,18,Woman,Left,
24,15,1,0.6684327000002668,['n'],1,right,['e'],1,1.8261499000000185,0.4,1,0,FastAcc,10,18,Woman,Left,
25,15,1,0.6678052999995998,['c'],1,left,['e'],1,1.4733255999999528,0.4,1,0,FastAcc,10,18,Woman,Left,
26,15,1,0.5673940999995466,['c'],1,left,['e'],1,1.5866157000000385,0.2,1,0,FastAcc,10,18,Woman,Left,
27,15,1,0.7167931000003591,['n'],1,right,['u'],0,1.4810772999999244,0.1,0,0,FastAcc,10,18,Woman,Left,
28,15,1,0.5007480999993277,['n'],1,right,['e'],1,1.7241261999997732,0.2,1,0,FastAcc,10,18,Woman,Left,
29,15,1,0.43408030000045983,['n'],1,right,['u'],0,2.02469149999979,0.1,0,0,FastAcc,10,18,Woman,Left,
30,15,1,0.4833640999995623,['n'],1,right,['e'],1,2.231601899999987,0.2,1,0,FastAcc,10,18,Woman,Left,
31,15,1,0.4677969000003941,['n'],0,left,['u'],0,1.902336600000126,0.4,1,0,FastAcc,10,18,Woman,Left,
32,15,1,0.4167391000000862,['n'],0,left,['u'],0,1.972110600000633,0.2,1,0,FastAcc,10,18,Woman,Left,
33,15,1,0.6504561000001559,['n'],1,right,['e'],1,1.7897322999997414,0.4,1,0,FastAcc,10,18,Woman,Left,
34,15,1,0.3833856999999625,['n'],0,left,['u'],0,1.6581734999999753,0.2,1,0,FastAcc,10,18,Woman,Left,
35,15,1,0.5007386999996015,['n'],1,right,['u'],0,1.7341126999999688,0.1,0,0,FastAcc,10,18,Woman,Left,
36,15,1,0.6006239999996978,['n'],0,left,['u'],0,1.6121198000000732,0.1,1,0,FastAcc,10,18,Woman,Left,
37,15,1,0.6006878999996843,['n'],1,right,['u'],0,1.8618839000000662,0.1,0,0,FastAcc,10,18,Woman,Left,
38,15,1,0.6998291999998401,['n'],1,right,['e'],1,1.250017200000002,0.4,1,0,FastAcc,10,18,Woman,Left,
39,15,1,0.5499041000002762,['n'],0,left,['u'],0,1.9167705999998361,0.1,1,0,FastAcc,10,18,Woman,Left,
40,15,1,0.33329310000044643,['c'],1,left,['e'],1,2.0530493999995088,0.2,1,0,FastAcc,10,18,Woman,Left,
41,15,1,0.5502721000002566,['n'],1,right,['e'],1,1.9353250000003754,0.1,1,0,FastAcc,10,18,Woman,Left,
42,15,1,0.40076890000000276,['c'],1,left,['e'],1,1.844597000000249,0.4,1,0,FastAcc,10,18,Woman,Left,
43,15,1,0.4342990999994072,['n'],1,right,['e'],1,1.9164691000005405,0.4,1,0,FastAcc,10,18,Woman,Left,
44,15,1,0.5166263000000981,['n'],0,left,['u'],0,1.6296104000002742,0.4,1,0,FastAcc,10,18,Woman,Left,
45,15,1,0.5839887000001909,['c'],1,left,['e'],1,1.383488500000567,0.2,1,0,FastAcc,10,18,Woman,Left,
46,15,1,0.46728989999974146,['n'],0,left,['u'],0,1.4398409999994328,0.2,1,0,FastAcc,10,18,Woman,Left,
47,15,1,0.6838208999997732,['n'],1,right,['e'],1,1.3097351999995226,0.4,1,0,FastAcc,10,18,Woman,Left,
48,15,1,0.5678680999999415,['n'],1,right,['e'],1,1.8776139000001422,0.1,1,0,FastAcc,10,18,Woman,Left,
49,15,1,1.1666405000005398,['c'],1,left,['e'],1,0.9434577000001809,0.4,1,0,FastAcc,10,18,Woman,Left,
50,15,1,0.7002940000002127,['n'],0,left,['u'],0,1.9521187000000282,0.1,1,0,FastAcc,10,18,Woman,Left,
51,15,1,0.6507847000002585,['n'],1,right,['u'],0,1.75496800000019,0.2,0,0,FastAcc,10,18,Woman,Left,
52,15,1,0.5838762000003044,['n'],1,right,['u'],0,1.6318285000006654,0.4,0,0,FastAcc,10,18,Woman,Left,
53,15,1,0.6174384000005375,['n'],1,right,['u'],0,1.9602427999998326,0.2,0,0,FastAcc,10,18,Woman,Left,
54,15,1,0.6673056999998153,['n'],1,right,['u'],0,1.570175300000301,0.2,0,0,FastAcc,10,18,Woman,Left,
55,15,1,1.200662199999897,['n'],0,left,['u'],0,1.6701849999999467,0.1,1,0,FastAcc,10,18,Woman,Left,
56,15,1,0.6335065000002942,['n'],1,right,['e'],1,1.308693900000435,0.4,1,0,FastAcc,10,18,Woman,Left,
57,15,1,0.8343881999999212,['c'],1,left,['e'],1,2.297831199999564,0.4,1,0,FastAcc,10,18,Woman,Left,
58,15,1,0.7169235000001208,['n'],1,right,['e'],1,1.7802928999999494,0.2,1,0,FastAcc,10,18,Woman,Left,
59,15,1,1.3009175000006508,['n'],0,left,['u'],0,1.4511346000008416,0.1,1,0,FastAcc,10,18,Woman,Left,
