withinblocktrial,block,block_repetition,rt,resp,cor,cresp,conf_press,cj,rtconf,coherence,metacognition,slow_trial,manipulation,sub,age,gender,handedness,
0,1,1,4.983433299999888,['n'],0,left,none,-99,-99,0.5,-99,0,none,7,17,Woman,Right,
1,1,1,0.9489723000001504,['n'],1,right,none,-99,-99,0.5,-99,0,none,7,17,Woman,Right,
2,1,1,0.901824999999917,['c'],1,left,none,-99,-99,0.5,-99,0,none,7,17,Woman,Right,
3,1,1,3.066641299999901,['c'],1,left,none,-99,-99,0.5,-99,0,none,7,17,Woman,Right,
4,1,1,1.0169158999997308,['n'],1,right,none,-99,-99,0.5,-99,0,none,7,17,Woman,Right,
5,1,1,0.7832776000000194,['c'],1,left,none,-99,-99,0.5,-99,0,none,7,17,Woman,Right,
6,1,1,1.2681937000002108,['c'],1,left,none,-99,-99,0.5,-99,0,none,7,17,Woman,Right,
7,1,1,1.5345984000000499,['n'],1,right,none,-99,-99,0.5,-99,0,none,7,17,Woman,Right,
8,1,1,1.000678799999605,['c'],1,left,none,-99,-99,0.5,-99,0,none,7,17,Woman,Right,
9,1,1,1.1336396000001514,['n'],1,right,none,-99,-99,0.5,-99,0,none,7,17,Woman,Right,
10,1,1,1.100545300000249,['c'],1,left,none,-99,-99,0.5,-99,0,none,7,17,Woman,Right,
11,1,1,0.8181005000001278,['n'],0,left,none,-99,-99,0.5,-99,0,none,7,17,Woman,Right,
12,1,1,1.1503923000000214,['c'],1,left,none,-99,-99,0.5,-99,0,none,7,17,Woman,Right,
13,1,1,1.6502016000004005,['n'],0,left,none,-99,-99,0.5,-99,0,none,7,17,Woman,Right,
14,1,1,0.9667342000002463,['c'],1,left,none,-99,-99,0.5,-99,0,none,7,17,Woman,Right,
15,1,1,0.6666608999998971,['n'],1,right,none,-99,-99,0.5,-99,0,none,7,17,Woman,Right,
16,1,1,0.6503374000003532,['n'],1,right,none,-99,-99,0.5,-99,0,none,7,17,Woman,Right,
17,1,1,0.799568299999919,['c'],1,left,none,-99,-99,0.5,-99,0,none,7,17,Woman,Right,
18,1,1,0.7994963000001007,['n'],1,right,none,-99,-99,0.5,-99,0,none,7,17,Woman,Right,
19,1,1,0.6835756000000401,['n'],1,right,none,-99,-99,0.5,-99,0,none,7,17,Woman,Right,
20,1,1,0.616320000000087,['n'],1,right,none,-99,-99,0.5,-99,0,none,7,17,Woman,Right,
21,1,1,1.6509682999999313,['n'],1,right,none,-99,-99,0.5,-99,0,none,7,17,Woman,Right,
22,1,1,2.7153786000003493,['c'],0,right,none,-99,-99,0.5,-99,0,none,7,17,Woman,Right,
23,1,1,0.6170345999998972,['n'],1,right,none,-99,-99,0.5,-99,0,none,7,17,Woman,Right,
0,1,2,0.651731099999779,['n'],1,right,none,-99,-99,0.5,-99,0,none,7,17,Woman,Right,
1,1,2,0.650734399999692,['n'],1,right,none,-99,-99,0.5,-99,0,none,7,17,Woman,Right,
2,1,2,0.7983674000001884,['n'],1,right,none,-99,-99,0.5,-99,0,none,7,17,Woman,Right,
3,1,2,0.632822799999758,['c'],1,left,none,-99,-99,0.5,-99,0,none,7,17,Woman,Right,
4,1,2,0.5979700000002595,['n'],1,right,none,-99,-99,0.5,-99,0,none,7,17,Woman,Right,
5,1,2,0.7838973999996597,['c'],1,left,none,-99,-99,0.5,-99,0,none,7,17,Woman,Right,
6,1,2,0.8006627999998273,['n'],1,right,none,-99,-99,0.5,-99,0,none,7,17,Woman,Right,
7,1,2,0.5998531999998704,['c'],1,left,none,-99,-99,0.5,-99,0,none,7,17,Woman,Right,
8,1,2,0.7489361000002646,['c'],1,left,none,-99,-99,0.5,-99,0,none,7,17,Woman,Right,
9,1,2,0.7679253000001154,['c'],1,left,none,-99,-99,0.5,-99,0,none,7,17,Woman,Right,
10,1,2,0.500515500000347,['c'],1,left,none,-99,-99,0.5,-99,0,none,7,17,Woman,Right,
11,1,2,0.7155238000000281,['n'],1,right,none,-99,-99,0.5,-99,0,none,7,17,Woman,Right,
12,1,2,0.8017789000000448,['n'],1,right,none,-99,-99,0.5,-99,0,none,7,17,Woman,Right,
13,1,2,0.7849276000001737,['c'],1,left,none,-99,-99,0.5,-99,0,none,7,17,Woman,Right,
14,1,2,1.08399320000035,['n'],1,right,none,-99,-99,0.5,-99,0,none,7,17,Woman,Right,
15,1,2,0.534180699999979,['c'],1,left,none,-99,-99,0.5,-99,0,none,7,17,Woman,Right,
16,1,2,0.8841277999999875,['c'],1,left,none,-99,-99,0.5,-99,0,none,7,17,Woman,Right,
17,1,2,1.5172508000000562,['c'],1,left,none,-99,-99,0.5,-99,0,none,7,17,Woman,Right,
18,1,2,1.6668566999996983,['c'],1,left,none,-99,-99,0.5,-99,0,none,7,17,Woman,Right,
19,1,2,2.549671599999783,['c'],1,left,none,-99,-99,0.5,-99,0,none,7,17,Woman,Right,
20,1,2,0.8999079999998685,['n'],1,right,none,-99,-99,0.5,-99,0,none,7,17,Woman,Right,
21,1,2,1.066081199999644,['n'],1,right,none,-99,-99,0.5,-99,0,none,7,17,Woman,Right,
22,1,2,0.7992288999998891,['n'],1,right,none,-99,-99,0.5,-99,0,none,7,17,Woman,Right,
23,1,2,0.6327258999999685,['n'],1,right,none,-99,-99,0.5,-99,0,none,7,17,Woman,Right,
0,2,1,2.2172678000001724,['n'],1,right,none,-99,-99,0.4,-99,0,none,7,17,Woman,Right,
1,2,1,0.7678556000000754,['n'],1,right,none,-99,-99,0.4,-99,0,none,7,17,Woman,Right,
2,2,1,0.7664765999998053,['n'],1,right,none,-99,-99,0.4,-99,0,none,7,17,Woman,Right,
3,2,1,1.6340626000001066,['n'],0,left,none,-99,-99,0.2,-99,0,none,7,17,Woman,Right,
4,2,1,0.8998169000001326,['c'],0,right,none,-99,-99,0.4,-99,0,none,7,17,Woman,Right,
5,2,1,1.6516145000000506,['c'],1,left,none,-99,-99,0.4,-99,0,none,7,17,Woman,Right,
6,2,1,1.5498529999999846,['c'],1,left,none,-99,-99,0.4,-99,0,none,7,17,Woman,Right,
7,2,1,5.015234299999975,x,-99,left,none,-99,-99,0.1,-99,1,none,7,17,Woman,Right,
8,2,1,0.834741699999995,['n'],0,left,none,-99,-99,0.1,-99,0,none,7,17,Woman,Right,
9,2,1,0.951625299999705,['c'],0,right,none,-99,-99,0.1,-99,0,none,7,17,Woman,Right,
10,2,1,1.051328100000319,['n'],1,right,none,-99,-99,0.1,-99,0,none,7,17,Woman,Right,
11,2,1,1.634217499999977,['c'],1,left,none,-99,-99,0.1,-99,0,none,7,17,Woman,Right,
12,2,1,0.8172889000002215,['n'],1,right,none,-99,-99,0.2,-99,0,none,7,17,Woman,Right,
13,2,1,1.133142300000145,['c'],1,left,none,-99,-99,0.2,-99,0,none,7,17,Woman,Right,
14,2,1,0.7830037000003358,['n'],1,right,none,-99,-99,0.4,-99,0,none,7,17,Woman,Right,
15,2,1,0.7343011000002662,['n'],1,right,none,-99,-99,0.4,-99,0,none,7,17,Woman,Right,
16,2,1,0.6328788999999233,['n'],1,right,none,-99,-99,0.2,-99,0,none,7,17,Woman,Right,
17,2,1,0.702908600000228,['n'],1,right,none,-99,-99,0.1,-99,0,none,7,17,Woman,Right,
18,2,1,1.2345927000001211,['c'],1,left,none,-99,-99,0.2,-99,0,none,7,17,Woman,Right,
19,2,1,0.7157538999999815,['n'],0,left,none,-99,-99,0.2,-99,0,none,7,17,Woman,Right,
20,2,1,1.2170332000000599,['c'],1,left,none,-99,-99,0.2,-99,0,none,7,17,Woman,Right,
21,2,1,1.36723690000008,['c'],1,left,none,-99,-99,0.1,-99,0,none,7,17,Woman,Right,
22,2,1,1.0325064999997267,['c'],1,left,none,-99,-99,0.2,-99,0,none,7,17,Woman,Right,
23,2,1,0.8343287999996392,['c'],0,right,none,-99,-99,0.1,-99,0,none,7,17,Woman,Right,
0,3,1,1.3181129000004148,['c'],1,left,['e'],0,1.9995114000003014,0.4,0,0,none,7,17,Woman,Right,
1,3,1,0.8182317999999213,['n'],1,right,['u'],1,0.5491862999997466,0.4,1,0,none,7,17,Woman,Right,
2,3,1,1.535057300000517,['n'],1,right,['u'],1,0.39348770000015065,0.1,1,0,none,7,17,Woman,Right,
3,3,1,1.88318899999922,['n'],1,right,['u'],1,0.42072949999965203,0.4,1,0,none,7,17,Woman,Right,
4,3,1,0.7840443999994022,['c'],1,left,['u'],1,1.2259639000003517,0.2,1,0,none,7,17,Woman,Right,
5,3,1,1.534575799999402,['c'],1,left,['u'],1,0.45049290000042674,0.4,1,0,none,7,17,Woman,Right,
6,3,1,1.7180193000003783,['c'],1,left,['u'],1,1.297916799999257,0.2,1,0,none,7,17,Woman,Right,
7,3,1,1.0010239000002912,['c'],1,left,['u'],1,0.3498203999997713,0.2,1,0,none,7,17,Woman,Right,
8,3,1,0.8854488000006313,['n'],1,right,['u'],1,0.38563580000027287,0.4,1,0,none,7,17,Woman,Right,
9,3,1,0.7184000999995988,['c'],1,left,['u'],1,0.39533990000018093,0.4,1,0,none,7,17,Woman,Right,
10,3,1,2.151514700000007,['c'],1,left,['e'],0,1.0844575999999506,0.1,0,0,none,7,17,Woman,Right,
11,3,1,1.3182595000007495,['n'],1,right,['u'],1,1.0759588999999323,0.2,1,0,none,7,17,Woman,Right,
12,3,1,3.700629100000697,['n'],1,right,['e'],0,0.8280247000002419,0.1,0,0,none,7,17,Woman,Right,
13,3,1,0.8845703000006324,['n'],1,right,['u'],1,0.5729585999997653,0.1,1,0,none,7,17,Woman,Right,
14,3,1,1.2000265999995463,['c'],1,left,['u'],1,0.9568872999998348,0.4,1,0,none,7,17,Woman,Right,
15,3,1,1.784386600000289,['n'],1,right,['u'],1,1.3336480999996638,0.2,1,0,none,7,17,Woman,Right,
16,3,1,2.2513838999993823,['c'],1,left,['e'],0,0.3647102000004452,0.2,0,0,none,7,17,Woman,Right,
17,3,1,1.6661164000006465,['n'],1,right,['u'],1,0.5142861000003904,0.1,1,0,none,7,17,Woman,Right,
18,3,1,0.9842306999998982,['n'],1,right,['u'],1,0.44384530000024824,0.1,1,0,none,7,17,Woman,Right,
19,3,1,0.8507114999993064,['c'],1,left,['u'],1,0.39894749999984924,0.2,1,0,none,7,17,Woman,Right,
20,3,1,1.4834040999994613,['n'],1,right,['u'],1,0.5707661000005828,0.2,1,0,none,7,17,Woman,Right,
21,3,1,2.5849185999995825,['c'],0,right,['e'],0,0.7859968000002482,0.1,1,0,none,7,17,Woman,Right,
22,3,1,2.817321399999855,['n'],0,left,['e'],0,0.5844176000000516,0.1,1,0,none,7,17,Woman,Right,
23,3,1,0.8659755999997287,['c'],1,left,['u'],1,0.5180738999997629,0.4,1,0,none,7,17,Woman,Right,
0,4,1,1.1847819000004165,['n'],1,right,['u'],1,0.9401214000008622,0.2,1,0,FastFast,7,17,Woman,Right,
1,4,1,2.1008342999994056,['c'],1,left,['u'],1,0.8375827999998364,0.1,1,0,FastFast,7,17,Woman,Right,
2,4,1,1.2522350999997798,['n'],1,right,['u'],1,0.5640942999998515,0.4,1,0,FastFast,7,17,Woman,Right,
3,4,1,1.200059599999804,['c'],0,right,['e'],0,0.4162759000000733,0.1,1,0,FastFast,7,17,Woman,Right,
4,4,1,1.6325228000005154,['n'],0,left,['e'],0,0.865475200000219,0.1,1,0,FastFast,7,17,Woman,Right,
5,4,1,0.8684235000000626,['c'],1,left,['e'],0,0.8779419000002235,0.4,0,0,FastFast,7,17,Woman,Right,
6,4,1,0.5849588999999469,['n'],1,right,['u'],1,0.34181940000053146,0.2,1,0,FastFast,7,17,Woman,Right,
7,4,1,0.8835354000002553,['n'],0,left,['e'],0,0.45582199999989825,0.1,1,0,FastFast,7,17,Woman,Right,
8,4,1,0.6845698999995875,['n'],0,left,['e'],0,0.6838614999996935,0.1,1,0,FastFast,7,17,Woman,Right,
9,4,1,0.6848701000008077,['c'],1,left,['u'],1,0.3273897000008219,0.4,1,0,FastFast,7,17,Woman,Right,
10,4,1,2.399315999999999,['n'],1,right,['e'],0,0.9105798999999024,0.1,0,0,FastFast,7,17,Woman,Right,
11,4,1,1.150667699999758,['c'],1,left,['e'],0,0.7988084999997227,0.4,0,0,FastFast,7,17,Woman,Right,
12,4,1,1.1007760000002236,['n'],1,right,['u'],1,0.4362759999994523,0.2,1,0,FastFast,7,17,Woman,Right,
13,4,1,0.7686582999995153,['c'],1,left,['u'],1,0.9343249999992622,0.1,1,0,FastFast,7,17,Woman,Right,
14,4,1,0.8012584999996761,['n'],0,left,['e'],0,0.6912835000002815,0.1,1,0,FastFast,7,17,Woman,Right,
15,4,1,0.7332032000003892,['n'],1,right,['u'],1,0.33399629999985336,0.2,1,0,FastFast,7,17,Woman,Right,
16,4,1,0.7996745999998893,['n'],1,right,['u'],1,0.32306360000075074,0.4,1,0,FastFast,7,17,Woman,Right,
17,4,1,0.6822340000007898,['n'],1,right,['u'],1,0.3175439999995433,0.2,1,0,FastFast,7,17,Woman,Right,
18,4,1,0.9835397000006196,['c'],1,left,['u'],1,0.8268957999998747,0.4,1,0,FastFast,7,17,Woman,Right,
19,4,1,1.066948499999853,['n'],1,right,['e'],0,0.2905534000001353,0.2,0,0,FastFast,7,17,Woman,Right,
20,4,1,0.7006523999998535,['n'],1,right,['u'],1,0.28542880000077275,0.2,1,0,FastFast,7,17,Woman,Right,
21,4,1,0.7022071999999753,['n'],1,right,['u'],1,0.3114282999995339,0.1,1,0,FastFast,7,17,Woman,Right,
22,4,1,0.9005121999998664,['c'],1,left,['e'],0,0.8579799999997704,0.4,0,0,FastFast,7,17,Woman,Right,
23,4,1,1.316609000000426,['c'],1,left,['e'],0,0.37414669999998296,0.2,0,0,FastFast,7,17,Woman,Right,
24,4,1,0.6672841999998127,['n'],1,right,['u'],1,0.8475134000000253,0.2,1,0,FastFast,7,17,Woman,Right,
25,4,1,2.9488022999994428,['n'],0,left,['e'],0,0.47356479999962175,0.1,1,0,FastFast,7,17,Woman,Right,
26,4,1,0.9489144999997734,['c'],1,left,['e'],0,0.7714692999998078,0.4,0,0,FastFast,7,17,Woman,Right,
27,4,1,2.083451999999852,['n'],1,right,['e'],0,0.5637903999995615,0.1,0,0,FastFast,7,17,Woman,Right,
28,4,1,1.5998406999997314,['c'],0,right,['e'],0,0.3827959000000192,0.2,1,0,FastFast,7,17,Woman,Right,
29,4,1,0.7500110000000859,['n'],1,right,['e'],0,0.38716260000001057,0.4,0,0,FastFast,7,17,Woman,Right,
30,4,1,0.6671317000000272,['c'],1,left,['u'],1,0.4913043000005928,0.4,1,0,FastFast,7,17,Woman,Right,
31,4,1,1.0670096000003468,['c'],1,left,['e'],0,0.7674761000007493,0.1,0,0,FastFast,7,17,Woman,Right,
32,4,1,0.934730099999797,['c'],1,left,['u'],1,0.44571819999964646,0.2,1,0,FastFast,7,17,Woman,Right,
33,4,1,0.7336175999998886,['n'],1,right,['u'],1,0.30469780000021274,0.4,1,0,FastFast,7,17,Woman,Right,
34,4,1,0.9182156999995641,['n'],1,right,['u'],1,0.6423290999991877,0.4,1,0,FastFast,7,17,Woman,Right,
35,4,1,0.7000275999998848,['n'],1,right,['u'],1,0.39991790000021865,0.4,1,0,FastFast,7,17,Woman,Right,
36,4,1,4.551022100000409,['c'],0,right,['e'],0,0.44397529999969265,0.1,1,0,FastFast,7,17,Woman,Right,
37,4,1,0.8496418000004269,['c'],1,left,['e'],0,0.31547109999974055,0.2,0,0,FastFast,7,17,Woman,Right,
38,4,1,0.5184294999999111,['n'],0,left,['e'],0,0.731704400000126,0.1,1,0,FastFast,7,17,Woman,Right,
39,4,1,1.299303300000247,['c'],1,left,['u'],1,0.6694364999993923,0.1,1,0,FastFast,7,17,Woman,Right,
40,4,1,1.235993000000235,['n'],1,right,['u'],1,0.38722950000010314,0.2,1,0,FastFast,7,17,Woman,Right,
41,4,1,0.9339097999991282,['n'],1,right,['u'],1,0.320827399999871,0.2,1,0,FastFast,7,17,Woman,Right,
42,4,1,0.7851756999998543,['c'],1,left,['e'],0,0.662847900000088,0.4,0,0,FastFast,7,17,Woman,Right,
43,4,1,1.883918900000026,['n'],1,right,['e'],0,0.9311730999997962,0.2,0,0,FastFast,7,17,Woman,Right,
44,4,1,1.134001200000057,['n'],0,left,['e'],0,0.9148972000002686,0.1,1,0,FastFast,7,17,Woman,Right,
45,4,1,0.7181292999994184,['n'],0,left,['e'],0,0.32381270000041695,0.1,1,0,FastFast,7,17,Woman,Right,
46,4,1,1.0999793000000864,['n'],1,right,['e'],0,0.23803500000030908,0.4,0,0,FastFast,7,17,Woman,Right,
47,4,1,0.7848396999997931,['n'],1,right,['e'],0,0.2311530999995739,0.2,0,0,FastFast,7,17,Woman,Right,
48,4,1,0.8002489999998943,['c'],1,left,['u'],1,0.1773985999998331,0.1,1,0,FastFast,7,17,Woman,Right,
49,4,1,0.7684449999997014,['n'],1,right,['e'],0,0.34897710000041116,0.2,0,0,FastFast,7,17,Woman,Right,
50,4,1,2.117540100000042,['n'],1,right,['e'],0,1.2767049999993105,0.1,0,0,FastFast,7,17,Woman,Right,
51,4,1,0.6846142000003965,['n'],0,left,['u'],1,0.43300790000012057,0.1,0,0,FastFast,7,17,Woman,Right,
52,4,1,0.8181850999999369,['c'],1,left,['u'],1,0.2731120999997074,0.2,1,0,FastFast,7,17,Woman,Right,
53,4,1,0.734660499999336,['n'],1,right,['u'],1,0.4115111999999499,0.4,1,0,FastFast,7,17,Woman,Right,
54,4,1,0.7171372999991945,['c'],1,left,['u'],1,0.5765125000007174,0.4,1,0,FastFast,7,17,Woman,Right,
55,4,1,0.8515569000001051,['n'],1,right,['e'],0,0.8419954000000871,0.4,0,0,FastFast,7,17,Woman,Right,
56,4,1,1.0172271999999793,['c'],1,left,['u'],1,0.3223380999997971,0.2,1,0,FastFast,7,17,Woman,Right,
57,4,1,0.8162161000000197,['n'],1,right,['u'],1,0.2641435999994428,0.2,1,0,FastFast,7,17,Woman,Right,
58,4,1,0.9835082999998122,['c'],1,left,['e'],0,0.2802977999999712,0.4,0,0,FastFast,7,17,Woman,Right,
59,4,1,1.0014283999998952,['c'],1,left,['u'],1,0.21432520000053046,0.4,1,0,FastFast,7,17,Woman,Right,
0,5,1,1.850993400000334,['n'],1,right,['u'],1,1.5711425999998028,0.4,1,0,AccFast,7,17,Woman,Right,
1,5,1,1.0006223000000318,['c'],1,left,['u'],1,2.7029261000006954,0.2,1,0,AccFast,7,17,Woman,Right,
2,5,1,1.8996707999995124,['c'],0,right,['e'],0,0.6975167000000511,0.1,1,0,AccFast,7,17,Woman,Right,
3,5,1,1.8508660000006785,['c'],1,left,['e'],0,0.3419935000001715,0.4,0,0,AccFast,7,17,Woman,Right,
4,5,1,1.0013263999999253,['c'],1,left,['u'],1,0.25872849999996106,0.2,1,0,AccFast,7,17,Woman,Right,
5,5,1,2.2672664000001532,['c'],0,right,['e'],0,0.7683931000001394,0.1,1,0,AccFast,7,17,Woman,Right,
6,5,1,1.1017945000003238,['n'],1,right,['e'],0,0.7119969000004858,0.4,0,0,AccFast,7,17,Woman,Right,
7,5,1,1.549676300000101,['n'],1,right,['u'],1,1.10382220000065,0.4,1,0,AccFast,7,17,Woman,Right,
8,5,1,0.9839195000004111,['n'],1,right,['u'],1,1.6627903999997216,0.1,1,0,AccFast,7,17,Woman,Right,
9,5,1,1.08491739999954,['c'],1,left,['u'],1,0.3719289000000572,0.2,1,0,AccFast,7,17,Woman,Right,
10,5,1,2.30115509999996,['c'],1,left,['e'],0,0.41106930000023567,0.2,0,0,AccFast,7,17,Woman,Right,
11,5,1,2.8658441999996285,['n'],1,right,['u'],1,2.956217800000559,0.1,1,0,AccFast,7,17,Woman,Right,
12,5,1,2.417768199999955,['n'],1,right,['e'],0,1.574851800000033,0.2,0,0,AccFast,7,17,Woman,Right,
13,5,1,4.449871800000437,['c'],1,left,['e'],0,2.586270799999511,0.1,0,0,AccFast,7,17,Woman,Right,
14,5,1,1.9177131999995254,['n'],1,right,['u'],1,3.943506900000102,0.4,1,0,AccFast,7,17,Woman,Right,
15,5,1,5.01713749999999,x,-99,left,none,-99,-99,0.2,-99,1,AccFast,7,17,Woman,Right,
16,5,1,0.8329671999999846,['n'],1,right,['e'],0,0.9021849000000657,0.4,0,0,AccFast,7,17,Woman,Right,
17,5,1,0.8512648000005356,['n'],1,right,['u'],1,0.7537720999998783,0.4,1,0,AccFast,7,17,Woman,Right,
18,5,1,2.9334280000002764,['n'],1,right,['e'],0,1.0732158999999228,0.2,0,0,AccFast,7,17,Woman,Right,
19,5,1,1.0504971999998816,['c'],1,left,['e'],0,0.655766500000027,0.2,0,0,AccFast,7,17,Woman,Right,
20,5,1,1.417558199999803,['n'],0,left,['e'],0,1.3424267000000327,0.4,1,0,AccFast,7,17,Woman,Right,
21,5,1,1.6004119999997783,['n'],1,right,['e'],0,1.0832934000000023,0.2,0,0,AccFast,7,17,Woman,Right,
22,5,1,0.784569499999634,['n'],1,right,['e'],0,0.9471137000000454,0.1,0,0,AccFast,7,17,Woman,Right,
23,5,1,1.3007922000006147,['n'],1,right,['u'],1,0.6036678000000393,0.2,1,0,AccFast,7,17,Woman,Right,
24,5,1,3.0824588999994376,['n'],0,left,['e'],0,1.1000606999996307,0.2,1,0,AccFast,7,17,Woman,Right,
25,5,1,1.551553199999944,['n'],0,left,['e'],0,0.675248599999577,0.1,1,0,AccFast,7,17,Woman,Right,
26,5,1,0.9847495999993043,['n'],1,right,['e'],0,0.4511719999991328,0.4,0,0,AccFast,7,17,Woman,Right,
27,5,1,1.1999204000003374,['c'],1,left,['e'],0,0.4042946999998094,0.4,0,0,AccFast,7,17,Woman,Right,
28,5,1,0.7016824000002089,['n'],1,right,['e'],0,4.057838499999889,0.1,0,0,AccFast,7,17,Woman,Right,
29,5,1,0.8847759000000224,['n'],1,right,['e'],0,1.1917078999995283,0.4,0,0,AccFast,7,17,Woman,Right,
30,5,1,1.5833996999999727,['n'],1,right,['e'],0,0.6516842000000906,0.1,0,0,AccFast,7,17,Woman,Right,
31,5,1,1.9346492000004218,['n'],0,left,['e'],0,2.725749799999903,0.2,1,0,AccFast,7,17,Woman,Right,
32,5,1,1.0348457000000053,['c'],1,left,['e'],0,1.2665308000005098,0.4,0,0,AccFast,7,17,Woman,Right,
33,5,1,0.7831685999999536,['c'],1,left,['e'],0,0.6277615999997579,0.2,0,0,AccFast,7,17,Woman,Right,
34,5,1,1.150155299999824,['n'],1,right,['e'],0,0.8475754000000961,0.4,0,0,AccFast,7,17,Woman,Right,
35,5,1,1.4011504999998579,['c'],1,left,['e'],0,0.726891400000568,0.2,0,0,AccFast,7,17,Woman,Right,
36,5,1,3.71859669999958,['c'],0,right,['e'],0,1.2240159000002677,0.1,1,0,AccFast,7,17,Woman,Right,
37,5,1,1.0851529000001392,['n'],1,right,['u'],1,2.3507393999998385,0.4,1,0,AccFast,7,17,Woman,Right,
38,5,1,1.6509850999991613,['c'],1,left,['e'],0,0.944954599999619,0.4,0,0,AccFast,7,17,Woman,Right,
39,5,1,1.1669182000005094,['c'],1,left,['e'],0,0.7351459999999861,0.1,0,0,AccFast,7,17,Woman,Right,
40,5,1,2.8013551000003645,['c'],1,left,['u'],1,1.3956201999999394,0.1,1,0,AccFast,7,17,Woman,Right,
41,5,1,0.9677834000003713,['n'],1,right,['u'],1,0.9193031999993764,0.1,1,0,AccFast,7,17,Woman,Right,
42,5,1,0.7678930000001856,['n'],1,right,['u'],1,0.7102489999997488,0.4,1,0,AccFast,7,17,Woman,Right,
43,5,1,2.950832300000002,['c'],1,left,['e'],0,0.790942300000097,0.2,0,0,AccFast,7,17,Woman,Right,
44,5,1,1.251216800000293,['n'],1,right,['e'],0,0.8399336000002222,0.1,0,0,AccFast,7,17,Woman,Right,
45,5,1,0.8682992000003651,['c'],1,left,['e'],0,0.7100215000000389,0.4,0,0,AccFast,7,17,Woman,Right,
46,5,1,1.3504530999998678,['n'],0,left,['e'],0,0.7592591000002358,0.1,1,0,AccFast,7,17,Woman,Right,
47,5,1,0.9663228999997955,['n'],1,right,['e'],0,1.0288155999996889,0.2,0,0,AccFast,7,17,Woman,Right,
48,5,1,1.017422500000066,['c'],1,left,['e'],0,0.9644816999998511,0.4,0,0,AccFast,7,17,Woman,Right,
49,5,1,0.8678609000007782,['n'],1,right,['e'],0,2.07742589999998,0.4,0,0,AccFast,7,17,Woman,Right,
50,5,1,0.750586299999668,['n'],0,left,['e'],0,0.8473775000002206,0.1,1,0,AccFast,7,17,Woman,Right,
51,5,1,2.6011797000001025,['c'],1,left,['e'],0,0.6959655000000566,0.1,0,0,AccFast,7,17,Woman,Right,
52,5,1,0.9186500999994678,['n'],1,right,['e'],0,0.8092710999999326,0.1,0,0,AccFast,7,17,Woman,Right,
53,5,1,1.3179024000000936,['n'],1,right,['e'],0,0.9349301000002015,0.2,0,0,AccFast,7,17,Woman,Right,
54,5,1,1.0347953999998936,['n'],1,right,['e'],0,1.3389341000001878,0.1,0,0,AccFast,7,17,Woman,Right,
55,5,1,0.9173184000001129,['c'],1,left,['e'],0,0.6921001000000615,0.2,0,0,AccFast,7,17,Woman,Right,
56,5,1,2.9179246999992756,['c'],1,left,['e'],0,0.8067983999999342,0.2,0,0,AccFast,7,17,Woman,Right,
57,5,1,1.01710120000007,['c'],1,left,['u'],1,2.3834344999995665,0.4,1,0,AccFast,7,17,Woman,Right,
58,5,1,0.750182799999493,['c'],1,left,['u'],1,0.7083462000000509,0.1,1,0,AccFast,7,17,Woman,Right,
59,5,1,0.6838013000005958,['c'],1,left,['e'],0,0.8790929000006145,0.2,0,0,AccFast,7,17,Woman,Right,
0,6,1,1.8165546000000177,['n'],1,right,['e'],0,2.3731823999996777,0.2,0,0,AccAcc,7,17,Woman,Right,
1,6,1,1.2844650999995793,['n'],0,left,['e'],0,0.5488593000000037,0.1,1,0,AccAcc,7,17,Woman,Right,
2,6,1,2.6000310999997964,['n'],0,left,['e'],0,1.1287074000001667,0.2,1,0,AccAcc,7,17,Woman,Right,
3,6,1,2.134237299999768,['n'],0,left,['e'],0,1.0646515999997064,0.1,1,0,AccAcc,7,17,Woman,Right,
4,6,1,1.1844025999998848,['n'],1,right,['e'],0,1.249058000000332,0.2,0,0,AccAcc,7,17,Woman,Right,
5,6,1,1.0994160000000193,['n'],1,right,['e'],0,0.8228275999999823,0.2,0,0,AccAcc,7,17,Woman,Right,
6,6,1,0.9503144000000248,['n'],0,left,['e'],0,0.8011222000004636,0.1,1,0,AccAcc,7,17,Woman,Right,
7,6,1,1.116624000000229,['n'],1,right,['e'],0,0.8393956999998409,0.4,0,0,AccAcc,7,17,Woman,Right,
8,6,1,3.4338293000000704,['n'],0,left,['e'],0,0.815462500000649,0.1,1,0,AccAcc,7,17,Woman,Right,
9,6,1,1.6662773999996716,['n'],1,right,['e'],0,0.8622261000000435,0.4,0,0,AccAcc,7,17,Woman,Right,
10,6,1,2.083631699999387,['n'],0,left,['e'],0,0.9223730000003343,0.2,1,0,AccAcc,7,17,Woman,Right,
11,6,1,2.8666024000003745,['c'],1,left,['e'],0,1.4461175000005824,0.4,0,0,AccAcc,7,17,Woman,Right,
12,6,1,4.799590300000091,['c'],1,left,['e'],0,3.2464106000006723,0.2,0,0,AccAcc,7,17,Woman,Right,
13,6,1,3.4512384999998176,['c'],1,left,['e'],0,0.9168724000001021,0.1,0,0,AccAcc,7,17,Woman,Right,
14,6,1,0.8344828999997844,['n'],1,right,['u'],1,1.0412003999999797,0.4,1,0,AccAcc,7,17,Woman,Right,
15,6,1,3.967967200000203,['c'],1,left,['e'],0,0.9235987000001842,0.2,0,0,AccAcc,7,17,Woman,Right,
16,6,1,1.0995241000000533,['n'],1,right,['e'],0,1.2297267999992982,0.4,0,0,AccAcc,7,17,Woman,Right,
17,6,1,1.785032300000239,['n'],1,right,['e'],0,1.3191915999996127,0.1,0,0,AccAcc,7,17,Woman,Right,
18,6,1,3.8342377999997552,['c'],1,left,['e'],0,1.0839716999998927,0.1,0,0,AccAcc,7,17,Woman,Right,
19,6,1,2.9343520000002172,['n'],0,left,['e'],0,1.1335302999996202,0.1,1,0,AccAcc,7,17,Woman,Right,
20,6,1,2.8503122000001895,['c'],1,left,['e'],0,1.1369469999999637,0.4,0,0,AccAcc,7,17,Woman,Right,
21,6,1,1.0183587999999872,['n'],1,right,['u'],1,1.149050900000475,0.1,1,0,AccAcc,7,17,Woman,Right,
22,6,1,1.4509588000000804,['c'],1,left,['e'],0,1.6562583000004452,0.2,0,0,AccAcc,7,17,Woman,Right,
23,6,1,3.251398600000357,['c'],1,left,['e'],0,1.1101293000001533,0.2,0,0,AccAcc,7,17,Woman,Right,
24,6,1,1.1008616999997685,['n'],1,right,['e'],0,1.2004614999996193,0.4,0,0,AccAcc,7,17,Woman,Right,
25,6,1,1.6167163999998593,['n'],1,right,['e'],0,1.26728329999969,0.4,0,0,AccAcc,7,17,Woman,Right,
26,6,1,1.7341765999999552,['n'],0,left,['e'],0,1.2766549000007217,0.1,1,0,AccAcc,7,17,Woman,Right,
27,6,1,2.068042500000047,['c'],1,left,['e'],0,1.3056808999999703,0.1,0,0,AccAcc,7,17,Woman,Right,
28,6,1,1.0656738999996378,['n'],1,right,['e'],0,1.453583499999695,0.2,0,0,AccAcc,7,17,Woman,Right,
29,6,1,1.4680224000003363,['n'],1,right,['e'],0,1.1323482000007061,0.1,0,0,AccAcc,7,17,Woman,Right,
30,6,1,0.8007702999993853,['n'],0,left,['e'],0,1.0570251999997708,0.4,1,0,AccAcc,7,17,Woman,Right,
31,6,1,0.7669818999993367,['n'],1,right,['e'],0,0.4585666000002675,0.2,0,0,AccAcc,7,17,Woman,Right,
32,6,1,0.7670803999999407,['n'],1,right,['e'],0,0.6194916000004014,0.2,0,0,AccAcc,7,17,Woman,Right,
33,6,1,1.2327111999993576,['c'],1,left,['u'],1,0.9166221000004953,0.2,1,0,AccAcc,7,17,Woman,Right,
34,6,1,0.9189962999998897,['c'],1,left,['u'],1,0.8768192999996245,0.4,1,0,AccAcc,7,17,Woman,Right,
35,6,1,1.100803299999825,['c'],1,left,['u'],1,0.5132581999996546,0.2,1,0,AccAcc,7,17,Woman,Right,
36,6,1,0.801226399999905,['n'],1,right,['e'],0,0.9101270999999542,0.2,0,0,AccAcc,7,17,Woman,Right,
37,6,1,1.8016435999998066,['n'],1,right,['e'],0,0.8846057999999175,0.1,0,0,AccAcc,7,17,Woman,Right,
38,6,1,1.2666812999996182,['n'],1,right,['e'],0,0.7216499999994994,0.2,0,0,AccAcc,7,17,Woman,Right,
39,6,1,1.2182498000001942,['n'],1,right,['e'],0,0.7105930999996417,0.1,0,0,AccAcc,7,17,Woman,Right,
40,6,1,0.9837729000000763,['n'],1,right,['e'],0,0.8215006999998877,0.1,0,0,AccAcc,7,17,Woman,Right,
41,6,1,1.0010499999998501,['n'],1,right,['e'],0,0.7664673999997831,0.4,0,0,AccAcc,7,17,Woman,Right,
42,6,1,1.7347588999991785,['n'],0,left,['e'],0,0.8608738000002631,0.1,1,0,AccAcc,7,17,Woman,Right,
43,6,1,0.7176847000000635,['n'],0,left,['e'],0,0.48194100000000617,0.1,1,0,AccAcc,7,17,Woman,Right,
44,6,1,0.6001951999996891,['n'],0,left,['e'],0,0.5836990999996488,0.2,1,0,AccAcc,7,17,Woman,Right,
45,6,1,1.0174888999999894,['n'],1,right,['e'],0,0.5704277000004367,0.4,0,0,AccAcc,7,17,Woman,Right,
46,6,1,1.7830140000005485,['c'],1,left,['u'],1,1.422435499999665,0.4,1,0,AccAcc,7,17,Woman,Right,
47,6,1,2.83461940000052,['c'],0,right,['e'],0,0.6155020999995031,0.4,1,0,AccAcc,7,17,Woman,Right,
48,6,1,1.1164064000004146,['n'],1,right,['e'],0,0.5010798000002978,0.4,0,0,AccAcc,7,17,Woman,Right,
49,6,1,1.5849428000001353,['c'],1,left,['e'],0,1.6186200000001918,0.4,0,0,AccAcc,7,17,Woman,Right,
50,6,1,1.0179268000001684,['n'],1,right,['e'],0,0.5875973000001977,0.1,0,0,AccAcc,7,17,Woman,Right,
51,6,1,1.0179652999995596,['n'],1,right,['e'],0,0.47758080000039627,0.2,0,0,AccAcc,7,17,Woman,Right,
52,6,1,2.067602699999952,['c'],0,right,['e'],0,0.6364548999999897,0.1,1,0,AccAcc,7,17,Woman,Right,
53,6,1,0.7508318000000145,['n'],1,right,['e'],0,0.5659107000001313,0.4,0,0,AccAcc,7,17,Woman,Right,
54,6,1,0.7669384999999238,['c'],1,left,['u'],1,0.46674720000009984,0.4,1,0,AccAcc,7,17,Woman,Right,
55,6,1,1.0660249000002295,['n'],0,left,['e'],0,0.36046410000017204,0.2,1,0,AccAcc,7,17,Woman,Right,
56,6,1,1.3158923999999388,['c'],1,left,['e'],0,1.0649635999998281,0.4,0,0,AccAcc,7,17,Woman,Right,
57,6,1,0.8012846000001446,['n'],1,right,['e'],0,0.7990262000002986,0.1,0,0,AccAcc,7,17,Woman,Right,
58,6,1,0.8854389999996783,['c'],1,left,['e'],0,0.6227493000005779,0.2,0,0,AccAcc,7,17,Woman,Right,
59,6,1,0.8503064999995331,['n'],1,right,['e'],0,0.7422638999996707,0.4,0,0,AccAcc,7,17,Woman,Right,
0,7,1,1.8164894000001368,['n'],1,right,['e'],0,1.0109227999992072,0.4,0,0,FastAcc,7,17,Woman,Right,
1,7,1,0.8673539000001256,['n'],1,right,['e'],0,0.23433420000037586,0.4,0,0,FastAcc,7,17,Woman,Right,
2,7,1,2.1004863999996815,['c'],0,right,['e'],0,0.398638700000447,0.1,1,0,FastAcc,7,17,Woman,Right,
3,7,1,0.7495985999994446,['n'],1,right,['u'],1,0.33971500000006927,0.4,1,0,FastAcc,7,17,Woman,Right,
4,7,1,0.683593299999302,['n'],1,right,['u'],1,0.5412432000002809,0.4,1,0,FastAcc,7,17,Woman,Right,
5,7,1,0.933399499999723,['c'],0,right,['e'],0,0.4682582999994338,0.1,1,0,FastAcc,7,17,Woman,Right,
6,7,1,0.6677533000001858,['n'],0,left,['u'],1,0.5212142000000313,0.2,0,0,FastAcc,7,17,Woman,Right,
7,7,1,0.5501746999998431,['c'],1,left,['e'],0,0.3853399999998146,0.4,0,0,FastAcc,7,17,Woman,Right,
8,7,1,0.6351273000000219,['c'],1,left,['e'],0,0.42559849999997823,0.4,0,0,FastAcc,7,17,Woman,Right,
9,7,1,0.7835982999995394,['c'],0,right,['e'],0,0.34865090000039345,0.1,1,0,FastAcc,7,17,Woman,Right,
10,7,1,1.3324343000003864,['c'],1,left,['e'],0,0.4282610999998724,0.4,0,0,FastAcc,7,17,Woman,Right,
11,7,1,1.2669967000001634,['c'],1,left,['e'],0,0.3152117999998154,0.2,0,0,FastAcc,7,17,Woman,Right,
12,7,1,0.8322802000002412,['n'],1,right,['u'],1,0.7988014000002295,0.4,1,0,FastAcc,7,17,Woman,Right,
13,7,1,0.9166495000008581,['n'],0,left,['e'],0,0.49298089999956574,0.1,1,0,FastAcc,7,17,Woman,Right,
14,7,1,0.8995700999994369,['n'],0,left,['u'],1,0.7595413999997618,0.2,0,0,FastAcc,7,17,Woman,Right,
15,7,1,0.7849730999996609,['n'],1,right,['u'],1,0.4277732000000469,0.2,1,0,FastAcc,7,17,Woman,Right,
16,7,1,0.7496162000006734,['n'],1,right,['u'],1,0.4324778999998671,0.4,1,0,FastAcc,7,17,Woman,Right,
17,7,1,0.8169121000000814,['c'],1,left,['e'],0,0.4473418000006859,0.4,0,0,FastAcc,7,17,Woman,Right,
18,7,1,0.5824858999994831,['n'],0,left,['u'],1,0.5857015000001411,0.2,0,0,FastAcc,7,17,Woman,Right,
19,7,1,0.7992017000005944,['n'],1,right,['u'],1,0.48464030000013736,0.2,1,0,FastAcc,7,17,Woman,Right,
20,7,1,1.08283130000018,['c'],1,left,['e'],0,0.552097099999628,0.2,0,0,FastAcc,7,17,Woman,Right,
21,7,1,2.717238699999143,['c'],0,right,['e'],0,0.7120781000003262,0.4,1,0,FastAcc,7,17,Woman,Right,
22,7,1,2.832905100000062,['n'],0,left,['e'],0,0.38114760000007664,0.2,1,0,FastAcc,7,17,Woman,Right,
23,7,1,0.7177012000001923,['c'],1,left,['e'],0,0.4979874999999083,0.1,0,0,FastAcc,7,17,Woman,Right,
24,7,1,0.8671374000005017,['c'],1,left,['e'],0,0.4631280000003244,0.4,0,0,FastAcc,7,17,Woman,Right,
25,7,1,1.0330622000001313,['c'],0,right,['e'],0,0.5015638000004401,0.1,1,0,FastAcc,7,17,Woman,Right,
26,7,1,1.0346846000002188,['c'],1,left,['e'],0,0.4732260999999198,0.1,0,0,FastAcc,7,17,Woman,Right,
27,7,1,0.7661002999993798,['n'],0,left,['e'],0,0.44316669999989244,0.1,1,0,FastAcc,7,17,Woman,Right,
28,7,1,1.1011828999999125,['c'],1,left,['e'],0,0.5109247999998843,0.2,0,0,FastAcc,7,17,Woman,Right,
29,7,1,1.066484599999967,['c'],1,left,['e'],0,0.6753685000003316,0.4,0,0,FastAcc,7,17,Woman,Right,
30,7,1,0.6839830999997503,['n'],1,right,['e'],0,0.46293789999981527,0.2,0,0,FastAcc,7,17,Woman,Right,
31,7,1,0.7675110999998651,['n'],1,right,['e'],0,0.38363140000001295,0.4,0,0,FastAcc,7,17,Woman,Right,
32,7,1,0.8670802000006006,['c'],1,left,['u'],1,1.7117959000006522,0.1,1,0,FastAcc,7,17,Woman,Right,
33,7,1,0.7502301000004081,['n'],1,right,['e'],0,0.5598315999995975,0.2,0,0,FastAcc,7,17,Woman,Right,
34,7,1,0.7511769999991884,['c'],1,left,['e'],0,0.8139250000003813,0.1,0,0,FastAcc,7,17,Woman,Right,
35,7,1,0.7516918000001169,['n'],1,right,['e'],0,0.6576390999998694,0.1,0,0,FastAcc,7,17,Woman,Right,
36,7,1,0.7674692000000505,['c'],1,left,['e'],0,1.051198199999817,0.1,0,0,FastAcc,7,17,Woman,Right,
37,7,1,0.7679637000001094,['c'],1,left,['e'],0,0.4378933000007237,0.1,0,0,FastAcc,7,17,Woman,Right,
38,7,1,1.217503800000486,['n'],1,right,['e'],0,0.6931392000005872,0.2,0,0,FastAcc,7,17,Woman,Right,
39,7,1,0.7166963999998188,['n'],1,right,['e'],0,0.4794256999994104,0.4,0,0,FastAcc,7,17,Woman,Right,
40,7,1,1.3503153999999995,['n'],1,right,['e'],0,0.4403323000005912,0.2,0,0,FastAcc,7,17,Woman,Right,
41,7,1,1.352285199999642,['n'],1,right,['e'],0,0.6115346999995381,0.2,0,0,FastAcc,7,17,Woman,Right,
42,7,1,0.8683946000001015,['c'],0,right,['e'],0,0.47506890000022395,0.2,1,0,FastAcc,7,17,Woman,Right,
43,7,1,0.7345675999995365,['n'],0,left,['e'],0,0.43012829999952373,0.2,1,0,FastAcc,7,17,Woman,Right,
44,7,1,0.716088199999831,['c'],0,right,['e'],0,0.41885629999978846,0.1,1,0,FastAcc,7,17,Woman,Right,
45,7,1,2.1683819999998377,['n'],0,left,['e'],0,0.34846179999931337,0.1,1,0,FastAcc,7,17,Woman,Right,
46,7,1,0.9328409999998257,['c'],1,left,['e'],0,0.3961550999993051,0.4,0,0,FastAcc,7,17,Woman,Right,
47,7,1,1.034831299999496,['c'],1,left,['e'],0,0.34165389999998297,0.2,0,0,FastAcc,7,17,Woman,Right,
48,7,1,0.6674616000000242,['n'],1,right,['e'],0,0.3825755999996545,0.4,0,0,FastAcc,7,17,Woman,Right,
49,7,1,1.2345950000008088,['c'],0,right,['e'],0,0.33697900000061054,0.1,1,0,FastAcc,7,17,Woman,Right,
50,7,1,0.7668076999998448,['c'],1,left,['e'],0,0.37545680000039283,0.1,0,0,FastAcc,7,17,Woman,Right,
51,7,1,1.8005229999998846,['c'],1,left,['e'],0,0.4183436999992409,0.1,0,0,FastAcc,7,17,Woman,Right,
52,7,1,1.8665320999998585,['c'],1,left,['e'],0,0.5216186999996353,0.2,0,0,FastAcc,7,17,Woman,Right,
53,7,1,2.183998200000133,['c'],1,left,['e'],0,0.479750000000422,0.1,0,0,FastAcc,7,17,Woman,Right,
54,7,1,0.9010146000000532,['n'],1,right,['u'],1,0.8584997999996631,0.1,1,0,FastAcc,7,17,Woman,Right,
55,7,1,0.6839875999994547,['n'],1,right,['u'],1,0.35140620000038325,0.4,1,0,FastAcc,7,17,Woman,Right,
56,7,1,0.8004431000008481,['n'],1,right,['u'],1,0.49974420000035025,0.4,1,0,FastAcc,7,17,Woman,Right,
57,7,1,0.9000834999997096,['c'],1,left,['u'],1,0.4626626999997825,0.2,1,0,FastAcc,7,17,Woman,Right,
58,7,1,0.6334402000002228,['n'],1,right,['u'],1,0.48514299999988,0.4,1,0,FastAcc,7,17,Woman,Right,
59,7,1,1.2839750000002823,['n'],1,right,['u'],1,0.36782320000020263,0.2,1,0,FastAcc,7,17,Woman,Right,
0,8,1,1.067895299999691,['n'],1,right,['u'],1,0.5498674000000392,0.4,1,0,FastFast,7,17,Woman,Right,
1,8,1,0.8180295000001934,['c'],1,left,['e'],0,0.6414248999999472,0.1,0,0,FastFast,7,17,Woman,Right,
2,8,1,0.9666954000003898,['c'],1,left,['e'],0,0.4200639000000592,0.2,0,0,FastFast,7,17,Woman,Right,
3,8,1,0.8190043000004152,['c'],1,left,['e'],0,0.3888191999994888,0.1,0,0,FastFast,7,17,Woman,Right,
4,8,1,0.6681820000003427,['n'],1,right,['e'],0,0.3809315999997125,0.2,0,0,FastFast,7,17,Woman,Right,
5,8,1,1.2173069000000396,['c'],1,left,['e'],0,1.215917300000001,0.1,0,0,FastFast,7,17,Woman,Right,
6,8,1,0.551368999999795,['n'],1,right,['u'],1,0.6508111000002827,0.4,1,0,FastFast,7,17,Woman,Right,
7,8,1,0.7343487000007372,['c'],1,left,['u'],1,0.26186329999927693,0.2,1,0,FastFast,7,17,Woman,Right,
8,8,1,0.7834608000002845,['c'],1,left,['u'],1,0.3500350999993316,0.4,1,0,FastFast,7,17,Woman,Right,
9,8,1,0.8497346000003745,['c'],0,right,['e'],0,0.43293350000021746,0.1,1,0,FastFast,7,17,Woman,Right,
10,8,1,1.5666321999997308,['c'],1,left,['u'],1,0.4351041999998415,0.4,1,0,FastFast,7,17,Woman,Right,
11,8,1,2.0180349000002025,['n'],1,right,['e'],0,0.5949326999998448,0.1,0,0,FastFast,7,17,Woman,Right,
12,8,1,0.917673900000409,['n'],1,right,['u'],1,0.6806268000000273,0.2,1,0,FastFast,7,17,Woman,Right,
13,8,1,0.8172221000004356,['c'],1,left,['u'],1,0.6710399000003235,0.4,1,0,FastFast,7,17,Woman,Right,
14,8,1,1.0179785000000265,['c'],0,right,['u'],1,0.3820069000003059,0.2,0,0,FastFast,7,17,Woman,Right,
15,8,1,0.9847577999998975,['c'],0,right,['u'],1,0.44136689999959344,0.1,0,0,FastFast,7,17,Woman,Right,
16,8,1,1.0840601999998398,['n'],1,right,['e'],0,0.7832496000000901,0.2,0,0,FastFast,7,17,Woman,Right,
17,8,1,0.9011731000000509,['c'],1,left,['e'],0,0.5259495000000243,0.4,0,0,FastFast,7,17,Woman,Right,
18,8,1,1.0342652000008457,['c'],1,left,['e'],0,0.467350400000214,0.4,0,0,FastFast,7,17,Woman,Right,
19,8,1,0.8509266999999454,['c'],1,left,['e'],0,0.3838960000002771,0.4,0,0,FastFast,7,17,Woman,Right,
20,8,1,1.083944199999678,['n'],1,right,['e'],0,0.36001889999988634,0.1,0,0,FastFast,7,17,Woman,Right,
21,8,1,1.0175348000002487,['c'],1,left,['u'],1,0.38708479999968404,0.2,1,0,FastFast,7,17,Woman,Right,
22,8,1,0.9003851999996186,['n'],1,right,['u'],1,0.35412950000045385,0.4,1,0,FastFast,7,17,Woman,Right,
23,8,1,1.033311400000457,['n'],1,right,['u'],1,0.350496000000021,0.2,1,0,FastFast,7,17,Woman,Right,
24,8,1,0.7497852999995303,['n'],1,right,['u'],1,0.4201976000003924,0.4,1,0,FastFast,7,17,Woman,Right,
25,8,1,0.7362205999997968,['n'],1,right,['u'],1,0.29595810000046185,0.4,1,0,FastFast,7,17,Woman,Right,
26,8,1,0.7172583000001396,['c'],1,left,['u'],1,0.8980864999994083,0.4,1,0,FastFast,7,17,Woman,Right,
27,8,1,0.8185774999992645,['n'],1,right,['u'],1,0.4147817999992185,0.1,1,0,FastFast,7,17,Woman,Right,
28,8,1,0.8169156000003568,['c'],1,left,['u'],1,0.3197341000004599,0.4,1,0,FastFast,7,17,Woman,Right,
29,8,1,0.8333822999993572,['c'],1,left,['u'],1,0.30866340000011405,0.1,1,0,FastFast,7,17,Woman,Right,
30,8,1,1.216320800000176,['n'],0,left,['u'],1,0.3780159999996613,0.2,0,0,FastFast,7,17,Woman,Right,
31,8,1,0.7506389000000127,['n'],1,right,['u'],1,0.351213099999768,0.1,1,0,FastFast,7,17,Woman,Right,
32,8,1,0.7657924000004641,['c'],1,left,['u'],1,0.3101483999998891,0.1,1,0,FastFast,7,17,Woman,Right,
33,8,1,0.8672024999996211,['n'],0,left,['u'],1,0.2971481999993557,0.4,0,0,FastFast,7,17,Woman,Right,
34,8,1,0.8665536000007705,['n'],1,right,['e'],0,0.5412425000004077,0.4,0,0,FastFast,7,17,Woman,Right,
35,8,1,1.3340620999997554,['c'],1,left,['e'],0,0.5476916000006895,0.1,0,0,FastFast,7,17,Woman,Right,
36,8,1,5.000381799999559,x,-99,right,none,-99,-99,0.1,-99,1,FastFast,7,17,Woman,Right,
37,8,1,0.9848874999997861,['n'],0,left,['e'],0,0.7393100999997841,0.2,1,0,FastFast,7,17,Woman,Right,
38,8,1,0.7846589000000677,['n'],1,right,['e'],0,0.8089665000006789,0.2,0,0,FastFast,7,17,Woman,Right,
39,8,1,1.1343943000001673,['c'],1,left,['e'],0,0.5099585999996634,0.1,0,0,FastFast,7,17,Woman,Right,
40,8,1,0.6339313000007678,['n'],1,right,['e'],0,0.29120379999949364,0.2,0,0,FastFast,7,17,Woman,Right,
41,8,1,0.7660592000001998,['n'],1,right,['u'],1,0.3966040000004796,0.1,1,0,FastFast,7,17,Woman,Right,
42,8,1,0.9344307000001209,['c'],1,left,['u'],1,0.4248498999995718,0.2,1,0,FastFast,7,17,Woman,Right,
43,8,1,1.2324109000001044,['n'],1,right,['e'],0,0.5051564000004873,0.2,0,0,FastFast,7,17,Woman,Right,
44,8,1,0.99973510000018,['c'],1,left,['e'],0,0.5121392000000924,0.4,0,0,FastFast,7,17,Woman,Right,
45,8,1,1.1170800999998391,['n'],1,right,['e'],0,0.5764312000001155,0.4,0,0,FastFast,7,17,Woman,Right,
46,8,1,0.9019798999997874,['c'],1,left,['e'],0,0.6478679000001648,0.4,0,0,FastFast,7,17,Woman,Right,
47,8,1,0.616693199999645,['n'],1,right,['u'],1,0.5521862999994482,0.2,1,0,FastFast,7,17,Woman,Right,
48,8,1,0.8669674000002487,['c'],1,left,['u'],1,0.3857625000000553,0.2,1,0,FastFast,7,17,Woman,Right,
49,8,1,1.0003272000003562,['c'],1,left,['u'],1,0.39667980000012903,0.1,1,0,FastFast,7,17,Woman,Right,
50,8,1,0.8664839000002758,['n'],1,right,['u'],1,0.3803511999994953,0.4,1,0,FastFast,7,17,Woman,Right,
51,8,1,1.0016687999996066,['n'],1,right,['e'],0,0.390539500000159,0.2,0,0,FastFast,7,17,Woman,Right,
52,8,1,0.8516887999994651,['n'],1,right,['e'],0,0.5514905999998518,0.1,0,0,FastFast,7,17,Woman,Right,
53,8,1,1.4497488000006342,['n'],1,right,['u'],1,0.5866075000003548,0.2,1,0,FastFast,7,17,Woman,Right,
54,8,1,1.2844261999998707,['c'],1,left,['u'],1,0.78554720000011,0.2,1,0,FastFast,7,17,Woman,Right,
55,8,1,0.6333742000006168,['n'],1,right,['u'],1,0.44307800000024145,0.1,1,0,FastFast,7,17,Woman,Right,
56,8,1,1.2678821999998036,['c'],1,left,['e'],0,0.4416000000001077,0.1,0,0,FastFast,7,17,Woman,Right,
57,8,1,0.817114099999344,['c'],1,left,['u'],1,0.3619669999998223,0.2,1,0,FastFast,7,17,Woman,Right,
58,8,1,3.4510834000002433,['n'],1,right,['e'],0,0.7717008999998143,0.1,0,0,FastFast,7,17,Woman,Right,
59,8,1,0.8841167999999016,['c'],1,left,['u'],1,0.33998239999982616,0.4,1,0,FastFast,7,17,Woman,Right,
0,9,1,1.4178248999996867,['n'],0,left,['e'],0,0.8073647999999594,0.1,1,0,AccFast,7,17,Woman,Right,
1,9,1,0.7677628999999797,['n'],1,right,['u'],1,0.8430713999996442,0.4,1,0,AccFast,7,17,Woman,Right,
2,9,1,2.101242700000512,['c'],1,left,['u'],1,2.135979900000166,0.2,1,0,AccFast,7,17,Woman,Right,
3,9,1,1.68277020000005,['c'],0,right,['e'],0,1.0272242000000915,0.2,1,0,AccFast,7,17,Woman,Right,
4,9,1,0.8515988999997717,['n'],1,right,['e'],0,0.6175677000001087,0.4,0,0,AccFast,7,17,Woman,Right,
5,9,1,0.7679158000000825,['c'],1,left,['e'],0,0.9485804999994798,0.4,0,0,AccFast,7,17,Woman,Right,
6,9,1,0.8506121000000348,['n'],0,left,['u'],1,0.9277034999995522,0.2,0,0,AccFast,7,17,Woman,Right,
7,9,1,0.7329320999997435,['c'],1,left,['u'],1,0.5117812999997113,0.4,1,0,AccFast,7,17,Woman,Right,
8,9,1,0.7168173000000024,['n'],1,right,['u'],1,0.7053980000000593,0.4,1,0,AccFast,7,17,Woman,Right,
9,9,1,0.9510625000002619,['n'],1,right,['e'],0,0.33738200000061624,0.1,0,0,AccFast,7,17,Woman,Right,
10,9,1,1.166988500000116,['n'],1,right,['e'],0,0.4719089999998687,0.4,0,0,AccFast,7,17,Woman,Right,
11,9,1,1.4678139000006922,['c'],1,left,['e'],0,0.3962452999994639,0.1,0,0,AccFast,7,17,Woman,Right,
12,9,1,1.683037499999955,['c'],0,right,['e'],0,0.3960501000001386,0.1,1,0,AccFast,7,17,Woman,Right,
13,9,1,0.7676716999994824,['c'],1,left,['e'],0,0.606755300000259,0.4,0,0,AccFast,7,17,Woman,Right,
14,9,1,1.0672673999997642,['n'],1,right,['u'],1,0.6384797999999137,0.4,1,0,AccFast,7,17,Woman,Right,
15,9,1,1.034743499999422,['n'],1,right,['e'],0,0.31808989999990445,0.4,0,0,AccFast,7,17,Woman,Right,
16,9,1,1.7165514999996958,['n'],0,left,['e'],0,0.4958718999996563,0.2,1,0,AccFast,7,17,Woman,Right,
17,9,1,1.6512493999998696,['n'],1,right,['e'],0,0.5402894999997443,0.2,0,0,AccFast,7,17,Woman,Right,
18,9,1,2.034529300000031,['c'],1,left,['e'],0,0.6792003000000477,0.4,0,0,AccFast,7,17,Woman,Right,
19,9,1,0.8673342000001867,['n'],1,right,['u'],1,0.9882736000008663,0.2,1,0,AccFast,7,17,Woman,Right,
20,9,1,0.9335092000001168,['n'],1,right,['e'],0,0.5771132999998372,0.1,0,0,AccFast,7,17,Woman,Right,
21,9,1,1.7185372999992978,['c'],1,left,['e'],0,0.8732873999997537,0.1,0,0,AccFast,7,17,Woman,Right,
22,9,1,1.0678626999997505,['c'],1,left,['e'],0,0.5251683999995294,0.1,0,0,AccFast,7,17,Woman,Right,
23,9,1,0.8166704999994181,['c'],1,left,['e'],0,0.42692910000005213,0.4,0,0,AccFast,7,17,Woman,Right,
24,9,1,0.75154670000029,['n'],1,right,['u'],1,0.7496704000004684,0.2,1,0,AccFast,7,17,Woman,Right,
25,9,1,1.284579300000587,['c'],0,right,['e'],0,0.54266860000007,0.1,1,0,AccFast,7,17,Woman,Right,
26,9,1,1.0851282000003266,['n'],0,left,['e'],0,0.52855129999989,0.1,1,0,AccFast,7,17,Woman,Right,
27,9,1,1.0182550999998057,['c'],1,left,['e'],0,0.5807456000002276,0.1,0,0,AccFast,7,17,Woman,Right,
28,9,1,0.6512879000001703,['n'],1,right,['e'],0,0.40557239999998274,0.1,0,0,AccFast,7,17,Woman,Right,
29,9,1,1.0510432000000947,['c'],0,right,['e'],0,0.4298539000001256,0.1,1,0,AccFast,7,17,Woman,Right,
30,9,1,0.9510951999991448,['c'],1,left,['e'],0,0.34561519999988377,0.2,0,0,AccFast,7,17,Woman,Right,
31,9,1,1.435359299999618,['c'],1,left,['u'],1,0.6443269999999757,0.2,1,0,AccFast,7,17,Woman,Right,
32,9,1,1.3013466000002154,['c'],1,left,['u'],1,0.3609111000005214,0.2,1,0,AccFast,7,17,Woman,Right,
33,9,1,1.3503167999997459,['n'],1,right,['e'],0,0.3122503000004144,0.2,0,0,AccFast,7,17,Woman,Right,
34,9,1,0.7687087000003885,['n'],0,left,['e'],0,0.3025703000002977,0.1,1,0,AccFast,7,17,Woman,Right,
35,9,1,1.3515156000003117,['n'],1,right,['e'],0,0.2709411000005275,0.2,0,0,AccFast,7,17,Woman,Right,
36,9,1,0.901525600000241,['c'],1,left,['e'],0,0.9464466999997967,0.4,0,0,AccFast,7,17,Woman,Right,
37,9,1,1.017659399999502,['c'],1,left,['e'],0,0.3751036000003296,0.4,0,0,AccFast,7,17,Woman,Right,
38,9,1,0.9503714000002219,['n'],0,left,['e'],0,0.26018800000019837,0.1,1,0,AccFast,7,17,Woman,Right,
39,9,1,0.9514140000001134,['n'],1,right,['e'],0,0.2780400000001464,0.4,0,0,AccFast,7,17,Woman,Right,
40,9,1,1.4013040999998339,['c'],1,left,['e'],0,0.5170672000003833,0.2,0,0,AccFast,7,17,Woman,Right,
41,9,1,0.9006485999998404,['n'],1,right,['e'],0,0.3025607999998101,0.4,0,0,AccFast,7,17,Woman,Right,
42,9,1,1.1181925999999294,['c'],1,left,['e'],0,0.3922450000000026,0.1,0,0,AccFast,7,17,Woman,Right,
43,9,1,1.018071499999678,['n'],1,right,['e'],0,0.242562800000087,0.4,0,0,AccFast,7,17,Woman,Right,
44,9,1,1.2679305000001477,['c'],1,left,['e'],0,0.36090519999925164,0.2,0,0,AccFast,7,17,Woman,Right,
45,9,1,0.9521181999998589,['n'],1,right,['e'],0,0.35913019999952667,0.1,0,0,AccFast,7,17,Woman,Right,
46,9,1,1.4667074999997567,['n'],1,right,['u'],1,0.38480710000021645,0.2,1,0,AccFast,7,17,Woman,Right,
47,9,1,1.118180200000097,['c'],1,left,['u'],1,0.2951263000004474,0.2,1,0,AccFast,7,17,Woman,Right,
48,9,1,0.9178316999996241,['n'],1,right,['u'],1,0.329569999999876,0.4,1,0,AccFast,7,17,Woman,Right,
49,9,1,1.0510769000002256,['n'],1,right,['e'],0,0.6128854999997202,0.2,0,0,AccFast,7,17,Woman,Right,
50,9,1,1.1339412999996057,['c'],0,right,['e'],0,0.3838861000003817,0.1,1,0,AccFast,7,17,Woman,Right,
51,9,1,0.9340890000003128,['n'],1,right,['e'],0,0.3178662999998778,0.4,0,0,AccFast,7,17,Woman,Right,
52,9,1,0.7826871999996001,['c'],1,left,['e'],0,0.4051005000001169,0.4,0,0,AccFast,7,17,Woman,Right,
53,9,1,0.8341649999993024,['n'],1,right,['e'],0,0.27653860000009445,0.4,0,0,AccFast,7,17,Woman,Right,
54,9,1,1.7180238999999347,['c'],1,left,['e'],0,0.4238752999999633,0.2,0,0,AccFast,7,17,Woman,Right,
55,9,1,0.8517640999998548,['n'],1,right,['e'],0,0.34325489999991987,0.2,0,0,AccFast,7,17,Woman,Right,
56,9,1,1.2677567999999155,['n'],0,left,['e'],0,0.31373900000016874,0.1,1,0,AccFast,7,17,Woman,Right,
57,9,1,1.1192359000006036,['n'],0,left,['e'],0,0.4828762999995888,0.1,1,0,AccFast,7,17,Woman,Right,
58,9,1,1.3330991000002541,['n'],1,right,['e'],0,0.6858007999999245,0.1,0,0,AccFast,7,17,Woman,Right,
59,9,1,1.6165634999997565,['n'],0,left,['e'],0,0.596070100000361,0.2,1,0,AccFast,7,17,Woman,Right,
0,10,1,1.5841568000005282,['c'],1,left,['e'],0,0.9446436999996877,0.4,0,0,AccAcc,7,17,Woman,Right,
1,10,1,0.9513666000002559,['n'],1,right,['e'],0,0.7758444999999483,0.2,0,0,AccAcc,7,17,Woman,Right,
2,10,1,0.7333753000002616,['c'],1,left,['u'],1,0.35098370000014256,0.4,1,0,AccAcc,7,17,Woman,Right,
3,10,1,0.9853414999997767,['n'],1,right,['u'],1,0.8597861999996894,0.4,1,0,AccAcc,7,17,Woman,Right,
4,10,1,0.9013851999998224,['c'],1,left,['u'],1,0.503040399999918,0.1,1,0,AccAcc,7,17,Woman,Right,
5,10,1,1.4325600000001941,['c'],1,left,['e'],0,0.5573067999994237,0.4,0,0,AccAcc,7,17,Woman,Right,
6,10,1,1.7329509000001053,['n'],1,right,['u'],1,1.1084787999998298,0.2,1,0,AccAcc,7,17,Woman,Right,
7,10,1,0.8191458000001148,['c'],1,left,['u'],1,0.40897769999992306,0.4,1,0,AccAcc,7,17,Woman,Right,
8,10,1,1.0017127000000983,['n'],1,right,['e'],0,0.7391030999997383,0.1,0,0,AccAcc,7,17,Woman,Right,
9,10,1,0.9003035999994609,['c'],0,right,['e'],0,0.9481909000005544,0.1,1,0,AccAcc,7,17,Woman,Right,
10,10,1,1.517561999999998,['c'],1,left,['e'],0,0.6117512999999235,0.2,0,0,AccAcc,7,17,Woman,Right,
11,10,1,0.7342066000001068,['n'],1,right,['e'],0,0.30380369999966206,0.2,0,0,AccAcc,7,17,Woman,Right,
12,10,1,0.868362199999865,['c'],1,left,['u'],1,0.6929949000004854,0.4,1,0,AccAcc,7,17,Woman,Right,
13,10,1,1.4674065999997765,['c'],1,left,['e'],0,0.5612842000000455,0.1,0,0,AccAcc,7,17,Woman,Right,
14,10,1,2.383114100000057,['n'],1,right,['e'],0,3.118515099999968,0.1,0,0,AccAcc,7,17,Woman,Right,
15,10,1,1.7178070999998454,['c'],1,left,['e'],0,0.9903869000008854,0.1,0,0,AccAcc,7,17,Woman,Right,
16,10,1,1.000907499999812,['c'],1,left,['e'],0,0.4013953000003312,0.2,0,0,AccAcc,7,17,Woman,Right,
17,10,1,0.917378699999972,['n'],1,right,['e'],0,0.3668777000002592,0.1,0,0,AccAcc,7,17,Woman,Right,
18,10,1,0.9164913999993587,['n'],1,right,['e'],0,0.4461148000000321,0.4,0,0,AccAcc,7,17,Woman,Right,
19,10,1,0.800683399999798,['n'],1,right,['e'],0,0.333900800000265,0.2,0,0,AccAcc,7,17,Woman,Right,
20,10,1,1.600658100000146,['c'],1,left,['e'],0,0.6114384999991671,0.4,0,0,AccAcc,7,17,Woman,Right,
21,10,1,1.101389599999493,['n'],1,right,['e'],0,0.4653530999994473,0.1,0,0,AccAcc,7,17,Woman,Right,
22,10,1,0.9510667000004105,['n'],1,right,['e'],0,0.7791046000002098,0.2,0,0,AccAcc,7,17,Woman,Right,
23,10,1,0.7851375000000189,['n'],1,right,['e'],0,0.46262539999952423,0.2,0,0,AccAcc,7,17,Woman,Right,
24,10,1,1.0681806000002325,['n'],1,right,['e'],0,0.46771219999936875,0.4,0,0,AccAcc,7,17,Woman,Right,
25,10,1,0.8512501000004704,['n'],1,right,['u'],1,0.2571730999998181,0.4,1,0,AccAcc,7,17,Woman,Right,
26,10,1,0.7334860000000845,['c'],1,left,['u'],1,0.7323050000004514,0.2,1,0,AccAcc,7,17,Woman,Right,
27,10,1,1.0516624000001684,['n'],1,right,['u'],1,0.43893949999983306,0.1,1,0,AccAcc,7,17,Woman,Right,
28,10,1,0.9673759000006612,['c'],1,left,['u'],1,0.5297179999997752,0.2,1,0,AccAcc,7,17,Woman,Right,
29,10,1,1.5177268000006734,['n'],0,left,['e'],0,0.2575101000002178,0.1,1,0,AccAcc,7,17,Woman,Right,
30,10,1,1.1176775000003545,['n'],1,right,['e'],0,1.373282300000028,0.4,0,0,AccAcc,7,17,Woman,Right,
31,10,1,0.9506162999996377,['n'],1,right,['e'],0,0.5150610000000597,0.1,0,0,AccAcc,7,17,Woman,Right,
32,10,1,0.7845317999999679,['n'],1,right,['e'],0,0.44919670000035694,0.4,0,0,AccAcc,7,17,Woman,Right,
33,10,1,1.0509629999996832,['n'],1,right,['e'],0,0.34347410000009404,0.4,0,0,AccAcc,7,17,Woman,Right,
34,10,1,1.4182173000008333,['n'],1,right,['e'],0,0.22787719999996625,0.4,0,0,AccAcc,7,17,Woman,Right,
35,10,1,1.1840621000001192,['c'],1,left,['e'],0,0.5101791000006415,0.4,0,0,AccAcc,7,17,Woman,Right,
36,10,1,1.0514927999993233,['c'],1,left,['e'],0,0.38634949999959645,0.2,0,0,AccAcc,7,17,Woman,Right,
37,10,1,5.000333599999976,x,-99,left,none,-99,-99,0.2,-99,1,AccAcc,7,17,Woman,Right,
38,10,1,0.8511242000004131,['n'],1,right,['e'],0,0.3342132000007041,0.1,0,0,AccAcc,7,17,Woman,Right,
39,10,1,1.0180928999998287,['c'],1,left,['u'],1,0.42639969999981986,0.4,1,0,AccAcc,7,17,Woman,Right,
40,10,1,1.1348062000006394,['c'],1,left,['e'],0,0.28687770000033197,0.2,0,0,AccAcc,7,17,Woman,Right,
41,10,1,0.7514349000002767,['n'],1,right,['u'],1,0.5195406000002549,0.2,1,0,AccAcc,7,17,Woman,Right,
42,10,1,1.4848537999996552,['c'],1,left,['u'],1,0.8258658000004289,0.1,1,0,AccAcc,7,17,Woman,Right,
43,10,1,0.984906100000444,['c'],1,left,['e'],0,0.3562515000003259,0.4,0,0,AccAcc,7,17,Woman,Right,
44,10,1,1.2840872999995554,['n'],1,right,['e'],0,0.29323459999977786,0.1,0,0,AccAcc,7,17,Woman,Right,
45,10,1,0.9353252999999313,['c'],0,right,['e'],0,0.35872999999992317,0.1,1,0,AccAcc,7,17,Woman,Right,
46,10,1,1.0513695999998163,['n'],1,right,['e'],0,0.46501840000019,0.4,0,0,AccAcc,7,17,Woman,Right,
47,10,1,1.1012504000000263,['n'],0,left,['e'],0,0.6446703000001435,0.1,1,0,AccAcc,7,17,Woman,Right,
48,10,1,1.5340538000000379,['n'],0,left,['e'],0,0.5596946999994543,0.2,1,0,AccAcc,7,17,Woman,Right,
49,10,1,0.7679811999996673,['n'],1,right,['e'],0,0.6375958000007813,0.1,0,0,AccAcc,7,17,Woman,Right,
50,10,1,1.0009773000001587,['c'],1,left,['u'],1,0.4463731000005282,0.1,1,0,AccAcc,7,17,Woman,Right,
51,10,1,0.734306800000013,['c'],1,left,['u'],1,0.33727730000009615,0.4,1,0,AccAcc,7,17,Woman,Right,
52,10,1,1.3003803000001426,['c'],0,right,['u'],1,0.35441140000057203,0.1,0,0,AccAcc,7,17,Woman,Right,
53,10,1,0.967891100000088,['c'],1,left,['u'],1,0.319897100000162,0.2,1,0,AccAcc,7,17,Woman,Right,
54,10,1,1.2849848000005295,['n'],1,right,['e'],0,0.4500259999995251,0.2,0,0,AccAcc,7,17,Woman,Right,
55,10,1,0.9178437000000486,['n'],1,right,['e'],0,0.4137461999998777,0.4,0,0,AccAcc,7,17,Woman,Right,
56,10,1,0.851081100000556,['c'],1,left,['e'],0,0.6701437000001533,0.2,0,0,AccAcc,7,17,Woman,Right,
57,10,1,1.6347189000007347,['c'],1,left,['e'],0,0.2597204999992755,0.1,0,0,AccAcc,7,17,Woman,Right,
58,10,1,1.0835388000004968,['n'],0,left,['e'],0,0.5765916000000288,0.2,1,0,AccAcc,7,17,Woman,Right,
59,10,1,2.0014553999999407,['n'],0,left,['e'],0,0.4443117999999231,0.2,1,0,AccAcc,7,17,Woman,Right,
0,11,1,1.8000446999994892,['n'],1,right,['e'],0,0.6569533000001684,0.4,0,0,FastAcc,7,17,Woman,Right,
1,11,1,0.8338906999997562,['n'],1,right,['u'],1,0.5035421000002316,0.4,1,0,FastAcc,7,17,Woman,Right,
2,11,1,1.4174585000000661,['n'],1,right,['u'],1,0.4454535999993823,0.4,1,0,FastAcc,7,17,Woman,Right,
3,11,1,1.1847109000000273,['n'],1,right,['e'],0,0.2703019000000495,0.1,0,0,FastAcc,7,17,Woman,Right,
4,11,1,2.7507353999999395,['n'],1,right,['e'],0,0.567963200000122,0.1,0,0,FastAcc,7,17,Woman,Right,
5,11,1,1.0013577999998233,['c'],1,left,['u'],1,0.7156420000001162,0.1,1,0,FastAcc,7,17,Woman,Right,
6,11,1,1.967948499999693,['n'],0,left,['e'],0,0.2748039999996763,0.2,1,0,FastAcc,7,17,Woman,Right,
7,11,1,1.1344772000002195,['c'],1,left,['e'],0,0.5571478000001662,0.2,0,0,FastAcc,7,17,Woman,Right,
8,11,1,1.3169340000004013,['n'],0,left,['e'],0,0.43744340000012016,0.4,1,0,FastAcc,7,17,Woman,Right,
9,11,1,1.534859200000028,['c'],1,left,['e'],0,0.4241971999999805,0.1,0,0,FastAcc,7,17,Woman,Right,
10,11,1,1.1349696999996013,['n'],1,right,['e'],0,0.4609647999996014,0.4,0,0,FastAcc,7,17,Woman,Right,
11,11,1,1.2521600000000035,['n'],0,left,['e'],0,0.41094969999994646,0.1,1,0,FastAcc,7,17,Woman,Right,
12,11,1,1.5009738999997353,['n'],1,right,['e'],0,0.3852076000002853,0.2,0,0,FastAcc,7,17,Woman,Right,
13,11,1,1.234428100000514,['n'],1,right,['e'],0,0.3708020999993096,0.2,0,0,FastAcc,7,17,Woman,Right,
14,11,1,0.9185449999995399,['n'],1,right,['e'],0,0.4658220999999685,0.1,0,0,FastAcc,7,17,Woman,Right,
15,11,1,1.4847032999996372,['c'],1,left,['e'],0,0.9181665000005523,0.4,0,0,FastAcc,7,17,Woman,Right,
16,11,1,0.9512430000004315,['c'],1,left,['e'],0,0.44604920000074344,0.2,0,0,FastAcc,7,17,Woman,Right,
17,11,1,1.3678823000000193,['c'],1,left,['e'],0,0.4873789000002944,0.2,0,0,FastAcc,7,17,Woman,Right,
18,11,1,1.316916200000378,['c'],1,left,['e'],0,0.4176974000001792,0.2,0,0,FastAcc,7,17,Woman,Right,
19,11,1,0.9174553000002561,['n'],1,right,['u'],1,0.4947700000002442,0.4,1,0,FastAcc,7,17,Woman,Right,
20,11,1,0.850944800000434,['n'],1,right,['u'],1,0.4603471999998874,0.2,1,0,FastAcc,7,17,Woman,Right,
21,11,1,0.8848254999993515,['n'],1,right,['e'],0,0.4086051000003863,0.2,0,0,FastAcc,7,17,Woman,Right,
22,11,1,1.3679850999997143,['c'],1,left,['e'],0,0.6441735999997036,0.2,0,0,FastAcc,7,17,Woman,Right,
23,11,1,1.3332399999999325,['n'],1,right,['u'],1,0.6812667000003785,0.4,1,0,FastAcc,7,17,Woman,Right,
24,11,1,1.1013351000001421,['n'],0,left,['e'],0,0.4829239000000598,0.4,1,0,FastAcc,7,17,Woman,Right,
25,11,1,0.8834624000000986,['c'],1,left,['u'],1,0.38319649999994,0.4,1,0,FastAcc,7,17,Woman,Right,
26,11,1,1.0849106999994547,['c'],1,left,['u'],1,0.6619064999995317,0.4,1,0,FastAcc,7,17,Woman,Right,
27,11,1,0.9515139999994062,['n'],1,right,['e'],0,0.5835502999998425,0.1,0,0,FastAcc,7,17,Woman,Right,
28,11,1,1.367495599999529,['n'],1,right,['e'],0,1.1480959999998959,0.2,0,0,FastAcc,7,17,Woman,Right,
29,11,1,1.2337127999999211,['n'],0,left,['e'],0,0.5271195000004809,0.1,1,0,FastAcc,7,17,Woman,Right,
30,11,1,0.8676758000001428,['n'],1,right,['e'],0,0.33053410000047734,0.4,0,0,FastAcc,7,17,Woman,Right,
31,11,1,1.9661279000001741,['c'],1,left,['u'],1,0.8658227000005354,0.2,1,0,FastAcc,7,17,Woman,Right,
32,11,1,0.7345638999995572,['n'],1,right,['e'],0,0.49884519999977783,0.2,0,0,FastAcc,7,17,Woman,Right,
33,11,1,1.0515455000004295,['n'],1,right,['e'],0,0.43901439999990544,0.1,0,0,FastAcc,7,17,Woman,Right,
34,11,1,0.9839570000003732,['c'],1,left,['e'],0,0.5446096999994552,0.1,0,0,FastAcc,7,17,Woman,Right,
35,11,1,0.9184089000000313,['n'],1,right,['e'],0,0.6170364999998128,0.2,0,0,FastAcc,7,17,Woman,Right,
36,11,1,1.1176371000001382,['c'],1,left,['e'],0,0.7099645000007513,0.2,0,0,FastAcc,7,17,Woman,Right,
37,11,1,0.7845475000003717,['n'],1,right,['e'],0,0.6049011999994036,0.4,0,0,FastAcc,7,17,Woman,Right,
38,11,1,0.8337749000002077,['n'],0,left,['e'],0,0.48591080000005604,0.1,1,0,FastAcc,7,17,Woman,Right,
39,11,1,1.0348963999995249,['c'],1,left,['e'],0,1.5314301999997042,0.4,0,0,FastAcc,7,17,Woman,Right,
40,11,1,0.9342753000000812,['n'],0,left,['e'],0,0.907341400000405,0.2,1,0,FastAcc,7,17,Woman,Right,
41,11,1,2.067109600000549,['c'],1,left,['e'],0,0.5992616000003181,0.4,0,0,FastAcc,7,17,Woman,Right,
42,11,1,0.8832898000000569,['n'],1,right,['u'],1,0.6220671000000948,0.4,1,0,FastAcc,7,17,Woman,Right,
43,11,1,0.8667261999999027,['n'],1,right,['u'],1,0.7089705999997022,0.2,1,0,FastAcc,7,17,Woman,Right,
44,11,1,1.5005381999999372,['c'],1,left,['e'],0,0.8310932999993383,0.4,0,0,FastAcc,7,17,Woman,Right,
45,11,1,1.5177542999999787,['n'],0,left,['e'],0,1.0756609999998545,0.1,1,0,FastAcc,7,17,Woman,Right,
46,11,1,1.5171477000003506,['c'],1,left,['e'],0,0.7344363000001977,0.1,0,0,FastAcc,7,17,Woman,Right,
47,11,1,1.1179514999994353,['c'],1,left,['e'],0,0.7751921999997649,0.4,0,0,FastAcc,7,17,Woman,Right,
48,11,1,1.183675399999629,['n'],0,left,['e'],0,1.0351322000005894,0.1,1,0,FastAcc,7,17,Woman,Right,
49,11,1,1.5512625000001208,['n'],1,right,['e'],0,0.7104160999997475,0.2,0,0,FastAcc,7,17,Woman,Right,
50,11,1,1.8679703000007066,['n'],1,right,['e'],0,0.9460463000004893,0.1,0,0,FastAcc,7,17,Woman,Right,
51,11,1,1.1010341000001063,['n'],1,right,['e'],0,0.8184990999998263,0.2,0,0,FastAcc,7,17,Woman,Right,
52,11,1,4.36802440000065,['c'],1,left,['e'],0,0.9817309999998542,0.1,0,0,FastAcc,7,17,Woman,Right,
53,11,1,2.200948000000608,['c'],0,right,['e'],0,0.8088877999998658,0.1,1,0,FastAcc,7,17,Woman,Right,
54,11,1,1.6343739000003552,['n'],0,left,['e'],0,0.9537471000003279,0.1,1,0,FastAcc,7,17,Woman,Right,
55,11,1,1.0005204999997659,['n'],1,right,['e'],0,0.7983469000000696,0.1,0,0,FastAcc,7,17,Woman,Right,
56,11,1,0.9837922999995499,['n'],1,right,['e'],0,0.9213442000000214,0.2,0,0,FastAcc,7,17,Woman,Right,
57,11,1,1.1166352999998708,['c'],1,left,['e'],0,0.9224876999996923,0.4,0,0,FastAcc,7,17,Woman,Right,
58,11,1,1.0351473000000624,['n'],1,right,['e'],0,0.6545062999994116,0.4,0,0,FastAcc,7,17,Woman,Right,
59,11,1,1.0510409999997137,['n'],1,right,['e'],0,0.7327643999997235,0.1,0,0,FastAcc,7,17,Woman,Right,
0,12,1,0.8511193999993338,['n'],1,right,['e'],0,0.6278078000004825,0.4,0,0,FastFast,7,17,Woman,Right,
1,12,1,0.7843398000004527,['c'],1,left,['u'],1,0.4622611999993751,0.4,1,0,FastFast,7,17,Woman,Right,
2,12,1,0.9669260999999096,['n'],0,left,['e'],0,0.35913200000049983,0.1,1,0,FastFast,7,17,Woman,Right,
3,12,1,0.9665103999996063,['n'],1,right,['e'],0,0.24549930000011955,0.4,0,0,FastFast,7,17,Woman,Right,
4,12,1,0.7506785000005038,['c'],1,left,['u'],1,0.7035961000001407,0.2,1,0,FastFast,7,17,Woman,Right,
5,12,1,1.5844790999999532,['n'],1,right,['u'],1,0.5345055000007051,0.4,1,0,FastFast,7,17,Woman,Right,
6,12,1,1.0178154000004724,['c'],0,right,['e'],0,0.34686729999975796,0.1,1,0,FastFast,7,17,Woman,Right,
7,12,1,2.6349287999992157,['c'],1,left,['e'],0,0.3738755999993373,0.1,0,0,FastFast,7,17,Woman,Right,
8,12,1,1.0339094000000841,['c'],1,left,['e'],0,0.3202096999993955,0.4,0,0,FastFast,7,17,Woman,Right,
9,12,1,0.8181661999997232,['c'],1,left,['e'],0,0.3410731999993004,0.2,0,0,FastFast,7,17,Woman,Right,
10,12,1,0.9846935000005033,['c'],1,left,['e'],0,0.33859209999991435,0.4,0,0,FastFast,7,17,Woman,Right,
11,12,1,2.233819400000357,['c'],1,left,['e'],0,0.36636470000030386,0.1,0,0,FastFast,7,17,Woman,Right,
12,12,1,1.685087900000326,['n'],0,left,['e'],0,0.6067347999996855,0.1,1,0,FastFast,7,17,Woman,Right,
13,12,1,0.9009794999992664,['c'],1,left,['e'],0,0.4053754000005938,0.2,0,0,FastFast,7,17,Woman,Right,
14,12,1,0.5347009000006437,['n'],1,right,['u'],1,0.5140738000000056,0.4,1,0,FastFast,7,17,Woman,Right,
15,12,1,0.9679748999997173,['n'],1,right,['u'],1,0.3295970999997735,0.4,1,0,FastFast,7,17,Woman,Right,
16,12,1,2.3178906000002826,['c'],0,right,['e'],0,0.35322139999971114,0.1,1,0,FastFast,7,17,Woman,Right,
17,12,1,1.3839656000000105,['n'],1,right,['e'],0,0.3664104999998017,0.2,0,0,FastFast,7,17,Woman,Right,
18,12,1,2.883738700000322,['c'],0,right,['e'],0,0.41462700000010955,0.2,1,0,FastFast,7,17,Woman,Right,
19,12,1,2.1178985000005923,['c'],0,right,['e'],0,0.4118045000004713,0.1,1,0,FastFast,7,17,Woman,Right,
20,12,1,1.5837983999999778,['n'],1,right,['e'],0,0.35020760000043083,0.2,0,0,FastFast,7,17,Woman,Right,
21,12,1,1.1013441000004605,['c'],1,left,['e'],0,0.4064606999991156,0.4,0,0,FastFast,7,17,Woman,Right,
22,12,1,0.9848122999992484,['n'],1,right,['e'],0,0.41748439999992115,0.4,0,0,FastFast,7,17,Woman,Right,
23,12,1,1.1003387000000657,['n'],0,left,['e'],0,0.34344810000038706,0.1,1,0,FastFast,7,17,Woman,Right,
24,12,1,1.8009339000000182,['n'],1,right,['e'],0,0.4360170999998445,0.1,0,0,FastFast,7,17,Woman,Right,
25,12,1,1.1345134000002872,['n'],1,right,['e'],0,0.2796944000001531,0.1,0,0,FastFast,7,17,Woman,Right,
26,12,1,1.1662270000006174,['c'],1,left,['u'],1,0.8801798000004055,0.2,1,0,FastFast,7,17,Woman,Right,
27,12,1,0.883899499999643,['n'],1,right,['e'],0,0.2677434000006542,0.2,0,0,FastFast,7,17,Woman,Right,
28,12,1,1.2684289999997418,['n'],1,right,['u'],1,0.3525088999995205,0.4,1,0,FastFast,7,17,Woman,Right,
29,12,1,2.967869199999768,['c'],1,left,['u'],1,0.302306900000076,0.1,1,0,FastFast,7,17,Woman,Right,
30,12,1,0.9340013000000909,['n'],0,left,['e'],0,0.335323100000096,0.2,1,0,FastFast,7,17,Woman,Right,
31,12,1,0.9844639000002644,['n'],0,left,['e'],0,0.34874799999943207,0.4,1,0,FastFast,7,17,Woman,Right,
32,12,1,1.684334999999919,['c'],0,right,['u'],1,0.9579931999996916,0.1,0,0,FastFast,7,17,Woman,Right,
33,12,1,1.8007981999999174,['c'],1,left,['e'],0,0.6267335000002277,0.2,0,0,FastFast,7,17,Woman,Right,
34,12,1,1.2506427999996959,['n'],1,right,['u'],1,0.4741540000004534,0.4,1,0,FastFast,7,17,Woman,Right,
35,12,1,0.9844896000004155,['n'],1,right,['u'],1,0.3862512000005154,0.2,1,0,FastFast,7,17,Woman,Right,
36,12,1,1.0680557999994562,['n'],1,right,['u'],1,0.29870870000013383,0.2,1,0,FastFast,7,17,Woman,Right,
37,12,1,0.8503451000005953,['c'],1,left,['e'],0,0.2868257000000085,0.4,0,0,FastFast,7,17,Woman,Right,
38,12,1,0.9012425999999323,['n'],0,left,['u'],1,0.28967569999986154,0.2,0,0,FastFast,7,17,Woman,Right,
39,12,1,0.9679437999993752,['c'],1,left,['e'],0,0.22591970000030415,0.2,0,0,FastFast,7,17,Woman,Right,
40,12,1,0.9518448000007993,['c'],1,left,['e'],0,0.27758109999922453,0.4,0,0,FastFast,7,17,Woman,Right,
41,12,1,0.8844972000006237,['n'],1,right,['e'],0,0.1537979999993695,0.4,0,0,FastFast,7,17,Woman,Right,
42,12,1,0.9852359999995315,['c'],0,right,['e'],0,0.2707512000006318,0.1,1,0,FastFast,7,17,Woman,Right,
43,12,1,1.3348304999999527,['c'],1,left,['e'],0,0.3369886000000406,0.1,0,0,FastFast,7,17,Woman,Right,
44,12,1,0.8011180000003151,['c'],0,right,['e'],0,0.2620051000003514,0.1,1,0,FastFast,7,17,Woman,Right,
45,12,1,0.8996218000002045,['n'],1,right,['e'],0,0.2030425999992076,0.4,0,0,FastFast,7,17,Woman,Right,
46,12,1,1.1657468000003064,['c'],0,right,['e'],0,0.2460166000000754,0.4,1,0,FastFast,7,17,Woman,Right,
47,12,1,1.1673795000006066,['c'],1,left,['e'],0,0.2707965999998123,0.2,0,0,FastFast,7,17,Woman,Right,
48,12,1,0.8659621999995579,['n'],1,right,['e'],0,0.1959394000004977,0.2,0,0,FastFast,7,17,Woman,Right,
49,12,1,0.8350338000000193,['n'],1,right,['e'],0,0.20536540000011883,0.4,0,0,FastFast,7,17,Woman,Right,
50,12,1,0.7506048000004739,['c'],1,left,['e'],0,0.2656616000003851,0.2,0,0,FastFast,7,17,Woman,Right,
51,12,1,0.934610000000248,['c'],1,left,['e'],0,0.23507680000057007,0.1,0,0,FastFast,7,17,Woman,Right,
52,12,1,0.9353595000002315,['n'],1,right,['e'],0,0.22269000000051165,0.2,0,0,FastFast,7,17,Woman,Right,
53,12,1,0.8345926000001782,['c'],1,left,['e'],0,0.23102300000027753,0.1,0,0,FastFast,7,17,Woman,Right,
54,12,1,0.7512472999997044,['c'],1,left,['e'],0,0.20992539999951987,0.1,0,0,FastFast,7,17,Woman,Right,
55,12,1,1.2842806999997265,['c'],1,left,['e'],0,0.3288598999997703,0.4,0,0,FastFast,7,17,Woman,Right,
56,12,1,1.1340123999998468,['c'],1,left,['e'],0,0.28836630000023433,0.2,0,0,FastFast,7,17,Woman,Right,
57,12,1,1.067215699999906,['c'],1,left,['e'],0,0.2689853000001676,0.1,0,0,FastFast,7,17,Woman,Right,
58,12,1,1.4345010999995793,['n'],1,right,['u'],1,0.29894079999940004,0.1,1,0,FastFast,7,17,Woman,Right,
59,12,1,1.2014158999991196,['n'],1,right,['e'],0,0.14536239999961253,0.2,0,0,FastFast,7,17,Woman,Right,
0,13,1,1.8681257999996888,['c'],1,left,['e'],0,0.5954202000002624,0.4,0,0,AccFast,7,17,Woman,Right,
1,13,1,1.4015896999999313,['c'],1,left,['e'],0,0.24582600000030652,0.2,0,0,AccFast,7,17,Woman,Right,
2,13,1,1.1338261000000784,['n'],1,right,['e'],0,0.36843859999953565,0.4,0,0,AccFast,7,17,Woman,Right,
3,13,1,1.3503130999997666,['n'],1,right,['u'],1,0.33419529999991937,0.2,1,0,AccFast,7,17,Woman,Right,
4,13,1,1.533958399999392,['n'],1,right,['e'],0,0.13517240000055608,0.1,0,0,AccFast,7,17,Woman,Right,
5,13,1,1.1339200000002165,['c'],1,left,['e'],0,0.18167730000004667,0.2,0,0,AccFast,7,17,Woman,Right,
6,13,1,0.9513269999997647,['n'],0,left,['e'],0,0.186421600000358,0.1,1,0,AccFast,7,17,Woman,Right,
7,13,1,0.8517438000008042,['c'],1,left,['e'],0,0.17916059999970457,0.2,0,0,AccFast,7,17,Woman,Right,
8,13,1,0.9506387999999788,['n'],0,left,['e'],0,0.18425110000043787,0.2,1,0,AccFast,7,17,Woman,Right,
9,13,1,0.90075859999979,['n'],1,right,['e'],0,0.11104470000009314,0.2,0,0,AccFast,7,17,Woman,Right,
10,13,1,1.3347012000003815,['n'],0,left,['e'],0,0.15194700000029115,0.1,1,0,AccFast,7,17,Woman,Right,
11,13,1,1.0166103000001385,['n'],1,right,['e'],0,0.17182940000020608,0.1,0,0,AccFast,7,17,Woman,Right,
12,13,1,0.9350310999998328,['c'],1,left,['e'],0,0.20979459999944083,0.4,0,0,AccFast,7,17,Woman,Right,
13,13,1,0.700772600000164,['c'],1,left,['e'],0,0.24004690000037954,0.4,0,0,AccFast,7,17,Woman,Right,
14,13,1,0.9501333999996859,['n'],1,right,['e'],0,0.21128789999966102,0.2,0,0,AccFast,7,17,Woman,Right,
15,13,1,1.035003300000426,['n'],1,right,['e'],0,0.17992099999992206,0.2,0,0,AccFast,7,17,Woman,Right,
16,13,1,1.1330690999993749,['n'],1,right,['e'],0,0.16143110000029992,0.1,0,0,AccFast,7,17,Woman,Right,
17,13,1,1.2186445999996067,['c'],1,left,['e'],0,0.2691071000008378,0.2,0,0,AccFast,7,17,Woman,Right,
18,13,1,0.6513120999998137,['n'],1,right,['e'],0,0.15559530000064115,0.2,0,0,AccFast,7,17,Woman,Right,
19,13,1,0.7514388999998118,['n'],1,right,['u'],1,0.21685290000004898,0.4,1,0,AccFast,7,17,Woman,Right,
20,13,1,1.2672308999999586,['n'],1,right,['e'],0,0.19185050000032788,0.1,0,0,AccFast,7,17,Woman,Right,
21,13,1,0.9499389000002338,['c'],1,left,['e'],0,0.30937140000060026,0.1,0,0,AccFast,7,17,Woman,Right,
22,13,1,1.0013796000002912,['n'],1,right,['e'],0,0.2110873999999967,0.1,0,0,AccFast,7,17,Woman,Right,
23,13,1,0.851513800000248,['n'],1,right,['e'],0,0.17137020000063785,0.1,0,0,AccFast,7,17,Woman,Right,
24,13,1,0.9677160999999614,['n'],1,right,['e'],0,0.12818590000006225,0.4,0,0,AccFast,7,17,Woman,Right,
25,13,1,0.8848218000002817,['n'],1,right,['e'],0,0.18561640000007174,0.2,0,0,AccFast,7,17,Woman,Right,
26,13,1,1.151151099999879,['n'],1,right,['e'],0,0.11859189999995579,0.4,0,0,AccFast,7,17,Woman,Right,
27,13,1,0.6834303000005093,['c'],1,left,['e'],0,0.26568239999960497,0.4,0,0,AccFast,7,17,Woman,Right,
28,13,1,1.0840446000001975,['c'],1,left,['e'],0,0.32543210000039835,0.4,0,0,AccFast,7,17,Woman,Right,
29,13,1,0.7846337000000858,['c'],1,left,['e'],0,0.2353532000006453,0.4,0,0,AccFast,7,17,Woman,Right,
30,13,1,0.7685209999999643,['c'],1,left,['e'],0,0.26169279999976425,0.4,0,0,AccFast,7,17,Woman,Right,
31,13,1,0.9180024999996022,['c'],1,left,['e'],0,0.23286989999996877,0.2,0,0,AccFast,7,17,Woman,Right,
32,13,1,0.7676774000001387,['c'],0,right,['e'],0,0.2589942999993582,0.2,1,0,AccFast,7,17,Woman,Right,
33,13,1,0.9019896999998309,['c'],1,left,['e'],0,0.3431138000005376,0.4,0,0,AccFast,7,17,Woman,Right,
34,13,1,0.5848026000003301,['c'],1,left,['e'],0,0.2607953999995516,0.1,0,0,AccFast,7,17,Woman,Right,
35,13,1,0.7675540999998702,['c'],1,left,['e'],0,0.20644159999937983,0.2,0,0,AccFast,7,17,Woman,Right,
36,13,1,1.0674227999998038,['n'],1,right,['e'],0,0.17392279999967286,0.1,0,0,AccFast,7,17,Woman,Right,
37,13,1,0.865409300000465,['c'],1,left,['e'],0,0.2323093000004519,0.4,0,0,AccFast,7,17,Woman,Right,
38,13,1,0.9175002000001768,['c'],1,left,['e'],0,0.28314789999967616,0.1,0,0,AccFast,7,17,Woman,Right,
39,13,1,0.951061199999458,['n'],0,left,['e'],0,0.20387359999949695,0.1,1,0,AccFast,7,17,Woman,Right,
40,13,1,1.11783000000014,['c'],1,left,['e'],0,0.29763959999945655,0.2,0,0,AccFast,7,17,Woman,Right,
41,13,1,1.183729599999424,['n'],1,right,['e'],0,0.24060349999945174,0.4,0,0,AccFast,7,17,Woman,Right,
42,13,1,1.5498975999998947,['n'],1,right,['e'],0,0.25171080000018264,0.4,0,0,AccFast,7,17,Woman,Right,
43,13,1,1.03470230000039,['c'],1,left,['e'],0,0.20244539999930566,0.1,0,0,AccFast,7,17,Woman,Right,
44,13,1,1.3337342000004355,['c'],0,right,['e'],0,0.33543829999962327,0.1,1,0,AccFast,7,17,Woman,Right,
45,13,1,0.7502146999995603,['n'],1,right,['e'],0,0.4388749999998254,0.4,0,0,AccFast,7,17,Woman,Right,
46,13,1,0.6359431999999288,['n'],1,right,['e'],0,0.3179342000003089,0.1,0,0,AccFast,7,17,Woman,Right,
47,13,1,0.7681744999999864,['c'],1,left,['e'],0,0.260823700000401,0.4,0,0,AccFast,7,17,Woman,Right,
48,13,1,1.4847635999994964,['n'],1,right,['e'],0,0.162004199999501,0.1,0,0,AccFast,7,17,Woman,Right,
49,13,1,0.9846499000004769,['c'],1,left,['e'],0,0.23091090000070835,0.2,0,0,AccFast,7,17,Woman,Right,
50,13,1,0.6350272999998197,['c'],1,left,['u'],1,0.2135471999999936,0.4,1,0,AccFast,7,17,Woman,Right,
51,13,1,0.5838612000006833,['c'],1,left,['u'],1,0.2646675999994841,0.4,1,0,AccFast,7,17,Woman,Right,
52,13,1,0.9345652000001792,['n'],1,right,['e'],0,0.23401950000061333,0.1,0,0,AccFast,7,17,Woman,Right,
53,13,1,0.8016532000001462,['c'],1,left,['u'],1,0.22700420000001031,0.2,1,0,AccFast,7,17,Woman,Right,
54,13,1,1.3851804999994783,['c'],0,right,['e'],0,0.18150669999977254,0.1,1,0,AccFast,7,17,Woman,Right,
55,13,1,0.967609000000266,['n'],0,left,['e'],0,0.1535993999996208,0.4,1,0,AccFast,7,17,Woman,Right,
56,13,1,0.7346863000002486,['n'],1,right,['e'],0,0.20043949999944743,0.2,0,0,AccFast,7,17,Woman,Right,
57,13,1,0.9336232999994536,['n'],1,right,['e'],0,0.23767789999965316,0.1,0,0,AccFast,7,17,Woman,Right,
58,13,1,1.1009518000000753,['n'],1,right,['e'],0,0.266511900000296,0.2,0,0,AccFast,7,17,Woman,Right,
59,13,1,1.7016926999995121,['n'],1,right,['e'],0,0.2060047000004488,0.2,0,0,AccFast,7,17,Woman,Right,
0,14,1,4.417532700000265,['n'],1,right,['e'],0,0.5855461999999534,0.2,0,0,AccAcc,7,17,Woman,Right,
1,14,1,1.3667304000000513,['n'],1,right,['e'],0,1.198830100000123,0.2,0,0,AccAcc,7,17,Woman,Right,
2,14,1,0.8829869000001054,['n'],1,right,['e'],0,0.429721000000427,0.4,0,0,AccAcc,7,17,Woman,Right,
3,14,1,0.6682479999999487,['c'],1,left,['e'],0,0.37113330000011047,0.4,0,0,AccAcc,7,17,Woman,Right,
4,14,1,0.8341005000002042,['n'],1,right,['e'],0,0.2293403000003309,0.1,0,0,AccAcc,7,17,Woman,Right,
5,14,1,1.1839092999998684,['c'],1,left,['e'],0,0.2709906999998566,0.1,0,0,AccAcc,7,17,Woman,Right,
6,14,1,1.0013779999999315,['c'],0,right,['e'],0,0.22257190000073024,0.2,1,0,AccAcc,7,17,Woman,Right,
7,14,1,0.6002913000002081,['n'],1,right,['e'],0,0.2249004999994213,0.4,0,0,AccAcc,7,17,Woman,Right,
8,14,1,0.7837556999993467,['c'],1,left,['e'],0,0.28302269999949203,0.4,0,0,AccAcc,7,17,Woman,Right,
9,14,1,0.6996195000001535,['c'],1,left,['e'],0,0.2622227000001658,0.4,0,0,AccAcc,7,17,Woman,Right,
10,14,1,0.5351874999996653,['n'],0,left,['e'],0,0.23217029999977967,0.1,1,0,AccAcc,7,17,Woman,Right,
11,14,1,0.6511324000002787,['c'],0,right,['e'],0,0.5352107000007891,0.1,1,0,AccAcc,7,17,Woman,Right,
12,14,1,0.9169576999993296,['n'],0,left,['u'],1,0.3034875999992437,0.1,0,0,AccAcc,7,17,Woman,Right,
13,14,1,0.9827477999997427,['n'],1,right,['u'],1,0.2718693999995594,0.2,1,0,AccAcc,7,17,Woman,Right,
14,14,1,1.0168235999999524,['c'],1,left,['e'],0,0.31878229999983887,0.1,0,0,AccAcc,7,17,Woman,Right,
15,14,1,0.9165138999996998,['n'],1,right,['e'],0,0.4143268999996508,0.1,0,0,AccAcc,7,17,Woman,Right,
16,14,1,0.8177117999994152,['n'],0,left,['e'],0,0.1912560000000667,0.1,1,0,AccAcc,7,17,Woman,Right,
17,14,1,0.7178618999996615,['n'],1,right,['e'],0,0.38129079999998794,0.1,0,0,AccAcc,7,17,Woman,Right,
18,14,1,0.834188499999982,['c'],1,left,['e'],0,0.25522470000032627,0.1,0,0,AccAcc,7,17,Woman,Right,
19,14,1,0.8678585000006933,['n'],1,right,['e'],0,0.14852239999981975,0.4,0,0,AccAcc,7,17,Woman,Right,
20,14,1,1.7661708999994516,['c'],1,left,['e'],0,0.250646799999231,0.2,0,0,AccAcc,7,17,Woman,Right,
21,14,1,0.6178485000000364,['c'],1,left,['e'],0,0.2497323999996297,0.4,0,0,AccAcc,7,17,Woman,Right,
22,14,1,0.6336373000003732,['c'],1,left,['e'],0,0.24868789999982255,0.2,0,0,AccAcc,7,17,Woman,Right,
23,14,1,0.5185369999999239,['n'],1,right,['e'],0,0.18817940000008093,0.4,0,0,AccAcc,7,17,Woman,Right,
24,14,1,0.6846785999996428,['n'],1,right,['e'],0,0.20382410000001983,0.2,0,0,AccAcc,7,17,Woman,Right,
25,14,1,0.7011135000002469,['n'],1,right,['e'],0,0.16991559999951278,0.2,0,0,AccAcc,7,17,Woman,Right,
26,14,1,0.9507932000005894,['c'],1,left,['e'],0,0.2555126000006567,0.2,0,0,AccAcc,7,17,Woman,Right,
27,14,1,0.9348951000001762,['c'],1,left,['e'],0,0.2904889000001276,0.1,0,0,AccAcc,7,17,Woman,Right,
28,14,1,0.8501626999996006,['n'],1,right,['e'],0,0.31210009999995236,0.4,0,0,AccAcc,7,17,Woman,Right,
29,14,1,0.918075300000055,['c'],1,left,['e'],0,1.7370439000005717,0.4,0,0,AccAcc,7,17,Woman,Right,
30,14,1,0.9178887999996732,['c'],1,left,['e'],0,0.2582118000000264,0.4,0,0,AccAcc,7,17,Woman,Right,
31,14,1,0.7339204999998401,['n'],1,right,['e'],0,0.18853310000031342,0.1,0,0,AccAcc,7,17,Woman,Right,
32,14,1,0.7176130000007106,['c'],1,left,['e'],0,0.21839559999989433,0.4,0,0,AccAcc,7,17,Woman,Right,
33,14,1,1.3845816000002742,['n'],0,left,['e'],0,0.25280990000010206,0.1,1,0,AccAcc,7,17,Woman,Right,
34,14,1,0.9009502999997494,['c'],1,left,['e'],0,0.25726570000006177,0.2,0,0,AccAcc,7,17,Woman,Right,
35,14,1,0.801257799999803,['c'],1,left,['e'],0,0.3613715000001321,0.1,0,0,AccAcc,7,17,Woman,Right,
36,14,1,0.7849304000001212,['c'],0,right,['e'],0,0.28643019999981334,0.1,1,0,AccAcc,7,17,Woman,Right,
37,14,1,0.950354000000516,['c'],0,right,['u'],1,0.8791551999993317,0.1,0,0,AccAcc,7,17,Woman,Right,
38,14,1,1.2527360000003682,['n'],0,left,['e'],0,0.28446510000048875,0.2,1,0,AccAcc,7,17,Woman,Right,
39,14,1,1.3518685999997615,['c'],0,right,['e'],0,0.34923220000018773,0.4,1,0,AccAcc,7,17,Woman,Right,
40,14,1,0.8179782000006526,['c'],0,right,['e'],0,0.27271549999932176,0.2,1,0,AccAcc,7,17,Woman,Right,
41,14,1,0.750634899999568,['n'],0,left,['e'],0,0.17021890000069106,0.1,1,0,AccAcc,7,17,Woman,Right,
42,14,1,1.3343845999997939,['n'],0,left,['e'],0,0.22478880000016943,0.2,1,0,AccAcc,7,17,Woman,Right,
43,14,1,0.9662778000001708,['n'],1,right,['e'],0,0.24499360000027082,0.4,0,0,AccAcc,7,17,Woman,Right,
44,14,1,0.8352905000001556,['n'],1,right,['e'],0,0.2032335999992938,0.2,0,0,AccAcc,7,17,Woman,Right,
45,14,1,0.9004398999995828,['c'],1,left,['e'],0,0.2574728999998115,0.2,0,0,AccAcc,7,17,Woman,Right,
46,14,1,1.1668211999995037,['n'],1,right,['e'],0,0.7478610000007393,0.2,0,0,AccAcc,7,17,Woman,Right,
47,14,1,0.851108199999544,['c'],1,left,['e'],0,0.2372557999997298,0.2,0,0,AccAcc,7,17,Woman,Right,
48,14,1,1.4349364999998215,['n'],1,right,['e'],0,2.668878699999368,0.2,0,0,AccAcc,7,17,Woman,Right,
49,14,1,0.6847784000001411,['c'],1,left,['e'],0,0.34548960000029183,0.4,0,0,AccAcc,7,17,Woman,Right,
50,14,1,0.7181690999996135,['n'],1,right,['e'],0,0.3050700000003417,0.4,0,0,AccAcc,7,17,Woman,Right,
51,14,1,0.817855100000088,['n'],1,right,['e'],0,0.27863909999996395,0.2,0,0,AccAcc,7,17,Woman,Right,
52,14,1,0.9179914000005738,['c'],0,right,['e'],0,0.2647514999998748,0.2,1,0,AccAcc,7,17,Woman,Right,
53,14,1,1.2675740000004225,['n'],1,right,['e'],0,0.2538209000003917,0.1,0,0,AccAcc,7,17,Woman,Right,
54,14,1,0.7667850999996517,['c'],1,left,['e'],0,0.24729690000003757,0.1,0,0,AccAcc,7,17,Woman,Right,
55,14,1,0.8341524999996182,['c'],1,left,['e'],0,0.20652909999989788,0.4,0,0,AccAcc,7,17,Woman,Right,
56,14,1,0.6170657999991818,['c'],1,left,['e'],0,0.24015569999937725,0.4,0,0,AccAcc,7,17,Woman,Right,
57,14,1,0.7342133000001922,['n'],1,right,['e'],0,0.18743690000064817,0.4,0,0,AccAcc,7,17,Woman,Right,
58,14,1,0.5672281999995903,['c'],1,left,['e'],0,0.22409479999987525,0.4,0,0,AccAcc,7,17,Woman,Right,
59,14,1,1.3175686000004134,['n'],1,right,['e'],0,0.11648369999966235,0.1,0,0,AccAcc,7,17,Woman,Right,
0,15,1,0.8508846999993693,['c'],1,left,['e'],0,1.0546911999999793,0.2,0,0,FastAcc,7,17,Woman,Right,
1,15,1,2.7511791999995694,['c'],1,left,['e'],0,0.34508720000030735,0.2,0,0,FastAcc,7,17,Woman,Right,
2,15,1,0.9165236999997433,['c'],1,left,['e'],0,0.2172990999997637,0.4,0,0,FastAcc,7,17,Woman,Right,
3,15,1,0.8015306999996028,['c'],1,left,['e'],0,0.17811150000034104,0.2,0,0,FastAcc,7,17,Woman,Right,
4,15,1,0.9511054000004151,['n'],1,right,['e'],0,0.4871322999997574,0.4,0,0,FastAcc,7,17,Woman,Right,
5,15,1,1.0847395999999208,['c'],1,left,['e'],0,0.282623600000079,0.2,0,0,FastAcc,7,17,Woman,Right,
6,15,1,0.9503579000001992,['c'],0,right,['e'],0,0.556044999999358,0.1,1,0,FastAcc,7,17,Woman,Right,
7,15,1,0.9841679999999542,['n'],1,right,['e'],0,0.1925068000000465,0.1,0,0,FastAcc,7,17,Woman,Right,
8,15,1,3.0501847000005,['c'],0,right,['e'],0,0.2582456000000093,0.1,1,0,FastAcc,7,17,Woman,Right,
9,15,1,0.8845806999997876,['c'],1,left,['e'],0,0.7587192999999388,0.1,0,0,FastAcc,7,17,Woman,Right,
10,15,1,1.0011076999999204,['c'],1,left,['e'],0,0.1641989999998259,0.2,0,0,FastAcc,7,17,Woman,Right,
11,15,1,0.734654099999716,['n'],0,left,['e'],0,0.12914069999987987,0.1,1,0,FastAcc,7,17,Woman,Right,
12,15,1,0.6841485000004468,['n'],1,right,['e'],0,0.2907321000002412,0.1,0,0,FastAcc,7,17,Woman,Right,
13,15,1,0.7670287999999346,['c'],1,left,['e'],0,0.25162189999991824,0.4,0,0,FastAcc,7,17,Woman,Right,
14,15,1,1.4346285999999964,['c'],0,right,['e'],0,0.42595499999970343,0.2,1,0,FastAcc,7,17,Woman,Right,
15,15,1,0.7346711000000141,['c'],1,left,['e'],0,0.22206229999937932,0.1,0,0,FastAcc,7,17,Woman,Right,
16,15,1,0.7512962000000698,['n'],1,right,['e'],0,0.13789810000071157,0.4,0,0,FastAcc,7,17,Woman,Right,
17,15,1,0.3514004999997269,['c'],1,left,['e'],0,0.21663679999983287,0.4,0,0,FastAcc,7,17,Woman,Right,
18,15,1,0.3177857999999105,['n'],0,left,['e'],0,0.14953199999945355,0.4,1,0,FastAcc,7,17,Woman,Right,
19,15,1,0.6011897999997018,['c'],1,left,['e'],0,0.23397339999974065,0.1,0,0,FastAcc,7,17,Woman,Right,
20,15,1,0.565863900000295,['c'],0,right,['e'],0,0.10848320000059175,0.2,1,0,FastAcc,7,17,Woman,Right,
21,15,1,1.5833586000007926,['c'],1,left,['e'],0,0.13959709999926417,0.1,0,0,FastAcc,7,17,Woman,Right,
22,15,1,0.6523741000000882,['c'],1,left,['e'],0,0.17377869999927498,0.2,0,0,FastAcc,7,17,Woman,Right,
23,15,1,0.7015320999998949,['c'],1,left,['e'],0,0.1897914999999557,0.4,0,0,FastAcc,7,17,Woman,Right,
24,15,1,1.1356066999996983,['n'],1,right,['e'],0,0.23491620000004332,0.2,0,0,FastAcc,7,17,Woman,Right,
25,15,1,0.9687211000000389,['c'],0,right,['e'],0,0.23726619999979448,0.2,1,0,FastAcc,7,17,Woman,Right,
26,15,1,0.6672665999994933,['c'],1,left,['e'],0,0.3633952000000136,0.1,0,0,FastAcc,7,17,Woman,Right,
27,15,1,0.7180335000002742,['c'],0,right,['e'],0,0.17834700000003068,0.1,1,0,FastAcc,7,17,Woman,Right,
28,15,1,3.034455699999853,['n'],1,right,['e'],0,0.13205010000001494,0.4,0,0,FastAcc,7,17,Woman,Right,
29,15,1,0.5186452999996618,['c'],1,left,['e'],0,0.28427730000021256,0.2,0,0,FastAcc,7,17,Woman,Right,
30,15,1,0.4017244999995455,['c'],1,left,['e'],0,0.2591759999995702,0.2,0,0,FastAcc,7,17,Woman,Right,
31,15,1,0.6504038000002765,['c'],0,right,['e'],0,0.16126209999947605,0.1,1,0,FastAcc,7,17,Woman,Right,
32,15,1,0.4334450000005745,['c'],1,left,['e'],0,0.1892283999995925,0.4,0,0,FastAcc,7,17,Woman,Right,
33,15,1,0.7175176999999167,['c'],1,left,['e'],0,0.17040630000064994,0.4,0,0,FastAcc,7,17,Woman,Right,
34,15,1,0.8351884000003338,['c'],1,left,['e'],0,0.4048345999999583,0.1,0,0,FastAcc,7,17,Woman,Right,
35,15,1,0.48490959999980987,['c'],0,right,['u'],1,0.3237153000000035,0.4,0,0,FastAcc,7,17,Woman,Right,
36,15,1,0.33468290000018897,['c'],0,right,['u'],1,1.452003400000649,0.4,0,0,FastAcc,7,17,Woman,Right,
37,15,1,0.6345933000002333,['c'],1,left,['u'],1,0.7630224999993516,0.4,1,0,FastAcc,7,17,Woman,Right,
38,15,1,1.4846915999996781,['n'],1,right,['e'],0,0.1953137999998944,0.2,0,0,FastAcc,7,17,Woman,Right,
39,15,1,0.9995268000002397,['c'],1,left,['e'],0,0.1661725000003571,0.4,0,0,FastAcc,7,17,Woman,Right,
40,15,1,0.868058299999575,['c'],0,right,['e'],0,0.33433700000023236,0.2,1,0,FastAcc,7,17,Woman,Right,
41,15,1,1.0343541000002006,['c'],0,right,['e'],0,0.3467865000002348,0.2,1,0,FastAcc,7,17,Woman,Right,
42,15,1,0.8178639000007024,['c'],1,left,['e'],0,0.2376977000003535,0.1,0,0,FastAcc,7,17,Woman,Right,
43,15,1,0.5339757000001555,['c'],0,right,['e'],0,0.24165009999978793,0.1,1,0,FastAcc,7,17,Woman,Right,
44,15,1,0.36777750000055676,['n'],1,right,['e'],0,0.28349120000075345,0.4,0,0,FastAcc,7,17,Woman,Right,
45,15,1,0.367688299999827,['c'],0,right,['e'],0,0.627669300000889,0.4,1,0,FastAcc,7,17,Woman,Right,
46,15,1,0.7849926999997479,['c'],0,right,['e'],0,0.20574909999959345,0.1,1,0,FastAcc,7,17,Woman,Right,
47,15,1,1.4674000000004526,['n'],1,right,['e'],0,0.3497235999993791,0.2,0,0,FastAcc,7,17,Woman,Right,
48,15,1,0.9515259999998307,['n'],1,right,['e'],0,0.13983770000049844,0.1,0,0,FastAcc,7,17,Woman,Right,
49,15,1,0.85116890000063,['c'],1,left,['u'],1,0.5826315000003888,0.1,1,0,FastAcc,7,17,Woman,Right,
50,15,1,1.1345989999999802,['c'],0,right,['e'],0,0.16450739999982034,0.4,1,0,FastAcc,7,17,Woman,Right,
51,15,1,0.33446619999995164,['n'],1,right,['e'],0,0.242517399999997,0.2,0,0,FastAcc,7,17,Woman,Right,
52,15,1,0.6014814999998634,['n'],1,right,['e'],0,0.21145930000056978,0.2,0,0,FastAcc,7,17,Woman,Right,
53,15,1,0.6351727999999639,['n'],1,right,['e'],0,0.1482867000004262,0.4,0,0,FastAcc,7,17,Woman,Right,
54,15,1,0.8510697000001528,['c'],1,left,['e'],0,0.19062529999973776,0.2,0,0,FastAcc,7,17,Woman,Right,
55,15,1,0.6506600000002436,['c'],1,left,['e'],0,0.1596177000001262,0.4,0,0,FastAcc,7,17,Woman,Right,
56,15,1,0.8349471999999878,['n'],1,right,['e'],0,0.10630669999954989,0.1,0,0,FastAcc,7,17,Woman,Right,
57,15,1,0.7840240000004997,['c'],1,left,['e'],0,0.16919589999997697,0.2,0,0,FastAcc,7,17,Woman,Right,
58,15,1,0.6329124000003503,['c'],1,left,['e'],0,0.1724567000001116,0.4,0,0,FastAcc,7,17,Woman,Right,
59,15,1,2.000539500000741,['n'],1,right,['e'],0,0.13503940000009607,0.1,0,0,FastAcc,7,17,Woman,Right,
