withinblocktrial,block,block_repetition,rt,resp,cor,cresp,conf_press,cj,rtconf,coherence,metacognition,slow_trial,manipulation,sub,age,gender,handedness,
0,1,1,1.6679763000001913,['c'],1,left,none,-99,-99,0.5,-99,0,none,8,18,Woman,Right,
1,1,1,1.5330381999997371,['n'],1,right,none,-99,-99,0.5,-99,0,none,8,18,Woman,Right,
2,1,1,0.8846204000001308,['c'],1,left,none,-99,-99,0.5,-99,0,none,8,18,Woman,Right,
3,1,1,1.5842867000001206,['c'],0,right,none,-99,-99,0.5,-99,0,none,8,18,Woman,Right,
4,1,1,1.0831840999999258,['c'],1,left,none,-99,-99,0.5,-99,0,none,8,18,Woman,Right,
5,1,1,1.6504374999999527,['n'],1,right,none,-99,-99,0.5,-99,0,none,8,18,Woman,Right,
6,1,1,1.4328498999998374,['n'],1,right,none,-99,-99,0.5,-99,0,none,8,18,Woman,Right,
7,1,1,1.6820606999999654,['c'],0,right,none,-99,-99,0.5,-99,0,none,8,18,Woman,Right,
8,1,1,3.4491488999997273,['n'],1,right,none,-99,-99,0.5,-99,0,none,8,18,Woman,Right,
9,1,1,1.1174307999999655,['c'],1,left,none,-99,-99,0.5,-99,0,none,8,18,Woman,Right,
10,1,1,1.550552400000015,['c'],1,left,none,-99,-99,0.5,-99,0,none,8,18,Woman,Right,
11,1,1,1.2000981000001048,['n'],1,right,none,-99,-99,0.5,-99,0,none,8,18,Woman,Right,
12,1,1,2.133901700000024,['c'],0,right,none,-99,-99,0.5,-99,0,none,8,18,Woman,Right,
13,1,1,0.9188263999999435,['n'],1,right,none,-99,-99,0.5,-99,0,none,8,18,Woman,Right,
14,1,1,0.6170388999998977,['c'],1,left,none,-99,-99,0.5,-99,0,none,8,18,Woman,Right,
15,1,1,0.41698859999996785,['n'],0,left,none,-99,-99,0.5,-99,0,none,8,18,Woman,Right,
16,1,1,1.6328063000000839,['c'],1,left,none,-99,-99,0.5,-99,0,none,8,18,Woman,Right,
17,1,1,0.6489255999999841,['n'],1,right,none,-99,-99,0.5,-99,0,none,8,18,Woman,Right,
18,1,1,0.4515096000000085,['c'],1,left,none,-99,-99,0.5,-99,0,none,8,18,Woman,Right,
19,1,1,0.6845721999998204,['n'],1,right,none,-99,-99,0.5,-99,0,none,8,18,Woman,Right,
20,1,1,0.5331533999997191,['c'],1,left,none,-99,-99,0.5,-99,0,none,8,18,Woman,Right,
21,1,1,0.7341972999997779,['c'],1,left,none,-99,-99,0.5,-99,0,none,8,18,Woman,Right,
22,1,1,0.6511325000001307,['n'],1,right,none,-99,-99,0.5,-99,0,none,8,18,Woman,Right,
23,1,1,0.5176879000000554,['c'],1,left,none,-99,-99,0.5,-99,0,none,8,18,Woman,Right,
0,1,2,0.6848064999999224,['n'],1,right,none,-99,-99,0.5,-99,0,none,8,18,Woman,Right,
1,1,2,0.5501736999999594,['n'],1,right,none,-99,-99,0.5,-99,0,none,8,18,Woman,Right,
2,1,2,0.60127969999985,['c'],1,left,none,-99,-99,0.5,-99,0,none,8,18,Woman,Right,
3,1,2,0.6174788999996963,['c'],1,left,none,-99,-99,0.5,-99,0,none,8,18,Woman,Right,
4,1,2,0.6843164000001707,['c'],1,left,none,-99,-99,0.5,-99,0,none,8,18,Woman,Right,
5,1,2,0.4346857999998974,['n'],1,right,none,-99,-99,0.5,-99,0,none,8,18,Woman,Right,
6,1,2,0.616492599999674,['n'],1,right,none,-99,-99,0.5,-99,0,none,8,18,Woman,Right,
7,1,2,0.6830939999999828,['n'],1,right,none,-99,-99,0.5,-99,0,none,8,18,Woman,Right,
8,1,2,0.49996290000035515,['n'],1,right,none,-99,-99,0.5,-99,0,none,8,18,Woman,Right,
9,1,2,0.5006198999999469,['c'],1,left,none,-99,-99,0.5,-99,0,none,8,18,Woman,Right,
10,1,2,0.6325734999995802,['c'],1,left,none,-99,-99,0.5,-99,0,none,8,18,Woman,Right,
11,1,2,0.616936099999748,['c'],1,left,none,-99,-99,0.5,-99,0,none,8,18,Woman,Right,
12,1,2,0.3663068999999268,['n'],0,left,none,-99,-99,0.5,-99,0,none,8,18,Woman,Right,
13,1,2,0.7168642000001455,['c'],1,left,none,-99,-99,0.5,-99,0,none,8,18,Woman,Right,
14,1,2,0.5510109000001648,['n'],1,right,none,-99,-99,0.5,-99,0,none,8,18,Woman,Right,
15,1,2,0.45058400000016263,['c'],1,left,none,-99,-99,0.5,-99,0,none,8,18,Woman,Right,
16,1,2,0.43435269999963566,['c'],1,left,none,-99,-99,0.5,-99,0,none,8,18,Woman,Right,
17,1,2,0.567371699999967,['c'],1,left,none,-99,-99,0.5,-99,0,none,8,18,Woman,Right,
18,1,2,0.5343398999998499,['n'],1,right,none,-99,-99,0.5,-99,0,none,8,18,Woman,Right,
19,1,2,0.3666017999998985,['c'],0,right,none,-99,-99,0.5,-99,0,none,8,18,Woman,Right,
20,1,2,2.034683099999711,['n'],1,right,none,-99,-99,0.5,-99,0,none,8,18,Woman,Right,
21,1,2,0.5838693000000603,['n'],1,right,none,-99,-99,0.5,-99,0,none,8,18,Woman,Right,
22,1,2,0.5006535000002259,['c'],1,left,none,-99,-99,0.5,-99,0,none,8,18,Woman,Right,
23,1,2,0.5673929999998109,['n'],1,right,none,-99,-99,0.5,-99,0,none,8,18,Woman,Right,
0,2,1,0.5683028999997077,['n'],1,right,none,-99,-99,0.4,-99,0,none,8,18,Woman,Right,
1,2,1,0.34982239999999365,['c'],0,right,none,-99,-99,0.1,-99,0,none,8,18,Woman,Right,
2,2,1,1.2338291000000936,['n'],1,right,none,-99,-99,0.1,-99,0,none,8,18,Woman,Right,
3,2,1,0.5832970999999816,['c'],1,left,none,-99,-99,0.1,-99,0,none,8,18,Woman,Right,
4,2,1,0.867663999999877,['c'],0,right,none,-99,-99,0.1,-99,0,none,8,18,Woman,Right,
5,2,1,2.2323335000000952,['n'],1,right,none,-99,-99,0.2,-99,0,none,8,18,Woman,Right,
6,2,1,0.6503428999999414,['c'],1,left,none,-99,-99,0.4,-99,0,none,8,18,Woman,Right,
7,2,1,0.4836408000001029,['c'],1,left,none,-99,-99,0.4,-99,0,none,8,18,Woman,Right,
8,2,1,0.3500928000003114,['n'],1,right,none,-99,-99,0.1,-99,0,none,8,18,Woman,Right,
9,2,1,0.5504884000001766,['c'],1,left,none,-99,-99,0.2,-99,0,none,8,18,Woman,Right,
10,2,1,0.517180400000143,['c'],0,right,none,-99,-99,0.2,-99,0,none,8,18,Woman,Right,
11,2,1,0.5183013999999275,['c'],1,left,none,-99,-99,0.4,-99,0,none,8,18,Woman,Right,
12,2,1,0.5509284999998272,['c'],1,left,none,-99,-99,0.4,-99,0,none,8,18,Woman,Right,
13,2,1,1.0496705000000475,['n'],1,right,none,-99,-99,0.2,-99,0,none,8,18,Woman,Right,
14,2,1,0.5845673000003444,['n'],1,right,none,-99,-99,0.4,-99,0,none,8,18,Woman,Right,
15,2,1,1.000876000000062,['n'],1,right,none,-99,-99,0.2,-99,0,none,8,18,Woman,Right,
16,2,1,2.716608799999449,['n'],0,left,none,-99,-99,0.1,-99,0,none,8,18,Woman,Right,
17,2,1,0.8004934000000503,['n'],1,right,none,-99,-99,0.4,-99,0,none,8,18,Woman,Right,
18,2,1,0.6660919999994803,['c'],1,left,none,-99,-99,0.4,-99,0,none,8,18,Woman,Right,
19,2,1,0.5840010000001712,['n'],1,right,none,-99,-99,0.2,-99,0,none,8,18,Woman,Right,
20,2,1,3.283386399999472,['c'],1,left,none,-99,-99,0.1,-99,0,none,8,18,Woman,Right,
21,2,1,0.8505186000002141,['c'],1,left,none,-99,-99,0.2,-99,0,none,8,18,Woman,Right,
22,2,1,1.6171722999997655,['c'],1,left,none,-99,-99,0.1,-99,0,none,8,18,Woman,Right,
23,2,1,0.6177551999999196,['n'],0,left,none,-99,-99,0.2,-99,0,none,8,18,Woman,Right,
0,3,1,0.6662035999997897,['c'],1,left,['e'],1,0.527316200000314,0.4,1,0,none,8,18,Woman,Right,
1,3,1,1.0494214000000284,['n'],0,left,['e'],1,0.5676836000002368,0.2,0,0,none,8,18,Woman,Right,
2,3,1,0.9018384999999398,['n'],1,right,['e'],1,0.29009899999982736,0.2,1,0,none,8,18,Woman,Right,
3,3,1,2.800068200000169,['c'],0,right,['u'],0,0.8779801999999108,0.1,1,0,none,8,18,Woman,Right,
4,3,1,0.8988730999999461,['c'],1,left,['e'],1,0.3012996999996176,0.2,1,0,none,8,18,Woman,Right,
5,3,1,0.8672322000002168,['n'],1,right,['e'],1,0.5962274000003163,0.2,1,0,none,8,18,Woman,Right,
6,3,1,1.7509081999996852,['n'],1,right,['e'],1,0.445980899999995,0.2,1,0,none,8,18,Woman,Right,
7,3,1,1.6853713000000425,['c'],1,left,['e'],1,0.4613628000006429,0.1,1,0,none,8,18,Woman,Right,
8,3,1,0.7683099999994738,['n'],1,right,['e'],1,0.37256820000038715,0.4,1,0,none,8,18,Woman,Right,
9,3,1,1.484480000000076,['n'],1,right,['e'],1,0.3511967000004006,0.4,1,0,none,8,18,Woman,Right,
10,3,1,3.6010996000004525,['c'],1,left,['u'],0,0.3596881999992547,0.4,0,0,none,8,18,Woman,Right,
11,3,1,0.7348578999999518,['n'],1,right,['e'],1,0.3550316999999268,0.4,1,0,none,8,18,Woman,Right,
12,3,1,3.1178287000002456,['n'],0,left,['u'],0,0.7512240000005477,0.1,1,0,none,8,18,Woman,Right,
13,3,1,2.833820800000467,['n'],0,left,['u'],0,0.5015373000005638,0.1,1,0,none,8,18,Woman,Right,
14,3,1,0.8511820999992779,['n'],1,right,['e'],1,0.2457542000001922,0.4,1,0,none,8,18,Woman,Right,
15,3,1,0.6676803000000291,['n'],1,right,['e'],1,0.19944690000011178,0.4,1,0,none,8,18,Woman,Right,
16,3,1,1.0681871999995565,['n'],1,right,['e'],1,0.2347820999993928,0.2,1,0,none,8,18,Woman,Right,
17,3,1,2.551475099999152,['n'],1,right,['e'],1,0.3218181000002005,0.1,1,0,none,8,18,Woman,Right,
18,3,1,3.049752500000068,['c'],1,left,['u'],0,0.32268759999988106,0.1,0,0,none,8,18,Woman,Right,
19,3,1,4.551141800000551,['c'],1,left,['u'],0,0.2775872000001982,0.1,0,0,none,8,18,Woman,Right,
20,3,1,3.0353722999998354,['n'],0,left,['u'],0,0.3921376999996937,0.1,1,0,none,8,18,Woman,Right,
21,3,1,1.2847209999999905,['c'],1,left,['u'],0,0.5875532000000021,0.4,0,0,none,8,18,Woman,Right,
22,3,1,2.90069609999955,['c'],1,left,['u'],0,0.8386625000002823,0.2,0,0,none,8,18,Woman,Right,
23,3,1,1.8177583999995477,['n'],1,right,['e'],1,0.30725579999943875,0.2,1,0,none,8,18,Woman,Right,
0,4,1,0.7007617999997819,['n'],1,right,['e'],1,0.642667099999926,0.4,1,0,FastFast,8,18,Woman,Right,
1,4,1,1.0014022000004843,['c'],1,left,['e'],1,0.41928180000013526,0.1,1,0,FastFast,8,18,Woman,Right,
2,4,1,1.367002500000126,['c'],1,left,['u'],0,0.5585085000002437,0.4,0,0,FastFast,8,18,Woman,Right,
3,4,1,0.8017364999996062,['c'],1,left,['e'],1,0.2982670000001235,0.2,1,0,FastFast,8,18,Woman,Right,
4,4,1,1.083058400000482,['c'],1,left,['u'],0,0.16629749999992782,0.2,0,0,FastFast,8,18,Woman,Right,
5,4,1,0.7351039000004675,['c'],1,left,['u'],0,0.27565150000009453,0.1,0,0,FastFast,8,18,Woman,Right,
6,4,1,0.5176080999999613,['n'],1,right,['e'],1,0.6304315999996106,0.2,1,0,FastFast,8,18,Woman,Right,
7,4,1,0.9672271999997974,['c'],0,right,['u'],0,0.26560200000039913,0.1,1,0,FastFast,8,18,Woman,Right,
8,4,1,0.8505637999996907,['c'],1,left,['u'],0,0.3197815999992599,0.2,0,0,FastFast,8,18,Woman,Right,
9,4,1,0.5170907000001534,['n'],0,left,['e'],1,0.5606259999995018,0.1,0,0,FastFast,8,18,Woman,Right,
10,4,1,0.7344131999998353,['n'],1,right,['e'],1,0.28633090000039374,0.1,1,0,FastFast,8,18,Woman,Right,
11,4,1,0.48442339999928663,['c'],1,left,['e'],1,0.25856540000040695,0.1,1,0,FastFast,8,18,Woman,Right,
12,4,1,1.0501137000001108,['c'],1,left,['u'],0,0.14396419999957288,0.4,0,0,FastFast,8,18,Woman,Right,
13,4,1,0.6842725000005885,['n'],1,right,['e'],1,0.28968299999996816,0.1,1,0,FastFast,8,18,Woman,Right,
14,4,1,0.7016163999996934,['n'],1,right,['e'],1,0.17269540000052075,0.4,1,0,FastFast,8,18,Woman,Right,
15,4,1,0.6340079999999944,['c'],1,left,['e'],1,0.19112929999937478,0.1,1,0,FastFast,8,18,Woman,Right,
16,4,1,1.483723999999711,['c'],1,left,['u'],0,0.17449820000001637,0.1,0,0,FastFast,8,18,Woman,Right,
17,4,1,1.2322713000003205,['n'],1,right,['u'],0,0.5541561000000002,0.1,0,0,FastFast,8,18,Woman,Right,
18,4,1,0.9504415999999765,['c'],1,left,['e'],1,0.2394785000005868,0.2,1,0,FastFast,8,18,Woman,Right,
19,4,1,1.283137400000669,['n'],1,right,['u'],0,0.1491662999997061,0.4,0,0,FastFast,8,18,Woman,Right,
20,4,1,0.58280620000005,['c'],1,left,['e'],1,0.1864556000000448,0.2,1,0,FastFast,8,18,Woman,Right,
21,4,1,2.751174600000013,['c'],1,left,['u'],0,0.1827425999999832,0.2,0,0,FastFast,8,18,Woman,Right,
22,4,1,0.6513183999995817,['n'],1,right,['e'],1,0.19931240000005346,0.2,1,0,FastFast,8,18,Woman,Right,
23,4,1,0.8838896999995995,['n'],0,left,['u'],0,0.22285809999993944,0.1,1,0,FastFast,8,18,Woman,Right,
24,4,1,1.2664340000001175,['c'],1,left,['e'],1,0.18215429999963817,0.4,1,0,FastFast,8,18,Woman,Right,
25,4,1,1.2338780000000042,['n'],0,left,['u'],0,0.4308529999998427,0.2,1,0,FastFast,8,18,Woman,Right,
26,4,1,1.0175976999998966,['n'],1,right,['e'],1,0.215161199999784,0.4,1,0,FastFast,8,18,Woman,Right,
27,4,1,0.71775930000058,['c'],1,left,['e'],1,0.22802450000017416,0.4,1,0,FastFast,8,18,Woman,Right,
28,4,1,0.7507521999996243,['c'],1,left,['e'],1,0.2557261000001745,0.2,1,0,FastFast,8,18,Woman,Right,
29,4,1,0.7344022999996014,['n'],1,right,['e'],1,0.3625621000001047,0.4,1,0,FastFast,8,18,Woman,Right,
30,4,1,0.7336065000008603,['n'],1,right,['e'],1,0.14535150000028807,0.4,1,0,FastFast,8,18,Woman,Right,
31,4,1,2.184405699999843,['c'],0,right,['u'],0,0.24594660000002477,0.1,1,0,FastFast,8,18,Woman,Right,
32,4,1,1.6511487999996461,['n'],0,left,['e'],1,0.6683105000001888,0.2,0,0,FastFast,8,18,Woman,Right,
33,4,1,1.5843219999997018,['c'],1,left,['e'],1,0.14864369999941118,0.4,1,0,FastFast,8,18,Woman,Right,
34,4,1,1.1347039000002042,['c'],0,right,['u'],0,0.21297110000068642,0.2,1,0,FastFast,8,18,Woman,Right,
35,4,1,1.4180355999997118,['n'],1,right,['e'],1,0.16449980000015785,0.4,1,0,FastFast,8,18,Woman,Right,
36,4,1,2.2840384999999515,['c'],1,left,['u'],0,0.3090494000007311,0.2,0,0,FastFast,8,18,Woman,Right,
37,4,1,1.2837807000005341,['c'],0,right,['e'],1,0.27983859999949345,0.1,0,0,FastFast,8,18,Woman,Right,
38,4,1,0.9679467000005388,['n'],1,right,['e'],1,0.16877980000026582,0.2,1,0,FastFast,8,18,Woman,Right,
39,4,1,0.9502597000000605,['n'],1,right,['e'],1,0.20659690000047704,0.1,1,0,FastFast,8,18,Woman,Right,
40,4,1,0.7178033999998661,['c'],0,right,['u'],0,0.13967039999988629,0.1,1,0,FastFast,8,18,Woman,Right,
41,4,1,1.1829212000002371,['n'],1,right,['e'],1,0.1857252999998309,0.4,1,0,FastFast,8,18,Woman,Right,
42,4,1,1.1007931999993161,['n'],1,right,['e'],1,0.21594780000032188,0.2,1,0,FastFast,8,18,Woman,Right,
43,4,1,1.199803399999837,['n'],1,right,['e'],1,0.19435260000045673,0.4,1,0,FastFast,8,18,Woman,Right,
44,4,1,1.7334005000002435,['c'],1,left,['u'],0,0.23124550000011368,0.1,0,0,FastFast,8,18,Woman,Right,
45,4,1,0.9344830999998521,['c'],1,left,['e'],1,0.13877709999997023,0.4,1,0,FastFast,8,18,Woman,Right,
46,4,1,1.717879200000425,['c'],0,right,['e'],1,0.355063699999846,0.1,0,0,FastFast,8,18,Woman,Right,
47,4,1,1.1190048999997089,['c'],1,left,['e'],1,0.15557720000015252,0.4,1,0,FastFast,8,18,Woman,Right,
48,4,1,1.2015053000004627,['c'],0,right,['e'],1,0.05501970000022993,0.1,0,0,FastFast,8,18,Woman,Right,
49,4,1,2.250959800000601,['n'],0,left,['u'],0,0.20560240000031627,0.1,1,0,FastFast,8,18,Woman,Right,
50,4,1,1.468039299999873,['n'],1,right,['u'],0,0.5731948000002376,0.4,0,0,FastFast,8,18,Woman,Right,
51,4,1,1.7667765999995027,['c'],1,left,['e'],1,0.19490469999982452,0.4,1,0,FastFast,8,18,Woman,Right,
52,4,1,1.568198800000573,['n'],1,right,['u'],0,0.3345646999996461,0.4,0,0,FastFast,8,18,Woman,Right,
53,4,1,2.0997631000000183,['n'],1,right,['u'],0,0.3834892000004402,0.2,0,0,FastFast,8,18,Woman,Right,
54,4,1,1.7005037000008087,['n'],0,left,['e'],1,0.2073485000000801,0.1,0,0,FastFast,8,18,Woman,Right,
55,4,1,1.3011771000001318,['n'],1,right,['e'],1,0.14961670000047889,0.4,1,0,FastFast,8,18,Woman,Right,
56,4,1,2.2343143999996755,['c'],1,left,['u'],0,0.24794550000024174,0.2,0,0,FastFast,8,18,Woman,Right,
57,4,1,1.0162023000002591,['c'],1,left,['e'],1,0.1205325000000812,0.2,1,0,FastFast,8,18,Woman,Right,
58,4,1,0.7681225999995149,['c'],0,right,['e'],1,0.183717599999909,0.2,0,0,FastFast,8,18,Woman,Right,
59,4,1,0.8166352999996889,['n'],1,right,['u'],0,0.35267449999992095,0.2,0,0,FastFast,8,18,Woman,Right,
0,5,1,4.683829200000218,['c'],1,left,['e'],1,0.2449172999995426,0.1,1,0,AccFast,8,18,Woman,Right,
1,5,1,2.100235099999736,['n'],1,right,['e'],1,0.2979860999994344,0.1,1,0,AccFast,8,18,Woman,Right,
2,5,1,3.0517335000004095,['n'],1,right,['e'],1,0.21365530000002764,0.1,1,0,AccFast,8,18,Woman,Right,
3,5,1,1.5018728000004558,['c'],1,left,['e'],1,0.3076065999994171,0.4,1,0,AccFast,8,18,Woman,Right,
4,5,1,4.084430799999609,['c'],1,left,['u'],0,0.24658540000018547,0.1,0,0,AccFast,8,18,Woman,Right,
5,5,1,2.4496483000002627,['c'],1,left,['u'],0,0.7497968999996374,0.2,0,0,AccFast,8,18,Woman,Right,
6,5,1,5.00032740000006,x,-99,right,none,-99,-99,0.1,-99,1,AccFast,8,18,Woman,Right,
7,5,1,1.4000498999994306,['c'],0,right,['u'],0,0.2611690000003364,0.2,1,0,AccFast,8,18,Woman,Right,
8,5,1,1.4351837000003798,['c'],1,left,['u'],0,0.7872606999999334,0.2,0,0,AccFast,8,18,Woman,Right,
9,5,1,2.2827603000005183,['n'],1,right,['e'],1,0.20440450000023702,0.1,1,0,AccFast,8,18,Woman,Right,
10,5,1,2.4175880000002508,['n'],1,right,['u'],0,0.4368438999999853,0.4,0,0,AccFast,8,18,Woman,Right,
11,5,1,1.1179565000002185,['c'],1,left,['u'],0,0.2170893000002252,0.4,0,0,AccFast,8,18,Woman,Right,
12,5,1,2.3678594000002704,['n'],1,right,['e'],1,0.16429970000081084,0.2,1,0,AccFast,8,18,Woman,Right,
13,5,1,1.7173093999999764,['n'],1,right,['e'],1,0.17259199999989505,0.1,1,0,AccFast,8,18,Woman,Right,
14,5,1,1.5181640999999217,['c'],1,left,['u'],0,0.37891299999955663,0.2,0,0,AccFast,8,18,Woman,Right,
15,5,1,1.0342585000007603,['n'],1,right,['e'],1,0.1323616999998194,0.4,1,0,AccFast,8,18,Woman,Right,
16,5,1,0.7167686000002504,['n'],1,right,['e'],1,0.08535389999997278,0.4,1,0,AccFast,8,18,Woman,Right,
17,5,1,1.2000668000000587,['c'],1,left,['e'],1,0.13181989999975485,0.2,1,0,AccFast,8,18,Woman,Right,
18,5,1,2.782865500000298,['n'],0,left,['e'],1,0.14669080000021495,0.2,0,0,AccFast,8,18,Woman,Right,
19,5,1,1.383393099999921,['n'],1,right,['e'],1,0.48689890000059677,0.4,1,0,AccFast,8,18,Woman,Right,
20,5,1,1.8993070999995325,['c'],1,left,['u'],0,0.10704170000008162,0.1,0,0,AccFast,8,18,Woman,Right,
21,5,1,0.6854988000004596,['c'],1,left,['e'],1,0.1402328000003763,0.4,1,0,AccFast,8,18,Woman,Right,
22,5,1,0.8670937999995658,['c'],1,left,['e'],1,0.08653679999952146,0.4,1,0,AccFast,8,18,Woman,Right,
23,5,1,1.6167279999999664,['c'],1,left,['e'],1,0.13400970000020607,0.2,1,0,AccFast,8,18,Woman,Right,
24,5,1,0.48505540000041947,['n'],1,right,['u'],0,0.1425900999993246,0.4,0,0,AccFast,8,18,Woman,Right,
25,5,1,1.7176583000000392,['c'],1,left,['u'],0,0.08771299999989424,0.2,0,0,AccFast,8,18,Woman,Right,
26,5,1,0.8676318999996511,['n'],1,right,['e'],1,0.1311474999993152,0.4,1,0,AccFast,8,18,Woman,Right,
27,5,1,1.068478099999993,['c'],1,left,['e'],1,0.10221550000005664,0.2,1,0,AccFast,8,18,Woman,Right,
28,5,1,0.8661973999996917,['c'],1,left,['e'],1,0.17753190000075847,0.4,1,0,AccFast,8,18,Woman,Right,
29,5,1,1.684490000000551,['c'],1,left,['e'],1,0.3135404999993625,0.2,1,0,AccFast,8,18,Woman,Right,
30,5,1,2.718254500000512,['c'],1,left,['u'],0,0.7382504999995945,0.2,0,0,AccFast,8,18,Woman,Right,
31,5,1,5.000237100000049,x,-99,left,none,-99,-99,0.1,-99,1,AccFast,8,18,Woman,Right,
32,5,1,1.334700200000043,['c'],1,left,['e'],1,0.38117549999969924,0.4,1,0,AccFast,8,18,Woman,Right,
33,5,1,1.200055600000269,['c'],1,left,['u'],0,0.4477464000001419,0.2,0,0,AccFast,8,18,Woman,Right,
34,5,1,1.2175458000001527,['n'],1,right,['u'],0,0.1914160999995147,0.1,0,0,AccFast,8,18,Woman,Right,
35,5,1,1.3349473000007492,['c'],1,left,['e'],1,0.2612130999996225,0.1,1,0,AccFast,8,18,Woman,Right,
36,5,1,3.4329469000003883,['n'],1,right,['u'],0,0.24434419999943202,0.1,0,0,AccFast,8,18,Woman,Right,
37,5,1,0.8849788999996235,['c'],1,left,['e'],1,0.21789150000040536,0.1,1,0,AccFast,8,18,Woman,Right,
38,5,1,1.6677449000007982,['c'],0,right,['u'],0,0.1936651999994865,0.1,1,0,AccFast,8,18,Woman,Right,
39,5,1,0.8680875000000015,['c'],1,left,['e'],1,0.08939770000051794,0.4,1,0,AccFast,8,18,Woman,Right,
40,5,1,1.3508388999998715,['n'],1,right,['e'],1,0.08239299999968352,0.1,1,0,AccFast,8,18,Woman,Right,
41,5,1,1.0673643000000084,['n'],1,right,['e'],1,0.13438440000027185,0.4,1,0,AccFast,8,18,Woman,Right,
42,5,1,2.867492499999571,['c'],0,right,['e'],1,0.4167851000001974,0.2,0,0,AccFast,8,18,Woman,Right,
43,5,1,0.983510899999601,['n'],1,right,['e'],1,0.13962780000019848,0.4,1,0,AccFast,8,18,Woman,Right,
44,5,1,1.3840135000000373,['c'],0,right,['u'],0,0.1125108000005639,0.1,1,0,AccFast,8,18,Woman,Right,
45,5,1,1.8182628000004115,['n'],1,right,['e'],1,0.18164729999989504,0.2,1,0,AccFast,8,18,Woman,Right,
46,5,1,2.4681915000001027,['n'],1,right,['u'],0,0.3020502999997916,0.2,0,0,AccFast,8,18,Woman,Right,
47,5,1,2.5502196000006734,['n'],1,right,['u'],0,0.2865384999995513,0.1,0,0,AccFast,8,18,Woman,Right,
48,5,1,2.3181068000003506,['n'],1,right,['u'],0,0.312969399999929,0.2,0,0,AccFast,8,18,Woman,Right,
49,5,1,1.2682193999999072,['n'],1,right,['e'],1,0.14121720000002824,0.2,1,0,AccFast,8,18,Woman,Right,
50,5,1,0.901896499999566,['c'],1,left,['e'],1,0.1806656999997358,0.4,1,0,AccFast,8,18,Woman,Right,
51,5,1,0.7834922000001825,['n'],1,right,['e'],1,0.16066460000001825,0.4,1,0,AccFast,8,18,Woman,Right,
52,5,1,2.418305700000019,['c'],0,right,['e'],1,0.21998919999987265,0.1,0,0,AccFast,8,18,Woman,Right,
53,5,1,2.717283999999381,['n'],0,left,['e'],1,0.37734850000015285,0.1,0,0,AccFast,8,18,Woman,Right,
54,5,1,1.0673007999994297,['c'],1,left,['e'],1,0.21014949999971577,0.4,1,0,AccFast,8,18,Woman,Right,
55,5,1,0.7502399999993941,['n'],1,right,['e'],1,0.19081920000007813,0.4,1,0,AccFast,8,18,Woman,Right,
56,5,1,0.7835580999999365,['c'],1,left,['e'],1,0.21813620000011724,0.2,1,0,AccFast,8,18,Woman,Right,
57,5,1,2.098741899999368,['c'],1,left,['u'],0,0.1611313000003065,0.1,0,0,AccFast,8,18,Woman,Right,
58,5,1,1.251358600000458,['n'],1,right,['e'],1,0.18590280000080384,0.4,1,0,AccFast,8,18,Woman,Right,
59,5,1,1.2350682999995115,['c'],1,left,['u'],0,0.24361230000067735,0.2,0,0,AccFast,8,18,Woman,Right,
0,6,1,2.750803900000392,['n'],1,right,['u'],0,1.5748570000005202,0.4,0,0,AccAcc,8,18,Woman,Right,
1,6,1,1.2331192000001465,['n'],1,right,['e'],1,1.9467068000003565,0.2,1,0,AccAcc,8,18,Woman,Right,
2,6,1,3.0854192999995576,['n'],1,right,['u'],0,1.6510099999995873,0.1,0,0,AccAcc,8,18,Woman,Right,
3,6,1,1.116806799999722,['n'],1,right,['e'],1,0.7431290999993507,0.2,1,0,AccAcc,8,18,Woman,Right,
4,6,1,1.5506296000003204,['c'],1,left,['u'],0,0.9734207999999853,0.1,0,0,AccAcc,8,18,Woman,Right,
5,6,1,5.0002464999997756,x,-99,right,none,-99,-99,0.2,-99,1,AccAcc,8,18,Woman,Right,
6,6,1,1.0844239999996717,['n'],1,right,['u'],0,1.2894026000003578,0.1,0,0,AccAcc,8,18,Woman,Right,
7,6,1,1.0163134999993417,['n'],1,right,['e'],1,0.6558721000001242,0.4,1,0,AccAcc,8,18,Woman,Right,
8,6,1,0.9996402999995553,['n'],1,right,['e'],1,0.8165476999993189,0.4,1,0,AccAcc,8,18,Woman,Right,
9,6,1,2.166197700000339,['n'],1,right,['u'],0,2.0117749999999432,0.1,0,0,AccAcc,8,18,Woman,Right,
10,6,1,2.216503599999669,['c'],1,left,['u'],0,1.3976108999995631,0.1,0,0,AccAcc,8,18,Woman,Right,
11,6,1,1.1514220999997633,['n'],1,right,['e'],1,0.8647961000006035,0.2,1,0,AccAcc,8,18,Woman,Right,
12,6,1,2.4509523000006084,['n'],1,right,['e'],1,0.9583818000000974,0.4,1,0,AccAcc,8,18,Woman,Right,
13,6,1,0.8833698999997068,['n'],1,right,['e'],1,1.1288125000000946,0.4,1,0,AccAcc,8,18,Woman,Right,
14,6,1,0.9997839999996359,['c'],1,left,['e'],1,0.6306619999995746,0.4,1,0,AccAcc,8,18,Woman,Right,
15,6,1,2.099444699999367,['n'],1,right,['e'],1,0.1236629000004541,0.4,1,0,AccAcc,8,18,Woman,Right,
16,6,1,1.5847633999992468,['n'],1,right,['e'],1,0.29664620000039577,0.4,1,0,AccAcc,8,18,Woman,Right,
17,6,1,1.368260399999599,['n'],1,right,['e'],1,0.5846244000003935,0.2,1,0,AccAcc,8,18,Woman,Right,
18,6,1,3.216935399999784,['n'],0,left,['e'],1,1.4748616999995647,0.1,0,0,AccAcc,8,18,Woman,Right,
19,6,1,1.9667387999998027,['c'],1,left,['e'],1,0.5241587999998956,0.2,1,0,AccAcc,8,18,Woman,Right,
20,6,1,1.4179925000007643,['c'],1,left,['e'],1,0.6091667000000598,0.4,1,0,AccAcc,8,18,Woman,Right,
21,6,1,2.3167794000000868,['c'],1,left,['u'],0,1.006948100000045,0.2,0,0,AccAcc,8,18,Woman,Right,
22,6,1,1.0825322000000597,['n'],0,left,['e'],1,0.6711230999999316,0.1,0,0,AccAcc,8,18,Woman,Right,
23,6,1,3.316034899999977,['n'],0,left,['u'],0,1.0422194000002492,0.4,1,0,AccAcc,8,18,Woman,Right,
24,6,1,5.0154520000005505,x,-99,right,none,-99,-99,0.2,-99,1,AccAcc,8,18,Woman,Right,
25,6,1,1.1178911000006337,['c'],1,left,['u'],0,1.17554360000031,0.2,0,0,AccAcc,8,18,Woman,Right,
26,6,1,2.9020559999999023,['c'],1,left,['u'],0,0.6474084000001312,0.1,0,0,AccAcc,8,18,Woman,Right,
27,6,1,1.8328408000006675,['c'],1,left,['e'],1,1.703302499999154,0.2,1,0,AccAcc,8,18,Woman,Right,
28,6,1,2.816792499999792,['c'],1,left,['u'],0,1.8937549000002036,0.2,0,0,AccAcc,8,18,Woman,Right,
29,6,1,2.000112600000648,['c'],1,left,['e'],1,1.0036685000004582,0.4,1,0,AccAcc,8,18,Woman,Right,
30,6,1,1.0337024999998903,['n'],1,right,['e'],1,0.46123570000054315,0.2,1,0,AccAcc,8,18,Woman,Right,
31,6,1,3.418106999999509,['c'],1,left,['u'],0,0.6923273000002155,0.1,0,0,AccAcc,8,18,Woman,Right,
32,6,1,2.2672058999996807,['c'],1,left,['e'],1,0.44899590000022727,0.2,1,0,AccAcc,8,18,Woman,Right,
33,6,1,1.583457599999747,['c'],1,left,['u'],0,0.7386639999995168,0.1,0,0,AccAcc,8,18,Woman,Right,
34,6,1,1.5680081999998947,['c'],1,left,['e'],1,1.032354099999793,0.1,1,0,AccAcc,8,18,Woman,Right,
35,6,1,3.6500573000002987,['n'],1,right,['u'],0,0.5114823000003526,0.1,0,0,AccAcc,8,18,Woman,Right,
36,6,1,2.750710400000571,['c'],0,right,['u'],0,0.8638618999993923,0.2,1,0,AccAcc,8,18,Woman,Right,
37,6,1,1.333631299999979,['c'],1,left,['e'],1,0.4904554000004282,0.4,1,0,AccAcc,8,18,Woman,Right,
38,6,1,3.700676299999941,['c'],0,right,['u'],0,0.5807525000000169,0.1,1,0,AccAcc,8,18,Woman,Right,
39,6,1,1.5342923000007431,['c'],0,right,['u'],0,0.41862510000009934,0.1,1,0,AccAcc,8,18,Woman,Right,
40,6,1,1.2687630000000354,['n'],1,right,['e'],1,0.4015577999998641,0.4,1,0,AccAcc,8,18,Woman,Right,
41,6,1,0.7686420999998518,['c'],1,left,['e'],1,0.4051816000001054,0.4,1,0,AccAcc,8,18,Woman,Right,
42,6,1,0.951409500000409,['c'],1,left,['e'],1,0.33821899999929883,0.4,1,0,AccAcc,8,18,Woman,Right,
43,6,1,1.2332970000006753,['c'],1,left,['e'],1,0.5011523000002853,0.4,1,0,AccAcc,8,18,Woman,Right,
44,6,1,1.5005285000006552,['c'],1,left,['u'],0,0.3593959999998333,0.2,0,0,AccAcc,8,18,Woman,Right,
45,6,1,2.2836600999999064,['c'],0,right,['u'],0,0.5452994000006584,0.2,1,0,AccAcc,8,18,Woman,Right,
46,6,1,2.884607799999685,['n'],1,right,['u'],0,0.5383664000000863,0.1,0,0,AccAcc,8,18,Woman,Right,
47,6,1,1.8339358999992328,['c'],0,right,['u'],0,0.3017832000005001,0.2,1,0,AccAcc,8,18,Woman,Right,
48,6,1,1.0334147000003213,['c'],1,left,['e'],1,0.36318040000060137,0.4,1,0,AccAcc,8,18,Woman,Right,
49,6,1,3.601690399999825,['c'],1,left,['u'],0,1.4867853000005198,0.1,0,0,AccAcc,8,18,Woman,Right,
50,6,1,3.8829625999997006,['n'],0,left,['u'],0,0.3802992999999333,0.1,1,0,AccAcc,8,18,Woman,Right,
51,6,1,1.4172239999998055,['c'],1,left,['u'],0,0.39025300000048446,0.2,0,0,AccAcc,8,18,Woman,Right,
52,6,1,1.018042400000013,['c'],0,right,['u'],0,0.39951620000010735,0.4,1,0,AccAcc,8,18,Woman,Right,
53,6,1,1.0831127999999808,['n'],1,right,['e'],1,0.27942239999993035,0.4,1,0,AccAcc,8,18,Woman,Right,
54,6,1,0.9179041999996116,['c'],1,left,['e'],1,0.2495097999999416,0.2,1,0,AccAcc,8,18,Woman,Right,
55,6,1,0.7675062999996953,['n'],1,right,['e'],1,0.2586635000006936,0.4,1,0,AccAcc,8,18,Woman,Right,
56,6,1,1.2504711999999927,['c'],1,left,['u'],0,0.29698589999952674,0.2,0,0,AccAcc,8,18,Woman,Right,
57,6,1,1.2347332999997889,['n'],1,right,['u'],0,0.2534282999995412,0.1,0,0,AccAcc,8,18,Woman,Right,
58,6,1,5.000294600000416,x,-99,left,none,-99,-99,0.1,-99,1,AccAcc,8,18,Woman,Right,
59,6,1,1.067764000000352,['n'],1,right,['u'],0,0.2458624000000782,0.1,0,0,AccAcc,8,18,Woman,Right,
0,7,1,0.598977399999967,['c'],1,left,['u'],0,2.397788999999648,0.2,0,0,FastAcc,8,18,Woman,Right,
1,7,1,0.7004875000002357,['n'],1,right,['e'],1,0.4509955000003174,0.4,1,0,FastAcc,8,18,Woman,Right,
2,7,1,1.4151534000002357,['n'],1,right,['e'],1,0.6519303000004584,0.2,1,0,FastAcc,8,18,Woman,Right,
3,7,1,1.1841249999997672,['c'],0,right,['u'],0,0.21183939999991708,0.2,1,0,FastAcc,8,18,Woman,Right,
4,7,1,0.8672860999995464,['c'],1,left,['e'],1,0.2985015000003841,0.2,1,0,FastAcc,8,18,Woman,Right,
5,7,1,2.317340499999773,['n'],1,right,['u'],0,0.6122222999993028,0.1,0,0,FastAcc,8,18,Woman,Right,
6,7,1,1.8348036999996111,['n'],1,right,['u'],0,0.9495050999994419,0.4,0,0,FastAcc,8,18,Woman,Right,
7,7,1,0.6321068999995987,['n'],1,right,['u'],0,1.0969505000002755,0.2,0,0,FastAcc,8,18,Woman,Right,
8,7,1,0.7848134999994727,['c'],1,left,['u'],0,0.6067638000004081,0.1,0,0,FastAcc,8,18,Woman,Right,
9,7,1,1.0339987000006658,['n'],1,right,['u'],0,0.4315827000000354,0.1,0,0,FastAcc,8,18,Woman,Right,
10,7,1,1.2679552999998123,['c'],0,right,['u'],0,0.6858008999997764,0.1,1,0,FastAcc,8,18,Woman,Right,
11,7,1,1.7003677000002426,['c'],1,left,['u'],0,0.5137469000001147,0.1,0,0,FastAcc,8,18,Woman,Right,
12,7,1,1.0690335999997842,['c'],1,left,['e'],1,0.22780870000042341,0.2,1,0,FastAcc,8,18,Woman,Right,
13,7,1,0.5841288999999961,['c'],1,left,['e'],1,0.6623583000000508,0.4,1,0,FastAcc,8,18,Woman,Right,
14,7,1,1.3172663999994256,['c'],0,right,['e'],1,0.3936450999999579,0.1,0,0,FastAcc,8,18,Woman,Right,
15,7,1,0.8016660000002958,['c'],1,left,['e'],1,0.49190360000011424,0.2,1,0,FastAcc,8,18,Woman,Right,
16,7,1,0.634311699999671,['c'],1,left,['e'],1,0.9458091000005879,0.1,1,0,FastAcc,8,18,Woman,Right,
17,7,1,0.6684690000001865,['n'],1,right,['e'],1,0.2754333000002589,0.4,1,0,FastAcc,8,18,Woman,Right,
18,7,1,0.9673431999999593,['c'],1,left,['e'],1,0.5162504999998418,0.4,1,0,FastAcc,8,18,Woman,Right,
19,7,1,0.7177796000005401,['c'],1,left,['e'],1,0.4532444000005853,0.4,1,0,FastAcc,8,18,Woman,Right,
20,7,1,0.7346115999998801,['n'],1,right,['e'],1,0.936101599999347,0.4,1,0,FastAcc,8,18,Woman,Right,
21,7,1,0.9334829999997964,['c'],0,right,['u'],0,0.8645779999997103,0.1,1,0,FastAcc,8,18,Woman,Right,
22,7,1,0.649453099999846,['c'],0,right,['u'],0,2.310142899999846,0.1,1,0,FastAcc,8,18,Woman,Right,
23,7,1,1.15001139999913,['n'],1,right,['u'],0,1.0382353000004514,0.2,0,0,FastAcc,8,18,Woman,Right,
24,7,1,0.9164427999994587,['n'],1,right,['u'],0,1.650396100000762,0.4,0,0,FastAcc,8,18,Woman,Right,
25,7,1,0.6676065000001472,['n'],1,right,['u'],0,1.7680516999998872,0.4,0,0,FastAcc,8,18,Woman,Right,
26,7,1,0.6016267999993943,['c'],1,left,['e'],1,3.883759999999711,0.4,1,0,FastAcc,8,18,Woman,Right,
27,7,1,0.5840273000003435,['n'],1,right,['e'],1,1.4198605000001407,0.4,1,0,FastAcc,8,18,Woman,Right,
28,7,1,0.6344010000002527,['c'],1,left,['e'],1,1.2283244000000195,0.2,1,0,FastAcc,8,18,Woman,Right,
29,7,1,0.6321957999998631,['c'],1,left,['u'],0,1.2524708000000828,0.1,0,0,FastAcc,8,18,Woman,Right,
30,7,1,0.549946899999668,['c'],1,left,['e'],1,1.0708796999997503,0.4,1,0,FastAcc,8,18,Woman,Right,
31,7,1,0.6668878000000404,['n'],1,right,['e'],1,3.7237086000004638,0.2,1,0,FastAcc,8,18,Woman,Right,
32,7,1,1.0161133000001428,['c'],1,left,['u'],0,0.8326565999996092,0.1,0,0,FastAcc,8,18,Woman,Right,
33,7,1,1.9152039999999033,['c'],0,right,['u'],0,0.5654752999998891,0.1,1,0,FastAcc,8,18,Woman,Right,
34,7,1,2.634538600000269,['n'],0,left,['u'],0,0.6959200999999666,0.1,1,0,FastAcc,8,18,Woman,Right,
35,7,1,0.6166686999995363,['c'],1,left,['e'],1,1.0605877999996665,0.1,1,0,FastAcc,8,18,Woman,Right,
36,7,1,0.650279500000579,['n'],1,right,['e'],1,0.6591889999999694,0.4,1,0,FastAcc,8,18,Woman,Right,
37,7,1,0.6844019000000117,['c'],1,left,['e'],1,0.5440466000000015,0.2,1,0,FastAcc,8,18,Woman,Right,
38,7,1,0.6511737999999241,['c'],1,left,['e'],1,0.9311104999997042,0.4,1,0,FastAcc,8,18,Woman,Right,
39,7,1,0.5505167000001165,['c'],1,left,['u'],0,0.7777609999993729,0.2,0,0,FastAcc,8,18,Woman,Right,
40,7,1,0.5670340000006036,['c'],1,left,['e'],1,0.5995757999999114,0.2,1,0,FastAcc,8,18,Woman,Right,
41,7,1,0.5679608000000371,['c'],1,left,['e'],1,2.0902931000000535,0.1,1,0,FastAcc,8,18,Woman,Right,
42,7,1,2.0849372000002404,['n'],0,left,['u'],0,1.0624333000005208,0.4,1,0,FastAcc,8,18,Woman,Right,
43,7,1,0.7343930999995791,['c'],1,left,['u'],0,0.8166844000006677,0.1,0,0,FastAcc,8,18,Woman,Right,
44,7,1,1.1678064999996423,['c'],1,left,['e'],1,0.5797821999994994,0.4,1,0,FastAcc,8,18,Woman,Right,
45,7,1,0.6150812000005317,['c'],1,left,['u'],0,0.8388727000001381,0.1,0,0,FastAcc,8,18,Woman,Right,
46,7,1,1.5503093999996054,['c'],0,right,['u'],0,0.5209862000001522,0.2,1,0,FastAcc,8,18,Woman,Right,
47,7,1,0.6166590000002543,['c'],0,right,['u'],0,1.0543807999993078,0.1,1,0,FastAcc,8,18,Woman,Right,
48,7,1,0.7340002000000823,['c'],1,left,['u'],0,1.0016304000000673,0.2,0,0,FastAcc,8,18,Woman,Right,
49,7,1,0.5680249999995794,['c'],1,left,['e'],1,0.4932189000001017,0.4,1,0,FastAcc,8,18,Woman,Right,
50,7,1,1.385041500000625,['n'],1,right,['u'],0,1.0281550999998217,0.2,0,0,FastAcc,8,18,Woman,Right,
51,7,1,0.7507296999992832,['n'],1,right,['e'],1,0.4952368000003844,0.4,1,0,FastAcc,8,18,Woman,Right,
52,7,1,0.6327008000007481,['n'],1,right,['u'],0,1.0125938999999562,0.2,0,0,FastAcc,8,18,Woman,Right,
53,7,1,1.049651299999823,['n'],1,right,['u'],0,0.8196948999993765,0.4,0,0,FastAcc,8,18,Woman,Right,
54,7,1,0.9335397000004377,['c'],1,left,['e'],1,0.7534914999996545,0.2,1,0,FastAcc,8,18,Woman,Right,
55,7,1,0.4333461999995052,['c'],1,left,['e'],1,0.7071341000000757,0.1,1,0,FastAcc,8,18,Woman,Right,
56,7,1,1.0996456000002581,['c'],0,right,['e'],1,0.7022095000002082,0.2,0,0,FastAcc,8,18,Woman,Right,
57,7,1,0.5336007999994763,['n'],1,right,['e'],1,0.4308578000000125,0.4,1,0,FastAcc,8,18,Woman,Right,
58,7,1,0.8845750999998927,['c'],0,right,['u'],0,1.1647541000002093,0.1,1,0,FastAcc,8,18,Woman,Right,
59,7,1,1.517924299999322,['c'],0,right,['u'],0,1.0909615000000485,0.2,1,0,FastAcc,8,18,Woman,Right,
0,8,1,0.8172605999998268,['n'],1,right,['u'],0,0.34855510000033973,0.2,0,0,FastFast,8,18,Woman,Right,
1,8,1,0.6499526999996306,['n'],1,right,['e'],1,0.32798770000044897,0.4,1,0,FastFast,8,18,Woman,Right,
2,8,1,1.2498568000000887,['c'],1,left,['e'],1,0.250847999999678,0.1,1,0,FastFast,8,18,Woman,Right,
3,8,1,0.6009319000004325,['c'],1,left,['e'],1,0.3145522000004348,0.1,1,0,FastFast,8,18,Woman,Right,
4,8,1,0.5013987000002089,['n'],1,right,['e'],1,0.1880531000006158,0.4,1,0,FastFast,8,18,Woman,Right,
5,8,1,1.2681376999998974,['c'],1,left,['e'],1,0.13226839999970252,0.1,1,0,FastFast,8,18,Woman,Right,
6,8,1,0.8333652000001166,['n'],1,right,['u'],0,0.14395359999980428,0.2,0,0,FastFast,8,18,Woman,Right,
7,8,1,0.6676304000002347,['c'],1,left,['u'],0,0.22725609999997687,0.4,0,0,FastFast,8,18,Woman,Right,
8,8,1,1.4839470000006258,['c'],1,left,['u'],0,0.1444647000007535,0.2,0,0,FastFast,8,18,Woman,Right,
9,8,1,1.0679896999999983,['n'],1,right,['e'],1,0.1307144000002154,0.4,1,0,FastFast,8,18,Woman,Right,
10,8,1,2.467393799999627,['n'],1,right,['u'],0,0.15712540000004083,0.1,0,0,FastFast,8,18,Woman,Right,
11,8,1,1.0012467000005927,['c'],1,left,['e'],1,0.177340400000503,0.1,1,0,FastFast,8,18,Woman,Right,
12,8,1,1.1181956999998874,['c'],1,left,['u'],0,0.20869499999935215,0.1,0,0,FastFast,8,18,Woman,Right,
13,8,1,0.7857641999999032,['n'],1,right,['u'],0,0.2513343000000532,0.4,0,0,FastFast,8,18,Woman,Right,
14,8,1,0.6844972000008056,['c'],1,left,['e'],1,0.15289240000038262,0.2,1,0,FastFast,8,18,Woman,Right,
15,8,1,1.4003077999996094,['n'],1,right,['u'],0,0.2684185999996771,0.1,0,0,FastFast,8,18,Woman,Right,
16,8,1,0.5845693999999639,['c'],1,left,['e'],1,0.14059530000031373,0.4,1,0,FastFast,8,18,Woman,Right,
17,8,1,0.7498366999998325,['n'],1,right,['e'],1,0.060318699999697856,0.4,1,0,FastFast,8,18,Woman,Right,
18,8,1,0.8336689000007027,['c'],1,left,['e'],1,0.09100780000062514,0.4,1,0,FastFast,8,18,Woman,Right,
19,8,1,0.5178548999992927,['n'],1,right,['e'],1,0.06913779999922554,0.4,1,0,FastFast,8,18,Woman,Right,
20,8,1,0.6017740000006597,['c'],1,left,['e'],1,0.09258219999992434,0.2,1,0,FastFast,8,18,Woman,Right,
21,8,1,1.70137909999994,['c'],1,left,['u'],0,0.10308460000032937,0.2,0,0,FastFast,8,18,Woman,Right,
22,8,1,1.4329652999995233,['c'],1,left,['u'],0,0.029021800000009534,0.1,0,0,FastFast,8,18,Woman,Right,
23,8,1,0.9344449000000168,['c'],1,left,['e'],1,0.08772119999957795,0.4,1,0,FastFast,8,18,Woman,Right,
24,8,1,1.3998492999999144,['n'],0,left,['u'],0,4.51082309999947,0.2,1,0,FastFast,8,18,Woman,Right,
25,8,1,1.0684970000002068,['n'],1,right,['u'],0,0.11492270000053395,0.1,0,0,FastFast,8,18,Woman,Right,
26,8,1,0.9343814000003476,['c'],1,left,['e'],1,0.10717509999994945,0.1,1,0,FastFast,8,18,Woman,Right,
27,8,1,2.967359399999623,['n'],1,right,['u'],0,0.09888899999987188,0.1,0,0,FastFast,8,18,Woman,Right,
28,8,1,0.8342651000002661,['c'],1,left,['e'],1,0.11213150000003225,0.4,1,0,FastFast,8,18,Woman,Right,
29,8,1,1.3013867999998183,['c'],1,left,['e'],1,0.10526220000065223,0.2,1,0,FastFast,8,18,Woman,Right,
30,8,1,0.9674343000006047,['n'],1,right,['e'],1,0.1131322999999611,0.4,1,0,FastFast,8,18,Woman,Right,
31,8,1,0.683669000000009,['c'],1,left,['e'],1,0.11526479999974981,0.2,1,0,FastFast,8,18,Woman,Right,
32,8,1,0.550897599999189,['n'],1,right,['e'],1,0.1231750999995711,0.4,1,0,FastFast,8,18,Woman,Right,
33,8,1,0.5496020999999018,['n'],1,right,['e'],1,0.08297229999971023,0.2,1,0,FastFast,8,18,Woman,Right,
34,8,1,0.4501794999996491,['c'],0,right,['e'],1,0.06341539999993984,0.2,0,0,FastFast,8,18,Woman,Right,
35,8,1,2.233336400000553,['c'],0,right,['u'],0,0.15027350000036677,0.1,1,0,FastFast,8,18,Woman,Right,
36,8,1,0.5678932000000714,['c'],1,left,['e'],1,0.12296750000041357,0.4,1,0,FastFast,8,18,Woman,Right,
37,8,1,3.016833900000165,['n'],1,right,['u'],0,0.14445460000024468,0.1,0,0,FastFast,8,18,Woman,Right,
38,8,1,0.59903789999953,['n'],1,right,['e'],1,0.0866941999993287,0.4,1,0,FastFast,8,18,Woman,Right,
39,8,1,0.9851565000008122,['c'],0,right,['e'],1,0.029287299999850802,0.1,0,0,FastFast,8,18,Woman,Right,
40,8,1,0.6338126000000557,['n'],1,right,['e'],1,0.08430750000025,0.4,1,0,FastFast,8,18,Woman,Right,
41,8,1,0.6994755999994595,['c'],1,left,['u'],0,0.5045020999996268,0.2,0,0,FastFast,8,18,Woman,Right,
42,8,1,0.8510355999997046,['n'],1,right,['e'],1,0.13179479999962496,0.2,1,0,FastFast,8,18,Woman,Right,
43,8,1,0.5341857000003074,['c'],1,left,['e'],1,0.13916650000010122,0.4,1,0,FastFast,8,18,Woman,Right,
44,8,1,0.668086200000289,['n'],1,right,['e'],1,0.1250460999999632,0.2,1,0,FastFast,8,18,Woman,Right,
45,8,1,0.6001200999999128,['c'],1,left,['e'],1,0.11463920000005601,0.1,1,0,FastFast,8,18,Woman,Right,
46,8,1,0.9839616999997816,['n'],1,right,['u'],0,0.32988490000025195,0.2,0,0,FastFast,8,18,Woman,Right,
47,8,1,0.7339392999992924,['n'],1,right,['e'],1,0.16125170000032085,0.2,1,0,FastFast,8,18,Woman,Right,
48,8,1,1.7677800999999818,['c'],0,right,['e'],1,0.10237819999929343,0.2,0,0,FastFast,8,18,Woman,Right,
49,8,1,0.6674525999997059,['c'],1,left,['e'],1,0.2191120999996201,0.2,1,0,FastFast,8,18,Woman,Right,
50,8,1,0.7653730000001815,['c'],1,left,['e'],1,0.10203550000005635,0.1,1,0,FastFast,8,18,Woman,Right,
51,8,1,0.6020819000004849,['n'],0,left,['e'],1,0.15501469999981055,0.1,0,0,FastFast,8,18,Woman,Right,
52,8,1,0.868037600000207,['c'],1,left,['u'],0,0.18058339999970485,0.2,0,0,FastFast,8,18,Woman,Right,
53,8,1,0.7172290999997131,['c'],1,left,['e'],1,0.09857000000010885,0.4,1,0,FastFast,8,18,Woman,Right,
54,8,1,0.6008483999994496,['c'],1,left,['e'],1,0.10535919999983889,0.4,1,0,FastFast,8,18,Woman,Right,
55,8,1,0.6671894999999495,['n'],1,right,['e'],1,0.1412375999998403,0.1,1,0,FastFast,8,18,Woman,Right,
56,8,1,0.517457299999478,['c'],0,right,['u'],0,0.40513800000007905,0.1,1,0,FastFast,8,18,Woman,Right,
57,8,1,1.5845700999998371,['c'],0,right,['u'],0,0.08757299999979296,0.1,1,0,FastFast,8,18,Woman,Right,
58,8,1,0.6495796999997765,['c'],1,left,['e'],1,0.28592809999918245,0.4,1,0,FastFast,8,18,Woman,Right,
59,8,1,0.4997774000003119,['n'],1,right,['e'],1,0.09691360000033455,0.2,1,0,FastFast,8,18,Woman,Right,
0,9,1,2.3504659000000174,['c'],1,left,['u'],0,2.405461300000752,0.1,0,0,AccFast,8,18,Woman,Right,
1,9,1,1.9506325000002107,['c'],1,left,['e'],1,1.258071999999629,0.2,1,0,AccFast,8,18,Woman,Right,
2,9,1,2.5333058999995046,['c'],1,left,['e'],1,0.06935329999942041,0.2,1,0,AccFast,8,18,Woman,Right,
3,9,1,1.2495247999995627,['c'],0,right,['u'],0,0.035397999999986496,0.4,1,0,AccFast,8,18,Woman,Right,
4,9,1,1.951093500000752,['c'],1,left,['e'],1,0.1498487999997451,0.2,1,0,AccFast,8,18,Woman,Right,
5,9,1,0.6331772000003184,['c'],1,left,['e'],1,0.12132590000055643,0.2,1,0,AccFast,8,18,Woman,Right,
6,9,1,1.2995223000007172,['c'],1,left,['e'],1,0.24240949999966688,0.2,1,0,AccFast,8,18,Woman,Right,
7,9,1,1.8352756000003865,['c'],1,left,['e'],1,0.17753220000031433,0.1,1,0,AccFast,8,18,Woman,Right,
8,9,1,0.9014092999996137,['n'],1,right,['e'],1,0.18488960000013321,0.1,1,0,AccFast,8,18,Woman,Right,
9,9,1,2.066323099999863,['c'],0,right,['u'],0,1.5225585999996838,0.1,1,0,AccFast,8,18,Woman,Right,
10,9,1,0.8330076000002009,['c'],1,left,['e'],1,0.10321639999983745,0.2,1,0,AccFast,8,18,Woman,Right,
11,9,1,1.7328558999997767,['n'],1,right,['e'],1,0.09638769999946817,0.4,1,0,AccFast,8,18,Woman,Right,
12,9,1,1.5011810000005426,['c'],1,left,['e'],1,0.11324380000041856,0.4,1,0,AccFast,8,18,Woman,Right,
13,9,1,2.0837729999993826,['c'],1,left,['e'],1,0.02872739999929763,0.1,1,0,AccFast,8,18,Woman,Right,
14,9,1,2.1999550999998974,['c'],1,left,['e'],1,0.05349149999983638,0.2,1,0,AccFast,8,18,Woman,Right,
15,9,1,3.449015099999997,['n'],1,right,['e'],1,1.1646208000001934,0.1,1,0,AccFast,8,18,Woman,Right,
16,9,1,2.132048799999211,['n'],1,right,['u'],0,0.13924999999926513,0.2,0,0,AccFast,8,18,Woman,Right,
17,9,1,0.9162715999991633,['c'],1,left,['e'],1,0.08367840000028082,0.4,1,0,AccFast,8,18,Woman,Right,
18,9,1,1.2174481999991258,['n'],1,right,['e'],1,0.1125888999995368,0.4,1,0,AccFast,8,18,Woman,Right,
19,9,1,3.4020338000000265,['n'],1,right,['u'],0,0.1183682000000772,0.2,0,0,AccFast,8,18,Woman,Right,
20,9,1,1.8840365999994901,['n'],1,right,['e'],1,0.05751280000004044,0.2,1,0,AccFast,8,18,Woman,Right,
21,9,1,1.3328574000006483,['n'],1,right,['u'],0,0.08454840000013064,0.2,0,0,AccFast,8,18,Woman,Right,
22,9,1,1.916923200000383,['n'],1,right,['u'],0,0.05527260000053502,0.2,0,0,AccFast,8,18,Woman,Right,
23,9,1,2.9005919999999605,['c'],0,right,['u'],0,0.06810010000026523,0.1,1,0,AccFast,8,18,Woman,Right,
24,9,1,1.96651970000039,['n'],1,right,['u'],0,0.08460980000018026,0.2,0,0,AccFast,8,18,Woman,Right,
25,9,1,2.016566799999964,['n'],0,left,['e'],1,0.0984785999999076,0.2,0,0,AccFast,8,18,Woman,Right,
26,9,1,1.0505066000005172,['c'],1,left,['e'],1,0.03953359999923123,0.4,1,0,AccFast,8,18,Woman,Right,
27,9,1,1.5851866000002701,['c'],1,left,['u'],0,0.03955969999969966,0.1,0,0,AccFast,8,18,Woman,Right,
28,9,1,0.9340566999999282,['c'],1,left,['e'],1,0.035772000000179105,0.4,1,0,AccFast,8,18,Woman,Right,
29,9,1,1.235121199999412,['n'],1,right,['e'],1,0.01907429999937449,0.2,1,0,AccFast,8,18,Woman,Right,
30,9,1,1.0501489000007496,['n'],1,right,['e'],1,0.074524300000121,0.4,1,0,AccFast,8,18,Woman,Right,
31,9,1,2.0011633000003712,['n'],1,right,['e'],1,0.07397369999944203,0.2,1,0,AccFast,8,18,Woman,Right,
32,9,1,0.9018438999992213,['c'],1,left,['e'],1,0.06962790000034147,0.2,1,0,AccFast,8,18,Woman,Right,
33,9,1,0.8518099000002621,['n'],1,right,['e'],1,0.03547400000024936,0.4,1,0,AccFast,8,18,Woman,Right,
34,9,1,0.7011623000007603,['n'],1,right,['e'],1,0.07264390000000276,0.4,1,0,AccFast,8,18,Woman,Right,
35,9,1,0.8015892000003078,['c'],1,left,['e'],1,0.05574570000044332,0.4,1,0,AccFast,8,18,Woman,Right,
36,9,1,0.6655349000002388,['c'],1,left,['e'],1,0.06276530000013736,0.4,1,0,AccFast,8,18,Woman,Right,
37,9,1,1.2337663999996948,['n'],1,right,['u'],0,0.10902790000000095,0.1,0,0,AccFast,8,18,Woman,Right,
38,9,1,1.3019029999995837,['c'],0,right,['u'],0,0.054000400000404625,0.1,1,0,AccFast,8,18,Woman,Right,
39,9,1,0.7683872999996311,['c'],1,left,['e'],1,0.023988500000086788,0.4,1,0,AccFast,8,18,Woman,Right,
40,9,1,1.2847639000001436,['c'],0,right,['u'],0,0.08574200000020937,0.1,1,0,AccFast,8,18,Woman,Right,
41,9,1,1.6179842999999892,['c'],0,right,['u'],0,0.02014690000032715,0.1,1,0,AccFast,8,18,Woman,Right,
42,9,1,0.8170346999995672,['n'],1,right,['e'],1,0.08646190000035858,0.2,1,0,AccFast,8,18,Woman,Right,
43,9,1,0.7001250000002983,['c'],1,left,['u'],0,0.10461360000044806,0.1,0,0,AccFast,8,18,Woman,Right,
44,9,1,1.6347839000000022,['c'],1,left,['u'],0,0.06960890000027575,0.1,0,0,AccFast,8,18,Woman,Right,
45,9,1,1.4018330999997488,['c'],1,left,['e'],1,0.1724992999997994,0.1,1,0,AccFast,8,18,Woman,Right,
46,9,1,0.6680431000004319,['c'],1,left,['e'],1,0.06168140000045241,0.2,1,0,AccFast,8,18,Woman,Right,
47,9,1,0.7497789999997622,['n'],1,right,['e'],1,1.168138899999576,0.4,1,0,AccFast,8,18,Woman,Right,
48,9,1,0.8020107000002099,['n'],1,right,['e'],1,0.05127749999974185,0.4,1,0,AccFast,8,18,Woman,Right,
49,9,1,0.8339497999995729,['c'],1,left,['e'],1,0.06751429999985703,0.1,1,0,AccFast,8,18,Woman,Right,
50,9,1,0.6004731000002721,['c'],1,left,['e'],1,0.08981669999957376,0.4,1,0,AccFast,8,18,Woman,Right,
51,9,1,0.5514035999995031,['n'],0,left,['e'],1,0.1144971000003352,0.1,0,0,AccFast,8,18,Woman,Right,
52,9,1,0.6677247999996325,['c'],1,left,['e'],1,0.0374576000003799,0.4,1,0,AccFast,8,18,Woman,Right,
53,9,1,0.7346697000002678,['c'],1,left,['e'],1,0.025424800000109826,0.1,1,0,AccFast,8,18,Woman,Right,
54,9,1,0.5849086999996871,['n'],1,right,['e'],1,0.05130829999961861,0.1,1,0,AccFast,8,18,Woman,Right,
55,9,1,0.651631400000042,['n'],1,right,['e'],1,0.08950499999991735,0.4,1,0,AccFast,8,18,Woman,Right,
56,9,1,0.9348952000000281,['n'],1,right,['e'],1,0.0991585000001578,0.1,1,0,AccFast,8,18,Woman,Right,
57,9,1,0.7500966000006883,['c'],1,left,['e'],1,0.08399370000006456,0.4,1,0,AccFast,8,18,Woman,Right,
58,9,1,0.7004903000006379,['c'],0,right,['u'],0,0.08637219999945955,0.2,1,0,AccFast,8,18,Woman,Right,
59,9,1,1.1511961000005613,['n'],1,right,['e'],1,0.7114460000002509,0.4,1,0,AccFast,8,18,Woman,Right,
0,10,1,2.2176538000003347,['c'],1,left,['e'],1,1.011461699999927,0.1,1,0,AccAcc,8,18,Woman,Right,
1,10,1,1.3677170999999362,['n'],1,right,['e'],1,1.2223570000005566,0.2,1,0,AccAcc,8,18,Woman,Right,
2,10,1,1.5848433000001023,['n'],1,right,['u'],0,1.5606336000000738,0.2,0,0,AccAcc,8,18,Woman,Right,
3,10,1,1.4678509999994276,['n'],1,right,['u'],0,1.0426256000000649,0.1,0,0,AccAcc,8,18,Woman,Right,
4,10,1,1.0003024999996342,['n'],1,right,['e'],1,0.803919599999972,0.2,1,0,AccAcc,8,18,Woman,Right,
5,10,1,0.8849496000002546,['n'],1,right,['e'],1,0.8822966999996424,0.4,1,0,AccAcc,8,18,Woman,Right,
6,10,1,2.083303500000511,['n'],1,right,['u'],0,1.2305377999991833,0.1,0,0,AccAcc,8,18,Woman,Right,
7,10,1,2.1511952999999266,['n'],1,right,['u'],0,0.9533987000004345,0.1,0,0,AccAcc,8,18,Woman,Right,
8,10,1,1.1847053999999844,['c'],1,left,['e'],1,0.7422753999999259,0.2,1,0,AccAcc,8,18,Woman,Right,
9,10,1,0.9324588999998014,['n'],1,right,['e'],1,0.9992626000002929,0.2,1,0,AccAcc,8,18,Woman,Right,
10,10,1,0.7844421999998303,['c'],1,left,['e'],1,1.0576379000003726,0.1,1,0,AccAcc,8,18,Woman,Right,
11,10,1,0.8667837000002692,['n'],1,right,['e'],1,0.7428224000004775,0.4,1,0,AccAcc,8,18,Woman,Right,
12,10,1,1.3511232000000746,['n'],1,right,['u'],0,1.0775924999998097,0.2,0,0,AccAcc,8,18,Woman,Right,
13,10,1,2.2691232000006494,['c'],1,left,['u'],0,1.1875362999999197,0.1,0,0,AccAcc,8,18,Woman,Right,
14,10,1,0.9501393000000462,['n'],1,right,['e'],1,0.6080570000003718,0.4,1,0,AccAcc,8,18,Woman,Right,
15,10,1,1.3509186000001137,['n'],1,right,['e'],1,0.5967084999992949,0.4,1,0,AccAcc,8,18,Woman,Right,
16,10,1,1.4191033000006428,['c'],1,left,['u'],0,0.37391010000010283,0.2,0,0,AccAcc,8,18,Woman,Right,
17,10,1,3.167385099999592,['c'],0,right,['u'],0,1.3070590000006632,0.1,1,0,AccAcc,8,18,Woman,Right,
18,10,1,1.618222799999785,['c'],0,right,['u'],0,2.5538563999998587,0.4,1,0,AccAcc,8,18,Woman,Right,
19,10,1,2.932880300000761,['n'],1,right,['u'],0,1.7129013000003397,0.2,0,0,AccAcc,8,18,Woman,Right,
20,10,1,1.367445800000496,['c'],1,left,['u'],0,1.543311299999914,0.1,0,0,AccAcc,8,18,Woman,Right,
21,10,1,1.150289199999861,['c'],1,left,['u'],0,1.4703439000004437,0.1,0,0,AccAcc,8,18,Woman,Right,
22,10,1,0.8671634000002086,['c'],1,left,['e'],1,0.6594906999998784,0.4,1,0,AccAcc,8,18,Woman,Right,
23,10,1,1.5509494999996605,['c'],1,left,['e'],1,0.8298586999999316,0.1,1,0,AccAcc,8,18,Woman,Right,
24,10,1,2.517726899999616,['c'],1,left,['u'],0,0.7305070000002161,0.1,0,0,AccAcc,8,18,Woman,Right,
25,10,1,0.9514146000001347,['c'],1,left,['e'],1,0.4089430000003631,0.4,1,0,AccAcc,8,18,Woman,Right,
26,10,1,2.368045900000652,['c'],1,left,['u'],0,0.5896403999995528,0.4,0,0,AccAcc,8,18,Woman,Right,
27,10,1,1.0849289000007047,['c'],1,left,['u'],0,1.020629700000427,0.4,0,0,AccAcc,8,18,Woman,Right,
28,10,1,2.4186369999997623,['c'],0,right,['u'],0,0.9497638000002553,0.1,1,0,AccAcc,8,18,Woman,Right,
29,10,1,1.9512027000000671,['n'],1,right,['u'],0,1.0759547000006933,0.2,0,0,AccAcc,8,18,Woman,Right,
30,10,1,0.9015824000007342,['c'],1,left,['e'],1,0.15178060000016558,0.4,1,0,AccAcc,8,18,Woman,Right,
31,10,1,3.0494659000005413,['n'],0,left,['u'],0,0.9871712999993179,0.1,1,0,AccAcc,8,18,Woman,Right,
32,10,1,0.9673370999998951,['c'],1,left,['u'],0,1.4546544999993785,0.2,0,0,AccAcc,8,18,Woman,Right,
33,10,1,1.3840981000003012,['c'],1,left,['e'],1,0.4957752000000255,0.2,1,0,AccAcc,8,18,Woman,Right,
34,10,1,3.951723299999685,['n'],0,left,['u'],0,0.4161985000000641,0.1,1,0,AccAcc,8,18,Woman,Right,
35,10,1,0.7846825999995417,['c'],1,left,['e'],1,0.2104719999997542,0.4,1,0,AccAcc,8,18,Woman,Right,
36,10,1,1.6349050999997417,['c'],1,left,['e'],1,0.7314163999999437,0.1,1,0,AccAcc,8,18,Woman,Right,
37,10,1,1.3677183999998306,['c'],1,left,['u'],0,0.4578449999999066,0.1,0,0,AccAcc,8,18,Woman,Right,
38,10,1,2.9678869999997914,['n'],1,right,['u'],0,0.5966213000001517,0.2,0,0,AccAcc,8,18,Woman,Right,
39,10,1,0.8180760000004739,['c'],1,left,['e'],1,0.46127249999972264,0.4,1,0,AccAcc,8,18,Woman,Right,
40,10,1,0.8828171999994083,['n'],1,right,['u'],0,0.4584082999999737,0.4,0,0,AccAcc,8,18,Woman,Right,
41,10,1,0.9683469000001423,['c'],1,left,['e'],1,0.4678969999995388,0.4,1,0,AccAcc,8,18,Woman,Right,
42,10,1,2.2679619000000457,['c'],1,left,['u'],0,0.7129237999997713,0.1,0,0,AccAcc,8,18,Woman,Right,
43,10,1,3.4178044999998747,['n'],1,right,['u'],0,0.8062355000001844,0.2,0,0,AccAcc,8,18,Woman,Right,
44,10,1,3.2330853000003117,['n'],1,right,['u'],0,0.3441164999994726,0.4,0,0,AccAcc,8,18,Woman,Right,
45,10,1,2.6018735000006927,['n'],1,right,['u'],0,1.589415800000097,0.2,0,0,AccAcc,8,18,Woman,Right,
46,10,1,1.783220500000425,['n'],1,right,['u'],0,0.528524400000606,0.2,0,0,AccAcc,8,18,Woman,Right,
47,10,1,2.984164100000271,['n'],1,right,['u'],0,0.42224179999993794,0.4,0,0,AccAcc,8,18,Woman,Right,
48,10,1,2.4015872999998464,['n'],1,right,['e'],1,0.9039302999999563,0.4,1,0,AccAcc,8,18,Woman,Right,
49,10,1,1.1503266999998232,['n'],0,left,['e'],1,0.8244833999997354,0.2,0,0,AccAcc,8,18,Woman,Right,
50,10,1,1.8337155999997776,['n'],1,right,['e'],1,0.6085923999999068,0.4,1,0,AccAcc,8,18,Woman,Right,
51,10,1,1.816751899999872,['n'],1,right,['e'],1,1.378936899999644,0.4,1,0,AccAcc,8,18,Woman,Right,
52,10,1,1.9172436999997444,['c'],1,left,['e'],1,0.6570089000006192,0.2,1,0,AccAcc,8,18,Woman,Right,
53,10,1,1.4841968999999153,['c'],0,right,['u'],0,0.34989220000079513,0.1,1,0,AccAcc,8,18,Woman,Right,
54,10,1,1.3348199000001841,['c'],0,right,['u'],0,0.3489168999994945,0.2,1,0,AccAcc,8,18,Woman,Right,
55,10,1,4.384556099999827,['c'],0,right,['u'],0,0.3223260999993727,0.2,1,0,AccAcc,8,18,Woman,Right,
56,10,1,3.2675679000003583,['c'],1,left,['u'],0,0.30923840000014025,0.1,0,0,AccAcc,8,18,Woman,Right,
57,10,1,1.2681357999999818,['c'],1,left,['u'],0,0.3289623999999094,0.4,0,0,AccAcc,8,18,Woman,Right,
58,10,1,1.4678758000000016,['c'],1,left,['u'],0,1.2831396000001405,0.1,0,0,AccAcc,8,18,Woman,Right,
59,10,1,1.8179011000001992,['c'],1,left,['u'],0,0.44244199999957345,0.2,0,0,AccAcc,8,18,Woman,Right,
0,11,1,0.8010025000003225,['c'],0,right,['u'],0,2.2607174000004306,0.2,1,0,FastAcc,8,18,Woman,Right,
1,11,1,0.551075999999739,['n'],1,right,['e'],1,0.7110554000000775,0.4,1,0,FastAcc,8,18,Woman,Right,
2,11,1,0.8335794999993595,['c'],1,left,['u'],0,1.5165349999997488,0.2,0,0,FastAcc,8,18,Woman,Right,
3,11,1,1.8835656000001109,['c'],1,left,['u'],0,1.5589611999994304,0.1,0,0,FastAcc,8,18,Woman,Right,
4,11,1,1.184283100000357,['n'],1,right,['u'],0,1.8036511999998766,0.4,0,0,FastAcc,8,18,Woman,Right,
5,11,1,0.46809639999992214,['c'],1,left,['e'],1,0.6912340999997468,0.4,1,0,FastAcc,8,18,Woman,Right,
6,11,1,1.700861399999667,['n'],1,right,['u'],0,0.5345649000000776,0.4,0,0,FastAcc,8,18,Woman,Right,
7,11,1,1.6176571999994849,['n'],1,right,['e'],1,0.6264953999998397,0.2,1,0,FastAcc,8,18,Woman,Right,
8,11,1,2.050990499999898,['c'],1,left,['e'],1,0.682493300000715,0.4,1,0,FastAcc,8,18,Woman,Right,
9,11,1,3.1834485999997923,['n'],1,right,['u'],0,1.0268021000001681,0.4,0,0,FastAcc,8,18,Woman,Right,
10,11,1,0.7995532000004459,['c'],1,left,['u'],0,0.6212687999995978,0.2,0,0,FastAcc,8,18,Woman,Right,
11,11,1,2.9854558000006364,['c'],1,left,['e'],1,0.6223536999996213,0.1,1,0,FastAcc,8,18,Woman,Right,
12,11,1,0.6675520999997389,['c'],1,left,['u'],0,1.0854699999999866,0.1,0,0,FastAcc,8,18,Woman,Right,
13,11,1,0.7683209000006173,['c'],1,left,['e'],1,0.5017721999993228,0.4,1,0,FastAcc,8,18,Woman,Right,
14,11,1,1.4843375999998898,['c'],0,right,['u'],0,0.40965779999987717,0.4,1,0,FastAcc,8,18,Woman,Right,
15,11,1,1.3515803999998752,['c'],1,left,['u'],0,0.5811053999996147,0.4,0,0,FastAcc,8,18,Woman,Right,
16,11,1,1.8175028000005113,['c'],0,right,['u'],0,0.5037102999995113,0.1,1,0,FastAcc,8,18,Woman,Right,
17,11,1,3.8999459000006027,['n'],1,right,['u'],0,0.6993389999997817,0.1,0,0,FastAcc,8,18,Woman,Right,
18,11,1,1.8843815999998696,['n'],0,left,['e'],1,0.7743683999997302,0.4,0,0,FastAcc,8,18,Woman,Right,
19,11,1,2.282907400000113,['n'],0,left,['u'],0,0.3509916000002704,0.1,1,0,FastAcc,8,18,Woman,Right,
20,11,1,0.5012812000004487,['c'],1,left,['u'],0,1.358302100000401,0.2,0,0,FastAcc,8,18,Woman,Right,
21,11,1,0.7679918000003454,['n'],0,left,['e'],1,2.0754283999995096,0.1,0,0,FastAcc,8,18,Woman,Right,
22,11,1,0.652772499999628,['c'],1,left,['e'],1,0.78532770000038,0.4,1,0,FastAcc,8,18,Woman,Right,
23,11,1,1.28314920000048,['n'],1,right,['u'],0,0.4809576999996352,0.1,0,0,FastAcc,8,18,Woman,Right,
24,11,1,5.000403900000492,x,-99,right,none,-99,-99,0.1,-99,1,FastAcc,8,18,Woman,Right,
25,11,1,0.7004163000001427,['c'],1,left,['u'],0,0.5913593999994191,0.4,0,0,FastAcc,8,18,Woman,Right,
26,11,1,0.9178468000000066,['n'],1,right,['e'],1,0.22885779999978695,0.2,1,0,FastAcc,8,18,Woman,Right,
27,11,1,1.3493822999998883,['n'],1,right,['u'],0,0.281261899999663,0.2,0,0,FastAcc,8,18,Woman,Right,
28,11,1,1.3991960999992443,['n'],1,right,['e'],1,0.36030750000008993,0.2,1,0,FastAcc,8,18,Woman,Right,
29,11,1,0.6999463000001924,['n'],1,right,['e'],1,0.32047509999938484,0.2,1,0,FastAcc,8,18,Woman,Right,
30,11,1,2.6832402,['n'],1,right,['e'],1,0.12282820000018546,0.1,1,0,FastAcc,8,18,Woman,Right,
31,11,1,0.8690570999997362,['n'],1,right,['e'],1,0.3245262999998886,0.2,1,0,FastAcc,8,18,Woman,Right,
32,11,1,0.9497371999996176,['c'],1,left,['e'],1,0.8043408000003183,0.4,1,0,FastAcc,8,18,Woman,Right,
33,11,1,0.8159735999997793,['n'],1,right,['e'],1,0.5190509000003658,0.2,1,0,FastAcc,8,18,Woman,Right,
34,11,1,0.9165565000002971,['n'],1,right,['e'],1,0.9429034000004322,0.2,1,0,FastAcc,8,18,Woman,Right,
35,11,1,0.9668376999998145,['n'],0,left,['e'],1,0.549840900000163,0.1,0,0,FastAcc,8,18,Woman,Right,
36,11,1,1.0011340999999447,['n'],1,right,['u'],0,0.553274799999599,0.1,0,0,FastAcc,8,18,Woman,Right,
37,11,1,1.333843500000512,['n'],1,right,['u'],0,1.9845398999996178,0.4,0,0,FastAcc,8,18,Woman,Right,
38,11,1,1.5833818999999494,['n'],1,right,['u'],0,3.380881400000362,0.4,0,0,FastAcc,8,18,Woman,Right,
39,11,1,1.4333566999994218,['c'],0,right,['u'],0,0.6626667000000452,0.1,1,0,FastAcc,8,18,Woman,Right,
40,11,1,0.6345274000004792,['c'],1,left,['e'],1,0.6444219999993948,0.1,1,0,FastAcc,8,18,Woman,Right,
41,11,1,0.6346011999994516,['c'],0,right,['u'],0,0.7400219999999536,0.1,1,0,FastAcc,8,18,Woman,Right,
42,11,1,1.0007054000006974,['c'],1,left,['u'],0,0.5770244999994247,0.1,0,0,FastAcc,8,18,Woman,Right,
43,11,1,1.2180542000005516,['c'],1,left,['u'],0,0.9084579999998823,0.1,0,0,FastAcc,8,18,Woman,Right,
44,11,1,0.9170779000005496,['n'],1,right,['u'],0,1.173842600000171,0.2,0,0,FastAcc,8,18,Woman,Right,
45,11,1,0.8011280000000625,['n'],1,right,['u'],0,0.5694671999999628,0.2,0,0,FastAcc,8,18,Woman,Right,
46,11,1,0.5672488000000158,['n'],0,left,['u'],0,0.574530799999593,0.1,1,0,FastAcc,8,18,Woman,Right,
47,11,1,0.4832850000002509,['c'],1,left,['e'],1,0.5993103999999221,0.2,1,0,FastAcc,8,18,Woman,Right,
48,11,1,0.6009057999999641,['n'],0,left,['e'],1,0.7286052999997992,0.2,0,0,FastAcc,8,18,Woman,Right,
49,11,1,0.6511559999999008,['n'],1,right,['e'],1,0.4196211000007679,0.4,1,0,FastAcc,8,18,Woman,Right,
50,11,1,0.6512094999998226,['n'],1,right,['e'],1,0.7312397999994573,0.2,1,0,FastAcc,8,18,Woman,Right,
51,11,1,1.0345557000000554,['c'],1,left,['e'],1,0.5348921000004339,0.1,1,0,FastAcc,8,18,Woman,Right,
52,11,1,0.7178786000004038,['c'],1,left,['e'],1,0.8073160999992979,0.2,1,0,FastAcc,8,18,Woman,Right,
53,11,1,0.501129199999923,['c'],1,left,['e'],1,1.6215635999997176,0.4,1,0,FastAcc,8,18,Woman,Right,
54,11,1,0.40057440000055067,['c'],1,left,['u'],0,1.0799997000003714,0.2,0,0,FastAcc,8,18,Woman,Right,
55,11,1,0.6184348000006139,['c'],1,left,['e'],1,0.6616263000005347,0.4,1,0,FastAcc,8,18,Woman,Right,
56,11,1,0.5845532000003004,['n'],1,right,['u'],0,0.9180356999995638,0.1,0,0,FastAcc,8,18,Woman,Right,
57,11,1,0.6510345999995479,['c'],1,left,['e'],1,0.6654177999998865,0.4,1,0,FastAcc,8,18,Woman,Right,
58,11,1,0.5844455999995262,['n'],0,left,['u'],0,0.7137623999997231,0.2,1,0,FastAcc,8,18,Woman,Right,
59,11,1,0.45112109999990935,['n'],1,right,['e'],1,0.4936068000006344,0.4,1,0,FastAcc,8,18,Woman,Right,
0,12,1,0.5511704999998983,['n'],1,right,['e'],1,0.18109830000048532,0.4,1,0,FastFast,8,18,Woman,Right,
1,12,1,0.7510966999998345,['c'],0,right,['e'],1,0.19427149999955873,0.1,0,0,FastFast,8,18,Woman,Right,
2,12,1,0.9340744999999515,['n'],1,right,['u'],0,0.15188550000038958,0.1,0,0,FastFast,8,18,Woman,Right,
3,12,1,0.4681922999998278,['c'],1,left,['e'],1,0.2570178999994823,0.4,1,0,FastFast,8,18,Woman,Right,
4,12,1,0.5348196999993888,['c'],1,left,['e'],1,0.17991760000040813,0.1,1,0,FastFast,8,18,Woman,Right,
5,12,1,0.6669953000000532,['n'],0,left,['u'],0,0.22815319999972417,0.1,1,0,FastFast,8,18,Woman,Right,
6,12,1,0.7186007999998765,['c'],1,left,['e'],1,0.14521919999970123,0.1,1,0,FastFast,8,18,Woman,Right,
7,12,1,0.7336463999999978,['n'],1,right,['u'],0,0.8322515999998359,0.4,0,0,FastFast,8,18,Woman,Right,
8,12,1,0.6006145999999717,['n'],1,right,['e'],1,0.2650498000002699,0.4,1,0,FastFast,8,18,Woman,Right,
9,12,1,0.8845705000003363,['n'],1,right,['u'],0,0.23734820000026957,0.2,0,0,FastFast,8,18,Woman,Right,
10,12,1,0.6845899999998437,['c'],1,left,['u'],0,0.3627998000001753,0.1,0,0,FastFast,8,18,Woman,Right,
11,12,1,0.7836464000001797,['c'],0,right,['u'],0,0.7832659999994576,0.4,1,0,FastFast,8,18,Woman,Right,
12,12,1,0.7012288000005356,['c'],1,left,['e'],1,0.15027879999979632,0.4,1,0,FastFast,8,18,Woman,Right,
13,12,1,0.9007940999999846,['n'],1,right,['u'],0,0.43040149999978894,0.1,0,0,FastFast,8,18,Woman,Right,
14,12,1,0.63466519999929,['c'],1,left,['e'],1,0.13383619999967777,0.2,1,0,FastFast,8,18,Woman,Right,
15,12,1,0.7156872000005023,['c'],1,left,['e'],1,0.07124039999962406,0.4,1,0,FastFast,8,18,Woman,Right,
16,12,1,1.7833360000004177,['c'],1,left,['e'],1,0.031178000000181783,0.2,1,0,FastFast,8,18,Woman,Right,
17,12,1,1.2169931999997061,['n'],1,right,['e'],1,0.2389374999993379,0.2,1,0,FastFast,8,18,Woman,Right,
18,12,1,0.9504788000003828,['c'],1,left,['e'],1,0.2099936999993588,0.1,1,0,FastFast,8,18,Woman,Right,
19,12,1,1.0838369000002785,['n'],1,right,['u'],0,0.20874770000045828,0.1,0,0,FastFast,8,18,Woman,Right,
20,12,1,1.849853599999733,['c'],0,right,['u'],0,0.24115080000046873,0.1,1,0,FastFast,8,18,Woman,Right,
21,12,1,0.7678805000005013,['c'],1,left,['u'],0,4.747138600000653,0.4,0,0,FastFast,8,18,Woman,Right,
22,12,1,0.9176598000003651,['c'],1,left,['u'],0,0.0916997000003903,0.2,0,0,FastFast,8,18,Woman,Right,
23,12,1,0.8344785000008414,['c'],1,left,['e'],1,0.08897559999968507,0.4,1,0,FastFast,8,18,Woman,Right,
24,12,1,0.7846761000000697,['c'],1,left,['e'],1,0.1203905999991548,0.2,1,0,FastFast,8,18,Woman,Right,
25,12,1,1.8678099000007933,['c'],0,right,['u'],0,0.0753592999999455,0.2,1,0,FastFast,8,18,Woman,Right,
26,12,1,2.4677759999995033,['c'],0,right,['u'],0,0.07264710000072228,0.1,1,0,FastFast,8,18,Woman,Right,
27,12,1,1.1345682999999553,['c'],1,left,['u'],0,0.09133199999996577,0.2,0,0,FastFast,8,18,Woman,Right,
28,12,1,2.1679496999995536,['n'],1,right,['u'],0,0.30723219999981666,0.1,0,0,FastFast,8,18,Woman,Right,
29,12,1,0.6170774000001984,['n'],1,right,['u'],0,0.16059889999996813,0.2,0,0,FastFast,8,18,Woman,Right,
30,12,1,0.48429049999958806,['n'],1,right,['e'],1,0.07346359999974084,0.4,1,0,FastFast,8,18,Woman,Right,
31,12,1,0.7347609999997076,['n'],1,right,['e'],1,0.09194149999984802,0.1,1,0,FastFast,8,18,Woman,Right,
32,12,1,1.2670834999998988,['c'],1,left,['u'],0,0.12012080000022252,0.1,0,0,FastFast,8,18,Woman,Right,
33,12,1,1.3013143999996828,['c'],0,right,['u'],0,0.12959460000001854,0.1,1,0,FastFast,8,18,Woman,Right,
34,12,1,1.3182567000003473,['n'],0,left,['u'],0,0.12261000000034983,0.2,1,0,FastFast,8,18,Woman,Right,
35,12,1,0.8684472000004462,['c'],1,left,['e'],1,0.13302920000023732,0.4,1,0,FastFast,8,18,Woman,Right,
36,12,1,0.6517629999998462,['c'],1,left,['e'],1,0.0397581999995964,0.4,1,0,FastFast,8,18,Woman,Right,
37,12,1,2.134513400000287,['c'],0,right,['e'],1,0.08336859999963053,0.1,0,0,FastFast,8,18,Woman,Right,
38,12,1,1.6013903000002756,['n'],1,right,['e'],1,0.05045680000057473,0.2,1,0,FastFast,8,18,Woman,Right,
39,12,1,0.7512042000007568,['c'],1,left,['e'],1,0.052624899999500485,0.4,1,0,FastFast,8,18,Woman,Right,
40,12,1,0.8999131000000489,['n'],1,right,['e'],1,0.08163950000016484,0.4,1,0,FastFast,8,18,Woman,Right,
41,12,1,0.8176236999997855,['c'],1,left,['e'],1,3.1835344999999506,0.4,1,0,FastFast,8,18,Woman,Right,
42,12,1,0.6525620000002164,['c'],1,left,['e'],1,0.0885283999996318,0.4,1,0,FastFast,8,18,Woman,Right,
43,12,1,0.7511874000001626,['n'],1,right,['e'],1,0.10525009999946633,0.4,1,0,FastFast,8,18,Woman,Right,
44,12,1,0.634354799999528,['c'],1,left,['e'],1,0.07818590000078984,0.4,1,0,FastFast,8,18,Woman,Right,
45,12,1,0.6494623999997202,['n'],1,right,['e'],1,0.10041679999994813,0.4,1,0,FastFast,8,18,Woman,Right,
46,12,1,0.5694507999996858,['n'],1,right,['e'],1,0.13862239999980375,0.1,1,0,FastFast,8,18,Woman,Right,
47,12,1,0.6836260999998558,['n'],0,left,['e'],1,0.1246421999994709,0.2,0,0,FastFast,8,18,Woman,Right,
48,12,1,1.100936400000137,['n'],1,right,['e'],1,0.07770929999969667,0.2,1,0,FastFast,8,18,Woman,Right,
49,12,1,1.101459900000009,['c'],1,left,['e'],1,0.5133981999997559,0.2,1,0,FastFast,8,18,Woman,Right,
50,12,1,0.7998138000002655,['n'],1,right,['e'],1,0.5429441999995106,0.2,1,0,FastFast,8,18,Woman,Right,
51,12,1,1.0682353000001967,['c'],1,left,['e'],1,0.3212180000000444,0.2,1,0,FastFast,8,18,Woman,Right,
52,12,1,0.984045100000003,['n'],1,right,['e'],1,0.11163419999957114,0.2,1,0,FastFast,8,18,Woman,Right,
53,12,1,2.3673651999997674,['c'],0,right,['u'],0,0.19122599999991508,0.1,1,0,FastFast,8,18,Woman,Right,
54,12,1,2.567960899999889,['c'],1,left,['u'],0,0.24452740000015183,0.1,0,0,FastFast,8,18,Woman,Right,
55,12,1,2.784584299999551,['c'],0,right,['u'],0,0.20549970000047324,0.1,1,0,FastFast,8,18,Woman,Right,
56,12,1,2.017851999999948,['c'],1,left,['e'],1,0.10340749999977561,0.2,1,0,FastFast,8,18,Woman,Right,
57,12,1,1.0016998000000967,['c'],1,left,['e'],1,0.1094717000005403,0.2,1,0,FastFast,8,18,Woman,Right,
58,12,1,1.3988739000005808,['n'],1,right,['u'],0,0.18106190000071365,0.2,0,0,FastFast,8,18,Woman,Right,
59,12,1,1.3174136999996335,['c'],1,left,['e'],1,0.0902009999999791,0.4,1,0,FastFast,8,18,Woman,Right,
0,13,1,2.867992000000413,['c'],0,right,['u'],0,0.186971099999937,0.1,1,0,AccFast,8,18,Woman,Right,
1,13,1,1.035585199999332,['n'],1,right,['e'],1,0.1086288999995304,0.4,1,0,AccFast,8,18,Woman,Right,
2,13,1,2.067950099999507,['c'],0,right,['e'],1,0.00886869999976625,0.2,0,0,AccFast,8,18,Woman,Right,
3,13,1,2.4512670999993134,['n'],1,right,['e'],1,0.056061599999338796,0.4,1,0,AccFast,8,18,Woman,Right,
4,13,1,1.901764500000354,['n'],1,right,['e'],1,0.044316299999991315,0.2,1,0,AccFast,8,18,Woman,Right,
5,13,1,1.9336505999999645,['n'],1,right,['u'],0,0.12832150000031106,0.1,0,0,AccFast,8,18,Woman,Right,
6,13,1,1.5333536999996795,['c'],1,left,['e'],1,0.048524199999519624,0.2,1,0,AccFast,8,18,Woman,Right,
7,13,1,1.2170183000007455,['n'],1,right,['e'],1,0.03230679999978747,0.4,1,0,AccFast,8,18,Woman,Right,
8,13,1,1.2844908999995823,['c'],1,left,['e'],1,0.029760299999907147,0.1,1,0,AccFast,8,18,Woman,Right,
9,13,1,1.8844073999998727,['c'],1,left,['e'],1,0.004173000000264437,0.4,1,0,AccFast,8,18,Woman,Right,
10,13,1,1.5845932000001994,['n'],1,right,['e'],1,0.08634359999996377,0.1,1,0,AccFast,8,18,Woman,Right,
11,13,1,3.600943399999778,['n'],1,right,['u'],0,0.05365739999979269,0.2,0,0,AccFast,8,18,Woman,Right,
12,13,1,4.634468199999901,['n'],1,right,['e'],1,0.04471840000041993,0.4,1,0,AccFast,8,18,Woman,Right,
13,13,1,1.567271200000505,['c'],1,left,['e'],1,0.015900600000350096,0.4,1,0,AccFast,8,18,Woman,Right,
14,13,1,0.9018403000000035,['n'],1,right,['e'],1,0.060768000000280153,0.4,1,0,AccFast,8,18,Woman,Right,
15,13,1,1.967149199999767,['c'],1,left,['e'],1,0.030373900000085996,0.1,1,0,AccFast,8,18,Woman,Right,
16,13,1,1.8514401999991605,['c'],1,left,['e'],1,2.7893118000001778,0.2,1,0,AccFast,8,18,Woman,Right,
17,13,1,1.9506403000004866,['c'],1,left,['e'],1,0.02682249999998021,0.1,1,0,AccFast,8,18,Woman,Right,
18,13,1,2.8178084000001036,['c'],1,left,['e'],1,0.012389299999995274,0.1,1,0,AccFast,8,18,Woman,Right,
19,13,1,4.050444900000002,['n'],1,right,['u'],0,0.29959080000026006,0.2,0,0,AccFast,8,18,Woman,Right,
20,13,1,1.8510829000006197,['c'],1,left,['e'],1,0.05575750000025437,0.4,1,0,AccFast,8,18,Woman,Right,
21,13,1,0.9009844000001976,['c'],1,left,['e'],1,0.03633720000016183,0.4,1,0,AccFast,8,18,Woman,Right,
22,13,1,2.234398599999622,['c'],0,right,['u'],0,0.09187740000015765,0.2,1,0,AccFast,8,18,Woman,Right,
23,13,1,3.9511129000002256,['n'],0,left,['u'],0,0.06102949999967677,0.1,1,0,AccFast,8,18,Woman,Right,
24,13,1,1.4682119999997667,['c'],1,left,['e'],1,0.0507608000007167,0.4,1,0,AccFast,8,18,Woman,Right,
25,13,1,1.8010481000001164,['c'],1,left,['u'],0,0.09143259999927977,0.2,0,0,AccFast,8,18,Woman,Right,
26,13,1,1.2512632000007216,['c'],1,left,['e'],1,0.04006220000064786,0.4,1,0,AccFast,8,18,Woman,Right,
27,13,1,1.8009720000000016,['c'],0,right,['u'],0,0.03308409999954165,0.2,1,0,AccFast,8,18,Woman,Right,
28,13,1,3.2011806999998953,['c'],0,right,['u'],0,0.08240260000002309,0.2,1,0,AccFast,8,18,Woman,Right,
29,13,1,1.41663890000018,['c'],0,right,['u'],0,0.07313470000008238,0.2,1,0,AccFast,8,18,Woman,Right,
30,13,1,1.2345994999996037,['c'],1,left,['e'],1,0.7746028000001388,0.4,1,0,AccFast,8,18,Woman,Right,
31,13,1,3.3489957000001596,['n'],1,right,['u'],0,0.07002269999975397,0.2,0,0,AccFast,8,18,Woman,Right,
32,13,1,1.2022648000001936,['n'],1,right,['e'],1,0.02055469999959314,0.4,1,0,AccFast,8,18,Woman,Right,
33,13,1,1.0508629000005385,['c'],1,left,['u'],0,0.09191820000069129,0.1,0,0,AccFast,8,18,Woman,Right,
34,13,1,2.301444000000629,['n'],0,left,['u'],0,0.22301160000006348,0.1,1,0,AccFast,8,18,Woman,Right,
35,13,1,1.0008851000002323,['c'],1,left,['e'],1,0.04836929999964923,0.4,1,0,AccFast,8,18,Woman,Right,
36,13,1,1.5008845000002111,['n'],0,left,['e'],1,0.14906499999960943,0.1,0,0,AccFast,8,18,Woman,Right,
37,13,1,1.6674411000003602,['c'],1,left,['u'],0,0.23824599999989005,0.4,0,0,AccFast,8,18,Woman,Right,
38,13,1,3.81707649999953,['n'],1,right,['u'],0,0.14325209999969957,0.1,0,0,AccFast,8,18,Woman,Right,
39,13,1,1.8498910999996951,['n'],1,right,['u'],0,0.1627771000003122,0.1,0,0,AccFast,8,18,Woman,Right,
40,13,1,0.9684097999997903,['c'],0,right,['u'],0,0.03884809999999561,0.1,1,0,AccFast,8,18,Woman,Right,
41,13,1,2.367443600000115,['n'],1,right,['u'],0,0.10546500000054948,0.4,0,0,AccFast,8,18,Woman,Right,
42,13,1,2.650928799999747,['c'],0,right,['u'],0,0.15756009999950038,0.2,1,0,AccFast,8,18,Woman,Right,
43,13,1,2.4851802000002863,['n'],1,right,['e'],1,0.10302640000008978,0.2,1,0,AccFast,8,18,Woman,Right,
44,13,1,1.0843998000000283,['c'],1,left,['u'],0,0.08985089999987395,0.2,0,0,AccFast,8,18,Woman,Right,
45,13,1,1.7679458000002342,['c'],0,right,['u'],0,0.08295599999928527,0.1,1,0,AccFast,8,18,Woman,Right,
46,13,1,0.967699700000594,['c'],1,left,['e'],1,0.04256290000012086,0.4,1,0,AccFast,8,18,Woman,Right,
47,13,1,1.5003859999997076,['n'],1,right,['u'],0,0.04712310000013531,0.1,0,0,AccFast,8,18,Woman,Right,
48,13,1,1.301252100000056,['c'],1,left,['u'],0,0.07565230000000156,0.2,0,0,AccFast,8,18,Woman,Right,
49,13,1,3.6007104999998774,['n'],1,right,['e'],1,0.10720849999961501,0.2,1,0,AccFast,8,18,Woman,Right,
50,13,1,1.2844411999994918,['n'],1,right,['e'],1,0.0861125000001266,0.4,1,0,AccFast,8,18,Woman,Right,
51,13,1,3.949746700000105,['n'],1,right,['u'],0,0.10431950000020151,0.2,0,0,AccFast,8,18,Woman,Right,
52,13,1,0.7346047999999428,['c'],1,left,['e'],1,0.16849089999959688,0.4,1,0,AccFast,8,18,Woman,Right,
53,13,1,4.150362600000335,['c'],0,right,['u'],0,0.06241150000005291,0.1,1,0,AccFast,8,18,Woman,Right,
54,13,1,1.6179284999998345,['n'],0,left,['u'],0,0.061466699999982666,0.4,1,0,AccFast,8,18,Woman,Right,
55,13,1,2.901657100000193,['c'],1,left,['u'],0,0.04165199999988545,0.1,0,0,AccFast,8,18,Woman,Right,
56,13,1,1.0016383000001952,['c'],1,left,['u'],0,0.2746694000006755,0.1,0,0,AccFast,8,18,Woman,Right,
57,13,1,2.8010880000001634,['n'],0,left,['u'],0,0.13829480000003969,0.1,1,0,AccFast,8,18,Woman,Right,
58,13,1,1.1670948000000863,['c'],1,left,['e'],1,0.04176980000011099,0.2,1,0,AccFast,8,18,Woman,Right,
59,13,1,1.2009072000000742,['c'],1,left,['e'],1,0.025458699999944656,0.2,1,0,AccFast,8,18,Woman,Right,
0,14,1,1.984423799999604,['n'],1,right,['e'],1,0.8857983999996577,0.4,1,0,AccAcc,8,18,Woman,Right,
1,14,1,1.7513827000002493,['n'],1,right,['e'],1,0.462765400000535,0.2,1,0,AccAcc,8,18,Woman,Right,
2,14,1,1.6348830999995698,['n'],1,right,['e'],1,0.5571321999996144,0.2,1,0,AccAcc,8,18,Woman,Right,
3,14,1,1.43370909999976,['c'],1,left,['e'],1,0.48013670000000275,0.1,1,0,AccAcc,8,18,Woman,Right,
4,14,1,1.0504077000005054,['n'],1,right,['e'],1,0.5652138999994349,0.4,1,0,AccAcc,8,18,Woman,Right,
5,14,1,1.2171051999994233,['c'],1,left,['e'],1,0.41604259999985516,0.4,1,0,AccAcc,8,18,Woman,Right,
6,14,1,1.2010540999999648,['n'],1,right,['u'],0,0.32168670000010025,0.1,0,0,AccAcc,8,18,Woman,Right,
7,14,1,0.8339387000005445,['c'],1,left,['e'],1,0.46999010000035923,0.4,1,0,AccAcc,8,18,Woman,Right,
8,14,1,0.7684489000002941,['n'],1,right,['e'],1,0.37476800000058574,0.2,1,0,AccAcc,8,18,Woman,Right,
9,14,1,0.8161359999994602,['c'],1,left,['e'],1,0.32978970000021945,0.2,1,0,AccAcc,8,18,Woman,Right,
10,14,1,0.8016379000000597,['n'],1,right,['e'],1,0.446716400000696,0.1,1,0,AccAcc,8,18,Woman,Right,
11,14,1,1.1515996999996787,['n'],1,right,['e'],1,0.48107119999986026,0.4,1,0,AccAcc,8,18,Woman,Right,
12,14,1,5.000088200000391,x,-99,left,none,-99,-99,0.1,-99,1,AccAcc,8,18,Woman,Right,
13,14,1,1.734480799999801,['n'],1,right,['u'],0,1.9414568000001964,0.1,0,0,AccAcc,8,18,Woman,Right,
14,14,1,1.117488000000776,['c'],1,left,['u'],0,1.1183103999992454,0.4,0,0,AccAcc,8,18,Woman,Right,
15,14,1,0.984679999999571,['c'],1,left,['u'],0,1.0043724999995902,0.2,0,0,AccAcc,8,18,Woman,Right,
16,14,1,1.5847592999998596,['n'],0,left,['u'],0,0.7753333000000566,0.1,1,0,AccAcc,8,18,Woman,Right,
17,14,1,0.8837544000007256,['c'],1,left,['e'],1,0.7444606999997632,0.2,1,0,AccAcc,8,18,Woman,Right,
18,14,1,1.0177565000003597,['c'],1,left,['e'],1,0.6120166999999128,0.1,1,0,AccAcc,8,18,Woman,Right,
19,14,1,4.167703099999926,['n'],0,left,['u'],0,0.4072876999998698,0.1,1,0,AccAcc,8,18,Woman,Right,
20,14,1,1.200104000000465,['n'],1,right,['u'],0,0.5541788000000452,0.4,0,0,AccAcc,8,18,Woman,Right,
21,14,1,1.2835214999995515,['c'],1,left,['u'],0,0.24343659999976808,0.2,0,0,AccAcc,8,18,Woman,Right,
22,14,1,1.9341787000003023,['n'],1,right,['u'],0,0.9742232999997213,0.2,0,0,AccAcc,8,18,Woman,Right,
23,14,1,1.4177191999997376,['c'],1,left,['e'],1,0.24162020000039774,0.2,1,0,AccAcc,8,18,Woman,Right,
24,14,1,2.2176196000000346,['c'],1,left,['u'],0,0.09806010000011156,0.1,0,0,AccAcc,8,18,Woman,Right,
25,14,1,3.467393400000219,['n'],1,right,['u'],0,0.8856181999999535,0.1,0,0,AccAcc,8,18,Woman,Right,
26,14,1,1.1679759000007834,['n'],1,right,['e'],1,0.5979073000007702,0.1,1,0,AccAcc,8,18,Woman,Right,
27,14,1,1.4514098999998168,['n'],0,left,['e'],1,0.3422977999998693,0.2,0,0,AccAcc,8,18,Woman,Right,
28,14,1,0.7848079999994297,['c'],1,left,['e'],1,0.1877580999998827,0.4,1,0,AccAcc,8,18,Woman,Right,
29,14,1,1.9178459000004295,['n'],1,right,['u'],0,0.3782670999999027,0.1,0,0,AccAcc,8,18,Woman,Right,
30,14,1,0.9013531000000512,['n'],1,right,['e'],1,0.15391730000010284,0.4,1,0,AccAcc,8,18,Woman,Right,
31,14,1,1.1512965000001714,['n'],1,right,['u'],0,0.19935130000067147,0.2,0,0,AccAcc,8,18,Woman,Right,
32,14,1,0.9176486999995177,['n'],1,right,['e'],1,0.1250396000004912,0.4,1,0,AccAcc,8,18,Woman,Right,
33,14,1,1.951054699999986,['n'],0,left,['e'],1,0.15689169999950536,0.2,0,0,AccAcc,8,18,Woman,Right,
34,14,1,2.2338503999999375,['n'],0,left,['e'],1,0.7036608999997043,0.1,0,0,AccAcc,8,18,Woman,Right,
35,14,1,1.418370600000344,['c'],1,left,['e'],1,0.18966910000017378,0.1,1,0,AccAcc,8,18,Woman,Right,
36,14,1,1.968115200000284,['c'],0,right,['e'],1,0.26581569999962085,0.1,0,0,AccAcc,8,18,Woman,Right,
37,14,1,0.801598500000182,['n'],1,right,['e'],1,0.40180270000018936,0.2,1,0,AccAcc,8,18,Woman,Right,
38,14,1,2.499997599999915,['n'],1,right,['e'],1,0.4156825000000026,0.4,1,0,AccAcc,8,18,Woman,Right,
39,14,1,2.317526099999668,['c'],1,left,['u'],0,0.6769709000000148,0.1,0,0,AccAcc,8,18,Woman,Right,
40,14,1,0.8514046000000235,['c'],1,left,['e'],1,0.266537900000003,0.4,1,0,AccAcc,8,18,Woman,Right,
41,14,1,1.250958300000093,['c'],0,right,['e'],1,0.40035510000052454,0.1,0,0,AccAcc,8,18,Woman,Right,
42,14,1,3.7844454999994923,['c'],1,left,['e'],1,0.3956300999998348,0.2,1,0,AccAcc,8,18,Woman,Right,
43,14,1,1.0844650000008187,['n'],1,right,['u'],0,0.5462730999997802,0.1,0,0,AccAcc,8,18,Woman,Right,
44,14,1,1.402523900000233,['n'],1,right,['e'],1,0.4066219000005731,0.4,1,0,AccAcc,8,18,Woman,Right,
45,14,1,1.351277100000516,['n'],0,left,['e'],1,0.4351154999994833,0.2,0,0,AccAcc,8,18,Woman,Right,
46,14,1,1.4012910999999804,['c'],1,left,['e'],1,0.4448615000001155,0.4,1,0,AccAcc,8,18,Woman,Right,
47,14,1,4.133405699999457,['c'],0,right,['u'],0,0.5045294999999896,0.2,1,0,AccAcc,8,18,Woman,Right,
48,14,1,0.8510687999996662,['c'],1,left,['e'],1,0.30844379999962257,0.4,1,0,AccAcc,8,18,Woman,Right,
49,14,1,0.7516470999999001,['c'],1,left,['e'],1,0.4285204999996495,0.4,1,0,AccAcc,8,18,Woman,Right,
50,14,1,1.0017918000003192,['c'],1,left,['e'],1,0.46944410000014614,0.2,1,0,AccAcc,8,18,Woman,Right,
51,14,1,0.9679659999992509,['n'],1,right,['e'],1,0.3185033999998268,0.2,1,0,AccAcc,8,18,Woman,Right,
52,14,1,0.7170740999999907,['c'],1,left,['e'],1,0.43925839999974414,0.4,1,0,AccAcc,8,18,Woman,Right,
53,14,1,0.9514210000006642,['n'],1,right,['e'],1,0.290314999999282,0.4,1,0,AccAcc,8,18,Woman,Right,
54,14,1,1.5012298999999985,['n'],1,right,['e'],1,0.26921760000004724,0.4,1,0,AccAcc,8,18,Woman,Right,
55,14,1,0.8343954000001759,['c'],1,left,['e'],1,0.24398910000036267,0.4,1,0,AccAcc,8,18,Woman,Right,
56,14,1,2.2014054999999644,['c'],0,right,['u'],0,0.1648483999997552,0.2,1,0,AccAcc,8,18,Woman,Right,
57,14,1,1.5181202000003395,['c'],1,left,['u'],0,0.195778700000119,0.1,0,0,AccAcc,8,18,Woman,Right,
58,14,1,3.1173363000007157,['c'],0,right,['u'],0,0.32133989999965706,0.2,1,0,AccAcc,8,18,Woman,Right,
59,14,1,1.967768000000433,['n'],1,right,['u'],0,0.37648799999988114,0.1,0,0,AccAcc,8,18,Woman,Right,
0,15,1,0.5843665000002147,['n'],1,right,['u'],0,1.9008106000001135,0.4,0,0,FastAcc,8,18,Woman,Right,
1,15,1,1.5511001000004399,['c'],1,left,['u'],0,0.3257782999999108,0.4,0,0,FastAcc,8,18,Woman,Right,
2,15,1,0.6845040999996854,['n'],1,right,['u'],0,1.5029210000002422,0.2,0,0,FastAcc,8,18,Woman,Right,
3,15,1,0.5339405999993687,['c'],1,left,['e'],1,1.9518379000001005,0.4,1,0,FastAcc,8,18,Woman,Right,
4,15,1,0.8001454999994166,['c'],1,left,['u'],0,1.1883281999998871,0.2,0,0,FastAcc,8,18,Woman,Right,
5,15,1,0.5670759000004182,['n'],1,right,['u'],0,1.2486081999995804,0.4,0,0,FastAcc,8,18,Woman,Right,
6,15,1,0.6179940000001807,['c'],1,left,['e'],1,1.192229000000225,0.4,1,0,FastAcc,8,18,Woman,Right,
7,15,1,0.683879899999738,['c'],1,left,['e'],1,1.4081648000001223,0.1,1,0,FastAcc,8,18,Woman,Right,
8,15,1,0.6344168999994508,['c'],0,right,['u'],0,1.5048872999996092,0.1,1,0,FastAcc,8,18,Woman,Right,
9,15,1,0.5671554000000469,['c'],0,right,['u'],0,1.264657000000625,0.2,1,0,FastAcc,8,18,Woman,Right,
10,15,1,0.6513613000006444,['n'],1,right,['e'],1,0.982326500000454,0.4,1,0,FastAcc,8,18,Woman,Right,
11,15,1,2.0679299000003084,['c'],0,right,['u'],0,0.91046710000046,0.2,1,0,FastAcc,8,18,Woman,Right,
12,15,1,0.5344185000003563,['c'],1,left,['e'],1,0.9837131999993289,0.2,1,0,FastAcc,8,18,Woman,Right,
13,15,1,0.6344918999993752,['c'],0,right,['e'],1,1.4013931999998022,0.2,0,0,FastAcc,8,18,Woman,Right,
14,15,1,0.6007663000000321,['c'],0,right,['e'],1,1.1317181000003984,0.1,0,0,FastAcc,8,18,Woman,Right,
15,15,1,0.6181568000001789,['c'],1,left,['e'],1,0.8399219000002631,0.2,1,0,FastAcc,8,18,Woman,Right,
16,15,1,0.949656199999481,['c'],0,right,['u'],0,0.8681321999993088,0.2,1,0,FastAcc,8,18,Woman,Right,
17,15,1,1.6355172999992647,['n'],1,right,['e'],1,1.7452176999995572,0.2,1,0,FastAcc,8,18,Woman,Right,
18,15,1,0.7337646999994831,['c'],0,right,['u'],0,0.9124900999995589,0.1,1,0,FastAcc,8,18,Woman,Right,
19,15,1,0.8346637999993618,['c'],0,right,['u'],0,1.1327113999996072,0.4,1,0,FastAcc,8,18,Woman,Right,
20,15,1,0.6016405000000304,['c'],1,left,['e'],1,0.7617525000005116,0.4,1,0,FastAcc,8,18,Woman,Right,
21,15,1,0.7337240000006204,['c'],1,left,['e'],1,2.1598885000003065,0.2,1,0,FastAcc,8,18,Woman,Right,
22,15,1,0.7846644999999626,['c'],0,right,['e'],1,1.2770966999996745,0.1,0,0,FastAcc,8,18,Woman,Right,
23,15,1,0.768364699999438,['c'],1,left,['e'],1,1.1179987000004985,0.2,1,0,FastAcc,8,18,Woman,Right,
24,15,1,1.0168261000007988,['n'],1,right,['e'],1,0.6677235000006476,0.1,1,0,FastAcc,8,18,Woman,Right,
25,15,1,0.6685434999999416,['c'],1,left,['e'],1,0.6801476000000548,0.2,1,0,FastAcc,8,18,Woman,Right,
26,15,1,0.9014614999996411,['n'],1,right,['u'],0,0.795015699999567,0.1,0,0,FastAcc,8,18,Woman,Right,
27,15,1,0.7176858999991964,['c'],1,left,['e'],1,1.0247486999996909,0.4,1,0,FastAcc,8,18,Woman,Right,
28,15,1,1.0179281999999148,['c'],1,left,['e'],1,1.265639999999621,0.4,1,0,FastAcc,8,18,Woman,Right,
29,15,1,0.6512191000001621,['c'],0,right,['u'],0,0.5994290999997247,0.1,1,0,FastAcc,8,18,Woman,Right,
30,15,1,2.401150400000006,['n'],1,right,['u'],0,1.090470400000413,0.2,0,0,FastAcc,8,18,Woman,Right,
31,15,1,0.5846759000005477,['c'],1,left,['u'],0,1.2333532000002378,0.1,0,0,FastAcc,8,18,Woman,Right,
32,15,1,0.667892600000414,['n'],1,right,['e'],1,1.1598829000004116,0.1,1,0,FastAcc,8,18,Woman,Right,
33,15,1,1.385171600000831,['c'],0,right,['u'],0,0.5647084000001996,0.1,1,0,FastAcc,8,18,Woman,Right,
34,15,1,0.701842100000249,['c'],1,left,['e'],1,0.27641159999984666,0.4,1,0,FastAcc,8,18,Woman,Right,
35,15,1,1.3848361999998815,['c'],0,right,['e'],1,0.7247665999993842,0.1,0,0,FastAcc,8,18,Woman,Right,
36,15,1,0.6156543999995847,['c'],0,right,['u'],0,0.8831574000005276,0.1,1,0,FastAcc,8,18,Woman,Right,
37,15,1,0.584501100000125,['c'],1,left,['e'],1,0.8101072999997996,0.4,1,0,FastAcc,8,18,Woman,Right,
38,15,1,0.7851217000006727,['c'],1,left,['e'],1,0.8122933000004195,0.4,1,0,FastAcc,8,18,Woman,Right,
39,15,1,1.3843862000003355,['n'],1,right,['u'],0,0.6465698000001794,0.2,0,0,FastAcc,8,18,Woman,Right,
40,15,1,0.934635999999955,['n'],1,right,['e'],1,1.1295491000000766,0.4,1,0,FastAcc,8,18,Woman,Right,
41,15,1,0.9011814999994385,['n'],1,right,['e'],1,0.5548650000000634,0.2,1,0,FastAcc,8,18,Woman,Right,
42,15,1,1.0164325000005192,['c'],1,left,['e'],1,0.8302184000003763,0.1,1,0,FastAcc,8,18,Woman,Right,
43,15,1,0.6171070000000327,['n'],1,right,['e'],1,0.8867446999993263,0.4,1,0,FastAcc,8,18,Woman,Right,
44,15,1,0.6503207000005204,['c'],1,left,['e'],1,0.5395844000004217,0.4,1,0,FastAcc,8,18,Woman,Right,
45,15,1,0.4516804000004413,['n'],1,right,['e'],1,0.6144027000000278,0.4,1,0,FastAcc,8,18,Woman,Right,
46,15,1,0.8344964000007167,['c'],1,left,['e'],1,0.6555945000000065,0.1,1,0,FastAcc,8,18,Woman,Right,
47,15,1,0.634564599999976,['c'],1,left,['u'],0,0.8940068000001702,0.1,0,0,FastAcc,8,18,Woman,Right,
48,15,1,0.8346635000007154,['c'],1,left,['e'],1,0.8432972999999038,0.2,1,0,FastAcc,8,18,Woman,Right,
49,15,1,0.818126599999232,['c'],1,left,['u'],0,0.8278589000001375,0.1,0,0,FastAcc,8,18,Woman,Right,
50,15,1,0.5343670999991446,['c'],1,left,['e'],1,0.8080167999996775,0.2,1,0,FastAcc,8,18,Woman,Right,
51,15,1,0.7176060000001598,['c'],1,left,['e'],1,0.7496036000002277,0.1,1,0,FastAcc,8,18,Woman,Right,
52,15,1,0.7013501999999789,['n'],1,right,['e'],1,0.7097247000001516,0.1,1,0,FastAcc,8,18,Woman,Right,
53,15,1,1.3503153000001475,['c'],0,right,['u'],0,0.8864869000008184,0.2,1,0,FastAcc,8,18,Woman,Right,
54,15,1,0.7181603999997606,['n'],1,right,['e'],1,1.0163093999999546,0.4,1,0,FastAcc,8,18,Woman,Right,
55,15,1,0.883514400000422,['c'],1,left,['u'],0,0.7026754000007713,0.2,0,0,FastAcc,8,18,Woman,Right,
56,15,1,0.8008571999998821,['c'],1,left,['e'],1,0.34112179999920045,0.4,1,0,FastAcc,8,18,Woman,Right,
57,15,1,1.1515032000006613,['c'],1,left,['u'],0,0.6680295999994996,0.1,0,0,FastAcc,8,18,Woman,Right,
58,15,1,0.8514859999995679,['c'],1,left,['u'],0,0.769552400000066,0.2,0,0,FastAcc,8,18,Woman,Right,
59,15,1,0.5676661999996213,['c'],1,left,['e'],1,0.7985631999999896,0.4,1,0,FastAcc,8,18,Woman,Right,
