withinblocktrial,block,block_repetition,rt,resp,cor,cresp,conf_press,cj,rtconf,coherence,slow_trial,manipulation,sub,age,gender,handedness,
0,1,1,1.349599299999909,['n'],0,left,none,-99,-99,0.5,0,none,7,18,Man,Right,
1,1,1,1.583268900000121,['n'],0,left,none,-99,-99,0.5,0,none,7,18,Man,Right,
2,1,1,2.350533499999983,['n'],1,right,none,-99,-99,0.5,0,none,7,18,Man,Right,
3,1,1,4.299197900000081,['c'],0,right,none,-99,-99,0.5,0,none,7,18,Man,Right,
4,1,1,4.532789200000025,['c'],0,right,none,-99,-99,0.5,0,none,7,18,Man,Right,
5,1,1,3.449908800000003,['c'],1,left,none,-99,-99,0.5,0,none,7,18,Man,Right,
6,1,1,2.282348899999988,['n'],1,right,none,-99,-99,0.5,0,none,7,18,Man,Right,
7,1,1,2.4160095000002,['n'],1,right,none,-99,-99,0.5,0,none,7,18,Man,Right,
8,1,1,1.966484100000116,['c'],0,right,none,-99,-99,0.5,0,none,7,18,Man,Right,
9,1,1,2.8835571999998137,['c'],0,right,none,-99,-99,0.5,0,none,7,18,Man,Right,
10,1,1,2.1994802000001528,['n'],1,right,none,-99,-99,0.5,0,none,7,18,Man,Right,
11,1,1,1.1003346999998485,['c'],1,left,none,-99,-99,0.5,0,none,7,18,Man,Right,
12,1,1,1.5982475000000704,['n'],1,right,none,-99,-99,0.5,0,none,7,18,Man,Right,
13,1,1,2.7161105999998654,['n'],1,right,none,-99,-99,0.5,0,none,7,18,Man,Right,
14,1,1,2.3332268000001477,['n'],1,right,none,-99,-99,0.5,0,none,7,18,Man,Right,
15,1,1,0.9331425000000309,['c'],1,left,none,-99,-99,0.5,0,none,7,18,Man,Right,
16,1,1,0.8490578000000824,['c'],1,left,none,-99,-99,0.5,0,none,7,18,Man,Right,
17,1,1,2.265824000000066,['c'],1,left,none,-99,-99,0.5,0,none,7,18,Man,Right,
18,1,1,1.5004245999998602,['c'],1,left,none,-99,-99,0.5,0,none,7,18,Man,Right,
19,1,1,2.4996141999999963,['c'],1,left,none,-99,-99,0.5,0,none,7,18,Man,Right,
20,1,1,0.8835790000000543,['n'],1,right,none,-99,-99,0.5,0,none,7,18,Man,Right,
21,1,1,0.7842441999998755,['c'],1,left,none,-99,-99,0.5,0,none,7,18,Man,Right,
22,1,1,0.9493270000000393,['c'],1,left,none,-99,-99,0.5,0,none,7,18,Man,Right,
23,1,1,5.0164826000000176,x,-99,left,none,-99,-99,0.5,1,none,7,18,Man,Right,
0,1,2,1.2833872000001065,['n'],0,left,none,-99,-99,0.5,0,none,7,18,Man,Right,
1,1,2,1.7833989000000656,['c'],1,left,none,-99,-99,0.5,0,none,7,18,Man,Right,
2,1,2,0.7663890999999694,['n'],1,right,none,-99,-99,0.5,0,none,7,18,Man,Right,
3,1,2,0.6497964000000138,['c'],1,left,none,-99,-99,0.5,0,none,7,18,Man,Right,
4,1,2,0.6170322000000397,['n'],1,right,none,-99,-99,0.5,0,none,7,18,Man,Right,
5,1,2,0.6171752000000197,['n'],1,right,none,-99,-99,0.5,0,none,7,18,Man,Right,
6,1,2,0.5822779999998602,['c'],1,left,none,-99,-99,0.5,0,none,7,18,Man,Right,
7,1,2,0.6000269999999546,['n'],1,right,none,-99,-99,0.5,0,none,7,18,Man,Right,
8,1,2,0.6162209999999959,['n'],1,right,none,-99,-99,0.5,0,none,7,18,Man,Right,
9,1,2,0.6334300999999414,['c'],1,left,none,-99,-99,0.5,0,none,7,18,Man,Right,
10,1,2,1.3330551000001378,['c'],1,left,none,-99,-99,0.5,0,none,7,18,Man,Right,
11,1,2,0.7495819999999185,['n'],1,right,none,-99,-99,0.5,0,none,7,18,Man,Right,
12,1,2,0.9836751000000277,['c'],1,left,none,-99,-99,0.5,0,none,7,18,Man,Right,
13,1,2,0.5993991000000278,['n'],1,right,none,-99,-99,0.5,0,none,7,18,Man,Right,
14,1,2,0.6000381999999718,['n'],1,right,none,-99,-99,0.5,0,none,7,18,Man,Right,
15,1,2,0.6500762000000577,['n'],1,right,none,-99,-99,0.5,0,none,7,18,Man,Right,
16,1,2,0.5666927999998279,['n'],1,right,none,-99,-99,0.5,0,none,7,18,Man,Right,
17,1,2,0.6171604000001025,['c'],1,left,none,-99,-99,0.5,0,none,7,18,Man,Right,
18,1,2,0.566660899999988,['n'],1,right,none,-99,-99,0.5,0,none,7,18,Man,Right,
19,1,2,0.5169945000000098,['c'],1,left,none,-99,-99,0.5,0,none,7,18,Man,Right,
20,1,2,0.5829724000000169,['c'],1,left,none,-99,-99,0.5,0,none,7,18,Man,Right,
21,1,2,0.8004419000001235,['c'],1,left,none,-99,-99,0.5,0,none,7,18,Man,Right,
22,1,2,0.5329686000000038,['n'],1,right,none,-99,-99,0.5,0,none,7,18,Man,Right,
23,1,2,0.5331657999997788,['c'],1,left,none,-99,-99,0.5,0,none,7,18,Man,Right,
0,2,1,1.1827898999999888,['n'],1,right,none,-99,-99,0.1,0,none,7,18,Man,Right,
1,2,1,2.30025999999998,['c'],1,left,none,-99,-99,0.1,0,none,7,18,Man,Right,
2,2,1,0.8998407000001407,['c'],1,left,none,-99,-99,0.4,0,none,7,18,Man,Right,
3,2,1,0.5824082999999973,['n'],1,right,none,-99,-99,0.4,0,none,7,18,Man,Right,
4,2,1,0.5999337000000651,['n'],0,left,none,-99,-99,0.1,0,none,7,18,Man,Right,
5,2,1,0.5331582999999682,['n'],1,right,none,-99,-99,0.2,0,none,7,18,Man,Right,
6,2,1,0.6156074000000444,['n'],1,right,none,-99,-99,0.4,0,none,7,18,Man,Right,
7,2,1,0.9325978000001669,['c'],0,right,none,-99,-99,0.2,0,none,7,18,Man,Right,
8,2,1,0.5344857000000047,['n'],1,right,none,-99,-99,0.4,0,none,7,18,Man,Right,
9,2,1,2.03297160000011,['n'],1,right,none,-99,-99,0.2,0,none,7,18,Man,Right,
10,2,1,0.6171706000000086,['c'],1,left,none,-99,-99,0.1,0,none,7,18,Man,Right,
11,2,1,0.6827430999999251,['c'],1,left,none,-99,-99,0.4,0,none,7,18,Man,Right,
12,2,1,0.6997764000000188,['c'],1,left,none,-99,-99,0.2,0,none,7,18,Man,Right,
13,2,1,0.766701699999885,['c'],1,left,none,-99,-99,0.1,0,none,7,18,Man,Right,
14,2,1,1.0003140000001167,['n'],1,right,none,-99,-99,0.1,0,none,7,18,Man,Right,
15,2,1,0.6156953999998223,['c'],1,left,none,-99,-99,0.1,0,none,7,18,Man,Right,
16,2,1,2.5001224000000093,['c'],1,left,none,-99,-99,0.2,0,none,7,18,Man,Right,
17,2,1,0.6168679999998403,['n'],1,right,none,-99,-99,0.4,0,none,7,18,Man,Right,
18,2,1,0.6164719999999306,['c'],1,left,none,-99,-99,0.4,0,none,7,18,Man,Right,
19,2,1,0.6489948999999342,['c'],0,right,none,-99,-99,0.1,0,none,7,18,Man,Right,
20,2,1,0.48367830000006506,['n'],1,right,none,-99,-99,0.4,0,none,7,18,Man,Right,
21,2,1,0.6170598000001064,['n'],1,right,none,-99,-99,0.2,0,none,7,18,Man,Right,
22,2,1,0.7667650000000776,['c'],1,left,none,-99,-99,0.2,0,none,7,18,Man,Right,
23,2,1,0.6162977999999839,['c'],1,left,none,-99,-99,0.2,0,none,7,18,Man,Right,
0,3,1,2.349431400000185,['n'],0,left,['8'],4,3.3005344999999124,0.1,0,none,7,18,Man,Right,
1,3,1,1.9163745000000745,['c'],0,right,['2'],2,2.2172033000001647,0.1,0,none,7,18,Man,Right,
2,3,1,3.0002598999999464,['n'],1,right,['3'],3,2.8004254999998466,0.1,0,none,7,18,Man,Right,
3,3,1,2.8493707000000086,['n'],0,left,['1'],1,1.8672583000000031,0.1,0,none,7,18,Man,Right,
4,3,1,1.117493199999899,['n'],1,right,['9'],5,1.3503901999999925,0.4,0,none,7,18,Man,Right,
5,3,1,3.0828993000000082,['n'],1,right,['8'],4,1.383856200000082,0.2,0,none,7,18,Man,Right,
6,3,1,1.4167591000000357,['n'],1,right,['0'],6,0.9173901999999998,0.4,0,none,7,18,Man,Right,
7,3,1,0.983743400000094,['c'],1,left,['0'],6,1.817193300000099,0.2,0,none,7,18,Man,Right,
8,3,1,0.6159205999999813,['c'],1,left,['0'],6,1.200622600000088,0.4,0,none,7,18,Man,Right,
9,3,1,2.3831427999998596,['c'],1,left,['1'],1,3.1838591999999153,0.1,0,none,7,18,Man,Right,
10,3,1,1.2175732000000608,['c'],1,left,['3'],3,2.567170699999906,0.2,0,none,7,18,Man,Right,
11,3,1,1.301058199999943,['c'],1,left,['8'],4,1.6838669000001119,0.4,0,none,7,18,Man,Right,
12,3,1,0.9992526999999427,['n'],1,right,['9'],5,0.9338776000001872,0.2,0,none,7,18,Man,Right,
13,3,1,0.8336236000000099,['n'],1,right,['0'],6,0.7337812000000667,0.4,0,none,7,18,Man,Right,
14,3,1,0.8169516999998905,['c'],1,left,['3'],3,2.1670262000000093,0.2,0,none,7,18,Man,Right,
15,3,1,0.6338296999999784,['n'],1,right,['9'],5,2.1999333000001116,0.1,0,none,7,18,Man,Right,
16,3,1,0.6009650999999394,['c'],1,left,['9'],5,3.783674999999903,0.4,0,none,7,18,Man,Right,
17,3,1,0.6164894999999433,['n'],1,right,['0'],6,0.9839077999999972,0.4,0,none,7,18,Man,Right,
18,3,1,0.4676730999999563,['n'],1,right,['0'],6,0.9836259000001064,0.1,0,none,7,18,Man,Right,
19,3,1,3.1675810000001547,['n'],1,right,['9'],5,0.9506274000000303,0.2,0,none,7,18,Man,Right,
20,3,1,0.5842409999997926,['c'],1,left,['0'],6,3.233813899999859,0.4,0,none,7,18,Man,Right,
21,3,1,4.316826099999844,['c'],1,left,['2'],2,1.7505350000001272,0.2,0,none,7,18,Man,Right,
22,3,1,0.6837699000000157,['n'],0,left,['8'],4,1.7169830000000275,0.1,0,none,7,18,Man,Right,
23,3,1,0.6840925000001334,['n'],1,right,['9'],5,1.1838299999999435,0.2,0,none,7,18,Man,Right,
0,4,1,0.7342815999998038,['n'],1,right,['9'],5,0.7503186999999798,0.1,0,FastFast,7,18,Man,Right,
1,4,1,0.40003630000001067,['c'],0,right,['2'],2,0.6837335000000166,0.2,0,FastFast,7,18,Man,Right,
2,4,1,0.5668958999999631,['n'],1,right,['0'],6,0.7338680000000295,0.4,0,FastFast,7,18,Man,Right,
3,4,1,1.4166133999999602,['n'],1,right,['0'],6,0.5838965000000371,0.1,0,FastFast,7,18,Man,Right,
4,4,1,1.0834191999999803,['n'],1,right,['9'],5,0.9338027999999667,0.1,0,FastFast,7,18,Man,Right,
5,4,1,0.6833421000001181,['n'],1,right,['9'],5,0.7174340999999913,0.4,0,FastFast,7,18,Man,Right,
6,4,1,0.5668904999999995,['c'],1,left,['0'],6,1.3501113999998324,0.2,0,FastFast,7,18,Man,Right,
7,4,1,0.8171085999999832,['n'],1,right,['9'],5,0.6839347999998608,0.4,0,FastFast,7,18,Man,Right,
8,4,1,0.734062300000005,['c'],1,left,['8'],4,1.5170356000000993,0.4,0,FastFast,7,18,Man,Right,
9,4,1,1.0164354000000912,['c'],1,left,['2'],2,1.1670036000000437,0.2,0,FastFast,7,18,Man,Right,
10,4,1,1.2510798999999224,['c'],1,left,['3'],3,1.3338638000000174,0.2,0,FastFast,7,18,Man,Right,
11,4,1,1.0002660000000105,['n'],0,left,['9'],5,0.8671247999998286,0.2,0,FastFast,7,18,Man,Right,
12,4,1,0.634123499999987,['n'],1,right,['0'],6,0.6673980999999003,0.4,0,FastFast,7,18,Man,Right,
13,4,1,1.4500699000000168,['n'],0,left,['0'],6,0.8672062999999071,0.2,0,FastFast,7,18,Man,Right,
14,4,1,3.1665706000001137,['n'],0,left,['1'],1,0.9338505999999143,0.1,0,FastFast,7,18,Man,Right,
15,4,1,1.1841391999998905,['c'],1,left,['2'],2,1.4505178000001706,0.1,0,FastFast,7,18,Man,Right,
16,4,1,1.0171691000000465,['n'],0,left,['9'],5,0.7671434999999747,0.1,0,FastFast,7,18,Man,Right,
17,4,1,0.68411019999985,['n'],1,right,['8'],4,0.5502670000000762,0.2,0,FastFast,7,18,Man,Right,
18,4,1,1.4668805000001157,['c'],1,left,['2'],2,1.267347399999835,0.2,0,FastFast,7,18,Man,Right,
19,4,1,0.8168676000000232,['c'],1,left,['0'],6,1.1005654000000504,0.4,0,FastFast,7,18,Man,Right,
20,4,1,0.5836425999998482,['n'],1,right,['0'],6,0.650094099999933,0.2,0,FastFast,7,18,Man,Right,
21,4,1,1.0172059999999874,['n'],1,right,['0'],6,0.4506340000000364,0.4,0,FastFast,7,18,Man,Right,
22,4,1,1.3006635000001552,['n'],0,left,['9'],5,0.8673346000000492,0.2,0,FastFast,7,18,Man,Right,
23,4,1,0.634501900000032,['c'],1,left,['9'],5,1.3004075000001194,0.4,0,FastFast,7,18,Man,Right,
24,4,1,1.150617999999895,['n'],1,right,['9'],5,0.9840154000000894,0.2,0,FastFast,7,18,Man,Right,
25,4,1,0.716964199999893,['c'],1,left,['9'],5,1.067104400000062,0.4,0,FastFast,7,18,Man,Right,
26,4,1,0.9002431999999772,['n'],1,right,['9'],5,0.6504979999999705,0.1,0,FastFast,7,18,Man,Right,
27,4,1,0.8846733000000313,['n'],1,right,['9'],5,1.3833700000000135,0.2,0,FastFast,7,18,Man,Right,
28,4,1,2.3671630999999707,['c'],0,right,['3'],3,1.4673310000000583,0.1,0,FastFast,7,18,Man,Right,
29,4,1,1.0506355999998505,['c'],1,left,['9'],5,1.1339563999999882,0.4,0,FastFast,7,18,Man,Right,
30,4,1,1.0662907999999334,['n'],1,right,['3'],3,1.3839413000000604,0.1,0,FastFast,7,18,Man,Right,
31,4,1,1.1661622999999963,['n'],0,left,['8'],4,0.633882500000027,0.4,0,FastFast,7,18,Man,Right,
32,4,1,1.066331499999933,['n'],0,left,['2'],2,1.1672135000001163,0.1,0,FastFast,7,18,Man,Right,
33,4,1,0.6995059999999285,['n'],1,right,['0'],6,0.5173924000000625,0.2,0,FastFast,7,18,Man,Right,
34,4,1,1.7664862999999968,['c'],1,left,['9'],5,1.1839731000000029,0.4,0,FastFast,7,18,Man,Right,
35,4,1,0.9158469999999852,['n'],1,right,['9'],5,0.7174143000002005,0.1,0,FastFast,7,18,Man,Right,
36,4,1,1.1162299000000075,['n'],1,right,['9'],5,0.7505166000000827,0.2,0,FastFast,7,18,Man,Right,
37,4,1,0.8330853000002207,['c'],1,left,['0'],6,0.6505217999999786,0.4,0,FastFast,7,18,Man,Right,
38,4,1,1.8163426999999501,['c'],1,left,['1'],1,0.9504243999999744,0.1,0,FastFast,7,18,Man,Right,
39,4,1,1.2829523000000336,['n'],0,left,['0'],6,0.5837372000000869,0.4,0,FastFast,7,18,Man,Right,
40,4,1,0.7328261999998631,['n'],1,right,['0'],6,0.5004943999999796,0.2,0,FastFast,7,18,Man,Right,
41,4,1,0.916253099999949,['c'],1,left,['0'],6,1.1505044000000453,0.4,0,FastFast,7,18,Man,Right,
42,4,1,0.915985800000044,['n'],1,right,['9'],5,0.9672551999999541,0.1,0,FastFast,7,18,Man,Right,
43,4,1,1.849561900000026,['c'],1,left,['2'],2,1.2171412999998665,0.1,0,FastFast,7,18,Man,Right,
44,4,1,0.9161587999999483,['n'],1,right,['9'],5,0.8336795000000166,0.1,0,FastFast,7,18,Man,Right,
45,4,1,1.1492465000001175,['n'],1,right,['0'],6,0.7672301999998581,0.2,0,FastFast,7,18,Man,Right,
46,4,1,1.4995383000000402,['c'],1,left,['8'],4,1.1837567000000035,0.1,0,FastFast,7,18,Man,Right,
47,4,1,0.7998130999999375,['n'],1,right,['0'],6,0.7839002999999138,0.1,0,FastFast,7,18,Man,Right,
48,4,1,0.699187300000176,['c'],1,left,['0'],6,0.5170052000000851,0.4,0,FastFast,7,18,Man,Right,
49,4,1,1.2162753999998586,['n'],1,right,['0'],6,0.31722899999999754,0.1,0,FastFast,7,18,Man,Right,
50,4,1,1.4156514999999672,['n'],1,right,['9'],5,0.7003661000001102,0.2,0,FastFast,7,18,Man,Right,
51,4,1,0.71638669999993,['c'],1,left,['0'],6,0.6339262999999846,0.4,0,FastFast,7,18,Man,Right,
52,4,1,0.7329263999999966,['n'],1,right,['0'],6,0.4672920000000431,0.1,0,FastFast,7,18,Man,Right,
53,4,1,2.066230399999995,['c'],0,right,['1'],1,0.7171974000000318,0.2,0,FastFast,7,18,Man,Right,
54,4,1,0.7493752000000313,['n'],1,right,['0'],6,0.5005860999999641,0.4,0,FastFast,7,18,Man,Right,
55,4,1,0.9327054999998836,['c'],1,left,['0'],6,0.5505807000001823,0.4,0,FastFast,7,18,Man,Right,
56,4,1,1.0662863000000016,['n'],1,right,['9'],5,0.6840532000001076,0.4,0,FastFast,7,18,Man,Right,
57,4,1,2.1838264000000436,['n'],0,left,['8'],4,1.7833605000000716,0.1,0,FastFast,7,18,Man,Right,
58,4,1,0.9493274999999812,['n'],0,left,['8'],4,1.0339252999999644,0.2,0,FastFast,7,18,Man,Right,
59,4,1,2.2324010999998336,['n'],0,left,['9'],5,1.0005333000001428,0.2,0,FastFast,7,18,Man,Right,
0,5,1,1.3835427999999865,['n'],1,right,['9'],5,0.3672115000001668,0.2,0,AccFast,7,18,Man,Right,
1,5,1,1.315302900000006,['c'],1,left,['0'],6,0.23368360000017674,0.4,0,AccFast,7,18,Man,Right,
2,5,1,2.400801700000102,['n'],1,right,['0'],6,0.38393949999999677,0.1,0,AccFast,7,18,Man,Right,
3,5,1,1.2662639999998646,['n'],1,right,['0'],6,0.2670885999998518,0.4,0,AccFast,7,18,Man,Right,
4,5,1,3.249343799999906,['n'],0,left,['9'],5,0.8172121000000061,0.2,0,AccFast,7,18,Man,Right,
5,5,1,1.8491131999999197,['n'],1,right,['9'],5,0.35042070000008607,0.1,0,AccFast,7,18,Man,Right,
6,5,1,1.6996526000000358,['n'],1,right,['0'],6,0.2672585000000254,0.1,0,AccFast,7,18,Man,Right,
7,5,1,1.0649438000000373,['c'],1,left,['0'],6,0.3670990000000529,0.2,0,AccFast,7,18,Man,Right,
8,5,1,1.3162607999997817,['n'],1,right,['0'],6,0.2506135999999515,0.1,0,AccFast,7,18,Man,Right,
9,5,1,1.083279199999879,['n'],1,right,['0'],6,0.36711339999988013,0.4,0,AccFast,7,18,Man,Right,
10,5,1,2.598592800000006,['n'],0,left,['9'],5,0.733579200000122,0.4,0,AccFast,7,18,Man,Right,
11,5,1,1.1331491000000824,['n'],0,left,['0'],6,0.7671440999999959,0.2,0,AccFast,7,18,Man,Right,
12,5,1,0.9828942000001462,['n'],0,left,['9'],5,0.8505230999999185,0.1,0,AccFast,7,18,Man,Right,
13,5,1,2.0163062999999966,['n'],0,left,['0'],6,0.8004585999999563,0.2,0,AccFast,7,18,Man,Right,
14,5,1,1.0996238000000176,['c'],1,left,['8'],4,1.4837077000001955,0.4,0,AccFast,7,18,Man,Right,
15,5,1,1.1326845000000958,['n'],1,right,['9'],5,0.5171222999999827,0.4,0,AccFast,7,18,Man,Right,
16,5,1,1.0161431999999877,['n'],0,left,['9'],5,0.6671698000000106,0.1,0,AccFast,7,18,Man,Right,
17,5,1,1.2837105000000975,['n'],1,right,['0'],6,1.0004053000000113,0.4,0,AccFast,7,18,Man,Right,
18,5,1,1.1326833000000534,['n'],0,left,['0'],6,0.2172941000001174,0.1,0,AccFast,7,18,Man,Right,
19,5,1,0.7995128000000022,['n'],1,right,['9'],5,0.16687420000016573,0.1,0,AccFast,7,18,Man,Right,
20,5,1,1.067143299999998,['c'],1,left,['0'],6,0.2007275999999365,0.4,0,AccFast,7,18,Man,Right,
21,5,1,1.4329187999999249,['n'],0,left,['0'],6,0.21723270000006778,0.1,0,AccFast,7,18,Man,Right,
22,5,1,1.8163915000000088,['n'],1,right,['0'],6,0.18399799999997413,0.2,0,AccFast,7,18,Man,Right,
23,5,1,1.8995221000000129,['n'],1,right,['0'],6,0.16716450000012628,0.1,0,AccFast,7,18,Man,Right,
24,5,1,1.9661851999999271,['n'],1,right,['0'],6,0.20042740000008052,0.1,0,AccFast,7,18,Man,Right,
25,5,1,1.8831989000000249,['n'],1,right,['0'],6,0.21708170000010796,0.2,0,AccFast,7,18,Man,Right,
26,5,1,2.6161935000000085,['n'],0,left,['9'],5,0.35065020000001823,0.2,0,AccFast,7,18,Man,Right,
27,5,1,2.615260600000056,['n'],1,right,['9'],5,0.2507223000000067,0.1,0,AccFast,7,18,Man,Right,
28,5,1,1.099462800000083,['n'],1,right,['0'],6,0.2341108999999051,0.2,0,AccFast,7,18,Man,Right,
29,5,1,1.2993670999999267,['n'],0,left,['9'],5,0.2004248999999163,0.2,0,AccFast,7,18,Man,Right,
30,5,1,2.8162649000000783,['c'],0,right,['0'],6,0.2338340999999673,0.2,0,AccFast,7,18,Man,Right,
31,5,1,2.74941089999993,['n'],1,right,['0'],6,0.23381690000019262,0.4,0,AccFast,7,18,Man,Right,
32,5,1,1.0160224999999627,['c'],1,left,['9'],5,0.41691290000017034,0.2,0,AccFast,7,18,Man,Right,
33,5,1,0.8994158999998945,['n'],1,right,['0'],6,0.3172271999999339,0.4,0,AccFast,7,18,Man,Right,
34,5,1,0.9165224000000762,['n'],1,right,['0'],6,0.350504699999874,0.4,0,AccFast,7,18,Man,Right,
35,5,1,3.882900399999926,['n'],1,right,['3'],3,0.6173630999999205,0.4,0,AccFast,7,18,Man,Right,
36,5,1,0.98294060000012,['n'],0,left,['8'],4,0.666924999999992,0.1,0,AccFast,7,18,Man,Right,
37,5,1,1.0829545999999937,['c'],1,left,['0'],6,0.8170947999999498,0.1,0,AccFast,7,18,Man,Right,
38,5,1,1.3161523000001125,['c'],1,left,['9'],5,0.5168338000000858,0.2,0,AccFast,7,18,Man,Right,
39,5,1,1.0003169999999955,['c'],1,left,['9'],5,0.3838186999998925,0.4,0,AccFast,7,18,Man,Right,
40,5,1,2.9167483999999604,['c'],1,left,['0'],6,0.5505226000000221,0.2,0,AccFast,7,18,Man,Right,
41,5,1,1.0165001000000302,['c'],1,left,['0'],6,0.6505615999999463,0.4,0,AccFast,7,18,Man,Right,
42,5,1,0.9998556000000463,['n'],1,right,['0'],6,0.3171457000000828,0.4,0,AccFast,7,18,Man,Right,
43,5,1,1.4663530999998784,['c'],1,left,['9'],5,0.43385600000010527,0.1,0,AccFast,7,18,Man,Right,
44,5,1,0.849480500000027,['c'],1,left,['0'],6,0.30053459999999177,0.4,0,AccFast,7,18,Man,Right,
45,5,1,0.7661760000000868,['n'],1,right,['0'],6,0.2505429999998796,0.4,0,AccFast,7,18,Man,Right,
46,5,1,2.548855000000003,['n'],1,right,['9'],5,0.9337190000001101,0.1,0,AccFast,7,18,Man,Right,
47,5,1,0.6996523000000252,['n'],1,right,['9'],5,0.4171912000001612,0.1,0,AccFast,7,18,Man,Right,
48,5,1,0.7329287000000022,['n'],1,right,['0'],6,0.1837090999999873,0.4,0,AccFast,7,18,Man,Right,
49,5,1,4.8323200999998335,['c'],1,left,['2'],2,1.5007092999999259,0.1,0,AccFast,7,18,Man,Right,
50,5,1,0.7665968000001158,['c'],1,left,['0'],6,0.6339000000000397,0.2,0,AccFast,7,18,Man,Right,
51,5,1,0.5997653999997965,['n'],1,right,['0'],6,0.2337767999999869,0.4,0,AccFast,7,18,Man,Right,
52,5,1,1.949547100000018,['c'],1,left,['0'],6,0.5505511999999726,0.2,0,AccFast,7,18,Man,Right,
53,5,1,4.516408500000125,['c'],1,left,['1'],1,0.9836553000000094,0.1,0,AccFast,7,18,Man,Right,
54,5,1,0.6496000000001914,['n'],1,right,['9'],5,0.7335160000000087,0.2,0,AccFast,7,18,Man,Right,
55,5,1,2.116498899999897,['n'],1,right,['0'],6,0.5336604999999963,0.2,0,AccFast,7,18,Man,Right,
56,5,1,1.4656391000000895,['c'],1,left,['8'],4,1.3003908000000592,0.1,0,AccFast,7,18,Man,Right,
57,5,1,1.0169292999999016,['n'],1,right,['0'],6,0.33379539999987173,0.4,0,AccFast,7,18,Man,Right,
58,5,1,0.8830891000000065,['c'],1,left,['0'],6,0.4672866000000795,0.2,0,AccFast,7,18,Man,Right,
59,5,1,2.4664761000001363,['c'],1,left,['9'],5,0.5337686000000303,0.2,0,AccFast,7,18,Man,Right,
0,6,1,1.8994936999999936,['c'],1,left,['8'],4,2.550695899999937,0.2,0,AccAcc,7,18,Man,Right,
1,6,1,0.6330090000001292,['n'],1,right,['8'],4,2.433736299999964,0.1,0,AccAcc,7,18,Man,Right,
2,6,1,2.8329257000000325,['n'],0,left,['3'],3,1.1338870000001862,0.1,0,AccAcc,7,18,Man,Right,
3,6,1,1.316666800000121,['c'],1,left,['9'],5,2.2505651999999827,0.4,0,AccAcc,7,18,Man,Right,
4,6,1,1.2503477000000203,['c'],1,left,['0'],6,1.0170018000001164,0.4,0,AccAcc,7,18,Man,Right,
5,6,1,5.015778700000055,x,-99,right,none,-99,-99,0.1,1,AccAcc,7,18,Man,Right,
6,6,1,1.033084400000007,['n'],1,right,['9'],5,1.5671987000000627,0.4,0,AccAcc,7,18,Man,Right,
7,6,1,3.3161834,['n'],1,right,['2'],2,0.9338203000002068,0.1,0,AccAcc,7,18,Man,Right,
8,6,1,0.8990963000001102,['n'],1,right,['8'],4,1.1171972000001915,0.2,0,AccAcc,7,18,Man,Right,
9,6,1,1.2319706999999198,['n'],1,right,['9'],5,0.9171046999999817,0.2,0,AccAcc,7,18,Man,Right,
10,6,1,1.2826351999999588,['c'],0,right,['8'],4,1.0336116000000857,0.1,0,AccAcc,7,18,Man,Right,
11,6,1,1.20030840000004,['n'],1,right,['0'],6,1.1337639999999283,0.2,0,AccAcc,7,18,Man,Right,
12,6,1,0.933176499999945,['n'],0,left,['9'],5,1.4507805999999164,0.1,0,AccAcc,7,18,Man,Right,
13,6,1,1.6833161000001837,['n'],0,left,['8'],4,1.1839248000001135,0.1,0,AccAcc,7,18,Man,Right,
14,6,1,2.516146600000411,['n'],0,left,['3'],3,2.0178126000000702,0.1,0,AccAcc,7,18,Man,Right,
15,6,1,0.8665875000001506,['n'],1,right,['2'],2,2.4671423999998296,0.2,0,AccAcc,7,18,Man,Right,
16,6,1,1.7992056000002776,['c'],1,left,['9'],5,1.6673324999997021,0.4,0,AccAcc,7,18,Man,Right,
17,6,1,2.1662561999996797,['n'],1,right,['8'],4,0.9170963000001393,0.1,0,AccAcc,7,18,Man,Right,
18,6,1,2.049315100000058,['c'],1,left,['3'],3,1.4506059000000278,0.1,0,AccAcc,7,18,Man,Right,
19,6,1,0.9827988000001824,['n'],1,right,['8'],4,1.56708400000025,0.1,0,AccAcc,7,18,Man,Right,
20,6,1,1.016497999999956,['n'],1,right,['0'],6,1.567212599999948,0.4,0,AccAcc,7,18,Man,Right,
21,6,1,0.9339924999999312,['c'],1,left,['0'],6,0.6337699000000612,0.4,0,AccAcc,7,18,Man,Right,
22,6,1,2.166530800000146,['n'],0,left,['0'],6,0.8173308000000361,0.2,0,AccAcc,7,18,Man,Right,
23,6,1,2.8495247000000745,['n'],1,right,['0'],6,1.967285300000185,0.4,0,AccAcc,7,18,Man,Right,
24,6,1,1.4662757999999485,['n'],1,right,['0'],6,0.4337899000001926,0.1,0,AccAcc,7,18,Man,Right,
25,6,1,0.8330823000001146,['n'],1,right,['9'],5,0.5502799000000778,0.2,0,AccAcc,7,18,Man,Right,
26,6,1,0.733413500000097,['n'],1,right,['0'],6,0.6003553000000466,0.2,0,AccAcc,7,18,Man,Right,
27,6,1,1.76593610000009,['n'],1,right,['0'],6,0.5003121999998257,0.2,0,AccAcc,7,18,Man,Right,
28,6,1,0.7660681000002114,['c'],1,left,['0'],6,0.7004578000000947,0.4,0,AccAcc,7,18,Man,Right,
29,6,1,0.7665007000000514,['n'],1,right,['8'],4,1.2671706000000995,0.1,0,AccAcc,7,18,Man,Right,
30,6,1,3.900020200000199,['n'],0,left,['2'],2,1.750379300000077,0.2,0,AccAcc,7,18,Man,Right,
31,6,1,0.7326954999998634,['c'],1,left,['0'],6,0.8674762999999075,0.4,0,AccAcc,7,18,Man,Right,
32,6,1,3.2830111999996916,['c'],0,right,['3'],3,1.3004836000000068,0.1,0,AccAcc,7,18,Man,Right,
33,6,1,0.7488374999998086,['n'],1,right,['9'],5,0.8671689000002516,0.4,0,AccAcc,7,18,Man,Right,
34,6,1,0.8328401000003396,['c'],1,left,['0'],6,0.40044899999975314,0.4,0,AccAcc,7,18,Man,Right,
35,6,1,1.8991180000002714,['c'],1,left,['8'],4,1.267176500000005,0.4,0,AccAcc,7,18,Man,Right,
36,6,1,1.6327430000001186,['c'],1,left,['9'],5,0.6671688999999787,0.4,0,AccAcc,7,18,Man,Right,
37,6,1,2.3829460000001745,['c'],0,right,['2'],2,1.2505332999999155,0.1,0,AccAcc,7,18,Man,Right,
38,6,1,0.6990208000001985,['n'],1,right,['0'],6,0.9671419999999671,0.2,0,AccAcc,7,18,Man,Right,
39,6,1,0.5987696000001961,['c'],1,left,['0'],6,0.5505429999998341,0.4,0,AccAcc,7,18,Man,Right,
40,6,1,0.6162423000000672,['n'],1,right,['0'],6,0.45048659999974916,0.4,0,AccAcc,7,18,Man,Right,
41,6,1,0.5993367999999464,['c'],1,left,['0'],6,0.5171869000000697,0.4,0,AccAcc,7,18,Man,Right,
42,6,1,0.5166151000003083,['n'],1,right,['0'],6,0.9505033000000367,0.2,0,AccAcc,7,18,Man,Right,
43,6,1,4.082653400000254,['n'],1,right,['8'],4,1.233825600000273,0.2,0,AccAcc,7,18,Man,Right,
44,6,1,1.366408500000034,['c'],1,left,['3'],3,2.2172575999998116,0.1,0,AccAcc,7,18,Man,Right,
45,6,1,1.6163440000000264,['c'],1,left,['3'],3,1.9004913000003398,0.2,0,AccAcc,7,18,Man,Right,
46,6,1,2.0499368999999206,['c'],1,left,['2'],2,1.0003501000001052,0.1,0,AccAcc,7,18,Man,Right,
47,6,1,1.3996368000002803,['n'],0,left,['8'],4,1.2841477999995732,0.2,0,AccAcc,7,18,Man,Right,
48,6,1,0.7328714000000218,['n'],1,right,['0'],6,0.46714410000004136,0.2,0,AccAcc,7,18,Man,Right,
49,6,1,0.9160074999999779,['n'],1,right,['9'],5,0.633955799999967,0.2,0,AccAcc,7,18,Man,Right,
50,6,1,0.8327413000001798,['c'],1,left,['9'],5,1.0506058999999368,0.1,0,AccAcc,7,18,Man,Right,
51,6,1,0.7986485000001267,['c'],1,left,['2'],2,1.233894599999985,0.2,0,AccAcc,7,18,Man,Right,
52,6,1,0.59982059999993,['n'],1,right,['9'],5,0.6672121999999945,0.4,0,AccAcc,7,18,Man,Right,
53,6,1,0.8485627000000022,['c'],1,left,['0'],6,0.5004173999996055,0.4,0,AccAcc,7,18,Man,Right,
54,6,1,1.0836103999999978,['n'],0,left,['0'],6,0.7504309000000831,0.1,0,AccAcc,7,18,Man,Right,
55,6,1,0.8500076000000263,['n'],1,right,['0'],6,0.333787200000188,0.4,0,AccAcc,7,18,Man,Right,
56,6,1,2.8995703000000503,['c'],1,left,['3'],3,2.3672475999997005,0.4,0,AccAcc,7,18,Man,Right,
57,6,1,0.9995525999997881,['n'],0,left,['3'],3,1.0839255999999295,0.1,0,AccAcc,7,18,Man,Right,
58,6,1,2.9661619000003157,['n'],0,left,['8'],4,1.2172176999997646,0.2,0,AccAcc,7,18,Man,Right,
59,6,1,0.6831852000000254,['n'],1,right,['8'],4,0.816913999999997,0.2,0,AccAcc,7,18,Man,Right,
0,7,1,0.4327690000000075,['n'],1,right,['9'],5,1.3338859000000411,0.1,0,FastAcc,7,18,Man,Right,
1,7,1,0.5829130000001896,['n'],1,right,['0'],6,1.400469300000168,0.1,0,FastAcc,7,18,Man,Right,
2,7,1,1.1994684000001143,['n'],0,left,['8'],4,1.6840628999998444,0.1,0,FastAcc,7,18,Man,Right,
3,7,1,0.8668561999998019,['c'],1,left,['0'],6,0.9336699999998928,0.4,0,FastAcc,7,18,Man,Right,
4,7,1,0.5005374000002121,['n'],1,right,['0'],6,0.6005645999998706,0.4,0,FastAcc,7,18,Man,Right,
5,7,1,0.9161037000003489,['c'],0,right,['8'],4,1.6005208000001403,0.2,0,FastAcc,7,18,Man,Right,
6,7,1,3.249798599999849,['n'],0,left,['2'],2,1.4671196999997846,0.2,0,FastAcc,7,18,Man,Right,
7,7,1,0.7835921000000781,['n'],1,right,['9'],5,1.000709899999947,0.1,0,FastAcc,7,18,Man,Right,
8,7,1,1.3328170999998292,['c'],1,left,['3'],3,1.8339645999999448,0.1,0,FastAcc,7,18,Man,Right,
9,7,1,1.5327418000001671,['n'],0,left,['0'],6,0.7338184999998703,0.2,0,FastAcc,7,18,Man,Right,
10,7,1,0.44968420000031983,['n'],0,left,['0'],6,1.3169920000000275,0.2,0,FastAcc,7,18,Man,Right,
11,7,1,0.7330490999997892,['n'],0,left,['0'],6,0.4504796000001079,0.2,0,FastAcc,7,18,Man,Right,
12,7,1,1.0827220999999554,['n'],0,left,['0'],6,1.1507434000000103,0.4,0,FastAcc,7,18,Man,Right,
13,7,1,0.6661015999998199,['n'],0,left,['1'],1,1.983921399999872,0.4,0,FastAcc,7,18,Man,Right,
14,7,1,0.8494129000000612,['n'],0,left,['8'],4,1.467203100000006,0.4,0,FastAcc,7,18,Man,Right,
15,7,1,1.0494198000001234,['n'],1,right,['9'],5,2.3335290999998506,0.1,0,FastAcc,7,18,Man,Right,
16,7,1,0.582902600000125,['c'],1,left,['0'],6,0.683946399999968,0.4,0,FastAcc,7,18,Man,Right,
17,7,1,0.6665090999999848,['n'],1,right,['0'],6,0.5838959000002433,0.2,0,FastAcc,7,18,Man,Right,
18,7,1,0.5164825000001656,['n'],0,left,['2'],2,1.2504216000002089,0.1,0,FastAcc,7,18,Man,Right,
19,7,1,0.6155063000001064,['n'],0,left,['0'],6,1.2672010000001137,0.4,0,FastAcc,7,18,Man,Right,
20,7,1,0.8828844999998182,['n'],1,right,['0'],6,0.33383589999994,0.4,0,FastAcc,7,18,Man,Right,
21,7,1,0.6165020000003096,['n'],1,right,['9'],5,1.2837773000001107,0.4,0,FastAcc,7,18,Man,Right,
22,7,1,0.549463399999695,['n'],0,left,['1'],1,1.617187300000296,0.1,0,FastAcc,7,18,Man,Right,
23,7,1,2.8663947000000007,['n'],1,right,['0'],6,1.35051889999977,0.1,0,FastAcc,7,18,Man,Right,
24,7,1,0.9664606999999705,['c'],1,left,['0'],6,0.3837578999996367,0.4,0,FastAcc,7,18,Man,Right,
25,7,1,1.7996814000002814,['n'],0,left,['9'],5,0.8838759999998729,0.1,0,FastAcc,7,18,Man,Right,
26,7,1,1.5329483000000437,['n'],1,right,['2'],2,1.2339987000000292,0.4,0,FastAcc,7,18,Man,Right,
27,7,1,0.9169538000001012,['n'],1,right,['0'],6,0.28381880000006277,0.2,0,FastAcc,7,18,Man,Right,
28,7,1,1.5498311000001195,['n'],1,right,['3'],3,3.983905500000219,0.2,0,FastAcc,7,18,Man,Right,
29,7,1,0.6834726000001865,['n'],1,right,['9'],5,0.6005308000003424,0.4,0,FastAcc,7,18,Man,Right,
30,7,1,1.0995091999998294,['c'],1,left,['0'],6,0.2838061000002199,0.2,0,FastAcc,7,18,Man,Right,
31,7,1,1.8830426000004081,['n'],1,right,['0'],6,0.30047749999994267,0.2,0,FastAcc,7,18,Man,Right,
32,7,1,1.032892499999889,['n'],1,right,['9'],5,0.3672527999997328,0.1,0,FastAcc,7,18,Man,Right,
33,7,1,0.8987812000000304,['c'],1,left,['0'],6,0.21710680000023785,0.4,0,FastAcc,7,18,Man,Right,
34,7,1,0.7658987999998317,['n'],1,right,['0'],6,0.41721129999996265,0.2,0,FastAcc,7,18,Man,Right,
35,7,1,0.8829952000000958,['c'],1,left,['0'],6,0.2172205000001668,0.4,0,FastAcc,7,18,Man,Right,
36,7,1,0.8998301999999967,['n'],1,right,['0'],6,0.5673584999999548,0.4,0,FastAcc,7,18,Man,Right,
37,7,1,0.6991750000001957,['c'],1,left,['9'],5,0.5504402999999911,0.2,0,FastAcc,7,18,Man,Right,
38,7,1,2.4163438999999016,['n'],1,right,['8'],4,1.2005091999999422,0.1,0,FastAcc,7,18,Man,Right,
39,7,1,0.6837439000000813,['c'],1,left,['0'],6,0.36707060000026104,0.4,0,FastAcc,7,18,Man,Right,
40,7,1,0.7494130000000041,['c'],1,left,['9'],5,2.133969700000307,0.1,0,FastAcc,7,18,Man,Right,
41,7,1,0.6497496000001775,['n'],1,right,['0'],6,0.6005565999998908,0.2,0,FastAcc,7,18,Man,Right,
42,7,1,1.5329193000002306,['n'],1,right,['9'],5,2.3505836999997882,0.2,0,FastAcc,7,18,Man,Right,
43,7,1,0.5996094000001904,['c'],1,left,['0'],6,0.38374670000030164,0.4,0,FastAcc,7,18,Man,Right,
44,7,1,0.9328052000000753,['c'],1,left,['9'],5,0.5504175000000942,0.2,0,FastAcc,7,18,Man,Right,
45,7,1,0.6828669999999875,['n'],1,right,['0'],6,0.25034679999998843,0.2,0,FastAcc,7,18,Man,Right,
46,7,1,0.9674153999999362,['n'],1,right,['8'],4,0.5004560999996102,0.2,0,FastAcc,7,18,Man,Right,
47,7,1,1.1163464999999633,['c'],1,left,['8'],4,0.5505164000001059,0.2,0,FastAcc,7,18,Man,Right,
48,7,1,0.7492145000001074,['n'],1,right,['9'],5,0.5171743999999308,0.4,0,FastAcc,7,18,Man,Right,
49,7,1,2.317862999999761,['n'],0,left,['3'],3,1.0338732000000164,0.1,0,FastAcc,7,18,Man,Right,
50,7,1,2.133408199999849,['c'],1,left,['2'],2,1.1672802000002775,0.1,0,FastAcc,7,18,Man,Right,
51,7,1,0.5500271999999313,['n'],1,right,['1'],1,0.9837274000001344,0.4,0,FastAcc,7,18,Man,Right,
52,7,1,0.6832088000001022,['n'],0,left,['9'],5,0.7004860000001827,0.2,0,FastAcc,7,18,Man,Right,
53,7,1,0.7493933000000652,['n'],1,right,['9'],5,0.8670645000001969,0.4,0,FastAcc,7,18,Man,Right,
54,7,1,3.132609400000092,['n'],1,right,['2'],2,2.5337939000000915,0.1,0,FastAcc,7,18,Man,Right,
55,7,1,0.5659862000002249,['n'],1,right,['3'],3,1.3834886999998162,0.1,0,FastAcc,7,18,Man,Right,
56,7,1,3.666627399999925,['n'],1,right,['3'],3,3.1671298000001116,0.1,0,FastAcc,7,18,Man,Right,
57,7,1,1.4161420999998882,['n'],1,right,['8'],4,0.5837992000001577,0.1,0,FastAcc,7,18,Man,Right,
58,7,1,2.3331323000002158,['c'],1,left,['8'],4,1.4172254999998586,0.1,0,FastAcc,7,18,Man,Right,
59,7,1,0.8330991999996513,['c'],1,left,['0'],6,0.5338165000002846,0.2,0,FastAcc,7,18,Man,Right,
0,8,1,0.3998741999998856,['n'],0,left,['9'],5,0.6504893999999695,0.1,0,FastFast,7,18,Man,Right,
1,8,1,0.5495706000001519,['n'],1,right,['9'],5,0.8339405000001534,0.1,0,FastFast,7,18,Man,Right,
2,8,1,0.8995287000002463,['n'],1,right,['0'],6,0.18382330000031288,0.2,0,FastFast,7,18,Man,Right,
3,8,1,1.0160178999999516,['n'],1,right,['0'],6,0.20045850000042265,0.4,0,FastFast,7,18,Man,Right,
4,8,1,0.9495203999999831,['c'],1,left,['0'],6,0.250478099999782,0.1,0,FastFast,7,18,Man,Right,
5,8,1,0.5326710000003914,['n'],1,right,['8'],4,0.5838107999998101,0.1,0,FastFast,7,18,Man,Right,
6,8,1,0.7327884000001177,['n'],1,right,['9'],5,0.5505766000001131,0.2,0,FastFast,7,18,Man,Right,
7,8,1,1.5336871000004066,['n'],0,left,['9'],5,0.41716230000020005,0.1,0,FastFast,7,18,Man,Right,
8,8,1,0.6832806000002165,['c'],1,left,['8'],4,1.0172152000000096,0.4,0,FastFast,7,18,Man,Right,
9,8,1,0.6330334000003859,['n'],1,right,['0'],6,0.28388790000008157,0.4,0,FastFast,7,18,Man,Right,
10,8,1,0.6828491999999642,['c'],1,left,['0'],6,0.26738720000003013,0.4,0,FastFast,7,18,Man,Right,
11,8,1,2.049473200000193,['c'],1,left,['2'],2,1.1837673999998515,0.2,0,FastFast,7,18,Man,Right,
12,8,1,0.7662731999998869,['n'],0,left,['0'],6,0.30046960000026957,0.2,0,FastFast,7,18,Man,Right,
13,8,1,0.7164373999999043,['n'],1,right,['0'],6,0.2504671000001508,0.4,0,FastFast,7,18,Man,Right,
14,8,1,0.7494129000001521,['c'],1,left,['0'],6,0.2343682999999146,0.4,0,FastFast,7,18,Man,Right,
15,8,1,2.5160008000002563,['c'],1,left,['2'],2,0.8004762999999002,0.1,0,FastFast,7,18,Man,Right,
16,8,1,1.1659374000000753,['n'],0,left,['0'],6,0.6005762999998296,0.2,0,FastFast,7,18,Man,Right,
17,8,1,0.6497653999999784,['n'],1,right,['0'],6,0.31726530000014463,0.4,0,FastFast,7,18,Man,Right,
18,8,1,1.7830345999996098,['n'],1,right,['9'],5,0.46713039999985995,0.2,0,FastFast,7,18,Man,Right,
19,8,1,1.332932400000118,['n'],1,right,['8'],4,0.9002276000001075,0.1,0,FastFast,7,18,Man,Right,
20,8,1,0.5839051999996627,['n'],1,right,['0'],6,0.2502468000002409,0.4,0,FastFast,7,18,Man,Right,
21,8,1,1.9833667000002606,['c'],0,right,['1'],1,1.1341431999999259,0.2,0,FastFast,7,18,Man,Right,
22,8,1,1.7496996999998373,['n'],1,right,['0'],6,0.21728399999983594,0.4,0,FastFast,7,18,Man,Right,
23,8,1,2.0661543000001075,['c'],1,left,['9'],5,1.0504888000000392,0.2,0,FastFast,7,18,Man,Right,
24,8,1,0.6500513000000865,['n'],1,right,['0'],6,0.21723229999997784,0.1,0,FastFast,7,18,Man,Right,
25,8,1,2.932985500000086,['c'],1,left,['2'],2,1.7338355000001684,0.2,0,FastFast,7,18,Man,Right,
26,8,1,0.7329153000000588,['c'],1,left,['0'],6,0.36715060000005906,0.2,0,FastFast,7,18,Man,Right,
27,8,1,0.849621500000012,['c'],1,left,['0'],6,1.1838904999999613,0.2,0,FastFast,7,18,Man,Right,
28,8,1,0.6495703000000503,['n'],1,right,['0'],6,0.2338267000000087,0.4,0,FastFast,7,18,Man,Right,
29,8,1,0.565342000000328,['c'],1,left,['0'],6,0.23384459999988394,0.4,0,FastFast,7,18,Man,Right,
30,8,1,0.6817902999996477,['c'],1,left,['0'],6,0.23384770000029675,0.4,0,FastFast,7,18,Man,Right,
31,8,1,0.999482000000171,['n'],1,right,['0'],6,0.2002901999999267,0.2,0,FastFast,7,18,Man,Right,
32,8,1,0.7323923999997533,['n'],1,right,['9'],5,0.834322599999723,0.2,0,FastFast,7,18,Man,Right,
33,8,1,1.632400299999972,['c'],0,right,['8'],4,0.9838669000000664,0.1,0,FastFast,7,18,Man,Right,
34,8,1,1.1485663999997087,['c'],1,left,['0'],6,0.41731110000000626,0.1,0,FastFast,7,18,Man,Right,
35,8,1,0.8658937000000151,['n'],0,left,['9'],5,0.8171290000000226,0.1,0,FastFast,7,18,Man,Right,
36,8,1,0.7319526000001133,['c'],1,left,['8'],4,0.917179799999758,0.1,0,FastFast,7,18,Man,Right,
37,8,1,2.1819464000000153,['c'],1,left,['8'],4,3.017265200000111,0.1,0,FastFast,7,18,Man,Right,
38,8,1,0.764921499999673,['n'],1,right,['0'],6,0.20056280000017068,0.4,0,FastFast,7,18,Man,Right,
39,8,1,0.815880499999821,['n'],1,right,['8'],4,0.7671094000002086,0.2,0,FastFast,7,18,Man,Right,
40,8,1,0.7333149000000958,['n'],1,right,['0'],6,0.23384420000002137,0.2,0,FastFast,7,18,Man,Right,
41,8,1,0.549601299999722,['n'],1,right,['0'],6,0.23402840000017022,0.1,0,FastFast,7,18,Man,Right,
42,8,1,0.7665018999996391,['n'],1,right,['1'],1,0.9502812999999151,0.2,0,FastFast,7,18,Man,Right,
43,8,1,0.5990237000000889,['n'],1,right,['0'],6,0.2172365000001264,0.4,0,FastFast,7,18,Man,Right,
44,8,1,0.7495527999999467,['c'],1,left,['0'],6,0.7839326999996956,0.2,0,FastFast,7,18,Man,Right,
45,8,1,0.7826869000000443,['c'],1,left,['0'],6,0.7170896000002358,0.4,0,FastFast,7,18,Man,Right,
46,8,1,1.0329431000000113,['n'],0,left,['9'],5,0.6338240000000042,0.1,0,FastFast,7,18,Man,Right,
47,8,1,0.6330443000001651,['c'],1,left,['0'],6,0.30051460000004226,0.4,0,FastFast,7,18,Man,Right,
48,8,1,1.1664184000001114,['c'],1,left,['9'],5,0.7339516000001822,0.2,0,FastFast,7,18,Man,Right,
49,8,1,0.6655895999997483,['c'],1,left,['0'],6,1.000506200000018,0.4,0,FastFast,7,18,Man,Right,
50,8,1,0.8660368000000744,['n'],0,left,['0'],6,0.28376890000026833,0.1,0,FastFast,7,18,Man,Right,
51,8,1,1.333364800000254,['n'],1,right,['0'],6,0.3004969999997229,0.1,0,FastFast,7,18,Man,Right,
52,8,1,0.7335852000001069,['n'],1,right,['0'],6,0.35052870000026815,0.4,0,FastFast,7,18,Man,Right,
53,8,1,3.3333127999999306,['c'],0,right,['9'],5,1.0004875999998148,0.2,0,FastFast,7,18,Man,Right,
54,8,1,1.032859599999938,['c'],1,left,['8'],4,1.1671983999999611,0.1,0,FastFast,7,18,Man,Right,
55,8,1,1.2330055999996148,['c'],1,left,['0'],6,1.6506898000002366,0.1,0,FastFast,7,18,Man,Right,
56,8,1,1.3993826999999328,['c'],1,left,['0'],6,0.31717969999999696,0.4,0,FastFast,7,18,Man,Right,
57,8,1,0.7829694000001837,['n'],1,right,['0'],6,0.18382599999995364,0.4,0,FastFast,7,18,Man,Right,
58,8,1,1.866532499999721,['c'],0,right,['8'],4,1.0340535999998792,0.1,0,FastFast,7,18,Man,Right,
59,8,1,1.999630100000104,['n'],1,right,['0'],6,0.43361289999984365,0.2,0,FastFast,7,18,Man,Right,
0,9,1,1.898467200000141,['n'],0,left,['9'],5,1.117214899999908,0.1,0,AccFast,7,18,Man,Right,
1,9,1,3.066472900000008,['c'],0,right,['9'],5,0.8338486000002376,0.1,0,AccFast,7,18,Man,Right,
2,9,1,0.8830243999996128,['c'],1,left,['0'],6,0.2503647000003184,0.4,0,AccFast,7,18,Man,Right,
3,9,1,1.58232420000013,['n'],1,right,['8'],4,1.3005699000000277,0.1,0,AccFast,7,18,Man,Right,
4,9,1,1.3995021999999153,['n'],1,right,['3'],3,0.8837836000002426,0.1,0,AccFast,7,18,Man,Right,
5,9,1,0.7496945999996569,['n'],1,right,['0'],6,0.4004030999999486,0.2,0,AccFast,7,18,Man,Right,
6,9,1,0.683155600000191,['n'],1,right,['0'],6,0.25056899999981397,0.4,0,AccFast,7,18,Man,Right,
7,9,1,0.6829873000001498,['c'],1,left,['0'],6,0.38394389999984924,0.4,0,AccFast,7,18,Man,Right,
8,9,1,0.6497981999996227,['c'],1,left,['0'],6,0.25048810000043886,0.2,0,AccFast,7,18,Man,Right,
9,9,1,1.8663733000003049,['n'],0,left,['8'],4,1.1670963999999913,0.2,0,AccFast,7,18,Man,Right,
10,9,1,0.6999123999999028,['n'],1,right,['0'],6,0.2832692000001771,0.2,0,AccFast,7,18,Man,Right,
11,9,1,0.7316528000001199,['n'],1,right,['0'],6,0.7504064999998263,0.2,0,AccFast,7,18,Man,Right,
12,9,1,0.7996518999998443,['c'],1,left,['9'],5,0.6671557999998186,0.2,0,AccFast,7,18,Man,Right,
13,9,1,1.0501287999995839,['n'],0,left,['8'],4,0.7172133000003669,0.2,0,AccFast,7,18,Man,Right,
14,9,1,1.199417999999696,['c'],1,left,['0'],6,0.5171439000000646,0.4,0,AccFast,7,18,Man,Right,
15,9,1,0.9831926000001658,['c'],1,left,['2'],2,0.2671252000000095,0.4,0,AccFast,7,18,Man,Right,
16,9,1,1.650273499999912,['n'],0,left,['3'],3,0.8166931999999179,0.1,0,AccFast,7,18,Man,Right,
17,9,1,0.6004699000000073,['n'],1,right,['0'],6,0.5505060000000412,0.1,0,AccFast,7,18,Man,Right,
18,9,1,1.7498899000001984,['c'],0,right,['0'],6,0.6172584000000825,0.1,0,AccFast,7,18,Man,Right,
19,9,1,0.9495726999998624,['c'],1,left,['0'],6,0.2837460999999166,0.4,0,AccFast,7,18,Man,Right,
20,9,1,2.7994127000001754,['n'],0,left,['9'],5,0.7005033000000367,0.2,0,AccFast,7,18,Man,Right,
21,9,1,0.7987831999998889,['n'],1,right,['0'],6,0.1670387999997729,0.4,0,AccFast,7,18,Man,Right,
22,9,1,0.9995345999996061,['c'],0,right,['0'],6,0.5006087000001571,0.2,0,AccFast,7,18,Man,Right,
23,9,1,0.5830575999998473,['n'],1,right,['0'],6,0.2005928000003223,0.4,0,AccFast,7,18,Man,Right,
24,9,1,0.6993437000000995,['n'],1,right,['0'],6,0.30051529999991544,0.1,0,AccFast,7,18,Man,Right,
25,9,1,1.532944700000371,['c'],0,right,['9'],5,0.500463999999738,0.1,0,AccFast,7,18,Man,Right,
26,9,1,0.6662332000000788,['n'],1,right,['0'],6,0.41716200000018944,0.1,0,AccFast,7,18,Man,Right,
27,9,1,1.081783799999812,['c'],1,left,['9'],5,0.7337588000000324,0.2,0,AccFast,7,18,Man,Right,
28,9,1,2.000352000000021,['c'],1,left,['8'],4,0.6838363000001664,0.1,0,AccFast,7,18,Man,Right,
29,9,1,1.0835597000000234,['n'],1,right,['3'],3,0.8505958999999166,0.2,0,AccFast,7,18,Man,Right,
30,9,1,0.8162146999998185,['c'],1,left,['0'],6,0.3506606000000829,0.4,0,AccFast,7,18,Man,Right,
31,9,1,4.016397999999754,['n'],1,right,['0'],6,0.45049010000002454,0.2,0,AccFast,7,18,Man,Right,
32,9,1,1.6665588999999272,['c'],1,left,['9'],5,0.8004979000002095,0.2,0,AccFast,7,18,Man,Right,
33,9,1,0.7491267000000335,['n'],1,right,['0'],6,0.23382679999986067,0.4,0,AccFast,7,18,Man,Right,
34,9,1,3.416340599999785,['c'],0,right,['8'],4,0.8673279999998158,0.1,0,AccFast,7,18,Man,Right,
35,9,1,0.7665845000001354,['n'],1,right,['0'],6,0.18391730000030293,0.4,0,AccFast,7,18,Man,Right,
36,9,1,1.2828158000002077,['c'],1,left,['0'],6,0.2839419000001726,0.2,0,AccFast,7,18,Man,Right,
37,9,1,0.8161666000000878,['c'],1,left,['0'],6,0.28394120000029943,0.4,0,AccFast,7,18,Man,Right,
38,9,1,0.732893200000035,['n'],1,right,['0'],6,0.1836924999997791,0.4,0,AccFast,7,18,Man,Right,
39,9,1,1.8661239999996724,['c'],1,left,['9'],5,0.23343230000000403,0.1,0,AccFast,7,18,Man,Right,
40,9,1,0.966133599999921,['n'],1,right,['0'],6,0.23384420000002137,0.4,0,AccFast,7,18,Man,Right,
41,9,1,0.883002299999589,['c'],1,left,['9'],5,0.7171070999997937,0.1,0,AccFast,7,18,Man,Right,
42,9,1,3.2162520000001678,['n'],1,right,['8'],4,0.9170943999997689,0.1,0,AccFast,7,18,Man,Right,
43,9,1,1.1827784000001884,['c'],1,left,['9'],5,0.6837835999999697,0.2,0,AccFast,7,18,Man,Right,
44,9,1,2.949750299999778,['c'],1,left,['3'],3,0.9505384999997659,0.4,0,AccFast,7,18,Man,Right,
45,9,1,1.5161616000000322,['c'],1,left,['0'],6,0.38371550000010757,0.1,0,AccFast,7,18,Man,Right,
46,9,1,1.5656937000003381,['n'],1,right,['9'],5,1.2006665000003522,0.2,0,AccFast,7,18,Man,Right,
47,9,1,1.5836278000001585,['n'],0,left,['2'],2,1.067168600000059,0.1,0,AccFast,7,18,Man,Right,
48,9,1,1.1498531000002004,['n'],1,right,['0'],6,0.6837920000002669,0.1,0,AccFast,7,18,Man,Right,
49,9,1,0.9836193000001003,['n'],1,right,['0'],6,0.20061420000001817,0.4,0,AccFast,7,18,Man,Right,
50,9,1,1.1327656999997089,['c'],1,left,['9'],5,0.7172519000000648,0.4,0,AccFast,7,18,Man,Right,
51,9,1,5.016075499999715,x,-99,left,none,-99,-99,0.2,1,AccFast,7,18,Man,Right,
52,9,1,1.8327831000001424,['c'],0,right,['9'],5,0.78366189999997,0.1,0,AccFast,7,18,Man,Right,
53,9,1,1.599735199999941,['n'],1,right,['9'],5,0.6004957999998624,0.2,0,AccFast,7,18,Man,Right,
54,9,1,0.78275769999982,['n'],0,left,['8'],4,1.0338121999998293,0.4,0,AccFast,7,18,Man,Right,
55,9,1,0.7165631000002577,['n'],1,right,['0'],6,0.30048070000020743,0.4,0,AccFast,7,18,Man,Right,
56,9,1,1.032778000000235,['c'],1,left,['0'],6,0.4336865000000216,0.2,0,AccFast,7,18,Man,Right,
57,9,1,0.5990812000000005,['n'],1,right,['0'],6,0.3005664999996043,0.2,0,AccFast,7,18,Man,Right,
58,9,1,0.9661065999998755,['c'],1,left,['0'],6,0.3171943000002102,0.4,0,AccFast,7,18,Man,Right,
59,9,1,3.41613980000011,['n'],0,left,['9'],5,0.5505760999999438,0.1,0,AccFast,7,18,Man,Right,
0,10,1,1.7649744999998802,['n'],1,right,['9'],5,0.9671986000003017,0.1,0,AccAcc,7,18,Man,Right,
1,10,1,1.5494512999998733,['n'],1,right,['8'],4,0.9339004999997087,0.2,0,AccAcc,7,18,Man,Right,
2,10,1,3.832765200000267,['n'],0,left,['3'],3,1.467196999999942,0.1,0,AccAcc,7,18,Man,Right,
3,10,1,0.9662172000003011,['c'],1,left,['8'],4,1.3505442999999104,0.2,0,AccAcc,7,18,Man,Right,
4,10,1,1.465617199999997,['c'],1,left,['9'],5,0.9837778000000981,0.2,0,AccAcc,7,18,Man,Right,
5,10,1,4.115850600000158,['n'],1,right,['8'],4,1.8672951999997167,0.1,0,AccAcc,7,18,Man,Right,
6,10,1,0.7828411000000415,['n'],1,right,['0'],6,0.8505208000001403,0.2,0,AccAcc,7,18,Man,Right,
7,10,1,1.2995544000000336,['c'],1,left,['8'],4,1.0006774999997106,0.4,0,AccAcc,7,18,Man,Right,
8,10,1,1.3996962999999596,['c'],1,left,['9'],5,1.1841448000000128,0.2,0,AccAcc,7,18,Man,Right,
9,10,1,1.4988321999999243,['n'],1,right,['0'],6,0.3172079999999369,0.1,0,AccAcc,7,18,Man,Right,
10,10,1,2.6161888000001454,['n'],0,left,['8'],4,0.7832327999999507,0.1,0,AccAcc,7,18,Man,Right,
11,10,1,3.015733999999611,['c'],0,right,['3'],3,1.6171916000002966,0.1,0,AccAcc,7,18,Man,Right,
12,10,1,0.8167441000000508,['c'],1,left,['0'],6,0.667347399999926,0.4,0,AccAcc,7,18,Man,Right,
13,10,1,0.6497844000000441,['n'],1,right,['0'],6,0.2838829000002079,0.2,0,AccAcc,7,18,Man,Right,
14,10,1,0.999673399999665,['c'],1,left,['9'],5,0.6172039999996741,0.2,0,AccAcc,7,18,Man,Right,
15,10,1,0.6495984000002863,['n'],1,right,['0'],6,0.46698699999979,0.2,0,AccAcc,7,18,Man,Right,
16,10,1,2.1490484000000833,['n'],0,left,['0'],6,0.4171375999999327,0.2,0,AccAcc,7,18,Man,Right,
17,10,1,1.1495976999999584,['c'],1,left,['9'],5,1.1338359999999739,0.2,0,AccAcc,7,18,Man,Right,
18,10,1,0.7818474999999125,['n'],1,right,['0'],6,0.38399729999991905,0.4,0,AccAcc,7,18,Man,Right,
19,10,1,1.3995899999999892,['c'],1,left,['8'],4,1.083882000000358,0.4,0,AccAcc,7,18,Man,Right,
20,10,1,2.6490708999999697,['n'],0,left,['8'],4,2.4505480999996507,0.1,0,AccAcc,7,18,Man,Right,
21,10,1,1.0652698999997483,['c'],1,left,['0'],6,0.4005299999998897,0.2,0,AccAcc,7,18,Man,Right,
22,10,1,4.182832299999973,['n'],0,left,['9'],5,1.4838485999998738,0.1,0,AccAcc,7,18,Man,Right,
23,10,1,2.616542500000378,['n'],1,right,['8'],4,1.117100599999958,0.4,0,AccAcc,7,18,Man,Right,
24,10,1,1.099308000000292,['n'],1,right,['9'],5,0.6838047000001097,0.4,0,AccAcc,7,18,Man,Right,
25,10,1,1.6168602000002466,['n'],1,right,['0'],6,1.183944800000063,0.4,0,AccAcc,7,18,Man,Right,
26,10,1,2.7814727999998468,['c'],0,right,['2'],2,0.7839547000003222,0.1,0,AccAcc,7,18,Man,Right,
27,10,1,2.766251199999715,['c'],1,left,['0'],6,1.0673856999997042,0.2,0,AccAcc,7,18,Man,Right,
28,10,1,1.250055699999848,['c'],1,left,['0'],6,0.35051290000001245,0.4,0,AccAcc,7,18,Man,Right,
29,10,1,0.9319117000000006,['c'],1,left,['9'],5,0.733836799999608,0.4,0,AccAcc,7,18,Man,Right,
30,10,1,1.099554999999782,['n'],0,left,['0'],6,0.5004738000002362,0.1,0,AccAcc,7,18,Man,Right,
31,10,1,1.0826827000000776,['c'],1,left,['0'],6,4.1840328000002955,0.2,0,AccAcc,7,18,Man,Right,
32,10,1,0.5828467999999702,['n'],1,right,['0'],6,0.350403500000084,0.4,0,AccAcc,7,18,Man,Right,
33,10,1,0.6658793999999943,['n'],1,right,['9'],5,0.4836726999997154,0.4,0,AccAcc,7,18,Man,Right,
34,10,1,0.8496092000000317,['n'],1,right,['8'],4,0.5504789000001438,0.2,0,AccAcc,7,18,Man,Right,
35,10,1,1.5496600000001308,['n'],1,right,['9'],5,0.6505174999997507,0.2,0,AccAcc,7,18,Man,Right,
36,10,1,1.5160190000001421,['n'],0,left,['0'],6,0.6006680000000415,0.1,0,AccAcc,7,18,Man,Right,
37,10,1,1.3995350000000144,['c'],0,right,['0'],6,0.3336782999999741,0.1,0,AccAcc,7,18,Man,Right,
38,10,1,0.5494597000001704,['n'],1,right,['0'],6,0.36723410000013246,0.2,0,AccAcc,7,18,Man,Right,
39,10,1,0.7827387000002091,['n'],0,left,['9'],5,0.4503911000001608,0.1,0,AccAcc,7,18,Man,Right,
40,10,1,1.5995907999999872,['n'],0,left,['8'],4,0.6171680000002198,0.1,0,AccAcc,7,18,Man,Right,
41,10,1,0.8829799000000094,['n'],1,right,['0'],6,0.4838792000000467,0.1,0,AccAcc,7,18,Man,Right,
42,10,1,0.9326844000001984,['n'],1,right,['3'],3,1.5672224999998434,0.4,0,AccAcc,7,18,Man,Right,
43,10,1,4.499790500000017,['n'],1,right,['8'],4,2.067199900000105,0.1,0,AccAcc,7,18,Man,Right,
44,10,1,0.8996891000001597,['n'],1,right,['0'],6,0.6502986000000419,0.4,0,AccAcc,7,18,Man,Right,
45,10,1,2.316932799999904,['n'],1,right,['0'],6,3.6005819000001793,0.4,0,AccAcc,7,18,Man,Right,
46,10,1,0.999135799999749,['n'],1,right,['8'],4,0.8672098000001824,0.4,0,AccAcc,7,18,Man,Right,
47,10,1,1.0167760999997881,['n'],0,left,['0'],6,0.5172022000001562,0.1,0,AccAcc,7,18,Man,Right,
48,10,1,1.3495880999998917,['n'],0,left,['9'],5,0.5675594999997884,0.2,0,AccAcc,7,18,Man,Right,
49,10,1,1.1159124000000702,['c'],1,left,['0'],6,0.5338393000001815,0.1,0,AccAcc,7,18,Man,Right,
50,10,1,1.2328236999996989,['n'],1,right,['1'],1,1.3337882999999238,0.1,0,AccAcc,7,18,Man,Right,
51,10,1,0.8829563000003873,['c'],1,left,['0'],6,0.30058240000016667,0.4,0,AccAcc,7,18,Man,Right,
52,10,1,1.1502267000000757,['c'],1,left,['9'],5,1.0669530000000123,0.4,0,AccAcc,7,18,Man,Right,
53,10,1,1.1659159000000727,['n'],1,right,['0'],6,0.6339181000003009,0.2,0,AccAcc,7,18,Man,Right,
54,10,1,0.6495323999997709,['n'],1,right,['0'],6,0.4504616999997779,0.4,0,AccAcc,7,18,Man,Right,
55,10,1,0.7664039000001139,['c'],1,left,['0'],6,0.25056620000032126,0.2,0,AccAcc,7,18,Man,Right,
56,10,1,0.6824919000000591,['n'],0,left,['0'],6,0.48372680000011314,0.4,0,AccAcc,7,18,Man,Right,
57,10,1,0.716437600000063,['n'],1,right,['0'],6,0.28388779999977487,0.2,0,AccAcc,7,18,Man,Right,
58,10,1,2.482920300000387,['c'],1,left,['8'],4,1.067210199999863,0.1,0,AccAcc,7,18,Man,Right,
59,10,1,0.7003901999996742,['n'],1,right,['0'],6,0.2502564999999777,0.4,0,AccAcc,7,18,Man,Right,
0,11,1,1.0664520000000266,['c'],1,left,['9'],5,1.2170770000002449,0.2,0,FastAcc,7,18,Man,Right,
1,11,1,0.5495802999998887,['n'],1,right,['0'],6,0.2507368999999926,0.2,0,FastAcc,7,18,Man,Right,
2,11,1,1.2656741000000693,['c'],0,right,['0'],6,0.617217200000141,0.4,0,FastAcc,7,18,Man,Right,
3,11,1,0.9331019999999626,['c'],1,left,['9'],5,0.817273600000135,0.2,0,FastAcc,7,18,Man,Right,
4,11,1,0.9669137999999293,['c'],1,left,['0'],6,0.5339125000000422,0.4,0,FastAcc,7,18,Man,Right,
5,11,1,1.0664557999998578,['c'],1,left,['0'],6,0.4005096999999296,0.4,0,FastAcc,7,18,Man,Right,
6,11,1,1.1827541999996356,['n'],1,right,['0'],6,0.43402199999991353,0.1,0,FastAcc,7,18,Man,Right,
7,11,1,0.9993251999999302,['c'],1,left,['0'],6,0.4838905999999952,0.4,0,FastAcc,7,18,Man,Right,
8,11,1,1.0828261999999995,['c'],0,right,['0'],6,0.533798399999796,0.2,0,FastAcc,7,18,Man,Right,
9,11,1,0.8996165999997174,['c'],1,left,['0'],6,1.0005185999998503,0.4,0,FastAcc,7,18,Man,Right,
10,11,1,3.099542299999939,['c'],0,right,['9'],5,0.7506988000000092,0.4,0,FastAcc,7,18,Man,Right,
11,11,1,1.5163198000000193,['n'],1,right,['2'],2,1.1170849999998609,0.2,0,FastAcc,7,18,Man,Right,
12,11,1,1.0826397000000725,['c'],1,left,['0'],6,0.7338000999998258,0.4,0,FastAcc,7,18,Man,Right,
13,11,1,2.9160487999997713,['n'],1,right,['9'],5,1.150516499999867,0.2,0,FastAcc,7,18,Man,Right,
14,11,1,0.7994619999999486,['n'],1,right,['9'],5,0.5338733999997203,0.4,0,FastAcc,7,18,Man,Right,
15,11,1,0.6327603999998246,['n'],1,right,['8'],4,1.4338119999997616,0.2,0,FastAcc,7,18,Man,Right,
16,11,1,0.9669734999997672,['c'],1,left,['0'],6,0.9343552000000273,0.1,0,FastAcc,7,18,Man,Right,
17,11,1,1.016313099999934,['c'],1,left,['0'],6,0.8339323999998669,0.2,0,FastAcc,7,18,Man,Right,
18,11,1,1.6824492999999165,['c'],0,right,['2'],2,2.2670195000000604,0.1,0,FastAcc,7,18,Man,Right,
19,11,1,1.1828322000001208,['n'],1,right,['3'],3,1.450612000000092,0.1,0,FastAcc,7,18,Man,Right,
20,11,1,0.9497787999998764,['c'],1,left,['0'],6,0.4835792000003494,0.2,0,FastAcc,7,18,Man,Right,
21,11,1,0.6829757999998947,['n'],1,right,['0'],6,0.36703529999977036,0.4,0,FastAcc,7,18,Man,Right,
22,11,1,0.5830329999998867,['n'],1,right,['0'],6,0.31713940000008733,0.4,0,FastAcc,7,18,Man,Right,
23,11,1,1.2827532999999676,['c'],1,left,['8'],4,0.6669916999999259,0.1,0,FastAcc,7,18,Man,Right,
24,11,1,0.8993070999999873,['c'],1,left,['0'],6,0.7839311000002454,0.4,0,FastAcc,7,18,Man,Right,
25,11,1,1.1499447000001055,['n'],0,left,['0'],6,0.4169800999998188,0.1,0,FastAcc,7,18,Man,Right,
26,11,1,1.7991390000001957,['n'],1,right,['9'],5,0.7335637999999562,0.1,0,FastAcc,7,18,Man,Right,
27,11,1,1.217245300000286,['n'],1,right,['8'],4,0.9671861000001627,0.4,0,FastAcc,7,18,Man,Right,
28,11,1,0.7496608999999808,['n'],1,right,['3'],3,0.8171480999999403,0.2,0,FastAcc,7,18,Man,Right,
29,11,1,1.7484704000003148,['c'],1,left,['9'],5,0.8336416000001918,0.1,0,FastAcc,7,18,Man,Right,
30,11,1,0.7329767000001084,['n'],1,right,['0'],6,0.3672440000000279,0.4,0,FastAcc,7,18,Man,Right,
31,11,1,0.832999899999777,['c'],1,left,['0'],6,0.45052330000044094,0.4,0,FastAcc,7,18,Man,Right,
32,11,1,0.6995121999998446,['c'],1,left,['9'],5,0.5673046000001705,0.4,0,FastAcc,7,18,Man,Right,
33,11,1,0.6325369999999566,['n'],0,left,['3'],3,1.0836568999998235,0.1,0,FastAcc,7,18,Man,Right,
34,11,1,0.6161440000000766,['n'],1,right,['0'],6,0.4004941999996845,0.4,0,FastAcc,7,18,Man,Right,
35,11,1,1.0326116999999613,['n'],1,right,['0'],6,0.6511932999997043,0.1,0,FastAcc,7,18,Man,Right,
36,11,1,1.8664710999996714,['c'],1,left,['0'],6,0.3504551999999421,0.1,0,FastAcc,7,18,Man,Right,
37,11,1,1.9990290000000641,['c'],0,right,['9'],5,1.3338730999998916,0.2,0,FastAcc,7,18,Man,Right,
38,11,1,0.8661400999999387,['c'],1,left,['0'],6,0.45058469999958106,0.2,0,FastAcc,7,18,Man,Right,
39,11,1,3.1160555999999815,['n'],1,right,['0'],6,0.8005872000003365,0.2,0,FastAcc,7,18,Man,Right,
40,11,1,2.199979600000006,['n'],0,left,['0'],6,0.2838174999997136,0.1,0,FastAcc,7,18,Man,Right,
41,11,1,0.7159947000000102,['c'],1,left,['0'],6,0.25029859999995097,0.4,0,FastAcc,7,18,Man,Right,
42,11,1,1.5326669000000948,['n'],0,left,['1'],1,1.1337831000000733,0.1,0,FastAcc,7,18,Man,Right,
43,11,1,0.6994917000001806,['n'],0,left,['0'],6,0.5006176000001687,0.2,0,FastAcc,7,18,Man,Right,
44,11,1,0.7835110999999415,['n'],1,right,['0'],6,0.25020519999998214,0.2,0,FastAcc,7,18,Man,Right,
45,11,1,0.7825321000000258,['c'],1,left,['0'],6,0.4008083999997325,0.4,0,FastAcc,7,18,Man,Right,
46,11,1,2.349451500000214,['c'],1,left,['3'],3,1.9671521999998731,0.2,0,FastAcc,7,18,Man,Right,
47,11,1,0.932659699999931,['n'],1,right,['9'],5,0.533738899999662,0.1,0,FastAcc,7,18,Man,Right,
48,11,1,1.216271300000244,['n'],0,left,['9'],5,0.700330699999995,0.1,0,FastAcc,7,18,Man,Right,
49,11,1,1.666777699999784,['c'],1,left,['8'],4,1.1338694999999461,0.1,0,FastAcc,7,18,Man,Right,
50,11,1,0.6819049999999152,['n'],1,right,['0'],6,0.38375870000027135,0.4,0,FastAcc,7,18,Man,Right,
51,11,1,0.6490429000000404,['n'],1,right,['0'],6,0.41716319999977713,0.1,0,FastAcc,7,18,Man,Right,
52,11,1,0.8661934000001565,['c'],1,left,['9'],5,0.533953399999973,0.2,0,FastAcc,7,18,Man,Right,
53,11,1,0.9662020000000666,['n'],1,right,['8'],4,0.6169070000000829,0.1,0,FastAcc,7,18,Man,Right,
54,11,1,2.315452700000151,['n'],1,right,['0'],6,0.6838826999996854,0.1,0,FastAcc,7,18,Man,Right,
55,11,1,0.8994706999997106,['c'],1,left,['9'],5,1.050511600000391,0.2,0,FastAcc,7,18,Man,Right,
56,11,1,0.8158214000000044,['n'],1,right,['0'],6,0.25056080000013026,0.2,0,FastAcc,7,18,Man,Right,
57,11,1,0.6829485999996905,['n'],1,right,['0'],6,0.4338142000001426,0.4,0,FastAcc,7,18,Man,Right,
58,11,1,0.9996307999999772,['n'],1,right,['2'],2,0.8672682000001259,0.2,0,FastAcc,7,18,Man,Right,
59,11,1,1.199010399999679,['c'],1,left,['2'],2,1.5672959999997147,0.1,0,FastAcc,7,18,Man,Right,
0,12,1,1.1333875999998781,['n'],1,right,['0'],6,0.20029629999999088,0.1,0,FastFast,7,18,Man,Right,
1,12,1,1.0163480000001073,['c'],0,right,['0'],6,0.2504217000000608,0.1,0,FastFast,7,18,Man,Right,
2,12,1,0.600775099999737,['n'],1,right,['0'],6,0.38402250000035565,0.4,0,FastFast,7,18,Man,Right,
3,12,1,0.6665959000001749,['c'],0,right,['0'],6,0.5340019999998731,0.1,0,FastFast,7,18,Man,Right,
4,12,1,0.5503489999996418,['c'],1,left,['9'],5,0.31714229999988675,0.4,0,FastFast,7,18,Man,Right,
5,12,1,0.8502582999999504,['n'],0,left,['0'],6,0.2503974000001108,0.2,0,FastFast,7,18,Man,Right,
6,12,1,0.6170071000001371,['c'],1,left,['0'],6,0.28389089999973294,0.4,0,FastFast,7,18,Man,Right,
7,12,1,0.7492412000001423,['c'],1,left,['0'],6,0.3338277999996535,0.4,0,FastFast,7,18,Man,Right,
8,12,1,0.7828276999998707,['n'],0,left,['9'],5,0.4504496999998082,0.4,0,FastFast,7,18,Man,Right,
9,12,1,0.7328919999999925,['c'],0,right,['9'],5,0.28377550000004703,0.1,0,FastFast,7,18,Man,Right,
10,12,1,0.6994973000000755,['c'],1,left,['0'],6,0.3500725999997485,0.4,0,FastFast,7,18,Man,Right,
11,12,1,0.599941200000103,['n'],1,right,['0'],6,0.400535299999774,0.2,0,FastFast,7,18,Man,Right,
12,12,1,0.4828492000001461,['n'],0,left,['2'],2,1.083783399999902,0.2,0,FastFast,7,18,Man,Right,
13,12,1,0.583591399999932,['n'],1,right,['9'],5,0.650373099999797,0.1,0,FastFast,7,18,Man,Right,
14,12,1,0.7161421000000701,['c'],1,left,['0'],6,0.21722559999989244,0.4,0,FastFast,7,18,Man,Right,
15,12,1,0.6822363999999652,['c'],1,left,['0'],6,0.3003512000000228,0.4,0,FastFast,7,18,Man,Right,
16,12,1,0.9999593000002278,['n'],1,right,['1'],1,0.8003221000003578,0.2,0,FastFast,7,18,Man,Right,
17,12,1,0.9498918999997841,['c'],1,left,['0'],6,0.3004866999999649,0.4,0,FastFast,7,18,Man,Right,
18,12,1,2.7499753000001874,['c'],1,left,['2'],2,1.1003975999997238,0.1,0,FastFast,7,18,Man,Right,
19,12,1,0.7166056000000935,['c'],1,left,['0'],6,0.7012420999999449,0.1,0,FastFast,7,18,Man,Right,
20,12,1,1.0988040000002002,['c'],1,left,['9'],5,0.5836889000001975,0.2,0,FastFast,7,18,Man,Right,
21,12,1,0.7663485000002765,['c'],1,left,['0'],6,0.8170051000001877,0.4,0,FastFast,7,18,Man,Right,
22,12,1,1.6497649000002639,['c'],1,left,['2'],2,1.0504433999999492,0.4,0,FastFast,7,18,Man,Right,
23,12,1,1.0994206999998823,['c'],1,left,['3'],3,0.7006031000000803,0.2,0,FastFast,7,18,Man,Right,
24,12,1,0.9492943999998715,['n'],1,right,['8'],4,0.38389260000030845,0.1,0,FastFast,7,18,Man,Right,
25,12,1,0.9329546999997547,['c'],1,left,['9'],5,0.683801300000141,0.4,0,FastFast,7,18,Man,Right,
26,12,1,0.9000159000001986,['c'],0,right,['9'],5,0.6836582000000817,0.2,0,FastFast,7,18,Man,Right,
27,12,1,1.0162312000002203,['c'],0,right,['9'],5,0.8171440999999504,0.1,0,FastFast,7,18,Man,Right,
28,12,1,0.9162589999996271,['c'],1,left,['0'],6,0.3838588000003256,0.2,0,FastFast,7,18,Man,Right,
29,12,1,1.249677900000279,['n'],1,right,['0'],6,0.20052649999979621,0.4,0,FastFast,7,18,Man,Right,
30,12,1,1.4500343999998222,['c'],0,right,['0'],6,0.41717289999996865,0.1,0,FastFast,7,18,Man,Right,
31,12,1,1.6328306999998858,['n'],1,right,['2'],2,0.7003795999999056,0.2,0,FastFast,7,18,Man,Right,
32,12,1,0.6162506000000576,['n'],1,right,['0'],6,0.21715969999968365,0.4,0,FastFast,7,18,Man,Right,
33,12,1,1.1826829000001453,['c'],0,right,['9'],5,0.45020500000009633,0.2,0,FastFast,7,18,Man,Right,
34,12,1,1.0162711000002673,['c'],1,left,['0'],6,0.25034050000022035,0.1,0,FastFast,7,18,Man,Right,
35,12,1,0.9662908999998763,['n'],0,left,['8'],4,0.817107599999872,0.1,0,FastFast,7,18,Man,Right,
36,12,1,1.549522700000125,['n'],1,right,['0'],6,0.25048019999985627,0.2,0,FastFast,7,18,Man,Right,
37,12,1,0.5996165999999903,['n'],1,right,['0'],6,0.21721720000005007,0.4,0,FastFast,7,18,Man,Right,
38,12,1,0.7833679000000302,['c'],1,left,['0'],6,0.2171290000001136,0.1,0,FastFast,7,18,Man,Right,
39,12,1,0.6993836999999985,['c'],1,left,['0'],6,0.2505263000002742,0.4,0,FastFast,7,18,Man,Right,
40,12,1,0.6830184000000372,['n'],1,right,['0'],6,0.1841218999998091,0.4,0,FastFast,7,18,Man,Right,
41,12,1,0.516126400000303,['n'],1,right,['0'],6,0.667200700000194,0.2,0,FastFast,7,18,Man,Right,
42,12,1,1.149078500000087,['c'],1,left,['0'],6,0.13388530000020182,0.2,0,FastFast,7,18,Man,Right,
43,12,1,0.6328364000000875,['n'],1,right,['9'],5,0.7171734000003198,0.1,0,FastFast,7,18,Man,Right,
44,12,1,1.0154751999998552,['c'],0,right,['9'],5,0.5004957999999533,0.2,0,FastFast,7,18,Man,Right,
45,12,1,0.9821404000003895,['c'],1,left,['8'],4,0.7003568000000087,0.2,0,FastFast,7,18,Man,Right,
46,12,1,0.5833032000000458,['n'],0,left,['0'],6,0.5169950000004064,0.1,0,FastFast,7,18,Man,Right,
47,12,1,0.6996920999999929,['n'],0,left,['2'],2,0.8672090999998545,0.2,0,FastFast,7,18,Man,Right,
48,12,1,0.8492450999997345,['n'],1,right,['0'],6,0.7502193000000261,0.2,0,FastFast,7,18,Man,Right,
49,12,1,0.9167678999997406,['c'],0,right,['2'],2,0.8004338999999163,0.1,0,FastFast,7,18,Man,Right,
50,12,1,0.6998717000001307,['c'],1,left,['0'],6,0.550306399999954,0.4,0,FastFast,7,18,Man,Right,
51,12,1,1.6835501000000477,['n'],1,right,['0'],6,0.1839247000002615,0.4,0,FastFast,7,18,Man,Right,
52,12,1,0.8318848000003527,['c'],1,left,['0'],6,0.26718669999991107,0.1,0,FastFast,7,18,Man,Right,
53,12,1,0.7323008000003028,['c'],1,left,['0'],6,0.2671103999996376,0.2,0,FastFast,7,18,Man,Right,
54,12,1,0.5995652999999947,['c'],1,left,['0'],6,0.21714310000015757,0.4,0,FastFast,7,18,Man,Right,
55,12,1,0.6663336000001436,['c'],0,right,['1'],1,1.2669126000000688,0.2,0,FastFast,7,18,Man,Right,
56,12,1,0.616278500000135,['n'],1,right,['0'],6,0.20055609999963053,0.1,0,FastFast,7,18,Man,Right,
57,12,1,0.5995197000002008,['n'],1,right,['0'],6,0.21732190000011542,0.2,0,FastFast,7,18,Man,Right,
58,12,1,1.3163389000001189,['c'],0,right,['0'],6,0.2838968000000932,0.1,0,FastFast,7,18,Man,Right,
59,12,1,0.866344499999741,['c'],0,right,['9'],5,0.33391409999967436,0.1,0,FastFast,7,18,Man,Right,
0,13,1,0.8332752999999684,['n'],1,right,['0'],6,0.41735530000005383,0.4,0,AccFast,7,18,Man,Right,
1,13,1,0.7001626000001124,['c'],0,right,['0'],6,0.433878199999981,0.1,0,AccFast,7,18,Man,Right,
2,13,1,0.7670551000001069,['c'],1,left,['9'],5,0.3336311999996724,0.2,0,AccFast,7,18,Man,Right,
3,13,1,0.7167629999999008,['n'],1,right,['0'],6,0.1671664000000419,0.4,0,AccFast,7,18,Man,Right,
4,13,1,0.7343940999999177,['c'],1,left,['9'],5,0.3673266999999214,0.2,0,AccFast,7,18,Man,Right,
5,13,1,2.2998483999999735,['c'],1,left,['8'],4,0.8005442000003313,0.2,0,AccFast,7,18,Man,Right,
6,13,1,0.5830569999998261,['c'],0,right,['2'],2,0.8172806999996283,0.1,0,AccFast,7,18,Man,Right,
7,13,1,0.7164671000000453,['n'],1,right,['0'],6,0.16708940000035,0.4,0,AccFast,7,18,Man,Right,
8,13,1,0.9660858000002008,['c'],0,right,['0'],6,0.2836824000000888,0.2,0,AccFast,7,18,Man,Right,
9,13,1,0.5835315999997874,['c'],1,left,['0'],6,0.33375870000008945,0.4,0,AccFast,7,18,Man,Right,
10,13,1,0.8997313999998369,['n'],1,right,['0'],6,0.5503667999996651,0.1,0,AccFast,7,18,Man,Right,
11,13,1,0.7993348999998489,['c'],1,left,['0'],6,0.2673641999999745,0.4,0,AccFast,7,18,Man,Right,
12,13,1,0.4834366999998565,['c'],0,right,['1'],1,0.9837221999996473,0.4,0,AccFast,7,18,Man,Right,
13,13,1,3.6830116000001,['n'],1,right,['9'],5,0.6503910999999789,0.1,0,AccFast,7,18,Man,Right,
14,13,1,2.132895400000052,['n'],1,right,['0'],6,0.41699160000007396,0.1,0,AccFast,7,18,Man,Right,
15,13,1,1.2329481000001579,['c'],1,left,['0'],6,0.2838174999997136,0.2,0,AccFast,7,18,Man,Right,
16,13,1,0.6828644999995959,['c'],1,left,['0'],6,0.2838600000000042,0.4,0,AccFast,7,18,Man,Right,
17,13,1,0.9824119999998402,['n'],1,right,['0'],6,0.33391359999995984,0.1,0,AccFast,7,18,Man,Right,
18,13,1,3.0159426999998686,['c'],1,left,['8'],4,0.8005409000002146,0.2,0,AccFast,7,18,Man,Right,
19,13,1,0.6168483999999808,['n'],1,right,['0'],6,0.26748879999968267,0.1,0,AccFast,7,18,Man,Right,
20,13,1,0.6327851999999439,['c'],1,left,['0'],6,0.21700950000013108,0.2,0,AccFast,7,18,Man,Right,
21,13,1,1.7666321000001517,['c'],1,left,['8'],4,0.6505177999997613,0.1,0,AccFast,7,18,Man,Right,
22,13,1,0.5661771999998564,['n'],1,right,['9'],5,0.5337795000000369,0.1,0,AccFast,7,18,Man,Right,
23,13,1,1.3159121000003324,['c'],1,left,['0'],6,0.45027799999979834,0.4,0,AccFast,7,18,Man,Right,
24,13,1,0.8160979999997835,['c'],1,left,['0'],6,0.28401320000011765,0.4,0,AccFast,7,18,Man,Right,
25,13,1,0.9835258999996768,['c'],1,left,['0'],6,0.26714609999999084,0.4,0,AccFast,7,18,Man,Right,
26,13,1,0.6999605999999403,['n'],1,right,['0'],6,0.2505124999997861,0.2,0,AccFast,7,18,Man,Right,
27,13,1,0.6494014999998399,['c'],1,left,['0'],6,0.3004464000000553,0.4,0,AccFast,7,18,Man,Right,
28,13,1,0.766364799999792,['n'],1,right,['0'],6,0.2170680999997785,0.2,0,AccFast,7,18,Man,Right,
29,13,1,1.7664048999999977,['n'],1,right,['0'],6,0.16714309999997568,0.2,0,AccFast,7,18,Man,Right,
30,13,1,2.0999016999999185,['n'],1,right,['0'],6,0.21696179999980814,0.2,0,AccFast,7,18,Man,Right,
31,13,1,0.7994767000000138,['c'],1,left,['0'],6,0.18388909999976022,0.1,0,AccFast,7,18,Man,Right,
32,13,1,0.7328041000000667,['n'],1,right,['0'],6,0.18375349999996615,0.4,0,AccFast,7,18,Man,Right,
33,13,1,0.48254369999995106,['n'],1,right,['0'],6,0.25038060000042606,0.2,0,AccFast,7,18,Man,Right,
34,13,1,0.7002142999999705,['c'],1,left,['0'],6,0.23389429999997446,0.4,0,AccFast,7,18,Man,Right,
35,13,1,0.8663747999999032,['n'],1,right,['0'],6,0.16708109999990484,0.1,0,AccFast,7,18,Man,Right,
36,13,1,1.5996024999999463,['c'],1,left,['9'],5,0.46722330000011425,0.1,0,AccFast,7,18,Man,Right,
37,13,1,0.9492281999996521,['c'],1,left,['9'],5,0.4005744999999479,0.1,0,AccFast,7,18,Man,Right,
38,13,1,0.6160945999999967,['c'],1,left,['0'],6,0.23375039999973524,0.1,0,AccFast,7,18,Man,Right,
39,13,1,3.6825827999996363,['n'],1,right,['8'],4,0.583795900000041,0.1,0,AccFast,7,18,Man,Right,
40,13,1,0.5993180000000393,['c'],1,left,['0'],6,0.20049900000003618,0.4,0,AccFast,7,18,Man,Right,
41,13,1,0.8490263999997296,['c'],1,left,['0'],6,0.20044580000012502,0.2,0,AccFast,7,18,Man,Right,
42,13,1,0.5828191999999035,['n'],1,right,['0'],6,0.2671103000002404,0.4,0,AccFast,7,18,Man,Right,
43,13,1,2.250020200000108,['n'],1,right,['8'],4,0.36702980000018215,0.2,0,AccFast,7,18,Man,Right,
44,13,1,0.9994044000000031,['c'],1,left,['0'],6,0.23370029999978215,0.1,0,AccFast,7,18,Man,Right,
45,13,1,0.49954499999967084,['n'],1,right,['0'],6,0.2005341999997654,0.4,0,AccFast,7,18,Man,Right,
46,13,1,1.7660384999999224,['n'],1,right,['0'],6,0.4671797000000879,0.2,0,AccFast,7,18,Man,Right,
47,13,1,0.7834731000002648,['c'],1,left,['0'],6,0.2341894000001048,0.4,0,AccFast,7,18,Man,Right,
48,13,1,0.6994240000003629,['n'],1,right,['9'],5,0.38403059999973266,0.1,0,AccFast,7,18,Man,Right,
49,13,1,0.966055200000028,['c'],1,left,['0'],6,0.28387949999978446,0.2,0,AccFast,7,18,Man,Right,
50,13,1,1.049133299999994,['n'],1,right,['0'],6,0.28385979999984556,0.4,0,AccFast,7,18,Man,Right,
51,13,1,2.148799499999768,['n'],1,right,['8'],4,2.866983899999923,0.2,0,AccFast,7,18,Man,Right,
52,13,1,0.8331553000002714,['c'],1,left,['0'],6,0.20040910000034273,0.1,0,AccFast,7,18,Man,Right,
53,13,1,2.6496166999995694,['c'],1,left,['9'],5,0.4838187000000289,0.1,0,AccFast,7,18,Man,Right,
54,13,1,0.7164467999996305,['n'],0,left,['0'],6,0.35050860000001194,0.1,0,AccFast,7,18,Man,Right,
55,13,1,1.2162392000000182,['c'],1,left,['0'],6,0.30060779999985243,0.2,0,AccFast,7,18,Man,Right,
56,13,1,0.8330521000002591,['c'],1,left,['0'],6,0.30039969999961613,0.4,0,AccFast,7,18,Man,Right,
57,13,1,0.7329752000000553,['n'],1,right,['0'],6,0.20037709999996878,0.2,0,AccFast,7,18,Man,Right,
58,13,1,1.2493881999998848,['c'],1,left,['9'],5,0.43383380000022953,0.2,0,AccFast,7,18,Man,Right,
59,13,1,1.8493083000003026,['n'],1,right,['0'],6,0.46709119999968607,0.4,0,AccFast,7,18,Man,Right,
0,14,1,1.1319172000003164,['c'],0,right,['0'],6,0.35048409999990326,0.2,0,AccAcc,7,18,Man,Right,
1,14,1,0.733031199999914,['c'],1,left,['9'],5,0.3504456000000573,0.4,0,AccAcc,7,18,Man,Right,
2,14,1,0.666092099999787,['n'],1,right,['0'],6,0.650496799999928,0.4,0,AccAcc,7,18,Man,Right,
3,14,1,1.966524599999957,['c'],1,left,['8'],4,1.9503506999999445,0.1,0,AccAcc,7,18,Man,Right,
4,14,1,1.3152040999998462,['c'],0,right,['0'],6,0.33363950000011755,0.2,0,AccAcc,7,18,Man,Right,
5,14,1,0.7336371000001236,['c'],1,left,['0'],6,0.3337485000001834,0.2,0,AccAcc,7,18,Man,Right,
6,14,1,0.849557300000015,['n'],1,right,['0'],6,0.5338464000001295,0.2,0,AccAcc,7,18,Man,Right,
7,14,1,1.948506400000042,['c'],0,right,['3'],3,2.1504236000000674,0.1,0,AccAcc,7,18,Man,Right,
8,14,1,0.7485677999998188,['c'],1,left,['0'],6,1.6502171000001908,0.1,0,AccAcc,7,18,Man,Right,
9,14,1,0.7986052999999629,['c'],1,left,['0'],6,1.1004735000001347,0.1,0,AccAcc,7,18,Man,Right,
10,14,1,0.9166516000000229,['c'],1,left,['9'],5,1.0838681000000179,0.2,0,AccAcc,7,18,Man,Right,
11,14,1,0.9995665999999801,['c'],1,left,['2'],2,0.8337177000003066,0.1,0,AccAcc,7,18,Man,Right,
12,14,1,0.7336347000000387,['c'],1,left,['0'],6,0.43411169999990307,0.4,0,AccAcc,7,18,Man,Right,
13,14,1,1.0335670999998001,['c'],0,right,['1'],1,1.0338471999998546,0.2,0,AccAcc,7,18,Man,Right,
14,14,1,0.7496823999999833,['n'],1,right,['0'],6,1.6171637000002193,0.4,0,AccAcc,7,18,Man,Right,
15,14,1,0.6329307999999401,['n'],1,right,['0'],6,0.30053200000020297,0.4,0,AccAcc,7,18,Man,Right,
16,14,1,1.6830106999996133,['n'],1,right,['2'],2,0.3335245999996914,0.1,0,AccAcc,7,18,Man,Right,
17,14,1,0.4167891000001873,['n'],1,right,['2'],2,1.5005870999998479,0.2,0,AccAcc,7,18,Man,Right,
18,14,1,1.4995536999999786,['n'],1,right,['9'],5,0.7837444000001597,0.1,0,AccAcc,7,18,Man,Right,
19,14,1,1.1163927999996304,['c'],1,left,['0'],6,0.25056640000002517,0.4,0,AccAcc,7,18,Man,Right,
20,14,1,0.6000009000003956,['n'],1,right,['0'],6,0.18444719999979498,0.4,0,AccAcc,7,18,Man,Right,
21,14,1,0.6328129000003173,['n'],1,right,['8'],4,3.533888200000092,0.2,0,AccAcc,7,18,Man,Right,
22,14,1,0.6166213000001335,['c'],1,left,['0'],6,0.46715779999976803,0.2,0,AccAcc,7,18,Man,Right,
23,14,1,0.5996510999998463,['n'],1,right,['0'],6,0.21724919999996928,0.4,0,AccAcc,7,18,Man,Right,
24,14,1,1.116278400000283,['c'],1,left,['0'],6,0.41735990000006495,0.1,0,AccAcc,7,18,Man,Right,
25,14,1,1.216048000000228,['n'],0,left,['9'],5,0.6170860000001994,0.1,0,AccAcc,7,18,Man,Right,
26,14,1,0.5661094000001867,['n'],1,right,['8'],4,0.7005667000003086,0.2,0,AccAcc,7,18,Man,Right,
27,14,1,0.7829987000000074,['c'],1,left,['8'],4,0.833804599999894,0.2,0,AccAcc,7,18,Man,Right,
28,14,1,0.6663625999999567,['n'],0,left,['8'],4,0.483938599999874,0.1,0,AccAcc,7,18,Man,Right,
29,14,1,0.716466599999876,['c'],1,left,['0'],6,0.23356860000012603,0.2,0,AccAcc,7,18,Man,Right,
30,14,1,1.4834399999999732,['n'],0,left,['0'],6,2.850508600000012,0.1,0,AccAcc,7,18,Man,Right,
31,14,1,0.732705100000203,['c'],1,left,['1'],1,1.18374010000025,0.1,0,AccAcc,7,18,Man,Right,
32,14,1,0.8831816000001709,['n'],1,right,['2'],2,1.15054549999968,0.4,0,AccAcc,7,18,Man,Right,
33,14,1,0.8334804999999506,['n'],1,right,['0'],6,0.5339152999999897,0.2,0,AccAcc,7,18,Man,Right,
34,14,1,0.7498375000000124,['n'],0,left,['1'],1,0.8504931000002216,0.2,0,AccAcc,7,18,Man,Right,
35,14,1,1.0669167000000925,['c'],1,left,['1'],1,3.2672849000000497,0.1,0,AccAcc,7,18,Man,Right,
36,14,1,0.9670808000000761,['n'],0,left,['0'],6,0.28384330000017144,0.1,0,AccAcc,7,18,Man,Right,
37,14,1,0.5829028000002836,['n'],1,right,['0'],6,0.25046999999995023,0.4,0,AccAcc,7,18,Man,Right,
38,14,1,0.6830087000003005,['c'],1,left,['0'],6,0.2170987999998033,0.4,0,AccAcc,7,18,Man,Right,
39,14,1,1.5328217999999652,['c'],1,left,['3'],3,1.0338400999999067,0.1,0,AccAcc,7,18,Man,Right,
40,14,1,0.6494787999999971,['c'],1,left,['0'],6,0.2671282000001156,0.4,0,AccAcc,7,18,Man,Right,
41,14,1,0.716857599999912,['n'],1,right,['0'],6,0.25059079999982714,0.4,0,AccAcc,7,18,Man,Right,
42,14,1,0.5160431999997854,['c'],1,left,['0'],6,0.2504658000002564,0.4,0,AccAcc,7,18,Man,Right,
43,14,1,0.6162447000001521,['n'],1,right,['0'],6,0.23392280000007304,0.2,0,AccAcc,7,18,Man,Right,
44,14,1,0.5329072999998061,['c'],1,left,['0'],6,0.2504776999999194,0.4,0,AccAcc,7,18,Man,Right,
45,14,1,0.5328909999998359,['n'],1,right,['0'],6,0.23322689999986324,0.2,0,AccAcc,7,18,Man,Right,
46,14,1,0.8660933999999543,['c'],1,left,['0'],6,0.9005672999996932,0.1,0,AccAcc,7,18,Man,Right,
47,14,1,1.033787299999858,['c'],0,right,['2'],2,0.8005229999998846,0.1,0,AccAcc,7,18,Man,Right,
48,14,1,0.4664061999997102,['n'],1,right,['2'],2,0.8838560000003781,0.4,0,AccAcc,7,18,Man,Right,
49,14,1,2.666436800000156,['n'],1,right,['8'],4,0.9504271999999219,0.1,0,AccAcc,7,18,Man,Right,
50,14,1,1.0668498,['n'],1,right,['9'],5,1.2838842000001023,0.4,0,AccAcc,7,18,Man,Right,
51,14,1,1.5669867999999951,['n'],1,right,['8'],4,0.8171852999998919,0.4,0,AccAcc,7,18,Man,Right,
52,14,1,1.3997236000000157,['n'],1,right,['8'],4,0.8838030000001709,0.2,0,AccAcc,7,18,Man,Right,
53,14,1,0.7662405000000945,['c'],1,left,['0'],6,0.26710129999992205,0.2,0,AccAcc,7,18,Man,Right,
54,14,1,1.9664382999999361,['c'],1,left,['0'],6,0.950826099999631,0.4,0,AccAcc,7,18,Man,Right,
55,14,1,4.483394099999714,['n'],1,right,['2'],2,1.2003563999996913,0.1,0,AccAcc,7,18,Man,Right,
56,14,1,0.9669969000001402,['c'],1,left,['0'],6,0.18381100000033257,0.1,0,AccAcc,7,18,Man,Right,
57,14,1,0.9004448999999113,['n'],1,right,['8'],4,0.7005306000000928,0.2,0,AccAcc,7,18,Man,Right,
58,14,1,0.666797399999723,['n'],1,right,['0'],6,0.2339188999999351,0.4,0,AccAcc,7,18,Man,Right,
59,14,1,0.7331143000001248,['c'],1,left,['0'],6,0.3003947000001972,0.2,0,AccAcc,7,18,Man,Right,
0,15,1,0.7489640999992844,['c'],1,left,['9'],5,0.8836504999999306,0.4,0,FastAcc,7,18,Man,Right,
1,15,1,0.7165742999995928,['n'],1,right,['8'],4,0.7006286000005275,0.2,0,FastAcc,7,18,Man,Right,
2,15,1,0.5661982999999964,['n'],1,right,['0'],6,0.35062379999999393,0.4,0,FastAcc,7,18,Man,Right,
3,15,1,0.8494466000001921,['c'],0,right,['9'],5,0.7671234999997978,0.2,0,FastAcc,7,18,Man,Right,
4,15,1,0.582971599999837,['n'],1,right,['8'],4,0.8338302000001931,0.2,0,FastAcc,7,18,Man,Right,
5,15,1,0.582621200000176,['c'],1,left,['3'],3,1.3505054000006567,0.1,0,FastAcc,7,18,Man,Right,
6,15,1,2.1328856999998607,['c'],0,right,['2'],2,0.617161600000145,0.1,0,FastAcc,7,18,Man,Right,
7,15,1,0.7497628999999506,['c'],1,left,['9'],5,0.6505348999999114,0.1,0,FastAcc,7,18,Man,Right,
8,15,1,0.5828844999996363,['c'],1,left,['0'],6,0.26707620000070165,0.2,0,FastAcc,7,18,Man,Right,
9,15,1,1.1828141000005417,['n'],1,right,['0'],6,0.217081099999632,0.2,0,FastAcc,7,18,Man,Right,
10,15,1,0.649484599999596,['c'],0,right,['0'],6,0.6507189999992988,0.1,0,FastAcc,7,18,Man,Right,
11,15,1,0.5163029000004826,['n'],1,right,['0'],6,0.417594999999892,0.4,0,FastAcc,7,18,Man,Right,
12,15,1,0.6333827999997084,['c'],1,left,['9'],5,0.6505340000003343,0.1,0,FastAcc,7,18,Man,Right,
13,15,1,0.8998984999998356,['n'],1,right,['9'],5,0.5505464999996548,0.4,0,FastAcc,7,18,Man,Right,
14,15,1,0.600191999999879,['c'],1,left,['0'],6,0.3504951000004439,0.4,0,FastAcc,7,18,Man,Right,
15,15,1,0.4327862999998615,['n'],1,right,['0'],6,0.3670833999995011,0.4,0,FastAcc,7,18,Man,Right,
16,15,1,0.6329459999997198,['n'],1,right,['0'],6,0.23381359999984852,0.4,0,FastAcc,7,18,Man,Right,
17,15,1,0.5334470999996483,['n'],0,left,['0'],6,0.3003413999995246,0.1,0,FastAcc,7,18,Man,Right,
18,15,1,1.216150899999775,['n'],1,right,['0'],6,0.26712289999977656,0.4,0,FastAcc,7,18,Man,Right,
19,15,1,0.7160243999996965,['n'],0,left,['2'],2,0.9177546999999322,0.2,0,FastAcc,7,18,Man,Right,
20,15,1,0.5331161999993128,['n'],1,right,['0'],6,0.3004830999998376,0.2,0,FastAcc,7,18,Man,Right,
21,15,1,0.7325080000000526,['n'],0,left,['2'],2,0.7168958000002021,0.1,0,FastAcc,7,18,Man,Right,
22,15,1,0.7833072000003085,['c'],0,right,['9'],5,1.0170978999994986,0.1,0,FastAcc,7,18,Man,Right,
23,15,1,0.466517500000009,['n'],1,right,['0'],6,0.2838111000000936,0.4,0,FastAcc,7,18,Man,Right,
24,15,1,0.9495724999997037,['c'],0,right,['8'],4,0.7005711000001611,0.2,0,FastAcc,7,18,Man,Right,
25,15,1,0.8661632999992435,['n'],1,right,['0'],6,0.75052020000021,0.2,0,FastAcc,7,18,Man,Right,
26,15,1,1.5661426999995456,['c'],1,left,['3'],3,1.6338270999995075,0.1,0,FastAcc,7,18,Man,Right,
27,15,1,0.5997317999999723,['c'],1,left,['0'],6,0.21705810000003112,0.4,0,FastAcc,7,18,Man,Right,
28,15,1,1.4318758999997954,['c'],0,right,['9'],5,0.6004867999999988,0.1,0,FastAcc,7,18,Man,Right,
29,15,1,0.9501675000001342,['c'],1,left,['8'],4,0.9172537999993438,0.2,0,FastAcc,7,18,Man,Right,
30,15,1,0.6495307000004686,['n'],1,right,['0'],6,0.6338790999998309,0.2,0,FastAcc,7,18,Man,Right,
31,15,1,0.6493310999994719,['c'],1,left,['0'],6,0.2505578999998761,0.2,0,FastAcc,7,18,Man,Right,
32,15,1,1.1828256999997393,['c'],1,left,['9'],5,2.6672836999996434,0.2,0,FastAcc,7,18,Man,Right,
33,15,1,0.7166117000006125,['c'],0,right,['8'],4,1.4504558999997244,0.1,0,FastAcc,7,18,Man,Right,
34,15,1,0.6165986999994857,['c'],1,left,['0'],6,0.334015499999623,0.4,0,FastAcc,7,18,Man,Right,
35,15,1,0.8675062000002072,['n'],0,left,['8'],4,1.2840896999996403,0.1,0,FastAcc,7,18,Man,Right,
36,15,1,0.4994816999997056,['c'],1,left,['0'],6,0.5838923000001159,0.4,0,FastAcc,7,18,Man,Right,
37,15,1,0.8492256999998062,['n'],1,right,['0'],6,0.2337253999994573,0.1,0,FastAcc,7,18,Man,Right,
38,15,1,0.8494788999996672,['n'],1,right,['0'],6,0.3340136999995593,0.2,0,FastAcc,7,18,Man,Right,
39,15,1,0.8327861999996458,['c'],0,right,['3'],3,0.8669578999997611,0.2,0,FastAcc,7,18,Man,Right,
40,15,1,1.0995473000002676,['n'],0,left,['8'],4,1.0672337000005427,0.1,0,FastAcc,7,18,Man,Right,
41,15,1,0.7991448000002492,['n'],1,right,['3'],3,0.9003679000006741,0.1,0,FastAcc,7,18,Man,Right,
42,15,1,1.2005198999995628,['n'],1,right,['9'],5,0.8171890000003259,0.2,0,FastAcc,7,18,Man,Right,
43,15,1,0.6161824000000706,['c'],1,left,['0'],6,0.8172101999998631,0.4,0,FastAcc,7,18,Man,Right,
44,15,1,0.8329973999998401,['n'],1,right,['0'],6,0.7504253999995854,0.4,0,FastAcc,7,18,Man,Right,
45,15,1,0.7161899999991874,['c'],1,left,['9'],5,0.7505307999999786,0.2,0,FastAcc,7,18,Man,Right,
46,15,1,1.6828836999993655,['c'],1,left,['0'],6,1.3338426999998774,0.4,0,FastAcc,7,18,Man,Right,
47,15,1,0.8158852999995361,['n'],1,right,['8'],4,3.7505903999999646,0.2,0,FastAcc,7,18,Man,Right,
48,15,1,0.8501265999993848,['n'],1,right,['0'],6,0.3503158999992593,0.4,0,FastAcc,7,18,Man,Right,
49,15,1,0.7996146000004956,['c'],1,left,['0'],6,0.2172037000000273,0.4,0,FastAcc,7,18,Man,Right,
50,15,1,1.3159287999997105,['c'],1,left,['9'],5,0.6337923999999475,0.1,0,FastAcc,7,18,Man,Right,
51,15,1,0.6329962999998315,['n'],1,right,['0'],6,0.2505260999996608,0.1,0,FastAcc,7,18,Man,Right,
52,15,1,1.1662931000000754,['c'],1,left,['0'],6,0.8671206999997594,0.1,0,FastAcc,7,18,Man,Right,
53,15,1,0.8659489000001486,['c'],1,left,['9'],5,0.7005056999996668,0.2,0,FastAcc,7,18,Man,Right,
54,15,1,1.1494055000002845,['c'],1,left,['3'],3,1.0670687000001635,0.1,0,FastAcc,7,18,Man,Right,
55,15,1,1.0660635000003822,['c'],1,left,['0'],6,0.3838837000002968,0.2,0,FastAcc,7,18,Man,Right,
56,15,1,2.266804200000479,['c'],1,left,['3'],3,1.0173844000000827,0.4,0,FastAcc,7,18,Man,Right,
57,15,1,0.665996499999892,['c'],1,left,['0'],6,0.6336676999999327,0.4,0,FastAcc,7,18,Man,Right,
58,15,1,2.2159702999997535,['n'],0,left,['0'],6,0.6339263999998366,0.1,0,FastAcc,7,18,Man,Right,
59,15,1,1.0495246000000407,['n'],1,right,['0'],6,0.3838066999996954,0.4,0,FastAcc,7,18,Man,Right,
