withinblocktrial,block,block_repetition,rt,resp,cor,cresp,conf_press,cj,rtconf,coherence,slow_trial,manipulation,sub,age,gender,handedness,
0,1,1,1.4998502999999346,['c'],1,left,none,-99,-99,0.5,0,none,4,18,Woman,Right,
1,1,1,1.2323856000000433,['c'],1,left,none,-99,-99,0.5,0,none,4,18,Woman,Right,
2,1,1,1.5990924000000177,['n'],0,left,none,-99,-99,0.5,0,none,4,18,Woman,Right,
3,1,1,1.216184400000202,['c'],1,left,none,-99,-99,0.5,0,none,4,18,Woman,Right,
4,1,1,0.8497890999999527,['c'],0,right,none,-99,-99,0.5,0,none,4,18,Woman,Right,
5,1,1,2.183808800000179,['n'],1,right,none,-99,-99,0.5,0,none,4,18,Woman,Right,
6,1,1,1.0500116000000617,['c'],0,right,none,-99,-99,0.5,0,none,4,18,Woman,Right,
7,1,1,1.1153649000000314,['c'],1,left,none,-99,-99,0.5,0,none,4,18,Woman,Right,
8,1,1,1.033257699999922,['c'],0,right,none,-99,-99,0.5,0,none,4,18,Woman,Right,
9,1,1,1.8160118000000693,['c'],1,left,none,-99,-99,0.5,0,none,4,18,Woman,Right,
10,1,1,1.4006944000000203,['n'],1,right,none,-99,-99,0.5,0,none,4,18,Woman,Right,
11,1,1,0.9164935000001151,['n'],1,right,none,-99,-99,0.5,0,none,4,18,Woman,Right,
12,1,1,0.9827497000001131,['c'],0,right,none,-99,-99,0.5,0,none,4,18,Woman,Right,
13,1,1,0.782923899999787,['c'],1,left,none,-99,-99,0.5,0,none,4,18,Woman,Right,
14,1,1,0.8828641999998581,['n'],1,right,none,-99,-99,0.5,0,none,4,18,Woman,Right,
15,1,1,0.8164579000001595,['n'],0,left,none,-99,-99,0.5,0,none,4,18,Woman,Right,
16,1,1,0.866199800000004,['c'],0,right,none,-99,-99,0.5,0,none,4,18,Woman,Right,
17,1,1,0.8164093000000321,['c'],1,left,none,-99,-99,0.5,0,none,4,18,Woman,Right,
18,1,1,1.1339368999999806,['n'],1,right,none,-99,-99,0.5,0,none,4,18,Woman,Right,
19,1,1,1.3331961999999749,['c'],1,left,none,-99,-99,0.5,0,none,4,18,Woman,Right,
20,1,1,1.0331865999999081,['n'],1,right,none,-99,-99,0.5,0,none,4,18,Woman,Right,
21,1,1,0.6487758000000667,['c'],1,left,none,-99,-99,0.5,0,none,4,18,Woman,Right,
22,1,1,0.7825845000002118,['c'],0,right,none,-99,-99,0.5,0,none,4,18,Woman,Right,
23,1,1,0.7163327999999183,['n'],0,left,none,-99,-99,0.5,0,none,4,18,Woman,Right,
0,1,2,1.3834015999998428,['c'],0,right,none,-99,-99,0.5,0,none,4,18,Woman,Right,
1,1,2,1.9338233999999375,['c'],1,left,none,-99,-99,0.5,0,none,4,18,Woman,Right,
2,1,2,1.049931499999957,['n'],1,right,none,-99,-99,0.5,0,none,4,18,Woman,Right,
3,1,2,1.2499018000000888,['c'],0,right,none,-99,-99,0.5,0,none,4,18,Woman,Right,
4,1,2,2.017426799999839,['c'],1,left,none,-99,-99,0.5,0,none,4,18,Woman,Right,
5,1,2,0.9339046999998573,['n'],1,right,none,-99,-99,0.5,0,none,4,18,Woman,Right,
6,1,2,0.9834174000000075,['n'],1,right,none,-99,-99,0.5,0,none,4,18,Woman,Right,
7,1,2,1.8663673999999446,['c'],1,left,none,-99,-99,0.5,0,none,4,18,Woman,Right,
8,1,2,1.8000144000000091,['c'],0,right,none,-99,-99,0.5,0,none,4,18,Woman,Right,
9,1,2,1.0498099000001275,['n'],1,right,none,-99,-99,0.5,0,none,4,18,Woman,Right,
10,1,2,1.0666459000001396,['c'],1,left,none,-99,-99,0.5,0,none,4,18,Woman,Right,
11,1,2,1.1002144999999928,['n'],0,left,none,-99,-99,0.5,0,none,4,18,Woman,Right,
12,1,2,1.199112699999887,['n'],0,left,none,-99,-99,0.5,0,none,4,18,Woman,Right,
13,1,2,1.016186700000162,['n'],0,left,none,-99,-99,0.5,0,none,4,18,Woman,Right,
14,1,2,0.6499407999999676,['c'],1,left,none,-99,-99,0.5,0,none,4,18,Woman,Right,
15,1,2,0.8823531999998977,['n'],1,right,none,-99,-99,0.5,0,none,4,18,Woman,Right,
16,1,2,1.5169171000000006,['n'],0,left,none,-99,-99,0.5,0,none,4,18,Woman,Right,
17,1,2,1.8835372000000916,['c'],0,right,none,-99,-99,0.5,0,none,4,18,Woman,Right,
18,1,2,0.8166125000000193,['c'],1,left,none,-99,-99,0.5,0,none,4,18,Woman,Right,
19,1,2,0.8333408999999392,['c'],0,right,none,-99,-99,0.5,0,none,4,18,Woman,Right,
20,1,2,1.3325169000002006,['c'],1,left,none,-99,-99,0.5,0,none,4,18,Woman,Right,
21,1,2,0.9502818000000843,['c'],0,right,none,-99,-99,0.5,0,none,4,18,Woman,Right,
22,1,2,3.583062200000086,['n'],0,left,none,-99,-99,0.5,0,none,4,18,Woman,Right,
23,1,2,0.5503088000000389,['c'],0,right,none,-99,-99,0.5,0,none,4,18,Woman,Right,
0,1,3,1.8665167999999994,['n'],0,left,none,-99,-99,0.5,0,none,4,18,Woman,Right,
1,1,3,1.8665915000001405,['c'],1,left,none,-99,-99,0.5,0,none,4,18,Woman,Right,
2,1,3,1.7998196999999436,['n'],0,left,none,-99,-99,0.5,0,none,4,18,Woman,Right,
3,1,3,1.932123600000068,['n'],1,right,none,-99,-99,0.5,0,none,4,18,Woman,Right,
4,1,3,2.8336285000000316,['n'],0,left,none,-99,-99,0.5,0,none,4,18,Woman,Right,
5,1,3,0.9000659999999243,['n'],1,right,none,-99,-99,0.5,0,none,4,18,Woman,Right,
6,1,3,0.9997377000001961,['n'],1,right,none,-99,-99,0.5,0,none,4,18,Woman,Right,
7,1,3,1.3831293999999161,['n'],0,left,none,-99,-99,0.5,0,none,4,18,Woman,Right,
8,1,3,1.549096999999847,['n'],0,left,none,-99,-99,0.5,0,none,4,18,Woman,Right,
9,1,3,0.9832576000001154,['n'],1,right,none,-99,-99,0.5,0,none,4,18,Woman,Right,
10,1,3,2.2502513000001727,['n'],1,right,none,-99,-99,0.5,0,none,4,18,Woman,Right,
11,1,3,0.8666582999999264,['c'],1,left,none,-99,-99,0.5,0,none,4,18,Woman,Right,
12,1,3,1.033066700000063,['c'],1,left,none,-99,-99,0.5,0,none,4,18,Woman,Right,
13,1,3,1.0162904000001163,['c'],1,left,none,-99,-99,0.5,0,none,4,18,Woman,Right,
14,1,3,0.8829015000001164,['n'],1,right,none,-99,-99,0.5,0,none,4,18,Woman,Right,
15,1,3,1.2824865999998565,['c'],0,right,none,-99,-99,0.5,0,none,4,18,Woman,Right,
16,1,3,0.766646000000037,['c'],1,left,none,-99,-99,0.5,0,none,4,18,Woman,Right,
17,1,3,0.8165986999999859,['n'],0,left,none,-99,-99,0.5,0,none,4,18,Woman,Right,
18,1,3,0.9830202000000554,['n'],1,right,none,-99,-99,0.5,0,none,4,18,Woman,Right,
19,1,3,1.1828581000002032,['n'],0,left,none,-99,-99,0.5,0,none,4,18,Woman,Right,
20,1,3,1.0169928000000255,['n'],1,right,none,-99,-99,0.5,0,none,4,18,Woman,Right,
21,1,3,0.8832988999999998,['c'],0,right,none,-99,-99,0.5,0,none,4,18,Woman,Right,
22,1,3,0.7827382000000398,['n'],1,right,none,-99,-99,0.5,0,none,4,18,Woman,Right,
23,1,3,0.8839034000000083,['n'],1,right,none,-99,-99,0.5,0,none,4,18,Woman,Right,
0,1,4,1.5337753000001157,['n'],0,left,none,-99,-99,0.5,0,none,4,18,Woman,Right,
1,1,4,0.9829839999999876,['c'],0,right,none,-99,-99,0.5,0,none,4,18,Woman,Right,
2,1,4,0.966693899999882,['n'],1,right,none,-99,-99,0.5,0,none,4,18,Woman,Right,
3,1,4,1.4336958999999752,['n'],1,right,none,-99,-99,0.5,0,none,4,18,Woman,Right,
4,1,4,0.9001882000000023,['n'],0,left,none,-99,-99,0.5,0,none,4,18,Woman,Right,
5,1,4,0.8333688000000166,['n'],1,right,none,-99,-99,0.5,0,none,4,18,Woman,Right,
6,1,4,0.7665617000000111,['n'],0,left,none,-99,-99,0.5,0,none,4,18,Woman,Right,
7,1,4,0.7489827000001696,['c'],1,left,none,-99,-99,0.5,0,none,4,18,Woman,Right,
8,1,4,1.3165119999998751,['c'],1,left,none,-99,-99,0.5,0,none,4,18,Woman,Right,
9,1,4,0.9487857000001441,['n'],1,right,none,-99,-99,0.5,0,none,4,18,Woman,Right,
10,1,4,1.6161647999999786,['n'],0,left,none,-99,-99,0.5,0,none,4,18,Woman,Right,
11,1,4,0.9172518999998829,['n'],0,left,none,-99,-99,0.5,0,none,4,18,Woman,Right,
12,1,4,0.9669595999998819,['n'],1,right,none,-99,-99,0.5,0,none,4,18,Woman,Right,
13,1,4,2.233219599999984,['c'],0,right,none,-99,-99,0.5,0,none,4,18,Woman,Right,
14,1,4,1.7164875999999367,['n'],0,left,none,-99,-99,0.5,0,none,4,18,Woman,Right,
15,1,4,1.4003585000000385,['n'],0,left,none,-99,-99,0.5,0,none,4,18,Woman,Right,
16,1,4,0.4491582999999082,['c'],0,right,none,-99,-99,0.5,0,none,4,18,Woman,Right,
17,1,4,0.8834870999999112,['c'],1,left,none,-99,-99,0.5,0,none,4,18,Woman,Right,
18,1,4,0.9659857999999986,['n'],1,right,none,-99,-99,0.5,0,none,4,18,Woman,Right,
19,1,4,0.76725179999994,['c'],0,right,none,-99,-99,0.5,0,none,4,18,Woman,Right,
20,1,4,3.3162750000001324,['n'],0,left,none,-99,-99,0.5,0,none,4,18,Woman,Right,
21,1,4,0.5997869000000264,['n'],1,right,none,-99,-99,0.5,0,none,4,18,Woman,Right,
22,1,4,0.8493816999998671,['c'],1,left,none,-99,-99,0.5,0,none,4,18,Woman,Right,
23,1,4,0.7163646999999855,['n'],1,right,none,-99,-99,0.5,0,none,4,18,Woman,Right,
0,1,5,2.250250099999903,['n'],0,left,none,-99,-99,0.5,0,none,4,18,Woman,Right,
1,1,5,0.6673573000000488,['n'],1,right,none,-99,-99,0.5,0,none,4,18,Woman,Right,
2,1,5,0.8995598999999856,['n'],1,right,none,-99,-99,0.5,0,none,4,18,Woman,Right,
3,1,5,0.9165927000001375,['c'],1,left,none,-99,-99,0.5,0,none,4,18,Woman,Right,
4,1,5,1.266052899999977,['n'],1,right,none,-99,-99,0.5,0,none,4,18,Woman,Right,
5,1,5,0.9498877999999422,['c'],1,left,none,-99,-99,0.5,0,none,4,18,Woman,Right,
6,1,5,1.399828800000023,['n'],1,right,none,-99,-99,0.5,0,none,4,18,Woman,Right,
7,1,5,0.9499382999999852,['c'],1,left,none,-99,-99,0.5,0,none,4,18,Woman,Right,
8,1,5,1.2996683000001212,['n'],1,right,none,-99,-99,0.5,0,none,4,18,Woman,Right,
9,1,5,1.68281560000014,['c'],1,left,none,-99,-99,0.5,0,none,4,18,Woman,Right,
10,1,5,1.2169558999999026,['n'],0,left,none,-99,-99,0.5,0,none,4,18,Woman,Right,
11,1,5,1.5666314999998576,['n'],1,right,none,-99,-99,0.5,0,none,4,18,Woman,Right,
12,1,5,1.6499856999998883,['c'],1,left,none,-99,-99,0.5,0,none,4,18,Woman,Right,
13,1,5,0.7832543000001806,['n'],0,left,none,-99,-99,0.5,0,none,4,18,Woman,Right,
14,1,5,1.3004803999999694,['n'],0,left,none,-99,-99,0.5,0,none,4,18,Woman,Right,
15,1,5,1.1667675999999574,['n'],0,left,none,-99,-99,0.5,0,none,4,18,Woman,Right,
16,1,5,0.7327298000000155,['n'],0,left,none,-99,-99,0.5,0,none,4,18,Woman,Right,
17,1,5,1.950012900000047,['n'],1,right,none,-99,-99,0.5,0,none,4,18,Woman,Right,
18,1,5,1.7505793999998787,['n'],0,left,none,-99,-99,0.5,0,none,4,18,Woman,Right,
19,1,5,1.083364599999868,['n'],1,right,none,-99,-99,0.5,0,none,4,18,Woman,Right,
20,1,5,1.067018500000131,['c'],0,right,none,-99,-99,0.5,0,none,4,18,Woman,Right,
21,1,5,1.2993569999998726,['c'],0,right,none,-99,-99,0.5,0,none,4,18,Woman,Right,
22,1,5,1.2823779000000286,['n'],1,right,none,-99,-99,0.5,0,none,4,18,Woman,Right,
23,1,5,1.5340029000001323,['n'],1,right,none,-99,-99,0.5,0,none,4,18,Woman,Right,
0,1,6,0.7820274999999128,['n'],1,right,none,-99,-99,0.5,0,none,4,18,Woman,Right,
1,1,6,1.5161662999998953,['c'],1,left,none,-99,-99,0.5,0,none,4,18,Woman,Right,
2,1,6,1.565925800000059,['c'],1,left,none,-99,-99,0.5,0,none,4,18,Woman,Right,
3,1,6,1.3176882999998725,['n'],0,left,none,-99,-99,0.5,0,none,4,18,Woman,Right,
4,1,6,1.216617400000132,['c'],1,left,none,-99,-99,0.5,0,none,4,18,Woman,Right,
5,1,6,2.2327929999999014,['c'],0,right,none,-99,-99,0.5,0,none,4,18,Woman,Right,
6,1,6,0.8497999000001073,['n'],1,right,none,-99,-99,0.5,0,none,4,18,Woman,Right,
7,1,6,1.099716400000034,['n'],0,left,none,-99,-99,0.5,0,none,4,18,Woman,Right,
8,1,6,1.115973300000178,['c'],1,left,none,-99,-99,0.5,0,none,4,18,Woman,Right,
9,1,6,1.149517299999843,['c'],0,right,none,-99,-99,0.5,0,none,4,18,Woman,Right,
10,1,6,1.1660483999999087,['n'],1,right,none,-99,-99,0.5,0,none,4,18,Woman,Right,
11,1,6,1.4331813999999667,['c'],1,left,none,-99,-99,0.5,0,none,4,18,Woman,Right,
12,1,6,0.8504593000000114,['c'],1,left,none,-99,-99,0.5,0,none,4,18,Woman,Right,
13,1,6,3.333725799999911,['c'],0,right,none,-99,-99,0.5,0,none,4,18,Woman,Right,
14,1,6,0.7335621999998239,['n'],1,right,none,-99,-99,0.5,0,none,4,18,Woman,Right,
15,1,6,0.9825353999999606,['c'],0,right,none,-99,-99,0.5,0,none,4,18,Woman,Right,
16,1,6,0.6658592999999655,['n'],0,left,none,-99,-99,0.5,0,none,4,18,Woman,Right,
17,1,6,0.915662999999995,['n'],0,left,none,-99,-99,0.5,0,none,4,18,Woman,Right,
18,1,6,2.466517400000157,['n'],0,left,none,-99,-99,0.5,0,none,4,18,Woman,Right,
19,1,6,0.7996061000001191,['n'],1,right,none,-99,-99,0.5,0,none,4,18,Woman,Right,
20,1,6,0.9672739000000092,['c'],1,left,none,-99,-99,0.5,0,none,4,18,Woman,Right,
21,1,6,1.0489662999998473,['c'],0,right,none,-99,-99,0.5,0,none,4,18,Woman,Right,
22,1,6,0.8002122000000327,['n'],1,right,none,-99,-99,0.5,0,none,4,18,Woman,Right,
23,1,6,1.4655103999998573,['n'],1,right,none,-99,-99,0.5,0,none,4,18,Woman,Right,
0,1,7,1.0835750000001099,['n'],0,left,none,-99,-99,0.5,0,none,4,18,Woman,Right,
1,1,7,1.0666080999999394,['c'],0,right,none,-99,-99,0.5,0,none,4,18,Woman,Right,
2,1,7,1.3155077999999776,['n'],1,right,none,-99,-99,0.5,0,none,4,18,Woman,Right,
3,1,7,0.6307043000001613,['n'],1,right,none,-99,-99,0.5,0,none,4,18,Woman,Right,
4,1,7,0.7972798000000694,['c'],1,left,none,-99,-99,0.5,0,none,4,18,Woman,Right,
5,1,7,0.7143373999999767,['n'],1,right,none,-99,-99,0.5,0,none,4,18,Woman,Right,
6,1,7,0.5966935000001286,['c'],1,left,none,-99,-99,0.5,0,none,4,18,Woman,Right,
7,1,7,0.7489878000001227,['n'],0,left,none,-99,-99,0.5,0,none,4,18,Woman,Right,
8,1,7,0.6471009000001686,['c'],1,left,none,-99,-99,0.5,0,none,4,18,Woman,Right,
9,1,7,1.231306899999936,['n'],1,right,none,-99,-99,0.5,0,none,4,18,Woman,Right,
10,1,7,1.0640489999998408,['c'],0,right,none,-99,-99,0.5,0,none,4,18,Woman,Right,
11,1,7,1.5143396000000848,['n'],0,left,none,-99,-99,0.5,0,none,4,18,Woman,Right,
12,1,7,0.9973313000000417,['n'],1,right,none,-99,-99,0.5,0,none,4,18,Woman,Right,
13,1,7,1.0992611000001489,['c'],0,right,none,-99,-99,0.5,0,none,4,18,Woman,Right,
14,1,7,1.1308652000000166,['c'],1,left,none,-99,-99,0.5,0,none,4,18,Woman,Right,
15,1,7,1.3000170000000253,['n'],0,left,none,-99,-99,0.5,0,none,4,18,Woman,Right,
16,1,7,1.1961284000001342,['n'],0,left,none,-99,-99,0.5,0,none,4,18,Woman,Right,
17,1,7,1.298250299999836,['n'],0,left,none,-99,-99,0.5,0,none,4,18,Woman,Right,
18,1,7,0.9306720999998106,['c'],0,right,none,-99,-99,0.5,0,none,4,18,Woman,Right,
19,1,7,1.197045399999979,['c'],1,left,none,-99,-99,0.5,0,none,4,18,Woman,Right,
20,1,7,1.3141732000001412,['c'],0,right,none,-99,-99,0.5,0,none,4,18,Woman,Right,
21,1,7,1.9647403999999824,['n'],1,right,none,-99,-99,0.5,0,none,4,18,Woman,Right,
22,1,7,0.6136292999999569,['n'],1,right,none,-99,-99,0.5,0,none,4,18,Woman,Right,
23,1,7,0.6479035000002114,['c'],1,left,none,-99,-99,0.5,0,none,4,18,Woman,Right,
0,1,8,1.2506356000001233,['n'],1,right,none,-99,-99,0.5,0,none,4,18,Woman,Right,
1,1,8,0.6625996999998733,['c'],1,left,none,-99,-99,0.5,0,none,4,18,Woman,Right,
2,1,8,0.7311615000000984,['c'],0,right,none,-99,-99,0.5,0,none,4,18,Woman,Right,
3,1,8,1.8477970999999798,['n'],1,right,none,-99,-99,0.5,0,none,4,18,Woman,Right,
4,1,8,1.0143467000000328,['c'],1,left,none,-99,-99,0.5,0,none,4,18,Woman,Right,
5,1,8,1.8809469999998782,['c'],0,right,none,-99,-99,0.5,0,none,4,18,Woman,Right,
6,1,8,0.9637938999999278,['c'],0,right,none,-99,-99,0.5,0,none,4,18,Woman,Right,
7,1,8,0.7637263999999959,['n'],0,left,none,-99,-99,0.5,0,none,4,18,Woman,Right,
8,1,8,1.7647968999999648,['n'],0,left,none,-99,-99,0.5,0,none,4,18,Woman,Right,
9,1,8,1.3306040999998459,['c'],1,left,none,-99,-99,0.5,0,none,4,18,Woman,Right,
10,1,8,0.8972461999999268,['c'],1,left,none,-99,-99,0.5,0,none,4,18,Woman,Right,
11,1,8,1.28089030000001,['c'],0,right,none,-99,-99,0.5,0,none,4,18,Woman,Right,
12,1,8,1.2306307999999717,['n'],0,left,none,-99,-99,0.5,0,none,4,18,Woman,Right,
13,1,8,0.6808139999998275,['c'],1,left,none,-99,-99,0.5,0,none,4,18,Woman,Right,
14,1,8,1.4976497000000109,['c'],1,left,none,-99,-99,0.5,0,none,4,18,Woman,Right,
15,1,8,0.6332059999999728,['c'],0,right,none,-99,-99,0.5,0,none,4,18,Woman,Right,
16,1,8,0.9808250999999473,['n'],0,left,none,-99,-99,0.5,0,none,4,18,Woman,Right,
17,1,8,4.100427900000113,['c'],0,right,none,-99,-99,0.5,0,none,4,18,Woman,Right,
18,1,8,0.7142367000001286,['n'],1,right,none,-99,-99,0.5,0,none,4,18,Woman,Right,
19,1,8,0.7475222000000485,['c'],0,right,none,-99,-99,0.5,0,none,4,18,Woman,Right,
20,1,8,0.6976987999998983,['n'],1,right,none,-99,-99,0.5,0,none,4,18,Woman,Right,
21,1,8,1.0808537999998862,['n'],1,right,none,-99,-99,0.5,0,none,4,18,Woman,Right,
22,1,8,0.8310301000001346,['c'],1,left,none,-99,-99,0.5,0,none,4,18,Woman,Right,
23,1,8,0.6956548000000566,['c'],1,left,none,-99,-99,0.5,0,none,4,18,Woman,Right,
0,1,9,0.8826248999998825,['c'],1,left,none,-99,-99,0.5,0,none,4,18,Woman,Right,
1,1,9,1.063886999999795,['n'],0,left,none,-99,-99,0.5,0,none,4,18,Woman,Right,
2,1,9,0.6645567999999002,['n'],1,right,none,-99,-99,0.5,0,none,4,18,Woman,Right,
3,1,9,1.4625406000000112,['n'],1,right,none,-99,-99,0.5,0,none,4,18,Woman,Right,
4,1,9,0.9141449999999622,['c'],1,left,none,-99,-99,0.5,0,none,4,18,Woman,Right,
5,1,9,0.6469222999999147,['c'],1,left,none,-99,-99,0.5,0,none,4,18,Woman,Right,
6,1,9,0.5804648000000725,['c'],0,right,none,-99,-99,0.5,0,none,4,18,Woman,Right,
7,1,9,0.6662105999998857,['c'],1,left,none,-99,-99,0.5,0,none,4,18,Woman,Right,
8,1,9,0.7461993000001712,['n'],1,right,none,-99,-99,0.5,0,none,4,18,Woman,Right,
9,1,9,0.7140774000001784,['n'],1,right,none,-99,-99,0.5,0,none,4,18,Woman,Right,
10,1,9,0.597369800000024,['c'],1,left,none,-99,-99,0.5,0,none,4,18,Woman,Right,
11,1,9,0.563124800000196,['c'],1,left,none,-99,-99,0.5,0,none,4,18,Woman,Right,
12,1,9,0.5310744999999315,['c'],1,left,none,-99,-99,0.5,0,none,4,18,Woman,Right,
13,1,9,0.7137296999999307,['c'],0,right,none,-99,-99,0.5,0,none,4,18,Woman,Right,
14,1,9,0.6309017000000949,['c'],1,left,none,-99,-99,0.5,0,none,4,18,Woman,Right,
15,1,9,0.530841399999872,['n'],1,right,none,-99,-99,0.5,0,none,4,18,Woman,Right,
16,1,9,0.630688199999895,['n'],1,right,none,-99,-99,0.5,0,none,4,18,Woman,Right,
17,1,9,0.5973886000001585,['c'],1,left,none,-99,-99,0.5,0,none,4,18,Woman,Right,
18,1,9,0.4641798000000108,['c'],1,left,none,-99,-99,0.5,0,none,4,18,Woman,Right,
19,1,9,0.547337299999981,['n'],1,right,none,-99,-99,0.5,0,none,4,18,Woman,Right,
20,1,9,0.5976419999999507,['c'],0,right,none,-99,-99,0.5,0,none,4,18,Woman,Right,
21,1,9,0.5805735999999797,['n'],1,right,none,-99,-99,0.5,0,none,4,18,Woman,Right,
22,1,9,0.531379300000026,['n'],1,right,none,-99,-99,0.5,0,none,4,18,Woman,Right,
23,1,9,0.4664729000000989,['c'],1,left,none,-99,-99,0.5,0,none,4,18,Woman,Right,
0,1,10,0.5662500000000819,['n'],1,right,none,-99,-99,0.5,0,none,4,18,Woman,Right,
1,1,10,0.6806194000000687,['n'],1,right,none,-99,-99,0.5,0,none,4,18,Woman,Right,
2,1,10,0.5471324000000095,['c'],1,left,none,-99,-99,0.5,0,none,4,18,Woman,Right,
3,1,10,0.49741149999999834,['c'],1,left,none,-99,-99,0.5,0,none,4,18,Woman,Right,
4,1,10,0.4974678999999469,['n'],1,right,none,-99,-99,0.5,0,none,4,18,Woman,Right,
5,1,10,0.4309780999999475,['c'],1,left,none,-99,-99,0.5,0,none,4,18,Woman,Right,
6,1,10,0.4649044000000231,['n'],1,right,none,-99,-99,0.5,0,none,4,18,Woman,Right,
7,1,10,0.5303926999999931,['n'],1,right,none,-99,-99,0.5,0,none,4,18,Woman,Right,
8,1,10,0.5327225999999428,['c'],1,left,none,-99,-99,0.5,0,none,4,18,Woman,Right,
9,1,10,0.6307463999999072,['c'],0,right,none,-99,-99,0.5,0,none,4,18,Woman,Right,
10,1,10,0.5469879999998284,['c'],1,left,none,-99,-99,0.5,0,none,4,18,Woman,Right,
11,1,10,0.5311326000000918,['c'],1,left,none,-99,-99,0.5,0,none,4,18,Woman,Right,
12,1,10,0.7470206000000417,['n'],0,left,none,-99,-99,0.5,0,none,4,18,Woman,Right,
13,1,10,0.4811291999999412,['c'],1,left,none,-99,-99,0.5,0,none,4,18,Woman,Right,
14,1,10,0.6142872999998872,['n'],1,right,none,-99,-99,0.5,0,none,4,18,Woman,Right,
15,1,10,0.7308410000000549,['n'],1,right,none,-99,-99,0.5,0,none,4,18,Woman,Right,
16,1,10,0.5308692999999494,['n'],1,right,none,-99,-99,0.5,0,none,4,18,Woman,Right,
17,1,10,0.44748550000008436,['c'],1,left,none,-99,-99,0.5,0,none,4,18,Woman,Right,
18,1,10,0.5146706999998969,['n'],1,right,none,-99,-99,0.5,0,none,4,18,Woman,Right,
19,1,10,0.46425219999991896,['c'],1,left,none,-99,-99,0.5,0,none,4,18,Woman,Right,
20,1,10,0.48069089999989956,['c'],1,left,none,-99,-99,0.5,0,none,4,18,Woman,Right,
21,1,10,0.48034450000000106,['c'],1,left,none,-99,-99,0.5,0,none,4,18,Woman,Right,
22,1,10,0.6138785999999072,['n'],1,right,none,-99,-99,0.5,0,none,4,18,Woman,Right,
23,1,10,0.5475512000000435,['n'],1,right,none,-99,-99,0.5,0,none,4,18,Woman,Right,
0,2,1,0.8327685000001566,['n'],1,right,none,-99,-99,0.4,0,none,4,18,Woman,Right,
1,2,1,0.8141273000001092,['c'],1,left,none,-99,-99,0.4,0,none,4,18,Woman,Right,
2,2,1,0.7642686000001504,['n'],1,right,none,-99,-99,0.2,0,none,4,18,Woman,Right,
3,2,1,0.5806620999999268,['n'],0,left,none,-99,-99,0.2,0,none,4,18,Woman,Right,
4,2,1,0.5305438999998842,['c'],1,left,none,-99,-99,0.1,0,none,4,18,Woman,Right,
5,2,1,0.8320459999999912,['n'],0,left,none,-99,-99,0.1,0,none,4,18,Woman,Right,
6,2,1,0.6163003000001481,['c'],1,left,none,-99,-99,0.2,0,none,4,18,Woman,Right,
7,2,1,0.5961699000001772,['n'],1,right,none,-99,-99,0.4,0,none,4,18,Woman,Right,
8,2,1,0.5304073000002063,['c'],1,left,none,-99,-99,0.4,0,none,4,18,Woman,Right,
9,2,1,0.5304377999998451,['n'],1,right,none,-99,-99,0.4,0,none,4,18,Woman,Right,
10,2,1,0.5310852000000068,['c'],1,left,none,-99,-99,0.1,0,none,4,18,Woman,Right,
11,2,1,0.9637946000000284,['c'],1,left,none,-99,-99,0.2,0,none,4,18,Woman,Right,
12,2,1,1.082413699999961,['n'],1,right,none,-99,-99,0.1,0,none,4,18,Woman,Right,
13,2,1,0.8123540999999932,['n'],1,right,none,-99,-99,0.2,0,none,4,18,Woman,Right,
14,2,1,0.6001117999999224,['n'],1,right,none,-99,-99,0.2,0,none,4,18,Woman,Right,
15,2,1,0.6971246000000519,['c'],1,left,none,-99,-99,0.4,0,none,4,18,Woman,Right,
16,2,1,0.5626565000000028,['n'],1,right,none,-99,-99,0.4,0,none,4,18,Woman,Right,
17,2,1,0.4650120000001152,['n'],1,right,none,-99,-99,0.1,0,none,4,18,Woman,Right,
18,2,1,0.5810369000000719,['n'],0,left,none,-99,-99,0.1,0,none,4,18,Woman,Right,
19,2,1,0.5152685000000474,['c'],1,left,none,-99,-99,0.4,0,none,4,18,Woman,Right,
20,2,1,0.5628019000000677,['c'],1,left,none,-99,-99,0.2,0,none,4,18,Woman,Right,
21,2,1,0.6997159000000011,['n'],1,right,none,-99,-99,0.1,0,none,4,18,Woman,Right,
22,2,1,0.6307463999999072,['c'],0,right,none,-99,-99,0.2,0,none,4,18,Woman,Right,
23,2,1,0.6814492000000882,['n'],1,right,none,-99,-99,0.1,0,none,4,18,Woman,Right,
0,3,1,1.3661377000000812,['c'],0,right,['8'],3,2.783832099999927,0.2,0,none,4,18,Woman,Right,
1,3,1,1.4661536000000979,['n'],1,right,['3'],4,2.183449800000062,0.4,0,none,4,18,Woman,Right,
2,3,1,1.2493808000001536,['c'],1,left,['8'],3,1.3839215999998942,0.1,0,none,4,18,Woman,Right,
3,3,1,0.9165173000001232,['n'],1,right,['3'],4,0.9505567999999585,0.1,0,none,4,18,Woman,Right,
4,3,1,1.4827828999998474,['c'],1,left,['3'],4,1.7005385999998452,0.4,0,none,4,18,Woman,Right,
5,3,1,1.132954099999779,['c'],0,right,['3'],4,0.9337866000000759,0.1,0,none,4,18,Woman,Right,
6,3,1,0.8329413999999815,['c'],0,right,['2'],5,1.4337838999999803,0.2,0,none,4,18,Woman,Right,
7,3,1,1.1826931000000513,['n'],0,left,['8'],3,0.6172480000000178,0.4,0,none,4,18,Woman,Right,
8,3,1,1.449036800000158,['n'],0,left,['8'],3,1.2175720999998703,0.4,0,none,4,18,Woman,Right,
9,3,1,2.116952000000083,['n'],1,right,['9'],2,0.917200800000046,0.2,0,none,4,18,Woman,Right,
10,3,1,1.1658672000000934,['c'],1,left,['3'],4,0.9339506999999685,0.4,0,none,4,18,Woman,Right,
11,3,1,1.3651126999998269,['n'],1,right,['2'],5,3.1010813999998845,0.1,0,none,4,18,Woman,Right,
12,3,1,0.7504884999998467,['c'],0,right,['2'],5,0.9005325999999059,0.4,0,none,4,18,Woman,Right,
13,3,1,0.9836387999998806,['c'],1,left,['2'],5,0.6505223000001479,0.2,0,none,4,18,Woman,Right,
14,3,1,1.5665576999999757,['c'],0,right,['8'],3,1.5169155999999475,0.1,0,none,4,18,Woman,Right,
15,3,1,1.2007846999999856,['c'],1,left,['9'],2,1.2004133000000365,0.4,0,none,4,18,Woman,Right,
16,3,1,1.2328400000001238,['n'],0,left,['2'],5,1.3672583000000031,0.4,0,none,4,18,Woman,Right,
17,3,1,0.9003923000000214,['c'],1,left,['9'],2,0.9169574000000011,0.1,0,none,4,18,Woman,Right,
18,3,1,1.416166100000055,['n'],0,left,['8'],3,1.9505565999997998,0.2,0,none,4,18,Woman,Right,
19,3,1,0.9831030000000283,['c'],1,left,['9'],2,1.6834950999998455,0.2,0,none,4,18,Woman,Right,
20,3,1,0.6827993000001698,['c'],1,left,['2'],5,0.9006954000001315,0.1,0,none,4,18,Woman,Right,
21,3,1,0.8996839000001273,['c'],0,right,['2'],5,0.7170949999999721,0.2,0,none,4,18,Woman,Right,
22,3,1,0.7497515999998541,['n'],1,right,['2'],5,0.6672135000003436,0.2,0,none,4,18,Woman,Right,
23,3,1,0.783096199999818,['c'],0,right,['2'],5,0.8002338999999665,0.1,0,none,4,18,Woman,Right,
0,4,1,0.9331876999999622,['c'],0,right,['2'],5,1.0338668999997935,0.1,0,FastFast,4,18,Woman,Right,
1,4,1,2.1002988000000187,['c'],1,left,['2'],5,1.3005103999998937,0.1,0,FastFast,4,18,Woman,Right,
2,4,1,0.7995220000002519,['c'],1,left,['2'],5,0.700496700000258,0.1,0,FastFast,4,18,Woman,Right,
3,4,1,0.5654813000001013,['c'],1,left,['2'],5,0.6506337999999232,0.1,0,FastFast,4,18,Woman,Right,
4,4,1,0.7833228999998028,['c'],1,left,['2'],5,0.8173412999999528,0.2,0,FastFast,4,18,Woman,Right,
5,4,1,0.6495670000003884,['c'],1,left,['9'],2,1.400549399999818,0.1,0,FastFast,4,18,Woman,Right,
6,4,1,0.649990699999762,['c'],1,left,['2'],5,0.9337692999997671,0.1,0,FastFast,4,18,Woman,Right,
7,4,1,0.5993594999999914,['c'],1,left,['2'],5,1.2004810999997062,0.2,0,FastFast,4,18,Woman,Right,
8,4,1,1.4499605000000884,['n'],1,right,['9'],2,0.8172351999996863,0.4,0,FastFast,4,18,Woman,Right,
9,4,1,0.5001283000001422,['c'],0,right,['9'],2,1.0673123000001397,0.1,0,FastFast,4,18,Woman,Right,
10,4,1,0.4496103999999832,['c'],0,right,['9'],2,0.6838576999998622,0.1,0,FastFast,4,18,Woman,Right,
11,4,1,0.4501414000001205,['c'],1,left,['9'],2,0.7502008999999816,0.2,0,FastFast,4,18,Woman,Right,
12,4,1,0.6667087999999239,['c'],0,right,['9'],2,0.7006196000002092,0.4,0,FastFast,4,18,Woman,Right,
13,4,1,0.49957099999983257,['c'],1,left,['2'],5,0.5837707000000592,0.2,0,FastFast,4,18,Woman,Right,
14,4,1,0.6334050999998908,['c'],0,right,['2'],5,0.6005181000000448,0.1,0,FastFast,4,18,Woman,Right,
15,4,1,0.5496460999997907,['c'],0,right,['9'],2,0.9005299000000377,0.2,0,FastFast,4,18,Woman,Right,
16,4,1,0.6497002999999495,['c'],0,right,['9'],2,0.8339646000003995,0.4,0,FastFast,4,18,Woman,Right,
17,4,1,0.549551000000065,['c'],0,right,['9'],2,0.9837266999998064,0.1,0,FastFast,4,18,Woman,Right,
18,4,1,0.8336134999999558,['n'],0,left,['9'],2,0.7506757999999536,0.2,0,FastFast,4,18,Woman,Right,
19,4,1,0.7328137999998035,['c'],1,left,['2'],5,0.6171161999996002,0.2,0,FastFast,4,18,Woman,Right,
20,4,1,0.6327961000001778,['c'],1,left,['2'],5,0.5171344000000317,0.1,0,FastFast,4,18,Woman,Right,
21,4,1,0.7826356000000487,['n'],1,right,['2'],5,0.8671362000000045,0.4,0,FastFast,4,18,Woman,Right,
22,4,1,0.750523499999872,['n'],1,right,['9'],2,0.617235200000323,0.4,0,FastFast,4,18,Woman,Right,
23,4,1,0.5008045000004131,['n'],1,right,['9'],2,0.7338068000003659,0.4,0,FastFast,4,18,Woman,Right,
24,4,1,0.6167609000003722,['n'],1,right,['9'],2,0.5675183000003017,0.2,0,FastFast,4,18,Woman,Right,
25,4,1,0.6326882999996997,['c'],1,left,['2'],5,0.5506981999997151,0.4,0,FastFast,4,18,Woman,Right,
26,4,1,0.8170113000001038,['n'],0,left,['9'],2,0.5170872000003328,0.2,0,FastFast,4,18,Woman,Right,
27,4,1,0.8994477999999617,['c'],0,right,['2'],5,0.6339569000001575,0.2,0,FastFast,4,18,Woman,Right,
28,4,1,0.4161991000000853,['c'],1,left,['9'],2,1.1170129000001907,0.2,0,FastFast,4,18,Woman,Right,
29,4,1,0.516413399999692,['n'],1,right,['9'],2,0.7005607999999484,0.1,0,FastFast,4,18,Woman,Right,
30,4,1,0.6161628999998356,['n'],1,right,['2'],5,1.0005205000002206,0.4,0,FastFast,4,18,Woman,Right,
31,4,1,0.5663928999997552,['c'],1,left,['2'],5,0.6004444000000149,0.4,0,FastFast,4,18,Woman,Right,
32,4,1,0.7330356000002212,['c'],1,left,['9'],2,0.7339092000001983,0.2,0,FastFast,4,18,Woman,Right,
33,4,1,0.6662310000001526,['n'],1,right,['2'],5,0.6505019999999604,0.4,0,FastFast,4,18,Woman,Right,
34,4,1,0.6327408000001924,['n'],1,right,['9'],2,0.7005097999999634,0.2,0,FastFast,4,18,Woman,Right,
35,4,1,0.7997130999997353,['c'],0,right,['9'],2,0.7838026999997965,0.1,0,FastFast,4,18,Woman,Right,
36,4,1,0.9500192000000425,['n'],1,right,['9'],2,0.4172664999996414,0.1,0,FastFast,4,18,Woman,Right,
37,4,1,0.5993818000001738,['c'],1,left,['9'],2,0.5338060000003679,0.2,0,FastFast,4,18,Woman,Right,
38,4,1,0.6996295000003556,['c'],1,left,['2'],5,0.8671787000002951,0.1,0,FastFast,4,18,Woman,Right,
39,4,1,0.6659881999999016,['c'],1,left,['2'],5,0.6341280000001461,0.1,0,FastFast,4,18,Woman,Right,
40,4,1,0.9494553999998061,['c'],1,left,['9'],2,1.0837527999997292,0.2,0,FastFast,4,18,Woman,Right,
41,4,1,0.749584700000014,['n'],0,left,['9'],2,0.5337233999998716,0.1,0,FastFast,4,18,Woman,Right,
42,4,1,0.6829594000000725,['n'],0,left,['9'],2,0.7004509000003054,0.2,0,FastFast,4,18,Woman,Right,
43,4,1,0.6667167000000518,['c'],1,left,['9'],2,0.6836198999999397,0.4,0,FastFast,4,18,Woman,Right,
44,4,1,0.6503388000000996,['c'],1,left,['9'],2,0.5837035999998079,0.4,0,FastFast,4,18,Woman,Right,
45,4,1,0.716250399999808,['n'],1,right,['9'],2,0.600622100000237,0.4,0,FastFast,4,18,Woman,Right,
46,4,1,0.7161667999998826,['c'],0,right,['2'],5,0.9838664999997491,0.1,0,FastFast,4,18,Woman,Right,
47,4,1,0.6998721999998452,['n'],1,right,['9'],2,0.5337523999996847,0.4,0,FastFast,4,18,Woman,Right,
48,4,1,0.7327045000001817,['c'],0,right,['9'],2,0.6672002000000248,0.2,0,FastFast,4,18,Woman,Right,
49,4,1,0.5829688999997416,['c'],1,left,['2'],5,0.5838059000002431,0.4,0,FastFast,4,18,Woman,Right,
50,4,1,0.7320272000001751,['c'],0,right,['9'],2,0.5504611999999725,0.1,0,FastFast,4,18,Woman,Right,
51,4,1,0.5995932999999241,['c'],0,right,['2'],5,0.7004635000002963,0.4,0,FastFast,4,18,Woman,Right,
52,4,1,1.1663226999999097,['c'],1,left,['2'],5,0.6839403000003585,0.4,0,FastFast,4,18,Woman,Right,
53,4,1,1.0667823999997381,['n'],1,right,['9'],2,0.467105900000206,0.1,0,FastFast,4,18,Woman,Right,
54,4,1,0.816659300000083,['c'],1,left,['2'],5,0.550515599999926,0.4,0,FastFast,4,18,Woman,Right,
55,4,1,0.6996031000003313,['n'],0,left,['9'],2,0.4672421000000213,0.2,0,FastFast,4,18,Woman,Right,
56,4,1,0.5495713000000251,['n'],1,right,['2'],5,0.4838699000001725,0.4,0,FastFast,4,18,Woman,Right,
57,4,1,0.6996687000000748,['c'],0,right,['2'],5,0.43373109999993176,0.2,0,FastFast,4,18,Woman,Right,
58,4,1,0.7161661000000095,['c'],1,left,['9'],2,1.2171751999999287,0.4,0,FastFast,4,18,Woman,Right,
59,4,1,0.7662728000000243,['n'],1,right,['2'],5,0.6505763000000115,0.2,0,FastFast,4,18,Woman,Right,
0,5,1,3.0666410999997424,['n'],0,left,['9'],2,1.3504370999999082,0.2,0,AccFast,4,18,Woman,Right,
1,5,1,0.816150000000107,['c'],1,left,['9'],2,0.917091999999684,0.4,0,AccFast,4,18,Woman,Right,
2,5,1,1.7820025999999416,['n'],1,right,['9'],2,1.7005122999999003,0.4,0,AccFast,4,18,Woman,Right,
3,5,1,3.2496953000004396,['c'],0,right,['8'],3,1.7673703000000387,0.1,0,AccFast,4,18,Woman,Right,
4,5,1,1.9497834999997394,['c'],0,right,['8'],3,0.9169943000001695,0.2,0,AccFast,4,18,Woman,Right,
5,5,1,1.8496664000003875,['n'],1,right,['3'],4,1.3005744000001869,0.1,0,AccFast,4,18,Woman,Right,
6,5,1,1.399454599999899,['n'],0,left,['9'],2,1.2505465999997796,0.1,0,AccFast,4,18,Woman,Right,
7,5,1,5.015864800000145,x,-99,left,none,-99,-99,0.2,1,AccFast,4,18,Woman,Right,
8,5,1,0.5499597000002723,['n'],0,left,['9'],2,1.117435199999818,0.1,0,AccFast,4,18,Woman,Right,
9,5,1,1.0161737999997058,['c'],0,right,['9'],2,1.283794299999954,0.4,0,AccFast,4,18,Woman,Right,
10,5,1,1.0994727000002058,['c'],1,left,['9'],2,0.4838297999999668,0.1,0,AccFast,4,18,Woman,Right,
11,5,1,1.5661701999997604,['c'],1,left,['3'],4,1.3673367000001235,0.2,0,AccFast,4,18,Woman,Right,
12,5,1,0.9494117999997798,['c'],1,left,['3'],4,0.8005114000002322,0.2,0,AccFast,4,18,Woman,Right,
13,5,1,1.56648929999983,['n'],0,left,['3'],4,0.867127900000014,0.1,0,AccFast,4,18,Woman,Right,
14,5,1,0.9324558999996952,['c'],1,left,['3'],4,0.5504639999999199,0.2,0,AccFast,4,18,Woman,Right,
15,5,1,1.3662670000003345,['c'],0,right,['2'],5,0.40064950000032695,0.2,0,AccFast,4,18,Woman,Right,
16,5,1,0.816467300000113,['c'],0,right,['2'],5,0.517204700000093,0.2,0,AccFast,4,18,Woman,Right,
17,5,1,0.9494892000002437,['c'],1,left,['2'],5,0.41712749999987864,0.4,0,AccFast,4,18,Woman,Right,
18,5,1,1.6496446999999534,['n'],1,right,['9'],2,0.4010569000001851,0.1,0,AccFast,4,18,Woman,Right,
19,5,1,0.8829570000002605,['c'],1,left,['9'],2,0.48383449999982986,0.1,0,AccFast,4,18,Woman,Right,
20,5,1,1.3173629999996592,['c'],0,right,['9'],2,0.550350299999991,0.1,0,AccFast,4,18,Woman,Right,
21,5,1,1.8494430000000648,['n'],1,right,['2'],5,0.43387440000014976,0.2,0,AccFast,4,18,Woman,Right,
22,5,1,1.1161434000000554,['c'],0,right,['3'],4,0.6004619999998795,0.2,0,AccFast,4,18,Woman,Right,
23,5,1,1.849605899999915,['c'],0,right,['3'],4,0.9005050000000665,0.1,0,AccFast,4,18,Woman,Right,
24,5,1,0.899819799999932,['c'],0,right,['3'],4,0.8502612000002046,0.2,0,AccFast,4,18,Woman,Right,
25,5,1,1.3497060999998212,['n'],0,left,['3'],4,0.6338271999998142,0.4,0,AccFast,4,18,Woman,Right,
26,5,1,1.0998606000002837,['n'],1,right,['9'],2,0.7339524999997593,0.1,0,AccFast,4,18,Woman,Right,
27,5,1,1.4496046000003844,['c'],1,left,['3'],4,0.8338017000000946,0.2,0,AccFast,4,18,Woman,Right,
28,5,1,1.132900999999947,['n'],1,right,['9'],2,0.4505196000000069,0.4,0,AccFast,4,18,Woman,Right,
29,5,1,1.2160879000002751,['c'],1,left,['9'],2,0.36710839999977907,0.2,0,AccFast,4,18,Woman,Right,
30,5,1,0.8999841999998353,['n'],1,right,['2'],5,0.4004224999998769,0.1,0,AccFast,4,18,Woman,Right,
31,5,1,2.0492459000001872,['n'],1,right,['9'],2,0.3172953999996935,0.2,0,AccFast,4,18,Woman,Right,
32,5,1,1.1826131999996505,['c'],1,left,['9'],2,0.433895499999835,0.4,0,AccFast,4,18,Woman,Right,
33,5,1,0.882571199999802,['c'],1,left,['9'],2,0.5340846999997666,0.4,0,AccFast,4,18,Woman,Right,
34,5,1,1.266122500000165,['c'],0,right,['9'],2,0.31728500000008353,0.1,0,AccFast,4,18,Woman,Right,
35,5,1,1.0332329000002574,['n'],1,right,['2'],5,0.4505333000001883,0.4,0,AccFast,4,18,Woman,Right,
36,5,1,1.0497836999998071,['n'],0,left,['2'],5,0.3337178000001586,0.1,0,AccFast,4,18,Woman,Right,
37,5,1,1.100244699999621,['n'],1,right,['2'],5,0.6504989000000023,0.2,0,AccFast,4,18,Woman,Right,
38,5,1,1.482907300000079,['c'],0,right,['9'],2,0.40045480000026146,0.4,0,AccFast,4,18,Woman,Right,
39,5,1,1.5497018999999455,['n'],0,left,['9'],2,0.3839231000001746,0.1,0,AccFast,4,18,Woman,Right,
40,5,1,0.8994682999996257,['c'],1,left,['2'],5,0.5337061999998696,0.4,0,AccFast,4,18,Woman,Right,
41,5,1,1.0487616000000344,['c'],1,left,['3'],4,0.5669901999999638,0.1,0,AccFast,4,18,Woman,Right,
42,5,1,1.3658617999999478,['n'],1,right,['3'],4,0.43388599999980215,0.4,0,AccFast,4,18,Woman,Right,
43,5,1,1.382599300000038,['n'],1,right,['8'],3,0.46706689999973605,0.2,0,AccFast,4,18,Woman,Right,
44,5,1,1.3993875999999545,['c'],0,right,['8'],3,0.4004816000001483,0.4,0,AccFast,4,18,Woman,Right,
45,5,1,1.0660573999998633,['n'],1,right,['3'],4,0.5339041000001998,0.4,0,AccFast,4,18,Woman,Right,
46,5,1,1.7158200999997462,['n'],1,right,['8'],3,0.43374450000010256,0.1,0,AccFast,4,18,Woman,Right,
47,5,1,1.1160461999998006,['c'],1,left,['0'],1,0.6839116999999533,0.1,0,AccFast,4,18,Woman,Right,
48,5,1,1.9326768000000811,['c'],1,left,['9'],2,0.5337315000001581,0.4,0,AccFast,4,18,Woman,Right,
49,5,1,1.1496204000000034,['c'],1,left,['8'],3,0.4173118000003342,0.2,0,AccFast,4,18,Woman,Right,
50,5,1,0.8334546999999475,['c'],1,left,['8'],3,0.5836335999997573,0.4,0,AccFast,4,18,Woman,Right,
51,5,1,1.0657775999998194,['c'],1,left,['3'],4,0.617220599999655,0.4,0,AccFast,4,18,Woman,Right,
52,5,1,0.9163096000002042,['n'],0,left,['0'],1,0.8838240000000042,0.1,0,AccFast,4,18,Woman,Right,
53,5,1,0.9323082999999315,['c'],1,left,['0'],1,0.5339340999998967,0.2,0,AccFast,4,18,Woman,Right,
54,5,1,1.3491650000000845,['n'],0,left,['8'],3,0.4339227000000392,0.2,0,AccFast,4,18,Woman,Right,
55,5,1,0.6503274000001511,['n'],1,right,['3'],4,0.5171233000000939,0.4,0,AccFast,4,18,Woman,Right,
56,5,1,1.1338399999999638,['n'],1,right,['3'],4,0.43361670000012964,0.2,0,AccFast,4,18,Woman,Right,
57,5,1,1.4827600000003258,['c'],0,right,['0'],1,0.6336605000001327,0.1,0,AccFast,4,18,Woman,Right,
58,5,1,1.2167421999997714,['c'],1,left,['3'],4,1.0171846999996887,0.4,0,AccFast,4,18,Woman,Right,
59,5,1,0.7995340000002216,['n'],1,right,['2'],5,0.5838020999999571,0.4,0,AccFast,4,18,Woman,Right,
0,6,1,1.3994268999999804,['n'],0,left,['9'],2,1.6838683999999375,0.1,0,AccAcc,4,18,Woman,Right,
1,6,1,2.465954700000111,['n'],0,left,['9'],2,1.2840009999999893,0.1,0,AccAcc,4,18,Woman,Right,
2,6,1,1.61624860000029,['n'],0,left,['9'],2,0.7503700000002027,0.2,0,AccAcc,4,18,Woman,Right,
3,6,1,0.6668983000004118,['c'],0,right,['2'],5,0.6670675999998821,0.4,0,AccAcc,4,18,Woman,Right,
4,6,1,0.982210600000144,['n'],1,right,['2'],5,1.1672512999998617,0.4,0,AccAcc,4,18,Woman,Right,
5,6,1,1.5990851000001385,['n'],1,right,['2'],5,1.0171870999997736,0.4,0,AccAcc,4,18,Woman,Right,
6,6,1,1.4662407000000712,['c'],0,right,['8'],3,1.2338149000001977,0.1,0,AccAcc,4,18,Woman,Right,
7,6,1,1.0168713999996726,['c'],1,left,['2'],5,1.333845300000121,0.4,0,AccAcc,4,18,Woman,Right,
8,6,1,1.082605600000079,['n'],1,right,['8'],3,1.1338529999998173,0.2,0,AccAcc,4,18,Woman,Right,
9,6,1,1.0994881000001442,['c'],1,left,['8'],3,1.101359499999944,0.1,0,AccAcc,4,18,Woman,Right,
10,6,1,0.8997764999999163,['n'],1,right,['9'],2,1.3506296999998995,0.2,0,AccAcc,4,18,Woman,Right,
11,6,1,1.0503287000001365,['n'],0,left,['9'],2,0.950484299999971,0.2,0,AccAcc,4,18,Woman,Right,
12,6,1,1.09962140000016,['n'],0,left,['8'],3,1.3839755000003606,0.2,0,AccAcc,4,18,Woman,Right,
13,6,1,1.299590999999964,['c'],1,left,['3'],4,1.650554600000305,0.1,0,AccAcc,4,18,Woman,Right,
14,6,1,2.13297700000021,['n'],0,left,['8'],3,1.7505105000000185,0.2,0,AccAcc,4,18,Woman,Right,
15,6,1,1.3820389000002251,['n'],1,right,['2'],5,1.5837936000002628,0.4,0,AccAcc,4,18,Woman,Right,
16,6,1,1.3325989999998455,['n'],1,right,['2'],5,1.8672824999998738,0.4,0,AccAcc,4,18,Woman,Right,
17,6,1,1.2997003000000404,['c'],1,left,['3'],4,1.6672257000000172,0.4,0,AccAcc,4,18,Woman,Right,
18,6,1,1.8823523999999452,['n'],0,left,['3'],4,1.3173999999999069,0.1,0,AccAcc,4,18,Woman,Right,
19,6,1,0.850251500000013,['n'],1,right,['3'],4,1.3006471999997302,0.2,0,AccAcc,4,18,Woman,Right,
20,6,1,1.0662606999999298,['n'],1,right,['3'],4,2.467254099999991,0.1,0,AccAcc,4,18,Woman,Right,
21,6,1,1.199169399999846,['n'],0,left,['8'],3,1.5505327000000761,0.1,0,AccAcc,4,18,Woman,Right,
22,6,1,0.9162525000001551,['n'],1,right,['3'],4,1.217207999999573,0.2,0,AccAcc,4,18,Woman,Right,
23,6,1,0.915727600000082,['n'],0,left,['2'],5,1.2670975000000908,0.2,0,AccAcc,4,18,Woman,Right,
24,6,1,0.7661305999999968,['c'],1,left,['2'],5,1.4501617000000806,0.4,0,AccAcc,4,18,Woman,Right,
25,6,1,1.5501500000000306,['n'],1,right,['3'],4,1.4669424000003346,0.2,0,AccAcc,4,18,Woman,Right,
26,6,1,1.3333344000002398,['n'],0,left,['8'],3,1.3006323000004159,0.4,0,AccAcc,4,18,Woman,Right,
27,6,1,0.9821286999999757,['c'],0,right,['2'],5,1.4838685999998233,0.1,0,AccAcc,4,18,Woman,Right,
28,6,1,0.9829631000002337,['n'],1,right,['2'],5,1.5338542999998026,0.1,0,AccAcc,4,18,Woman,Right,
29,6,1,1.349511099999745,['n'],1,right,['2'],5,1.450546100000338,0.4,0,AccAcc,4,18,Woman,Right,
30,6,1,1.1997112999997626,['n'],1,right,['3'],4,1.5006947000001674,0.1,0,AccAcc,4,18,Woman,Right,
31,6,1,1.1661489000002803,['c'],1,left,['3'],4,1.4004703999999037,0.1,0,AccAcc,4,18,Woman,Right,
32,6,1,1.3156670000003032,['n'],1,right,['2'],5,1.5337682999997924,0.4,0,AccAcc,4,18,Woman,Right,
33,6,1,0.8820983000000524,['n'],1,right,['2'],5,1.4335995000001276,0.1,0,AccAcc,4,18,Woman,Right,
34,6,1,1.1997777000001406,['n'],1,right,['3'],4,1.283697200000006,0.2,0,AccAcc,4,18,Woman,Right,
35,6,1,1.2660516000000825,['n'],1,right,['8'],3,1.1839669999999387,0.2,0,AccAcc,4,18,Woman,Right,
36,6,1,1.1837869999999384,['n'],1,right,['8'],3,1.4672621999998228,0.4,0,AccAcc,4,18,Woman,Right,
37,6,1,1.23217539999996,['c'],1,left,['8'],3,1.400615099999868,0.2,0,AccAcc,4,18,Woman,Right,
38,6,1,0.9662482999997337,['c'],1,left,['2'],5,1.283851599999707,0.4,0,AccAcc,4,18,Woman,Right,
39,6,1,1.1668322000000444,['c'],1,left,['3'],4,1.3338383999998769,0.1,0,AccAcc,4,18,Woman,Right,
40,6,1,0.9674958999999035,['n'],0,left,['0'],1,1.5672543000000587,0.1,0,AccAcc,4,18,Woman,Right,
41,6,1,2.4497458999999253,['n'],1,right,['3'],4,3.350354200000311,0.2,0,AccAcc,4,18,Woman,Right,
42,6,1,1.4161041000002115,['n'],1,right,['9'],2,0.9173260999996273,0.1,0,AccAcc,4,18,Woman,Right,
43,6,1,1.1652360999996745,['n'],1,right,['9'],2,1.133821800000078,0.4,0,AccAcc,4,18,Woman,Right,
44,6,1,1.4651143999999476,['n'],0,left,['8'],3,1.083725399999821,0.4,0,AccAcc,4,18,Woman,Right,
45,6,1,0.9665562000000136,['n'],1,right,['8'],3,1.1507076000002598,0.2,0,AccAcc,4,18,Woman,Right,
46,6,1,0.9664490999998634,['n'],1,right,['8'],3,1.4004539999996268,0.1,0,AccAcc,4,18,Woman,Right,
47,6,1,1.0496561999998448,['n'],1,right,['8'],3,1.0672207000002345,0.2,0,AccAcc,4,18,Woman,Right,
48,6,1,0.9482471000001169,['c'],1,left,['8'],3,1.1504295999998249,0.4,0,AccAcc,4,18,Woman,Right,
49,6,1,0.7652803000000858,['c'],1,left,['9'],2,1.100375399999848,0.2,0,AccAcc,4,18,Woman,Right,
50,6,1,0.9828370999998697,['c'],1,left,['3'],4,1.067115300000296,0.4,0,AccAcc,4,18,Woman,Right,
51,6,1,0.8828667000002497,['n'],1,right,['2'],5,1.0004688999997597,0.2,0,AccAcc,4,18,Woman,Right,
52,6,1,1.0984835999997813,['c'],1,left,['9'],2,1.2004253999998582,0.2,0,AccAcc,4,18,Woman,Right,
53,6,1,0.7502196999998887,['n'],0,left,['3'],4,1.2339877999997952,0.4,0,AccAcc,4,18,Woman,Right,
54,6,1,1.1327080999999453,['n'],0,left,['3'],4,1.3504923000000417,0.4,0,AccAcc,4,18,Woman,Right,
55,6,1,0.8497173999999177,['n'],1,right,['3'],4,1.200458499999968,0.1,0,AccAcc,4,18,Woman,Right,
56,6,1,0.7157152999998289,['c'],1,left,['3'],4,1.0171995000000607,0.2,0,AccAcc,4,18,Woman,Right,
57,6,1,0.9649515999999494,['n'],0,left,['9'],2,1.0671664999999848,0.4,0,AccAcc,4,18,Woman,Right,
58,6,1,1.0831591999999546,['n'],1,right,['9'],2,1.0838170999995782,0.1,0,AccAcc,4,18,Woman,Right,
59,6,1,0.8481098000002021,['n'],0,left,['9'],2,0.6673673000000235,0.1,0,AccAcc,4,18,Woman,Right,
0,7,1,0.5493968000000677,['c'],1,left,['3'],4,1.267323000000033,0.4,0,FastAcc,4,18,Woman,Right,
1,7,1,0.900118399999883,['c'],1,left,['8'],3,1.2336789000000863,0.2,0,FastAcc,4,18,Woman,Right,
2,7,1,0.7331427000003714,['c'],1,left,['8'],3,1.2505599999999504,0.1,0,FastAcc,4,18,Woman,Right,
3,7,1,0.9161882000003061,['c'],0,right,['3'],4,1.1839852000002793,0.1,0,FastAcc,4,18,Woman,Right,
4,7,1,0.49926760000016657,['c'],1,left,['8'],3,1.450383200000033,0.2,0,FastAcc,4,18,Woman,Right,
5,7,1,0.4331127000000379,['c'],0,right,['3'],4,1.2171653999998853,0.4,0,FastAcc,4,18,Woman,Right,
6,7,1,0.4830426999997144,['n'],1,right,['3'],4,1.6840875000002598,0.2,0,FastAcc,4,18,Woman,Right,
7,7,1,0.8655741000002308,['c'],1,left,['8'],3,1.117174900000009,0.2,0,FastAcc,4,18,Woman,Right,
8,7,1,0.766197199999624,['c'],1,left,['8'],3,1.5673220999997284,0.4,0,FastAcc,4,18,Woman,Right,
9,7,1,0.5323884999997972,['c'],0,right,['3'],4,1.033961300000101,0.2,0,FastAcc,4,18,Woman,Right,
10,7,1,0.482836899999711,['c'],0,right,['9'],2,1.4835781000001589,0.4,0,FastAcc,4,18,Woman,Right,
11,7,1,0.6162395999999717,['n'],1,right,['8'],3,1.2005073000000266,0.2,0,FastAcc,4,18,Woman,Right,
12,7,1,0.8491097000000991,['n'],1,right,['2'],5,1.583610299999691,0.4,0,FastAcc,4,18,Woman,Right,
13,7,1,0.5170794000000569,['c'],1,left,['3'],4,1.3673886999999922,0.2,0,FastAcc,4,18,Woman,Right,
14,7,1,0.5670263000001796,['n'],1,right,['2'],5,1.8005633999996462,0.1,0,FastAcc,4,18,Woman,Right,
15,7,1,0.516178299999865,['c'],0,right,['8'],3,1.5005737000001318,0.2,0,FastAcc,4,18,Woman,Right,
16,7,1,0.6670110000000022,['c'],0,right,['3'],4,3.733684599999833,0.1,0,FastAcc,4,18,Woman,Right,
17,7,1,0.9333958000001985,['c'],1,left,['9'],2,1.2338793999997506,0.1,0,FastAcc,4,18,Woman,Right,
18,7,1,0.34945379999999204,['n'],1,right,['9'],2,1.133269499999642,0.1,0,FastAcc,4,18,Woman,Right,
19,7,1,0.36724269999967873,['c'],0,right,['9'],2,1.383847699999933,0.4,0,FastAcc,4,18,Woman,Right,
20,7,1,0.4663311999997859,['n'],1,right,['3'],4,1.2339498000001186,0.2,0,FastAcc,4,18,Woman,Right,
21,7,1,0.3999416999999994,['n'],1,right,['9'],2,1.4172659999999269,0.1,0,FastAcc,4,18,Woman,Right,
22,7,1,0.49947740000015983,['c'],1,left,['3'],4,1.2838001999998596,0.4,0,FastAcc,4,18,Woman,Right,
23,7,1,0.4666501000001517,['c'],1,left,['8'],3,1.1670538000003035,0.1,0,FastAcc,4,18,Woman,Right,
24,7,1,0.5159159999998337,['n'],1,right,['8'],3,1.6005245999999715,0.4,0,FastAcc,4,18,Woman,Right,
25,7,1,0.5999926999998024,['c'],0,right,['3'],4,1.650472400000126,0.1,0,FastAcc,4,18,Woman,Right,
26,7,1,0.4166457999999693,['n'],1,right,['9'],2,1.050587500000347,0.2,0,FastAcc,4,18,Woman,Right,
27,7,1,0.48281009999982416,['c'],0,right,['3'],4,1.4338176999999632,0.2,0,FastAcc,4,18,Woman,Right,
28,7,1,0.7161900000000969,['c'],1,left,['8'],3,1.3171949999996286,0.2,0,FastAcc,4,18,Woman,Right,
29,7,1,0.39956190000020797,['c'],1,left,['3'],4,1.4838960999995834,0.2,0,FastAcc,4,18,Woman,Right,
30,7,1,0.3999101000003975,['c'],1,left,['8'],3,1.6172615999998925,0.1,0,FastAcc,4,18,Woman,Right,
31,7,1,0.43330779999996594,['c'],1,left,['2'],5,1.0840201000000889,0.2,0,FastAcc,4,18,Woman,Right,
32,7,1,0.4323578000003181,['c'],0,right,['9'],2,1.8174423000000388,0.4,0,FastAcc,4,18,Woman,Right,
33,7,1,0.41698389999965,['n'],1,right,['8'],3,1.6338658999998188,0.4,0,FastAcc,4,18,Woman,Right,
34,7,1,0.5663672999999108,['c'],1,left,['2'],5,1.4336541000002399,0.1,0,FastAcc,4,18,Woman,Right,
35,7,1,0.6664249999998901,['c'],0,right,['2'],5,1.5839869999999792,0.4,0,FastAcc,4,18,Woman,Right,
36,7,1,0.5662580999996862,['n'],1,right,['8'],3,1.4672077000000172,0.1,0,FastAcc,4,18,Woman,Right,
37,7,1,0.39953160000004573,['c'],1,left,['8'],3,1.4168540999999095,0.1,0,FastAcc,4,18,Woman,Right,
38,7,1,0.43346929999961503,['n'],1,right,['9'],2,1.2673228000003292,0.4,0,FastAcc,4,18,Woman,Right,
39,7,1,0.6820542000000387,['c'],0,right,['2'],5,1.3004147999999986,0.4,0,FastAcc,4,18,Woman,Right,
40,7,1,0.5328130999996574,['n'],1,right,['3'],4,1.3507304999998269,0.4,0,FastAcc,4,18,Woman,Right,
41,7,1,0.5160786000001281,['c'],1,left,['2'],5,1.3171689000000697,0.1,0,FastAcc,4,18,Woman,Right,
42,7,1,0.4328416000003017,['c'],1,left,['8'],3,1.1175586999997904,0.4,0,FastAcc,4,18,Woman,Right,
43,7,1,0.9328644999995959,['n'],0,left,['3'],4,1.4504769999998643,0.4,0,FastAcc,4,18,Woman,Right,
44,7,1,0.399626200000057,['c'],0,right,['3'],4,1.2338492000003498,0.2,0,FastAcc,4,18,Woman,Right,
45,7,1,0.4167065999999977,['c'],1,left,['2'],5,1.3005498000002262,0.4,0,FastAcc,4,18,Woman,Right,
46,7,1,0.4985811999999896,['n'],0,left,['9'],2,1.3510952000001453,0.1,0,FastAcc,4,18,Woman,Right,
47,7,1,0.48282940000035524,['c'],1,left,['8'],3,1.3344038999998702,0.1,0,FastAcc,4,18,Woman,Right,
48,7,1,0.4328726999997343,['c'],1,left,['9'],2,1.4671861000001627,0.2,0,FastAcc,4,18,Woman,Right,
49,7,1,0.4983495999999832,['n'],1,right,['0'],1,1.350496000000021,0.2,0,FastAcc,4,18,Woman,Right,
50,7,1,0.4667922000003273,['c'],1,left,['0'],1,1.900410600000214,0.2,0,FastAcc,4,18,Woman,Right,
51,7,1,0.616714299999785,['c'],1,left,['3'],4,1.2007149000000936,0.1,0,FastAcc,4,18,Woman,Right,
52,7,1,0.549315100000058,['n'],1,right,['9'],2,1.116950199999792,0.1,0,FastAcc,4,18,Woman,Right,
53,7,1,0.4502687999997761,['c'],1,left,['0'],1,1.3671147999998539,0.1,0,FastAcc,4,18,Woman,Right,
54,7,1,0.5829909999997653,['n'],1,right,['3'],4,1.6171271999996861,0.4,0,FastAcc,4,18,Woman,Right,
55,7,1,0.4157979999999952,['n'],1,right,['2'],5,1.2006270000001678,0.4,0,FastAcc,4,18,Woman,Right,
56,7,1,0.39927519999992,['c'],1,left,['2'],5,1.467216599999574,0.2,0,FastAcc,4,18,Woman,Right,
57,7,1,0.4328890000001593,['c'],1,left,['2'],5,1.5171645000000353,0.4,0,FastAcc,4,18,Woman,Right,
58,7,1,0.40021260000003167,['c'],1,left,['9'],2,1.6339140000000043,0.1,0,FastAcc,4,18,Woman,Right,
59,7,1,0.5163427999996202,['n'],0,left,['3'],4,1.7839501999997083,0.2,0,FastAcc,4,18,Woman,Right,
0,8,1,0.49967689999994036,['c'],1,left,['8'],3,0.6840637000000243,0.1,0,FastFast,4,18,Woman,Right,
1,8,1,0.5497569999997722,['n'],1,right,['2'],5,0.5338145000000623,0.1,0,FastFast,4,18,Woman,Right,
2,8,1,0.5159643000001779,['c'],1,left,['2'],5,0.6005508999996891,0.4,0,FastFast,4,18,Woman,Right,
3,8,1,0.39941070000031687,['n'],1,right,['2'],5,0.7671937000000071,0.1,0,FastFast,4,18,Woman,Right,
4,8,1,0.5329943000001549,['n'],0,left,['9'],2,0.633953499999734,0.1,0,FastFast,4,18,Woman,Right,
5,8,1,0.6995910999999069,['c'],0,right,['8'],3,0.7004154999999628,0.2,0,FastFast,4,18,Woman,Right,
6,8,1,0.5160996999998133,['n'],1,right,['2'],5,0.6006855000000542,0.4,0,FastFast,4,18,Woman,Right,
7,8,1,0.7000514999999723,['n'],0,left,['3'],4,0.5837345999998433,0.4,0,FastFast,4,18,Woman,Right,
8,8,1,0.43314060000011523,['n'],1,right,['2'],5,0.6501384999996844,0.2,0,FastFast,4,18,Woman,Right,
9,8,1,0.48375220000025365,['c'],1,left,['2'],5,0.7003951000001507,0.4,0,FastFast,4,18,Woman,Right,
10,8,1,0.6335669999998572,['n'],1,right,['2'],5,0.6173617999997987,0.4,0,FastFast,4,18,Woman,Right,
11,8,1,0.5160006000000976,['c'],1,left,['9'],2,0.7173125999997865,0.2,0,FastFast,4,18,Woman,Right,
12,8,1,0.41573079999989204,['c'],1,left,['3'],4,0.7839051000000836,0.2,0,FastFast,4,18,Woman,Right,
13,8,1,0.4335667000000285,['c'],1,left,['2'],5,0.6839225999997325,0.4,0,FastFast,4,18,Woman,Right,
14,8,1,0.5999760999998216,['n'],1,right,['8'],3,0.6675549000001411,0.1,0,FastFast,4,18,Woman,Right,
15,8,1,0.4666701999999532,['c'],1,left,['8'],3,0.5837956000000304,0.1,0,FastFast,4,18,Woman,Right,
16,8,1,0.5165684999997211,['c'],1,left,['0'],1,0.8004744999998366,0.2,0,FastFast,4,18,Woman,Right,
17,8,1,0.4842417999998361,['n'],1,right,['2'],5,0.633868099999745,0.4,0,FastFast,4,18,Woman,Right,
18,8,1,0.5510491000000002,['n'],0,left,['3'],4,0.900638600000093,0.2,0,FastFast,4,18,Woman,Right,
19,8,1,0.717407600000115,['n'],1,right,['9'],2,0.7171876000002158,0.2,0,FastFast,4,18,Woman,Right,
20,8,1,0.5496954000000187,['n'],1,right,['2'],5,0.6171779999999671,0.4,0,FastFast,4,18,Woman,Right,
21,8,1,0.4831591000001936,['n'],0,left,['0'],1,0.8338810000000194,0.1,0,FastFast,4,18,Woman,Right,
22,8,1,0.5672076000000743,['n'],1,right,['3'],4,0.6174213000003874,0.4,0,FastFast,4,18,Woman,Right,
23,8,1,0.4663617000001068,['c'],1,left,['2'],5,0.5671633000001748,0.2,0,FastFast,4,18,Woman,Right,
24,8,1,0.5163786000002801,['n'],1,right,['2'],5,0.4838772000002791,0.4,0,FastFast,4,18,Woman,Right,
25,8,1,0.4994547999999668,['n'],1,right,['2'],5,0.5005038999997851,0.4,0,FastFast,4,18,Woman,Right,
26,8,1,0.4490236999999979,['c'],1,left,['2'],5,0.517244699999992,0.2,0,FastFast,4,18,Woman,Right,
27,8,1,0.717474300000049,['n'],0,left,['8'],3,0.517221900000095,0.4,0,FastFast,4,18,Woman,Right,
28,8,1,0.5336961999996674,['c'],1,left,['9'],2,0.9839658999999301,0.4,0,FastFast,4,18,Woman,Right,
29,8,1,0.4829445999998825,['c'],1,left,['2'],5,0.5505877999999029,0.2,0,FastFast,4,18,Woman,Right,
30,8,1,0.6827157000002444,['c'],1,left,['9'],2,0.7671480000003612,0.4,0,FastFast,4,18,Woman,Right,
31,8,1,0.41531010000016977,['n'],0,left,['2'],5,0.700430100000176,0.2,0,FastFast,4,18,Woman,Right,
32,8,1,0.5990951000003406,['c'],0,right,['2'],5,0.6168979999997646,0.2,0,FastFast,4,18,Woman,Right,
33,8,1,0.4674043999998503,['n'],1,right,['0'],1,0.8505519999998796,0.1,0,FastFast,4,18,Woman,Right,
34,8,1,0.6170225000000755,['n'],0,left,['9'],2,0.6339247000000796,0.1,0,FastFast,4,18,Woman,Right,
35,8,1,0.4997582999999395,['n'],1,right,['2'],5,0.46724500000027547,0.4,0,FastFast,4,18,Woman,Right,
36,8,1,0.9162639999999556,['n'],1,right,['9'],2,0.5839406999998573,0.1,0,FastFast,4,18,Woman,Right,
37,8,1,0.466385100000025,['n'],1,right,['3'],4,1.000749999999698,0.1,0,FastFast,4,18,Woman,Right,
38,8,1,0.8004630000000361,['c'],1,left,['3'],4,0.5005544000000555,0.2,0,FastFast,4,18,Woman,Right,
39,8,1,0.6495853000001262,['n'],1,right,['9'],2,0.6505191000001105,0.2,0,FastFast,4,18,Woman,Right,
40,8,1,0.4673078999999234,['n'],0,left,['3'],4,0.517405300000064,0.4,0,FastFast,4,18,Woman,Right,
41,8,1,0.5669709999997394,['n'],1,right,['3'],4,0.517193799999859,0.1,0,FastFast,4,18,Woman,Right,
42,8,1,0.500368200000139,['c'],1,left,['8'],3,0.48382420000007187,0.2,0,FastFast,4,18,Woman,Right,
43,8,1,0.533286699999735,['n'],1,right,['9'],2,0.48377470000014,0.4,0,FastFast,4,18,Woman,Right,
44,8,1,0.5660111000001962,['n'],0,left,['9'],2,0.5177019000002474,0.2,0,FastFast,4,18,Woman,Right,
45,8,1,0.4663249000000178,['c'],1,left,['3'],4,0.5174213999998756,0.2,0,FastFast,4,18,Woman,Right,
46,8,1,0.6663782000000538,['n'],1,right,['2'],5,0.6340706999999384,0.4,0,FastFast,4,18,Woman,Right,
47,8,1,0.4496257999999216,['n'],1,right,['9'],2,0.5171878999999535,0.2,0,FastFast,4,18,Woman,Right,
48,8,1,0.5001428999999007,['n'],1,right,['8'],3,0.6004400000001624,0.2,0,FastFast,4,18,Woman,Right,
49,8,1,0.63314390000005,['n'],0,left,['8'],3,0.4504997999997613,0.1,0,FastFast,4,18,Woman,Right,
50,8,1,0.6165035999997599,['n'],1,right,['0'],1,0.716904699999759,0.1,0,FastFast,4,18,Woman,Right,
51,8,1,1.0327072999998563,['n'],1,right,['9'],2,0.4670983000000888,0.1,0,FastFast,4,18,Woman,Right,
52,8,1,0.5486225999998169,['c'],0,right,['3'],4,0.4839377000002969,0.1,0,FastFast,4,18,Woman,Right,
53,8,1,0.6830580999999256,['n'],0,left,['8'],3,0.5505324999999175,0.1,0,FastFast,4,18,Woman,Right,
54,8,1,0.6329270000001088,['c'],0,right,['2'],5,0.5338532000000669,0.1,0,FastFast,4,18,Woman,Right,
55,8,1,0.5161981999999625,['c'],0,right,['2'],5,0.45065040000008594,0.2,0,FastFast,4,18,Woman,Right,
56,8,1,0.3829031999998733,['c'],1,left,['3'],4,0.7505387999999584,0.4,0,FastFast,4,18,Woman,Right,
57,8,1,0.582865700000184,['c'],0,right,['2'],5,0.4338493999998718,0.1,0,FastFast,4,18,Woman,Right,
58,8,1,0.41620759999977963,['c'],1,left,['2'],5,0.48381289999997534,0.1,0,FastFast,4,18,Woman,Right,
59,8,1,0.4832274000000325,['c'],1,left,['2'],5,0.5505198000000746,0.4,0,FastFast,4,18,Woman,Right,
0,9,1,1.0828401000003396,['n'],1,right,['8'],3,1.1507265000000189,0.4,0,AccFast,4,18,Woman,Right,
1,9,1,0.8173581000000922,['c'],1,left,['8'],3,1.267331600000034,0.1,0,AccFast,4,18,Woman,Right,
2,9,1,0.4994621000000734,['n'],0,left,['2'],5,1.6338190999999824,0.4,0,AccFast,4,18,Woman,Right,
3,9,1,1.4657577000002675,['n'],0,left,['2'],5,1.9672230999999556,0.4,0,AccFast,4,18,Woman,Right,
4,9,1,1.4172245000004295,['n'],0,left,['3'],4,1.450564299999769,0.2,0,AccFast,4,18,Woman,Right,
5,9,1,0.716660800000227,['n'],1,right,['3'],4,1.417624899999737,0.1,0,AccFast,4,18,Woman,Right,
6,9,1,1.6490398000000823,['n'],1,right,['2'],5,1.767140500000096,0.4,0,AccFast,4,18,Woman,Right,
7,9,1,0.9660719000003155,['n'],1,right,['2'],5,0.6836914999998953,0.1,0,AccFast,4,18,Woman,Right,
8,9,1,1.1662688999999773,['c'],1,left,['8'],3,0.3005585000000792,0.1,0,AccFast,4,18,Woman,Right,
9,9,1,0.9163091999998869,['n'],1,right,['8'],3,0.5338695000000371,0.2,0,AccFast,4,18,Woman,Right,
10,9,1,1.3992727999998351,['n'],1,right,['9'],2,0.5837352000003193,0.1,0,AccFast,4,18,Woman,Right,
11,9,1,0.9995919000002687,['c'],1,left,['9'],2,0.33390769999959957,0.4,0,AccFast,4,18,Woman,Right,
12,9,1,0.7499167999999372,['n'],1,right,['9'],2,0.6169731999998476,0.1,0,AccFast,4,18,Woman,Right,
13,9,1,1.150436500000069,['c'],1,left,['9'],2,0.3839028000002145,0.4,0,AccFast,4,18,Woman,Right,
14,9,1,0.9175510000000031,['c'],0,right,['2'],5,0.36714119999987815,0.1,0,AccFast,4,18,Woman,Right,
15,9,1,0.9333041999998386,['c'],1,left,['2'],5,0.400488199999927,0.4,0,AccFast,4,18,Woman,Right,
16,9,1,0.8503891999998814,['n'],1,right,['2'],5,0.4838039999999637,0.1,0,AccFast,4,18,Woman,Right,
17,9,1,0.7831240000000435,['n'],1,right,['2'],5,0.41715869999961797,0.2,0,AccFast,4,18,Woman,Right,
18,9,1,0.6828276000001097,['n'],1,right,['2'],5,0.533737100000053,0.4,0,AccFast,4,18,Woman,Right,
19,9,1,1.1497518999999556,['c'],1,left,['2'],5,0.5338526999998976,0.2,0,AccFast,4,18,Woman,Right,
20,9,1,0.7332587999999305,['n'],1,right,['2'],5,0.7837754000001951,0.1,0,AccFast,4,18,Woman,Right,
21,9,1,0.9664874000000054,['n'],1,right,['2'],5,0.6338593000000401,0.2,0,AccFast,4,18,Woman,Right,
22,9,1,1.815961000000243,['c'],1,left,['0'],1,0.4504562999995869,0.2,0,AccFast,4,18,Woman,Right,
23,9,1,1.2657120000003488,['n'],1,right,['0'],1,0.7338488999998845,0.2,0,AccFast,4,18,Woman,Right,
24,9,1,0.9663331000001563,['c'],1,left,['2'],5,0.4505957000001217,0.2,0,AccFast,4,18,Woman,Right,
25,9,1,1.4165453999999045,['n'],0,left,['0'],1,0.36724199999980556,0.1,0,AccFast,4,18,Woman,Right,
26,9,1,0.9337555000001885,['c'],0,right,['0'],1,1.5172734000002492,0.2,0,AccFast,4,18,Woman,Right,
27,9,1,0.833221599999888,['n'],0,left,['9'],2,0.5339126999997461,0.1,0,AccFast,4,18,Woman,Right,
28,9,1,1.2830636000003324,['n'],1,right,['2'],5,0.33355810000011843,0.4,0,AccFast,4,18,Woman,Right,
29,9,1,0.9828465000000506,['c'],1,left,['9'],2,0.5338652000000366,0.1,0,AccFast,4,18,Woman,Right,
30,9,1,1.3334070000000793,['n'],1,right,['9'],2,0.31771119999984876,0.2,0,AccFast,4,18,Woman,Right,
31,9,1,0.8158268000001954,['c'],1,left,['2'],5,0.400448200000028,0.1,0,AccFast,4,18,Woman,Right,
32,9,1,0.783475300000191,['n'],1,right,['8'],3,0.5672110999998949,0.2,0,AccFast,4,18,Woman,Right,
33,9,1,0.8666097000000264,['n'],1,right,['9'],2,0.8172297000000981,0.4,0,AccFast,4,18,Woman,Right,
34,9,1,0.9663384000000406,['c'],0,right,['9'],2,0.23378730000013093,0.2,0,AccFast,4,18,Woman,Right,
35,9,1,1.0994520999997803,['c'],1,left,['8'],3,0.38389809999989666,0.1,0,AccFast,4,18,Woman,Right,
36,9,1,1.5166094999999586,['n'],1,right,['8'],3,0.31691929999988133,0.1,0,AccFast,4,18,Woman,Right,
37,9,1,1.13387049999983,['c'],1,left,['8'],3,0.30058329999974376,0.1,0,AccFast,4,18,Woman,Right,
38,9,1,0.7496341999999458,['c'],1,left,['2'],5,0.3506515999997646,0.4,0,AccFast,4,18,Woman,Right,
39,9,1,1.3330685000000813,['c'],1,left,['2'],5,0.3338110999998207,0.4,0,AccFast,4,18,Woman,Right,
40,9,1,1.7663708999998562,['n'],0,left,['9'],2,0.3173990000000231,0.2,0,AccFast,4,18,Woman,Right,
41,9,1,1.6832644999999502,['c'],0,right,['9'],2,0.5671206000001803,0.2,0,AccFast,4,18,Woman,Right,
42,9,1,0.9667457000000468,['c'],1,left,['9'],2,0.9004196999999294,0.2,0,AccFast,4,18,Woman,Right,
43,9,1,1.0491816999997354,['n'],1,right,['9'],2,0.367072300000018,0.2,0,AccFast,4,18,Woman,Right,
44,9,1,1.1831591000000117,['n'],1,right,['9'],2,0.4671720000001187,0.2,0,AccFast,4,18,Woman,Right,
45,9,1,1.2999884999999267,['c'],0,right,['8'],3,0.38390220000019326,0.1,0,AccFast,4,18,Woman,Right,
46,9,1,0.8667728000000352,['c'],1,left,['8'],3,0.9005511000000297,0.2,0,AccFast,4,18,Woman,Right,
47,9,1,1.6665047999999842,['n'],1,right,['9'],2,0.3504929999999149,0.2,0,AccFast,4,18,Woman,Right,
48,9,1,0.8505958000000646,['c'],1,left,['9'],2,0.7171508000001268,0.4,0,AccFast,4,18,Woman,Right,
49,9,1,1.2502799999997478,['n'],1,right,['9'],2,0.633918900000026,0.4,0,AccFast,4,18,Woman,Right,
50,9,1,0.6165301999999429,['c'],1,left,['9'],2,0.5839245000001938,0.4,0,AccFast,4,18,Woman,Right,
51,9,1,1.5827692000002571,['n'],0,left,['3'],4,0.4838676999997915,0.1,0,AccFast,4,18,Woman,Right,
52,9,1,0.7177655000000414,['c'],1,left,['2'],5,0.9340398999997888,0.4,0,AccFast,4,18,Woman,Right,
53,9,1,3.9995171000000482,['n'],0,left,['3'],4,0.6505058999996436,0.4,0,AccFast,4,18,Woman,Right,
54,9,1,1.4666024000002835,['c'],1,left,['2'],5,0.31686590000026627,0.4,0,AccFast,4,18,Woman,Right,
55,9,1,1.9676049999998213,['n'],1,right,['8'],3,0.3335199000002831,0.2,0,AccFast,4,18,Woman,Right,
56,9,1,1.6834835000004205,['n'],1,right,['2'],5,0.4505047000002378,0.4,0,AccFast,4,18,Woman,Right,
57,9,1,0.7159142999998949,['n'],1,right,['8'],3,0.7172034999998687,0.4,0,AccFast,4,18,Woman,Right,
58,9,1,0.9332125999999334,['n'],0,left,['9'],2,1.2504952000003868,0.1,0,AccFast,4,18,Woman,Right,
59,9,1,1.3830416000000696,['n'],0,left,['0'],1,0.36722180000015214,0.1,0,AccFast,4,18,Woman,Right,
0,10,1,1.3825807000002897,['n'],0,left,['2'],5,1.7174952000000303,0.1,0,AccAcc,4,18,Woman,Right,
1,10,1,1.0663629999999102,['c'],1,left,['2'],5,1.4506048999996892,0.2,0,AccAcc,4,18,Woman,Right,
2,10,1,1.0839000000000851,['n'],1,right,['2'],5,1.2505172999999559,0.2,0,AccAcc,4,18,Woman,Right,
3,10,1,0.9330189000002065,['n'],1,right,['2'],5,1.1172045000002981,0.4,0,AccAcc,4,18,Woman,Right,
4,10,1,1.4994769999998425,['n'],0,left,['8'],3,1.167167999999947,0.2,0,AccAcc,4,18,Woman,Right,
5,10,1,1.2996143999998822,['c'],1,left,['8'],3,1.1843966999999793,0.2,0,AccAcc,4,18,Woman,Right,
6,10,1,1.3834563999998863,['n'],0,left,['9'],2,1.3339437000004182,0.2,0,AccAcc,4,18,Woman,Right,
7,10,1,1.3002824000000146,['n'],1,right,['8'],3,1.583333699999912,0.4,0,AccAcc,4,18,Woman,Right,
8,10,1,0.950195999999778,['c'],1,left,['8'],3,1.3506050000000869,0.2,0,AccAcc,4,18,Woman,Right,
9,10,1,1.4160867000000508,['n'],1,right,['2'],5,1.3005369000002247,0.2,0,AccAcc,4,18,Woman,Right,
10,10,1,1.2329181000000062,['c'],1,left,['3'],4,1.417841800000133,0.1,0,AccAcc,4,18,Woman,Right,
11,10,1,1.1159866000002694,['n'],1,right,['8'],3,1.6838873000001513,0.2,0,AccAcc,4,18,Woman,Right,
12,10,1,1.3163187000000107,['n'],0,left,['3'],4,2.050388799999837,0.1,0,AccAcc,4,18,Woman,Right,
13,10,1,1.232999700000164,['n'],0,left,['8'],3,1.550557700000354,0.4,0,AccAcc,4,18,Woman,Right,
14,10,1,1.316229100000328,['n'],0,left,['8'],3,1.3670132000002013,0.4,0,AccAcc,4,18,Woman,Right,
15,10,1,1.0656405999998242,['n'],1,right,['8'],3,1.167126400000143,0.1,0,AccAcc,4,18,Woman,Right,
16,10,1,1.1661763000001883,['c'],0,right,['3'],4,1.4505348000002414,0.2,0,AccAcc,4,18,Woman,Right,
17,10,1,0.8163958999998613,['n'],0,left,['8'],3,1.1005268999997497,0.1,0,AccAcc,4,18,Woman,Right,
18,10,1,0.8994001000000935,['n'],1,right,['2'],5,0.8839705999998841,0.4,0,AccAcc,4,18,Woman,Right,
19,10,1,0.8667096999997739,['n'],1,right,['3'],4,0.9171015000001717,0.2,0,AccAcc,4,18,Woman,Right,
20,10,1,0.7994493999999577,['n'],1,right,['8'],3,0.9672593999998753,0.4,0,AccAcc,4,18,Woman,Right,
21,10,1,0.833017800000107,['n'],1,right,['9'],2,1.2172970999999961,0.1,0,AccAcc,4,18,Woman,Right,
22,10,1,0.8829896000002009,['n'],0,left,['3'],4,1.200548499999968,0.2,0,AccAcc,4,18,Woman,Right,
23,10,1,0.8659570999998323,['n'],1,right,['2'],5,1.267001799999889,0.1,0,AccAcc,4,18,Woman,Right,
24,10,1,0.9499487999996745,['n'],1,right,['9'],2,1.2005911000001106,0.1,0,AccAcc,4,18,Woman,Right,
25,10,1,1.0998283999997511,['n'],0,left,['9'],2,1.1004977000002327,0.1,0,AccAcc,4,18,Woman,Right,
26,10,1,0.8163847999999234,['c'],0,right,['3'],4,1.183879899999738,0.1,0,AccAcc,4,18,Woman,Right,
27,10,1,1.099532900000213,['c'],0,right,['3'],4,0.8505481000001964,0.2,0,AccAcc,4,18,Woman,Right,
28,10,1,0.9997532000002138,['n'],1,right,['8'],3,1.233942300000308,0.2,0,AccAcc,4,18,Woman,Right,
29,10,1,1.066652299999987,['c'],1,left,['3'],4,1.4669493999999759,0.4,0,AccAcc,4,18,Woman,Right,
30,10,1,0.9828913000001194,['n'],1,right,['2'],5,1.083853999999974,0.4,0,AccAcc,4,18,Woman,Right,
31,10,1,0.9498947000001863,['c'],1,left,['9'],2,1.2676393000001553,0.2,0,AccAcc,4,18,Woman,Right,
32,10,1,0.7993035999998028,['c'],1,left,['8'],3,1.4513756000001194,0.1,0,AccAcc,4,18,Woman,Right,
33,10,1,0.9494313999998667,['c'],0,right,['8'],3,1.400536000000102,0.2,0,AccAcc,4,18,Woman,Right,
34,10,1,1.099609700000201,['n'],0,left,['9'],2,1.0670317000003706,0.1,0,AccAcc,4,18,Woman,Right,
35,10,1,1.4663302000003569,['c'],0,right,['0'],1,1.6338121999997384,0.4,0,AccAcc,4,18,Woman,Right,
36,10,1,1.082605799999783,['n'],1,right,['2'],5,1.1842548999998144,0.4,0,AccAcc,4,18,Woman,Right,
37,10,1,1.6496336999998675,['c'],1,left,['3'],4,1.2504767000000356,0.4,0,AccAcc,4,18,Woman,Right,
38,10,1,1.249582399999781,['c'],1,left,['3'],4,1.3503340000002026,0.1,0,AccAcc,4,18,Woman,Right,
39,10,1,1.1331730000001698,['n'],0,left,['9'],2,1.2672013999999763,0.2,0,AccAcc,4,18,Woman,Right,
40,10,1,0.9830995000002076,['n'],0,left,['9'],2,1.2669505999997455,0.2,0,AccAcc,4,18,Woman,Right,
41,10,1,1.3161433999998735,['n'],1,right,['2'],5,0.9506203999999343,0.4,0,AccAcc,4,18,Woman,Right,
42,10,1,1.1999155000003157,['n'],1,right,['9'],2,1.0171173999997336,0.1,0,AccAcc,4,18,Woman,Right,
43,10,1,0.7494945000003099,['n'],1,right,['2'],5,1.0336777000002257,0.4,0,AccAcc,4,18,Woman,Right,
44,10,1,1.0487904000001436,['n'],1,right,['8'],3,1.1172326999999314,0.4,0,AccAcc,4,18,Woman,Right,
45,10,1,0.782719299999826,['n'],0,left,['3'],4,1.1670491999998376,0.2,0,AccAcc,4,18,Woman,Right,
46,10,1,0.8661802999999964,['c'],0,right,['3'],4,1.3668829999996888,0.4,0,AccAcc,4,18,Woman,Right,
47,10,1,0.8998169999999845,['n'],1,right,['2'],5,1.2670972999999321,0.4,0,AccAcc,4,18,Woman,Right,
48,10,1,0.9995989000003647,['n'],0,left,['3'],4,1.1339609999999993,0.1,0,AccAcc,4,18,Woman,Right,
49,10,1,0.9662762000002658,['c'],1,left,['2'],5,1.1172904000000017,0.2,0,AccAcc,4,18,Woman,Right,
50,10,1,1.1660584000001109,['n'],0,left,['9'],2,1.066985299999942,0.4,0,AccAcc,4,18,Woman,Right,
51,10,1,0.882614999999987,['n'],1,right,['2'],5,1.3006193999999596,0.1,0,AccAcc,4,18,Woman,Right,
52,10,1,1.000123799999983,['n'],0,left,['2'],5,1.3004832999999962,0.4,0,AccAcc,4,18,Woman,Right,
53,10,1,0.8995933999999579,['c'],1,left,['8'],3,1.5838404000000992,0.4,0,AccAcc,4,18,Woman,Right,
54,10,1,1.0496682000002693,['n'],1,right,['2'],5,1.250490400000217,0.1,0,AccAcc,4,18,Woman,Right,
55,10,1,1.4161245999998755,['n'],1,right,['3'],4,1.900575299999673,0.1,0,AccAcc,4,18,Woman,Right,
56,10,1,0.9496104999998352,['n'],0,left,['2'],5,1.100504600000022,0.1,0,AccAcc,4,18,Woman,Right,
57,10,1,1.1662366000000475,['n'],0,left,['9'],2,1.2339947999998913,0.1,0,AccAcc,4,18,Woman,Right,
58,10,1,1.13333270000021,['n'],1,right,['2'],5,1.0673338000001422,0.4,0,AccAcc,4,18,Woman,Right,
59,10,1,1.3839601999998195,['c'],1,left,['2'],5,1.2837140000001455,0.2,0,AccAcc,4,18,Woman,Right,
0,11,1,0.517504899999949,['n'],1,right,['2'],5,1.0838794000001144,0.4,0,FastAcc,4,18,Woman,Right,
1,11,1,0.6324893000000884,['n'],1,right,['3'],4,1.2171143999999003,0.2,0,FastAcc,4,18,Woman,Right,
2,11,1,0.6003104000001258,['c'],1,left,['2'],5,1.5172679000002063,0.4,0,FastAcc,4,18,Woman,Right,
3,11,1,0.6833056999998917,['n'],1,right,['2'],5,1.4169191000000865,0.2,0,FastAcc,4,18,Woman,Right,
4,11,1,0.6159558000003926,['c'],1,left,['2'],5,1.2832739000000402,0.4,0,FastAcc,4,18,Woman,Right,
5,11,1,0.3830232000000251,['n'],0,left,['9'],2,1.283840500000224,0.2,0,FastAcc,4,18,Woman,Right,
6,11,1,0.4334116999998514,['n'],0,left,['0'],1,1.7173266999998305,0.1,0,FastAcc,4,18,Woman,Right,
7,11,1,0.6165949000001092,['c'],0,right,['2'],5,1.6004366000001937,0.1,0,FastAcc,4,18,Woman,Right,
8,11,1,0.7171008000000256,['n'],1,right,['2'],5,1.3505286999998134,0.4,0,FastAcc,4,18,Woman,Right,
9,11,1,0.4334041000001889,['c'],0,right,['2'],5,1.5337184999998499,0.1,0,FastAcc,4,18,Woman,Right,
10,11,1,0.4170396999998047,['c'],0,right,['2'],5,1.2173843000000488,0.1,0,FastAcc,4,18,Woman,Right,
11,11,1,0.450148999999783,['n'],1,right,['2'],5,1.4838542000002235,0.4,0,FastAcc,4,18,Woman,Right,
12,11,1,0.4667474000002585,['c'],1,left,['9'],2,1.3336912999998276,0.1,0,FastAcc,4,18,Woman,Right,
13,11,1,0.7507139999997889,['c'],0,right,['8'],3,1.6505363999999645,0.1,0,FastAcc,4,18,Woman,Right,
14,11,1,0.5328867999996874,['c'],1,left,['8'],3,1.1339140999998563,0.1,0,FastAcc,4,18,Woman,Right,
15,11,1,0.6665456000000631,['c'],1,left,['8'],3,0.9672986000000492,0.2,0,FastAcc,4,18,Woman,Right,
16,11,1,0.7496203999999125,['c'],1,left,['8'],3,1.0005763999997725,0.1,0,FastAcc,4,18,Woman,Right,
17,11,1,0.783323399999972,['c'],1,left,['8'],3,1.050442600000224,0.2,0,FastAcc,4,18,Woman,Right,
18,11,1,1.0661593999998331,['n'],0,left,['8'],3,1.4506281999997555,0.2,0,FastAcc,4,18,Woman,Right,
19,11,1,0.31598140000005515,['c'],0,right,['9'],2,1.1673835999999937,0.2,0,FastAcc,4,18,Woman,Right,
20,11,1,0.4330158000002484,['n'],1,right,['9'],2,1.1839712000000873,0.2,0,FastAcc,4,18,Woman,Right,
21,11,1,0.41631199999983437,['c'],0,right,['9'],2,1.2671485999999277,0.1,0,FastAcc,4,18,Woman,Right,
22,11,1,0.4327235999999175,['c'],1,left,['2'],5,1.1671564000002945,0.4,0,FastAcc,4,18,Woman,Right,
23,11,1,0.34927990000005593,['c'],0,right,['9'],2,1.0672068000003492,0.2,0,FastAcc,4,18,Woman,Right,
24,11,1,0.4495846999998321,['c'],0,right,['3'],4,1.1671244999997725,0.1,0,FastAcc,4,18,Woman,Right,
25,11,1,0.3829934000000321,['c'],1,left,['2'],5,1.0672305999996752,0.2,0,FastAcc,4,18,Woman,Right,
26,11,1,0.6162976999999046,['c'],0,right,['9'],2,0.9005850999997165,0.1,0,FastAcc,4,18,Woman,Right,
27,11,1,0.8163971999997557,['n'],1,right,['2'],5,1.300468599999931,0.4,0,FastAcc,4,18,Woman,Right,
28,11,1,0.4663547000000108,['c'],1,left,['2'],5,1.5006055999997443,0.2,0,FastAcc,4,18,Woman,Right,
29,11,1,0.5335190999999213,['n'],1,right,['9'],2,1.0839065000000119,0.1,0,FastAcc,4,18,Woman,Right,
30,11,1,0.5828965000000608,['n'],1,right,['8'],3,1.3005495000002156,0.1,0,FastAcc,4,18,Woman,Right,
31,11,1,0.3661119999997027,['c'],1,left,['2'],5,1.333708900000147,0.4,0,FastAcc,4,18,Woman,Right,
32,11,1,0.48456539999961024,['n'],0,left,['9'],2,1.2339191000000937,0.1,0,FastAcc,4,18,Woman,Right,
33,11,1,0.5826643999998851,['n'],1,right,['2'],5,1.183939399999872,0.2,0,FastAcc,4,18,Woman,Right,
34,11,1,0.716076300000168,['c'],1,left,['3'],4,1.2673311000003196,0.2,0,FastAcc,4,18,Woman,Right,
35,11,1,0.4820458000003782,['c'],0,right,['3'],4,1.5503825999999208,0.1,0,FastAcc,4,18,Woman,Right,
36,11,1,0.4835954000000129,['n'],1,right,['9'],2,1.4005506999997124,0.2,0,FastAcc,4,18,Woman,Right,
37,11,1,0.383913599999687,['n'],0,left,['0'],1,1.0838690000000497,0.4,0,FastAcc,4,18,Woman,Right,
38,11,1,0.3670753000001241,['c'],0,right,['0'],1,1.3672145000000455,0.4,0,FastAcc,4,18,Woman,Right,
39,11,1,0.41689169999972364,['c'],1,left,['3'],4,1.116952300000321,0.1,0,FastAcc,4,18,Woman,Right,
40,11,1,0.44984230000000025,['c'],1,left,['2'],5,1.383943199999976,0.4,0,FastAcc,4,18,Woman,Right,
41,11,1,0.41700010000022303,['c'],1,left,['2'],5,1.133458000000246,0.4,0,FastAcc,4,18,Woman,Right,
42,11,1,0.4841409000000567,['c'],1,left,['2'],5,1.0006474000001617,0.2,0,FastAcc,4,18,Woman,Right,
43,11,1,0.4657164999998713,['c'],1,left,['2'],5,1.4338149000000158,0.4,0,FastAcc,4,18,Woman,Right,
44,11,1,0.5164496000002146,['c'],1,left,['2'],5,1.2837485999998535,0.1,0,FastAcc,4,18,Woman,Right,
45,11,1,0.4659768999999869,['c'],0,right,['9'],2,0.9331723999998758,0.4,0,FastAcc,4,18,Woman,Right,
46,11,1,0.48291329999983645,['c'],1,left,['8'],3,0.9505297999999129,0.2,0,FastAcc,4,18,Woman,Right,
47,11,1,0.48254169999972873,['c'],1,left,['2'],5,1.100126199999977,0.4,0,FastAcc,4,18,Woman,Right,
48,11,1,0.3662272999999914,['n'],0,left,['9'],2,1.0173577999998997,0.2,0,FastAcc,4,18,Woman,Right,
49,11,1,0.3830735999999888,['c'],0,right,['8'],3,0.983762200000001,0.1,0,FastAcc,4,18,Woman,Right,
50,11,1,0.48320160000002943,['c'],1,left,['2'],5,1.0504783000001225,0.4,0,FastAcc,4,18,Woman,Right,
51,11,1,0.4335525999999845,['c'],1,left,['2'],5,1.2508646999999655,0.4,0,FastAcc,4,18,Woman,Right,
52,11,1,0.38281640000013795,['c'],0,right,['0'],1,1.0503183000000718,0.2,0,FastAcc,4,18,Woman,Right,
53,11,1,0.6336123999999472,['n'],1,right,['2'],5,1.0840097000000242,0.2,0,FastAcc,4,18,Woman,Right,
54,11,1,0.5159617999997863,['n'],1,right,['2'],5,1.100541400000111,0.4,0,FastAcc,4,18,Woman,Right,
55,11,1,0.39892779999991035,['c'],0,right,['0'],1,1.100255500000003,0.4,0,FastAcc,4,18,Woman,Right,
56,11,1,0.4001779999998689,['c'],1,left,['2'],5,1.067165699999805,0.4,0,FastAcc,4,18,Woman,Right,
57,11,1,0.5326711999996405,['c'],0,right,['9'],2,0.8005425999999716,0.2,0,FastAcc,4,18,Woman,Right,
58,11,1,0.6830893000001197,['c'],1,left,['2'],5,1.383830400000079,0.1,0,FastAcc,4,18,Woman,Right,
59,11,1,0.4494921999998951,['c'],0,right,['0'],1,1.2837432000001172,0.1,0,FastAcc,4,18,Woman,Right,
0,12,1,0.7162303999998585,['n'],1,right,['2'],5,0.5174581999999646,0.2,0,FastFast,4,18,Woman,Right,
1,12,1,0.5330119999998715,['n'],1,right,['2'],5,0.5006681999998364,0.4,0,FastFast,4,18,Woman,Right,
2,12,1,0.4176667000001544,['c'],1,left,['2'],5,0.5838667999996687,0.4,0,FastFast,4,18,Woman,Right,
3,12,1,0.39965840000013486,['n'],1,right,['2'],5,0.5337574000000131,0.2,0,FastFast,4,18,Woman,Right,
4,12,1,0.4661276000001635,['n'],0,left,['9'],2,0.5836710999997194,0.1,0,FastFast,4,18,Woman,Right,
5,12,1,0.4663170999997419,['n'],0,left,['9'],2,0.5670156000001043,0.2,0,FastFast,4,18,Woman,Right,
6,12,1,0.49954509999997754,['n'],1,right,['9'],2,0.5005055999999968,0.1,0,FastFast,4,18,Woman,Right,
7,12,1,0.4831551000002037,['c'],1,left,['2'],5,0.517058200000065,0.1,0,FastFast,4,18,Woman,Right,
8,12,1,0.4664599000002454,['n'],1,right,['3'],4,0.483831999999893,0.2,0,FastFast,4,18,Woman,Right,
9,12,1,0.43282030000000304,['n'],0,left,['9'],2,0.7506066000000828,0.4,0,FastFast,4,18,Woman,Right,
10,12,1,0.5821069000003263,['n'],0,left,['9'],2,0.7172009000000799,0.2,0,FastFast,4,18,Woman,Right,
11,12,1,0.5658567000000403,['n'],1,right,['8'],3,0.5505702999998903,0.1,0,FastFast,4,18,Woman,Right,
12,12,1,0.46589940000012575,['c'],1,left,['2'],5,0.43310810000002675,0.2,0,FastFast,4,18,Woman,Right,
13,12,1,0.4998673999998573,['n'],1,right,['2'],5,0.3837991000000329,0.4,0,FastFast,4,18,Woman,Right,
14,12,1,0.4657220999997662,['n'],1,right,['9'],2,0.7337984999999208,0.1,0,FastFast,4,18,Woman,Right,
15,12,1,0.5997182000000976,['n'],0,left,['9'],2,0.5170951999998579,0.1,0,FastFast,4,18,Woman,Right,
16,12,1,0.6000969000001533,['c'],1,left,['2'],5,0.43388359999971726,0.2,0,FastFast,4,18,Woman,Right,
17,12,1,0.5158639000001131,['n'],1,right,['2'],5,0.4004820000000109,0.4,0,FastFast,4,18,Woman,Right,
18,12,1,0.7159978999998202,['c'],1,left,['9'],2,0.5839166999999179,0.1,0,FastFast,4,18,Woman,Right,
19,12,1,0.8664267000003747,['c'],1,left,['2'],5,0.4171445000001768,0.2,0,FastFast,4,18,Woman,Right,
20,12,1,0.4656138000000283,['n'],1,right,['2'],5,0.41710109999985434,0.4,0,FastFast,4,18,Woman,Right,
21,12,1,0.7330631999998332,['c'],1,left,['2'],5,0.450354999999945,0.4,0,FastFast,4,18,Woman,Right,
22,12,1,0.49975450000010824,['n'],1,right,['2'],5,0.43385299999999916,0.2,0,FastFast,4,18,Woman,Right,
23,12,1,0.4157303000001775,['n'],1,right,['2'],5,0.4339343999999983,0.2,0,FastFast,4,18,Woman,Right,
24,12,1,0.615617100000236,['n'],0,left,['9'],2,0.5838370999999825,0.1,0,FastFast,4,18,Woman,Right,
25,12,1,0.4829285000000709,['n'],0,left,['2'],5,0.3836538999998993,0.4,0,FastFast,4,18,Woman,Right,
26,12,1,0.515815300000213,['c'],0,right,['2'],5,0.383861700000125,0.1,0,FastFast,4,18,Woman,Right,
27,12,1,0.5497798999999759,['n'],1,right,['2'],5,0.5336514999999054,0.4,0,FastFast,4,18,Woman,Right,
28,12,1,0.5821847000001981,['n'],0,left,['0'],1,0.6504635999999664,0.2,0,FastFast,4,18,Woman,Right,
29,12,1,0.4996227000001454,['n'],1,right,['2'],5,0.6171816999999464,0.4,0,FastFast,4,18,Woman,Right,
30,12,1,0.5163112000000183,['n'],1,right,['2'],5,0.41695979999985866,0.4,0,FastFast,4,18,Woman,Right,
31,12,1,0.4825522999999521,['n'],1,right,['2'],5,0.48391529999980776,0.4,0,FastFast,4,18,Woman,Right,
32,12,1,0.531431800000064,['n'],1,right,['2'],5,0.450526400000399,0.4,0,FastFast,4,18,Woman,Right,
33,12,1,0.7496061000001646,['n'],0,left,['9'],2,0.7336533999996391,0.1,0,FastFast,4,18,Woman,Right,
34,12,1,0.5495574000001398,['c'],1,left,['2'],5,0.3839181999996981,0.4,0,FastFast,4,18,Woman,Right,
35,12,1,0.7837241000001995,['n'],1,right,['8'],3,0.7170283000000381,0.1,0,FastFast,4,18,Woman,Right,
36,12,1,0.48224919999984195,['n'],1,right,['8'],3,0.46719849999999497,0.1,0,FastFast,4,18,Woman,Right,
37,12,1,0.5489435999998022,['n'],1,right,['3'],4,0.7338726999996652,0.4,0,FastFast,4,18,Woman,Right,
38,12,1,0.48260700000037104,['n'],0,left,['3'],4,0.7005520000002434,0.4,0,FastFast,4,18,Woman,Right,
39,12,1,0.6496299000000363,['c'],1,left,['2'],5,0.45022740000013073,0.2,0,FastFast,4,18,Woman,Right,
40,12,1,0.5496351000001596,['n'],0,left,['2'],5,0.43352379999987534,0.4,0,FastFast,4,18,Woman,Right,
41,12,1,0.6152799999999843,['n'],0,left,['8'],3,0.717456399999719,0.1,0,FastFast,4,18,Woman,Right,
42,12,1,0.5661111000003984,['n'],0,left,['9'],2,0.4505586000000221,0.2,0,FastFast,4,18,Woman,Right,
43,12,1,0.5995183999998517,['c'],1,left,['3'],4,0.4837507000002006,0.4,0,FastFast,4,18,Woman,Right,
44,12,1,0.5995836000001873,['n'],1,right,['8'],3,0.5004758999998558,0.2,0,FastFast,4,18,Woman,Right,
45,12,1,0.5996776000001773,['n'],1,right,['8'],3,0.43372210000006817,0.2,0,FastFast,4,18,Woman,Right,
46,12,1,1.0321912999997949,['c'],0,right,['9'],2,0.48389880000013363,0.1,0,FastFast,4,18,Woman,Right,
47,12,1,0.5829083999997238,['n'],1,right,['8'],3,1.0003728000001502,0.1,0,FastFast,4,18,Woman,Right,
48,12,1,0.6994847000000846,['n'],1,right,['8'],3,0.4170957000001181,0.4,0,FastFast,4,18,Woman,Right,
49,12,1,0.6329790999998295,['c'],1,left,['8'],3,0.5173038000002634,0.1,0,FastFast,4,18,Woman,Right,
50,12,1,0.4827700000000732,['n'],1,right,['3'],4,0.5842274999999972,0.2,0,FastFast,4,18,Woman,Right,
51,12,1,0.44849310000017795,['n'],1,right,['3'],4,0.4504922000000988,0.1,0,FastFast,4,18,Woman,Right,
52,12,1,0.6159618000001501,['n'],0,left,['8'],3,0.433892300000025,0.4,0,FastFast,4,18,Woman,Right,
53,12,1,0.48212229999990086,['c'],1,left,['8'],3,0.3501688999999715,0.1,0,FastFast,4,18,Woman,Right,
54,12,1,0.5830415000000357,['n'],0,left,['9'],2,0.4341730999999527,0.2,0,FastFast,4,18,Woman,Right,
55,12,1,0.48274609999998574,['c'],0,right,['3'],4,0.4838452999997571,0.2,0,FastFast,4,18,Woman,Right,
56,12,1,0.5162867999997616,['n'],0,left,['8'],3,0.617208500000288,0.2,0,FastFast,4,18,Woman,Right,
57,12,1,0.9985638000002837,['n'],1,right,['8'],3,0.400661300000138,0.1,0,FastFast,4,18,Woman,Right,
58,12,1,0.5495279000001574,['n'],0,left,['8'],3,0.4338300000003983,0.1,0,FastFast,4,18,Woman,Right,
59,12,1,0.5831241000000773,['c'],1,left,['8'],3,0.38382850000016333,0.2,0,FastFast,4,18,Woman,Right,
0,13,1,0.7329571000000215,['n'],1,right,['8'],3,0.9672580999999809,0.2,0,AccFast,4,18,Woman,Right,
1,13,1,0.5323270000003504,['c'],1,left,['9'],2,0.9672206999998707,0.2,0,AccFast,4,18,Woman,Right,
2,13,1,0.8660698000003322,['c'],1,left,['3'],4,0.4338121000000683,0.4,0,AccFast,4,18,Woman,Right,
3,13,1,0.932852300000377,['n'],0,left,['8'],3,0.4501516999998785,0.2,0,AccFast,4,18,Woman,Right,
4,13,1,0.7665178000002015,['n'],0,left,['9'],2,0.4674235999996199,0.4,0,AccFast,4,18,Woman,Right,
5,13,1,0.9821243999999751,['n'],1,right,['9'],2,0.3171753000001445,0.2,0,AccFast,4,18,Woman,Right,
6,13,1,0.9655072999998993,['c'],0,right,['2'],5,0.33378609999999753,0.1,0,AccFast,4,18,Woman,Right,
7,13,1,0.9654128000001947,['c'],1,left,['3'],4,0.384257599999728,0.1,0,AccFast,4,18,Woman,Right,
8,13,1,1.365880300000299,['n'],0,left,['9'],2,0.4003429999997934,0.2,0,AccFast,4,18,Woman,Right,
9,13,1,0.7163232000002608,['n'],0,left,['9'],2,0.8672750999999153,0.1,0,AccFast,4,18,Woman,Right,
10,13,1,0.9320974000002025,['n'],1,right,['9'],2,0.31715219999978217,0.2,0,AccFast,4,18,Woman,Right,
11,13,1,0.7988174000001891,['c'],1,left,['3'],4,0.5005141999999978,0.1,0,AccFast,4,18,Woman,Right,
12,13,1,0.9324268000000302,['n'],0,left,['8'],3,0.517164099999718,0.4,0,AccFast,4,18,Woman,Right,
13,13,1,0.6654748999999356,['n'],0,left,['8'],3,0.45030940000015107,0.1,0,AccFast,4,18,Woman,Right,
14,13,1,1.1825670999996873,['n'],0,left,['8'],3,0.5505527999998776,0.2,0,AccFast,4,18,Woman,Right,
15,13,1,1.2992496000001665,['n'],1,right,['3'],4,0.6504144999998971,0.2,0,AccFast,4,18,Woman,Right,
16,13,1,1.08375980000028,['c'],1,left,['3'],4,0.31716359999973065,0.4,0,AccFast,4,18,Woman,Right,
17,13,1,0.9652443999998468,['c'],1,left,['2'],5,0.33386419999987993,0.4,0,AccFast,4,18,Woman,Right,
18,13,1,1.06546040000012,['n'],1,right,['8'],3,0.25040519999993194,0.2,0,AccFast,4,18,Woman,Right,
19,13,1,0.8995632000001024,['c'],1,left,['2'],5,0.3838349000002381,0.4,0,AccFast,4,18,Woman,Right,
20,13,1,0.865206599999965,['n'],0,left,['3'],4,0.38366820000010193,0.4,0,AccFast,4,18,Woman,Right,
21,13,1,0.7985675999998421,['n'],0,left,['9'],2,0.33381340000005366,0.1,0,AccFast,4,18,Woman,Right,
22,13,1,0.6996387000003779,['c'],1,left,['3'],4,0.46709039999996094,0.1,0,AccFast,4,18,Woman,Right,
23,13,1,1.249387100000149,['c'],1,left,['3'],4,0.41723210000009203,0.4,0,AccFast,4,18,Woman,Right,
24,13,1,0.7163127999997414,['n'],1,right,['2'],5,0.3338066000001163,0.4,0,AccFast,4,18,Woman,Right,
25,13,1,1.1332172999996146,['c'],1,left,['3'],4,0.36693739999964237,0.2,0,AccFast,4,18,Woman,Right,
26,13,1,1.1496308000000681,['n'],0,left,['3'],4,0.2838227000002007,0.1,0,AccFast,4,18,Woman,Right,
27,13,1,1.199989000000187,['n'],1,right,['3'],4,0.31718799999998737,0.4,0,AccFast,4,18,Woman,Right,
28,13,1,1.2661165000004075,['n'],0,left,['8'],3,0.36733959999992294,0.1,0,AccFast,4,18,Woman,Right,
29,13,1,1.2980844999997316,['n'],1,right,['3'],4,0.38370839999970485,0.2,0,AccFast,4,18,Woman,Right,
30,13,1,0.9994822000003296,['n'],1,right,['3'],4,0.26704879999988407,0.1,0,AccFast,4,18,Woman,Right,
31,13,1,1.2984529000000293,['n'],1,right,['3'],4,0.36712339999940014,0.4,0,AccFast,4,18,Woman,Right,
32,13,1,0.6327816000002713,['n'],1,right,['3'],4,0.8170874999996158,0.4,0,AccFast,4,18,Woman,Right,
33,13,1,1.2160217000000557,['n'],1,right,['2'],5,0.35036529999979393,0.4,0,AccFast,4,18,Woman,Right,
34,13,1,1.1329161000003296,['n'],1,right,['2'],5,0.33385069999985717,0.2,0,AccFast,4,18,Woman,Right,
35,13,1,0.8653374999994412,['n'],1,right,['2'],5,0.31704509999963193,0.4,0,AccFast,4,18,Woman,Right,
36,13,1,0.6660856000007698,['c'],1,left,['2'],5,0.40049689999978,0.1,0,AccFast,4,18,Woman,Right,
37,13,1,1.366525599999477,['n'],0,left,['8'],3,0.3672141000006377,0.1,0,AccFast,4,18,Woman,Right,
38,13,1,0.8329750000002605,['c'],1,left,['2'],5,0.4504202999996778,0.4,0,AccFast,4,18,Woman,Right,
39,13,1,1.1152501999995366,['n'],0,left,['9'],2,0.38395200000013574,0.1,0,AccFast,4,18,Woman,Right,
40,13,1,1.0160531000001356,['n'],1,right,['9'],2,0.36725529999966966,0.2,0,AccFast,4,18,Woman,Right,
41,13,1,1.3496411000005537,['c'],1,left,['9'],2,0.283884799999214,0.1,0,AccFast,4,18,Woman,Right,
42,13,1,1.0995520000005854,['c'],0,right,['9'],2,0.3504937000006976,0.2,0,AccFast,4,18,Woman,Right,
43,13,1,0.9820835999998963,['n'],0,left,['8'],3,0.3671959000002971,0.1,0,AccFast,4,18,Woman,Right,
44,13,1,1.316186099999868,['n'],1,right,['3'],4,0.26716010000018287,0.2,0,AccFast,4,18,Woman,Right,
45,13,1,0.8501403000000209,['n'],1,right,['3'],4,0.3169705000000249,0.4,0,AccFast,4,18,Woman,Right,
46,13,1,0.7160527999994883,['n'],1,right,['3'],4,0.3672722999999678,0.4,0,AccFast,4,18,Woman,Right,
47,13,1,0.71651650000058,['n'],0,left,['8'],3,0.43376229999921634,0.1,0,AccFast,4,18,Woman,Right,
48,13,1,1.3165856999994503,['c'],0,right,['3'],4,0.3505326000004061,0.2,0,AccFast,4,18,Woman,Right,
49,13,1,1.1506397000002835,['n'],1,right,['3'],4,0.41695419999996375,0.4,0,AccFast,4,18,Woman,Right,
50,13,1,0.9001412999996319,['c'],0,right,['2'],5,0.4170531999998275,0.1,0,AccFast,4,18,Woman,Right,
51,13,1,0.6666291999999885,['n'],1,right,['2'],5,0.4171668999997564,0.2,0,AccFast,4,18,Woman,Right,
52,13,1,1.0334826999996949,['n'],1,right,['3'],4,0.3838382999992973,0.1,0,AccFast,4,18,Woman,Right,
53,13,1,1.0995677000000796,['n'],1,right,['3'],4,0.41698559999986173,0.2,0,AccFast,4,18,Woman,Right,
54,13,1,1.3329493999999613,['n'],1,right,['8'],3,0.41721700000016426,0.1,0,AccFast,4,18,Woman,Right,
55,13,1,0.9825916999998299,['n'],0,left,['9'],2,0.31704030000037164,0.2,0,AccFast,4,18,Woman,Right,
56,13,1,1.2161435999996684,['n'],0,left,['3'],4,0.4672113000005993,0.2,0,AccFast,4,18,Woman,Right,
57,13,1,2.332851799999844,['c'],0,right,['8'],3,0.2671842999998262,0.4,0,AccFast,4,18,Woman,Right,
58,13,1,0.9826316999997289,['n'],1,right,['8'],3,0.4172601999998733,0.4,0,AccFast,4,18,Woman,Right,
59,13,1,1.1662091999996846,['n'],1,right,['9'],2,0.3836492000000362,0.1,0,AccFast,4,18,Woman,Right,
0,14,1,1.1833158999997977,['c'],1,left,['2'],5,0.8171109000004435,0.4,0,AccAcc,4,18,Woman,Right,
1,14,1,0.9833058000003803,['n'],1,right,['8'],3,0.6339410000000498,0.1,0,AccAcc,4,18,Woman,Right,
2,14,1,0.9497272999997222,['n'],0,left,['9'],2,0.7837742000001526,0.1,0,AccAcc,4,18,Woman,Right,
3,14,1,1.2165137000001778,['n'],1,right,['2'],5,0.933765300000232,0.4,0,AccAcc,4,18,Woman,Right,
4,14,1,0.8497961000002761,['n'],1,right,['2'],5,0.7004698999999164,0.2,0,AccAcc,4,18,Woman,Right,
5,14,1,0.9499348999997892,['n'],1,right,['8'],3,0.6504840999996304,0.1,0,AccAcc,4,18,Woman,Right,
6,14,1,0.6666177000006428,['c'],1,left,['2'],5,0.9505030000000261,0.4,0,AccAcc,4,18,Woman,Right,
7,14,1,0.9329808000002231,['n'],1,right,['2'],5,0.6170529000000897,0.4,0,AccAcc,4,18,Woman,Right,
8,14,1,0.9667374000000564,['n'],1,right,['2'],5,0.9838857000004282,0.4,0,AccAcc,4,18,Woman,Right,
9,14,1,1.0488641000001735,['n'],1,right,['2'],5,0.7498917000002621,0.1,0,AccAcc,4,18,Woman,Right,
10,14,1,0.9993477999996685,['n'],1,right,['9'],2,0.6007441000001563,0.1,0,AccAcc,4,18,Woman,Right,
11,14,1,0.9666003000002092,['c'],1,left,['2'],5,0.7505671000008078,0.4,0,AccAcc,4,18,Woman,Right,
12,14,1,1.1829192000004696,['n'],0,left,['8'],3,0.6672038999995493,0.1,0,AccAcc,4,18,Woman,Right,
13,14,1,0.783049800000299,['c'],1,left,['2'],5,0.8005960999998933,0.4,0,AccAcc,4,18,Woman,Right,
14,14,1,0.8662451000000146,['n'],1,right,['2'],5,0.6004971000002115,0.1,0,AccAcc,4,18,Woman,Right,
15,14,1,1.1668700000000172,['c'],0,right,['8'],3,0.833947299999636,0.1,0,AccAcc,4,18,Woman,Right,
16,14,1,0.9000939999996262,['c'],0,right,['3'],4,0.6838388999995004,0.1,0,AccAcc,4,18,Woman,Right,
17,14,1,1.1821432000006098,['c'],0,right,['2'],5,0.8171722999995836,0.2,0,AccAcc,4,18,Woman,Right,
18,14,1,0.7328718999997363,['c'],0,right,['2'],5,0.7838762999999744,0.1,0,AccAcc,4,18,Woman,Right,
19,14,1,0.9159970000000612,['n'],1,right,['2'],5,0.5171610999996119,0.4,0,AccAcc,4,18,Woman,Right,
20,14,1,1.0499652999997124,['c'],1,left,['2'],5,0.6004523000001427,0.4,0,AccAcc,4,18,Woman,Right,
21,14,1,0.9495226999997612,['n'],0,left,['9'],2,0.8171482000007018,0.2,0,AccAcc,4,18,Woman,Right,
22,14,1,0.8321963999997024,['c'],1,left,['9'],2,1.1172928000005413,0.2,0,AccAcc,4,18,Woman,Right,
23,14,1,0.7329967000005126,['c'],1,left,['3'],4,0.7338352000006125,0.2,0,AccAcc,4,18,Woman,Right,
24,14,1,0.8331919000002017,['c'],1,left,['2'],5,0.6671625999997559,0.2,0,AccAcc,4,18,Woman,Right,
25,14,1,0.8331501999991815,['c'],0,right,['2'],5,0.46719240000038553,0.2,0,AccAcc,4,18,Woman,Right,
26,14,1,0.6005044999992606,['c'],1,left,['2'],5,0.6339981999999509,0.4,0,AccAcc,4,18,Woman,Right,
27,14,1,1.199049699999705,['c'],1,left,['2'],5,0.5506525000000693,0.1,0,AccAcc,4,18,Woman,Right,
28,14,1,0.9659749000002193,['c'],1,left,['2'],5,0.8667831000002479,0.2,0,AccAcc,4,18,Woman,Right,
29,14,1,1.2661309999994046,['c'],1,left,['3'],4,0.7337878999996974,0.1,0,AccAcc,4,18,Woman,Right,
30,14,1,0.9996335999994699,['c'],0,right,['8'],3,0.567289399999936,0.1,0,AccAcc,4,18,Woman,Right,
31,14,1,1.0829417000004469,['n'],0,left,['8'],3,0.4840633000003436,0.4,0,AccAcc,4,18,Woman,Right,
32,14,1,0.9498044000001755,['c'],1,left,['9'],2,0.467214100000092,0.4,0,AccAcc,4,18,Woman,Right,
33,14,1,0.7327338000004602,['c'],1,left,['3'],4,0.6503843999998935,0.1,0,AccAcc,4,18,Woman,Right,
34,14,1,0.6834268000002339,['n'],1,right,['2'],5,0.9504979000003004,0.4,0,AccAcc,4,18,Woman,Right,
35,14,1,0.8160930000003646,['c'],1,left,['2'],5,0.8339003999999477,0.4,0,AccAcc,4,18,Woman,Right,
36,14,1,0.7831769999993412,['n'],1,right,['2'],5,0.6672344999997222,0.4,0,AccAcc,4,18,Woman,Right,
37,14,1,1.0833704999995462,['c'],1,left,['2'],5,0.5838055000003806,0.4,0,AccAcc,4,18,Woman,Right,
38,14,1,0.6999402999999802,['c'],0,right,['2'],5,0.5837100999997347,0.1,0,AccAcc,4,18,Woman,Right,
39,14,1,0.8661167000000205,['n'],1,right,['2'],5,0.750535399999535,0.2,0,AccAcc,4,18,Woman,Right,
40,14,1,0.9997818000001644,['n'],1,right,['9'],2,0.5836199999994278,0.2,0,AccAcc,4,18,Woman,Right,
41,14,1,0.7329339999996591,['n'],1,right,['9'],2,0.7669756000004782,0.2,0,AccAcc,4,18,Woman,Right,
42,14,1,0.8496293000007427,['n'],1,right,['8'],3,0.6172054999997272,0.2,0,AccAcc,4,18,Woman,Right,
43,14,1,0.7832465000001321,['n'],1,right,['3'],4,0.6672097999999096,0.4,0,AccAcc,4,18,Woman,Right,
44,14,1,1.217078799999399,['c'],1,left,['2'],5,0.5505434999995487,0.1,0,AccAcc,4,18,Woman,Right,
45,14,1,0.7492857999995977,['n'],1,right,['2'],5,0.7007665999999517,0.1,0,AccAcc,4,18,Woman,Right,
46,14,1,0.7331503000004886,['n'],1,right,['3'],4,0.5838550999997096,0.1,0,AccAcc,4,18,Woman,Right,
47,14,1,0.6158237999998164,['n'],1,right,['2'],5,0.5840044999995371,0.2,0,AccAcc,4,18,Woman,Right,
48,14,1,0.9495704000000842,['n'],0,left,['8'],3,0.5504702000007455,0.1,0,AccAcc,4,18,Woman,Right,
49,14,1,0.6834593000003224,['c'],1,left,['8'],3,0.5670338999998421,0.2,0,AccAcc,4,18,Woman,Right,
50,14,1,0.5670011000001978,['n'],1,right,['2'],5,0.7506027999997968,0.2,0,AccAcc,4,18,Woman,Right,
51,14,1,0.8497419999994236,['c'],1,left,['9'],2,0.5004564999999275,0.2,0,AccAcc,4,18,Woman,Right,
52,14,1,0.5664286000001084,['n'],1,right,['8'],3,0.61727510000037,0.2,0,AccAcc,4,18,Woman,Right,
53,14,1,0.7328154999995604,['c'],1,left,['2'],5,0.4675433000002158,0.4,0,AccAcc,4,18,Woman,Right,
54,14,1,0.9829252999998062,['n'],0,left,['9'],2,1.0172589000003427,0.1,0,AccAcc,4,18,Woman,Right,
55,14,1,0.6662864999998419,['c'],1,left,['2'],5,1.083645499999875,0.4,0,AccAcc,4,18,Woman,Right,
56,14,1,0.698970599999484,['c'],1,left,['2'],5,0.6172566000004736,0.4,0,AccAcc,4,18,Woman,Right,
57,14,1,0.8497849999994287,['n'],1,right,['9'],2,0.6837345000003552,0.2,0,AccAcc,4,18,Woman,Right,
58,14,1,0.9662460999998075,['c'],1,left,['9'],2,0.46716790000027686,0.2,0,AccAcc,4,18,Woman,Right,
59,14,1,0.9328507999998692,['n'],0,left,['9'],2,0.7003125999999611,0.2,0,AccAcc,4,18,Woman,Right,
0,15,1,0.6327767000002495,['n'],1,right,['2'],5,0.950721600000179,0.4,0,FastAcc,4,18,Woman,Right,
1,15,1,0.6495831000001999,['n'],1,right,['2'],5,0.867409299999963,0.1,0,FastAcc,4,18,Woman,Right,
2,15,1,0.3160895000000892,['n'],0,left,['9'],2,0.717177399999855,0.4,0,FastAcc,4,18,Woman,Right,
3,15,1,0.39960289999999077,['c'],1,left,['8'],3,0.8339357000004384,0.1,0,FastAcc,4,18,Woman,Right,
4,15,1,0.5330350999993243,['n'],1,right,['2'],5,0.7171421999992162,0.4,0,FastAcc,4,18,Woman,Right,
5,15,1,0.46656069999971805,['c'],1,left,['2'],5,1.183859499999926,0.4,0,FastAcc,4,18,Woman,Right,
6,15,1,0.4170594000006531,['c'],1,left,['2'],5,0.6837621000004219,0.1,0,FastAcc,4,18,Woman,Right,
7,15,1,0.9663532999993549,['n'],1,right,['9'],2,0.8171461000001727,0.1,0,FastAcc,4,18,Woman,Right,
8,15,1,0.4829723000002559,['c'],1,left,['2'],5,1.0173727000001236,0.1,0,FastAcc,4,18,Woman,Right,
9,15,1,0.4327517000001535,['n'],1,right,['2'],5,0.9836733000001914,0.2,0,FastAcc,4,18,Woman,Right,
10,15,1,0.43362880000040605,['n'],1,right,['8'],3,0.7843583000003491,0.1,0,FastAcc,4,18,Woman,Right,
11,15,1,0.4500068999996074,['c'],1,left,['9'],2,0.9172379000001456,0.2,0,FastAcc,4,18,Woman,Right,
12,15,1,0.34957529999974213,['c'],1,left,['2'],5,0.7671869000005245,0.4,0,FastAcc,4,18,Woman,Right,
13,15,1,0.36636429999998654,['c'],1,left,['2'],5,0.7339267999996082,0.4,0,FastAcc,4,18,Woman,Right,
14,15,1,0.4164534999999887,['n'],0,left,['8'],3,0.8336925000003248,0.4,0,FastAcc,4,18,Woman,Right,
15,15,1,0.46705949999977747,['n'],1,right,['3'],4,0.717108100000587,0.1,0,FastAcc,4,18,Woman,Right,
16,15,1,0.44963320000078966,['c'],1,left,['2'],5,0.7672632999992857,0.4,0,FastAcc,4,18,Woman,Right,
17,15,1,0.41627670000070793,['c'],0,right,['0'],1,0.933857099999841,0.2,0,FastAcc,4,18,Woman,Right,
18,15,1,0.5330614000004061,['n'],1,right,['8'],3,0.7171803999999611,0.1,0,FastAcc,4,18,Woman,Right,
19,15,1,0.4497478000002957,['c'],0,right,['9'],2,0.9338459999999031,0.2,0,FastAcc,4,18,Woman,Right,
20,15,1,0.4163828000000649,['c'],0,right,['8'],3,0.9172898000006171,0.1,0,FastAcc,4,18,Woman,Right,
21,15,1,0.4159908000001451,['n'],1,right,['8'],3,0.7672505999998975,0.1,0,FastAcc,4,18,Woman,Right,
22,15,1,0.3997578999997131,['c'],1,left,['2'],5,1.083907399999589,0.2,0,FastAcc,4,18,Woman,Right,
23,15,1,0.5495447999992393,['c'],1,left,['3'],4,0.683885200000077,0.1,0,FastAcc,4,18,Woman,Right,
24,15,1,0.5334460000003673,['n'],1,right,['2'],5,0.8671761999994487,0.2,0,FastAcc,4,18,Woman,Right,
25,15,1,0.5335552000005919,['n'],1,right,['2'],5,0.9004733000001579,0.1,0,FastAcc,4,18,Woman,Right,
26,15,1,0.5166621999997005,['n'],0,left,['0'],1,1.4172016999991683,0.1,0,FastAcc,4,18,Woman,Right,
27,15,1,0.4827488999999332,['n'],1,right,['2'],5,0.9837666000003082,0.1,0,FastAcc,4,18,Woman,Right,
28,15,1,0.5998577999998815,['n'],1,right,['2'],5,1.0671775999999227,0.4,0,FastAcc,4,18,Woman,Right,
29,15,1,0.5662546000003204,['c'],1,left,['3'],4,0.9672981000003347,0.2,0,FastAcc,4,18,Woman,Right,
30,15,1,0.36526510000021517,['n'],0,left,['8'],3,0.9671703000003617,0.1,0,FastAcc,4,18,Woman,Right,
31,15,1,0.39960859999973763,['n'],0,left,['9'],2,0.9672497999999905,0.4,0,FastAcc,4,18,Woman,Right,
32,15,1,0.46656290000009903,['n'],0,left,['3'],4,0.9835267999997086,0.4,0,FastAcc,4,18,Woman,Right,
33,15,1,0.4170632999994268,['c'],0,right,['8'],3,0.7674237999999605,0.1,0,FastAcc,4,18,Woman,Right,
34,15,1,0.48347329999978683,['c'],0,right,['3'],4,1.0500390999995943,0.2,0,FastAcc,4,18,Woman,Right,
35,15,1,0.5659788000002663,['n'],0,left,['8'],3,0.7670900000002803,0.2,0,FastAcc,4,18,Woman,Right,
36,15,1,0.41643370000019786,['n'],1,right,['9'],2,1.0340182999998433,0.4,0,FastAcc,4,18,Woman,Right,
37,15,1,0.3829137000002447,['c'],0,right,['3'],4,1.1004656000004616,0.2,0,FastAcc,4,18,Woman,Right,
38,15,1,0.38295600000037666,['c'],1,left,['8'],3,0.767572900000232,0.4,0,FastAcc,4,18,Woman,Right,
39,15,1,0.3995159000005515,['c'],0,right,['0'],1,0.8672413000003871,0.4,0,FastAcc,4,18,Woman,Right,
40,15,1,0.5165139999999155,['n'],0,left,['9'],2,0.883950399999776,0.4,0,FastAcc,4,18,Woman,Right,
41,15,1,0.4497905999996874,['c'],1,left,['8'],3,0.8005122000004121,0.2,0,FastAcc,4,18,Woman,Right,
42,15,1,0.349668599999859,['n'],0,left,['8'],3,0.8340219000001525,0.1,0,FastAcc,4,18,Woman,Right,
43,15,1,0.38315809999949124,['c'],1,left,['8'],3,0.7170830999993996,0.2,0,FastAcc,4,18,Woman,Right,
44,15,1,0.3664643000001888,['c'],0,right,['0'],1,0.8171830000001137,0.4,0,FastAcc,4,18,Woman,Right,
45,15,1,0.3996480000005249,['n'],1,right,['2'],5,0.6839562999994087,0.2,0,FastAcc,4,18,Woman,Right,
46,15,1,0.46650320000026113,['c'],1,left,['2'],5,0.7005183999999645,0.2,0,FastAcc,4,18,Woman,Right,
47,15,1,0.5335403999997652,['n'],1,right,['3'],4,0.6671088000002783,0.2,0,FastAcc,4,18,Woman,Right,
48,15,1,0.5496313000003283,['c'],1,left,['8'],3,0.5840342999999848,0.4,0,FastAcc,4,18,Woman,Right,
49,15,1,0.46659340000041993,['c'],1,left,['2'],5,1.017204299999321,0.4,0,FastAcc,4,18,Woman,Right,
50,15,1,0.44929640000009385,['n'],1,right,['2'],5,0.7338464000004024,0.2,0,FastAcc,4,18,Woman,Right,
51,15,1,0.49960139999984676,['n'],0,left,['3'],4,0.6338374000006297,0.2,0,FastAcc,4,18,Woman,Right,
52,15,1,0.43283879999944475,['c'],1,left,['9'],2,0.7669546999995873,0.1,0,FastAcc,4,18,Woman,Right,
53,15,1,0.4497717999993256,['n'],0,left,['8'],3,0.6838492999995651,0.1,0,FastAcc,4,18,Woman,Right,
54,15,1,0.4490453999997044,['c'],1,left,['2'],5,0.5006544000007125,0.2,0,FastAcc,4,18,Woman,Right,
55,15,1,0.4991110999999364,['n'],1,right,['2'],5,0.8004326999998739,0.4,0,FastAcc,4,18,Woman,Right,
56,15,1,0.48282779999954073,['n'],1,right,['8'],3,0.6506741000002876,0.2,0,FastAcc,4,18,Woman,Right,
57,15,1,0.5664022000000841,['n'],1,right,['2'],5,0.533965999999964,0.2,0,FastAcc,4,18,Woman,Right,
58,15,1,0.4663609000008364,['n'],1,right,['8'],3,0.48388710000017454,0.1,0,FastAcc,4,18,Woman,Right,
59,15,1,0.3986182999997254,['n'],1,right,['2'],5,0.5840419000005568,0.4,0,FastAcc,4,18,Woman,Right,
