withinblocktrial,block,block_repetition,rt,resp,cor,cresp,conf_press,cj,rtconf,coherence,slow_trial,manipulation,sub,age,gender,handedness,
0,1,1,2.1332941000000574,['c'],0,right,none,-99,-99,0.5,0,none,6,18,Woman,Right,
1,1,1,2.2667293999998037,['c'],1,left,none,-99,-99,0.5,0,none,6,18,Woman,Right,
2,1,1,3.33249109999997,['n'],0,left,none,-99,-99,0.5,0,none,6,18,Woman,Right,
3,1,1,4.616694699999925,['c'],0,right,none,-99,-99,0.5,0,none,6,18,Woman,Right,
4,1,1,2.616769500000146,['c'],1,left,none,-99,-99,0.5,0,none,6,18,Woman,Right,
5,1,1,5.0163259000000835,x,-99,left,none,-99,-99,0.5,1,none,6,18,Woman,Right,
6,1,1,1.4160374999999021,['c'],1,left,none,-99,-99,0.5,0,none,6,18,Woman,Right,
7,1,1,1.4672003000000586,['n'],1,right,none,-99,-99,0.5,0,none,6,18,Woman,Right,
8,1,1,2.5330117000000882,['c'],0,right,none,-99,-99,0.5,0,none,6,18,Woman,Right,
9,1,1,1.249507900000026,['c'],1,left,none,-99,-99,0.5,0,none,6,18,Woman,Right,
10,1,1,1.1830629000000954,['n'],1,right,none,-99,-99,0.5,0,none,6,18,Woman,Right,
11,1,1,1.8667974999998478,['c'],0,right,none,-99,-99,0.5,0,none,6,18,Woman,Right,
12,1,1,1.5495515000000069,['c'],1,left,none,-99,-99,0.5,0,none,6,18,Woman,Right,
13,1,1,4.399910400000181,['c'],1,left,none,-99,-99,0.5,0,none,6,18,Woman,Right,
14,1,1,1.5165991999999733,['n'],1,right,none,-99,-99,0.5,0,none,6,18,Woman,Right,
15,1,1,2.0000356999998985,['n'],0,left,none,-99,-99,0.5,0,none,6,18,Woman,Right,
16,1,1,0.9833319000001666,['c'],1,left,none,-99,-99,0.5,0,none,6,18,Woman,Right,
17,1,1,2.4996673000000555,['n'],1,right,none,-99,-99,0.5,0,none,6,18,Woman,Right,
18,1,1,1.382610399999976,['c'],0,right,none,-99,-99,0.5,0,none,6,18,Woman,Right,
19,1,1,4.149384800000007,['n'],1,right,none,-99,-99,0.5,0,none,6,18,Woman,Right,
20,1,1,2.2324676000000636,['n'],1,right,none,-99,-99,0.5,0,none,6,18,Woman,Right,
21,1,1,2.466252899999972,['n'],1,right,none,-99,-99,0.5,0,none,6,18,Woman,Right,
22,1,1,1.383556100000078,['c'],1,left,none,-99,-99,0.5,0,none,6,18,Woman,Right,
23,1,1,1.9664993000001232,['n'],0,left,none,-99,-99,0.5,0,none,6,18,Woman,Right,
0,1,2,1.5661514000000807,['c'],1,left,none,-99,-99,0.5,0,none,6,18,Woman,Right,
1,1,2,0.9830007999998998,['n'],0,left,none,-99,-99,0.5,0,none,6,18,Woman,Right,
2,1,2,1.3830192999998872,['n'],1,right,none,-99,-99,0.5,0,none,6,18,Woman,Right,
3,1,2,1.0168321000001015,['c'],1,left,none,-99,-99,0.5,0,none,6,18,Woman,Right,
4,1,2,1.4992070999999214,['c'],1,left,none,-99,-99,0.5,0,none,6,18,Woman,Right,
5,1,2,0.8665582000000995,['n'],1,right,none,-99,-99,0.5,0,none,6,18,Woman,Right,
6,1,2,1.0998930999999175,['c'],0,right,none,-99,-99,0.5,0,none,6,18,Woman,Right,
7,1,2,0.9818611999999121,['c'],1,left,none,-99,-99,0.5,0,none,6,18,Woman,Right,
8,1,2,0.9994203000001107,['n'],0,left,none,-99,-99,0.5,0,none,6,18,Woman,Right,
9,1,2,0.9500958999999511,['c'],1,left,none,-99,-99,0.5,0,none,6,18,Woman,Right,
10,1,2,1.1495834999998351,['n'],0,left,none,-99,-99,0.5,0,none,6,18,Woman,Right,
11,1,2,0.9996747000000141,['c'],0,right,none,-99,-99,0.5,0,none,6,18,Woman,Right,
12,1,2,0.8671308000000408,['c'],0,right,none,-99,-99,0.5,0,none,6,18,Woman,Right,
13,1,2,1.3824486000000888,['n'],1,right,none,-99,-99,0.5,0,none,6,18,Woman,Right,
14,1,2,0.9842883999999685,['n'],1,right,none,-99,-99,0.5,0,none,6,18,Woman,Right,
15,1,2,0.9832937999999558,['c'],1,left,none,-99,-99,0.5,0,none,6,18,Woman,Right,
16,1,2,0.8659344000000146,['n'],0,left,none,-99,-99,0.5,0,none,6,18,Woman,Right,
17,1,2,0.8330367999999453,['c'],1,left,none,-99,-99,0.5,0,none,6,18,Woman,Right,
18,1,2,1.0499798999999257,['n'],1,right,none,-99,-99,0.5,0,none,6,18,Woman,Right,
19,1,2,1.233420199999955,['n'],1,right,none,-99,-99,0.5,0,none,6,18,Woman,Right,
20,1,2,0.9165012000000843,['n'],0,left,none,-99,-99,0.5,0,none,6,18,Woman,Right,
21,1,2,1.3332706999999573,['n'],1,right,none,-99,-99,0.5,0,none,6,18,Woman,Right,
22,1,2,1.034702100000004,['n'],1,right,none,-99,-99,0.5,0,none,6,18,Woman,Right,
23,1,2,0.7999879999999848,['c'],0,right,none,-99,-99,0.5,0,none,6,18,Woman,Right,
0,1,3,1.4501310999999077,['n'],0,left,none,-99,-99,0.5,0,none,6,18,Woman,Right,
1,1,3,0.9327451999999994,['n'],1,right,none,-99,-99,0.5,0,none,6,18,Woman,Right,
2,1,3,0.7841300999998566,['c'],1,left,none,-99,-99,0.5,0,none,6,18,Woman,Right,
3,1,3,2.3000765000001593,['c'],1,left,none,-99,-99,0.5,0,none,6,18,Woman,Right,
4,1,3,0.7662861000001158,['n'],1,right,none,-99,-99,0.5,0,none,6,18,Woman,Right,
5,1,3,0.9837574000000586,['c'],1,left,none,-99,-99,0.5,0,none,6,18,Woman,Right,
6,1,3,1.0173867000000882,['n'],0,left,none,-99,-99,0.5,0,none,6,18,Woman,Right,
7,1,3,0.899907500000154,['c'],1,left,none,-99,-99,0.5,0,none,6,18,Woman,Right,
8,1,3,0.8999595000000227,['n'],1,right,none,-99,-99,0.5,0,none,6,18,Woman,Right,
9,1,3,0.7672526999999718,['n'],1,right,none,-99,-99,0.5,0,none,6,18,Woman,Right,
10,1,3,0.9166333000000577,['n'],1,right,none,-99,-99,0.5,0,none,6,18,Woman,Right,
11,1,3,1.3831233000000793,['c'],1,left,none,-99,-99,0.5,0,none,6,18,Woman,Right,
12,1,3,0.7503458999999566,['n'],0,left,none,-99,-99,0.5,0,none,6,18,Woman,Right,
13,1,3,0.8002701999998862,['n'],1,right,none,-99,-99,0.5,0,none,6,18,Woman,Right,
14,1,3,0.8170149000000038,['n'],1,right,none,-99,-99,0.5,0,none,6,18,Woman,Right,
15,1,3,1.617035900000019,['c'],1,left,none,-99,-99,0.5,0,none,6,18,Woman,Right,
16,1,3,0.7997164000000794,['n'],1,right,none,-99,-99,0.5,0,none,6,18,Woman,Right,
17,1,3,0.8007462000000487,['n'],1,right,none,-99,-99,0.5,0,none,6,18,Woman,Right,
18,1,3,0.8164154999999482,['c'],0,right,none,-99,-99,0.5,0,none,6,18,Woman,Right,
19,1,3,0.6668548000000101,['n'],1,right,none,-99,-99,0.5,0,none,6,18,Woman,Right,
20,1,3,0.8166258000001108,['c'],1,left,none,-99,-99,0.5,0,none,6,18,Woman,Right,
21,1,3,0.8660753999999997,['c'],1,left,none,-99,-99,0.5,0,none,6,18,Woman,Right,
22,1,3,0.8172296999998707,['n'],1,right,none,-99,-99,0.5,0,none,6,18,Woman,Right,
23,1,3,0.7325897000000623,['c'],1,left,none,-99,-99,0.5,0,none,6,18,Woman,Right,
0,1,4,1.0160940000000664,['c'],1,left,none,-99,-99,0.5,0,none,6,18,Woman,Right,
1,1,4,1.816587600000048,['n'],1,right,none,-99,-99,0.5,0,none,6,18,Woman,Right,
2,1,4,0.7331718000000365,['c'],1,left,none,-99,-99,0.5,0,none,6,18,Woman,Right,
3,1,4,1.2666400000000522,['c'],1,left,none,-99,-99,0.5,0,none,6,18,Woman,Right,
4,1,4,0.7998626000000968,['n'],1,right,none,-99,-99,0.5,0,none,6,18,Woman,Right,
5,1,4,0.733854699999938,['c'],0,right,none,-99,-99,0.5,0,none,6,18,Woman,Right,
6,1,4,0.7656853999999385,['n'],1,right,none,-99,-99,0.5,0,none,6,18,Woman,Right,
7,1,4,0.7665979999999308,['c'],1,left,none,-99,-99,0.5,0,none,6,18,Woman,Right,
8,1,4,0.9997783000001164,['n'],0,left,none,-99,-99,0.5,0,none,6,18,Woman,Right,
9,1,4,0.6833200000000943,['n'],1,right,none,-99,-99,0.5,0,none,6,18,Woman,Right,
10,1,4,0.9169552999999269,['n'],1,right,none,-99,-99,0.5,0,none,6,18,Woman,Right,
11,1,4,1.3660466999999699,['c'],0,right,none,-99,-99,0.5,0,none,6,18,Woman,Right,
12,1,4,0.6835157000000436,['n'],1,right,none,-99,-99,0.5,0,none,6,18,Woman,Right,
13,1,4,0.7501448000000437,['c'],1,left,none,-99,-99,0.5,0,none,6,18,Woman,Right,
14,1,4,0.7833788000000368,['c'],1,left,none,-99,-99,0.5,0,none,6,18,Woman,Right,
15,1,4,0.7168684000000667,['c'],1,left,none,-99,-99,0.5,0,none,6,18,Woman,Right,
16,1,4,2.06668569999988,['c'],1,left,none,-99,-99,0.5,0,none,6,18,Woman,Right,
17,1,4,0.7505853000000116,['c'],1,left,none,-99,-99,0.5,0,none,6,18,Woman,Right,
18,1,4,0.9830769000000146,['c'],0,right,none,-99,-99,0.5,0,none,6,18,Woman,Right,
19,1,4,0.9002295999998751,['c'],0,right,none,-99,-99,0.5,0,none,6,18,Woman,Right,
20,1,4,2.3832876999999826,['c'],1,left,none,-99,-99,0.5,0,none,6,18,Woman,Right,
21,1,4,0.9836189999998624,['n'],1,right,none,-99,-99,0.5,0,none,6,18,Woman,Right,
22,1,4,0.716285599999992,['c'],1,left,none,-99,-99,0.5,0,none,6,18,Woman,Right,
23,1,4,0.7837015000000065,['n'],1,right,none,-99,-99,0.5,0,none,6,18,Woman,Right,
0,1,5,1.1007070000000567,['c'],0,right,none,-99,-99,0.5,0,none,6,18,Woman,Right,
1,1,5,0.9840902000000824,['c'],1,left,none,-99,-99,0.5,0,none,6,18,Woman,Right,
2,1,5,1.1660793000000922,['c'],1,left,none,-99,-99,0.5,0,none,6,18,Woman,Right,
3,1,5,2.483012400000007,['c'],1,left,none,-99,-99,0.5,0,none,6,18,Woman,Right,
4,1,5,1.482597700000042,['n'],0,left,none,-99,-99,0.5,0,none,6,18,Woman,Right,
5,1,5,0.9491759000000002,['n'],1,right,none,-99,-99,0.5,0,none,6,18,Woman,Right,
6,1,5,1.2657742999999755,['n'],0,left,none,-99,-99,0.5,0,none,6,18,Woman,Right,
7,1,5,1.0821791000000758,['n'],0,left,none,-99,-99,0.5,0,none,6,18,Woman,Right,
8,1,5,1.249394299999949,['n'],1,right,none,-99,-99,0.5,0,none,6,18,Woman,Right,
9,1,5,1.016143300000067,['n'],1,right,none,-99,-99,0.5,0,none,6,18,Woman,Right,
10,1,5,1.383208599999989,['n'],1,right,none,-99,-99,0.5,0,none,6,18,Woman,Right,
11,1,5,1.5172191999999995,['n'],1,right,none,-99,-99,0.5,0,none,6,18,Woman,Right,
12,1,5,1.4995298000001185,['c'],1,left,none,-99,-99,0.5,0,none,6,18,Woman,Right,
13,1,5,0.8483891999999287,['n'],1,right,none,-99,-99,0.5,0,none,6,18,Woman,Right,
14,1,5,2.4995521999999255,['c'],0,right,none,-99,-99,0.5,0,none,6,18,Woman,Right,
15,1,5,1.383071500000142,['c'],1,left,none,-99,-99,0.5,0,none,6,18,Woman,Right,
16,1,5,0.9664843000000474,['n'],1,right,none,-99,-99,0.5,0,none,6,18,Woman,Right,
17,1,5,1.2997533999998723,['n'],0,left,none,-99,-99,0.5,0,none,6,18,Woman,Right,
18,1,5,1.266474799999969,['c'],0,right,none,-99,-99,0.5,0,none,6,18,Woman,Right,
19,1,5,1.217302600000039,['c'],1,left,none,-99,-99,0.5,0,none,6,18,Woman,Right,
20,1,5,3.16706709999994,['c'],0,right,none,-99,-99,0.5,0,none,6,18,Woman,Right,
21,1,5,0.7343432000000121,['c'],1,left,none,-99,-99,0.5,0,none,6,18,Woman,Right,
22,1,5,2.6825644000000466,['c'],1,left,none,-99,-99,0.5,0,none,6,18,Woman,Right,
23,1,5,1.1330008999998427,['c'],0,right,none,-99,-99,0.5,0,none,6,18,Woman,Right,
0,1,6,1.2001111000001856,['c'],1,left,none,-99,-99,0.5,0,none,6,18,Woman,Right,
1,1,6,1.2326141999999436,['c'],0,right,none,-99,-99,0.5,0,none,6,18,Woman,Right,
2,1,6,1.0505275000000438,['c'],1,left,none,-99,-99,0.5,0,none,6,18,Woman,Right,
3,1,6,1.2657972000001791,['c'],1,left,none,-99,-99,0.5,0,none,6,18,Woman,Right,
4,1,6,1.9836976999999933,['n'],1,right,none,-99,-99,0.5,0,none,6,18,Woman,Right,
5,1,6,2.0329643000000033,['c'],1,left,none,-99,-99,0.5,0,none,6,18,Woman,Right,
6,1,6,1.3005871000000297,['n'],0,left,none,-99,-99,0.5,0,none,6,18,Woman,Right,
7,1,6,0.9335284000001138,['c'],1,left,none,-99,-99,0.5,0,none,6,18,Woman,Right,
8,1,6,1.1000765000001138,['c'],1,left,none,-99,-99,0.5,0,none,6,18,Woman,Right,
9,1,6,1.2993573000001106,['n'],1,right,none,-99,-99,0.5,0,none,6,18,Woman,Right,
10,1,6,1.0993329000000358,['n'],1,right,none,-99,-99,0.5,0,none,6,18,Woman,Right,
11,1,6,1.0158682000001136,['c'],1,left,none,-99,-99,0.5,0,none,6,18,Woman,Right,
12,1,6,0.9334516999999778,['n'],1,right,none,-99,-99,0.5,0,none,6,18,Woman,Right,
13,1,6,0.9157854000000043,['c'],0,right,none,-99,-99,0.5,0,none,6,18,Woman,Right,
14,1,6,0.8500096999998732,['c'],0,right,none,-99,-99,0.5,0,none,6,18,Woman,Right,
15,1,6,0.9994609999998829,['n'],1,right,none,-99,-99,0.5,0,none,6,18,Woman,Right,
16,1,6,0.7829988999999387,['c'],1,left,none,-99,-99,0.5,0,none,6,18,Woman,Right,
17,1,6,1.0161278000000493,['n'],1,right,none,-99,-99,0.5,0,none,6,18,Woman,Right,
18,1,6,1.299962300000061,['c'],1,left,none,-99,-99,0.5,0,none,6,18,Woman,Right,
19,1,6,0.9828330000000278,['c'],1,left,none,-99,-99,0.5,0,none,6,18,Woman,Right,
20,1,6,1.1166090000001532,['n'],1,right,none,-99,-99,0.5,0,none,6,18,Woman,Right,
21,1,6,1.1824584999999388,['n'],1,right,none,-99,-99,0.5,0,none,6,18,Woman,Right,
22,1,6,0.8331785000000309,['c'],0,right,none,-99,-99,0.5,0,none,6,18,Woman,Right,
23,1,6,1.1000283999999283,['n'],0,left,none,-99,-99,0.5,0,none,6,18,Woman,Right,
0,1,7,1.6494740000000547,['n'],1,right,none,-99,-99,0.5,0,none,6,18,Woman,Right,
1,1,7,0.6664808000000448,['c'],1,left,none,-99,-99,0.5,0,none,6,18,Woman,Right,
2,1,7,1.1824017999999796,['n'],1,right,none,-99,-99,0.5,0,none,6,18,Woman,Right,
3,1,7,0.6501581999998507,['c'],1,left,none,-99,-99,0.5,0,none,6,18,Woman,Right,
4,1,7,0.8170235000000048,['c'],1,left,none,-99,-99,0.5,0,none,6,18,Woman,Right,
5,1,7,0.9833912999999939,['c'],0,right,none,-99,-99,0.5,0,none,6,18,Woman,Right,
6,1,7,0.8167131000000154,['c'],0,right,none,-99,-99,0.5,0,none,6,18,Woman,Right,
7,1,7,0.7497859999998582,['c'],1,left,none,-99,-99,0.5,0,none,6,18,Woman,Right,
8,1,7,0.8326881000000412,['c'],0,right,none,-99,-99,0.5,0,none,6,18,Woman,Right,
9,1,7,1.1989117999999053,['n'],0,left,none,-99,-99,0.5,0,none,6,18,Woman,Right,
10,1,7,0.7473931000001812,['c'],0,right,none,-99,-99,0.5,0,none,6,18,Woman,Right,
11,1,7,0.7293340000001081,['c'],1,left,none,-99,-99,0.5,0,none,6,18,Woman,Right,
12,1,7,0.7633668000000853,['c'],0,right,none,-99,-99,0.5,0,none,6,18,Woman,Right,
13,1,7,0.7144309000000248,['n'],1,right,none,-99,-99,0.5,0,none,6,18,Woman,Right,
14,1,7,0.7480755999999928,['c'],0,right,none,-99,-99,0.5,0,none,6,18,Woman,Right,
15,1,7,0.745999299999994,['c'],1,left,none,-99,-99,0.5,0,none,6,18,Woman,Right,
16,1,7,0.8481071999999585,['c'],0,right,none,-99,-99,0.5,0,none,6,18,Woman,Right,
17,1,7,0.8645081000001937,['c'],1,left,none,-99,-99,0.5,0,none,6,18,Woman,Right,
18,1,7,0.8805098000000271,['n'],0,left,none,-99,-99,0.5,0,none,6,18,Woman,Right,
19,1,7,0.6977007000000413,['c'],1,left,none,-99,-99,0.5,0,none,6,18,Woman,Right,
20,1,7,0.8142104999999447,['n'],1,right,none,-99,-99,0.5,0,none,6,18,Woman,Right,
21,1,7,1.046476999999868,['n'],1,right,none,-99,-99,0.5,0,none,6,18,Woman,Right,
22,1,7,0.7632449000000179,['c'],1,left,none,-99,-99,0.5,0,none,6,18,Woman,Right,
23,1,7,1.0975722999999107,['n'],0,left,none,-99,-99,0.5,0,none,6,18,Woman,Right,
0,1,8,0.7495520999998462,['c'],1,left,none,-99,-99,0.5,0,none,6,18,Woman,Right,
1,1,8,1.2469726000001629,['c'],1,left,none,-99,-99,0.5,0,none,6,18,Woman,Right,
2,1,8,1.1126153000000158,['c'],0,right,none,-99,-99,0.5,0,none,6,18,Woman,Right,
3,1,8,1.2466864999998961,['n'],1,right,none,-99,-99,0.5,0,none,6,18,Woman,Right,
4,1,8,0.7967071999999007,['c'],0,right,none,-99,-99,0.5,0,none,6,18,Woman,Right,
5,1,8,0.9979759000000286,['c'],1,left,none,-99,-99,0.5,0,none,6,18,Woman,Right,
6,1,8,1.014962100000048,['n'],1,right,none,-99,-99,0.5,0,none,6,18,Woman,Right,
7,1,8,0.9468257999999423,['c'],1,left,none,-99,-99,0.5,0,none,6,18,Woman,Right,
8,1,8,1.3158427000000756,['n'],0,left,none,-99,-99,0.5,0,none,6,18,Woman,Right,
9,1,8,0.6972875999999815,['c'],1,left,none,-99,-99,0.5,0,none,6,18,Woman,Right,
10,1,8,0.8642006999998557,['c'],1,left,none,-99,-99,0.5,0,none,6,18,Woman,Right,
11,1,8,0.8470045999999911,['n'],1,right,none,-99,-99,0.5,0,none,6,18,Woman,Right,
12,1,8,1.0152693,['c'],0,right,none,-99,-99,0.5,0,none,6,18,Woman,Right,
13,1,8,0.7483660999998847,['n'],1,right,none,-99,-99,0.5,0,none,6,18,Woman,Right,
14,1,8,1.2294885999999678,['n'],1,right,none,-99,-99,0.5,0,none,6,18,Woman,Right,
15,1,8,0.8163070000000516,['c'],1,left,none,-99,-99,0.5,0,none,6,18,Woman,Right,
16,1,8,0.8965640000001258,['c'],1,left,none,-99,-99,0.5,0,none,6,18,Woman,Right,
17,1,8,0.7463603000001058,['c'],1,left,none,-99,-99,0.5,0,none,6,18,Woman,Right,
18,1,8,0.762914099999989,['c'],1,left,none,-99,-99,0.5,0,none,6,18,Woman,Right,
19,1,8,0.730741099999932,['n'],1,right,none,-99,-99,0.5,0,none,6,18,Woman,Right,
20,1,8,0.6143606000000545,['c'],0,right,none,-99,-99,0.5,0,none,6,18,Woman,Right,
21,1,8,1.0808415999999852,['c'],1,left,none,-99,-99,0.5,0,none,6,18,Woman,Right,
22,1,8,0.9148824999999761,['n'],1,right,none,-99,-99,0.5,0,none,6,18,Woman,Right,
23,1,8,0.6473702999999205,['c'],0,right,none,-99,-99,0.5,0,none,6,18,Woman,Right,
0,1,9,0.7824336999999559,['c'],0,right,none,-99,-99,0.5,0,none,6,18,Woman,Right,
1,1,9,0.8797930999999153,['c'],1,left,none,-99,-99,0.5,0,none,6,18,Woman,Right,
2,1,9,0.8479237999999896,['n'],1,right,none,-99,-99,0.5,0,none,6,18,Woman,Right,
3,1,9,1.2479307999999492,['c'],0,right,none,-99,-99,0.5,0,none,6,18,Woman,Right,
4,1,9,0.7317952999999306,['c'],0,right,none,-99,-99,0.5,0,none,6,18,Woman,Right,
5,1,9,0.914049999999861,['c'],0,right,none,-99,-99,0.5,0,none,6,18,Woman,Right,
6,1,9,1.1961989999999787,['c'],1,left,none,-99,-99,0.5,0,none,6,18,Woman,Right,
7,1,9,1.2644416999999066,['n'],0,left,none,-99,-99,0.5,0,none,6,18,Woman,Right,
8,1,9,0.7796571999999742,['c'],0,right,none,-99,-99,0.5,0,none,6,18,Woman,Right,
9,1,9,0.7801297000000886,['c'],0,right,none,-99,-99,0.5,0,none,6,18,Woman,Right,
10,1,9,1.130703799999992,['n'],0,left,none,-99,-99,0.5,0,none,6,18,Woman,Right,
11,1,9,0.8472960000001422,['c'],1,left,none,-99,-99,0.5,0,none,6,18,Woman,Right,
12,1,9,0.9294855000000553,['c'],0,right,none,-99,-99,0.5,0,none,6,18,Woman,Right,
13,1,9,0.8123634999999467,['c'],1,left,none,-99,-99,0.5,0,none,6,18,Woman,Right,
14,1,9,1.1494646000001012,['n'],0,left,none,-99,-99,0.5,0,none,6,18,Woman,Right,
15,1,9,1.2315722000000733,['n'],1,right,none,-99,-99,0.5,0,none,6,18,Woman,Right,
16,1,9,0.9477042999999412,['c'],1,left,none,-99,-99,0.5,0,none,6,18,Woman,Right,
17,1,9,1.0478458999998566,['n'],0,left,none,-99,-99,0.5,0,none,6,18,Woman,Right,
18,1,9,1.0466105000000425,['n'],1,right,none,-99,-99,0.5,0,none,6,18,Woman,Right,
19,1,9,1.2146167000000787,['n'],1,right,none,-99,-99,0.5,0,none,6,18,Woman,Right,
20,1,9,0.9800325000001067,['c'],1,left,none,-99,-99,0.5,0,none,6,18,Woman,Right,
21,1,9,1.0814045000001897,['n'],1,right,none,-99,-99,0.5,0,none,6,18,Woman,Right,
22,1,9,0.9310793000001922,['c'],1,left,none,-99,-99,0.5,0,none,6,18,Woman,Right,
23,1,9,1.199056100000007,['n'],0,left,none,-99,-99,0.5,0,none,6,18,Woman,Right,
0,1,10,1.0827949999998054,['n'],0,left,none,-99,-99,0.5,0,none,6,18,Woman,Right,
1,1,10,0.9296615000000656,['c'],0,right,none,-99,-99,0.5,0,none,6,18,Woman,Right,
2,1,10,1.4482244999999239,['n'],0,left,none,-99,-99,0.5,0,none,6,18,Woman,Right,
3,1,10,1.1492951000000176,['c'],0,right,none,-99,-99,0.5,0,none,6,18,Woman,Right,
4,1,10,1.1313240999998015,['c'],1,left,none,-99,-99,0.5,0,none,6,18,Woman,Right,
5,1,10,1.1141670000001795,['n'],1,right,none,-99,-99,0.5,0,none,6,18,Woman,Right,
6,1,10,1.4644594999999754,['c'],1,left,none,-99,-99,0.5,0,none,6,18,Woman,Right,
7,1,10,0.9144768999999542,['n'],1,right,none,-99,-99,0.5,0,none,6,18,Woman,Right,
8,1,10,1.1805382000000009,['n'],0,left,none,-99,-99,0.5,0,none,6,18,Woman,Right,
9,1,10,1.1126271999999062,['c'],1,left,none,-99,-99,0.5,0,none,6,18,Woman,Right,
10,1,10,0.866108899999972,['n'],1,right,none,-99,-99,0.5,0,none,6,18,Woman,Right,
11,1,10,1.081948999999895,['n'],0,left,none,-99,-99,0.5,0,none,6,18,Woman,Right,
12,1,10,1.0139085000000705,['n'],1,right,none,-99,-99,0.5,0,none,6,18,Woman,Right,
13,1,10,0.8308128999999553,['c'],1,left,none,-99,-99,0.5,0,none,6,18,Woman,Right,
14,1,10,0.780895399999963,['n'],1,right,none,-99,-99,0.5,0,none,6,18,Woman,Right,
15,1,10,0.8460674999998901,['c'],1,left,none,-99,-99,0.5,0,none,6,18,Woman,Right,
16,1,10,0.9465821999999662,['c'],1,left,none,-99,-99,0.5,0,none,6,18,Woman,Right,
17,1,10,0.6463454000002002,['n'],1,right,none,-99,-99,0.5,0,none,6,18,Woman,Right,
18,1,10,0.747645700000021,['c'],1,left,none,-99,-99,0.5,0,none,6,18,Woman,Right,
19,1,10,0.7800216000000546,['n'],1,right,none,-99,-99,0.5,0,none,6,18,Woman,Right,
20,1,10,0.8135995000000094,['n'],1,right,none,-99,-99,0.5,0,none,6,18,Woman,Right,
21,1,10,0.9472582999999304,['c'],1,left,none,-99,-99,0.5,0,none,6,18,Woman,Right,
22,1,10,0.7142142000000149,['n'],1,right,none,-99,-99,0.5,0,none,6,18,Woman,Right,
23,1,10,0.6960930999998709,['c'],0,right,none,-99,-99,0.5,0,none,6,18,Woman,Right,
0,1,11,0.7166116999999304,['c'],0,right,none,-99,-99,0.5,0,none,6,18,Woman,Right,
1,1,11,0.8308293000000049,['n'],1,right,none,-99,-99,0.5,0,none,6,18,Woman,Right,
2,1,11,0.5796411999999691,['c'],1,left,none,-99,-99,0.5,0,none,6,18,Woman,Right,
3,1,11,0.6476807999999892,['c'],1,left,none,-99,-99,0.5,0,none,6,18,Woman,Right,
4,1,11,1.0144755000001169,['c'],1,left,none,-99,-99,0.5,0,none,6,18,Woman,Right,
5,1,11,0.5980819000001247,['n'],1,right,none,-99,-99,0.5,0,none,6,18,Woman,Right,
6,1,11,0.7314372000000731,['c'],1,left,none,-99,-99,0.5,0,none,6,18,Woman,Right,
7,1,11,0.6659927999999127,['n'],1,right,none,-99,-99,0.5,0,none,6,18,Woman,Right,
8,1,11,0.5998951999999917,['c'],1,left,none,-99,-99,0.5,0,none,6,18,Woman,Right,
9,1,11,0.7147414000000936,['c'],1,left,none,-99,-99,0.5,0,none,6,18,Woman,Right,
10,1,11,1.0473190000000159,['n'],0,left,none,-99,-99,0.5,0,none,6,18,Woman,Right,
11,1,11,0.7138744999999744,['c'],0,right,none,-99,-99,0.5,0,none,6,18,Woman,Right,
12,1,11,0.6651251999999204,['n'],1,right,none,-99,-99,0.5,0,none,6,18,Woman,Right,
13,1,11,1.0640478999998777,['n'],1,right,none,-99,-99,0.5,0,none,6,18,Woman,Right,
14,1,11,0.6993764999999712,['c'],1,left,none,-99,-99,0.5,0,none,6,18,Woman,Right,
15,1,11,0.7641057000000728,['n'],1,right,none,-99,-99,0.5,0,none,6,18,Woman,Right,
16,1,11,0.6970130999998219,['c'],1,left,none,-99,-99,0.5,0,none,6,18,Woman,Right,
17,1,11,0.6646250999999666,['c'],1,left,none,-99,-99,0.5,0,none,6,18,Woman,Right,
18,1,11,0.7148747999999614,['n'],1,right,none,-99,-99,0.5,0,none,6,18,Woman,Right,
19,1,11,0.7486515999999028,['n'],1,right,none,-99,-99,0.5,0,none,6,18,Woman,Right,
20,1,11,0.5642993999999817,['n'],0,left,none,-99,-99,0.5,0,none,6,18,Woman,Right,
21,1,11,0.6963803000001008,['c'],1,left,none,-99,-99,0.5,0,none,6,18,Woman,Right,
22,1,11,0.680091000000175,['n'],1,right,none,-99,-99,0.5,0,none,6,18,Woman,Right,
23,1,11,0.9814891000000898,['n'],1,right,none,-99,-99,0.5,0,none,6,18,Woman,Right,
0,1,12,0.7324754000001121,['n'],0,left,none,-99,-99,0.5,0,none,6,18,Woman,Right,
1,1,12,0.6133795000000646,['c'],1,left,none,-99,-99,0.5,0,none,6,18,Woman,Right,
2,1,12,0.7647134999999707,['c'],1,left,none,-99,-99,0.5,0,none,6,18,Woman,Right,
3,1,12,0.9141228000000865,['n'],1,right,none,-99,-99,0.5,0,none,6,18,Woman,Right,
4,1,12,0.5809959999999137,['c'],1,left,none,-99,-99,0.5,0,none,6,18,Woman,Right,
5,1,12,0.6804124000000229,['c'],1,left,none,-99,-99,0.5,0,none,6,18,Woman,Right,
6,1,12,0.9492056999999932,['c'],1,left,none,-99,-99,0.5,0,none,6,18,Woman,Right,
7,1,12,0.915883200000053,['c'],1,left,none,-99,-99,0.5,0,none,6,18,Woman,Right,
8,1,12,1.2642915999999786,['n'],0,left,none,-99,-99,0.5,0,none,6,18,Woman,Right,
9,1,12,0.9808325999999852,['n'],1,right,none,-99,-99,0.5,0,none,6,18,Woman,Right,
10,1,12,0.6133025000001453,['c'],0,right,none,-99,-99,0.5,0,none,6,18,Woman,Right,
11,1,12,1.1480746999998246,['n'],1,right,none,-99,-99,0.5,0,none,6,18,Woman,Right,
12,1,12,0.615429899999981,['c'],0,right,none,-99,-99,0.5,0,none,6,18,Woman,Right,
13,1,12,0.8652475999999751,['n'],1,right,none,-99,-99,0.5,0,none,6,18,Woman,Right,
14,1,12,0.7311419999998634,['c'],1,left,none,-99,-99,0.5,0,none,6,18,Woman,Right,
15,1,12,0.5647570999999516,['n'],1,right,none,-99,-99,0.5,0,none,6,18,Woman,Right,
16,1,12,0.7311820999998417,['c'],1,left,none,-99,-99,0.5,0,none,6,18,Woman,Right,
17,1,12,0.9982314000001224,['n'],0,left,none,-99,-99,0.5,0,none,6,18,Woman,Right,
18,1,12,1.0131871999999476,['n'],1,right,none,-99,-99,0.5,0,none,6,18,Woman,Right,
19,1,12,0.897095600000057,['n'],1,right,none,-99,-99,0.5,0,none,6,18,Woman,Right,
20,1,12,0.9307623999998214,['n'],1,right,none,-99,-99,0.5,0,none,6,18,Woman,Right,
21,1,12,0.8314456000000519,['n'],1,right,none,-99,-99,0.5,0,none,6,18,Woman,Right,
22,1,12,0.6811963999998625,['n'],1,right,none,-99,-99,0.5,0,none,6,18,Woman,Right,
23,1,12,0.6639897999998539,['c'],1,left,none,-99,-99,0.5,0,none,6,18,Woman,Right,
0,1,13,0.8158390999999483,['n'],1,right,none,-99,-99,0.5,0,none,6,18,Woman,Right,
1,1,13,0.9142173999998704,['n'],0,left,none,-99,-99,0.5,0,none,6,18,Woman,Right,
2,1,13,0.6466322999999647,['n'],1,right,none,-99,-99,0.5,0,none,6,18,Woman,Right,
3,1,13,0.8309203999999681,['n'],1,right,none,-99,-99,0.5,0,none,6,18,Woman,Right,
4,1,13,0.5647805999999491,['c'],1,left,none,-99,-99,0.5,0,none,6,18,Woman,Right,
5,1,13,0.8002022999999099,['n'],0,left,none,-99,-99,0.5,0,none,6,18,Woman,Right,
6,1,13,1.3138227000001734,['n'],0,left,none,-99,-99,0.5,0,none,6,18,Woman,Right,
7,1,13,0.6482558000000154,['n'],0,left,none,-99,-99,0.5,0,none,6,18,Woman,Right,
8,1,13,1.8960551999998643,['n'],0,left,none,-99,-99,0.5,0,none,6,18,Woman,Right,
9,1,13,0.9127349000000322,['n'],1,right,none,-99,-99,0.5,0,none,6,18,Woman,Right,
10,1,13,1.7803690000000643,['n'],0,left,none,-99,-99,0.5,0,none,6,18,Woman,Right,
11,1,13,0.7965438000001086,['n'],1,right,none,-99,-99,0.5,0,none,6,18,Woman,Right,
12,1,13,0.9128783000001022,['n'],1,right,none,-99,-99,0.5,0,none,6,18,Woman,Right,
13,1,13,0.648255699999936,['n'],1,right,none,-99,-99,0.5,0,none,6,18,Woman,Right,
14,1,13,0.6474561999998514,['n'],1,right,none,-99,-99,0.5,0,none,6,18,Woman,Right,
15,1,13,0.664160400000128,['n'],0,left,none,-99,-99,0.5,0,none,6,18,Woman,Right,
16,1,13,0.8147126999997454,['n'],1,right,none,-99,-99,0.5,0,none,6,18,Woman,Right,
17,1,13,0.9481299999997646,['n'],1,right,none,-99,-99,0.5,0,none,6,18,Woman,Right,
18,1,13,1.5794621999998526,['n'],0,left,none,-99,-99,0.5,0,none,6,18,Woman,Right,
19,1,13,1.0971620000000257,['n'],0,left,none,-99,-99,0.5,0,none,6,18,Woman,Right,
20,1,13,1.329582699999719,['c'],0,right,none,-99,-99,0.5,0,none,6,18,Woman,Right,
21,1,13,1.3146168999996917,['n'],0,left,none,-99,-99,0.5,0,none,6,18,Woman,Right,
22,1,13,1.0147331999996823,['c'],1,left,none,-99,-99,0.5,0,none,6,18,Woman,Right,
23,1,13,0.9147870000001603,['c'],0,right,none,-99,-99,0.5,0,none,6,18,Woman,Right,
0,1,14,1.7995819000002484,['n'],1,right,none,-99,-99,0.5,0,none,6,18,Woman,Right,
1,1,14,0.7806461999998646,['c'],0,right,none,-99,-99,0.5,0,none,6,18,Woman,Right,
2,1,14,0.9475163000001885,['n'],0,left,none,-99,-99,0.5,0,none,6,18,Woman,Right,
3,1,14,0.9808011999998598,['n'],1,right,none,-99,-99,0.5,0,none,6,18,Woman,Right,
4,1,14,0.7963581999997587,['n'],1,right,none,-99,-99,0.5,0,none,6,18,Woman,Right,
5,1,14,0.8797030000000632,['n'],1,right,none,-99,-99,0.5,0,none,6,18,Woman,Right,
6,1,14,0.747833499999615,['c'],0,right,none,-99,-99,0.5,0,none,6,18,Woman,Right,
7,1,14,0.9811546000000817,['c'],1,left,none,-99,-99,0.5,0,none,6,18,Woman,Right,
8,1,14,0.9468385999998645,['n'],0,left,none,-99,-99,0.5,0,none,6,18,Woman,Right,
9,1,14,0.7831464999999298,['c'],1,left,none,-99,-99,0.5,0,none,6,18,Woman,Right,
10,1,14,0.7814260999998623,['c'],1,left,none,-99,-99,0.5,0,none,6,18,Woman,Right,
11,1,14,1.2638018000002376,['n'],0,left,none,-99,-99,0.5,0,none,6,18,Woman,Right,
12,1,14,1.550205399999868,['c'],0,right,none,-99,-99,0.5,0,none,6,18,Woman,Right,
13,1,14,0.8496055000000524,['c'],1,left,none,-99,-99,0.5,0,none,6,18,Woman,Right,
14,1,14,0.866505099999813,['c'],1,left,none,-99,-99,0.5,0,none,6,18,Woman,Right,
15,1,14,1.399134299999787,['n'],1,right,none,-99,-99,0.5,0,none,6,18,Woman,Right,
16,1,14,0.8165182999996432,['c'],0,right,none,-99,-99,0.5,0,none,6,18,Woman,Right,
17,1,14,0.6978745000001254,['n'],1,right,none,-99,-99,0.5,0,none,6,18,Woman,Right,
18,1,14,0.9310863999999128,['n'],0,left,none,-99,-99,0.5,0,none,6,18,Woman,Right,
19,1,14,1.0807080000004134,['n'],0,left,none,-99,-99,0.5,0,none,6,18,Woman,Right,
20,1,14,0.7811795000002348,['c'],1,left,none,-99,-99,0.5,0,none,6,18,Woman,Right,
21,1,14,0.7498676999998679,['c'],0,right,none,-99,-99,0.5,0,none,6,18,Woman,Right,
22,1,14,1.3802903000000697,['c'],1,left,none,-99,-99,0.5,0,none,6,18,Woman,Right,
23,1,14,0.6329423000001952,['n'],1,right,none,-99,-99,0.5,0,none,6,18,Woman,Right,
0,1,15,0.7833332000000155,['c'],1,left,none,-99,-99,0.5,0,none,6,18,Woman,Right,
1,1,15,0.7146026999998867,['n'],1,right,none,-99,-99,0.5,0,none,6,18,Woman,Right,
2,1,15,1.5158516000001327,['n'],1,right,none,-99,-99,0.5,0,none,6,18,Woman,Right,
3,1,15,0.7309362000000874,['c'],1,left,none,-99,-99,0.5,0,none,6,18,Woman,Right,
4,1,15,1.4326050999998188,['n'],0,left,none,-99,-99,0.5,0,none,6,18,Woman,Right,
5,1,15,0.7672554000000673,['c'],0,right,none,-99,-99,0.5,0,none,6,18,Woman,Right,
6,1,15,0.8642754000002242,['n'],1,right,none,-99,-99,0.5,0,none,6,18,Woman,Right,
7,1,15,0.8810839000002488,['c'],0,right,none,-99,-99,0.5,0,none,6,18,Woman,Right,
8,1,15,0.6497974999997496,['n'],1,right,none,-99,-99,0.5,0,none,6,18,Woman,Right,
9,1,15,1.0309495000001334,['n'],1,right,none,-99,-99,0.5,0,none,6,18,Woman,Right,
10,1,15,0.9337021000001187,['c'],1,left,none,-99,-99,0.5,0,none,6,18,Woman,Right,
11,1,15,0.7165865000001759,['n'],1,right,none,-99,-99,0.5,0,none,6,18,Woman,Right,
12,1,15,0.6500189999997019,['c'],0,right,none,-99,-99,0.5,0,none,6,18,Woman,Right,
13,1,15,0.7496557999998004,['c'],1,left,none,-99,-99,0.5,0,none,6,18,Woman,Right,
14,1,15,0.7164248999997653,['n'],0,left,none,-99,-99,0.5,0,none,6,18,Woman,Right,
15,1,15,0.7331881000000067,['c'],1,left,none,-99,-99,0.5,0,none,6,18,Woman,Right,
16,1,15,0.8297778000001017,['n'],1,right,none,-99,-99,0.5,0,none,6,18,Woman,Right,
17,1,15,1.1841157000003477,['n'],1,right,none,-99,-99,0.5,0,none,6,18,Woman,Right,
18,1,15,0.8165418000003228,['c'],1,left,none,-99,-99,0.5,0,none,6,18,Woman,Right,
19,1,15,1.1997746000001825,['n'],0,left,none,-99,-99,0.5,0,none,6,18,Woman,Right,
20,1,15,1.1002117000002727,['c'],1,left,none,-99,-99,0.5,0,none,6,18,Woman,Right,
21,1,15,0.9834255000000667,['n'],0,left,none,-99,-99,0.5,0,none,6,18,Woman,Right,
22,1,15,0.8496785000002092,['c'],1,left,none,-99,-99,0.5,0,none,6,18,Woman,Right,
23,1,15,0.7659561000000394,['n'],1,right,none,-99,-99,0.5,0,none,6,18,Woman,Right,
0,1,16,1.250130099999751,['n'],1,right,none,-99,-99,0.5,0,none,6,18,Woman,Right,
1,1,16,1.2834372000002077,['c'],1,left,none,-99,-99,0.5,0,none,6,18,Woman,Right,
2,1,16,1.033466800000042,['n'],1,right,none,-99,-99,0.5,0,none,6,18,Woman,Right,
3,1,16,0.9831372999997257,['n'],0,left,none,-99,-99,0.5,0,none,6,18,Woman,Right,
4,1,16,0.8998457000002418,['n'],0,left,none,-99,-99,0.5,0,none,6,18,Woman,Right,
5,1,16,1.1338701999998193,['n'],0,left,none,-99,-99,0.5,0,none,6,18,Woman,Right,
6,1,16,0.7830456000001504,['c'],0,right,none,-99,-99,0.5,0,none,6,18,Woman,Right,
7,1,16,0.8328025999999227,['n'],1,right,none,-99,-99,0.5,0,none,6,18,Woman,Right,
8,1,16,1.4162373999997726,['n'],1,right,none,-99,-99,0.5,0,none,6,18,Woman,Right,
9,1,16,0.9156628999999157,['c'],1,left,none,-99,-99,0.5,0,none,6,18,Woman,Right,
10,1,16,0.8999033999998574,['n'],1,right,none,-99,-99,0.5,0,none,6,18,Woman,Right,
11,1,16,0.7336089000000356,['n'],0,left,none,-99,-99,0.5,0,none,6,18,Woman,Right,
12,1,16,1.3639318999998977,['n'],0,left,none,-99,-99,0.5,0,none,6,18,Woman,Right,
13,1,16,1.697564600000078,['n'],1,right,none,-99,-99,0.5,0,none,6,18,Woman,Right,
14,1,16,1.014582799999971,['n'],1,right,none,-99,-99,0.5,0,none,6,18,Woman,Right,
15,1,16,1.4989645999999084,['c'],1,left,none,-99,-99,0.5,0,none,6,18,Woman,Right,
16,1,16,1.0640368999997918,['c'],1,left,none,-99,-99,0.5,0,none,6,18,Woman,Right,
17,1,16,0.8474602999999661,['c'],0,right,none,-99,-99,0.5,0,none,6,18,Woman,Right,
18,1,16,1.4641093999998702,['c'],1,left,none,-99,-99,0.5,0,none,6,18,Woman,Right,
19,1,16,1.1139998000003288,['c'],0,right,none,-99,-99,0.5,0,none,6,18,Woman,Right,
20,1,16,1.0475381999999627,['c'],1,left,none,-99,-99,0.5,0,none,6,18,Woman,Right,
21,1,16,1.2832722999996804,['c'],0,right,none,-99,-99,0.5,0,none,6,18,Woman,Right,
22,1,16,2.0166275000001406,['c'],0,right,none,-99,-99,0.5,0,none,6,18,Woman,Right,
23,1,16,0.8993199999999888,['c'],1,left,none,-99,-99,0.5,0,none,6,18,Woman,Right,
0,1,17,0.9001954000000296,['c'],1,left,none,-99,-99,0.5,0,none,6,18,Woman,Right,
1,1,17,1.7138342999996894,['c'],1,left,none,-99,-99,0.5,0,none,6,18,Woman,Right,
2,1,17,1.0797515000003841,['c'],0,right,none,-99,-99,0.5,0,none,6,18,Woman,Right,
3,1,17,0.8806988999999703,['c'],1,left,none,-99,-99,0.5,0,none,6,18,Woman,Right,
4,1,17,0.8812560999999732,['c'],1,left,none,-99,-99,0.5,0,none,6,18,Woman,Right,
5,1,17,1.1311749999999847,['c'],1,left,none,-99,-99,0.5,0,none,6,18,Woman,Right,
6,1,17,0.9644867000001796,['c'],0,right,none,-99,-99,0.5,0,none,6,18,Woman,Right,
7,1,17,0.7819911999999931,['c'],1,left,none,-99,-99,0.5,0,none,6,18,Woman,Right,
8,1,17,1.049026799999865,['c'],0,right,none,-99,-99,0.5,0,none,6,18,Woman,Right,
9,1,17,1.0000465999996777,['c'],1,left,none,-99,-99,0.5,0,none,6,18,Woman,Right,
10,1,17,1.4167375000001812,['n'],1,right,none,-99,-99,0.5,0,none,6,18,Woman,Right,
11,1,17,0.7992150000000038,['c'],0,right,none,-99,-99,0.5,0,none,6,18,Woman,Right,
12,1,17,0.9979460999998082,['n'],1,right,none,-99,-99,0.5,0,none,6,18,Woman,Right,
13,1,17,1.145704200000182,['c'],1,left,none,-99,-99,0.5,0,none,6,18,Woman,Right,
14,1,17,0.9493861999999353,['c'],1,left,none,-99,-99,0.5,0,none,6,18,Woman,Right,
15,1,17,0.9977878999998211,['n'],0,left,none,-99,-99,0.5,0,none,6,18,Woman,Right,
16,1,17,1.0644280999999864,['c'],0,right,none,-99,-99,0.5,0,none,6,18,Woman,Right,
17,1,17,0.9980107999999746,['c'],1,left,none,-99,-99,0.5,0,none,6,18,Woman,Right,
18,1,17,0.8134869000000435,['c'],0,right,none,-99,-99,0.5,0,none,6,18,Woman,Right,
19,1,17,0.8963969000001271,['c'],0,right,none,-99,-99,0.5,0,none,6,18,Woman,Right,
20,1,17,1.0638457999998536,['n'],0,left,none,-99,-99,0.5,0,none,6,18,Woman,Right,
21,1,17,0.7821770999998989,['c'],0,right,none,-99,-99,0.5,0,none,6,18,Woman,Right,
22,1,17,1.314061799999763,['n'],1,right,none,-99,-99,0.5,0,none,6,18,Woman,Right,
23,1,17,0.7807118000000628,['c'],0,right,none,-99,-99,0.5,0,none,6,18,Woman,Right,
0,1,18,0.9488385999998172,['c'],1,left,none,-99,-99,0.5,0,none,6,18,Woman,Right,
1,1,18,1.5312678999998752,['n'],1,right,none,-99,-99,0.5,0,none,6,18,Woman,Right,
2,1,18,0.9140661000001273,['c'],1,left,none,-99,-99,0.5,0,none,6,18,Woman,Right,
3,1,18,1.1804262000000563,['n'],0,left,none,-99,-99,0.5,0,none,6,18,Woman,Right,
4,1,18,0.9971297000001869,['n'],1,right,none,-99,-99,0.5,0,none,6,18,Woman,Right,
5,1,18,0.6663591000001361,['c'],1,left,none,-99,-99,0.5,0,none,6,18,Woman,Right,
6,1,18,0.9992918999996618,['n'],1,right,none,-99,-99,0.5,0,none,6,18,Woman,Right,
7,1,18,0.982846100000188,['n'],0,left,none,-99,-99,0.5,0,none,6,18,Woman,Right,
8,1,18,0.9642972000001464,['n'],0,left,none,-99,-99,0.5,0,none,6,18,Woman,Right,
9,1,18,1.7975203999999394,['n'],0,left,none,-99,-99,0.5,0,none,6,18,Woman,Right,
10,1,18,1.2975820000001477,['n'],1,right,none,-99,-99,0.5,0,none,6,18,Woman,Right,
11,1,18,1.2813329999999041,['n'],0,left,none,-99,-99,0.5,0,none,6,18,Woman,Right,
12,1,18,0.9312615999997433,['n'],1,right,none,-99,-99,0.5,0,none,6,18,Woman,Right,
13,1,18,0.6810974999998507,['c'],0,right,none,-99,-99,0.5,0,none,6,18,Woman,Right,
14,1,18,0.7475730000001022,['n'],1,right,none,-99,-99,0.5,0,none,6,18,Woman,Right,
15,1,18,1.8476817000000665,['c'],1,left,none,-99,-99,0.5,0,none,6,18,Woman,Right,
16,1,18,0.8148148000000219,['n'],1,right,none,-99,-99,0.5,0,none,6,18,Woman,Right,
17,1,18,0.7310464000001957,['c'],1,left,none,-99,-99,0.5,0,none,6,18,Woman,Right,
18,1,18,0.7479478000000199,['n'],1,right,none,-99,-99,0.5,0,none,6,18,Woman,Right,
19,1,18,0.6132138000002669,['c'],1,left,none,-99,-99,0.5,0,none,6,18,Woman,Right,
20,1,18,0.6464438000002701,['n'],1,right,none,-99,-99,0.5,0,none,6,18,Woman,Right,
21,1,18,0.6813428000000386,['c'],0,right,none,-99,-99,0.5,0,none,6,18,Woman,Right,
22,1,18,0.7476822999997239,['n'],1,right,none,-99,-99,0.5,0,none,6,18,Woman,Right,
23,1,18,0.814456699999937,['c'],1,left,none,-99,-99,0.5,0,none,6,18,Woman,Right,
0,1,19,0.7328957999998238,['c'],1,left,none,-99,-99,0.5,0,none,6,18,Woman,Right,
1,1,19,1.281515500000296,['n'],0,left,none,-99,-99,0.5,0,none,6,18,Woman,Right,
2,1,19,0.747952499999883,['n'],1,right,none,-99,-99,0.5,0,none,6,18,Woman,Right,
3,1,19,0.7640547000000879,['c'],0,right,none,-99,-99,0.5,0,none,6,18,Woman,Right,
4,1,19,1.1335171999999147,['n'],0,left,none,-99,-99,0.5,0,none,6,18,Woman,Right,
5,1,19,0.6327814999999646,['c'],1,left,none,-99,-99,0.5,0,none,6,18,Woman,Right,
6,1,19,1.114333699999861,['n'],0,left,none,-99,-99,0.5,0,none,6,18,Woman,Right,
7,1,19,0.7152939000002334,['c'],1,left,none,-99,-99,0.5,0,none,6,18,Woman,Right,
8,1,19,0.9326399999999921,['n'],0,left,none,-99,-99,0.5,0,none,6,18,Woman,Right,
9,1,19,0.6826237000000219,['c'],1,left,none,-99,-99,0.5,0,none,6,18,Woman,Right,
10,1,19,0.9161012999998093,['n'],1,right,none,-99,-99,0.5,0,none,6,18,Woman,Right,
11,1,19,0.6975648000002366,['c'],1,left,none,-99,-99,0.5,0,none,6,18,Woman,Right,
12,1,19,1.0328068999997413,['n'],1,right,none,-99,-99,0.5,0,none,6,18,Woman,Right,
13,1,19,1.0831539000000703,['n'],1,right,none,-99,-99,0.5,0,none,6,18,Woman,Right,
14,1,19,0.5980239999998958,['c'],1,left,none,-99,-99,0.5,0,none,6,18,Woman,Right,
15,1,19,1.1980335999996896,['n'],1,right,none,-99,-99,0.5,0,none,6,18,Woman,Right,
16,1,19,0.6490515999998934,['c'],0,right,none,-99,-99,0.5,0,none,6,18,Woman,Right,
17,1,19,0.9463681000001998,['n'],0,left,none,-99,-99,0.5,0,none,6,18,Woman,Right,
18,1,19,0.664132299999892,['c'],0,right,none,-99,-99,0.5,0,none,6,18,Woman,Right,
19,1,19,0.8632299999999304,['n'],1,right,none,-99,-99,0.5,0,none,6,18,Woman,Right,
20,1,19,0.7479521000000204,['c'],1,left,none,-99,-99,0.5,0,none,6,18,Woman,Right,
21,1,19,0.8479863000002297,['n'],1,right,none,-99,-99,0.5,0,none,6,18,Woman,Right,
22,1,19,0.9635501000002478,['n'],1,right,none,-99,-99,0.5,0,none,6,18,Woman,Right,
23,1,19,0.7962569999999687,['c'],0,right,none,-99,-99,0.5,0,none,6,18,Woman,Right,
0,1,20,0.7494858999998542,['n'],0,left,none,-99,-99,0.5,0,none,6,18,Woman,Right,
1,1,20,0.6795061000002534,['c'],1,left,none,-99,-99,0.5,0,none,6,18,Woman,Right,
2,1,20,0.7655919999997423,['n'],0,left,none,-99,-99,0.5,0,none,6,18,Woman,Right,
3,1,20,0.8149917000000642,['n'],1,right,none,-99,-99,0.5,0,none,6,18,Woman,Right,
4,1,20,0.7976921999998012,['n'],1,right,none,-99,-99,0.5,0,none,6,18,Woman,Right,
5,1,20,0.6826413000003413,['c'],1,left,none,-99,-99,0.5,0,none,6,18,Woman,Right,
6,1,20,0.7159633999999642,['n'],1,right,none,-99,-99,0.5,0,none,6,18,Woman,Right,
7,1,20,0.7646841000000677,['n'],1,right,none,-99,-99,0.5,0,none,6,18,Woman,Right,
8,1,20,0.8161920000002283,['c'],1,left,none,-99,-99,0.5,0,none,6,18,Woman,Right,
9,1,20,0.5973536999999851,['n'],1,right,none,-99,-99,0.5,0,none,6,18,Woman,Right,
10,1,20,0.6471993000000111,['c'],1,left,none,-99,-99,0.5,0,none,6,18,Woman,Right,
11,1,20,0.7826884000000973,['c'],1,left,none,-99,-99,0.5,0,none,6,18,Woman,Right,
12,1,20,1.0332529000002069,['n'],0,left,none,-99,-99,0.5,0,none,6,18,Woman,Right,
13,1,20,1.2643757999999252,['c'],1,left,none,-99,-99,0.5,0,none,6,18,Woman,Right,
14,1,20,0.7475281999995786,['n'],1,right,none,-99,-99,0.5,0,none,6,18,Woman,Right,
15,1,20,0.7134114999998928,['c'],1,left,none,-99,-99,0.5,0,none,6,18,Woman,Right,
16,1,20,1.2646224999998594,['n'],1,right,none,-99,-99,0.5,0,none,6,18,Woman,Right,
17,1,20,0.6309942999996565,['c'],1,left,none,-99,-99,0.5,0,none,6,18,Woman,Right,
18,1,20,0.7472984000000906,['n'],1,right,none,-99,-99,0.5,0,none,6,18,Woman,Right,
19,1,20,0.9966217999999571,['n'],1,right,none,-99,-99,0.5,0,none,6,18,Woman,Right,
20,1,20,0.7143311999998332,['n'],0,left,none,-99,-99,0.5,0,none,6,18,Woman,Right,
21,1,20,1.92942260000018,['c'],0,right,none,-99,-99,0.5,0,none,6,18,Woman,Right,
22,1,20,0.6638508999999431,['n'],1,right,none,-99,-99,0.5,0,none,6,18,Woman,Right,
23,1,20,0.6637492999998358,['c'],0,right,none,-99,-99,0.5,0,none,6,18,Woman,Right,
0,1,21,0.7493726000002425,['c'],1,left,none,-99,-99,0.5,0,none,6,18,Woman,Right,
1,1,21,0.649572000000262,['n'],1,right,none,-99,-99,0.5,0,none,6,18,Woman,Right,
2,1,21,0.8978730999997424,['n'],1,right,none,-99,-99,0.5,0,none,6,18,Woman,Right,
3,1,21,0.6974129999998695,['c'],1,left,none,-99,-99,0.5,0,none,6,18,Woman,Right,
4,1,21,0.614946300000156,['n'],1,right,none,-99,-99,0.5,0,none,6,18,Woman,Right,
5,1,21,0.7145465000003242,['n'],1,right,none,-99,-99,0.5,0,none,6,18,Woman,Right,
6,1,21,0.6973050000001422,['n'],1,right,none,-99,-99,0.5,0,none,6,18,Woman,Right,
7,1,21,0.8628561999998965,['c'],1,left,none,-99,-99,0.5,0,none,6,18,Woman,Right,
8,1,21,0.6962697999997545,['n'],1,right,none,-99,-99,0.5,0,none,6,18,Woman,Right,
9,1,21,1.2637541999997666,['n'],0,left,none,-99,-99,0.5,0,none,6,18,Woman,Right,
10,1,21,0.6312969000000521,['n'],1,right,none,-99,-99,0.5,0,none,6,18,Woman,Right,
11,1,21,0.7129151999997703,['c'],1,left,none,-99,-99,0.5,0,none,6,18,Woman,Right,
12,1,21,0.7149732999996559,['n'],0,left,none,-99,-99,0.5,0,none,6,18,Woman,Right,
13,1,21,0.6145516000001408,['n'],0,left,none,-99,-99,0.5,0,none,6,18,Woman,Right,
14,1,21,0.6970350000001417,['n'],1,right,none,-99,-99,0.5,0,none,6,18,Woman,Right,
15,1,21,0.832727900000009,['n'],0,left,none,-99,-99,0.5,0,none,6,18,Woman,Right,
16,1,21,0.5989478999999847,['c'],1,left,none,-99,-99,0.5,0,none,6,18,Woman,Right,
17,1,21,0.7294773999997233,['c'],1,left,none,-99,-99,0.5,0,none,6,18,Woman,Right,
18,1,21,2.1302350000000843,['n'],1,right,none,-99,-99,0.5,0,none,6,18,Woman,Right,
19,1,21,0.5639854999999443,['n'],0,left,none,-99,-99,0.5,0,none,6,18,Woman,Right,
20,1,21,0.5629681999998866,['n'],1,right,none,-99,-99,0.5,0,none,6,18,Woman,Right,
21,1,21,0.7476332999999613,['c'],0,right,none,-99,-99,0.5,0,none,6,18,Woman,Right,
22,1,21,0.6297774999998182,['n'],1,right,none,-99,-99,0.5,0,none,6,18,Woman,Right,
23,1,21,1.0321642000003521,['n'],0,left,none,-99,-99,0.5,0,none,6,18,Woman,Right,
0,1,22,1.0162490000002435,['n'],1,right,none,-99,-99,0.5,0,none,6,18,Woman,Right,
1,1,22,0.9314085000000887,['n'],0,left,none,-99,-99,0.5,0,none,6,18,Woman,Right,
2,1,22,0.6309089000001222,['c'],1,left,none,-99,-99,0.5,0,none,6,18,Woman,Right,
3,1,22,0.5964296000001923,['n'],0,left,none,-99,-99,0.5,0,none,6,18,Woman,Right,
4,1,22,0.6465828999998848,['n'],1,right,none,-99,-99,0.5,0,none,6,18,Woman,Right,
5,1,22,0.7651231000004373,['n'],1,right,none,-99,-99,0.5,0,none,6,18,Woman,Right,
6,1,22,0.8480319999998756,['c'],0,right,none,-99,-99,0.5,0,none,6,18,Woman,Right,
7,1,22,0.6644993999998405,['n'],1,right,none,-99,-99,0.5,0,none,6,18,Woman,Right,
8,1,22,0.8645853000002717,['n'],1,right,none,-99,-99,0.5,0,none,6,18,Woman,Right,
9,1,22,0.7310892000000422,['c'],1,left,none,-99,-99,0.5,0,none,6,18,Woman,Right,
10,1,22,0.6125799999999799,['n'],0,left,none,-99,-99,0.5,0,none,6,18,Woman,Right,
11,1,22,0.7997752000001128,['c'],1,left,none,-99,-99,0.5,0,none,6,18,Woman,Right,
12,1,22,0.8653505999996014,['n'],0,left,none,-99,-99,0.5,0,none,6,18,Woman,Right,
13,1,22,0.6301553000002968,['c'],1,left,none,-99,-99,0.5,0,none,6,18,Woman,Right,
14,1,22,0.6838111000001845,['c'],1,left,none,-99,-99,0.5,0,none,6,18,Woman,Right,
15,1,22,0.8164986000001591,['n'],1,right,none,-99,-99,0.5,0,none,6,18,Woman,Right,
16,1,22,1.0167985000002773,['n'],1,right,none,-99,-99,0.5,0,none,6,18,Woman,Right,
17,1,22,0.6334428000000116,['c'],0,right,none,-99,-99,0.5,0,none,6,18,Woman,Right,
18,1,22,0.9502502999998796,['c'],1,left,none,-99,-99,0.5,0,none,6,18,Woman,Right,
19,1,22,0.5983341000001019,['c'],0,right,none,-99,-99,0.5,0,none,6,18,Woman,Right,
20,1,22,0.6824679999999717,['n'],1,right,none,-99,-99,0.5,0,none,6,18,Woman,Right,
21,1,22,0.6825201000001471,['c'],0,right,none,-99,-99,0.5,0,none,6,18,Woman,Right,
22,1,22,0.5824413999998796,['c'],1,left,none,-99,-99,0.5,0,none,6,18,Woman,Right,
23,1,22,0.6662286999999196,['c'],1,left,none,-99,-99,0.5,0,none,6,18,Woman,Right,
0,1,23,0.7996319000003496,['n'],1,right,none,-99,-99,0.5,0,none,6,18,Woman,Right,
1,1,23,0.5812882000000172,['c'],0,right,none,-99,-99,0.5,0,none,6,18,Woman,Right,
2,1,23,0.7314148000000387,['n'],0,left,none,-99,-99,0.5,0,none,6,18,Woman,Right,
3,1,23,0.8297932000000401,['n'],1,right,none,-99,-99,0.5,0,none,6,18,Woman,Right,
4,1,23,0.7629421000001457,['c'],0,right,none,-99,-99,0.5,0,none,6,18,Woman,Right,
5,1,23,0.797873299999992,['c'],1,left,none,-99,-99,0.5,0,none,6,18,Woman,Right,
6,1,23,0.5476539999999659,['n'],1,right,none,-99,-99,0.5,0,none,6,18,Woman,Right,
7,1,23,0.59723380000014,['n'],1,right,none,-99,-99,0.5,0,none,6,18,Woman,Right,
8,1,23,0.7805370999999468,['c'],1,left,none,-99,-99,0.5,0,none,6,18,Woman,Right,
9,1,23,0.9310813000001872,['c'],1,left,none,-99,-99,0.5,0,none,6,18,Woman,Right,
10,1,23,0.6480387999999948,['n'],1,right,none,-99,-99,0.5,0,none,6,18,Woman,Right,
11,1,23,0.5982979999998861,['c'],1,left,none,-99,-99,0.5,0,none,6,18,Woman,Right,
12,1,23,0.7139669000002868,['c'],1,left,none,-99,-99,0.5,0,none,6,18,Woman,Right,
13,1,23,0.8312836000000061,['c'],1,left,none,-99,-99,0.5,0,none,6,18,Woman,Right,
14,1,23,0.6143695999999181,['n'],1,right,none,-99,-99,0.5,0,none,6,18,Woman,Right,
15,1,23,0.7806779999996252,['n'],1,right,none,-99,-99,0.5,0,none,6,18,Woman,Right,
16,1,23,1.0650542999997015,['n'],1,right,none,-99,-99,0.5,0,none,6,18,Woman,Right,
17,1,23,0.6813196999996762,['c'],1,left,none,-99,-99,0.5,0,none,6,18,Woman,Right,
18,1,23,0.779860699999972,['n'],1,right,none,-99,-99,0.5,0,none,6,18,Woman,Right,
19,1,23,0.8807480999998916,['n'],1,right,none,-99,-99,0.5,0,none,6,18,Woman,Right,
20,1,23,0.6136482000001706,['c'],1,left,none,-99,-99,0.5,0,none,6,18,Woman,Right,
21,1,23,2.032608199999686,['c'],1,left,none,-99,-99,0.5,0,none,6,18,Woman,Right,
22,1,23,0.6326765999997406,['n'],0,left,none,-99,-99,0.5,0,none,6,18,Woman,Right,
23,1,23,1.11387139999988,['n'],0,left,none,-99,-99,0.5,0,none,6,18,Woman,Right,
0,1,24,0.8158013000002029,['n'],1,right,none,-99,-99,0.5,0,none,6,18,Woman,Right,
1,1,24,0.7138210999996772,['n'],1,right,none,-99,-99,0.5,0,none,6,18,Woman,Right,
2,1,24,0.5811267000003681,['n'],1,right,none,-99,-99,0.5,0,none,6,18,Woman,Right,
3,1,24,0.6128051999999116,['n'],1,right,none,-99,-99,0.5,0,none,6,18,Woman,Right,
4,1,24,1.0156890000002932,['n'],0,left,none,-99,-99,0.5,0,none,6,18,Woman,Right,
5,1,24,0.7957687999996779,['c'],1,left,none,-99,-99,0.5,0,none,6,18,Woman,Right,
6,1,24,0.8642858999996861,['c'],0,right,none,-99,-99,0.5,0,none,6,18,Woman,Right,
7,1,24,0.7981638000001112,['n'],0,left,none,-99,-99,0.5,0,none,6,18,Woman,Right,
8,1,24,0.7294070000002648,['c'],1,left,none,-99,-99,0.5,0,none,6,18,Woman,Right,
9,1,24,0.8310352000003149,['c'],1,left,none,-99,-99,0.5,0,none,6,18,Woman,Right,
10,1,24,0.6974406999997882,['n'],0,left,none,-99,-99,0.5,0,none,6,18,Woman,Right,
11,1,24,0.6498867000000246,['n'],1,right,none,-99,-99,0.5,0,none,6,18,Woman,Right,
12,1,24,0.6821423000001232,['c'],0,right,none,-99,-99,0.5,0,none,6,18,Woman,Right,
13,1,24,0.7330462999998417,['c'],1,left,none,-99,-99,0.5,0,none,6,18,Woman,Right,
14,1,24,0.8004239000001689,['n'],1,right,none,-99,-99,0.5,0,none,6,18,Woman,Right,
15,1,24,0.8477720999999292,['c'],0,right,none,-99,-99,0.5,0,none,6,18,Woman,Right,
16,1,24,0.9294543000000886,['c'],0,right,none,-99,-99,0.5,0,none,6,18,Woman,Right,
17,1,24,1.2474262000000635,['n'],0,left,none,-99,-99,0.5,0,none,6,18,Woman,Right,
18,1,24,0.7648693999999523,['c'],1,left,none,-99,-99,0.5,0,none,6,18,Woman,Right,
19,1,24,0.7502967999998873,['c'],1,left,none,-99,-99,0.5,0,none,6,18,Woman,Right,
20,1,24,0.7631616999997277,['c'],0,right,none,-99,-99,0.5,0,none,6,18,Woman,Right,
21,1,24,0.6815256999998383,['c'],0,right,none,-99,-99,0.5,0,none,6,18,Woman,Right,
22,1,24,1.0647140999999465,['n'],0,left,none,-99,-99,0.5,0,none,6,18,Woman,Right,
23,1,24,0.647954099999879,['c'],1,left,none,-99,-99,0.5,0,none,6,18,Woman,Right,
0,1,25,0.7167748000001666,['c'],0,right,none,-99,-99,0.5,0,none,6,18,Woman,Right,
1,1,25,0.5973894999997356,['c'],1,left,none,-99,-99,0.5,0,none,6,18,Woman,Right,
2,1,25,0.5977115000000595,['c'],1,left,none,-99,-99,0.5,0,none,6,18,Woman,Right,
3,1,25,0.5981479999995827,['n'],1,right,none,-99,-99,0.5,0,none,6,18,Woman,Right,
4,1,25,0.6473955999999816,['c'],1,left,none,-99,-99,0.5,0,none,6,18,Woman,Right,
5,1,25,0.5629945999999109,['n'],1,right,none,-99,-99,0.5,0,none,6,18,Woman,Right,
6,1,25,0.7144769000001361,['c'],1,left,none,-99,-99,0.5,0,none,6,18,Woman,Right,
7,1,25,0.5307336999999279,['n'],1,right,none,-99,-99,0.5,0,none,6,18,Woman,Right,
8,1,25,0.6127901999998357,['n'],1,right,none,-99,-99,0.5,0,none,6,18,Woman,Right,
9,1,25,0.7310745000004317,['c'],0,right,none,-99,-99,0.5,0,none,6,18,Woman,Right,
10,1,25,0.5978734999998778,['n'],1,right,none,-99,-99,0.5,0,none,6,18,Woman,Right,
11,1,25,0.5973223000000871,['c'],1,left,none,-99,-99,0.5,0,none,6,18,Woman,Right,
12,1,25,1.1646080999998958,['n'],1,right,none,-99,-99,0.5,0,none,6,18,Woman,Right,
13,1,25,0.9304194000001189,['n'],0,left,none,-99,-99,0.5,0,none,6,18,Woman,Right,
14,1,25,0.631201400000009,['c'],1,left,none,-99,-99,0.5,0,none,6,18,Woman,Right,
15,1,25,0.9469954999999572,['n'],0,left,none,-99,-99,0.5,0,none,6,18,Woman,Right,
16,1,25,0.8137277000000722,['n'],1,right,none,-99,-99,0.5,0,none,6,18,Woman,Right,
17,1,25,1.316052199999831,['n'],0,left,none,-99,-99,0.5,0,none,6,18,Woman,Right,
18,1,25,0.6655461999998806,['c'],0,right,none,-99,-99,0.5,0,none,6,18,Woman,Right,
19,1,25,0.7128585000000385,['n'],0,left,none,-99,-99,0.5,0,none,6,18,Woman,Right,
20,1,25,0.8812376999999287,['n'],1,right,none,-99,-99,0.5,0,none,6,18,Woman,Right,
21,1,25,0.7476130000000012,['n'],0,left,none,-99,-99,0.5,0,none,6,18,Woman,Right,
22,1,25,1.264533499999743,['n'],0,left,none,-99,-99,0.5,0,none,6,18,Woman,Right,
23,1,25,1.6972612999998091,['c'],0,right,none,-99,-99,0.5,0,none,6,18,Woman,Right,
0,1,26,0.9158820000002379,['n'],1,right,none,-99,-99,0.5,0,none,6,18,Woman,Right,
1,1,26,0.6650687000001199,['c'],1,left,none,-99,-99,0.5,0,none,6,18,Woman,Right,
2,1,26,0.6819381999998768,['n'],1,right,none,-99,-99,0.5,0,none,6,18,Woman,Right,
3,1,26,0.6976813999999649,['n'],1,right,none,-99,-99,0.5,0,none,6,18,Woman,Right,
4,1,26,0.7306803999999829,['n'],1,right,none,-99,-99,0.5,0,none,6,18,Woman,Right,
5,1,26,0.9975697999998374,['n'],1,right,none,-99,-99,0.5,0,none,6,18,Woman,Right,
6,1,26,0.8963596999997208,['c'],1,left,none,-99,-99,0.5,0,none,6,18,Woman,Right,
7,1,26,0.8477798999997503,['c'],1,left,none,-99,-99,0.5,0,none,6,18,Woman,Right,
8,1,26,0.7802722000001268,['c'],0,right,none,-99,-99,0.5,0,none,6,18,Woman,Right,
9,1,26,1.1487738999999237,['c'],1,left,none,-99,-99,0.5,0,none,6,18,Woman,Right,
10,1,26,0.5628236999996261,['n'],0,left,none,-99,-99,0.5,0,none,6,18,Woman,Right,
11,1,26,0.6975733000003856,['c'],1,left,none,-99,-99,0.5,0,none,6,18,Woman,Right,
12,1,26,0.915177599999879,['n'],1,right,none,-99,-99,0.5,0,none,6,18,Woman,Right,
13,1,26,1.130670800000189,['n'],1,right,none,-99,-99,0.5,0,none,6,18,Woman,Right,
14,1,26,0.695770100000118,['n'],1,right,none,-99,-99,0.5,0,none,6,18,Woman,Right,
15,1,26,0.5150394000002052,['c'],1,left,none,-99,-99,0.5,0,none,6,18,Woman,Right,
16,1,26,1.0955306999999266,['c'],0,right,none,-99,-99,0.5,0,none,6,18,Woman,Right,
17,1,26,0.8328489000000445,['c'],1,left,none,-99,-99,0.5,0,none,6,18,Woman,Right,
18,1,26,0.7810504999997647,['n'],0,left,none,-99,-99,0.5,0,none,6,18,Woman,Right,
19,1,26,0.5973656000001029,['c'],0,right,none,-99,-99,0.5,0,none,6,18,Woman,Right,
20,1,26,0.8786158000002615,['n'],0,left,none,-99,-99,0.5,0,none,6,18,Woman,Right,
21,1,26,0.6143788999997923,['c'],1,left,none,-99,-99,0.5,0,none,6,18,Woman,Right,
22,1,26,0.6635888999999224,['c'],0,right,none,-99,-99,0.5,0,none,6,18,Woman,Right,
23,1,26,0.6639503000001241,['n'],0,left,none,-99,-99,0.5,0,none,6,18,Woman,Right,
0,1,27,1.8329964999998083,['c'],0,right,none,-99,-99,0.5,0,none,6,18,Woman,Right,
1,1,27,0.8973698999998305,['n'],1,right,none,-99,-99,0.5,0,none,6,18,Woman,Right,
2,1,27,0.5628333999998176,['c'],1,left,none,-99,-99,0.5,0,none,6,18,Woman,Right,
3,1,27,0.6632709999998951,['c'],1,left,none,-99,-99,0.5,0,none,6,18,Woman,Right,
4,1,27,0.9813575000002857,['n'],1,right,none,-99,-99,0.5,0,none,6,18,Woman,Right,
5,1,27,0.8970901000002414,['n'],0,left,none,-99,-99,0.5,0,none,6,18,Woman,Right,
6,1,27,0.5975398000000496,['c'],0,right,none,-99,-99,0.5,0,none,6,18,Woman,Right,
7,1,27,0.8641301999996358,['c'],1,left,none,-99,-99,0.5,0,none,6,18,Woman,Right,
8,1,27,0.7628534999998919,['c'],1,left,none,-99,-99,0.5,0,none,6,18,Woman,Right,
9,1,27,0.8984442999999374,['n'],0,left,none,-99,-99,0.5,0,none,6,18,Woman,Right,
10,1,27,0.766661799999838,['c'],1,left,none,-99,-99,0.5,0,none,6,18,Woman,Right,
11,1,27,0.5969490999996196,['n'],1,right,none,-99,-99,0.5,0,none,6,18,Woman,Right,
12,1,27,0.9135760999997729,['c'],1,left,none,-99,-99,0.5,0,none,6,18,Woman,Right,
13,1,27,0.5128022999997484,['n'],1,right,none,-99,-99,0.5,0,none,6,18,Woman,Right,
14,1,27,0.7470577999997658,['n'],1,right,none,-99,-99,0.5,0,none,6,18,Woman,Right,
15,1,27,0.6124869999998737,['n'],1,right,none,-99,-99,0.5,0,none,6,18,Woman,Right,
16,1,27,0.7470865000000231,['c'],1,left,none,-99,-99,0.5,0,none,6,18,Woman,Right,
17,1,27,0.7486652000002323,['c'],1,left,none,-99,-99,0.5,0,none,6,18,Woman,Right,
18,1,27,0.9646801999997479,['n'],0,left,none,-99,-99,0.5,0,none,6,18,Woman,Right,
19,1,27,1.1308813999999074,['n'],1,right,none,-99,-99,0.5,0,none,6,18,Woman,Right,
20,1,27,0.5986576000000241,['n'],0,left,none,-99,-99,0.5,0,none,6,18,Woman,Right,
21,1,27,0.6647639000002528,['c'],0,right,none,-99,-99,0.5,0,none,6,18,Woman,Right,
22,1,27,0.5646789000002173,['n'],1,right,none,-99,-99,0.5,0,none,6,18,Woman,Right,
23,1,27,0.9474901000003229,['n'],1,right,none,-99,-99,0.5,0,none,6,18,Woman,Right,
0,1,28,0.6337945000000218,['c'],1,left,none,-99,-99,0.5,0,none,6,18,Woman,Right,
1,1,28,0.6962271000002147,['n'],1,right,none,-99,-99,0.5,0,none,6,18,Woman,Right,
2,1,28,0.9132565999998405,['n'],1,right,none,-99,-99,0.5,0,none,6,18,Woman,Right,
3,1,28,0.7484352999999828,['c'],1,left,none,-99,-99,0.5,0,none,6,18,Woman,Right,
4,1,28,0.781278200000088,['n'],1,right,none,-99,-99,0.5,0,none,6,18,Woman,Right,
5,1,28,0.6474582999999257,['c'],1,left,none,-99,-99,0.5,0,none,6,18,Woman,Right,
6,1,28,1.1980005999998866,['n'],1,right,none,-99,-99,0.5,0,none,6,18,Woman,Right,
7,1,28,0.8310717999997905,['n'],1,right,none,-99,-99,0.5,0,none,6,18,Woman,Right,
8,1,28,0.9824730999998792,['c'],0,right,none,-99,-99,0.5,0,none,6,18,Woman,Right,
9,1,28,0.9146800000003168,['c'],0,right,none,-99,-99,0.5,0,none,6,18,Woman,Right,
10,1,28,0.9630487999997968,['c'],1,left,none,-99,-99,0.5,0,none,6,18,Woman,Right,
11,1,28,0.8800462999997762,['n'],0,left,none,-99,-99,0.5,0,none,6,18,Woman,Right,
12,1,28,0.7471840999996857,['c'],1,left,none,-99,-99,0.5,0,none,6,18,Woman,Right,
13,1,28,0.563630799999828,['n'],0,left,none,-99,-99,0.5,0,none,6,18,Woman,Right,
14,1,28,0.6966732000000775,['c'],1,left,none,-99,-99,0.5,0,none,6,18,Woman,Right,
15,1,28,0.5814136999997572,['c'],1,left,none,-99,-99,0.5,0,none,6,18,Woman,Right,
16,1,28,0.5129224000002068,['n'],1,right,none,-99,-99,0.5,0,none,6,18,Woman,Right,
17,1,28,1.0310378999997738,['n'],1,right,none,-99,-99,0.5,0,none,6,18,Woman,Right,
18,1,28,0.5977232000000186,['c'],1,left,none,-99,-99,0.5,0,none,6,18,Woman,Right,
19,1,28,0.7142426999998861,['n'],1,right,none,-99,-99,0.5,0,none,6,18,Woman,Right,
20,1,28,0.7811062000000675,['c'],1,left,none,-99,-99,0.5,0,none,6,18,Woman,Right,
21,1,28,0.780885600000147,['n'],1,right,none,-99,-99,0.5,0,none,6,18,Woman,Right,
22,1,28,0.6467311000001246,['n'],0,left,none,-99,-99,0.5,0,none,6,18,Woman,Right,
23,1,28,0.5985264000000825,['n'],1,right,none,-99,-99,0.5,0,none,6,18,Woman,Right,
0,1,29,1.116075599999931,['n'],0,left,none,-99,-99,0.5,0,none,6,18,Woman,Right,
1,1,29,0.7317651000003025,['n'],1,right,none,-99,-99,0.5,0,none,6,18,Woman,Right,
2,1,29,0.5139534999998432,['n'],1,right,none,-99,-99,0.5,0,none,6,18,Woman,Right,
3,1,29,0.6985969000002115,['n'],0,left,none,-99,-99,0.5,0,none,6,18,Woman,Right,
4,1,29,0.8978723000000173,['n'],1,right,none,-99,-99,0.5,0,none,6,18,Woman,Right,
5,1,29,0.6810945000001993,['c'],1,left,none,-99,-99,0.5,0,none,6,18,Woman,Right,
6,1,29,0.8137272999997549,['c'],1,left,none,-99,-99,0.5,0,none,6,18,Woman,Right,
7,1,29,0.5993545000001177,['n'],0,left,none,-99,-99,0.5,0,none,6,18,Woman,Right,
8,1,29,0.899755500000083,['c'],0,right,none,-99,-99,0.5,0,none,6,18,Woman,Right,
9,1,29,0.5982356999998046,['n'],1,right,none,-99,-99,0.5,0,none,6,18,Woman,Right,
10,1,29,0.6481085999998868,['c'],0,right,none,-99,-99,0.5,0,none,6,18,Woman,Right,
11,1,29,0.5474690999999439,['n'],1,right,none,-99,-99,0.5,0,none,6,18,Woman,Right,
12,1,29,0.6969617999998263,['c'],1,left,none,-99,-99,0.5,0,none,6,18,Woman,Right,
13,1,29,0.5658985999998549,['n'],1,right,none,-99,-99,0.5,0,none,6,18,Woman,Right,
14,1,29,0.6311358999996628,['n'],0,left,none,-99,-99,0.5,0,none,6,18,Woman,Right,
15,1,29,0.6309913999998571,['n'],0,left,none,-99,-99,0.5,0,none,6,18,Woman,Right,
16,1,29,0.6294419000000744,['n'],1,right,none,-99,-99,0.5,0,none,6,18,Woman,Right,
17,1,29,0.6811923000000206,['n'],1,right,none,-99,-99,0.5,0,none,6,18,Woman,Right,
18,1,29,0.9625124999997752,['n'],0,left,none,-99,-99,0.5,0,none,6,18,Woman,Right,
19,1,29,0.8630837000000611,['n'],0,left,none,-99,-99,0.5,0,none,6,18,Woman,Right,
20,1,29,0.6833415000000969,['n'],1,right,none,-99,-99,0.5,0,none,6,18,Woman,Right,
21,1,29,0.5477119000001949,['n'],0,left,none,-99,-99,0.5,0,none,6,18,Woman,Right,
22,1,29,0.8825034000001324,['c'],0,right,none,-99,-99,0.5,0,none,6,18,Woman,Right,
23,1,29,0.7477673000003051,['c'],1,left,none,-99,-99,0.5,0,none,6,18,Woman,Right,
0,1,30,0.9159943999998177,['c'],1,left,none,-99,-99,0.5,0,none,6,18,Woman,Right,
1,1,30,1.2962158000000272,['n'],0,left,none,-99,-99,0.5,0,none,6,18,Woman,Right,
2,1,30,1.2641266999999061,['n'],1,right,none,-99,-99,0.5,0,none,6,18,Woman,Right,
3,1,30,0.8977059999997437,['n'],0,left,none,-99,-99,0.5,0,none,6,18,Woman,Right,
4,1,30,0.6127271000000292,['n'],1,right,none,-99,-99,0.5,0,none,6,18,Woman,Right,
5,1,30,0.5994260999996186,['n'],1,right,none,-99,-99,0.5,0,none,6,18,Woman,Right,
6,1,30,0.9299165999996148,['c'],0,right,none,-99,-99,0.5,0,none,6,18,Woman,Right,
7,1,30,0.6313701999997647,['c'],1,left,none,-99,-99,0.5,0,none,6,18,Woman,Right,
8,1,30,0.7146627000001899,['n'],0,left,none,-99,-99,0.5,0,none,6,18,Woman,Right,
9,1,30,0.5639486000000034,['n'],0,left,none,-99,-99,0.5,0,none,6,18,Woman,Right,
10,1,30,0.797642900000028,['n'],0,left,none,-99,-99,0.5,0,none,6,18,Woman,Right,
11,1,30,0.7474309000003814,['n'],1,right,none,-99,-99,0.5,0,none,6,18,Woman,Right,
12,1,30,0.9142434000000321,['c'],0,right,none,-99,-99,0.5,0,none,6,18,Woman,Right,
13,1,30,0.7979147000000921,['n'],1,right,none,-99,-99,0.5,0,none,6,18,Woman,Right,
14,1,30,0.8970604999999523,['c'],1,left,none,-99,-99,0.5,0,none,6,18,Woman,Right,
15,1,30,0.6294625999998971,['n'],0,left,none,-99,-99,0.5,0,none,6,18,Woman,Right,
16,1,30,0.6797818000000007,['n'],0,left,none,-99,-99,0.5,0,none,6,18,Woman,Right,
17,1,30,0.6975680999998985,['c'],0,right,none,-99,-99,0.5,0,none,6,18,Woman,Right,
18,1,30,0.5464695999999094,['n'],1,right,none,-99,-99,0.5,0,none,6,18,Woman,Right,
19,1,30,0.8307712999999239,['n'],1,right,none,-99,-99,0.5,0,none,6,18,Woman,Right,
20,1,30,0.6812371999999414,['n'],1,right,none,-99,-99,0.5,0,none,6,18,Woman,Right,
21,1,30,0.7310073000003285,['c'],1,left,none,-99,-99,0.5,0,none,6,18,Woman,Right,
22,1,30,0.8461538999999902,['n'],0,left,none,-99,-99,0.5,0,none,6,18,Woman,Right,
23,1,30,0.7307368000001588,['n'],1,right,none,-99,-99,0.5,0,none,6,18,Woman,Right,
0,1,31,0.9148135000000366,['c'],1,left,none,-99,-99,0.5,0,none,6,18,Woman,Right,
1,1,31,1.147180500000104,['n'],1,right,none,-99,-99,0.5,0,none,6,18,Woman,Right,
2,1,31,1.2316061999999874,['n'],1,right,none,-99,-99,0.5,0,none,6,18,Woman,Right,
3,1,31,0.6479964999998629,['c'],1,left,none,-99,-99,0.5,0,none,6,18,Woman,Right,
4,1,31,1.2323808999999528,['n'],1,right,none,-99,-99,0.5,0,none,6,18,Woman,Right,
5,1,31,0.8310083000001214,['n'],1,right,none,-99,-99,0.5,0,none,6,18,Woman,Right,
6,1,31,0.6809023999999226,['n'],1,right,none,-99,-99,0.5,0,none,6,18,Woman,Right,
7,1,31,0.7462523999997757,['c'],0,right,none,-99,-99,0.5,0,none,6,18,Woman,Right,
8,1,31,0.8799140000000989,['n'],0,left,none,-99,-99,0.5,0,none,6,18,Woman,Right,
9,1,31,4.730775199999698,['c'],0,right,none,-99,-99,0.5,0,none,6,18,Woman,Right,
10,1,31,0.9474920999996357,['c'],1,left,none,-99,-99,0.5,0,none,6,18,Woman,Right,
11,1,31,0.6477234000003591,['n'],1,right,none,-99,-99,0.5,0,none,6,18,Woman,Right,
12,1,31,0.947565399999803,['c'],0,right,none,-99,-99,0.5,0,none,6,18,Woman,Right,
13,1,31,0.8307650000001559,['c'],1,left,none,-99,-99,0.5,0,none,6,18,Woman,Right,
14,1,31,0.9133623000002444,['c'],1,left,none,-99,-99,0.5,0,none,6,18,Woman,Right,
15,1,31,0.7474591999998665,['n'],0,left,none,-99,-99,0.5,0,none,6,18,Woman,Right,
16,1,31,0.6644971000000623,['n'],1,right,none,-99,-99,0.5,0,none,6,18,Woman,Right,
17,1,31,0.6978174000000763,['n'],1,right,none,-99,-99,0.5,0,none,6,18,Woman,Right,
18,1,31,0.598253300000124,['c'],1,left,none,-99,-99,0.5,0,none,6,18,Woman,Right,
19,1,31,0.5977459000000636,['n'],0,left,none,-99,-99,0.5,0,none,6,18,Woman,Right,
20,1,31,0.8811298000000534,['n'],0,left,none,-99,-99,0.5,0,none,6,18,Woman,Right,
21,1,31,0.5969407999996292,['c'],1,left,none,-99,-99,0.5,0,none,6,18,Woman,Right,
22,1,31,0.6470283000003292,['n'],1,right,none,-99,-99,0.5,0,none,6,18,Woman,Right,
23,1,31,0.9499661999998352,['n'],0,left,none,-99,-99,0.5,0,none,6,18,Woman,Right,
0,1,32,1.3995130999996945,['n'],1,right,none,-99,-99,0.5,0,none,6,18,Woman,Right,
1,1,32,0.8805397000000994,['c'],1,left,none,-99,-99,0.5,0,none,6,18,Woman,Right,
2,1,32,0.7294956000000639,['n'],1,right,none,-99,-99,0.5,0,none,6,18,Woman,Right,
3,1,32,0.5647008000000824,['c'],1,left,none,-99,-99,0.5,0,none,6,18,Woman,Right,
4,1,32,0.8476983000000473,['n'],0,left,none,-99,-99,0.5,0,none,6,18,Woman,Right,
5,1,32,0.8312791000003017,['n'],1,right,none,-99,-99,0.5,0,none,6,18,Woman,Right,
6,1,32,0.7464364000002206,['n'],1,right,none,-99,-99,0.5,0,none,6,18,Woman,Right,
7,1,32,1.2470938999999817,['n'],1,right,none,-99,-99,0.5,0,none,6,18,Woman,Right,
8,1,32,0.8474975999997696,['n'],0,left,none,-99,-99,0.5,0,none,6,18,Woman,Right,
9,1,32,1.0316923999998835,['n'],0,left,none,-99,-99,0.5,0,none,6,18,Woman,Right,
10,1,32,0.7148682000001827,['c'],1,left,none,-99,-99,0.5,0,none,6,18,Woman,Right,
11,1,32,0.5647659000001113,['n'],1,right,none,-99,-99,0.5,0,none,6,18,Woman,Right,
12,1,32,0.631224100000054,['n'],0,left,none,-99,-99,0.5,0,none,6,18,Woman,Right,
13,1,32,0.6149238000002697,['n'],0,left,none,-99,-99,0.5,0,none,6,18,Woman,Right,
14,1,32,0.7479066000000785,['n'],1,right,none,-99,-99,0.5,0,none,6,18,Woman,Right,
15,1,32,0.7983068999997158,['c'],0,right,none,-99,-99,0.5,0,none,6,18,Woman,Right,
16,1,32,0.6809994000000188,['c'],1,left,none,-99,-99,0.5,0,none,6,18,Woman,Right,
17,1,32,0.6292625000000953,['n'],1,right,none,-99,-99,0.5,0,none,6,18,Woman,Right,
18,1,32,0.831118399999923,['c'],1,left,none,-99,-99,0.5,0,none,6,18,Woman,Right,
19,1,32,0.6325762000001305,['n'],1,right,none,-99,-99,0.5,0,none,6,18,Woman,Right,
20,1,32,1.0831944000001386,['n'],1,right,none,-99,-99,0.5,0,none,6,18,Woman,Right,
21,1,32,0.631510199999866,['c'],1,left,none,-99,-99,0.5,0,none,6,18,Woman,Right,
22,1,32,1.1297150999998848,['n'],0,left,none,-99,-99,0.5,0,none,6,18,Woman,Right,
23,1,32,1.214583400000265,['n'],1,right,none,-99,-99,0.5,0,none,6,18,Woman,Right,
0,1,33,0.5992053999998461,['n'],1,right,none,-99,-99,0.5,0,none,6,18,Woman,Right,
1,1,33,0.5794347000000926,['c'],1,left,none,-99,-99,0.5,0,none,6,18,Woman,Right,
2,1,33,0.6977041000000099,['c'],1,left,none,-99,-99,0.5,0,none,6,18,Woman,Right,
3,1,33,0.5132087000001775,['n'],1,right,none,-99,-99,0.5,0,none,6,18,Woman,Right,
4,1,33,0.5462115000000267,['c'],1,left,none,-99,-99,0.5,0,none,6,18,Woman,Right,
5,1,33,0.9628465000000688,['c'],1,left,none,-99,-99,0.5,0,none,6,18,Woman,Right,
6,1,33,0.6803969999996298,['n'],0,left,none,-99,-99,0.5,0,none,6,18,Woman,Right,
7,1,33,0.5312212999997428,['n'],1,right,none,-99,-99,0.5,0,none,6,18,Woman,Right,
8,1,33,0.7811385999998492,['c'],0,right,none,-99,-99,0.5,0,none,6,18,Woman,Right,
9,1,33,0.5473426999997173,['n'],1,right,none,-99,-99,0.5,0,none,6,18,Woman,Right,
10,1,33,0.5974753000000419,['n'],1,right,none,-99,-99,0.5,0,none,6,18,Woman,Right,
11,1,33,0.6478419000000031,['c'],1,left,none,-99,-99,0.5,0,none,6,18,Woman,Right,
12,1,33,0.5793351000002076,['n'],1,right,none,-99,-99,0.5,0,none,6,18,Woman,Right,
13,1,33,1.7312298000001647,['n'],0,left,none,-99,-99,0.5,0,none,6,18,Woman,Right,
14,1,33,1.2476655999998911,['n'],0,left,none,-99,-99,0.5,0,none,6,18,Woman,Right,
15,1,33,0.6647775999999794,['n'],1,right,none,-99,-99,0.5,0,none,6,18,Woman,Right,
16,1,33,0.7630125000000589,['c'],1,left,none,-99,-99,0.5,0,none,6,18,Woman,Right,
17,1,33,0.7126547000002574,['n'],1,right,none,-99,-99,0.5,0,none,6,18,Woman,Right,
18,1,33,0.5807936999999583,['c'],1,left,none,-99,-99,0.5,0,none,6,18,Woman,Right,
19,1,33,0.7502227999998468,['c'],1,left,none,-99,-99,0.5,0,none,6,18,Woman,Right,
20,1,33,0.5304871000003004,['n'],1,right,none,-99,-99,0.5,0,none,6,18,Woman,Right,
21,1,33,0.7312391999998908,['c'],1,left,none,-99,-99,0.5,0,none,6,18,Woman,Right,
22,1,33,0.5313438999996833,['n'],1,right,none,-99,-99,0.5,0,none,6,18,Woman,Right,
23,1,33,0.6150335000002087,['c'],0,right,none,-99,-99,0.5,0,none,6,18,Woman,Right,
0,1,34,0.9661468999997851,['n'],0,left,none,-99,-99,0.5,0,none,6,18,Woman,Right,
1,1,34,0.5149258999999802,['c'],0,right,none,-99,-99,0.5,0,none,6,18,Woman,Right,
2,1,34,0.49838590000035765,['n'],1,right,none,-99,-99,0.5,0,none,6,18,Woman,Right,
3,1,34,0.6480510999999751,['c'],1,left,none,-99,-99,0.5,0,none,6,18,Woman,Right,
4,1,34,0.7986244000003353,['n'],0,left,none,-99,-99,0.5,0,none,6,18,Woman,Right,
5,1,34,1.0480320000001484,['c'],0,right,none,-99,-99,0.5,0,none,6,18,Woman,Right,
6,1,34,1.5299705000002177,['n'],1,right,none,-99,-99,0.5,0,none,6,18,Woman,Right,
7,1,34,0.6474638999998206,['c'],0,right,none,-99,-99,0.5,0,none,6,18,Woman,Right,
8,1,34,0.6641985999999633,['c'],1,left,none,-99,-99,0.5,0,none,6,18,Woman,Right,
9,1,34,1.0646787000000586,['c'],0,right,none,-99,-99,0.5,0,none,6,18,Woman,Right,
10,1,34,0.5807483999997203,['n'],1,right,none,-99,-99,0.5,0,none,6,18,Woman,Right,
11,1,34,0.7137821000001168,['n'],0,left,none,-99,-99,0.5,0,none,6,18,Woman,Right,
12,1,34,0.6808329000000413,['c'],1,left,none,-99,-99,0.5,0,none,6,18,Woman,Right,
13,1,34,0.6149270000000797,['c'],1,left,none,-99,-99,0.5,0,none,6,18,Woman,Right,
14,1,34,0.9801534000002903,['n'],1,right,none,-99,-99,0.5,0,none,6,18,Woman,Right,
15,1,34,0.598078600000008,['n'],1,right,none,-99,-99,0.5,0,none,6,18,Woman,Right,
16,1,34,0.5461056999997709,['c'],1,left,none,-99,-99,0.5,0,none,6,18,Woman,Right,
17,1,34,0.8170316000000639,['c'],1,left,none,-99,-99,0.5,0,none,6,18,Woman,Right,
18,1,34,0.5666206000000784,['n'],1,right,none,-99,-99,0.5,0,none,6,18,Woman,Right,
19,1,34,0.5808117999999922,['c'],1,left,none,-99,-99,0.5,0,none,6,18,Woman,Right,
20,1,34,0.6308457999998609,['c'],1,left,none,-99,-99,0.5,0,none,6,18,Woman,Right,
21,1,34,1.129302899999857,['n'],1,right,none,-99,-99,0.5,0,none,6,18,Woman,Right,
22,1,34,0.7308653999998569,['c'],0,right,none,-99,-99,0.5,0,none,6,18,Woman,Right,
23,1,34,0.6954565999999431,['c'],1,left,none,-99,-99,0.5,0,none,6,18,Woman,Right,
0,1,35,0.8659652999999707,['c'],1,left,none,-99,-99,0.5,0,none,6,18,Woman,Right,
1,1,35,0.5808750000001055,['n'],1,right,none,-99,-99,0.5,0,none,6,18,Woman,Right,
2,1,35,0.7143951000002744,['c'],0,right,none,-99,-99,0.5,0,none,6,18,Woman,Right,
3,1,35,0.5628308999998808,['n'],1,right,none,-99,-99,0.5,0,none,6,18,Woman,Right,
4,1,35,0.547723500000302,['c'],1,left,none,-99,-99,0.5,0,none,6,18,Woman,Right,
5,1,35,0.5308608000000277,['n'],1,right,none,-99,-99,0.5,0,none,6,18,Woman,Right,
6,1,35,0.529609800000344,['c'],0,right,none,-99,-99,0.5,0,none,6,18,Woman,Right,
7,1,35,0.5306279000001268,['n'],1,right,none,-99,-99,0.5,0,none,6,18,Woman,Right,
8,1,35,0.6131092000000535,['n'],1,right,none,-99,-99,0.5,0,none,6,18,Woman,Right,
9,1,35,0.6801696999996238,['c'],1,left,none,-99,-99,0.5,0,none,6,18,Woman,Right,
10,1,35,0.5828455999999278,['n'],1,right,none,-99,-99,0.5,0,none,6,18,Woman,Right,
11,1,35,0.713905000000068,['c'],1,left,none,-99,-99,0.5,0,none,6,18,Woman,Right,
12,1,35,0.7311835000000428,['n'],0,left,none,-99,-99,0.5,0,none,6,18,Woman,Right,
13,1,35,0.5834427999998297,['c'],1,left,none,-99,-99,0.5,0,none,6,18,Woman,Right,
14,1,35,0.7833664999998291,['n'],0,left,none,-99,-99,0.5,0,none,6,18,Woman,Right,
15,1,35,0.7833021999999801,['c'],0,right,none,-99,-99,0.5,0,none,6,18,Woman,Right,
16,1,35,1.0994627000000037,['n'],0,left,none,-99,-99,0.5,0,none,6,18,Woman,Right,
17,1,35,0.8156866999997874,['n'],1,right,none,-99,-99,0.5,0,none,6,18,Woman,Right,
18,1,35,0.5996162999999797,['n'],1,right,none,-99,-99,0.5,0,none,6,18,Woman,Right,
19,1,35,0.5333552000001873,['c'],1,left,none,-99,-99,0.5,0,none,6,18,Woman,Right,
20,1,35,0.6674557000001187,['n'],0,left,none,-99,-99,0.5,0,none,6,18,Woman,Right,
21,1,35,0.6667034000001877,['n'],1,right,none,-99,-99,0.5,0,none,6,18,Woman,Right,
22,1,35,0.6669064000002436,['c'],1,left,none,-99,-99,0.5,0,none,6,18,Woman,Right,
23,1,35,0.666504199999963,['c'],1,left,none,-99,-99,0.5,0,none,6,18,Woman,Right,
0,1,36,0.6003625000003012,['n'],1,right,none,-99,-99,0.5,0,none,6,18,Woman,Right,
1,1,36,0.8999902999998994,['n'],1,right,none,-99,-99,0.5,0,none,6,18,Woman,Right,
2,1,36,0.748326299999917,['n'],1,right,none,-99,-99,0.5,0,none,6,18,Woman,Right,
3,1,36,0.681137999999919,['c'],1,left,none,-99,-99,0.5,0,none,6,18,Woman,Right,
4,1,36,1.0638661999996657,['n'],0,left,none,-99,-99,0.5,0,none,6,18,Woman,Right,
5,1,36,0.7477507999997215,['n'],1,right,none,-99,-99,0.5,0,none,6,18,Woman,Right,
6,1,36,0.7973960999997871,['n'],1,right,none,-99,-99,0.5,0,none,6,18,Woman,Right,
7,1,36,2.0980685000004087,['n'],0,left,none,-99,-99,0.5,0,none,6,18,Woman,Right,
8,1,36,0.8304837000000589,['n'],0,left,none,-99,-99,0.5,0,none,6,18,Woman,Right,
9,1,36,0.8138936999998805,['c'],1,left,none,-99,-99,0.5,0,none,6,18,Woman,Right,
10,1,36,0.8141623000001346,['n'],0,left,none,-99,-99,0.5,0,none,6,18,Woman,Right,
11,1,36,0.9825792000001456,['n'],1,right,none,-99,-99,0.5,0,none,6,18,Woman,Right,
12,1,36,0.7291581999998016,['n'],1,right,none,-99,-99,0.5,0,none,6,18,Woman,Right,
13,1,36,0.6805731999997988,['c'],1,left,none,-99,-99,0.5,0,none,6,18,Woman,Right,
14,1,36,0.8628325999998196,['c'],0,right,none,-99,-99,0.5,0,none,6,18,Woman,Right,
15,1,36,0.8492816000002676,['n'],0,left,none,-99,-99,0.5,0,none,6,18,Woman,Right,
16,1,36,0.7646940999998151,['c'],1,left,none,-99,-99,0.5,0,none,6,18,Woman,Right,
17,1,36,0.814023499999621,['n'],1,right,none,-99,-99,0.5,0,none,6,18,Woman,Right,
18,1,36,0.6812574000000495,['n'],1,right,none,-99,-99,0.5,0,none,6,18,Woman,Right,
19,1,36,0.6640566000000945,['c'],0,right,none,-99,-99,0.5,0,none,6,18,Woman,Right,
20,1,36,0.6802065000001676,['c'],1,left,none,-99,-99,0.5,0,none,6,18,Woman,Right,
21,1,36,0.6631747999999789,['c'],1,left,none,-99,-99,0.5,0,none,6,18,Woman,Right,
22,1,36,0.7970747000003939,['c'],1,left,none,-99,-99,0.5,0,none,6,18,Woman,Right,
23,1,36,0.796225399999912,['n'],1,right,none,-99,-99,0.5,0,none,6,18,Woman,Right,
0,1,37,0.8828207999999904,['n'],1,right,none,-99,-99,0.5,0,none,6,18,Woman,Right,
1,1,37,0.6480288999996446,['n'],1,right,none,-99,-99,0.5,0,none,6,18,Woman,Right,
2,1,37,0.6311974000000191,['c'],1,left,none,-99,-99,0.5,0,none,6,18,Woman,Right,
3,1,37,1.6141041999999288,['c'],1,left,none,-99,-99,0.5,0,none,6,18,Woman,Right,
4,1,37,0.6805208999999195,['n'],1,right,none,-99,-99,0.5,0,none,6,18,Woman,Right,
5,1,37,0.5809402999998383,['n'],1,right,none,-99,-99,0.5,0,none,6,18,Woman,Right,
6,1,37,0.6796570999999858,['n'],1,right,none,-99,-99,0.5,0,none,6,18,Woman,Right,
7,1,37,0.6477430999998433,['c'],0,right,none,-99,-99,0.5,0,none,6,18,Woman,Right,
8,1,37,0.8644961999998486,['c'],1,left,none,-99,-99,0.5,0,none,6,18,Woman,Right,
9,1,37,0.9644499000000906,['n'],0,left,none,-99,-99,0.5,0,none,6,18,Woman,Right,
10,1,37,0.747067700000116,['n'],0,left,none,-99,-99,0.5,0,none,6,18,Woman,Right,
11,1,37,0.6311064999999871,['c'],1,left,none,-99,-99,0.5,0,none,6,18,Woman,Right,
12,1,37,0.5628166999999848,['n'],1,right,none,-99,-99,0.5,0,none,6,18,Woman,Right,
13,1,37,0.5139663999998447,['n'],1,right,none,-99,-99,0.5,0,none,6,18,Woman,Right,
14,1,37,0.665124100000412,['n'],0,left,none,-99,-99,0.5,0,none,6,18,Woman,Right,
15,1,37,0.8477900000002592,['n'],0,left,none,-99,-99,0.5,0,none,6,18,Woman,Right,
16,1,37,0.6149261000000479,['n'],1,right,none,-99,-99,0.5,0,none,6,18,Woman,Right,
17,1,37,0.6480210000004263,['n'],0,left,none,-99,-99,0.5,0,none,6,18,Woman,Right,
18,1,37,0.8491111999996974,['n'],0,left,none,-99,-99,0.5,0,none,6,18,Woman,Right,
19,1,37,0.7144736999998713,['c'],1,left,none,-99,-99,0.5,0,none,6,18,Woman,Right,
20,1,37,0.7650753000002624,['c'],1,left,none,-99,-99,0.5,0,none,6,18,Woman,Right,
21,1,37,0.5149631999997837,['n'],1,right,none,-99,-99,0.5,0,none,6,18,Woman,Right,
22,1,37,0.5974286999999094,['n'],1,right,none,-99,-99,0.5,0,none,6,18,Woman,Right,
23,1,37,0.6140605999999025,['n'],1,right,none,-99,-99,0.5,0,none,6,18,Woman,Right,
0,1,38,0.583486499999708,['n'],1,right,none,-99,-99,0.5,0,none,6,18,Woman,Right,
1,1,38,0.8138405999998213,['c'],1,left,none,-99,-99,0.5,0,none,6,18,Woman,Right,
2,1,38,0.9961392999998679,['c'],1,left,none,-99,-99,0.5,0,none,6,18,Woman,Right,
3,1,38,1.0977665000000343,['c'],0,right,none,-99,-99,0.5,0,none,6,18,Woman,Right,
4,1,38,0.9479876000000331,['c'],1,left,none,-99,-99,0.5,0,none,6,18,Woman,Right,
5,1,38,0.7811475000003156,['n'],1,right,none,-99,-99,0.5,0,none,6,18,Woman,Right,
6,1,38,0.730798699999923,['n'],0,left,none,-99,-99,0.5,0,none,6,18,Woman,Right,
7,1,38,1.012212599999657,['c'],1,left,none,-99,-99,0.5,0,none,6,18,Woman,Right,
8,1,38,0.6640975000000253,['c'],1,left,none,-99,-99,0.5,0,none,6,18,Woman,Right,
9,1,38,0.9980794000002788,['n'],0,left,none,-99,-99,0.5,0,none,6,18,Woman,Right,
10,1,38,0.7479293999999754,['n'],1,right,none,-99,-99,0.5,0,none,6,18,Woman,Right,
11,1,38,0.7473723999996764,['c'],0,right,none,-99,-99,0.5,0,none,6,18,Woman,Right,
12,1,38,0.563266300000123,['n'],1,right,none,-99,-99,0.5,0,none,6,18,Woman,Right,
13,1,38,0.8472744999999122,['c'],1,left,none,-99,-99,0.5,0,none,6,18,Woman,Right,
14,1,38,0.5296176000001651,['n'],1,right,none,-99,-99,0.5,0,none,6,18,Woman,Right,
15,1,38,0.6310986999997112,['c'],1,left,none,-99,-99,0.5,0,none,6,18,Woman,Right,
16,1,38,0.5977946999996675,['n'],1,right,none,-99,-99,0.5,0,none,6,18,Woman,Right,
17,1,38,0.6477684000001318,['n'],1,right,none,-99,-99,0.5,0,none,6,18,Woman,Right,
18,1,38,0.5473701999999321,['n'],1,right,none,-99,-99,0.5,0,none,6,18,Woman,Right,
19,1,38,0.6977700000002187,['n'],1,right,none,-99,-99,0.5,0,none,6,18,Woman,Right,
20,1,38,0.7135065000002214,['c'],1,left,none,-99,-99,0.5,0,none,6,18,Woman,Right,
21,1,38,0.6312204999999267,['n'],1,right,none,-99,-99,0.5,0,none,6,18,Woman,Right,
22,1,38,0.6811349999998129,['c'],1,left,none,-99,-99,0.5,0,none,6,18,Woman,Right,
23,1,38,1.1984129999996185,['c'],1,left,none,-99,-99,0.5,0,none,6,18,Woman,Right,
0,1,39,0.5661167000002933,['n'],1,right,none,-99,-99,0.5,0,none,6,18,Woman,Right,
1,1,39,0.5815754999998717,['c'],1,left,none,-99,-99,0.5,0,none,6,18,Woman,Right,
2,1,39,1.06259799999998,['n'],1,right,none,-99,-99,0.5,0,none,6,18,Woman,Right,
3,1,39,0.6144655000002786,['c'],1,left,none,-99,-99,0.5,0,none,6,18,Woman,Right,
4,1,39,0.7295045999999274,['n'],1,right,none,-99,-99,0.5,0,none,6,18,Woman,Right,
5,1,39,1.7468089000003602,['n'],0,left,none,-99,-99,0.5,0,none,6,18,Woman,Right,
6,1,39,0.6479887000000417,['c'],1,left,none,-99,-99,0.5,0,none,6,18,Woman,Right,
7,1,39,0.5164353999998639,['n'],1,right,none,-99,-99,0.5,0,none,6,18,Woman,Right,
8,1,39,0.548002600000018,['c'],1,left,none,-99,-99,0.5,0,none,6,18,Woman,Right,
9,1,39,0.9810423999997511,['n'],0,left,none,-99,-99,0.5,0,none,6,18,Woman,Right,
10,1,39,0.6997050999998464,['n'],1,right,none,-99,-99,0.5,0,none,6,18,Woman,Right,
11,1,39,0.6632055999998556,['n'],1,right,none,-99,-99,0.5,0,none,6,18,Woman,Right,
12,1,39,0.7312732000000324,['c'],1,left,none,-99,-99,0.5,0,none,6,18,Woman,Right,
13,1,39,0.7479859000000033,['n'],1,right,none,-99,-99,0.5,0,none,6,18,Woman,Right,
14,1,39,0.582843000000139,['n'],0,left,none,-99,-99,0.5,0,none,6,18,Woman,Right,
15,1,39,0.6477294999999685,['c'],0,right,none,-99,-99,0.5,0,none,6,18,Woman,Right,
16,1,39,0.7973891999999978,['c'],0,right,none,-99,-99,0.5,0,none,6,18,Woman,Right,
17,1,39,0.762657599999784,['c'],0,right,none,-99,-99,0.5,0,none,6,18,Woman,Right,
18,1,39,1.1648540999999568,['n'],0,left,none,-99,-99,0.5,0,none,6,18,Woman,Right,
19,1,39,0.78132289999985,['c'],1,left,none,-99,-99,0.5,0,none,6,18,Woman,Right,
20,1,39,0.5808213000000251,['n'],1,right,none,-99,-99,0.5,0,none,6,18,Woman,Right,
21,1,39,0.7805461000002651,['c'],1,left,none,-99,-99,0.5,0,none,6,18,Woman,Right,
22,1,39,0.7969793000002028,['n'],1,right,none,-99,-99,0.5,0,none,6,18,Woman,Right,
23,1,39,1.064461299999948,['c'],1,left,none,-99,-99,0.5,0,none,6,18,Woman,Right,
0,1,40,0.7495119000000159,['n'],0,left,none,-99,-99,0.5,0,none,6,18,Woman,Right,
1,1,40,0.5149999999998727,['n'],1,right,none,-99,-99,0.5,0,none,6,18,Woman,Right,
2,1,40,1.3980502999997952,['n'],1,right,none,-99,-99,0.5,0,none,6,18,Woman,Right,
3,1,40,0.6631106999998337,['n'],1,right,none,-99,-99,0.5,0,none,6,18,Woman,Right,
4,1,40,0.6474364000000605,['c'],1,left,none,-99,-99,0.5,0,none,6,18,Woman,Right,
5,1,40,0.5978478999995787,['n'],1,right,none,-99,-99,0.5,0,none,6,18,Woman,Right,
6,1,40,0.713709199999812,['n'],1,right,none,-99,-99,0.5,0,none,6,18,Woman,Right,
7,1,40,0.5811656999999286,['c'],1,left,none,-99,-99,0.5,0,none,6,18,Woman,Right,
8,1,40,0.5647899000000507,['n'],1,right,none,-99,-99,0.5,0,none,6,18,Woman,Right,
9,1,40,0.6170584999999846,['n'],1,right,none,-99,-99,0.5,0,none,6,18,Woman,Right,
10,1,40,0.7461696000000302,['n'],1,right,none,-99,-99,0.5,0,none,6,18,Woman,Right,
11,1,40,1.0980807999999342,['c'],1,left,none,-99,-99,0.5,0,none,6,18,Woman,Right,
12,1,40,0.6147495000000163,['c'],1,left,none,-99,-99,0.5,0,none,6,18,Woman,Right,
13,1,40,0.5804392000000007,['c'],1,left,none,-99,-99,0.5,0,none,6,18,Woman,Right,
14,1,40,0.5814061000000947,['c'],0,right,none,-99,-99,0.5,0,none,6,18,Woman,Right,
15,1,40,0.7817939999999908,['n'],0,left,none,-99,-99,0.5,0,none,6,18,Woman,Right,
16,1,40,0.6312966999998935,['c'],0,right,none,-99,-99,0.5,0,none,6,18,Woman,Right,
17,1,40,0.7961716999998316,['n'],1,right,none,-99,-99,0.5,0,none,6,18,Woman,Right,
18,1,40,0.547854300000381,['c'],1,left,none,-99,-99,0.5,0,none,6,18,Woman,Right,
19,1,40,0.5796636000000035,['c'],1,left,none,-99,-99,0.5,0,none,6,18,Woman,Right,
20,1,40,0.679403000000093,['c'],1,left,none,-99,-99,0.5,0,none,6,18,Woman,Right,
21,1,40,0.8640531999999439,['n'],1,right,none,-99,-99,0.5,0,none,6,18,Woman,Right,
22,1,40,1.0142769999997654,['n'],0,left,none,-99,-99,0.5,0,none,6,18,Woman,Right,
23,1,40,0.6312937000002421,['c'],1,left,none,-99,-99,0.5,0,none,6,18,Woman,Right,
0,1,41,0.7157726000000366,['c'],1,left,none,-99,-99,0.5,0,none,6,18,Woman,Right,
1,1,41,0.5976184000001012,['c'],1,left,none,-99,-99,0.5,0,none,6,18,Woman,Right,
2,1,41,0.6299833000002764,['n'],1,right,none,-99,-99,0.5,0,none,6,18,Woman,Right,
3,1,41,0.4963282999997318,['c'],0,right,none,-99,-99,0.5,0,none,6,18,Woman,Right,
4,1,41,0.6974005000001853,['n'],1,right,none,-99,-99,0.5,0,none,6,18,Woman,Right,
5,1,41,0.4463061999999809,['c'],1,left,none,-99,-99,0.5,0,none,6,18,Woman,Right,
6,1,41,0.5461112000002686,['n'],1,right,none,-99,-99,0.5,0,none,6,18,Woman,Right,
7,1,41,1.8976008999998157,['n'],1,right,none,-99,-99,0.5,0,none,6,18,Woman,Right,
8,1,41,0.5807623000000603,['c'],0,right,none,-99,-99,0.5,0,none,6,18,Woman,Right,
9,1,41,0.7813666999995803,['c'],1,left,none,-99,-99,0.5,0,none,6,18,Woman,Right,
10,1,41,0.6985141999998632,['c'],0,right,none,-99,-99,0.5,0,none,6,18,Woman,Right,
11,1,41,0.7809176000000662,['n'],0,left,none,-99,-99,0.5,0,none,6,18,Woman,Right,
12,1,41,0.6310720000001311,['c'],0,right,none,-99,-99,0.5,0,none,6,18,Woman,Right,
13,1,41,0.5462861999999404,['n'],1,right,none,-99,-99,0.5,0,none,6,18,Woman,Right,
14,1,41,0.48134269999991375,['c'],1,left,none,-99,-99,0.5,0,none,6,18,Woman,Right,
15,1,41,0.6298919999999271,['c'],0,right,none,-99,-99,0.5,0,none,6,18,Woman,Right,
16,1,41,0.5796290000007502,['n'],0,left,none,-99,-99,0.5,0,none,6,18,Woman,Right,
17,1,41,0.5313807999991695,['c'],1,left,none,-99,-99,0.5,0,none,6,18,Woman,Right,
18,1,41,0.5978325999994922,['c'],1,left,none,-99,-99,0.5,0,none,6,18,Woman,Right,
19,1,41,0.7313926999995601,['n'],0,left,none,-99,-99,0.5,0,none,6,18,Woman,Right,
20,1,41,0.5809535999997024,['c'],0,right,none,-99,-99,0.5,0,none,6,18,Woman,Right,
21,1,41,0.5144252999998571,['n'],1,right,none,-99,-99,0.5,0,none,6,18,Woman,Right,
22,1,41,0.4638414000000921,['c'],1,left,none,-99,-99,0.5,0,none,6,18,Woman,Right,
23,1,41,0.6648338000004514,['c'],1,left,none,-99,-99,0.5,0,none,6,18,Woman,Right,
0,1,42,1.2492050999999265,['c'],0,right,none,-99,-99,0.5,0,none,6,18,Woman,Right,
1,1,42,0.8630879000002096,['n'],1,right,none,-99,-99,0.5,0,none,6,18,Woman,Right,
2,1,42,0.5461595999995552,['c'],0,right,none,-99,-99,0.5,0,none,6,18,Woman,Right,
3,1,42,0.5974137000002884,['n'],1,right,none,-99,-99,0.5,0,none,6,18,Woman,Right,
4,1,42,0.5140670999999202,['c'],1,left,none,-99,-99,0.5,0,none,6,18,Woman,Right,
5,1,42,0.5142041999997673,['n'],1,right,none,-99,-99,0.5,0,none,6,18,Woman,Right,
6,1,42,0.6464427000000796,['n'],0,left,none,-99,-99,0.5,0,none,6,18,Woman,Right,
7,1,42,0.6168785999998363,['n'],1,right,none,-99,-99,0.5,0,none,6,18,Woman,Right,
8,1,42,0.7308763000000909,['n'],1,right,none,-99,-99,0.5,0,none,6,18,Woman,Right,
9,1,42,0.5129657000006773,['n'],0,left,none,-99,-99,0.5,0,none,6,18,Woman,Right,
10,1,42,0.480569899999864,['c'],1,left,none,-99,-99,0.5,0,none,6,18,Woman,Right,
11,1,42,0.5477903000000879,['n'],0,left,none,-99,-99,0.5,0,none,6,18,Woman,Right,
12,1,42,0.5481810999999652,['c'],1,left,none,-99,-99,0.5,0,none,6,18,Woman,Right,
13,1,42,0.5143324999999095,['n'],0,left,none,-99,-99,0.5,0,none,6,18,Woman,Right,
14,1,42,0.5794816999996328,['c'],1,left,none,-99,-99,0.5,0,none,6,18,Woman,Right,
15,1,42,0.5647993000002316,['n'],1,right,none,-99,-99,0.5,0,none,6,18,Woman,Right,
16,1,42,0.9308713000000353,['c'],1,left,none,-99,-99,0.5,0,none,6,18,Woman,Right,
17,1,42,0.4963809000000765,['n'],1,right,none,-99,-99,0.5,0,none,6,18,Woman,Right,
18,1,42,0.6476984999999331,['n'],1,right,none,-99,-99,0.5,0,none,6,18,Woman,Right,
19,1,42,0.5131290999997873,['c'],1,left,none,-99,-99,0.5,0,none,6,18,Woman,Right,
20,1,42,0.5301923999995779,['n'],0,left,none,-99,-99,0.5,0,none,6,18,Woman,Right,
21,1,42,0.5295295999994778,['c'],0,right,none,-99,-99,0.5,0,none,6,18,Woman,Right,
22,1,42,0.4143475999999282,['n'],0,left,none,-99,-99,0.5,0,none,6,18,Woman,Right,
23,1,42,0.5297857000005024,['n'],1,right,none,-99,-99,0.5,0,none,6,18,Woman,Right,
0,1,43,0.8162780000002385,['n'],1,right,none,-99,-99,0.5,0,none,6,18,Woman,Right,
1,1,43,0.9145336999999927,['c'],1,left,none,-99,-99,0.5,0,none,6,18,Woman,Right,
2,1,43,1.0299921999994694,['n'],1,right,none,-99,-99,0.5,0,none,6,18,Woman,Right,
3,1,43,0.49648960000013176,['c'],1,left,none,-99,-99,0.5,0,none,6,18,Woman,Right,
4,1,43,0.8813961999994717,['n'],1,right,none,-99,-99,0.5,0,none,6,18,Woman,Right,
5,1,43,0.6147250000003623,['c'],1,left,none,-99,-99,0.5,0,none,6,18,Woman,Right,
6,1,43,0.6147145999993882,['c'],1,left,none,-99,-99,0.5,0,none,6,18,Woman,Right,
7,1,43,0.5990117999999711,['c'],1,left,none,-99,-99,0.5,0,none,6,18,Woman,Right,
8,1,43,0.5638019999996686,['c'],1,left,none,-99,-99,0.5,0,none,6,18,Woman,Right,
9,1,43,1.314824399999452,['n'],1,right,none,-99,-99,0.5,0,none,6,18,Woman,Right,
10,1,43,0.6979177000002892,['c'],0,right,none,-99,-99,0.5,0,none,6,18,Woman,Right,
11,1,43,0.5965375000005224,['c'],1,left,none,-99,-99,0.5,0,none,6,18,Woman,Right,
12,1,43,0.8463067000002411,['n'],1,right,none,-99,-99,0.5,0,none,6,18,Woman,Right,
13,1,43,0.8481188999994629,['c'],1,left,none,-99,-99,0.5,0,none,6,18,Woman,Right,
14,1,43,0.6313215999998647,['n'],0,left,none,-99,-99,0.5,0,none,6,18,Woman,Right,
15,1,43,0.5795576000000437,['n'],1,right,none,-99,-99,0.5,0,none,6,18,Woman,Right,
16,1,43,0.9962835000005725,['n'],1,right,none,-99,-99,0.5,0,none,6,18,Woman,Right,
17,1,43,0.6295200000004115,['c'],1,left,none,-99,-99,0.5,0,none,6,18,Woman,Right,
18,1,43,0.6334538000000975,['n'],0,left,none,-99,-99,0.5,0,none,6,18,Woman,Right,
19,1,43,0.5969832000000679,['c'],0,right,none,-99,-99,0.5,0,none,6,18,Woman,Right,
20,1,43,0.5477173999997831,['n'],1,right,none,-99,-99,0.5,0,none,6,18,Woman,Right,
21,1,43,0.5812394000004133,['c'],1,left,none,-99,-99,0.5,0,none,6,18,Woman,Right,
22,1,43,0.6473178000005646,['n'],1,right,none,-99,-99,0.5,0,none,6,18,Woman,Right,
23,1,43,0.5473057000008339,['n'],1,right,none,-99,-99,0.5,0,none,6,18,Woman,Right,
0,1,44,0.5665623000004416,['c'],1,left,none,-99,-99,0.5,0,none,6,18,Woman,Right,
1,1,44,0.664033200000631,['c'],0,right,none,-99,-99,0.5,0,none,6,18,Woman,Right,
2,1,44,0.5160417000006419,['n'],1,right,none,-99,-99,0.5,0,none,6,18,Woman,Right,
3,1,44,0.7801601999999548,['c'],0,right,none,-99,-99,0.5,0,none,6,18,Woman,Right,
4,1,44,0.781386300000122,['n'],1,right,none,-99,-99,0.5,0,none,6,18,Woman,Right,
5,1,44,0.5971854999997959,['c'],1,left,none,-99,-99,0.5,0,none,6,18,Woman,Right,
6,1,44,0.5987785999996049,['n'],0,left,none,-99,-99,0.5,0,none,6,18,Woman,Right,
7,1,44,0.48300380000000587,['c'],1,left,none,-99,-99,0.5,0,none,6,18,Woman,Right,
8,1,44,0.4831918999998379,['n'],1,right,none,-99,-99,0.5,0,none,6,18,Woman,Right,
9,1,44,0.6647984999999608,['n'],0,left,none,-99,-99,0.5,0,none,6,18,Woman,Right,
10,1,44,0.8642103000001953,['c'],1,left,none,-99,-99,0.5,0,none,6,18,Woman,Right,
11,1,44,0.6315370000002076,['n'],0,left,none,-99,-99,0.5,0,none,6,18,Woman,Right,
12,1,44,0.6147230999995372,['n'],1,right,none,-99,-99,0.5,0,none,6,18,Woman,Right,
13,1,44,0.49575819999972737,['n'],1,right,none,-99,-99,0.5,0,none,6,18,Woman,Right,
14,1,44,0.5315472000002046,['n'],1,right,none,-99,-99,0.5,0,none,6,18,Woman,Right,
15,1,44,0.49741089999952237,['n'],0,left,none,-99,-99,0.5,0,none,6,18,Woman,Right,
16,1,44,0.8974734000003082,['n'],1,right,none,-99,-99,0.5,0,none,6,18,Woman,Right,
17,1,44,0.8972979000000123,['c'],1,left,none,-99,-99,0.5,0,none,6,18,Woman,Right,
18,1,44,0.5973168000000442,['n'],0,left,none,-99,-99,0.5,0,none,6,18,Woman,Right,
19,1,44,0.6140832000000955,['c'],1,left,none,-99,-99,0.5,0,none,6,18,Woman,Right,
20,1,44,0.7481858999999531,['n'],1,right,none,-99,-99,0.5,0,none,6,18,Woman,Right,
21,1,44,0.8310013999998773,['n'],1,right,none,-99,-99,0.5,0,none,6,18,Woman,Right,
22,1,44,0.7308117000002312,['n'],1,right,none,-99,-99,0.5,0,none,6,18,Woman,Right,
23,1,44,0.7812259999991511,['c'],1,left,none,-99,-99,0.5,0,none,6,18,Woman,Right,
0,1,45,0.7161340000002383,['n'],1,right,none,-99,-99,0.5,0,none,6,18,Woman,Right,
1,1,45,0.8463861000000179,['n'],0,left,none,-99,-99,0.5,0,none,6,18,Woman,Right,
2,1,45,0.5818487000005916,['n'],1,right,none,-99,-99,0.5,0,none,6,18,Woman,Right,
3,1,45,1.397254399999838,['c'],0,right,none,-99,-99,0.5,0,none,6,18,Woman,Right,
4,1,45,1.081122200000209,['c'],0,right,none,-99,-99,0.5,0,none,6,18,Woman,Right,
5,1,45,0.6151238000002195,['n'],1,right,none,-99,-99,0.5,0,none,6,18,Woman,Right,
6,1,45,0.6652570999995078,['c'],1,left,none,-99,-99,0.5,0,none,6,18,Woman,Right,
7,1,45,0.9485848000003898,['n'],0,left,none,-99,-99,0.5,0,none,6,18,Woman,Right,
8,1,45,0.6644303000002765,['c'],0,right,none,-99,-99,0.5,0,none,6,18,Woman,Right,
9,1,45,0.6814206999997623,['c'],1,left,none,-99,-99,0.5,0,none,6,18,Woman,Right,
10,1,45,0.6477693999995608,['c'],1,left,none,-99,-99,0.5,0,none,6,18,Woman,Right,
11,1,45,0.5139374000000316,['n'],1,right,none,-99,-99,0.5,0,none,6,18,Woman,Right,
12,1,45,0.6980403000006845,['n'],1,right,none,-99,-99,0.5,0,none,6,18,Woman,Right,
13,1,45,0.5633521999998266,['c'],0,right,none,-99,-99,0.5,0,none,6,18,Woman,Right,
14,1,45,0.6637979999995878,['n'],1,right,none,-99,-99,0.5,0,none,6,18,Woman,Right,
15,1,45,0.8808184999998048,['c'],0,right,none,-99,-99,0.5,0,none,6,18,Woman,Right,
16,1,45,0.6806141000006392,['n'],0,left,none,-99,-99,0.5,0,none,6,18,Woman,Right,
17,1,45,0.548171899999943,['c'],1,left,none,-99,-99,0.5,0,none,6,18,Woman,Right,
18,1,45,0.5813795000003665,['c'],1,left,none,-99,-99,0.5,0,none,6,18,Woman,Right,
19,1,45,0.4977933000000121,['n'],0,left,none,-99,-99,0.5,0,none,6,18,Woman,Right,
20,1,45,1.2808711999996376,['c'],1,left,none,-99,-99,0.5,0,none,6,18,Woman,Right,
21,1,45,0.564480399999411,['c'],1,left,none,-99,-99,0.5,0,none,6,18,Woman,Right,
22,1,45,0.6149769000003289,['c'],1,left,none,-99,-99,0.5,0,none,6,18,Woman,Right,
23,1,45,0.5481972999996287,['n'],1,right,none,-99,-99,0.5,0,none,6,18,Woman,Right,
0,1,46,0.5830775000003996,['n'],1,right,none,-99,-99,0.5,0,none,6,18,Woman,Right,
1,1,46,0.4643648999999641,['c'],0,right,none,-99,-99,0.5,0,none,6,18,Woman,Right,
2,1,46,0.49801579999984824,['n'],1,right,none,-99,-99,0.5,0,none,6,18,Woman,Right,
3,1,46,0.5314182000001892,['c'],0,right,none,-99,-99,0.5,0,none,6,18,Woman,Right,
4,1,46,0.7976023000001078,['c'],0,right,none,-99,-99,0.5,0,none,6,18,Woman,Right,
5,1,46,0.7478671999997459,['c'],0,right,none,-99,-99,0.5,0,none,6,18,Woman,Right,
6,1,46,0.6508585999999923,['c'],1,left,none,-99,-99,0.5,0,none,6,18,Woman,Right,
7,1,46,0.6496382000004814,['c'],0,right,none,-99,-99,0.5,0,none,6,18,Woman,Right,
8,1,46,0.9302072999998927,['n'],1,right,none,-99,-99,0.5,0,none,6,18,Woman,Right,
9,1,46,0.6990928000004715,['c'],1,left,none,-99,-99,0.5,0,none,6,18,Woman,Right,
10,1,46,0.5627774000004138,['c'],0,right,none,-99,-99,0.5,0,none,6,18,Woman,Right,
11,1,46,0.5817378000001554,['n'],0,left,none,-99,-99,0.5,0,none,6,18,Woman,Right,
12,1,46,0.4640089000004082,['c'],1,left,none,-99,-99,0.5,0,none,6,18,Woman,Right,
13,1,46,0.5481055000000197,['c'],1,left,none,-99,-99,0.5,0,none,6,18,Woman,Right,
14,1,46,0.48101909999968484,['c'],1,left,none,-99,-99,0.5,0,none,6,18,Woman,Right,
15,1,46,0.5481683000007251,['c'],1,left,none,-99,-99,0.5,0,none,6,18,Woman,Right,
16,1,46,0.5813405999997485,['c'],1,left,none,-99,-99,0.5,0,none,6,18,Woman,Right,
17,1,46,0.6981129999994664,['c'],0,right,none,-99,-99,0.5,0,none,6,18,Woman,Right,
18,1,46,0.5795922000006613,['c'],0,right,none,-99,-99,0.5,0,none,6,18,Woman,Right,
19,1,46,0.8811273999999685,['c'],1,left,none,-99,-99,0.5,0,none,6,18,Woman,Right,
20,1,46,0.5474086000003808,['n'],1,right,none,-99,-99,0.5,0,none,6,18,Woman,Right,
21,1,46,0.5974092999995264,['c'],1,left,none,-99,-99,0.5,0,none,6,18,Woman,Right,
22,1,46,0.9482819000004383,['n'],0,left,none,-99,-99,0.5,0,none,6,18,Woman,Right,
23,1,46,0.5142377000001943,['c'],1,left,none,-99,-99,0.5,0,none,6,18,Woman,Right,
0,1,47,0.6329396000000997,['c'],1,left,none,-99,-99,0.5,0,none,6,18,Woman,Right,
1,1,47,0.5620266000005358,['n'],1,right,none,-99,-99,0.5,0,none,6,18,Woman,Right,
2,1,47,0.8642677999996522,['n'],1,right,none,-99,-99,0.5,0,none,6,18,Woman,Right,
3,1,47,1.246240299999954,['n'],0,left,none,-99,-99,0.5,0,none,6,18,Woman,Right,
4,1,47,0.6485443000001396,['c'],0,right,none,-99,-99,0.5,0,none,6,18,Woman,Right,
5,1,47,0.5961858000000575,['n'],0,left,none,-99,-99,0.5,0,none,6,18,Woman,Right,
6,1,47,0.8973686999997881,['n'],0,left,none,-99,-99,0.5,0,none,6,18,Woman,Right,
7,1,47,0.7812383000000409,['n'],1,right,none,-99,-99,0.5,0,none,6,18,Woman,Right,
8,1,47,0.7644046000004892,['n'],1,right,none,-99,-99,0.5,0,none,6,18,Woman,Right,
9,1,47,0.5950918999997157,['n'],0,left,none,-99,-99,0.5,0,none,6,18,Woman,Right,
10,1,47,0.7313874000001306,['n'],1,right,none,-99,-99,0.5,0,none,6,18,Woman,Right,
11,1,47,0.86503730000004,['n'],0,left,none,-99,-99,0.5,0,none,6,18,Woman,Right,
12,1,47,0.6795809000004738,['n'],1,right,none,-99,-99,0.5,0,none,6,18,Woman,Right,
13,1,47,0.5145470999996178,['c'],1,left,none,-99,-99,0.5,0,none,6,18,Woman,Right,
14,1,47,0.7497432000000117,['n'],1,right,none,-99,-99,0.5,0,none,6,18,Woman,Right,
15,1,47,0.6493929999996908,['c'],0,right,none,-99,-99,0.5,0,none,6,18,Woman,Right,
16,1,47,0.6468317999997453,['n'],0,left,none,-99,-99,0.5,0,none,6,18,Woman,Right,
17,1,47,0.5632738000003883,['c'],0,right,none,-99,-99,0.5,0,none,6,18,Woman,Right,
18,1,47,1.1476259000000937,['n'],0,left,none,-99,-99,0.5,0,none,6,18,Woman,Right,
19,1,47,0.6974836999997933,['c'],1,left,none,-99,-99,0.5,0,none,6,18,Woman,Right,
20,1,47,0.8140903999992588,['c'],0,right,none,-99,-99,0.5,0,none,6,18,Woman,Right,
21,1,47,0.6328141000003598,['c'],1,left,none,-99,-99,0.5,0,none,6,18,Woman,Right,
22,1,47,0.696288199999799,['n'],1,right,none,-99,-99,0.5,0,none,6,18,Woman,Right,
23,1,47,0.5461033999999927,['c'],1,left,none,-99,-99,0.5,0,none,6,18,Woman,Right,
0,1,48,0.9997788000000583,['n'],1,right,none,-99,-99,0.5,0,none,6,18,Woman,Right,
1,1,48,0.8645363999994515,['c'],1,left,none,-99,-99,0.5,0,none,6,18,Woman,Right,
2,1,48,0.6995401000003767,['n'],0,left,none,-99,-99,0.5,0,none,6,18,Woman,Right,
3,1,48,0.9994654000001901,['n'],0,left,none,-99,-99,0.5,0,none,6,18,Woman,Right,
4,1,48,0.6317570000001069,['c'],0,right,none,-99,-99,0.5,0,none,6,18,Woman,Right,
