withinblocktrial,block,block_repetition,rt,resp,cor,cresp,conf_press,cj,rtconf,coherence,slow_trial,manipulation,sub,age,gender,handedness,
0,1,1,5.016609400000107,x,-99,right,none,-99,-99,0.5,1,none,3,17,Woman,Right,
1,1,1,2.6660036000000673,['c'],1,left,none,-99,-99,0.5,0,none,3,17,Woman,Right,
2,1,1,2.433265399999982,['n'],0,left,none,-99,-99,0.5,0,none,3,17,Woman,Right,
3,1,1,1.6502239999999802,['n'],1,right,none,-99,-99,0.5,0,none,3,17,Woman,Right,
4,1,1,1.4998309999998582,['n'],1,right,none,-99,-99,0.5,0,none,3,17,Woman,Right,
5,1,1,1.1672344000000976,['c'],1,left,none,-99,-99,0.5,0,none,3,17,Woman,Right,
6,1,1,1.0830931000000419,['c'],1,left,none,-99,-99,0.5,0,none,3,17,Woman,Right,
7,1,1,2.333283600000186,['c'],1,left,none,-99,-99,0.5,0,none,3,17,Woman,Right,
8,1,1,1.1332275999998274,['n'],1,right,none,-99,-99,0.5,0,none,3,17,Woman,Right,
9,1,1,1.0157404999999926,['c'],1,left,none,-99,-99,0.5,0,none,3,17,Woman,Right,
10,1,1,0.7656413999998222,['c'],1,left,none,-99,-99,0.5,0,none,3,17,Woman,Right,
11,1,1,1.0333179000001564,['c'],1,left,none,-99,-99,0.5,0,none,3,17,Woman,Right,
12,1,1,0.7337094000001798,['c'],1,left,none,-99,-99,0.5,0,none,3,17,Woman,Right,
13,1,1,0.7002964999999222,['n'],1,right,none,-99,-99,0.5,0,none,3,17,Woman,Right,
14,1,1,0.7160437000000002,['n'],1,right,none,-99,-99,0.5,0,none,3,17,Woman,Right,
15,1,1,0.6005192000000079,['n'],1,right,none,-99,-99,0.5,0,none,3,17,Woman,Right,
16,1,1,0.4999278000000231,['c'],1,left,none,-99,-99,0.5,0,none,3,17,Woman,Right,
17,1,1,0.5336090999999215,['c'],1,left,none,-99,-99,0.5,0,none,3,17,Woman,Right,
18,1,1,0.6498464999999669,['n'],0,left,none,-99,-99,0.5,0,none,3,17,Woman,Right,
19,1,1,0.5999822000001132,['n'],1,right,none,-99,-99,0.5,0,none,3,17,Woman,Right,
20,1,1,0.6669045999999526,['n'],1,right,none,-99,-99,0.5,0,none,3,17,Woman,Right,
21,1,1,0.6168222999999671,['n'],1,right,none,-99,-99,0.5,0,none,3,17,Woman,Right,
22,1,1,0.4000679000000673,['n'],1,right,none,-99,-99,0.5,0,none,3,17,Woman,Right,
23,1,1,0.5997710999999981,['n'],1,right,none,-99,-99,0.5,0,none,3,17,Woman,Right,
0,2,1,0.7160931000000801,['n'],1,right,none,-99,-99,0.1,0,none,3,17,Woman,Right,
1,2,1,0.5333660999999665,['c'],1,left,none,-99,-99,0.1,0,none,3,17,Woman,Right,
2,2,1,0.43320989999983794,['n'],1,right,none,-99,-99,0.4,0,none,3,17,Woman,Right,
3,2,1,0.41651170000000093,['c'],1,left,none,-99,-99,0.4,0,none,3,17,Woman,Right,
4,2,1,0.48308679999991,['n'],1,right,none,-99,-99,0.2,0,none,3,17,Woman,Right,
5,2,1,0.41639779999991333,['n'],0,left,none,-99,-99,0.1,0,none,3,17,Woman,Right,
6,2,1,0.4664617000000817,['c'],1,left,none,-99,-99,0.4,0,none,3,17,Woman,Right,
7,2,1,0.45072010000012597,['c'],1,left,none,-99,-99,0.2,0,none,3,17,Woman,Right,
8,2,1,0.4996972999999798,['n'],1,right,none,-99,-99,0.4,0,none,3,17,Woman,Right,
9,2,1,0.4341698999999153,['c'],0,right,none,-99,-99,0.1,0,none,3,17,Woman,Right,
10,2,1,0.7665044999998827,['n'],0,left,none,-99,-99,0.1,0,none,3,17,Woman,Right,
11,2,1,0.43293339999991076,['c'],0,right,none,-99,-99,0.1,0,none,3,17,Woman,Right,
12,2,1,0.532667500000116,['c'],1,left,none,-99,-99,0.2,0,none,3,17,Woman,Right,
13,2,1,0.5832112000000507,['n'],1,right,none,-99,-99,0.4,0,none,3,17,Woman,Right,
14,2,1,0.5991149000001315,['c'],1,left,none,-99,-99,0.4,0,none,3,17,Woman,Right,
15,2,1,0.4500679999998738,['n'],1,right,none,-99,-99,0.2,0,none,3,17,Woman,Right,
16,2,1,0.41586069999993924,['c'],0,right,none,-99,-99,0.2,0,none,3,17,Woman,Right,
17,2,1,2.349688699999888,['n'],0,left,none,-99,-99,0.2,0,none,3,17,Woman,Right,
18,2,1,0.5172070999999505,['c'],1,left,none,-99,-99,0.4,0,none,3,17,Woman,Right,
19,2,1,0.6174546999998256,['n'],1,right,none,-99,-99,0.2,0,none,3,17,Woman,Right,
20,2,1,0.4496070000000145,['c'],1,left,none,-99,-99,0.2,0,none,3,17,Woman,Right,
21,2,1,0.483479700000089,['n'],1,right,none,-99,-99,0.4,0,none,3,17,Woman,Right,
22,2,1,0.5671394999999393,['c'],1,left,none,-99,-99,0.1,0,none,3,17,Woman,Right,
23,2,1,0.6825684000000365,['n'],1,right,none,-99,-99,0.1,0,none,3,17,Woman,Right,
0,3,1,3.3003486000000066,['n'],1,right,['3'],3,3.167339699999957,0.1,0,none,3,17,Woman,Right,
1,3,1,2.1838239999999587,['c'],1,left,['9'],5,3.417178199999853,0.4,0,none,3,17,Woman,Right,
2,3,1,2.767834700000094,['n'],1,right,['8'],4,1.9835997000000134,0.1,0,none,3,17,Woman,Right,
3,3,1,0.6998387000001003,['n'],1,right,['0'],6,2.7668297000000166,0.4,0,none,3,17,Woman,Right,
4,3,1,2.184496699999954,['c'],1,left,['9'],5,2.21727060000012,0.2,0,none,3,17,Woman,Right,
5,3,1,2.700488499999892,['n'],0,left,['8'],4,2.3341341999998804,0.1,0,none,3,17,Woman,Right,
6,3,1,0.7327874000000065,['c'],0,right,['8'],4,2.7004426000000876,0.1,0,none,3,17,Woman,Right,
7,3,1,2.033582900000056,['n'],1,right,['0'],6,1.600342499999897,0.2,0,none,3,17,Woman,Right,
8,3,1,1.1172410000001491,['n'],1,right,['9'],5,2.7170522000001256,0.2,0,none,3,17,Woman,Right,
9,3,1,1.0511199000000033,['n'],1,right,['9'],5,1.6174710000000232,0.4,0,none,3,17,Woman,Right,
10,3,1,0.8332907000001342,['n'],1,right,['0'],6,1.6336842000000615,0.1,0,none,3,17,Woman,Right,
11,3,1,1.2507442000000992,['c'],1,left,['8'],4,1.4503521999999975,0.2,0,none,3,17,Woman,Right,
12,3,1,0.816188400000101,['c'],1,left,['0'],6,2.133969200000138,0.4,0,none,3,17,Woman,Right,
13,3,1,1.4338071999998192,['c'],1,left,['9'],5,1.2173347000000376,0.2,0,none,3,17,Woman,Right,
14,3,1,0.8832933000001049,['n'],1,right,['0'],6,0.9506189000001086,0.4,0,none,3,17,Woman,Right,
15,3,1,3.9168655999999373,['n'],0,left,['9'],5,0.8505700999999135,0.1,0,none,3,17,Woman,Right,
16,3,1,0.8348753000000215,['c'],1,left,['8'],4,1.1004649000001336,0.1,0,none,3,17,Woman,Right,
17,3,1,0.933396299999913,['n'],1,right,['8'],4,0.933681100000058,0.1,0,none,3,17,Woman,Right,
18,3,1,0.9831494000000021,['c'],1,left,['0'],6,1.3506416999998692,0.4,0,none,3,17,Woman,Right,
19,3,1,0.6667680000000473,['n'],1,right,['0'],6,0.85077339999998,0.2,0,none,3,17,Woman,Right,
20,3,1,0.783274899999924,['n'],1,right,['0'],6,2.1171770999999353,0.4,0,none,3,17,Woman,Right,
21,3,1,2.333553300000176,['n'],0,left,['3'],3,2.1174640000001546,0.2,0,none,3,17,Woman,Right,
22,3,1,0.8510813000000326,['n'],0,left,['8'],4,1.0505717999999433,0.2,0,none,3,17,Woman,Right,
23,3,1,0.9840335999999752,['c'],1,left,['9'],5,1.017377199999828,0.4,0,none,3,17,Woman,Right,
0,4,1,1.033993399999872,['c'],1,left,['9'],5,1.5007364999999027,0.2,0,FastFast,3,17,Woman,Right,
1,4,1,1.1165765999999167,['c'],0,right,['9'],5,0.8171976000000996,0.1,0,FastFast,3,17,Woman,Right,
2,4,1,0.567298400000027,['c'],1,left,['0'],6,0.5673455000001013,0.4,0,FastFast,3,17,Woman,Right,
3,4,1,1.133662200000117,['n'],1,right,['9'],5,1.0673002999999426,0.1,0,FastFast,3,17,Woman,Right,
4,4,1,1.0170786999999564,['n'],1,right,['0'],6,0.5673918999998477,0.2,0,FastFast,3,17,Woman,Right,
5,4,1,0.4839093000000503,['c'],1,left,['8'],4,1.167132600000059,0.1,0,FastFast,3,17,Woman,Right,
6,4,1,0.5665891000001011,['c'],0,right,['9'],5,0.6172262999998566,0.1,0,FastFast,3,17,Woman,Right,
7,4,1,0.4666722000001755,['n'],1,right,['0'],6,0.6171947999998793,0.2,0,FastFast,3,17,Woman,Right,
8,4,1,0.5840865999998641,['n'],0,left,['9'],5,0.817200800000137,0.2,0,FastFast,3,17,Woman,Right,
9,4,1,0.7172430999999051,['c'],0,right,['9'],5,0.6504871999998159,0.1,0,FastFast,3,17,Woman,Right,
10,4,1,0.8002621999999064,['n'],0,left,['9'],5,0.6669891999999891,0.2,0,FastFast,3,17,Woman,Right,
11,4,1,0.4339926000000105,['c'],1,left,['9'],5,0.5506355999998505,0.4,0,FastFast,3,17,Woman,Right,
12,4,1,0.5508156000000781,['c'],1,left,['9'],5,0.5171414000001278,0.2,0,FastFast,3,17,Woman,Right,
13,4,1,1.0002101000000039,['n'],1,right,['9'],5,0.5340221000001293,0.1,0,FastFast,3,17,Woman,Right,
14,4,1,0.5836219000000256,['c'],1,left,['0'],6,0.6505928999999924,0.4,0,FastFast,3,17,Woman,Right,
15,4,1,0.5836034000001291,['n'],1,right,['0'],6,0.8170608000000357,0.2,0,FastFast,3,17,Woman,Right,
16,4,1,0.8504528999999366,['n'],1,right,['9'],5,0.7672206999998252,0.2,0,FastFast,3,17,Woman,Right,
17,4,1,0.4671172000000752,['c'],1,left,['8'],4,0.5508898999999019,0.4,0,FastFast,3,17,Woman,Right,
18,4,1,0.40014659999997093,['n'],1,right,['0'],6,0.533955300000116,0.4,0,FastFast,3,17,Woman,Right,
19,4,1,0.4669256999998197,['n'],1,right,['0'],6,0.650591600000098,0.1,0,FastFast,3,17,Woman,Right,
20,4,1,0.6000925000000734,['c'],1,left,['0'],6,0.5338896999999179,0.2,0,FastFast,3,17,Woman,Right,
21,4,1,0.41678060000003825,['n'],1,right,['0'],6,0.633917399999973,0.2,0,FastFast,3,17,Woman,Right,
22,4,1,0.4172588999999789,['c'],0,right,['8'],4,1.216985700000123,0.1,0,FastFast,3,17,Woman,Right,
23,4,1,4.266922599999816,['n'],1,right,['0'],6,2.0003320000000713,0.2,0,FastFast,3,17,Woman,Right,
24,4,1,3.1007644999999684,['n'],1,right,['0'],6,0.5336073000000852,0.4,0,FastFast,3,17,Woman,Right,
25,4,1,0.9994352000001072,['n'],1,right,['0'],6,0.6835051000000476,0.4,0,FastFast,3,17,Woman,Right,
26,4,1,0.7163281000000552,['n'],1,right,['0'],6,0.6004573000000164,0.2,0,FastFast,3,17,Woman,Right,
27,4,1,0.5660003999998935,['n'],1,right,['0'],6,0.5172726000000694,0.4,0,FastFast,3,17,Woman,Right,
28,4,1,0.8996060000001762,['c'],1,left,['9'],5,0.8171128999999837,0.4,0,FastFast,3,17,Woman,Right,
29,4,1,0.54955259999997,['n'],1,right,['9'],5,0.4670779999999013,0.1,0,FastFast,3,17,Woman,Right,
30,4,1,0.44965369999999893,['c'],1,left,['9'],5,1.0838698000000022,0.1,0,FastFast,3,17,Woman,Right,
31,4,1,0.8656158999999661,['c'],1,left,['9'],5,0.6171269999999822,0.4,0,FastFast,3,17,Woman,Right,
32,4,1,0.6329444000000422,['n'],0,left,['9'],5,0.45134970000003705,0.1,0,FastFast,3,17,Woman,Right,
33,4,1,0.7493686000000253,['c'],1,left,['0'],6,0.4333756999999423,0.2,0,FastFast,3,17,Woman,Right,
34,4,1,1.0161259999999857,['n'],1,right,['0'],6,0.7338320000001204,0.1,0,FastFast,3,17,Woman,Right,
35,4,1,0.565927899999906,['c'],1,left,['0'],6,0.6172781000000214,0.4,0,FastFast,3,17,Woman,Right,
36,4,1,0.7826190000000679,['n'],0,left,['0'],6,0.4174765000000207,0.4,0,FastFast,3,17,Woman,Right,
37,4,1,0.4485680999998749,['c'],0,right,['8'],4,2.2337638999999854,0.2,0,FastFast,3,17,Woman,Right,
38,4,1,3.216369900000018,['n'],0,left,['8'],4,1.4334630000000743,0.4,0,FastFast,3,17,Woman,Right,
39,4,1,1.2832355999998981,['n'],1,right,['9'],5,0.850557199999912,0.1,0,FastFast,3,17,Woman,Right,
40,4,1,0.6994892000000164,['c'],1,left,['8'],4,0.633853100000124,0.4,0,FastFast,3,17,Woman,Right,
41,4,1,0.6996282999998584,['c'],1,left,['8'],4,0.45079680000003464,0.4,0,FastFast,3,17,Woman,Right,
42,4,1,1.2163203000000067,['n'],0,left,['9'],5,0.5001982000001135,0.4,0,FastFast,3,17,Woman,Right,
43,4,1,0.6330065999998169,['c'],1,left,['8'],4,0.4170596999999816,0.4,0,FastFast,3,17,Woman,Right,
44,4,1,0.7161250999999993,['c'],1,left,['3'],3,2.5005721999998514,0.1,0,FastFast,3,17,Woman,Right,
45,4,1,1.0494329000000562,['n'],1,right,['9'],5,0.500499199999922,0.1,0,FastFast,3,17,Woman,Right,
46,4,1,0.5664732000000186,['n'],1,right,['9'],5,0.48375800000007985,0.1,0,FastFast,3,17,Woman,Right,
47,4,1,0.6495124000000487,['n'],0,left,['9'],5,0.8505334999999832,0.1,0,FastFast,3,17,Woman,Right,
48,4,1,0.7493663000000197,['n'],1,right,['0'],6,1.0006369999998697,0.4,0,FastFast,3,17,Woman,Right,
49,4,1,0.5995545999999194,['n'],1,right,['0'],6,0.433499700000084,0.2,0,FastFast,3,17,Woman,Right,
50,4,1,0.7823542999999518,['c'],1,left,['0'],6,1.066986100000122,0.2,0,FastFast,3,17,Woman,Right,
51,4,1,1.19901579999987,['n'],0,left,['0'],6,0.4005789000000277,0.2,0,FastFast,3,17,Woman,Right,
52,4,1,0.4667771999997967,['n'],0,left,['9'],5,0.40050670000005084,0.1,0,FastFast,3,17,Woman,Right,
53,4,1,0.5998974999999973,['c'],1,left,['9'],5,0.5673494000000119,0.4,0,FastFast,3,17,Woman,Right,
54,4,1,0.48311969999986104,['n'],1,right,['9'],5,0.3005392000000029,0.1,0,FastFast,3,17,Woman,Right,
55,4,1,1.3827054000000771,['n'],1,right,['9'],5,0.9004110999999284,0.4,0,FastFast,3,17,Woman,Right,
56,4,1,0.6158176999999796,['n'],1,right,['0'],6,0.3839141999999356,0.2,0,FastFast,3,17,Woman,Right,
57,4,1,0.41580419999991136,['n'],1,right,['0'],6,0.4174579000000449,0.2,0,FastFast,3,17,Woman,Right,
58,4,1,0.4829521999999997,['n'],0,left,['0'],6,0.4838921999999002,0.1,0,FastFast,3,17,Woman,Right,
59,4,1,0.36577790000001187,['n'],0,left,['0'],6,0.38378110000007837,0.2,0,FastFast,3,17,Woman,Right,
0,5,1,3.4662120000000414,['n'],0,left,['9'],5,1.4007180000000972,0.4,0,AccFast,3,17,Woman,Right,
1,5,1,1.2662070000001222,['c'],1,left,['8'],4,1.5674867000000177,0.2,0,AccFast,3,17,Woman,Right,
2,5,1,0.8498937999997906,['n'],1,right,['0'],6,0.4004054999998061,0.4,0,AccFast,3,17,Woman,Right,
3,5,1,1.283050699999876,['n'],1,right,['0'],6,0.6505359000000226,0.1,0,AccFast,3,17,Woman,Right,
4,5,1,0.6662601999998969,['n'],1,right,['0'],6,0.38391760000013164,0.2,0,AccFast,3,17,Woman,Right,
5,5,1,0.5332356000001255,['n'],0,left,['9'],5,0.7337663000000703,0.4,0,AccFast,3,17,Woman,Right,
6,5,1,0.7660854000000654,['n'],0,left,['9'],5,0.8671690999999555,0.2,0,AccFast,3,17,Woman,Right,
7,5,1,0.632889200000136,['n'],1,right,['9'],5,0.3672401000001173,0.4,0,AccFast,3,17,Woman,Right,
8,5,1,5.0164027999999234,x,-99,left,none,-99,-99,0.2,1,AccFast,3,17,Woman,Right,
9,5,1,1.599468399999978,['n'],0,left,['8'],4,0.7173827999999958,0.2,0,AccFast,3,17,Woman,Right,
10,5,1,0.5007152999999107,['n'],1,right,['0'],6,0.48394240000016,0.4,0,AccFast,3,17,Woman,Right,
11,5,1,1.5660997999998472,['n'],0,left,['8'],4,0.6672231000000011,0.2,0,AccFast,3,17,Woman,Right,
12,5,1,0.7162252999999055,['n'],1,right,['9'],5,0.4172475000000304,0.1,0,AccFast,3,17,Woman,Right,
13,5,1,1.7331182000000354,['n'],0,left,['0'],6,1.0670590000001994,0.2,0,AccFast,3,17,Woman,Right,
14,5,1,0.5158401000001049,['n'],1,right,['0'],6,0.3505486999999903,0.4,0,AccFast,3,17,Woman,Right,
15,5,1,0.716306300000042,['n'],1,right,['0'],6,0.2839959999998882,0.2,0,AccFast,3,17,Woman,Right,
16,5,1,0.43360969999980625,['n'],1,right,['0'],6,0.36711160000004384,0.1,0,AccFast,3,17,Woman,Right,
17,5,1,0.5667528000001312,['c'],1,left,['0'],6,1.1505047999999078,0.1,0,AccFast,3,17,Woman,Right,
18,5,1,0.4829439000000093,['n'],1,right,['0'],6,0.26760910000007243,0.4,0,AccFast,3,17,Woman,Right,
19,5,1,0.4665035999998963,['n'],1,right,['0'],6,0.2004256999998688,0.1,0,AccFast,3,17,Woman,Right,
20,5,1,0.43276779999996506,['n'],0,left,['8'],4,1.4002499999999145,0.2,0,AccFast,3,17,Woman,Right,
21,5,1,0.6494255000000067,['n'],1,right,['8'],4,0.5508492000001297,0.2,0,AccFast,3,17,Woman,Right,
22,5,1,2.699352699999963,['n'],0,left,['9'],5,0.5673500000000331,0.4,0,AccFast,3,17,Woman,Right,
23,5,1,1.8656369000000268,['n'],0,left,['9'],5,0.3838551000001189,0.2,0,AccFast,3,17,Woman,Right,
24,5,1,0.7154957999998715,['n'],1,right,['9'],5,0.40049010000007,0.4,0,AccFast,3,17,Woman,Right,
25,5,1,1.19994870000005,['c'],1,left,['9'],5,0.4670767000000069,0.1,0,AccFast,3,17,Woman,Right,
26,5,1,0.9829346999999871,['n'],0,left,['9'],5,0.3336554999998498,0.2,0,AccFast,3,17,Woman,Right,
27,5,1,0.8990023999999721,['n'],1,right,['0'],6,0.4672722000000249,0.2,0,AccFast,3,17,Woman,Right,
28,5,1,0.5167607999999291,['n'],1,right,['0'],6,0.31652409999992415,0.4,0,AccFast,3,17,Woman,Right,
29,5,1,1.2158614999998463,['c'],1,left,['9'],5,0.38404209999998784,0.4,0,AccFast,3,17,Woman,Right,
30,5,1,0.46554710000009436,['n'],0,left,['9'],5,0.3505522000000383,0.1,0,AccFast,3,17,Woman,Right,
31,5,1,0.6829658999999992,['c'],1,left,['3'],3,0.3005266999998639,0.1,0,AccFast,3,17,Woman,Right,
32,5,1,1.098857199999884,['n'],1,right,['9'],5,0.28380859999992936,0.4,0,AccFast,3,17,Woman,Right,
33,5,1,1.0661885000001803,['n'],0,left,['0'],6,0.3841437999999471,0.2,0,AccFast,3,17,Woman,Right,
34,5,1,0.7327263999998195,['n'],1,right,['0'],6,0.250375300000087,0.4,0,AccFast,3,17,Woman,Right,
35,5,1,1.0488777000000482,['n'],1,right,['8'],4,0.5669678000001568,0.2,0,AccFast,3,17,Woman,Right,
36,5,1,0.7167661999999382,['n'],1,right,['9'],5,0.21710589999997865,0.1,0,AccFast,3,17,Woman,Right,
37,5,1,0.749719099999993,['n'],1,right,['8'],4,0.5334485999999288,0.2,0,AccFast,3,17,Woman,Right,
38,5,1,0.8007949000000281,['c'],1,left,['8'],4,1.0506067000001167,0.4,0,AccFast,3,17,Woman,Right,
39,5,1,1.2151272000000972,['n'],1,right,['3'],3,1.3172360999999455,0.1,0,AccFast,3,17,Woman,Right,
40,5,1,1.0156190000000151,['n'],1,right,['9'],5,0.35039169999981823,0.4,0,AccFast,3,17,Woman,Right,
41,5,1,0.5833354999999756,['n'],1,right,['9'],5,0.3505142999999862,0.4,0,AccFast,3,17,Woman,Right,
42,5,1,2.1659799999999905,['c'],1,left,['9'],5,0.21726620000004004,0.1,0,AccFast,3,17,Woman,Right,
43,5,1,3.2000935000000936,['c'],0,right,['9'],5,1.8173960000001443,0.1,0,AccFast,3,17,Woman,Right,
44,5,1,1.7498642999998992,['n'],0,left,['9'],5,0.31723059999990255,0.1,0,AccFast,3,17,Woman,Right,
45,5,1,2.71762949999993,['n'],1,right,['8'],4,1.0338621999999305,0.2,0,AccFast,3,17,Woman,Right,
46,5,1,0.9322239000000536,['n'],1,right,['8'],4,0.40073069999994004,0.1,0,AccFast,3,17,Woman,Right,
47,5,1,1.5832903000000442,['c'],1,left,['8'],4,0.2507706000001235,0.1,0,AccFast,3,17,Woman,Right,
48,5,1,1.2491344000000026,['c'],1,left,['0'],6,0.2337837000000036,0.4,0,AccFast,3,17,Woman,Right,
49,5,1,1.2154037000000244,['n'],1,right,['9'],5,0.8505899000001591,0.4,0,AccFast,3,17,Woman,Right,
50,5,1,2.7995547000000442,['c'],1,left,['9'],5,0.2670990999999958,0.2,0,AccFast,3,17,Woman,Right,
51,5,1,1.1496133000000555,['c'],0,right,['3'],3,1.8339485999999852,0.1,0,AccFast,3,17,Woman,Right,
52,5,1,0.6662231999998767,['n'],0,left,['9'],5,0.25063780000004954,0.1,0,AccFast,3,17,Woman,Right,
53,5,1,0.8992431000001488,['n'],0,left,['9'],5,0.3838851999998951,0.1,0,AccFast,3,17,Woman,Right,
54,5,1,1.2821582999999919,['c'],1,left,['9'],5,0.36663709999993443,0.4,0,AccFast,3,17,Woman,Right,
55,5,1,0.9659406000000672,['n'],1,right,['9'],5,0.28363199999989774,0.2,0,AccFast,3,17,Woman,Right,
56,5,1,1.1500286999998934,['c'],1,left,['9'],5,0.2675987999998597,0.1,0,AccFast,3,17,Woman,Right,
57,5,1,1.116466199999877,['c'],1,left,['9'],5,0.31718320000004496,0.4,0,AccFast,3,17,Woman,Right,
58,5,1,1.0497745000000123,['n'],1,right,['9'],5,0.2506076999998186,0.1,0,AccFast,3,17,Woman,Right,
59,5,1,0.816117899999881,['c'],1,left,['9'],5,0.2338755000000674,0.2,0,AccFast,3,17,Woman,Right,
0,6,1,2.6821136000000934,['c'],1,left,['9'],5,1.7176653999999871,0.4,0,AccAcc,3,17,Woman,Right,
1,6,1,1.1655359000001226,['n'],1,right,['0'],6,1.6839423000001261,0.2,0,AccAcc,3,17,Woman,Right,
2,6,1,1.200020400000085,['n'],1,right,['0'],6,1.0339739000000918,0.2,0,AccAcc,3,17,Woman,Right,
3,6,1,1.0333820999999261,['c'],1,left,['9'],5,0.9339177000001655,0.2,0,AccAcc,3,17,Woman,Right,
4,6,1,0.9325890000000072,['c'],1,left,['9'],5,0.6172184000001835,0.4,0,AccAcc,3,17,Woman,Right,
5,6,1,0.782167900000104,['n'],1,right,['9'],5,0.6838685000000169,0.4,0,AccAcc,3,17,Woman,Right,
6,6,1,0.8492657999997846,['n'],1,right,['9'],5,0.8339665999999397,0.2,0,AccAcc,3,17,Woman,Right,
7,6,1,0.8504284999999072,['c'],0,right,['8'],4,0.6171392000001106,0.1,0,AccAcc,3,17,Woman,Right,
8,6,1,1.4162374,['c'],0,right,['8'],4,0.6338470999999117,0.1,0,AccAcc,3,17,Woman,Right,
9,6,1,2.5159126000000924,['c'],1,left,['3'],3,1.9673262999999679,0.1,0,AccAcc,3,17,Woman,Right,
10,6,1,1.1504327999998623,['n'],0,left,['8'],4,0.8005471999999827,0.1,0,AccAcc,3,17,Woman,Right,
11,6,1,0.8152671000000282,['n'],1,right,['0'],6,0.6671575000000303,0.4,0,AccAcc,3,17,Woman,Right,
12,6,1,1.0831439000000955,['c'],1,left,['0'],6,0.5671419999998761,0.4,0,AccAcc,3,17,Woman,Right,
13,6,1,0.7992820000001757,['c'],1,left,['0'],6,0.9339539000000059,0.2,0,AccAcc,3,17,Woman,Right,
14,6,1,0.8328711999999996,['n'],1,right,['0'],6,0.5506202999999914,0.4,0,AccAcc,3,17,Woman,Right,
15,6,1,0.8500020999999833,['c'],1,left,['0'],6,0.5671142999999574,0.2,0,AccAcc,3,17,Woman,Right,
16,6,1,0.7995800999999574,['c'],1,left,['0'],6,0.5671630999997888,0.1,0,AccAcc,3,17,Woman,Right,
17,6,1,0.8165850000000319,['n'],0,left,['0'],6,0.5505912000003264,0.2,0,AccAcc,3,17,Woman,Right,
18,6,1,0.698538500000268,['n'],1,right,['0'],6,0.5005086999999548,0.4,0,AccAcc,3,17,Woman,Right,
19,6,1,1.3513849999999366,['n'],1,right,['0'],6,0.4837499000000207,0.1,0,AccAcc,3,17,Woman,Right,
20,6,1,0.6829543000003468,['c'],1,left,['0'],6,0.5338722000001326,0.1,0,AccAcc,3,17,Woman,Right,
21,6,1,0.8653515999999399,['n'],1,right,['8'],4,2.2004760999998325,0.1,0,AccAcc,3,17,Woman,Right,
22,6,1,1.0826701000000867,['n'],1,right,['8'],4,0.5338590999999724,0.4,0,AccAcc,3,17,Woman,Right,
23,6,1,0.6500909000001229,['n'],0,left,['8'],4,0.5004978000001756,0.1,0,AccAcc,3,17,Woman,Right,
24,6,1,1.0656970000000001,['n'],0,left,['8'],4,0.4509762000002411,0.1,0,AccAcc,3,17,Woman,Right,
25,6,1,1.2151868999999351,['c'],1,left,['8'],4,0.7338767999999618,0.4,0,AccAcc,3,17,Woman,Right,
26,6,1,0.8496420999999827,['c'],1,left,['9'],5,0.7003288000000794,0.1,0,AccAcc,3,17,Woman,Right,
27,6,1,0.8320557000001827,['n'],0,left,['9'],5,0.6005721999999878,0.1,0,AccAcc,3,17,Woman,Right,
28,6,1,0.6995017999997799,['n'],1,right,['9'],5,0.5672988999999689,0.2,0,AccAcc,3,17,Woman,Right,
29,6,1,2.1654335000002902,['n'],1,right,['3'],3,1.0502102000000377,0.2,0,AccAcc,3,17,Woman,Right,
30,6,1,0.5664610999997421,['n'],1,right,['9'],5,0.6172228000000359,0.1,0,AccAcc,3,17,Woman,Right,
31,6,1,0.5995302000001175,['n'],1,right,['9'],5,0.41706870000007257,0.4,0,AccAcc,3,17,Woman,Right,
32,6,1,0.6834561999999096,['n'],1,right,['9'],5,0.4505026000001635,0.4,0,AccAcc,3,17,Woman,Right,
33,6,1,0.9986029000001508,['c'],1,left,['9'],5,0.3836444999997184,0.2,0,AccAcc,3,17,Woman,Right,
34,6,1,0.9662645000003067,['n'],0,left,['9'],5,0.33351079999965805,0.2,0,AccAcc,3,17,Woman,Right,
35,6,1,1.11657249999962,['n'],0,left,['8'],4,0.3664517000001979,0.2,0,AccAcc,3,17,Woman,Right,
36,6,1,0.7845595999997386,['c'],1,left,['8'],4,0.3503814999999122,0.1,0,AccAcc,3,17,Woman,Right,
37,6,1,0.6319402999997692,['c'],1,left,['8'],4,0.40043169999989914,0.4,0,AccAcc,3,17,Woman,Right,
38,6,1,0.999553399999968,['n'],1,right,['8'],4,0.3504619000000275,0.1,0,AccAcc,3,17,Woman,Right,
39,6,1,0.6328275999999278,['n'],1,right,['9'],5,0.6503281999998762,0.4,0,AccAcc,3,17,Woman,Right,
40,6,1,0.6664949000000888,['n'],1,right,['9'],5,0.9005440999999337,0.4,0,AccAcc,3,17,Woman,Right,
41,6,1,0.7158824999996796,['n'],1,right,['0'],6,0.7339791999997942,0.2,0,AccAcc,3,17,Woman,Right,
42,6,1,1.215697000000091,['n'],1,right,['0'],6,0.5671403000001192,0.1,0,AccAcc,3,17,Woman,Right,
43,6,1,0.9497500999996191,['n'],1,right,['8'],4,0.5838628000001336,0.1,0,AccAcc,3,17,Woman,Right,
44,6,1,0.8490247999998246,['n'],1,right,['9'],5,0.40050609999980225,0.2,0,AccAcc,3,17,Woman,Right,
45,6,1,0.9336187999997492,['c'],1,left,['9'],5,0.5838345000001937,0.4,0,AccAcc,3,17,Woman,Right,
46,6,1,0.7330836000001,['n'],1,right,['0'],6,0.5506881999999678,0.4,0,AccAcc,3,17,Woman,Right,
47,6,1,0.8984815999997409,['n'],1,right,['0'],6,0.5338004000000183,0.4,0,AccAcc,3,17,Woman,Right,
48,6,1,0.666314400000374,['c'],1,left,['0'],6,0.5337744999997085,0.1,0,AccAcc,3,17,Woman,Right,
49,6,1,0.6994674000002306,['n'],0,left,['0'],6,0.5002574000000095,0.2,0,AccAcc,3,17,Woman,Right,
50,6,1,1.666238699999667,['n'],1,right,['8'],4,0.4339401000001999,0.4,0,AccAcc,3,17,Woman,Right,
51,6,1,1.249511199999688,['c'],1,left,['9'],5,0.6337768999997024,0.4,0,AccAcc,3,17,Woman,Right,
52,6,1,0.5991953000002468,['n'],0,left,['9'],5,0.7006069999997635,0.2,0,AccAcc,3,17,Woman,Right,
53,6,1,0.6662940000001072,['c'],1,left,['9'],5,0.7338242000000719,0.4,0,AccAcc,3,17,Woman,Right,
54,6,1,0.6332136000000901,['n'],1,right,['0'],6,0.5671890999997231,0.1,0,AccAcc,3,17,Woman,Right,
55,6,1,0.7494692999998733,['c'],1,left,['0'],6,0.6671967000002041,0.1,0,AccAcc,3,17,Woman,Right,
56,6,1,0.5992849999997816,['n'],1,right,['0'],6,0.46708040000021356,0.2,0,AccAcc,3,17,Woman,Right,
57,6,1,0.8002277000000504,['c'],1,left,['0'],6,0.6671527999997124,0.2,0,AccAcc,3,17,Woman,Right,
58,6,1,0.599557300000015,['n'],1,right,['0'],6,0.3838786999999684,0.2,0,AccAcc,3,17,Woman,Right,
59,6,1,0.6669259000000238,['c'],1,left,['0'],6,0.3338401999999405,0.2,0,AccAcc,3,17,Woman,Right,
0,7,1,1.1327047999998285,['n'],1,right,['0'],6,0.5504921000001559,0.2,0,FastAcc,3,17,Woman,Right,
1,7,1,0.46687420000034763,['n'],1,right,['0'],6,0.43383029999995415,0.2,0,FastAcc,3,17,Woman,Right,
2,7,1,1.181954599999699,['n'],1,right,['0'],6,0.8504567999998471,0.1,0,FastAcc,3,17,Woman,Right,
3,7,1,0.7162933999998131,['c'],1,left,['0'],6,0.45037779999984195,0.4,0,FastAcc,3,17,Woman,Right,
4,7,1,0.4334676000003128,['n'],0,left,['0'],6,0.3504745999998704,0.1,0,FastAcc,3,17,Woman,Right,
5,7,1,1.4996484000002965,['c'],1,left,['8'],4,0.9506274000000303,0.1,0,FastAcc,3,17,Woman,Right,
6,7,1,0.8162582999998449,['c'],0,right,['8'],4,0.9506290999997873,0.1,0,FastAcc,3,17,Woman,Right,
7,7,1,0.46510029999990365,['n'],0,left,['8'],4,1.2170591999997669,0.1,0,FastAcc,3,17,Woman,Right,
8,7,1,0.6829738000001271,['n'],1,right,['8'],4,1.3672976999996536,0.2,0,FastAcc,3,17,Woman,Right,
9,7,1,0.5660448999997243,['c'],1,left,['8'],4,0.9172891000002892,0.1,0,FastAcc,3,17,Woman,Right,
10,7,1,0.7495950999996239,['n'],1,right,['0'],6,0.5339192999999796,0.4,0,FastAcc,3,17,Woman,Right,
11,7,1,0.666186899999957,['n'],1,right,['0'],6,0.36717989999988276,0.4,0,FastAcc,3,17,Woman,Right,
12,7,1,0.8663974000000962,['c'],1,left,['9'],5,0.8673711000001276,0.2,0,FastAcc,3,17,Woman,Right,
13,7,1,0.5164098000000195,['n'],0,left,['8'],4,0.9335909999999785,0.1,0,FastAcc,3,17,Woman,Right,
14,7,1,2.165920500000084,['c'],1,left,['3'],3,1.367207000000235,0.2,0,FastAcc,3,17,Woman,Right,
15,7,1,0.4993196000000353,['n'],1,right,['9'],5,0.9839640000000145,0.4,0,FastAcc,3,17,Woman,Right,
16,7,1,2.8664991000000555,['n'],1,right,['8'],4,0.5673841999996512,0.1,0,FastAcc,3,17,Woman,Right,
17,7,1,0.6493892999997115,['n'],1,right,['0'],6,0.5006113999997979,0.4,0,FastAcc,3,17,Woman,Right,
18,7,1,0.46575229999962175,['c'],1,left,['8'],4,0.8507028999997601,0.2,0,FastAcc,3,17,Woman,Right,
19,7,1,0.5323609000001852,['n'],0,left,['9'],5,0.8839177999998356,0.4,0,FastAcc,3,17,Woman,Right,
20,7,1,0.4834622000003037,['c'],1,left,['9'],5,1.3006513000000268,0.4,0,FastAcc,3,17,Woman,Right,
21,7,1,0.9998248999995667,['c'],1,left,['8'],4,0.700709199999892,0.1,0,FastAcc,3,17,Woman,Right,
22,7,1,0.5669651000002887,['n'],0,left,['0'],6,0.5171753999998145,0.1,0,FastAcc,3,17,Woman,Right,
23,7,1,1.8163966000001892,['n'],1,right,['0'],6,0.5839473999999427,0.2,0,FastAcc,3,17,Woman,Right,
24,7,1,0.9830594999998539,['c'],1,left,['9'],5,0.4505071999997199,0.2,0,FastAcc,3,17,Woman,Right,
25,7,1,2.1000444999999672,['n'],0,left,['9'],5,0.6839282999999341,0.2,0,FastAcc,3,17,Woman,Right,
26,7,1,0.8997964000000138,['n'],0,left,['8'],4,0.7004762999999912,0.1,0,FastAcc,3,17,Woman,Right,
27,7,1,0.7988054999996166,['n'],1,right,['8'],4,1.333929800000078,0.1,0,FastAcc,3,17,Woman,Right,
28,7,1,4.23300590000008,['n'],0,left,['9'],5,0.5670641000001524,0.2,0,FastAcc,3,17,Woman,Right,
29,7,1,1.2329252999998062,['n'],1,right,['9'],5,1.2010694000000512,0.2,0,FastAcc,3,17,Woman,Right,
30,7,1,1.3001677000002019,['n'],0,left,['9'],5,0.4673394000001281,0.2,0,FastAcc,3,17,Woman,Right,
31,7,1,0.6338995999999497,['n'],1,right,['9'],5,1.0839593999999124,0.2,0,FastAcc,3,17,Woman,Right,
32,7,1,0.816167100000257,['c'],1,left,['8'],4,0.6003360999998222,0.4,0,FastAcc,3,17,Woman,Right,
33,7,1,0.517489100000148,['n'],1,right,['0'],6,1.1339287000000695,0.4,0,FastAcc,3,17,Woman,Right,
34,7,1,0.4999908999998297,['n'],1,right,['9'],5,1.3505104999999276,0.4,0,FastAcc,3,17,Woman,Right,
35,7,1,0.38340029999972103,['n'],0,left,['9'],5,1.833942499999921,0.2,0,FastAcc,3,17,Woman,Right,
36,7,1,1.1162068999997246,['n'],1,right,['9'],5,1.317099800000051,0.2,0,FastAcc,3,17,Woman,Right,
37,7,1,0.46682049999981245,['n'],1,right,['0'],6,1.5505223999998634,0.1,0,FastAcc,3,17,Woman,Right,
38,7,1,0.5997589000003245,['n'],1,right,['9'],5,1.6005703000000722,0.4,0,FastAcc,3,17,Woman,Right,
39,7,1,0.7160587000003034,['n'],1,right,['0'],6,0.9676860999998098,0.1,0,FastAcc,3,17,Woman,Right,
40,7,1,1.332166799999868,['n'],0,left,['9'],5,0.9840649000002486,0.1,0,FastAcc,3,17,Woman,Right,
41,7,1,0.7664310999998634,['n'],1,right,['8'],4,1.2507064000001265,0.1,0,FastAcc,3,17,Woman,Right,
42,7,1,0.8496009000000413,['n'],1,right,['9'],5,1.3503324999996948,0.4,0,FastAcc,3,17,Woman,Right,
43,7,1,0.6997212999999647,['n'],1,right,['0'],6,0.9172899000000143,0.1,0,FastAcc,3,17,Woman,Right,
44,7,1,1.0500286999999844,['c'],1,left,['9'],5,1.417202499999803,0.1,0,FastAcc,3,17,Woman,Right,
45,7,1,0.43271610000010696,['n'],0,left,['8'],4,1.3339685999999347,0.4,0,FastAcc,3,17,Woman,Right,
46,7,1,0.8829196000001502,['n'],1,right,['8'],4,0.7339850000003025,0.1,0,FastAcc,3,17,Woman,Right,
47,7,1,0.8332750999998098,['n'],0,left,['8'],4,1.78387819999989,0.2,0,FastAcc,3,17,Woman,Right,
48,7,1,0.5167750000000524,['n'],1,right,['0'],6,0.5171194999998079,0.4,0,FastAcc,3,17,Woman,Right,
49,7,1,0.6666317999997773,['n'],1,right,['0'],6,0.2838054999997439,0.4,0,FastAcc,3,17,Woman,Right,
50,7,1,2.3817967999998473,['c'],1,left,['8'],4,0.9168899999999667,0.2,0,FastAcc,3,17,Woman,Right,
51,7,1,1.2996899999998277,['n'],0,left,['8'],4,0.5841080000000147,0.2,0,FastAcc,3,17,Woman,Right,
52,7,1,1.0498505999998997,['c'],1,left,['9'],5,0.6007871000001614,0.4,0,FastAcc,3,17,Woman,Right,
53,7,1,0.71626120000019,['n'],1,right,['0'],6,0.3504694000002928,0.4,0,FastAcc,3,17,Woman,Right,
54,7,1,0.5999375000001237,['n'],1,right,['0'],6,0.26723549999996976,0.4,0,FastAcc,3,17,Woman,Right,
55,7,1,0.6331291000001329,['n'],1,right,['0'],6,0.2005410000001575,0.2,0,FastAcc,3,17,Woman,Right,
56,7,1,0.8999752999998236,['c'],1,left,['0'],6,0.3004323000000113,0.4,0,FastAcc,3,17,Woman,Right,
57,7,1,0.8666622000000643,['n'],1,right,['0'],6,0.9004632999999558,0.1,0,FastAcc,3,17,Woman,Right,
58,7,1,0.9329091999998127,['c'],1,left,['9'],5,0.8678228999997373,0.2,0,FastAcc,3,17,Woman,Right,
59,7,1,1.7327626000001146,['c'],1,left,['8'],4,0.4177028999997674,0.4,0,FastAcc,3,17,Woman,Right,
0,8,1,1.2667913000000226,['n'],1,right,['9'],5,0.5505059000001893,0.1,0,FastFast,3,17,Woman,Right,
1,8,1,0.6994240000003629,['n'],0,left,['9'],5,0.2671562000000449,0.1,0,FastFast,3,17,Woman,Right,
2,8,1,1.4830907999999,['n'],0,left,['9'],5,0.3170554999996966,0.1,0,FastFast,3,17,Woman,Right,
3,8,1,0.9827442000000701,['c'],1,left,['9'],5,0.267246399999749,0.4,0,FastFast,3,17,Woman,Right,
4,8,1,1.4832578999998987,['n'],0,left,['9'],5,0.21721070000012332,0.4,0,FastFast,3,17,Woman,Right,
5,8,1,0.7344020000000455,['n'],1,right,['0'],6,0.30062450000013996,0.4,0,FastFast,3,17,Woman,Right,
6,8,1,1.5824999999999818,['n'],0,left,['8'],4,0.21741130000009434,0.2,0,FastFast,3,17,Woman,Right,
7,8,1,1.0156583999996656,['c'],1,left,['9'],5,0.18387140000004365,0.4,0,FastFast,3,17,Woman,Right,
8,8,1,0.949558799999977,['n'],1,right,['9'],5,0.16711229999964416,0.2,0,FastFast,3,17,Woman,Right,
9,8,1,0.7323530999997274,['n'],1,right,['0'],6,0.23375140000007377,0.4,0,FastFast,3,17,Woman,Right,
10,8,1,0.8332707999998092,['n'],1,right,['0'],6,0.26718979999986914,0.4,0,FastFast,3,17,Woman,Right,
11,8,1,0.7497665000000779,['n'],1,right,['0'],6,0.20040770000014163,0.1,0,FastFast,3,17,Woman,Right,
12,8,1,1.0166278000001512,['n'],1,right,['9'],5,0.18382450000035533,0.1,0,FastFast,3,17,Woman,Right,
13,8,1,0.9166265999997449,['n'],1,right,['8'],4,0.200586999999814,0.2,0,FastFast,3,17,Woman,Right,
14,8,1,0.832911200000126,['n'],1,right,['9'],5,0.21716969999988578,0.4,0,FastFast,3,17,Woman,Right,
15,8,1,1.0498285999997279,['n'],0,left,['9'],5,0.1672287999999753,0.1,0,FastFast,3,17,Woman,Right,
16,8,1,0.6995875999996315,['n'],1,right,['8'],4,0.18384340000011434,0.4,0,FastFast,3,17,Woman,Right,
17,8,1,1.5999477000000297,['c'],1,left,['8'],4,0.4169165999996949,0.4,0,FastFast,3,17,Woman,Right,
18,8,1,0.6503331999997499,['n'],1,right,['9'],5,0.26715269999976954,0.2,0,FastFast,3,17,Woman,Right,
19,8,1,0.54997880000019,['n'],1,right,['9'],5,0.1671619999997347,0.1,0,FastFast,3,17,Woman,Right,
20,8,1,1.1495530000001963,['c'],1,left,['9'],5,0.18370360000017172,0.2,0,FastFast,3,17,Woman,Right,
21,8,1,1.1656425999999556,['n'],0,left,['9'],5,0.15046719999963898,0.4,0,FastFast,3,17,Woman,Right,
22,8,1,1.16626210000004,['n'],0,left,['9'],5,0.20057059999999183,0.1,0,FastFast,3,17,Woman,Right,
23,8,1,1.2655856000001222,['n'],0,left,['9'],5,0.1671541000000616,0.1,0,FastFast,3,17,Woman,Right,
24,8,1,0.9162951999996949,['n'],1,right,['8'],4,0.13377149999996618,0.2,0,FastFast,3,17,Woman,Right,
25,8,1,0.833063200000197,['n'],1,right,['9'],5,0.15057200000001103,0.4,0,FastFast,3,17,Woman,Right,
26,8,1,1.0999280000000908,['n'],1,right,['9'],5,0.11714649999976245,0.1,0,FastFast,3,17,Woman,Right,
27,8,1,0.7329684999999699,['n'],1,right,['0'],6,0.15048550000028627,0.4,0,FastFast,3,17,Woman,Right,
28,8,1,0.9000506000002133,['c'],1,left,['9'],5,0.13394370000014533,0.4,0,FastFast,3,17,Woman,Right,
29,8,1,0.6162601000000905,['n'],1,right,['9'],5,0.1671892000003936,0.2,0,FastFast,3,17,Woman,Right,
30,8,1,0.8163144000000102,['n'],0,left,['9'],5,0.10050839999985328,0.1,0,FastFast,3,17,Woman,Right,
31,8,1,1.2830800000001545,['n'],1,right,['8'],4,0.13440100000025268,0.1,0,FastFast,3,17,Woman,Right,
32,8,1,0.9994284999997944,['n'],0,left,['8'],4,0.1004824000001463,0.1,0,FastFast,3,17,Woman,Right,
33,8,1,1.1167860999998993,['n'],1,right,['9'],5,0.20053250000000844,0.4,0,FastFast,3,17,Woman,Right,
34,8,1,0.6491903999999522,['n'],1,right,['8'],4,0.1338738999997986,0.2,0,FastFast,3,17,Woman,Right,
35,8,1,2.2167138000004343,['n'],1,right,['9'],5,0.167232199999944,0.2,0,FastFast,3,17,Woman,Right,
36,8,1,0.849877799999831,['n'],1,right,['9'],5,0.18383459999995466,0.4,0,FastFast,3,17,Woman,Right,
37,8,1,0.6997486999998728,['n'],1,right,['9'],5,0.15043560000003708,0.4,0,FastFast,3,17,Woman,Right,
38,8,1,1.4662201999999525,['n'],1,right,['9'],5,0.15042589999984557,0.1,0,FastFast,3,17,Woman,Right,
39,8,1,1.0330653999999413,['n'],0,left,['9'],5,0.13380980000010823,0.1,0,FastFast,3,17,Woman,Right,
40,8,1,0.8833546000000752,['n'],1,right,['9'],5,0.13384050000013303,0.2,0,FastFast,3,17,Woman,Right,
41,8,1,1.4002956999997878,['c'],1,left,['9'],5,0.13384270000005927,0.2,0,FastFast,3,17,Woman,Right,
42,8,1,0.6998917000000802,['n'],1,right,['9'],5,0.16713279999976294,0.1,0,FastFast,3,17,Woman,Right,
43,8,1,0.783000699999775,['c'],1,left,['9'],5,0.15068419999988691,0.4,0,FastFast,3,17,Woman,Right,
44,8,1,0.6326055999998061,['n'],1,right,['9'],5,0.15065159999994648,0.4,0,FastFast,3,17,Woman,Right,
45,8,1,0.7997623000001113,['c'],1,left,['9'],5,0.11726809999981924,0.2,0,FastFast,3,17,Woman,Right,
46,8,1,0.6169237999997677,['n'],0,left,['9'],5,0.13386309999987134,0.2,0,FastFast,3,17,Woman,Right,
47,8,1,1.7334192999996958,['n'],1,right,['9'],5,0.11709410000003118,0.1,0,FastFast,3,17,Woman,Right,
48,8,1,0.8831534999999349,['c'],1,left,['9'],5,0.1339367000000493,0.2,0,FastFast,3,17,Woman,Right,
49,8,1,0.5829932000001463,['n'],0,left,['9'],5,0.13382000000001426,0.2,0,FastFast,3,17,Woman,Right,
50,8,1,0.8334724999999708,['c'],1,left,['9'],5,2.250717800000075,0.1,0,FastFast,3,17,Woman,Right,
51,8,1,1.5162036000001535,['n'],1,right,['9'],5,0.13395249999985026,0.1,0,FastFast,3,17,Woman,Right,
52,8,1,0.7328373000000283,['c'],1,left,['9'],5,0.10051470000007612,0.2,0,FastFast,3,17,Woman,Right,
53,8,1,0.8833058000000165,['n'],0,left,['9'],5,0.13376590000007127,0.2,0,FastFast,3,17,Woman,Right,
54,8,1,1.5999566000000414,['c'],1,left,['8'],4,0.10073220000003857,0.2,0,FastFast,3,17,Woman,Right,
55,8,1,1.9494794999995975,['c'],1,left,['8'],4,0.15053450000004887,0.4,0,FastFast,3,17,Woman,Right,
56,8,1,0.8830070999997588,['c'],1,left,['8'],4,0.06729240000004211,0.1,0,FastFast,3,17,Woman,Right,
57,8,1,1.4658635999999206,['n'],1,right,['9'],5,0.1004715999997643,0.2,0,FastFast,3,17,Woman,Right,
58,8,1,3.333250399999997,['c'],1,left,['8'],4,0.15011309999999867,0.2,0,FastFast,3,17,Woman,Right,
59,8,1,1.2155987000001005,['n'],0,left,['9'],5,0.20036660000005213,0.4,0,FastFast,3,17,Woman,Right,
0,9,1,1.6501122999998188,['n'],1,right,['9'],5,0.7672896999997647,0.2,0,AccFast,3,17,Woman,Right,
1,9,1,0.6664228999998159,['n'],1,right,['0'],6,0.7171939999998358,0.4,0,AccFast,3,17,Woman,Right,
2,9,1,0.8666629000003923,['c'],1,left,['0'],6,0.6839672000000974,0.2,0,AccFast,3,17,Woman,Right,
3,9,1,0.6332342000000608,['n'],1,right,['0'],6,0.3507569999997031,0.2,0,AccFast,3,17,Woman,Right,
4,9,1,1.6994849000002432,['n'],0,left,['9'],5,0.9004715000000942,0.1,0,AccFast,3,17,Woman,Right,
5,9,1,0.9663282999999865,['n'],1,right,['9'],5,0.23346130000027188,0.4,0,AccFast,3,17,Woman,Right,
6,9,1,0.8830590000002303,['c'],1,left,['8'],4,0.2005498999997144,0.2,0,AccFast,3,17,Woman,Right,
7,9,1,0.7497269999998935,['n'],0,left,['9'],5,0.16719999999986612,0.4,0,AccFast,3,17,Woman,Right,
8,9,1,0.6997699000003195,['c'],1,left,['9'],5,0.4001376999999593,0.4,0,AccFast,3,17,Woman,Right,
9,9,1,0.6669012000002112,['n'],0,left,['8'],4,0.2671386000001803,0.1,0,AccFast,3,17,Woman,Right,
10,9,1,0.6828144000000975,['c'],1,left,['8'],4,0.2836322000002838,0.2,0,AccFast,3,17,Woman,Right,
11,9,1,0.5494652000002134,['n'],1,right,['9'],5,0.26722220000010566,0.1,0,AccFast,3,17,Woman,Right,
12,9,1,0.6496431000000484,['n'],1,right,['9'],5,0.20058109999990847,0.4,0,AccFast,3,17,Woman,Right,
13,9,1,0.8163015999998606,['n'],0,left,['9'],5,0.3007238000000143,0.4,0,AccFast,3,17,Woman,Right,
14,9,1,0.9160914000003686,['c'],1,left,['8'],4,0.20051029999967795,0.4,0,AccFast,3,17,Woman,Right,
15,9,1,0.8327351000002636,['c'],1,left,['9'],5,0.2671432000001914,0.1,0,AccFast,3,17,Woman,Right,
16,9,1,0.7662625000002663,['n'],1,right,['9'],5,0.2004706000002443,0.1,0,AccFast,3,17,Woman,Right,
17,9,1,0.7004142999999203,['c'],1,left,['8'],4,0.20052110000005996,0.1,0,AccFast,3,17,Woman,Right,
18,9,1,0.4665177000001677,['n'],1,right,['9'],5,0.30063460000019404,0.4,0,AccFast,3,17,Woman,Right,
19,9,1,0.715615600000092,['n'],1,right,['0'],6,0.21721960000013496,0.4,0,AccFast,3,17,Woman,Right,
20,9,1,0.8497957999998107,['n'],0,left,['9'],5,0.15059389999987616,0.2,0,AccFast,3,17,Woman,Right,
21,9,1,0.8329571999997825,['n'],0,left,['9'],5,0.1839004000003115,0.1,0,AccFast,3,17,Woman,Right,
22,9,1,0.7495155999999952,['n'],1,right,['9'],5,0.15041519999977027,0.4,0,AccFast,3,17,Woman,Right,
23,9,1,1.4661964000001717,['n'],1,right,['9'],5,0.13391090000004624,0.1,0,AccFast,3,17,Woman,Right,
24,9,1,0.7497183999998924,['c'],1,left,['9'],5,0.20049840000001495,0.2,0,AccFast,3,17,Woman,Right,
25,9,1,0.5329639999999927,['n'],1,right,['9'],5,0.13383539999995264,0.4,0,AccFast,3,17,Woman,Right,
26,9,1,0.6337829999997666,['c'],0,right,['9'],5,0.11731670000017402,0.2,0,AccFast,3,17,Woman,Right,
27,9,1,0.5330959999996594,['n'],1,right,['9'],5,0.11723459999984698,0.4,0,AccFast,3,17,Woman,Right,
28,9,1,0.7325853000002098,['c'],1,left,['9'],5,0.15051790000006804,0.2,0,AccFast,3,17,Woman,Right,
29,9,1,0.7829185000000507,['n'],0,left,['9'],5,0.15051579999999376,0.1,0,AccFast,3,17,Woman,Right,
30,9,1,0.6999642999999196,['n'],1,right,['9'],5,0.11726479999970252,0.4,0,AccFast,3,17,Woman,Right,
31,9,1,0.6494081000000733,['c'],1,left,['9'],5,0.10075589999996737,0.2,0,AccFast,3,17,Woman,Right,
32,9,1,0.5828541000000769,['n'],1,right,['9'],5,0.13391890000002604,0.2,0,AccFast,3,17,Woman,Right,
33,9,1,0.9330400999997437,['n'],0,left,['9'],5,0.13383310000017445,0.1,0,AccFast,3,17,Woman,Right,
34,9,1,1.567002599999796,['c'],0,right,['8'],4,0.10043599999971775,0.1,0,AccFast,3,17,Woman,Right,
35,9,1,1.1497020000001612,['n'],1,right,['9'],5,0.3004585999997289,0.4,0,AccFast,3,17,Woman,Right,
36,9,1,0.7829415999999583,['c'],1,left,['0'],6,0.5170075999999426,0.1,0,AccFast,3,17,Woman,Right,
37,9,1,1.082891600000039,['c'],1,left,['0'],6,0.08380549999992581,0.1,0,AccFast,3,17,Woman,Right,
38,9,1,1.1334869000002072,['n'],0,left,['8'],4,0.5338520000000244,0.2,0,AccFast,3,17,Woman,Right,
39,9,1,1.4161540999998579,['n'],1,right,['8'],4,0.36717129999988174,0.1,0,AccFast,3,17,Woman,Right,
40,9,1,0.7665921999996499,['c'],1,left,['8'],4,0.1172868000003291,0.2,0,AccFast,3,17,Woman,Right,
41,9,1,0.7828795000000355,['c'],1,left,['8'],4,0.10048410000035801,0.4,0,AccFast,3,17,Woman,Right,
42,9,1,0.6335060000001249,['c'],1,left,['8'],4,0.05048319999968953,0.4,0,AccFast,3,17,Woman,Right,
43,9,1,1.0668122000001858,['c'],1,left,['8'],4,0.06719119999979739,0.1,0,AccFast,3,17,Woman,Right,
44,9,1,0.8829350999999406,['c'],0,right,['9'],5,0.13383220000014262,0.2,0,AccFast,3,17,Woman,Right,
45,9,1,1.4328037000000222,['c'],1,left,['9'],5,0.3838654000001043,0.1,0,AccFast,3,17,Woman,Right,
46,9,1,0.6997232999997323,['n'],1,right,['9'],5,0.20047780000004423,0.1,0,AccFast,3,17,Woman,Right,
47,9,1,0.5998314999997092,['c'],0,right,['9'],5,0.1504915999998957,0.1,0,AccFast,3,17,Woman,Right,
48,9,1,0.7998216000000866,['n'],0,left,['9'],5,0.20045519999985117,0.2,0,AccFast,3,17,Woman,Right,
49,9,1,0.5498955999996724,['c'],0,right,['9'],5,0.15042219999986628,0.1,0,AccFast,3,17,Woman,Right,
50,9,1,0.5997408999996878,['n'],1,right,['9'],5,0.13402689999975337,0.1,0,AccFast,3,17,Woman,Right,
51,9,1,0.9161205000000336,['n'],1,right,['0'],6,0.23382189999983893,0.2,0,AccFast,3,17,Woman,Right,
52,9,1,0.8661827000000812,['n'],1,right,['0'],6,0.3170672999999624,0.4,0,AccFast,3,17,Woman,Right,
53,9,1,0.7495638000000326,['n'],1,right,['9'],5,0.20048869999982344,0.2,0,AccFast,3,17,Woman,Right,
54,9,1,1.031852600000093,['c'],1,left,['9'],5,0.15075100000012753,0.2,0,AccFast,3,17,Woman,Right,
55,9,1,0.7003320999997413,['c'],1,left,['9'],5,0.15049709999993865,0.4,0,AccFast,3,17,Woman,Right,
56,9,1,0.6996463000000404,['n'],1,right,['9'],5,0.15048010000009526,0.2,0,AccFast,3,17,Woman,Right,
57,9,1,0.6670235000001412,['n'],1,right,['9'],5,0.13382670000009966,0.4,0,AccFast,3,17,Woman,Right,
58,9,1,0.8997725999997783,['c'],0,right,['9'],5,0.11721840000018346,0.2,0,AccFast,3,17,Woman,Right,
59,9,1,0.7662464,['c'],1,left,['9'],5,0.15027320000035616,0.4,0,AccFast,3,17,Woman,Right,
0,10,1,1.2832131000000118,['c'],1,left,['9'],5,0.8505645000000186,0.4,0,AccAcc,3,17,Woman,Right,
1,10,1,0.8327315999999882,['c'],1,left,['9'],5,0.6338646999997763,0.2,0,AccAcc,3,17,Woman,Right,
2,10,1,1.5670425000002979,['n'],1,right,['8'],4,0.783934600000066,0.1,0,AccAcc,3,17,Woman,Right,
3,10,1,0.8832194999999956,['n'],1,right,['9'],5,0.6004237999995894,0.2,0,AccAcc,3,17,Woman,Right,
4,10,1,0.7994969999999739,['c'],1,left,['0'],6,0.6003014000002622,0.2,0,AccAcc,3,17,Woman,Right,
5,10,1,1.2503507999999783,['n'],1,right,['8'],4,0.7171301000003041,0.1,0,AccAcc,3,17,Woman,Right,
6,10,1,0.8987145999999484,['c'],1,left,['8'],4,0.8339137000002665,0.2,0,AccAcc,3,17,Woman,Right,
7,10,1,0.7828875999998672,['n'],1,right,['9'],5,0.6335466000000451,0.1,0,AccAcc,3,17,Woman,Right,
8,10,1,0.7495023000001311,['c'],1,left,['9'],5,0.6673341000000619,0.4,0,AccAcc,3,17,Woman,Right,
9,10,1,0.8332333000003018,['c'],1,left,['9'],5,0.5670978000002833,0.4,0,AccAcc,3,17,Woman,Right,
10,10,1,0.6497731999997995,['n'],1,right,['9'],5,0.4839044999998805,0.4,0,AccAcc,3,17,Woman,Right,
11,10,1,0.7656271000000743,['n'],1,right,['9'],5,0.4507978000001458,0.4,0,AccAcc,3,17,Woman,Right,
12,10,1,2.0162779000002047,['n'],1,right,['8'],4,0.5671364999998332,0.2,0,AccAcc,3,17,Woman,Right,
13,10,1,0.7156254999999874,['c'],1,left,['9'],5,0.4837537000003067,0.2,0,AccAcc,3,17,Woman,Right,
14,10,1,1.516358500000024,['n'],1,right,['8'],4,0.56720869999981,0.1,0,AccAcc,3,17,Woman,Right,
15,10,1,1.4495153000002574,['n'],1,right,['8'],4,0.4005438000003778,0.1,0,AccAcc,3,17,Woman,Right,
16,10,1,1.0829383999998754,['n'],1,right,['9'],5,0.5005568000001404,0.4,0,AccAcc,3,17,Woman,Right,
17,10,1,0.7492360000001099,['n'],1,right,['9'],5,0.40054319999990184,0.4,0,AccAcc,3,17,Woman,Right,
18,10,1,1.1497318000001542,['n'],1,right,['9'],5,0.28400580000015907,0.1,0,AccAcc,3,17,Woman,Right,
19,10,1,4.099678699999913,['n'],0,left,['8'],4,0.4673612999999932,0.1,0,AccAcc,3,17,Woman,Right,
20,10,1,1.1996675000000323,['n'],1,right,['8'],4,0.3672215999999935,0.2,0,AccAcc,3,17,Woman,Right,
21,10,1,0.8328179000000091,['c'],1,left,['9'],5,0.3671486000002915,0.2,0,AccAcc,3,17,Woman,Right,
22,10,1,0.6985220000001391,['n'],1,right,['9'],5,0.38377200000013545,0.1,0,AccAcc,3,17,Woman,Right,
23,10,1,2.0164348000002974,['n'],1,right,['8'],4,0.2840142999998534,0.1,0,AccAcc,3,17,Woman,Right,
24,10,1,0.8329385000001821,['n'],1,right,['9'],5,0.33381920000010723,0.4,0,AccAcc,3,17,Woman,Right,
25,10,1,0.8327351000002636,['n'],1,right,['0'],6,0.2674354000000676,0.2,0,AccAcc,3,17,Woman,Right,
26,10,1,1.0994221000000834,['c'],1,left,['9'],5,0.33380629999965095,0.4,0,AccAcc,3,17,Woman,Right,
27,10,1,1.5836585000001833,['n'],0,left,['9'],5,0.367217200000141,0.2,0,AccAcc,3,17,Woman,Right,
28,10,1,0.7665673999999854,['n'],1,right,['0'],6,0.3173950000000332,0.4,0,AccAcc,3,17,Woman,Right,
29,10,1,1.3162334999997256,['c'],1,left,['8'],4,0.38377730000001975,0.4,0,AccAcc,3,17,Woman,Right,
30,10,1,1.3332988000001933,['n'],0,left,['8'],4,0.4171425999998064,0.2,0,AccAcc,3,17,Woman,Right,
31,10,1,1.4994485000001987,['n'],0,left,['3'],3,1.4837536,0.2,0,AccAcc,3,17,Woman,Right,
32,10,1,2.182938500000091,['c'],1,left,['8'],4,0.33365699999967546,0.1,0,AccAcc,3,17,Woman,Right,
33,10,1,3.1995194000000993,['n'],0,left,['8'],4,0.4337378999998691,0.2,0,AccAcc,3,17,Woman,Right,
34,10,1,2.549796199999946,['n'],1,right,['8'],4,0.3837205999998332,0.1,0,AccAcc,3,17,Woman,Right,
35,10,1,0.8830425000001014,['n'],1,right,['9'],5,0.31717570000000705,0.4,0,AccAcc,3,17,Woman,Right,
36,10,1,1.8331230999997388,['n'],0,left,['8'],4,0.45053809999990335,0.1,0,AccAcc,3,17,Woman,Right,
37,10,1,1.9997072000001026,['n'],0,left,['8'],4,0.20051240000020698,0.4,0,AccAcc,3,17,Woman,Right,
38,10,1,1.349834699999974,['c'],1,left,['8'],4,0.3671455000003334,0.1,0,AccAcc,3,17,Woman,Right,
39,10,1,1.1831606000000647,['n'],0,left,['8'],4,0.26719799999955285,0.2,0,AccAcc,3,17,Woman,Right,
40,10,1,1.2152673000000505,['c'],1,left,['8'],4,0.18379499999991822,0.4,0,AccAcc,3,17,Woman,Right,
41,10,1,1.0165442000002258,['n'],1,right,['9'],5,0.316828600000008,0.4,0,AccAcc,3,17,Woman,Right,
42,10,1,0.899900500000058,['n'],1,right,['0'],6,0.26748670000006314,0.2,0,AccAcc,3,17,Woman,Right,
43,10,1,1.1665666000003512,['c'],1,left,['9'],5,0.28391249999958745,0.4,0,AccAcc,3,17,Woman,Right,
44,10,1,0.7664076000000932,['n'],0,left,['0'],6,0.30064560000027996,0.1,0,AccAcc,3,17,Woman,Right,
45,10,1,1.3994800000000396,['n'],0,left,['8'],4,0.23382179999998698,0.1,0,AccAcc,3,17,Woman,Right,
46,10,1,0.9165468999999575,['n'],1,right,['9'],5,0.25039719999995214,0.2,0,AccAcc,3,17,Woman,Right,
47,10,1,1.3323264000000563,['n'],1,right,['8'],4,0.26790040000014415,0.4,0,AccAcc,3,17,Woman,Right,
48,10,1,2.1660703000002286,['n'],0,left,['9'],5,0.28368829999999434,0.1,0,AccAcc,3,17,Woman,Right,
49,10,1,1.0329787000000579,['n'],1,right,['8'],4,0.2504715000000033,0.1,0,AccAcc,3,17,Woman,Right,
50,10,1,0.9997002999998585,['n'],1,right,['8'],4,0.25048819999983607,0.4,0,AccAcc,3,17,Woman,Right,
51,10,1,1.0665711000001465,['n'],1,right,['8'],4,0.2172645000000557,0.1,0,AccAcc,3,17,Woman,Right,
52,10,1,1.2328180000004068,['c'],1,left,['8'],4,0.16715809999959674,0.2,0,AccAcc,3,17,Woman,Right,
53,10,1,1.24976259999994,['c'],1,left,['8'],4,0.15055489999986094,0.2,0,AccAcc,3,17,Woman,Right,
54,10,1,1.566298199999892,['n'],1,right,['9'],5,1.1339155999999093,0.4,0,AccAcc,3,17,Woman,Right,
55,10,1,0.8660931999997956,['n'],1,right,['0'],6,0.8005818000001454,0.4,0,AccAcc,3,17,Woman,Right,
56,10,1,1.3164262999998755,['c'],1,left,['8'],4,0.7005331999998816,0.2,0,AccAcc,3,17,Woman,Right,
57,10,1,1.149606799999674,['n'],0,left,['8'],4,0.5005864999998266,0.1,0,AccAcc,3,17,Woman,Right,
58,10,1,1.0002518000001146,['c'],1,left,['8'],4,0.767234400000234,0.2,0,AccAcc,3,17,Woman,Right,
59,10,1,0.9830930999996781,['n'],1,right,['8'],4,0.517071599999781,0.1,0,AccAcc,3,17,Woman,Right,
0,11,1,2.6832832000000053,['n'],0,left,['8'],4,2.433915699999943,0.1,0,FastAcc,3,17,Woman,Right,
1,11,1,0.7999808000004123,['c'],1,left,['9'],5,1.1671400999998696,0.4,0,FastAcc,3,17,Woman,Right,
2,11,1,0.5655661000000691,['n'],1,right,['9'],5,0.5840439999997216,0.4,0,FastAcc,3,17,Woman,Right,
3,11,1,1.5486352999996598,['n'],0,left,['8'],4,0.60051489999978,0.1,0,FastAcc,3,17,Woman,Right,
4,11,1,1.5995451999997385,['n'],1,right,['8'],4,1.7839273999998113,0.1,0,FastAcc,3,17,Woman,Right,
5,11,1,0.8836215000001175,['c'],1,left,['8'],4,0.6004813999998078,0.1,0,FastAcc,3,17,Woman,Right,
6,11,1,1.049754899999698,['n'],0,left,['8'],4,0.4506805999999415,0.1,0,FastAcc,3,17,Woman,Right,
7,11,1,0.949677900000097,['n'],1,right,['9'],5,0.8005858999999873,0.2,0,FastAcc,3,17,Woman,Right,
8,11,1,0.899553200000355,['c'],1,left,['9'],5,1.9005421999995633,0.2,0,FastAcc,3,17,Woman,Right,
9,11,1,0.8497598999997535,['c'],1,left,['8'],4,0.6005910000003496,0.1,0,FastAcc,3,17,Woman,Right,
10,11,1,0.6494837999998708,['n'],1,right,['9'],5,1.1504491999999118,0.2,0,FastAcc,3,17,Woman,Right,
11,11,1,0.6828974000000017,['n'],1,right,['0'],6,0.5172359000002871,0.1,0,FastAcc,3,17,Woman,Right,
12,11,1,1.749598700000206,['n'],1,right,['0'],6,0.5337736000001314,0.4,0,FastAcc,3,17,Woman,Right,
13,11,1,0.9329462999999123,['n'],0,left,['9'],5,0.33387810000022,0.1,0,FastAcc,3,17,Woman,Right,
14,11,1,0.7162736000000223,['c'],1,left,['8'],4,0.6839921999999206,0.2,0,FastAcc,3,17,Woman,Right,
15,11,1,0.6497127000002365,['n'],1,right,['0'],6,0.26721279999992475,0.4,0,FastAcc,3,17,Woman,Right,
16,11,1,0.9667708000001767,['n'],0,left,['0'],6,0.2006165000002511,0.1,0,FastAcc,3,17,Woman,Right,
17,11,1,1.3989143999997395,['n'],0,left,['8'],4,0.2672582999998667,0.1,0,FastAcc,3,17,Woman,Right,
18,11,1,0.8836394999998447,['n'],1,right,['0'],6,0.20055180000008477,0.4,0,FastAcc,3,17,Woman,Right,
19,11,1,0.7670493999999053,['c'],1,left,['8'],4,0.483386899999914,0.4,0,FastAcc,3,17,Woman,Right,
20,11,1,1.1502983000000313,['n'],0,left,['8'],4,0.9841444000003321,0.1,0,FastAcc,3,17,Woman,Right,
21,11,1,0.7166001999999025,['c'],1,left,['8'],4,0.2171705999999176,0.4,0,FastAcc,3,17,Woman,Right,
22,11,1,2.7662890999999945,['c'],1,left,['8'],4,0.9339350999998715,0.1,0,FastAcc,3,17,Woman,Right,
23,11,1,1.6496204999998554,['c'],1,left,['8'],4,0.4338679999996202,0.2,0,FastAcc,3,17,Woman,Right,
24,11,1,0.8161907000003339,['c'],1,left,['8'],4,0.30043639999985317,0.4,0,FastAcc,3,17,Woman,Right,
25,11,1,0.4829696000001604,['c'],1,left,['8'],4,0.21717859999989741,0.1,0,FastAcc,3,17,Woman,Right,
26,11,1,1.2663736000004064,['c'],0,right,['8'],4,0.1338500000001659,0.2,0,FastAcc,3,17,Woman,Right,
27,11,1,0.6999830999998267,['n'],1,right,['9'],5,0.2504942000000483,0.2,0,FastAcc,3,17,Woman,Right,
28,11,1,0.9500097000000096,['n'],0,left,['9'],5,0.1337495000002491,0.1,0,FastAcc,3,17,Woman,Right,
29,11,1,0.5995825999998488,['n'],1,right,['9'],5,0.16723559999991267,0.4,0,FastAcc,3,17,Woman,Right,
30,11,1,0.816128800000115,['n'],1,right,['0'],6,0.2506061999997655,0.4,0,FastAcc,3,17,Woman,Right,
31,11,1,0.8166108999998869,['n'],1,right,['9'],5,0.1672140999999101,0.1,0,FastAcc,3,17,Woman,Right,
32,11,1,0.6495884000000842,['n'],1,right,['9'],5,0.1338306000002376,0.4,0,FastAcc,3,17,Woman,Right,
33,11,1,1.2829745999997613,['c'],1,left,['8'],4,0.2169490000001133,0.4,0,FastAcc,3,17,Woman,Right,
34,11,1,0.5665746999998191,['n'],1,right,['9'],5,0.9338183999998364,0.1,0,FastAcc,3,17,Woman,Right,
35,11,1,0.6661082000000533,['c'],1,left,['8'],4,0.567172600000049,0.1,0,FastAcc,3,17,Woman,Right,
36,11,1,0.5665272000001096,['n'],1,right,['9'],5,0.2339073000002827,0.4,0,FastAcc,3,17,Woman,Right,
37,11,1,0.6495790999997553,['n'],1,right,['0'],6,0.18395580000014888,0.2,0,FastAcc,3,17,Woman,Right,
38,11,1,1.0824915999996847,['n'],1,right,['8'],4,0.9505828999999721,0.4,0,FastAcc,3,17,Woman,Right,
39,11,1,0.7152851999999257,['n'],1,right,['9'],5,0.18339000000014494,0.2,0,FastAcc,3,17,Woman,Right,
40,11,1,0.5506933000001482,['c'],1,left,['9'],5,1.5339460999998664,0.4,0,FastAcc,3,17,Woman,Right,
41,11,1,0.6161489000000984,['n'],1,right,['9'],5,1.0672407999995812,0.2,0,FastAcc,3,17,Woman,Right,
42,11,1,0.9662266000000272,['c'],1,left,['8'],4,0.7006156000002193,0.2,0,FastAcc,3,17,Woman,Right,
43,11,1,0.9834138000001076,['n'],1,right,['8'],4,0.7837239000000409,0.2,0,FastAcc,3,17,Woman,Right,
44,11,1,1.3825424999999996,['n'],0,left,['8'],4,0.46677180000006047,0.2,0,FastAcc,3,17,Woman,Right,
45,11,1,0.5328429000001051,['n'],1,right,['8'],4,0.23379239999985657,0.2,0,FastAcc,3,17,Woman,Right,
46,11,1,0.416438300000209,['n'],1,right,['9'],5,0.9006339000002299,0.4,0,FastAcc,3,17,Woman,Right,
47,11,1,1.8830664000001889,['n'],0,left,['8'],4,1.5173019000003478,0.4,0,FastAcc,3,17,Woman,Right,
48,11,1,1.016381200000069,['n'],1,right,['0'],6,0.5672426999999516,0.2,0,FastAcc,3,17,Woman,Right,
49,11,1,0.8330200999998851,['c'],1,left,['9'],5,0.6005125000001499,0.4,0,FastAcc,3,17,Woman,Right,
50,11,1,0.4328332000000046,['n'],0,left,['9'],5,1.000471800000014,0.1,0,FastAcc,3,17,Woman,Right,
51,11,1,0.5498516000002382,['n'],1,right,['0'],6,0.7671136999997543,0.4,0,FastAcc,3,17,Woman,Right,
52,11,1,0.6662679999999455,['n'],0,left,['9'],5,1.0172714999998789,0.4,0,FastAcc,3,17,Woman,Right,
53,11,1,1.549889599999915,['n'],1,right,['8'],4,0.9005348000000595,0.1,0,FastAcc,3,17,Woman,Right,
54,11,1,0.5334935000000769,['n'],1,right,['9'],5,1.250427800000125,0.1,0,FastAcc,3,17,Woman,Right,
55,11,1,0.7997712000001229,['n'],1,right,['9'],5,0.6505284999998366,0.2,0,FastAcc,3,17,Woman,Right,
56,11,1,1.166831099999854,['n'],0,left,['8'],4,0.9838414999999259,0.2,0,FastAcc,3,17,Woman,Right,
57,11,1,0.7994263000000501,['n'],0,left,['8'],4,1.6338286999998672,0.2,0,FastAcc,3,17,Woman,Right,
58,11,1,0.6661796999997023,['n'],1,right,['8'],4,0.6501078000001144,0.2,0,FastAcc,3,17,Woman,Right,
59,11,1,0.6675887000001239,['n'],1,right,['9'],5,1.1499996000002284,0.2,0,FastAcc,3,17,Woman,Right,
0,12,1,0.8500002999999197,['n'],1,right,['9'],5,0.3504829999997128,0.2,0,FastFast,3,17,Woman,Right,
1,12,1,0.5163606999999502,['c'],1,left,['9'],5,0.2005026000001635,0.2,0,FastFast,3,17,Woman,Right,
2,12,1,0.5165664000001016,['c'],1,left,['9'],5,0.20057180000003427,0.1,0,FastFast,3,17,Woman,Right,
3,12,1,0.7663400000001275,['n'],1,right,['9'],5,0.2505343999996512,0.2,0,FastFast,3,17,Woman,Right,
4,12,1,0.7659487999999328,['n'],1,right,['9'],5,0.16707550000000992,0.2,0,FastFast,3,17,Woman,Right,
5,12,1,0.6832101999998486,['c'],0,right,['8'],4,0.23379930000010063,0.2,0,FastFast,3,17,Woman,Right,
6,12,1,0.733654099999967,['c'],1,left,['8'],4,0.16727490000039325,0.4,0,FastFast,3,17,Woman,Right,
7,12,1,0.7494544999999562,['c'],0,right,['8'],4,0.11715380000032383,0.2,0,FastFast,3,17,Woman,Right,
8,12,1,0.566266799999994,['n'],1,right,['9'],5,0.15049259999977949,0.4,0,FastFast,3,17,Woman,Right,
9,12,1,0.4995076000000154,['n'],1,right,['9'],5,0.16724569999996675,0.4,0,FastFast,3,17,Woman,Right,
10,12,1,0.799253900000167,['c'],1,left,['9'],5,0.1505366999999751,0.1,0,FastFast,3,17,Woman,Right,
11,12,1,0.8664813000000322,['n'],1,right,['9'],5,0.11707720000003974,0.2,0,FastFast,3,17,Woman,Right,
12,12,1,0.6501369999996314,['c'],1,left,['9'],5,0.15063499999996566,0.1,0,FastFast,3,17,Woman,Right,
13,12,1,1.1329252000000452,['c'],1,left,['8'],4,0.2338887999999315,0.4,0,FastFast,3,17,Woman,Right,
14,12,1,0.6996262000002389,['n'],1,right,['9'],5,0.20108750000008513,0.4,0,FastFast,3,17,Woman,Right,
15,12,1,0.6830433000000085,['n'],1,right,['9'],5,0.11711949999971694,0.2,0,FastFast,3,17,Woman,Right,
16,12,1,0.6494016999999985,['c'],1,left,['8'],4,0.18380359999991924,0.4,0,FastFast,3,17,Woman,Right,
17,12,1,0.6328196999997999,['n'],1,right,['9'],5,0.15057200000001103,0.1,0,FastFast,3,17,Woman,Right,
18,12,1,0.7834003999996639,['n'],1,right,['9'],5,0.15072409999993397,0.1,0,FastFast,3,17,Woman,Right,
19,12,1,1.2997103000002426,['n'],0,left,['8'],4,0.15049890000000232,0.1,0,FastFast,3,17,Woman,Right,
20,12,1,0.9830071000001226,['n'],1,right,['9'],5,0.16721819999975196,0.4,0,FastFast,3,17,Woman,Right,
21,12,1,1.1162751000001663,['n'],1,right,['9'],5,0.11722439999994094,0.1,0,FastFast,3,17,Woman,Right,
22,12,1,0.6834286999996948,['n'],1,right,['9'],5,0.1170431999998982,0.2,0,FastFast,3,17,Woman,Right,
23,12,1,0.5832991000002039,['c'],1,left,['8'],4,0.134309999999914,0.4,0,FastFast,3,17,Woman,Right,
24,12,1,1.332779500000015,['c'],0,right,['9'],5,0.11732750000010128,0.1,0,FastFast,3,17,Woman,Right,
25,12,1,0.6662937999999485,['n'],1,right,['9'],5,0.15041770000016186,0.4,0,FastFast,3,17,Woman,Right,
26,12,1,0.8830941999999595,['c'],1,left,['9'],5,0.15049479999970572,0.2,0,FastFast,3,17,Woman,Right,
27,12,1,3.1165859000002456,['c'],1,left,['8'],4,0.15029999999978827,0.2,0,FastFast,3,17,Woman,Right,
28,12,1,0.583036600000014,['n'],1,right,['0'],6,0.4337909999999283,0.4,0,FastFast,3,17,Woman,Right,
29,12,1,0.6496270999996341,['n'],1,right,['0'],6,0.15072060000011334,0.4,0,FastFast,3,17,Woman,Right,
30,12,1,1.5336331999997128,['n'],0,left,['8'],4,0.21714590000010503,0.1,0,FastFast,3,17,Woman,Right,
31,12,1,1.0660665000000336,['c'],1,left,['9'],5,0.13384039999982633,0.4,0,FastFast,3,17,Woman,Right,
32,12,1,0.5829097000000729,['n'],0,left,['9'],5,0.15051110000013068,0.2,0,FastFast,3,17,Woman,Right,
33,12,1,0.8996556000001874,['n'],1,right,['0'],6,0.13381970000000365,0.2,0,FastFast,3,17,Woman,Right,
34,12,1,0.9009481999996751,['c'],1,left,['9'],5,0.13375519999999597,0.4,0,FastFast,3,17,Woman,Right,
35,12,1,0.6496993999999177,['n'],0,left,['9'],5,0.13369160000002012,0.1,0,FastFast,3,17,Woman,Right,
36,12,1,0.6160921000000599,['c'],1,left,['9'],5,0.13383750000002692,0.4,0,FastFast,3,17,Woman,Right,
37,12,1,1.116494899999907,['n'],0,left,['9'],5,0.08382769999980155,0.1,0,FastFast,3,17,Woman,Right,
38,12,1,0.883364000000256,['n'],0,left,['9'],5,0.11714500000016415,0.1,0,FastFast,3,17,Woman,Right,
39,12,1,0.783054600000014,['c'],1,left,['9'],5,0.1338407999996889,0.4,0,FastFast,3,17,Woman,Right,
40,12,1,0.5829469999998764,['n'],1,right,['9'],5,0.11707669999987047,0.4,0,FastFast,3,17,Woman,Right,
41,12,1,0.6659844999999223,['c'],1,left,['9'],5,0.16693630000008852,0.1,0,FastFast,3,17,Woman,Right,
42,12,1,1.816743000000315,['c'],1,left,['8'],4,0.16722110000000612,0.2,0,FastFast,3,17,Woman,Right,
43,12,1,0.8828831000000719,['c'],1,left,['9'],5,0.15048040000010587,0.4,0,FastFast,3,17,Woman,Right,
44,12,1,0.8837541000002602,['c'],0,right,['1'],1,2.033860200000163,0.1,0,FastFast,3,17,Woman,Right,
45,12,1,3.0657251999996333,['n'],0,left,['8'],4,0.383856200000082,0.1,0,FastFast,3,17,Woman,Right,
46,12,1,0.8826676000003317,['n'],1,right,['9'],5,0.15060300000004645,0.2,0,FastFast,3,17,Woman,Right,
47,12,1,0.8334282000000712,['c'],1,left,['9'],5,0.15055490000031568,0.4,0,FastFast,3,17,Woman,Right,
48,12,1,0.8997946999998021,['n'],1,right,['9'],5,0.21722829999998794,0.4,0,FastFast,3,17,Woman,Right,
49,12,1,2.4670427000000927,['n'],1,right,['8'],4,0.1839519999998629,0.2,0,FastFast,3,17,Woman,Right,
50,12,1,0.7995906999999534,['c'],1,left,['0'],6,0.15035020000004806,0.4,0,FastFast,3,17,Woman,Right,
51,12,1,1.1997344999999768,['c'],1,left,['9'],5,0.23407110000016473,0.2,0,FastFast,3,17,Woman,Right,
52,12,1,1.4000510000000759,['n'],1,right,['9'],5,0.1672785999999178,0.2,0,FastFast,3,17,Woman,Right,
53,12,1,0.8161919999997735,['c'],1,left,['9'],5,0.1338183999996545,0.1,0,FastFast,3,17,Woman,Right,
54,12,1,1.8496153000000959,['n'],1,right,['8'],4,0.15060100000027887,0.1,0,FastFast,3,17,Woman,Right,
55,12,1,1.0994306000002325,['c'],1,left,['9'],5,0.11722439999994094,0.1,0,FastFast,3,17,Woman,Right,
56,12,1,0.8662464000003638,['n'],1,right,['9'],5,0.15048860000024433,0.1,0,FastFast,3,17,Woman,Right,
57,12,1,0.9662803000001077,['n'],1,right,['9'],5,0.11718680000012682,0.2,0,FastFast,3,17,Woman,Right,
58,12,1,0.699632500000007,['n'],1,right,['9'],5,0.10072399999990012,0.2,0,FastFast,3,17,Woman,Right,
59,12,1,1.0163465999999062,['c'],1,left,['9'],5,0.10043419999965408,0.1,0,FastFast,3,17,Woman,Right,
0,13,1,1.5159156999998231,['c'],1,left,['9'],5,1.0671888000001672,0.4,0,AccFast,3,17,Woman,Right,
1,13,1,0.8827016000000185,['c'],1,left,['8'],4,0.16732409999985975,0.1,0,AccFast,3,17,Woman,Right,
2,13,1,0.8998950999998669,['n'],1,right,['9'],5,0.9173077000000376,0.1,0,AccFast,3,17,Woman,Right,
3,13,1,0.9670355000002928,['c'],1,left,['8'],4,0.11732570000003761,0.1,0,AccFast,3,17,Woman,Right,
4,13,1,0.8494216999997661,['n'],1,right,['9'],5,0.1337137000000439,0.2,0,AccFast,3,17,Woman,Right,
5,13,1,1.0994657999999617,['n'],1,right,['8'],4,0.10049669999989419,0.2,0,AccFast,3,17,Woman,Right,
6,13,1,0.8830526000001555,['c'],1,left,['8'],4,0.13369079999984024,0.2,0,AccFast,3,17,Woman,Right,
7,13,1,0.8497035000000324,['n'],0,left,['8'],4,0.10054630000013276,0.1,0,AccFast,3,17,Woman,Right,
8,13,1,0.6330164999999397,['c'],1,left,['8'],4,0.15017660000012256,0.2,0,AccFast,3,17,Woman,Right,
9,13,1,0.9324783000001844,['n'],0,left,['9'],5,0.1170921999996608,0.4,0,AccFast,3,17,Woman,Right,
10,13,1,0.9993420000000697,['c'],1,left,['9'],5,0.15010940000001938,0.4,0,AccFast,3,17,Woman,Right,
11,13,1,0.7160477000002174,['n'],0,left,['9'],5,0.13383239999984653,0.2,0,AccFast,3,17,Woman,Right,
12,13,1,1.0329884999996466,['c'],1,left,['8'],4,0.15060659999971904,0.2,0,AccFast,3,17,Woman,Right,
13,13,1,1.0999333000004299,['c'],1,left,['9'],5,0.16700459999992745,0.4,0,AccFast,3,17,Woman,Right,
14,13,1,0.816080100000363,['n'],1,right,['0'],6,0.5336537999996835,0.2,0,AccFast,3,17,Woman,Right,
15,13,1,0.6993999000001168,['n'],1,right,['0'],6,0.13372870000011972,0.2,0,AccFast,3,17,Woman,Right,
16,13,1,0.9498211999998603,['n'],1,right,['0'],6,0.1338141999999607,0.2,0,AccFast,3,17,Woman,Right,
17,13,1,2.1328714000001128,['n'],1,right,['9'],5,0.11765579999973852,0.2,0,AccFast,3,17,Woman,Right,
18,13,1,0.7665559999995821,['n'],1,right,['9'],5,0.11709319999999934,0.1,0,AccFast,3,17,Woman,Right,
19,13,1,0.94932370000015,['c'],0,right,['9'],5,0.18413470000041343,0.1,0,AccFast,3,17,Woman,Right,
20,13,1,0.6830082999999831,['n'],1,right,['9'],5,0.15050120000023526,0.4,0,AccFast,3,17,Woman,Right,
21,13,1,0.6997015000001738,['n'],1,right,['0'],6,0.18378590000020267,0.4,0,AccFast,3,17,Woman,Right,
22,13,1,1.0161882000002151,['c'],1,left,['0'],6,0.31698839999990014,0.4,0,AccFast,3,17,Woman,Right,
23,13,1,0.9499476000000868,['n'],0,left,['8'],4,0.5002501000003576,0.1,0,AccFast,3,17,Woman,Right,
24,13,1,0.7508246999996118,['c'],1,left,['9'],5,0.2000978999999461,0.4,0,AccFast,3,17,Woman,Right,
25,13,1,0.7163212999998905,['n'],1,right,['9'],5,0.13392260000000533,0.1,0,AccFast,3,17,Woman,Right,
26,13,1,0.7499723999999333,['n'],0,left,['9'],5,0.11725460000025123,0.1,0,AccFast,3,17,Woman,Right,
27,13,1,0.6494214999997894,['c'],1,left,['9'],5,0.16722819999995409,0.4,0,AccFast,3,17,Woman,Right,
28,13,1,0.6825693000000683,['n'],0,left,['8'],4,0.21725719999994908,0.2,0,AccFast,3,17,Woman,Right,
29,13,1,0.7166932000000088,['c'],1,left,['9'],5,0.1338169000000562,0.4,0,AccFast,3,17,Woman,Right,
30,13,1,0.8495596000002479,['n'],0,left,['8'],4,0.16718839999975899,0.1,0,AccFast,3,17,Woman,Right,
31,13,1,0.6496707999999671,['c'],1,left,['9'],5,0.11720299999979034,0.4,0,AccFast,3,17,Woman,Right,
32,13,1,0.9997238999999354,['n'],0,left,['9'],5,0.1172391999998581,0.1,0,AccFast,3,17,Woman,Right,
33,13,1,1.0495175000000927,['c'],0,right,['8'],4,0.15023900000005597,0.1,0,AccFast,3,17,Woman,Right,
34,13,1,1.1993688000002294,['c'],1,left,['9'],5,0.21716680000008637,0.4,0,AccFast,3,17,Woman,Right,
35,13,1,0.9830683999998655,['c'],1,left,['8'],4,0.11718470000005254,0.1,0,AccFast,3,17,Woman,Right,
36,13,1,0.9998454999999922,['n'],0,left,['9'],5,0.15060400000038499,0.1,0,AccFast,3,17,Woman,Right,
37,13,1,0.7504555000000437,['c'],0,right,['9'],5,0.13380940000024566,0.1,0,AccFast,3,17,Woman,Right,
38,13,1,0.9663251000001765,['n'],0,left,['8'],4,0.1338912999999593,0.2,0,AccFast,3,17,Woman,Right,
39,13,1,1.199653799999851,['n'],1,right,['9'],5,0.2005357000002732,0.2,0,AccFast,3,17,Woman,Right,
40,13,1,1.0668138000000909,['n'],1,right,['9'],5,0.16707590000032724,0.4,0,AccFast,3,17,Woman,Right,
41,13,1,0.8330175999999483,['n'],0,left,['8'],4,0.11715189999995346,0.1,0,AccFast,3,17,Woman,Right,
42,13,1,0.8500569000002542,['n'],1,right,['8'],4,0.11722290000034263,0.2,0,AccFast,3,17,Woman,Right,
43,13,1,0.9328457999999955,['n'],1,right,['8'],4,0.11722299999973984,0.2,0,AccFast,3,17,Woman,Right,
44,13,1,0.7161823000001277,['n'],1,right,['9'],5,0.20049150000022564,0.1,0,AccFast,3,17,Woman,Right,
45,13,1,0.7331869999998162,['c'],0,right,['8'],4,0.20053229999984978,0.2,0,AccFast,3,17,Woman,Right,
46,13,1,0.8330121000003601,['n'],1,right,['9'],5,0.15049139999973704,0.4,0,AccFast,3,17,Woman,Right,
47,13,1,0.7997454000001198,['n'],1,right,['8'],4,0.18371440000009898,0.2,0,AccFast,3,17,Woman,Right,
48,13,1,0.7997253000003184,['n'],1,right,['8'],4,0.11747690000038347,0.4,0,AccFast,3,17,Woman,Right,
49,13,1,0.5664588000004187,['c'],1,left,['9'],5,0.15065009999989343,0.2,0,AccFast,3,17,Woman,Right,
50,13,1,0.5495519999999487,['n'],1,right,['9'],5,0.13409509999974034,0.4,0,AccFast,3,17,Woman,Right,
51,13,1,0.6003341000000546,['c'],1,left,['9'],5,0.13382199999978184,0.2,0,AccFast,3,17,Woman,Right,
52,13,1,1.4497345000004316,['n'],1,right,['9'],5,0.1670811999997568,0.2,0,AccFast,3,17,Woman,Right,
53,13,1,0.7661514999999781,['n'],1,right,['9'],5,0.08379009999998743,0.4,0,AccFast,3,17,Woman,Right,
54,13,1,1.582950399999845,['n'],1,right,['8'],4,0.20049100000005637,0.4,0,AccFast,3,17,Woman,Right,
55,13,1,0.9158081999999013,['c'],1,left,['9'],5,0.1337191000002349,0.4,0,AccFast,3,17,Woman,Right,
56,13,1,1.0166910000002645,['n'],1,right,['8'],4,0.1505010000000766,0.1,0,AccFast,3,17,Woman,Right,
57,13,1,1.4161974999997256,['c'],1,left,['9'],5,0.11699700000008306,0.1,0,AccFast,3,17,Woman,Right,
58,13,1,0.7165077999998175,['n'],1,right,['8'],4,0.13369399999965026,0.1,0,AccFast,3,17,Woman,Right,
59,13,1,0.7997887999999875,['n'],1,right,['8'],4,0.11715090000006967,0.4,0,AccFast,3,17,Woman,Right,
0,14,1,1.416678800000227,['n'],1,right,['9'],5,0.25050320000036663,0.4,0,AccAcc,3,17,Woman,Right,
1,14,1,1.0660545999999158,['c'],1,left,['9'],5,0.3337847000002512,0.1,0,AccAcc,3,17,Woman,Right,
2,14,1,0.7835393999998814,['c'],1,left,['0'],6,0.3839154000002054,0.2,0,AccAcc,3,17,Woman,Right,
3,14,1,0.8163485000000037,['c'],1,left,['9'],5,0.38395700000000943,0.2,0,AccAcc,3,17,Woman,Right,
4,14,1,0.900437299999794,['n'],0,left,['8'],4,0.3670889999998508,0.2,0,AccAcc,3,17,Woman,Right,
5,14,1,0.8998686999998426,['c'],1,left,['9'],5,0.33383669999966514,0.4,0,AccAcc,3,17,Woman,Right,
6,14,1,0.9998711999996885,['n'],0,left,['9'],5,0.30052230000001146,0.2,0,AccAcc,3,17,Woman,Right,
7,14,1,0.9831941999996161,['n'],1,right,['8'],4,0.36715970000022935,0.2,0,AccAcc,3,17,Woman,Right,
8,14,1,1.132920799999738,['c'],1,left,['8'],4,0.3671988999999485,0.2,0,AccAcc,3,17,Woman,Right,
9,14,1,0.9668316999996023,['n'],1,right,['8'],4,0.3671994999999697,0.2,0,AccAcc,3,17,Woman,Right,
10,14,1,0.7004070999996657,['c'],1,left,['9'],5,0.3338475999998991,0.4,0,AccAcc,3,17,Woman,Right,
11,14,1,1.2167168000000856,['c'],1,left,['9'],5,0.3338942999998835,0.4,0,AccAcc,3,17,Woman,Right,
12,14,1,0.7671990999997433,['c'],1,left,['9'],5,0.36704450000024735,0.4,0,AccAcc,3,17,Woman,Right,
13,14,1,1.4838572999997268,['n'],1,right,['9'],5,0.35053119999975024,0.1,0,AccAcc,3,17,Woman,Right,
14,14,1,0.683103200000005,['n'],1,right,['0'],6,0.31751729999996314,0.4,0,AccAcc,3,17,Woman,Right,
15,14,1,1.3838171000002149,['n'],1,right,['9'],5,0.4339074999998047,0.1,0,AccAcc,3,17,Woman,Right,
16,14,1,1.5503923999999643,['n'],0,left,['8'],4,0.3838350000000901,0.1,0,AccAcc,3,17,Woman,Right,
17,14,1,2.349511700000221,['n'],0,left,['8'],4,0.8338328999998339,0.2,0,AccAcc,3,17,Woman,Right,
18,14,1,1.0995244999999159,['n'],1,right,['8'],4,0.48387240000010934,0.1,0,AccAcc,3,17,Woman,Right,
19,14,1,1.1830676999998104,['n'],1,right,['8'],4,0.4004683999996814,0.2,0,AccAcc,3,17,Woman,Right,
20,14,1,1.09948600000007,['c'],1,left,['8'],4,0.6837768999998843,0.2,0,AccAcc,3,17,Woman,Right,
21,14,1,1.0664922999999362,['c'],1,left,['9'],5,0.5170871000000261,0.4,0,AccAcc,3,17,Woman,Right,
22,14,1,0.900027399999999,['n'],1,right,['9'],5,1.1169629000000896,0.4,0,AccAcc,3,17,Woman,Right,
23,14,1,0.9001825000000281,['n'],1,right,['9'],5,0.567417000000205,0.2,0,AccAcc,3,17,Woman,Right,
24,14,1,0.8164738000000398,['n'],1,right,['0'],6,0.4171753999999055,0.2,0,AccAcc,3,17,Woman,Right,
25,14,1,1.5662091999997756,['n'],1,right,['8'],4,0.433780900000329,0.2,0,AccAcc,3,17,Woman,Right,
26,14,1,0.816137400000116,['c'],1,left,['9'],5,0.4007245000002513,0.4,0,AccAcc,3,17,Woman,Right,
27,14,1,0.6996315000001232,['n'],1,right,['0'],6,0.3837484000000586,0.4,0,AccAcc,3,17,Woman,Right,
28,14,1,1.533217600000171,['n'],1,right,['8'],4,0.38378340000008393,0.4,0,AccAcc,3,17,Woman,Right,
29,14,1,1.232792199999949,['n'],1,right,['8'],4,0.36712790000001405,0.1,0,AccAcc,3,17,Woman,Right,
30,14,1,3.383090599999832,['n'],0,left,['8'],4,0.3171516000002157,0.1,0,AccAcc,3,17,Woman,Right,
31,14,1,0.7829523999998855,['c'],1,left,['9'],5,0.4337451000001238,0.4,0,AccAcc,3,17,Woman,Right,
32,14,1,0.7836508000000322,['n'],1,right,['9'],5,0.36716219999971145,0.1,0,AccAcc,3,17,Woman,Right,
33,14,1,0.7497066999999333,['c'],1,left,['9'],5,0.3673122999998668,0.4,0,AccAcc,3,17,Woman,Right,
34,14,1,0.7656922000001032,['n'],1,right,['9'],5,0.43401219999987006,0.2,0,AccAcc,3,17,Woman,Right,
35,14,1,1.9330995999998777,['n'],0,left,['8'],4,0.6671187000001737,0.1,0,AccAcc,3,17,Woman,Right,
36,14,1,1.016475200000059,['n'],1,right,['8'],4,0.867234599999847,0.4,0,AccAcc,3,17,Woman,Right,
37,14,1,1.083104700000149,['n'],1,right,['8'],4,0.8338471999995818,0.1,0,AccAcc,3,17,Woman,Right,
38,14,1,1.2330168999997113,['c'],1,left,['8'],4,1.1338046999999278,0.2,0,AccAcc,3,17,Woman,Right,
39,14,1,1.0332370999999512,['n'],0,left,['8'],4,2.3504641999998057,0.1,0,AccAcc,3,17,Woman,Right,
40,14,1,2.2164036999997734,['c'],1,left,['2'],2,2.1837924999999814,0.2,0,AccAcc,3,17,Woman,Right,
41,14,1,0.8998426000002837,['n'],1,right,['9'],5,1.817141100000299,0.4,0,AccAcc,3,17,Woman,Right,
42,14,1,2.4335306000002674,['n'],0,left,['8'],4,0.667089500000202,0.1,0,AccAcc,3,17,Woman,Right,
43,14,1,1.0168862000000445,['c'],1,left,['8'],4,0.8338509999998678,0.1,0,AccAcc,3,17,Woman,Right,
44,14,1,1.4665964000000713,['c'],1,left,['8'],4,0.7670969999999215,0.1,0,AccAcc,3,17,Woman,Right,
45,14,1,0.7503639999999905,['c'],1,left,['9'],5,0.5506399999999303,0.4,0,AccAcc,3,17,Woman,Right,
46,14,1,0.8503780999999435,['n'],1,right,['9'],5,0.5503668999999718,0.4,0,AccAcc,3,17,Woman,Right,
47,14,1,2.8167554000001473,['n'],0,left,['8'],4,0.36734999999998763,0.1,0,AccAcc,3,17,Woman,Right,
48,14,1,1.0169467999999142,['n'],1,right,['9'],5,0.6839020000002165,0.4,0,AccAcc,3,17,Woman,Right,
49,14,1,1.2162243999996463,['n'],1,right,['8'],4,0.8006009999999151,0.1,0,AccAcc,3,17,Woman,Right,
50,14,1,0.816663200000221,['c'],1,left,['9'],5,0.6169687000001431,0.2,0,AccAcc,3,17,Woman,Right,
51,14,1,0.7664309999995567,['n'],1,right,['9'],5,0.533766800000194,0.2,0,AccAcc,3,17,Woman,Right,
52,14,1,0.9169228000000658,['n'],1,right,['9'],5,0.5005738999998357,0.1,0,AccAcc,3,17,Woman,Right,
53,14,1,0.8330417999995916,['n'],1,right,['0'],6,0.6339337999997952,0.4,0,AccAcc,3,17,Woman,Right,
54,14,1,0.8674597999997786,['n'],1,right,['9'],5,0.500181800000064,0.2,0,AccAcc,3,17,Woman,Right,
55,14,1,1.0330039000000397,['c'],0,right,['8'],4,0.4671306000000186,0.1,0,AccAcc,3,17,Woman,Right,
56,14,1,0.8334792999999081,['n'],0,left,['8'],4,0.3837089999997261,0.1,0,AccAcc,3,17,Woman,Right,
57,14,1,1.8161795000000893,['c'],1,left,['8'],4,0.5336460000003171,0.2,0,AccAcc,3,17,Woman,Right,
58,14,1,0.650257899999815,['n'],1,right,['9'],5,0.6171425000002273,0.4,0,AccAcc,3,17,Woman,Right,
59,14,1,1.050223300000198,['n'],1,right,['8'],4,0.4507189000000835,0.1,0,AccAcc,3,17,Woman,Right,
0,15,1,0.583035099999961,['n'],1,right,['9'],5,1.1171184999998331,0.4,0,FastAcc,3,17,Woman,Right,
1,15,1,0.6497537000000193,['n'],1,right,['0'],6,1.1339460999997755,0.4,0,FastAcc,3,17,Woman,Right,
2,15,1,1.4166166999998495,['n'],0,left,['8'],4,0.9505223000001024,0.2,0,FastAcc,3,17,Woman,Right,
3,15,1,0.4831741000002694,['n'],1,right,['9'],5,1.7005619999999908,0.2,0,FastAcc,3,17,Woman,Right,
4,15,1,0.6325660000002244,['n'],1,right,['9'],5,1.9175701999997727,0.4,0,FastAcc,3,17,Woman,Right,
5,15,1,0.9334632000000056,['c'],1,left,['8'],4,1.550637899999856,0.1,0,FastAcc,3,17,Woman,Right,
6,15,1,0.6002680999999939,['c'],1,left,['9'],5,1.6506021999998666,0.4,0,FastAcc,3,17,Woman,Right,
7,15,1,0.3824525999998514,['n'],1,right,['8'],4,2.0678798999997525,0.2,0,FastAcc,3,17,Woman,Right,
8,15,1,0.49850070000002233,['c'],1,left,['0'],6,2.017053399999895,0.2,0,FastAcc,3,17,Woman,Right,
9,15,1,0.6168444999998428,['c'],1,left,['9'],5,1.7671147999999448,0.2,0,FastAcc,3,17,Woman,Right,
10,15,1,0.43372779999981503,['n'],1,right,['9'],5,1.6170624000001226,0.2,0,FastAcc,3,17,Woman,Right,
11,15,1,0.4666690999997627,['c'],1,left,['9'],5,1.6000626000000011,0.2,0,FastAcc,3,17,Woman,Right,
12,15,1,0.41635100000030434,['n'],1,right,['0'],6,1.6173459999999977,0.4,0,FastAcc,3,17,Woman,Right,
13,15,1,0.49901879999970333,['c'],0,right,['8'],4,1.7338951000001543,0.4,0,FastAcc,3,17,Woman,Right,
14,15,1,0.3994975999999042,['n'],1,right,['8'],4,2.0005645999999615,0.2,0,FastAcc,3,17,Woman,Right,
15,15,1,0.5327892000000247,['c'],1,left,['8'],4,0.867166499999712,0.1,0,FastAcc,3,17,Woman,Right,
16,15,1,1.6664513999999144,['n'],1,right,['8'],4,1.6338384999999107,0.2,0,FastAcc,3,17,Woman,Right,
17,15,1,0.46634880000010526,['c'],1,left,['9'],5,1.4337908000002244,0.4,0,FastAcc,3,17,Woman,Right,
18,15,1,1.0996087000003172,['n'],1,right,['8'],4,1.1173447000001033,0.2,0,FastAcc,3,17,Woman,Right,
19,15,1,0.4664060000000063,['c'],1,left,['8'],4,1.550522699999874,0.2,0,FastAcc,3,17,Woman,Right,
20,15,1,0.316917800000283,['n'],0,left,['8'],4,1.533732300000338,0.1,0,FastAcc,3,17,Woman,Right,
21,15,1,0.5496150999997553,['n'],1,right,['9'],5,1.633946399999786,0.4,0,FastAcc,3,17,Woman,Right,
22,15,1,0.5497590999998465,['n'],1,right,['0'],6,1.6004656000000068,0.4,0,FastAcc,3,17,Woman,Right,
23,15,1,0.6168689999999515,['n'],1,right,['9'],5,1.5336621999999807,0.1,0,FastAcc,3,17,Woman,Right,
24,15,1,1.516559000000143,['n'],0,left,['8'],4,0.28367900000012014,0.1,0,FastAcc,3,17,Woman,Right,
25,15,1,1.6835565999999744,['n'],1,right,['8'],4,1.0005565999999817,0.4,0,FastAcc,3,17,Woman,Right,
26,15,1,0.7487854999999399,['c'],1,left,['9'],5,1.9840048000000934,0.4,0,FastAcc,3,17,Woman,Right,
27,15,1,1.200014700000338,['n'],1,right,['8'],4,0.7839169999997466,0.1,0,FastAcc,3,17,Woman,Right,
28,15,1,0.6504767000001266,['c'],1,left,['8'],4,1.550456099999792,0.1,0,FastAcc,3,17,Woman,Right,
29,15,1,1.100072100000034,['n'],0,left,['8'],4,1.0339579000001322,0.2,0,FastAcc,3,17,Woman,Right,
30,15,1,0.7831378999999288,['c'],1,left,['9'],5,1.5006861000001663,0.4,0,FastAcc,3,17,Woman,Right,
31,15,1,0.6499752999998236,['n'],0,left,['9'],5,1.5006914000000506,0.1,0,FastAcc,3,17,Woman,Right,
32,15,1,0.5328764000000774,['n'],1,right,['9'],5,1.3838621999998395,0.4,0,FastAcc,3,17,Woman,Right,
33,15,1,0.482727700000396,['n'],1,right,['9'],5,1.0339035000001786,0.2,0,FastAcc,3,17,Woman,Right,
34,15,1,0.683480099999997,['n'],1,right,['9'],5,0.9339949000000161,0.4,0,FastAcc,3,17,Woman,Right,
35,15,1,0.699573099999725,['c'],1,left,['9'],5,1.033748199999991,0.2,0,FastAcc,3,17,Woman,Right,
36,15,1,0.4995116000000053,['n'],1,right,['9'],5,1.0005559000001085,0.1,0,FastAcc,3,17,Woman,Right,
37,15,1,1.0497188999997888,['n'],0,left,['8'],4,0.9170447999999851,0.2,0,FastAcc,3,17,Woman,Right,
38,15,1,0.4657368999996834,['n'],1,right,['9'],5,1.3004629000001842,0.2,0,FastAcc,3,17,Woman,Right,
39,15,1,0.5994878999999855,['n'],0,left,['8'],4,1.1838674999999057,0.1,0,FastAcc,3,17,Woman,Right,
40,15,1,0.5829391000002033,['n'],1,right,['9'],5,1.4003575000001547,0.4,0,FastAcc,3,17,Woman,Right,
41,15,1,0.9162580000001981,['n'],1,right,['8'],4,1.2005537999998523,0.1,0,FastAcc,3,17,Woman,Right,
42,15,1,0.7823017999999138,['c'],1,left,['9'],5,0.8337334000002556,0.2,0,FastAcc,3,17,Woman,Right,
43,15,1,0.49956079999992653,['c'],1,left,['9'],5,0.8173328999996556,0.1,0,FastAcc,3,17,Woman,Right,
44,15,1,0.7834130000001096,['c'],1,left,['8'],4,0.7005191000002924,0.4,0,FastAcc,3,17,Woman,Right,
45,15,1,0.916280899999947,['c'],1,left,['8'],4,0.35059620000038194,0.1,0,FastAcc,3,17,Woman,Right,
46,15,1,0.5834505999996509,['c'],1,left,['9'],5,0.48401000000012573,0.4,0,FastAcc,3,17,Woman,Right,
47,15,1,2.582662100000107,['n'],0,left,['8'],4,0.4005105999999614,0.1,0,FastAcc,3,17,Woman,Right,
48,15,1,1.6663628999999673,['n'],1,right,['8'],4,0.2669780000001083,0.1,0,FastAcc,3,17,Woman,Right,
49,15,1,0.5160452999998597,['n'],1,right,['9'],5,0.9337378000000172,0.1,0,FastAcc,3,17,Woman,Right,
50,15,1,0.8995362000000569,['c'],0,right,['9'],5,0.800562699999773,0.2,0,FastAcc,3,17,Woman,Right,
51,15,1,0.832926900000075,['c'],1,left,['8'],4,1.1336918000001788,0.4,0,FastAcc,3,17,Woman,Right,
52,15,1,1.0164215999998305,['n'],1,right,['8'],4,1.050533600000108,0.1,0,FastAcc,3,17,Woman,Right,
53,15,1,0.8995586999999432,['c'],1,left,['8'],4,0.3171151000001373,0.1,0,FastAcc,3,17,Woman,Right,
54,15,1,0.766192399999909,['c'],1,left,['8'],4,0.18373330000031274,0.4,0,FastAcc,3,17,Woman,Right,
55,15,1,1.399688800000149,['c'],1,left,['9'],5,0.4173523999997997,0.4,0,FastAcc,3,17,Woman,Right,
56,15,1,0.8167497000004005,['n'],1,right,['9'],5,0.4005376999998589,0.1,0,FastAcc,3,17,Woman,Right,
57,15,1,1.216379599999982,['n'],1,right,['9'],5,0.18382519999977376,0.1,0,FastAcc,3,17,Woman,Right,
58,15,1,1.333035199999813,['n'],0,left,['9'],5,1.1005184000000554,0.2,0,FastAcc,3,17,Woman,Right,
59,15,1,1.2495992999997725,['n'],1,right,['8'],4,1.083541200000127,0.2,0,FastAcc,3,17,Woman,Right,
