withinblocktrial,block,block_repetition,rt,resp,cor,cresp,conf_press,cj,rtconf,coherence,slow_trial,manipulation,sub,age,gender,handedness,
0,1,1,0.7165790999999899,['n'],1,right,none,-99,-99,0.5,0,none,8,18,Woman,Right,
1,1,1,0.8339098000001286,['n'],1,right,none,-99,-99,0.5,0,none,8,18,Woman,Right,
2,1,1,0.6507983999999851,['c'],1,left,none,-99,-99,0.5,0,none,8,18,Woman,Right,
3,1,1,0.6500855000001593,['c'],1,left,none,-99,-99,0.5,0,none,8,18,Woman,Right,
4,1,1,0.6670913999998902,['c'],1,left,none,-99,-99,0.5,0,none,8,18,Woman,Right,
5,1,1,0.6499377000000095,['n'],1,right,none,-99,-99,0.5,0,none,8,18,Woman,Right,
6,1,1,1.016071199999942,['n'],1,right,none,-99,-99,0.5,0,none,8,18,Woman,Right,
7,1,1,0.6336545999999998,['c'],1,left,none,-99,-99,0.5,0,none,8,18,Woman,Right,
8,1,1,0.5174909000002117,['n'],1,right,none,-99,-99,0.5,0,none,8,18,Woman,Right,
9,1,1,0.682825800000046,['n'],1,right,none,-99,-99,0.5,0,none,8,18,Woman,Right,
10,1,1,0.5169877000000724,['c'],1,left,none,-99,-99,0.5,0,none,8,18,Woman,Right,
11,1,1,0.5499264000000039,['c'],1,left,none,-99,-99,0.5,0,none,8,18,Woman,Right,
12,1,1,0.6173373000001448,['n'],1,right,none,-99,-99,0.5,0,none,8,18,Woman,Right,
13,1,1,0.5159997000000658,['n'],1,right,none,-99,-99,0.5,0,none,8,18,Woman,Right,
14,1,1,0.5669692999999825,['c'],1,left,none,-99,-99,0.5,0,none,8,18,Woman,Right,
15,1,1,0.5496057000000292,['n'],1,right,none,-99,-99,0.5,0,none,8,18,Woman,Right,
16,1,1,0.533124799999996,['c'],1,left,none,-99,-99,0.5,0,none,8,18,Woman,Right,
17,1,1,0.4159243999999944,['n'],1,right,none,-99,-99,0.5,0,none,8,18,Woman,Right,
18,1,1,0.5333755999999994,['n'],1,right,none,-99,-99,0.5,0,none,8,18,Woman,Right,
19,1,1,0.5169356999999764,['c'],1,left,none,-99,-99,0.5,0,none,8,18,Woman,Right,
20,1,1,0.5503582999999708,['c'],1,left,none,-99,-99,0.5,0,none,8,18,Woman,Right,
21,1,1,0.483399400000053,['n'],1,right,none,-99,-99,0.5,0,none,8,18,Woman,Right,
22,1,1,0.5497385999999551,['c'],1,left,none,-99,-99,0.5,0,none,8,18,Woman,Right,
23,1,1,0.4664940000000115,['c'],1,left,none,-99,-99,0.5,0,none,8,18,Woman,Right,
0,2,1,0.7002602000000024,['c'],1,left,none,-99,-99,0.4,0,none,8,18,Woman,Right,
1,2,1,0.46585879999997815,['c'],1,left,none,-99,-99,0.2,0,none,8,18,Woman,Right,
2,2,1,0.46736409999994066,['n'],1,right,none,-99,-99,0.2,0,none,8,18,Woman,Right,
3,2,1,0.4993206999999984,['c'],1,left,none,-99,-99,0.4,0,none,8,18,Woman,Right,
4,2,1,0.48378679999996166,['c'],1,left,none,-99,-99,0.4,0,none,8,18,Woman,Right,
5,2,1,0.9161613000001125,['n'],1,right,none,-99,-99,0.1,0,none,8,18,Woman,Right,
6,2,1,1.6171641000000818,['n'],1,right,none,-99,-99,0.1,0,none,8,18,Woman,Right,
7,2,1,0.5840860000000703,['c'],1,left,none,-99,-99,0.4,0,none,8,18,Woman,Right,
8,2,1,0.9990832999999384,['n'],1,right,none,-99,-99,0.1,0,none,8,18,Woman,Right,
9,2,1,1.2665512999999464,['n'],1,right,none,-99,-99,0.2,0,none,8,18,Woman,Right,
10,2,1,0.8340040000000499,['c'],1,left,none,-99,-99,0.2,0,none,8,18,Woman,Right,
11,2,1,1.5834530000001905,['c'],1,left,none,-99,-99,0.4,0,none,8,18,Woman,Right,
12,2,1,1.7168189999999868,['n'],0,left,none,-99,-99,0.2,0,none,8,18,Woman,Right,
13,2,1,1.666607699999986,['n'],1,right,none,-99,-99,0.4,0,none,8,18,Woman,Right,
14,2,1,1.3835033000000294,['c'],1,left,none,-99,-99,0.1,0,none,8,18,Woman,Right,
15,2,1,1.1339846999999281,['n'],1,right,none,-99,-99,0.2,0,none,8,18,Woman,Right,
16,2,1,0.7323371999998471,['n'],1,right,none,-99,-99,0.1,0,none,8,18,Woman,Right,
17,2,1,0.8496887000001152,['n'],0,left,none,-99,-99,0.2,0,none,8,18,Woman,Right,
18,2,1,1.199877000000015,['n'],0,left,none,-99,-99,0.2,0,none,8,18,Woman,Right,
19,2,1,2.1168557999999393,['n'],1,right,none,-99,-99,0.1,0,none,8,18,Woman,Right,
20,2,1,1.1994360999999572,['n'],0,left,none,-99,-99,0.1,0,none,8,18,Woman,Right,
21,2,1,1.2339756999999736,['n'],1,right,none,-99,-99,0.4,0,none,8,18,Woman,Right,
22,2,1,0.8831000000000131,['c'],0,right,none,-99,-99,0.4,0,none,8,18,Woman,Right,
23,2,1,1.7827905999999984,['n'],1,right,none,-99,-99,0.1,0,none,8,18,Woman,Right,
0,3,1,2.10060129999988,['c'],1,left,['1'],6,3.1005158000000392,0.4,0,none,8,18,Woman,Right,
1,3,1,2.217006000000083,['n'],0,left,none,-99,-99,0.4,1,none,8,18,Woman,Right,
2,3,1,1.2504059999998844,['n'],0,left,['9'],2,1.9339482000000316,0.1,0,none,8,18,Woman,Right,
3,3,1,0.9840624999999363,['n'],0,left,['9'],2,1.8663389999999254,0.2,0,none,8,18,Woman,Right,
4,3,1,1.217386900000065,['n'],1,right,['0'],1,0.5505591000001004,0.1,0,none,8,18,Woman,Right,
5,3,1,3.433594200000016,['n'],1,right,['3'],4,3.8172177999999803,0.1,0,none,8,18,Woman,Right,
6,3,1,2.4499333000001116,['n'],1,right,['9'],2,2.6504798000000847,0.4,0,none,8,18,Woman,Right,
7,3,1,1.0834376000000248,['n'],1,right,['9'],2,2.984419399999979,0.2,0,none,8,18,Woman,Right,
8,3,1,3.9001025000000027,['n'],0,left,['9'],2,2.883897700000034,0.1,0,none,8,18,Woman,Right,
9,3,1,2.484267300000056,['n'],1,right,['0'],1,1.5337690999999722,0.2,0,none,8,18,Woman,Right,
10,3,1,4.784198099999912,['n'],1,right,['9'],2,2.099894800000129,0.2,0,none,8,18,Woman,Right,
11,3,1,0.8170641000001524,['c'],1,left,['1'],6,1.7002990999999383,0.4,0,none,8,18,Woman,Right,
12,3,1,1.1999238000000787,['c'],1,left,['1'],6,0.7005271000000448,0.4,0,none,8,18,Woman,Right,
13,3,1,2.98315770000022,['c'],1,left,['2'],5,1.0339509999998882,0.4,0,none,8,18,Woman,Right,
14,3,1,1.9173401000000467,['n'],1,right,['9'],2,4.167167600000084,0.1,0,none,8,18,Woman,Right,
15,3,1,2.8995790999999826,['n'],0,left,['9'],2,2.233936500000027,0.2,0,none,8,18,Woman,Right,
16,3,1,2.383271700000023,['n'],0,left,['9'],2,1.51710479999997,0.1,0,none,8,18,Woman,Right,
17,3,1,1.3502466999998433,['c'],1,left,['9'],2,1.6172111000000768,0.1,0,none,8,18,Woman,Right,
18,3,1,3.2335739000000103,['c'],1,left,['9'],2,2.1004387999998926,0.1,0,none,8,18,Woman,Right,
19,3,1,5.016605100000106,x,-99,right,none,-99,-99,0.2,1,none,8,18,Woman,Right,
20,3,1,1.9497980000001007,['n'],1,right,['9'],2,1.984045599999945,0.2,0,none,8,18,Woman,Right,
21,3,1,1.916087300000072,['n'],1,right,['9'],2,0.7839019999998982,0.4,0,none,8,18,Woman,Right,
22,3,1,2.2843129000000317,['n'],1,right,['9'],2,1.0507274999999936,0.2,0,none,8,18,Woman,Right,
23,3,1,2.166526400000066,['n'],1,right,['9'],2,0.6674035000000913,0.4,0,none,8,18,Woman,Right,
0,4,1,0.8837634999999864,['c'],0,right,['9'],2,1.1838850000001457,0.2,0,FastFast,8,18,Woman,Right,
1,4,1,0.9330969000000096,['c'],1,left,['2'],5,0.6505139000000781,0.1,0,FastFast,8,18,Woman,Right,
2,4,1,2.3337002999999186,['n'],1,right,['9'],2,0.9003666999999496,0.4,0,FastFast,8,18,Woman,Right,
3,4,1,1.8337480000000141,['c'],0,right,['2'],5,0.9005921000000399,0.1,0,FastFast,8,18,Woman,Right,
4,4,1,1.749940499999866,['n'],1,right,['9'],2,0.7674638000000868,0.1,0,FastFast,8,18,Woman,Right,
5,4,1,1.6338020999999117,['n'],1,right,['9'],2,0.7510253999998895,0.4,0,FastFast,8,18,Woman,Right,
6,4,1,1.2173447999998643,['n'],1,right,['9'],2,1.017117399999961,0.1,0,FastFast,8,18,Woman,Right,
7,4,1,1.0335582000000159,['n'],1,right,['9'],2,0.7338878000000477,0.2,0,FastFast,8,18,Woman,Right,
8,4,1,0.8170181000000412,['c'],1,left,['2'],5,0.967152900000201,0.4,0,FastFast,8,18,Woman,Right,
9,4,1,0.78315600000019,['c'],1,left,['2'],5,0.6168477000001076,0.4,0,FastFast,8,18,Woman,Right,
10,4,1,1.4000602000000981,['n'],0,left,['9'],2,0.9338293999999223,0.2,0,FastFast,8,18,Woman,Right,
11,4,1,1.6169517999999243,['n'],0,left,['2'],5,1.3840781999999763,0.2,0,FastFast,8,18,Woman,Right,
12,4,1,0.683607800000118,['c'],0,right,['9'],2,1.1838180999998258,0.1,0,FastFast,8,18,Woman,Right,
13,4,1,0.6999946999999338,['n'],1,right,['2'],5,0.8839393000000655,0.4,0,FastFast,8,18,Woman,Right,
14,4,1,0.6833503000000292,['n'],1,right,['2'],5,0.7341037999999571,0.1,0,FastFast,8,18,Woman,Right,
15,4,1,0.7000752999999804,['c'],1,left,['2'],5,1.183808900000031,0.4,0,FastFast,8,18,Woman,Right,
16,4,1,1.1499599999999646,['n'],0,left,['9'],2,1.0339060000001155,0.4,0,FastFast,8,18,Woman,Right,
17,4,1,0.5833950000001096,['n'],0,left,['9'],2,0.5005784000002222,0.1,0,FastFast,8,18,Woman,Right,
18,4,1,0.9333467999999812,['n'],1,right,['9'],2,0.5667112000000998,0.4,0,FastFast,8,18,Woman,Right,
19,4,1,0.7332083999999668,['c'],1,left,['2'],5,0.9337961999999607,0.1,0,FastFast,8,18,Woman,Right,
20,4,1,0.6504056000001128,['c'],1,left,['2'],5,0.7171270999999706,0.2,0,FastFast,8,18,Woman,Right,
21,4,1,0.5003403999999136,['n'],1,right,['2'],5,0.9340511000000333,0.4,0,FastFast,8,18,Woman,Right,
22,4,1,0.8659471999999369,['n'],1,right,['2'],5,0.9669295999999576,0.1,0,FastFast,8,18,Woman,Right,
23,4,1,0.9330628000000161,['n'],0,left,['9'],2,0.6339817000000494,0.1,0,FastFast,8,18,Woman,Right,
24,4,1,0.8172032999998464,['c'],1,left,['9'],2,1.1504302000000735,0.4,0,FastFast,8,18,Woman,Right,
25,4,1,0.7503939999999147,['n'],1,right,['3'],4,1.8835538999999244,0.4,0,FastFast,8,18,Woman,Right,
26,4,1,0.9506549999998697,['c'],1,left,['3'],4,0.667172599999958,0.4,0,FastFast,8,18,Woman,Right,
27,4,1,0.9010446999998294,['n'],0,left,['9'],2,0.683679199999915,0.4,0,FastFast,8,18,Woman,Right,
28,4,1,1.4835952999999336,['n'],0,left,['3'],4,1.4838141999998697,0.1,0,FastFast,8,18,Woman,Right,
29,4,1,1.2669306999998753,['c'],1,left,['3'],4,1.1005390000000261,0.2,0,FastFast,8,18,Woman,Right,
30,4,1,1.0498482000000422,['c'],1,left,['3'],4,0.6672384000000875,0.2,0,FastFast,8,18,Woman,Right,
31,4,1,0.6338570000000345,['n'],1,right,['3'],4,0.7339368000000377,0.2,0,FastFast,8,18,Woman,Right,
32,4,1,0.7336414999999761,['n'],1,right,['2'],5,0.9337986999998975,0.2,0,FastFast,8,18,Woman,Right,
33,4,1,1.3005865999998605,['n'],0,left,['9'],2,0.9671229999999014,0.1,0,FastFast,8,18,Woman,Right,
34,4,1,0.9669880000001285,['n'],0,left,['9'],2,2.500316800000064,0.2,0,FastFast,8,18,Woman,Right,
35,4,1,1.016944199999898,['n'],0,left,['9'],2,0.8170966999998655,0.2,0,FastFast,8,18,Woman,Right,
36,4,1,0.5667888000000403,['n'],0,left,['9'],2,0.7338442000000214,0.2,0,FastFast,8,18,Woman,Right,
37,4,1,0.6000097000001006,['n'],1,right,['9'],2,0.7002265999999508,0.1,0,FastFast,8,18,Woman,Right,
38,4,1,0.450049700000136,['c'],1,left,['9'],2,1.8001970999998775,0.2,0,FastFast,8,18,Woman,Right,
39,4,1,0.8663189000001239,['c'],1,left,['2'],5,0.7170737000001282,0.1,0,FastFast,8,18,Woman,Right,
40,4,1,0.4827362000000903,['n'],1,right,['9'],2,0.9337499000000662,0.4,0,FastFast,8,18,Woman,Right,
41,4,1,0.4843640999999934,['n'],1,right,['9'],2,0.850328300000001,0.1,0,FastFast,8,18,Woman,Right,
42,4,1,0.6502407000000403,['c'],0,right,['9'],2,1.150507700000162,0.2,0,FastFast,8,18,Woman,Right,
43,4,1,0.6673815999999988,['n'],1,right,['9'],2,0.6504728999998406,0.2,0,FastFast,8,18,Woman,Right,
44,4,1,0.8839109000000462,['n'],1,right,['9'],2,0.5672185000000809,0.2,0,FastFast,8,18,Woman,Right,
45,4,1,0.5168979000000036,['c'],1,left,['9'],2,0.5003160000001117,0.4,0,FastFast,8,18,Woman,Right,
46,4,1,0.600702000000183,['n'],1,right,['9'],2,0.5172172000000046,0.2,0,FastFast,8,18,Woman,Right,
47,4,1,0.6994359000000259,['n'],1,right,['9'],2,0.617140099999915,0.1,0,FastFast,8,18,Woman,Right,
48,4,1,0.5835082999999486,['n'],1,right,['9'],2,0.8005646999999954,0.4,0,FastFast,8,18,Woman,Right,
49,4,1,0.89951259999998,['c'],1,left,['3'],4,0.7839526000000205,0.2,0,FastFast,8,18,Woman,Right,
50,4,1,0.6836986999999226,['c'],1,left,['3'],4,0.6337917999999263,0.4,0,FastFast,8,18,Woman,Right,
51,4,1,0.883908399999882,['c'],1,left,['3'],4,0.584132499999896,0.4,0,FastFast,8,18,Woman,Right,
52,4,1,0.8492650999999114,['n'],1,right,['3'],4,1.0336463999999523,0.4,0,FastFast,8,18,Woman,Right,
53,4,1,1.4511949000000186,['n'],1,right,['2'],5,2.8005719000000227,0.1,0,FastFast,8,18,Woman,Right,
54,4,1,0.850363500000185,['c'],1,left,['2'],5,0.6336704000000282,0.1,0,FastFast,8,18,Woman,Right,
55,4,1,1.7838572000000568,['n'],1,right,['9'],2,0.9506034000000909,0.1,0,FastFast,8,18,Woman,Right,
56,4,1,1.2493570000001455,['c'],1,left,['9'],2,0.7170660999997835,0.1,0,FastFast,8,18,Woman,Right,
57,4,1,0.7663669999999456,['n'],1,right,['9'],2,0.650392199999942,0.2,0,FastFast,8,18,Woman,Right,
58,4,1,0.616787899999963,['n'],0,left,['9'],2,0.46713900000008834,0.2,0,FastFast,8,18,Woman,Right,
59,4,1,0.5995502999999189,['n'],1,right,['3'],4,0.8670911000001524,0.4,0,FastFast,8,18,Woman,Right,
0,5,1,2.79972070000008,['n'],0,left,['2'],5,1.0671744999999646,0.2,0,AccFast,8,18,Woman,Right,
1,5,1,0.7999813000001268,['n'],1,right,['2'],5,0.4005844000000707,0.1,0,AccFast,8,18,Woman,Right,
2,5,1,2.1162339999998494,['n'],1,right,['9'],2,1.4005134999999882,0.2,0,AccFast,8,18,Woman,Right,
3,5,1,1.2164905999998155,['n'],1,right,['9'],2,1.0840362000001278,0.1,0,AccFast,8,18,Woman,Right,
4,5,1,0.7659025000000383,['c'],1,left,['3'],4,0.9505793000000722,0.4,0,AccFast,8,18,Woman,Right,
5,5,1,1.3171058999998877,['c'],1,left,['9'],2,1.4007808999999725,0.2,0,AccFast,8,18,Woman,Right,
6,5,1,0.96612140000002,['c'],0,right,['9'],2,0.38379950000012286,0.1,0,AccFast,8,18,Woman,Right,
7,5,1,1.416349500000024,['c'],1,left,['3'],4,1.6005373000000418,0.1,0,AccFast,8,18,Woman,Right,
8,5,1,0.8830448999999589,['c'],0,right,['3'],4,1.1006512999999813,0.4,0,AccFast,8,18,Woman,Right,
9,5,1,1.299583400000074,['c'],1,left,['3'],4,0.5339030999998613,0.2,0,AccFast,8,18,Woman,Right,
10,5,1,1.7996519999999236,['c'],0,right,['3'],4,0.5006947000001674,0.1,0,AccFast,8,18,Woman,Right,
11,5,1,1.549581900000021,['c'],0,right,['3'],4,0.8672544000000926,0.4,0,AccFast,8,18,Woman,Right,
12,5,1,1.3162164000000303,['c'],1,left,['9'],2,0.7506954000000405,0.4,0,AccFast,8,18,Woman,Right,
13,5,1,0.6992806000000655,['n'],1,right,['3'],4,1.5672488000000158,0.4,0,AccFast,8,18,Woman,Right,
14,5,1,1.8993379000000914,['n'],1,right,['2'],5,1.3341815000001134,0.4,0,AccFast,8,18,Woman,Right,
15,5,1,2.4162165000000186,['c'],1,left,['2'],5,0.8674100999999155,0.4,0,AccFast,8,18,Woman,Right,
16,5,1,1.5501292999999805,['c'],0,right,['2'],5,1.0838431000001947,0.2,0,AccFast,8,18,Woman,Right,
17,5,1,0.7497855000001437,['c'],0,right,['2'],5,0.7670614000001024,0.1,0,AccFast,8,18,Woman,Right,
18,5,1,0.7327504999998382,['c'],0,right,['2'],5,0.5838757999999871,0.1,0,AccFast,8,18,Woman,Right,
19,5,1,0.9829911999997876,['c'],1,left,['2'],5,1.4004319999999097,0.4,0,AccFast,8,18,Woman,Right,
20,5,1,1.2495254999998906,['c'],1,left,['9'],2,1.150713499999938,0.1,0,AccFast,8,18,Woman,Right,
21,5,1,1.3009761000000708,['c'],1,left,['2'],5,0.6506094000001212,0.1,0,AccFast,8,18,Woman,Right,
22,5,1,1.4326962999998614,['c'],0,right,['2'],5,0.9506125999998858,0.2,0,AccFast,8,18,Woman,Right,
23,5,1,2.0166160999999647,['c'],0,right,['2'],5,0.7339557000000241,0.4,0,AccFast,8,18,Woman,Right,
24,5,1,1.5665934999999536,['c'],1,left,['2'],5,0.4839190000000144,0.4,0,AccFast,8,18,Woman,Right,
25,5,1,1.3833893999999418,['c'],1,left,['2'],5,0.4505305000000135,0.2,0,AccFast,8,18,Woman,Right,
26,5,1,1.533075800000006,['c'],1,left,['2'],5,0.333837800000083,0.4,0,AccFast,8,18,Woman,Right,
27,5,1,1.550114800000074,['c'],0,right,['2'],5,0.383894699999928,0.1,0,AccFast,8,18,Woman,Right,
28,5,1,0.8993616000000202,['c'],1,left,['2'],5,0.30054020000011406,0.2,0,AccFast,8,18,Woman,Right,
29,5,1,1.0329540999998699,['c'],0,right,['2'],5,0.3173127000000022,0.1,0,AccFast,8,18,Woman,Right,
30,5,1,1.1498291000000336,['c'],1,left,['3'],4,0.6502275000000282,0.4,0,AccFast,8,18,Woman,Right,
31,5,1,1.8497078999998848,['n'],0,left,['9'],2,0.43374180000000706,0.1,0,AccFast,8,18,Woman,Right,
32,5,1,1.7992675000000418,['c'],0,right,['9'],2,0.6006027000000813,0.4,0,AccFast,8,18,Woman,Right,
33,5,1,0.9508425999999872,['c'],1,left,['2'],5,0.41739370000004783,0.2,0,AccFast,8,18,Woman,Right,
34,5,1,1.0674995000001672,['c'],1,left,['2'],5,0.3670449999999619,0.1,0,AccFast,8,18,Woman,Right,
35,5,1,1.2994811999999456,['c'],1,left,['2'],5,0.3504394000001412,0.4,0,AccFast,8,18,Woman,Right,
36,5,1,1.182559099999935,['n'],1,right,['9'],2,0.3838094000000183,0.2,0,AccFast,8,18,Woman,Right,
37,5,1,0.7163258999999016,['n'],1,right,['2'],5,0.40040570000019216,0.2,0,AccFast,8,18,Woman,Right,
38,5,1,2.5498150000000805,['n'],1,right,['2'],5,0.5004149999999754,0.2,0,AccFast,8,18,Woman,Right,
39,5,1,2.5998804999999265,['n'],1,right,['2'],5,0.41708139999991545,0.2,0,AccFast,8,18,Woman,Right,
40,5,1,0.7497454999997899,['c'],1,left,['2'],5,0.4674197000001641,0.4,0,AccFast,8,18,Woman,Right,
41,5,1,1.1498274000000492,['n'],1,right,['9'],2,0.6837454000001344,0.4,0,AccFast,8,18,Woman,Right,
42,5,1,0.9327656000000388,['c'],1,left,['9'],2,0.6004276000001028,0.1,0,AccFast,8,18,Woman,Right,
43,5,1,1.2002046000000064,['c'],1,left,['9'],2,0.30050789999995686,0.2,0,AccFast,8,18,Woman,Right,
44,5,1,1.4332732000000306,['c'],1,left,['9'],2,0.2838561999999456,0.4,0,AccFast,8,18,Woman,Right,
45,5,1,1.1832569999999123,['n'],1,right,['2'],5,0.533789699999943,0.4,0,AccFast,8,18,Woman,Right,
46,5,1,1.2329010999999355,['c'],1,left,['9'],2,0.35092009999993934,0.2,0,AccFast,8,18,Woman,Right,
47,5,1,2.8492040999999517,['n'],1,right,['9'],2,0.7505644000000302,0.1,0,AccFast,8,18,Woman,Right,
48,5,1,0.8652994999999919,['c'],1,left,['2'],5,0.5006510999999136,0.4,0,AccFast,8,18,Woman,Right,
49,5,1,0.7498076000001674,['n'],1,right,['9'],2,0.40056030000005194,0.2,0,AccFast,8,18,Woman,Right,
50,5,1,0.699651700000004,['c'],1,left,['3'],4,0.9838492999999744,0.4,0,AccFast,8,18,Woman,Right,
51,5,1,0.966388600000073,['c'],1,left,['3'],4,0.8337780000001658,0.2,0,AccFast,8,18,Woman,Right,
52,5,1,1.4166728000000148,['n'],1,right,['9'],2,0.7011023999998542,0.1,0,AccFast,8,18,Woman,Right,
53,5,1,0.8495081999999456,['c'],1,left,['2'],5,0.45031330000006164,0.2,0,AccFast,8,18,Woman,Right,
54,5,1,3.749814199999946,['n'],1,right,['9'],2,0.5005054000000655,0.2,0,AccFast,8,18,Woman,Right,
55,5,1,4.816488499999878,['n'],1,right,['9'],2,0.8170889999998963,0.1,0,AccFast,8,18,Woman,Right,
56,5,1,1.799842099999978,['c'],1,left,['9'],2,0.3173538999999437,0.1,0,AccFast,8,18,Woman,Right,
57,5,1,1.3498759999999947,['n'],0,left,['9'],2,0.40030909999995856,0.2,0,AccFast,8,18,Woman,Right,
58,5,1,1.5155471000000489,['n'],1,right,['9'],2,0.3171508000000358,0.1,0,AccFast,8,18,Woman,Right,
59,5,1,1.4331087999999,['n'],1,right,['9'],2,0.3838054000000284,0.1,0,AccFast,8,18,Woman,Right,
0,6,1,1.9995662999999695,['c'],1,left,none,-99,-99,0.2,1,AccAcc,8,18,Woman,Right,
1,6,1,1.1164397000000008,['n'],1,right,['9'],2,1.8005406999998286,0.4,0,AccAcc,8,18,Woman,Right,
2,6,1,1.7160037000001012,['n'],0,left,['9'],2,0.7171797000000879,0.1,0,AccAcc,8,18,Woman,Right,
3,6,1,2.082758100000092,['n'],0,left,['0'],1,1.4005487999997968,0.2,0,AccAcc,8,18,Woman,Right,
4,6,1,1.6331731000000218,['c'],1,left,['9'],2,1.3673080999999456,0.4,0,AccAcc,8,18,Woman,Right,
5,6,1,1.5330208000000312,['n'],1,right,['2'],5,0.8836888000000727,0.4,0,AccAcc,8,18,Woman,Right,
6,6,1,2.6494769999999335,['n'],0,left,['9'],2,0.8338188999998692,0.4,0,AccAcc,8,18,Woman,Right,
7,6,1,2.966385900000205,['c'],0,right,['2'],5,2.033884500000113,0.1,0,AccAcc,8,18,Woman,Right,
8,6,1,1.766296900000043,['n'],0,left,['9'],2,0.5838768999999502,0.1,0,AccAcc,8,18,Woman,Right,
9,6,1,2.916766899999857,['n'],1,right,['2'],5,2.500554799999918,0.2,0,AccAcc,8,18,Woman,Right,
10,6,1,1.2162545000001046,['c'],0,right,['2'],5,1.0167523000000074,0.1,0,AccAcc,8,18,Woman,Right,
11,6,1,2.0669196999999713,['n'],1,right,['9'],2,0.5837326999999277,0.4,0,AccAcc,8,18,Woman,Right,
12,6,1,1.5994127999999819,['n'],1,right,['9'],2,0.5671548999998777,0.1,0,AccAcc,8,18,Woman,Right,
13,6,1,2.3159058999999615,['c'],1,left,['2'],5,0.6841709000000264,0.4,0,AccAcc,8,18,Woman,Right,
14,6,1,4.999556600000005,['c'],1,left,['9'],2,1.083621699999867,0.2,0,AccAcc,8,18,Woman,Right,
15,6,1,1.466592799999944,['c'],1,left,['9'],2,1.1172037999999702,0.4,0,AccAcc,8,18,Woman,Right,
16,6,1,3.4493130000000747,['n'],0,left,['9'],2,1.9005348000000595,0.1,0,AccAcc,8,18,Woman,Right,
17,6,1,1.2832424999999148,['n'],1,right,['9'],2,0.7170461999999134,0.1,0,AccAcc,8,18,Woman,Right,
18,6,1,1.2663982000001397,['n'],1,right,['9'],2,0.4669151000000511,0.4,0,AccAcc,8,18,Woman,Right,
19,6,1,1.832914399999936,['n'],1,right,['9'],2,0.43343220000019755,0.1,0,AccAcc,8,18,Woman,Right,
20,6,1,1.382999400000017,['n'],1,right,['9'],2,0.3338202000002184,0.2,0,AccAcc,8,18,Woman,Right,
21,6,1,2.1332331999999496,['c'],0,right,['9'],2,0.5004936000000271,0.1,0,AccAcc,8,18,Woman,Right,
22,6,1,2.649360599999909,['n'],0,left,['8'],3,2.2172124999999596,0.4,0,AccAcc,8,18,Woman,Right,
23,6,1,2.5997628000000077,['n'],1,right,['9'],2,0.9505153000000064,0.2,0,AccAcc,8,18,Woman,Right,
24,6,1,2.399488799999972,['n'],1,right,['9'],2,0.43380009999987124,0.4,0,AccAcc,8,18,Woman,Right,
25,6,1,2.1830827999999656,['n'],1,right,['9'],2,0.6171267999998236,0.4,0,AccAcc,8,18,Woman,Right,
26,6,1,1.1322618000001512,['c'],1,left,['3'],4,1.3671351000000413,0.4,0,AccAcc,8,18,Woman,Right,
27,6,1,2.9828829000000496,['c'],1,left,['9'],2,1.7005593000001227,0.1,0,AccAcc,8,18,Woman,Right,
28,6,1,1.6496852000000217,['n'],1,right,['9'],2,0.3505228999999872,0.2,0,AccAcc,8,18,Woman,Right,
29,6,1,1.2328731000000062,['c'],1,left,['9'],2,1.8337336999998115,0.4,0,AccAcc,8,18,Woman,Right,
30,6,1,1.3328073000000131,['c'],1,left,['9'],2,0.8005143999998836,0.2,0,AccAcc,8,18,Woman,Right,
31,6,1,2.4156095000000732,['c'],1,left,['9'],2,0.7172304000000622,0.2,0,AccAcc,8,18,Woman,Right,
32,6,1,2.466337199999998,['n'],1,right,['9'],2,0.5669966000000386,0.2,0,AccAcc,8,18,Woman,Right,
33,6,1,2.2662315000000035,['n'],1,right,['3'],4,0.8505599000000075,0.2,0,AccAcc,8,18,Woman,Right,
34,6,1,2.43303429999969,['c'],1,left,['9'],2,0.7671368999999686,0.2,0,AccAcc,8,18,Woman,Right,
35,6,1,2.0830974000000424,['n'],1,right,['9'],2,0.40056400000003123,0.2,0,AccAcc,8,18,Woman,Right,
36,6,1,1.1326122999998915,['n'],1,right,['2'],5,0.8172558999999637,0.4,0,AccAcc,8,18,Woman,Right,
37,6,1,3.1498194999999214,['n'],1,right,['9'],2,0.4172570999999152,0.1,0,AccAcc,8,18,Woman,Right,
38,6,1,1.4993844999999055,['n'],1,right,['9'],2,0.43400999999994383,0.2,0,AccAcc,8,18,Woman,Right,
39,6,1,5.015621200000169,x,-99,left,none,-99,-99,0.1,1,AccAcc,8,18,Woman,Right,
40,6,1,2.949613899999804,['c'],0,right,['2'],5,0.5168549999998504,0.1,0,AccAcc,8,18,Woman,Right,
41,6,1,1.3329790000002504,['n'],1,right,['9'],2,0.4504053999999087,0.4,0,AccAcc,8,18,Woman,Right,
42,6,1,2.333167499999945,['n'],0,left,['0'],1,0.583174400000189,0.2,0,AccAcc,8,18,Woman,Right,
43,6,1,3.8328074000000925,['c'],1,left,['9'],2,1.3838534000001346,0.4,0,AccAcc,8,18,Woman,Right,
44,6,1,0.9664302999999563,['c'],1,left,['3'],4,2.23395679999976,0.4,0,AccAcc,8,18,Woman,Right,
45,6,1,3.783576499999981,['c'],0,right,['2'],5,1.067764000000352,0.1,0,AccAcc,8,18,Woman,Right,
46,6,1,1.0663371999999072,['c'],1,left,['2'],5,0.4838999000003241,0.4,0,AccAcc,8,18,Woman,Right,
47,6,1,2.899229600000126,['n'],1,right,['9'],2,1.2505409000000327,0.2,0,AccAcc,8,18,Woman,Right,
48,6,1,3.2664420000000973,['c'],0,right,['9'],2,1.2506640999999945,0.1,0,AccAcc,8,18,Woman,Right,
49,6,1,2.666990199999873,['n'],0,left,['0'],1,0.9841467999999622,0.1,0,AccAcc,8,18,Woman,Right,
50,6,1,2.599466399999983,['n'],1,right,['0'],1,0.6338283999998566,0.1,0,AccAcc,8,18,Woman,Right,
51,6,1,2.2660597999997663,['n'],0,left,['0'],1,0.46713290000025154,0.1,0,AccAcc,8,18,Woman,Right,
52,6,1,4.249550099999851,['n'],0,left,['0'],1,0.9005243999999948,0.2,0,AccAcc,8,18,Woman,Right,
53,6,1,0.9661126000000877,['c'],1,left,['2'],5,0.7672081999999136,0.4,0,AccAcc,8,18,Woman,Right,
54,6,1,1.6328238000000965,['c'],1,left,['2'],5,0.7505169000000933,0.2,0,AccAcc,8,18,Woman,Right,
55,6,1,0.8161975000002712,['n'],1,right,['2'],5,0.7670852000001105,0.2,0,AccAcc,8,18,Woman,Right,
56,6,1,1.5002722999997786,['c'],1,left,['2'],5,0.8339420000002065,0.1,0,AccAcc,8,18,Woman,Right,
57,6,1,0.7830644000000575,['n'],1,right,['2'],5,0.7007096000002093,0.4,0,AccAcc,8,18,Woman,Right,
58,6,1,1.7828991000001224,['c'],1,left,['9'],2,1.0172365999997055,0.2,0,AccAcc,8,18,Woman,Right,
59,6,1,1.182941700000356,['c'],1,left,['3'],4,1.1335032000001775,0.1,0,AccAcc,8,18,Woman,Right,
0,7,1,1.066598100000192,['c'],1,left,['2'],5,2.6339066999998977,0.4,0,FastAcc,8,18,Woman,Right,
1,7,1,1.6495417999999518,['c'],1,left,['0'],1,1.567211199999747,0.2,0,FastAcc,8,18,Woman,Right,
2,7,1,0.6663574000003791,['c'],1,left,['9'],2,1.8340946000002987,0.4,0,FastAcc,8,18,Woman,Right,
3,7,1,0.9160431000000244,['n'],1,right,['2'],5,1.7837855000002492,0.2,0,FastAcc,8,18,Woman,Right,
4,7,1,1.6327418000000762,['n'],0,left,['0'],1,1.4839425999998639,0.2,0,FastAcc,8,18,Woman,Right,
5,7,1,0.816114799999923,['c'],1,left,['0'],1,1.0838225999996212,0.2,0,FastAcc,8,18,Woman,Right,
6,7,1,1.9659590999999637,['n'],0,left,['0'],1,0.733910399999786,0.1,0,FastAcc,8,18,Woman,Right,
7,7,1,0.6659589999999298,['c'],1,left,['9'],2,1.6505624999999782,0.4,0,FastAcc,8,18,Woman,Right,
8,7,1,0.6661036000000422,['c'],1,left,['9'],2,0.5001139000000876,0.2,0,FastAcc,8,18,Woman,Right,
9,7,1,1.7997301999998854,['n'],1,right,['9'],2,2.6338763999997354,0.2,0,FastAcc,8,18,Woman,Right,
10,7,1,0.8661345999998957,['n'],1,right,['2'],5,0.6336224000001494,0.4,0,FastAcc,8,18,Woman,Right,
11,7,1,1.299827599999844,['n'],1,right,['2'],5,0.833869500000219,0.2,0,FastAcc,8,18,Woman,Right,
12,7,1,2.482381499999974,['n'],1,right,['2'],5,1.6671314000000166,0.2,0,FastAcc,8,18,Woman,Right,
13,7,1,0.7156159999999545,['c'],1,left,['2'],5,0.5337312999999995,0.4,0,FastAcc,8,18,Woman,Right,
14,7,1,0.6334106999997857,['c'],1,left,['9'],2,1.2503232999997635,0.4,0,FastAcc,8,18,Woman,Right,
15,7,1,1.3996204999998554,['n'],0,left,['9'],2,2.1336120999999366,0.2,0,FastAcc,8,18,Woman,Right,
16,7,1,0.7668942999998762,['n'],1,right,['2'],5,0.8337946999999986,0.4,0,FastAcc,8,18,Woman,Right,
17,7,1,0.632730199999969,['n'],1,right,['2'],5,0.617215600000236,0.4,0,FastAcc,8,18,Woman,Right,
18,7,1,1.6165854000000763,['n'],1,right,['2'],5,2.9838568000000123,0.4,0,FastAcc,8,18,Woman,Right,
19,7,1,2.9663221999999223,['n'],0,left,['0'],1,0.8838689999997769,0.1,0,FastAcc,8,18,Woman,Right,
20,7,1,0.8495638000003964,['n'],1,right,['2'],5,1.5171219999997447,0.2,0,FastAcc,8,18,Woman,Right,
21,7,1,0.8995636999998169,['n'],1,right,['3'],4,0.617332499999975,0.4,0,FastAcc,8,18,Woman,Right,
22,7,1,5.016277400000035,x,-99,right,none,-99,-99,0.2,1,FastAcc,8,18,Woman,Right,
23,7,1,1.3827908000002935,['n'],1,right,['2'],5,0.8005330999999387,0.4,0,FastAcc,8,18,Woman,Right,
24,7,1,0.8156512999998995,['c'],1,left,['2'],5,0.4838085000001229,0.4,0,FastAcc,8,18,Woman,Right,
25,7,1,1.1492314000001898,['n'],1,right,['9'],2,2.25055889999976,0.2,0,FastAcc,8,18,Woman,Right,
26,7,1,1.7663527999998223,['n'],0,left,['9'],2,0.7004198999998152,0.1,0,FastAcc,8,18,Woman,Right,
27,7,1,0.6661863999997877,['n'],1,right,['2'],5,0.650502299999971,0.4,0,FastAcc,8,18,Woman,Right,
28,7,1,0.967065399999683,['c'],0,right,['0'],1,4.250285299999632,0.1,0,FastAcc,8,18,Woman,Right,
29,7,1,1.6501389999998537,['c'],1,left,['0'],1,0.650633299999754,0.2,0,FastAcc,8,18,Woman,Right,
30,7,1,0.999348899999859,['c'],1,left,['9'],2,1.5175013000002764,0.1,0,FastAcc,8,18,Woman,Right,
31,7,1,0.7828755000000456,['c'],1,left,['2'],5,0.633803799999896,0.1,0,FastAcc,8,18,Woman,Right,
32,7,1,0.6660389000003306,['c'],1,left,['9'],2,0.8004385000003822,0.1,0,FastAcc,8,18,Woman,Right,
33,7,1,0.6821938000002774,['n'],1,right,['9'],2,0.5837393000001612,0.4,0,FastAcc,8,18,Woman,Right,
34,7,1,1.8828235999999379,['n'],0,left,['2'],5,1.5505177999998523,0.2,0,FastAcc,8,18,Woman,Right,
35,7,1,1.4991762999998173,['n'],0,left,['0'],1,1.1839340999999877,0.1,0,FastAcc,8,18,Woman,Right,
36,7,1,0.899633200000153,['n'],0,left,['0'],1,1.0504500000001826,0.1,0,FastAcc,8,18,Woman,Right,
37,7,1,0.6826607000002696,['n'],1,right,['3'],4,1.5505480000001626,0.1,0,FastAcc,8,18,Woman,Right,
38,7,1,1.332875999999942,['c'],1,left,['9'],2,2.766945400000168,0.1,0,FastAcc,8,18,Woman,Right,
39,7,1,0.8828353000003517,['c'],1,left,['9'],2,0.9004307000000153,0.1,0,FastAcc,8,18,Woman,Right,
40,7,1,0.6493122000001676,['n'],1,right,['2'],5,0.9505996999996569,0.4,0,FastAcc,8,18,Woman,Right,
41,7,1,0.5821097999996709,['n'],1,right,['2'],5,1.0505378000002565,0.4,0,FastAcc,8,18,Woman,Right,
42,7,1,0.5828806999998051,['c'],0,right,['2'],5,0.7004216999998789,0.4,0,FastAcc,8,18,Woman,Right,
43,7,1,0.9830964999996468,['n'],1,right,['2'],5,2.0672027999999045,0.1,0,FastAcc,8,18,Woman,Right,
44,7,1,0.8660743000000366,['n'],1,right,['9'],2,0.7672827000001234,0.1,0,FastAcc,8,18,Woman,Right,
45,7,1,0.582140999999865,['n'],1,right,['2'],5,0.6004308999999921,0.4,0,FastAcc,8,18,Woman,Right,
46,7,1,0.682279600000129,['n'],1,right,['2'],5,0.8339053999998214,0.2,0,FastAcc,8,18,Woman,Right,
47,7,1,0.866763400000309,['n'],0,left,['9'],2,0.7004486000000725,0.1,0,FastAcc,8,18,Woman,Right,
48,7,1,0.5831490999999005,['c'],1,left,['2'],5,0.6671987999998237,0.4,0,FastAcc,8,18,Woman,Right,
49,7,1,0.5494955000003756,['c'],1,left,['2'],5,0.8504692000001342,0.2,0,FastAcc,8,18,Woman,Right,
50,7,1,1.9163017000000764,['n'],1,right,['0'],1,1.034115699999802,0.1,0,FastAcc,8,18,Woman,Right,
51,7,1,0.7491707999997743,['n'],1,right,['0'],1,0.4839561999997386,0.1,0,FastAcc,8,18,Woman,Right,
52,7,1,0.9323330000001988,['n'],1,right,['9'],2,0.6672054000000571,0.1,0,FastAcc,8,18,Woman,Right,
53,7,1,1.165903900000103,['c'],1,left,['0'],1,0.9837986000002275,0.1,0,FastAcc,8,18,Woman,Right,
54,7,1,0.7658824000000095,['n'],1,right,['2'],5,0.6837719000000106,0.4,0,FastAcc,8,18,Woman,Right,
55,7,1,3.182122100000015,['n'],1,right,['0'],1,0.933810700000322,0.2,0,FastAcc,8,18,Woman,Right,
56,7,1,0.616421100000025,['c'],1,left,['2'],5,0.6672768000003089,0.2,0,FastAcc,8,18,Woman,Right,
57,7,1,0.7671539000002667,['c'],1,left,['2'],5,0.5837987999998404,0.1,0,FastAcc,8,18,Woman,Right,
58,7,1,0.5821135999999569,['n'],1,right,['2'],5,0.5172230999996827,0.2,0,FastAcc,8,18,Woman,Right,
59,7,1,0.8503348999997797,['c'],1,left,['2'],5,0.5172479000002568,0.2,0,FastAcc,8,18,Woman,Right,
0,8,1,0.7826666000000841,['n'],1,right,['9'],2,1.3505427000000054,0.4,0,FastFast,8,18,Woman,Right,
1,8,1,0.5995899999998073,['c'],1,left,['2'],5,0.9338628999998946,0.4,0,FastFast,8,18,Woman,Right,
2,8,1,1.3493634999999813,['n'],1,right,['0'],1,0.6837977999998657,0.1,0,FastFast,8,18,Woman,Right,
3,8,1,0.5999289000001227,['c'],1,left,['2'],5,0.666899999999714,0.4,0,FastFast,8,18,Woman,Right,
4,8,1,1.2159735999998702,['n'],0,left,['0'],1,0.48428370000010545,0.1,0,FastFast,8,18,Woman,Right,
5,8,1,0.6831824999999299,['n'],1,right,['2'],5,0.8171004000000721,0.2,0,FastFast,8,18,Woman,Right,
6,8,1,0.5323662000000695,['c'],1,left,['3'],4,1.1505183000003854,0.1,0,FastFast,8,18,Woman,Right,
7,8,1,0.7495876999996653,['n'],1,right,['0'],1,0.5339488999998139,0.2,0,FastFast,8,18,Woman,Right,
8,8,1,0.6162114999997357,['n'],1,right,['2'],5,0.6172449000000597,0.4,0,FastFast,8,18,Woman,Right,
9,8,1,0.5823801000001367,['c'],0,right,['3'],4,0.9004500000000917,0.1,0,FastFast,8,18,Woman,Right,
10,8,1,1.2162238000000798,['c'],1,left,['0'],1,0.6670079000000442,0.1,0,FastFast,8,18,Woman,Right,
11,8,1,0.8329147999997986,['n'],0,left,['0'],1,0.6004308000001402,0.2,0,FastFast,8,18,Woman,Right,
12,8,1,0.7654914999998255,['n'],0,left,['0'],1,0.5673204999998234,0.2,0,FastFast,8,18,Woman,Right,
13,8,1,0.816287199999806,['n'],1,right,['0'],1,0.48388710000017454,0.2,0,FastFast,8,18,Woman,Right,
14,8,1,0.7161968000000343,['n'],1,right,['0'],1,0.5339008000000831,0.2,0,FastFast,8,18,Woman,Right,
15,8,1,0.532840600000327,['c'],1,left,['2'],5,1.1672569999996085,0.4,0,FastFast,8,18,Woman,Right,
16,8,1,0.5329102999999122,['n'],1,right,['0'],1,1.2006683999998131,0.2,0,FastFast,8,18,Woman,Right,
17,8,1,0.6495378999998138,['c'],1,left,['2'],5,0.4171602999999777,0.2,0,FastFast,8,18,Woman,Right,
18,8,1,0.5829505000001518,['c'],1,left,['2'],5,0.41711020000002463,0.4,0,FastFast,8,18,Woman,Right,
19,8,1,0.5496983999996701,['c'],1,left,['2'],5,0.43378660000007585,0.4,0,FastFast,8,18,Woman,Right,
20,8,1,0.8495259999999689,['n'],1,right,['9'],2,0.43375250000008236,0.2,0,FastFast,8,18,Woman,Right,
21,8,1,0.6156291000002057,['n'],1,right,['2'],5,0.4338188000001537,0.2,0,FastFast,8,18,Woman,Right,
22,8,1,0.6335727999999108,['n'],1,right,['3'],4,0.7172748999996656,0.1,0,FastFast,8,18,Woman,Right,
23,8,1,1.2498700000001008,['c'],1,left,['0'],1,0.8171627000001536,0.1,0,FastFast,8,18,Woman,Right,
24,8,1,0.8663415999999415,['n'],0,left,['0'],1,0.917185199999949,0.2,0,FastFast,8,18,Woman,Right,
25,8,1,0.5669809999999416,['c'],1,left,['2'],5,0.78363760000002,0.2,0,FastFast,8,18,Woman,Right,
26,8,1,0.666130599999633,['c'],1,left,['2'],5,0.6669026999998096,0.1,0,FastFast,8,18,Woman,Right,
27,8,1,1.017091100000016,['c'],1,left,['0'],1,1.3508680999998433,0.4,0,FastFast,8,18,Woman,Right,
28,8,1,0.7167298999997911,['n'],1,right,['0'],1,1.1005518000001757,0.2,0,FastFast,8,18,Woman,Right,
29,8,1,0.8329000999997334,['c'],1,left,['2'],5,1.167232299999796,0.1,0,FastFast,8,18,Woman,Right,
30,8,1,0.9660573999999542,['n'],1,right,['0'],1,0.7339237000001049,0.4,0,FastFast,8,18,Woman,Right,
31,8,1,1.0662030000003142,['n'],1,right,['0'],1,0.8006248000001506,0.1,0,FastFast,8,18,Woman,Right,
32,8,1,0.7828325999998924,['c'],1,left,['2'],5,1.3671681000000717,0.4,0,FastFast,8,18,Woman,Right,
33,8,1,0.9998225999997885,['n'],1,right,['0'],1,1.0004488999998102,0.1,0,FastFast,8,18,Woman,Right,
34,8,1,1.166225200000099,['n'],1,right,['0'],1,0.6671043999999711,0.4,0,FastFast,8,18,Woman,Right,
35,8,1,0.8660056999997323,['c'],1,left,['0'],1,0.9005680999998731,0.2,0,FastFast,8,18,Woman,Right,
36,8,1,2.132872099999986,['n'],1,right,['0'],1,0.8338313000003836,0.2,0,FastFast,8,18,Woman,Right,
37,8,1,0.8168602999999166,['c'],1,left,['2'],5,0.5840076000004046,0.2,0,FastFast,8,18,Woman,Right,
38,8,1,1.166526900000008,['n'],1,right,['0'],1,0.7175099999999475,0.2,0,FastFast,8,18,Woman,Right,
39,8,1,0.9994234000000688,['c'],1,left,['2'],5,0.7505909999999858,0.1,0,FastFast,8,18,Woman,Right,
40,8,1,1.4648111000001336,['n'],1,right,['0'],1,0.41729960000020583,0.2,0,FastFast,8,18,Woman,Right,
41,8,1,0.7000200000002224,['c'],1,left,['0'],1,1.017183599999953,0.1,0,FastFast,8,18,Woman,Right,
42,8,1,0.9328648000000612,['c'],0,right,['2'],5,0.8337995000001683,0.4,0,FastFast,8,18,Woman,Right,
43,8,1,0.8832346999997753,['c'],0,right,['2'],5,0.46733610000001136,0.4,0,FastFast,8,18,Woman,Right,
44,8,1,0.899971700000151,['c'],0,right,['2'],5,0.43384569999989253,0.4,0,FastFast,8,18,Woman,Right,
45,8,1,0.5666796999998951,['c'],1,left,['2'],5,0.38405520000014803,0.4,0,FastFast,8,18,Woman,Right,
46,8,1,1.4661645000001045,['c'],0,right,['0'],1,0.3668648000002577,0.4,0,FastFast,8,18,Woman,Right,
47,8,1,0.7503215000001546,['c'],1,left,['0'],1,0.41724280000016734,0.4,0,FastFast,8,18,Woman,Right,
48,8,1,0.7830046999997649,['c'],1,left,['0'],1,0.4672069000002921,0.4,0,FastFast,8,18,Woman,Right,
49,8,1,1.3996720999998615,['c'],0,right,['0'],1,0.7837368999998944,0.1,0,FastFast,8,18,Woman,Right,
50,8,1,0.9996248000002197,['c'],1,left,['0'],1,0.43376050000006217,0.2,0,FastFast,8,18,Woman,Right,
51,8,1,0.8500103999999737,['n'],1,right,['0'],1,0.38401539999995293,0.4,0,FastFast,8,18,Woman,Right,
52,8,1,0.64896090000002,['c'],1,left,['3'],4,0.967151400000148,0.1,0,FastFast,8,18,Woman,Right,
53,8,1,1.0332731999997122,['n'],1,right,['0'],1,0.35049469999967187,0.1,0,FastFast,8,18,Woman,Right,
54,8,1,0.7832135999997263,['n'],1,right,['0'],1,0.4506713000000673,0.4,0,FastFast,8,18,Woman,Right,
55,8,1,0.7164370000000417,['c'],1,left,['2'],5,0.43392050000011295,0.1,0,FastFast,8,18,Woman,Right,
56,8,1,1.1659517999996751,['n'],0,left,['0'],1,0.45045440000012604,0.1,0,FastFast,8,18,Woman,Right,
57,8,1,1.416294999999991,['n'],0,left,['9'],2,0.6004966000000422,0.1,0,FastFast,8,18,Woman,Right,
58,8,1,0.9166940000000068,['n'],1,right,['0'],1,0.3839081000000988,0.2,0,FastFast,8,18,Woman,Right,
59,8,1,2.1666009999999005,['n'],1,right,['9'],2,0.4504132000001846,0.1,0,FastFast,8,18,Woman,Right,
0,9,1,1.2663993999999548,['n'],1,right,['2'],5,0.6337131999998746,0.2,0,AccFast,8,18,Woman,Right,
1,9,1,0.9662423999998282,['n'],1,right,['2'],5,0.31719569999995656,0.2,0,AccFast,8,18,Woman,Right,
2,9,1,0.7498857999999018,['c'],1,left,['2'],5,0.3506169000002046,0.2,0,AccFast,8,18,Woman,Right,
3,9,1,0.7331788000001325,['c'],1,left,['2'],5,0.33385420000013255,0.4,0,AccFast,8,18,Woman,Right,
4,9,1,1.3833338999997977,['n'],1,right,['0'],1,0.633531199999652,0.1,0,AccFast,8,18,Woman,Right,
5,9,1,0.850373799999943,['n'],1,right,['2'],5,0.9340271000000939,0.4,0,AccFast,8,18,Woman,Right,
6,9,1,0.6329037000000426,['n'],1,right,['2'],5,0.283846899999844,0.4,0,AccFast,8,18,Woman,Right,
7,9,1,0.6827180999998745,['c'],1,left,['2'],5,0.31742690000010043,0.1,0,AccFast,8,18,Woman,Right,
8,9,1,0.632971400000315,['n'],1,right,['0'],1,0.28394380000008823,0.1,0,AccFast,8,18,Woman,Right,
9,9,1,0.6333940999998049,['n'],1,right,['2'],5,0.6172842000000855,0.4,0,AccFast,8,18,Woman,Right,
10,9,1,1.36657009999999,['n'],0,left,['2'],5,0.23381650000010268,0.1,0,AccFast,8,18,Woman,Right,
11,9,1,0.7998813000003793,['c'],1,left,['0'],1,0.28380620000007184,0.1,0,AccFast,8,18,Woman,Right,
12,9,1,0.6328972999999678,['c'],1,left,['0'],1,0.3170365999999376,0.4,0,AccFast,8,18,Woman,Right,
13,9,1,1.5162568999999166,['n'],0,left,['9'],2,0.7837248000000727,0.2,0,AccFast,8,18,Woman,Right,
14,9,1,0.7330649000000449,['c'],1,left,['0'],1,0.6673084999997627,0.2,0,AccFast,8,18,Woman,Right,
15,9,1,0.6495863000000099,['n'],1,right,['2'],5,0.6839078999996673,0.4,0,AccFast,8,18,Woman,Right,
16,9,1,1.7329325000000608,['n'],1,right,['2'],5,0.7337811000002148,0.4,0,AccFast,8,18,Woman,Right,
17,9,1,1.2492326000001412,['c'],1,left,['9'],2,0.6169156999999359,0.1,0,AccFast,8,18,Woman,Right,
18,9,1,0.9829490999995869,['c'],1,left,['2'],5,0.4837923000000046,0.4,0,AccFast,8,18,Woman,Right,
19,9,1,0.8329131999998935,['n'],1,right,['2'],5,0.4337888000000021,0.4,0,AccFast,8,18,Woman,Right,
20,9,1,0.6662544000000707,['c'],1,left,['2'],5,0.7005551999995987,0.4,0,AccFast,8,18,Woman,Right,
21,9,1,0.8499729000000116,['n'],1,right,['2'],5,0.48364330000003974,0.1,0,AccFast,8,18,Woman,Right,
22,9,1,2.1831647999997585,['c'],1,left,['0'],1,0.6335262000002331,0.2,0,AccFast,8,18,Woman,Right,
23,9,1,0.766617899999801,['c'],1,left,['2'],5,0.4171515000002728,0.2,0,AccFast,8,18,Woman,Right,
24,9,1,0.9831483000002663,['n'],1,right,['3'],4,0.38424369999984265,0.2,0,AccFast,8,18,Woman,Right,
25,9,1,0.6828000000000429,['c'],1,left,['9'],2,0.9169741000000613,0.2,0,AccFast,8,18,Woman,Right,
26,9,1,0.6671019000000342,['n'],1,right,['2'],5,0.7675212999997711,0.1,0,AccFast,8,18,Woman,Right,
27,9,1,0.6835163999999168,['n'],1,right,['9'],2,1.2005024999998568,0.2,0,AccFast,8,18,Woman,Right,
28,9,1,0.8661601000003429,['c'],1,left,['2'],5,0.5837593999999626,0.4,0,AccFast,8,18,Woman,Right,
29,9,1,0.6327890000002299,['c'],1,left,['9'],2,1.0672558000001118,0.4,0,AccFast,8,18,Woman,Right,
30,9,1,0.9992199000002984,['n'],1,right,['2'],5,0.7672121000000516,0.2,0,AccFast,8,18,Woman,Right,
31,9,1,0.76634039999999,['c'],1,left,['2'],5,0.667131100000006,0.1,0,AccFast,8,18,Woman,Right,
32,9,1,0.8995828000001893,['n'],1,right,['2'],5,0.5173782000001665,0.2,0,AccFast,8,18,Woman,Right,
33,9,1,1.1833181000001787,['c'],1,left,['9'],2,0.6672973999998248,0.1,0,AccFast,8,18,Woman,Right,
34,9,1,1.3321102999998402,['n'],1,right,['2'],5,0.45045200000004115,0.1,0,AccFast,8,18,Woman,Right,
35,9,1,0.7495860999997603,['n'],1,right,['2'],5,0.53437810000014,0.2,0,AccFast,8,18,Woman,Right,
36,9,1,1.2326732999999876,['n'],0,left,['9'],2,0.6006416999998692,0.1,0,AccFast,8,18,Woman,Right,
37,9,1,1.1831222999999227,['n'],1,right,['9'],2,0.7004840999998123,0.1,0,AccFast,8,18,Woman,Right,
38,9,1,1.1166306999998596,['n'],1,right,['9'],2,0.38383410000005824,0.1,0,AccFast,8,18,Woman,Right,
39,9,1,2.283049199999823,['n'],0,left,['0'],1,0.650344899999709,0.4,0,AccFast,8,18,Woman,Right,
40,9,1,1.1333865999999944,['n'],0,left,['9'],2,0.3670953999999256,0.2,0,AccFast,8,18,Woman,Right,
41,9,1,0.9330524000001787,['n'],1,right,['2'],5,0.48354779999999664,0.2,0,AccFast,8,18,Woman,Right,
42,9,1,0.8658261000000493,['n'],1,right,['2'],5,0.7672514000000774,0.1,0,AccFast,8,18,Woman,Right,
43,9,1,1.233308400000169,['c'],1,left,['0'],1,0.4004860000000008,0.4,0,AccFast,8,18,Woman,Right,
44,9,1,0.8162934000001769,['n'],1,right,['2'],5,0.28381850000005215,0.4,0,AccFast,8,18,Woman,Right,
45,9,1,0.7831734000001234,['n'],1,right,['2'],5,0.3172610999999961,0.4,0,AccFast,8,18,Woman,Right,
46,9,1,1.016206200000397,['n'],1,right,['2'],5,0.3504587000002175,0.1,0,AccFast,8,18,Woman,Right,
47,9,1,1.6163367999997718,['n'],0,left,['0'],1,0.3005340999998225,0.1,0,AccFast,8,18,Woman,Right,
48,9,1,1.5165622000004078,['c'],1,left,['0'],1,0.3168931000000157,0.4,0,AccFast,8,18,Woman,Right,
49,9,1,0.8996689000000515,['c'],1,left,['9'],2,0.6004996000001483,0.4,0,AccFast,8,18,Woman,Right,
50,9,1,1.6329149999996844,['c'],1,left,['0'],1,0.46710880000000543,0.2,0,AccFast,8,18,Woman,Right,
51,9,1,1.7666088999999374,['c'],1,left,['9'],2,0.3339997000002768,0.4,0,AccFast,8,18,Woman,Right,
52,9,1,1.732916799999657,['n'],1,right,['0'],1,0.5839900000000853,0.2,0,AccFast,8,18,Woman,Right,
53,9,1,1.0497000999998818,['c'],1,left,['3'],4,0.9004886000002443,0.1,0,AccFast,8,18,Woman,Right,
54,9,1,1.0996314999997594,['n'],1,right,['0'],1,0.3835212999997566,0.1,0,AccFast,8,18,Woman,Right,
55,9,1,1.9668996000000334,['n'],1,right,['0'],1,0.4171625000003587,0.2,0,AccFast,8,18,Woman,Right,
56,9,1,1.3838699999996606,['n'],1,right,['0'],1,0.3506130000000667,0.2,0,AccFast,8,18,Woman,Right,
57,9,1,0.7317942999998195,['n'],1,right,['9'],2,0.8171054999997978,0.4,0,AccFast,8,18,Woman,Right,
58,9,1,1.44959179999978,['c'],1,left,['9'],2,0.5005017000003136,0.2,0,AccFast,8,18,Woman,Right,
59,9,1,0.8993650000002162,['n'],0,left,['0'],1,0.33395610000025044,0.1,0,AccFast,8,18,Woman,Right,
0,10,1,1.399774499999694,['n'],1,right,['9'],2,1.4005182999999306,0.4,0,AccAcc,8,18,Woman,Right,
1,10,1,1.449590800000351,['n'],1,right,['0'],1,0.6005282000000989,0.2,0,AccAcc,8,18,Woman,Right,
2,10,1,1.2157248999997137,['c'],1,left,['9'],2,1.1842999000000418,0.1,0,AccAcc,8,18,Woman,Right,
3,10,1,2.2163767000001826,['c'],1,left,['9'],2,0.6507275000003574,0.1,0,AccAcc,8,18,Woman,Right,
4,10,1,2.0999486000000616,['c'],1,left,['2'],5,0.8506267000002481,0.4,0,AccAcc,8,18,Woman,Right,
5,10,1,1.9992551000000276,['n'],1,right,['3'],4,2.0505737000003137,0.2,0,AccAcc,8,18,Woman,Right,
6,10,1,1.3166873000000123,['c'],1,left,['2'],5,0.9838150999999016,0.4,0,AccAcc,8,18,Woman,Right,
7,10,1,1.8329741000002286,['c'],1,left,['2'],5,0.5175771999997778,0.4,0,AccAcc,8,18,Woman,Right,
8,10,1,2.366430600000058,['n'],1,right,['9'],2,0.350504699999874,0.4,0,AccAcc,8,18,Woman,Right,
9,10,1,3.1664410999997017,['c'],0,right,['2'],5,0.35053119999975024,0.1,0,AccAcc,8,18,Woman,Right,
10,10,1,2.8329108000002634,['c'],0,right,['2'],5,0.4672117000000071,0.1,0,AccAcc,8,18,Woman,Right,
11,10,1,2.7837776999999733,['c'],1,left,['2'],5,0.43381399999998393,0.2,0,AccAcc,8,18,Woman,Right,
12,10,1,3.099533699999938,['c'],1,left,['0'],1,0.36695289999988745,0.1,0,AccAcc,8,18,Woman,Right,
13,10,1,2.5164795000000595,['n'],0,left,['0'],1,0.3338283000002775,0.2,0,AccAcc,8,18,Woman,Right,
14,10,1,1.8831233000000793,['c'],0,right,['0'],1,0.43355320000000575,0.2,0,AccAcc,8,18,Woman,Right,
15,10,1,2.8161400000003596,['n'],1,right,['0'],1,0.483848300000318,0.1,0,AccAcc,8,18,Woman,Right,
16,10,1,1.749992900000052,['c'],1,left,['0'],1,0.5670979999999872,0.1,0,AccAcc,8,18,Woman,Right,
17,10,1,1.833418800000345,['n'],1,right,['9'],2,1.8672663000002103,0.4,0,AccAcc,8,18,Woman,Right,
18,10,1,1.1324620999998842,['c'],1,left,['9'],2,0.9338273999997,0.4,0,AccAcc,8,18,Woman,Right,
19,10,1,3.5831148999996003,['n'],0,left,['0'],1,0.6337587000002713,0.1,0,AccAcc,8,18,Woman,Right,
20,10,1,1.799303300000247,['n'],1,right,['9'],2,0.934162600000036,0.4,0,AccAcc,8,18,Woman,Right,
21,10,1,2.3331623999997646,['n'],1,right,['9'],2,1.2337765000002037,0.4,0,AccAcc,8,18,Woman,Right,
22,10,1,2.08235250000007,['n'],1,right,['9'],2,0.7338548000002447,0.4,0,AccAcc,8,18,Woman,Right,
23,10,1,1.0651154000001952,['n'],1,right,['8'],3,1.0507182999999714,0.1,0,AccAcc,8,18,Woman,Right,
24,10,1,2.266153300000042,['n'],0,left,['0'],1,1.3005844999997862,0.2,0,AccAcc,8,18,Woman,Right,
25,10,1,1.2995664000000033,['n'],0,left,['0'],1,0.884028699999817,0.2,0,AccAcc,8,18,Woman,Right,
26,10,1,1.0164064000000508,['n'],1,right,['9'],2,0.3504617999997208,0.2,0,AccAcc,8,18,Woman,Right,
27,10,1,1.0162123000000065,['n'],1,right,['9'],2,0.7171508999999787,0.1,0,AccAcc,8,18,Woman,Right,
28,10,1,1.4003207000000657,['n'],0,left,['9'],2,0.3838869999999588,0.2,0,AccAcc,8,18,Woman,Right,
29,10,1,1.7664202000000842,['n'],0,left,['9'],2,0.41715419999991354,0.2,0,AccAcc,8,18,Woman,Right,
30,10,1,1.1829946000002565,['n'],1,right,['9'],2,0.3170678000001317,0.2,0,AccAcc,8,18,Woman,Right,
31,10,1,1.0661823000000368,['n'],1,right,['9'],2,0.3505308000003424,0.1,0,AccAcc,8,18,Woman,Right,
32,10,1,2.1496391000000585,['n'],0,left,['9'],2,0.3334248999999545,0.1,0,AccAcc,8,18,Woman,Right,
33,10,1,1.1995428999998694,['n'],1,right,['9'],2,0.3173194999999396,0.1,0,AccAcc,8,18,Woman,Right,
34,10,1,1.5658619999999246,['n'],1,right,['9'],2,0.3672194999999192,0.2,0,AccAcc,8,18,Woman,Right,
35,10,1,1.5497362999999496,['c'],1,left,['3'],4,2.067372500000147,0.4,0,AccAcc,8,18,Woman,Right,
36,10,1,1.716396799999984,['n'],0,left,['0'],1,0.3837698000002092,0.2,0,AccAcc,8,18,Woman,Right,
37,10,1,2.0164843999996265,['n'],0,left,['0'],1,0.434117299999798,0.2,0,AccAcc,8,18,Woman,Right,
38,10,1,2.4321814999998423,['c'],1,left,['9'],2,1.5005808999999317,0.4,0,AccAcc,8,18,Woman,Right,
39,10,1,1.9497128000002704,['n'],0,left,['0'],1,0.6504992999998649,0.1,0,AccAcc,8,18,Woman,Right,
40,10,1,1.166448599999967,['n'],1,right,['0'],1,0.4004877000002125,0.4,0,AccAcc,8,18,Woman,Right,
41,10,1,1.0163855000000694,['c'],1,left,['9'],2,1.1670954000001075,0.1,0,AccAcc,8,18,Woman,Right,
42,10,1,0.9490406000004441,['n'],1,right,['9'],2,0.4838363000003483,0.2,0,AccAcc,8,18,Woman,Right,
43,10,1,2.4998372000000018,['n'],0,left,['0'],1,0.800404300000082,0.1,0,AccAcc,8,18,Woman,Right,
44,10,1,0.7329849000002469,['c'],1,left,['9'],2,1.1838416000000507,0.4,0,AccAcc,8,18,Woman,Right,
45,10,1,0.916132700000162,['n'],1,right,['0'],1,0.3338263000000552,0.1,0,AccAcc,8,18,Woman,Right,
46,10,1,0.833199500000319,['n'],1,right,['2'],5,0.9670127000003959,0.4,0,AccAcc,8,18,Woman,Right,
47,10,1,0.8160807000003842,['c'],1,left,['2'],5,0.40048449999994773,0.1,0,AccAcc,8,18,Woman,Right,
48,10,1,1.1158141000000796,['n'],1,right,['9'],2,0.7005595999999059,0.2,0,AccAcc,8,18,Woman,Right,
49,10,1,0.6331413999996585,['c'],1,left,['8'],3,1.5338935999998284,0.2,0,AccAcc,8,18,Woman,Right,
50,10,1,1.0495663000001514,['n'],1,right,['2'],5,0.4672546000001603,0.2,0,AccAcc,8,18,Woman,Right,
51,10,1,0.6161059999999452,['c'],1,left,['2'],5,0.4171472999996695,0.4,0,AccAcc,8,18,Woman,Right,
52,10,1,1.5663180000001375,['n'],1,right,['2'],5,0.5504876999998487,0.1,0,AccAcc,8,18,Woman,Right,
53,10,1,0.7668424999997114,['n'],1,right,['2'],5,0.9838220999999976,0.4,0,AccAcc,8,18,Woman,Right,
54,10,1,3.81700359999968,['n'],0,left,['0'],1,0.4671422999999777,0.2,0,AccAcc,8,18,Woman,Right,
55,10,1,2.0495418000000427,['n'],1,right,['9'],2,1.4008088000000498,0.2,0,AccAcc,8,18,Woman,Right,
56,10,1,2.9828894000002038,['c'],1,left,['0'],1,0.4670882000000347,0.1,0,AccAcc,8,18,Woman,Right,
57,10,1,3.1161001000000397,['c'],1,left,['0'],1,0.5671849999998813,0.4,0,AccAcc,8,18,Woman,Right,
58,10,1,1.4488956000000144,['n'],1,right,['2'],5,1.8007377999997516,0.4,0,AccAcc,8,18,Woman,Right,
59,10,1,0.9327325999997811,['n'],1,right,['2'],5,0.6337158999999701,0.4,0,AccAcc,8,18,Woman,Right,
0,11,1,0.8322673000002396,['c'],1,left,['2'],5,0.9505192000001443,0.4,0,FastAcc,8,18,Woman,Right,
1,11,1,0.54996089999986,['n'],1,right,['2'],5,0.8837610000000495,0.2,0,FastAcc,8,18,Woman,Right,
2,11,1,0.5495989999999438,['c'],1,left,['9'],2,1.2172262999997656,0.1,0,FastAcc,8,18,Woman,Right,
3,11,1,0.5999837000003936,['n'],1,right,['2'],5,0.8671289999997498,0.4,0,FastAcc,8,18,Woman,Right,
4,11,1,0.3828808999996909,['c'],1,left,['2'],5,0.8837444000000687,0.4,0,FastAcc,8,18,Woman,Right,
5,11,1,0.49998619999996663,['n'],1,right,['2'],5,1.3672397999998793,0.4,0,FastAcc,8,18,Woman,Right,
6,11,1,0.5832605000000513,['n'],1,right,['2'],5,0.6839340000001357,0.4,0,FastAcc,8,18,Woman,Right,
7,11,1,0.5827726000002258,['n'],1,right,['2'],5,0.5166239000000132,0.4,0,FastAcc,8,18,Woman,Right,
8,11,1,1.0333529999998063,['n'],0,left,['0'],1,0.9004829999998947,0.1,0,FastAcc,8,18,Woman,Right,
9,11,1,0.5997769000000517,['n'],0,left,['0'],1,1.0834469000001263,0.1,0,FastAcc,8,18,Woman,Right,
10,11,1,0.6995443999999225,['n'],0,left,['0'],1,0.567200800000137,0.1,0,FastAcc,8,18,Woman,Right,
11,11,1,0.666335600000366,['n'],1,right,['2'],5,1.6839217000001554,0.4,0,FastAcc,8,18,Woman,Right,
12,11,1,0.79952430000003,['n'],1,right,['9'],2,1.4337410999996791,0.4,0,FastAcc,8,18,Woman,Right,
13,11,1,0.5661923999996361,['n'],0,left,['0'],1,0.9338333999999122,0.2,0,FastAcc,8,18,Woman,Right,
14,11,1,0.6662115999997695,['n'],0,left,['0'],1,0.8170599999998558,0.2,0,FastAcc,8,18,Woman,Right,
15,11,1,0.9497589000002336,['n'],1,right,['2'],5,1.0338794000003872,0.1,0,FastAcc,8,18,Woman,Right,
16,11,1,0.6334768000001532,['n'],1,right,['2'],5,1.2004890000002888,0.2,0,FastAcc,8,18,Woman,Right,
17,11,1,0.5661878999999317,['c'],1,left,['2'],5,0.5006376000001183,0.4,0,FastAcc,8,18,Woman,Right,
18,11,1,0.7665841999996701,['c'],1,left,['2'],5,0.6671050999998442,0.4,0,FastAcc,8,18,Woman,Right,
19,11,1,0.616171900000154,['n'],1,right,['2'],5,0.9505947000002379,0.1,0,FastAcc,8,18,Woman,Right,
20,11,1,0.7329133000002912,['c'],1,left,['2'],5,0.6505432999997538,0.4,0,FastAcc,8,18,Woman,Right,
21,11,1,0.7997153999999682,['n'],1,right,['9'],2,0.8173148999999285,0.1,0,FastAcc,8,18,Woman,Right,
22,11,1,0.4997315999999046,['n'],1,right,['0'],1,1.3168762000000243,0.1,0,FastAcc,8,18,Woman,Right,
23,11,1,0.616459599999871,['c'],1,left,['2'],5,0.717273700000078,0.4,0,FastAcc,8,18,Woman,Right,
24,11,1,0.632944899999984,['c'],1,left,['2'],5,0.500579800000196,0.2,0,FastAcc,8,18,Woman,Right,
25,11,1,0.7329144999998789,['c'],0,right,['2'],5,0.43374500000027183,0.2,0,FastAcc,8,18,Woman,Right,
26,11,1,0.7830204000001686,['c'],1,left,['2'],5,0.5004966999999851,0.4,0,FastAcc,8,18,Woman,Right,
27,11,1,0.682946500000071,['c'],1,left,['3'],4,0.717188200000237,0.4,0,FastAcc,8,18,Woman,Right,
28,11,1,1.166260400000283,['c'],0,right,['3'],4,1.9165868000000046,0.2,0,FastAcc,8,18,Woman,Right,
29,11,1,0.7162930000004053,['c'],1,left,['3'],4,1.0003553000001375,0.2,0,FastAcc,8,18,Woman,Right,
30,11,1,1.2667587999999341,['c'],0,right,['2'],5,0.6168738000001213,0.1,0,FastAcc,8,18,Woman,Right,
31,11,1,0.5329712999996445,['c'],0,right,['2'],5,0.9169474999998783,0.1,0,FastAcc,8,18,Woman,Right,
32,11,1,0.6830958000000464,['c'],0,right,['9'],2,0.7006051999996998,0.1,0,FastAcc,8,18,Woman,Right,
33,11,1,0.5988922999999886,['c'],0,right,['9'],2,0.35059899999987465,0.1,0,FastAcc,8,18,Woman,Right,
34,11,1,0.6829806000000644,['c'],0,right,['9'],2,0.6838428000000931,0.2,0,FastAcc,8,18,Woman,Right,
35,11,1,0.5327824000000874,['c'],0,right,['0'],1,1.7173698000001423,0.2,0,FastAcc,8,18,Woman,Right,
36,11,1,0.8330983999999262,['c'],0,right,['0'],1,1.317138200000045,0.1,0,FastAcc,8,18,Woman,Right,
37,11,1,0.5985906999999315,['c'],0,right,['9'],2,0.8839076999997815,0.1,0,FastAcc,8,18,Woman,Right,
38,11,1,0.6496569999999338,['c'],0,right,['9'],2,1.317214100000001,0.4,0,FastAcc,8,18,Woman,Right,
39,11,1,0.6162452999997186,['c'],1,left,['2'],5,0.7670822999998563,0.4,0,FastAcc,8,18,Woman,Right,
40,11,1,0.9665638000001309,['c'],0,right,['0'],1,0.950576600000204,0.4,0,FastAcc,8,18,Woman,Right,
41,11,1,0.6328032000001258,['c'],1,left,['2'],5,1.033790499999668,0.2,0,FastAcc,8,18,Woman,Right,
42,11,1,1.0664621999999326,['c'],0,right,['0'],1,0.7668608999997559,0.2,0,FastAcc,8,18,Woman,Right,
43,11,1,0.5829500999998345,['c'],1,left,['2'],5,0.7337750000001506,0.1,0,FastAcc,8,18,Woman,Right,
44,11,1,0.8329207000001588,['c'],1,left,['9'],2,1.1505436000002192,0.1,0,FastAcc,8,18,Woman,Right,
45,11,1,0.5156512000003204,['c'],1,left,['3'],4,1.3176376999999775,0.2,0,FastAcc,8,18,Woman,Right,
46,11,1,0.8661730000003445,['n'],1,right,['0'],1,0.4670862000002671,0.4,0,FastAcc,8,18,Woman,Right,
47,11,1,1.7327273999999306,['n'],1,right,['0'],1,0.6338307999999415,0.2,0,FastAcc,8,18,Woman,Right,
48,11,1,0.6829981999999291,['n'],0,left,['0'],1,1.150271800000155,0.1,0,FastAcc,8,18,Woman,Right,
49,11,1,0.5334909000002881,['c'],1,left,['2'],5,0.5504252000000633,0.2,0,FastAcc,8,18,Woman,Right,
50,11,1,0.6169846000002508,['c'],1,left,['3'],4,0.9005753000001278,0.2,0,FastAcc,8,18,Woman,Right,
51,11,1,0.8661259999998947,['c'],1,left,['2'],5,0.4005192999998144,0.1,0,FastAcc,8,18,Woman,Right,
52,11,1,0.7330108999999538,['n'],1,right,['9'],2,0.9004970000000867,0.4,0,FastAcc,8,18,Woman,Right,
53,11,1,1.8664143000000877,['c'],0,right,['3'],4,0.9170893999998952,0.2,0,FastAcc,8,18,Woman,Right,
54,11,1,0.49971289999984947,['c'],1,left,['2'],5,0.5838578999996571,0.1,0,FastAcc,8,18,Woman,Right,
55,11,1,0.4829979999999523,['c'],1,left,['2'],5,0.6172034000001076,0.1,0,FastAcc,8,18,Woman,Right,
56,11,1,0.5662631000000147,['c'],1,left,['3'],4,1.0005418000000645,0.2,0,FastAcc,8,18,Woman,Right,
57,11,1,0.5664984000000004,['c'],1,left,['2'],5,0.6339520000001357,0.4,0,FastAcc,8,18,Woman,Right,
58,11,1,0.6821853000001283,['n'],1,right,['0'],1,1.4338746999997056,0.2,0,FastAcc,8,18,Woman,Right,
59,11,1,0.649542399999973,['c'],1,left,['2'],5,0.6339609000001474,0.2,0,FastAcc,8,18,Woman,Right,
0,12,1,0.5495307999999568,['c'],1,left,['2'],5,0.5837725999999748,0.2,0,FastFast,8,18,Woman,Right,
1,12,1,0.6495936000001166,['c'],0,right,['2'],5,0.45074509999994916,0.1,0,FastFast,8,18,Woman,Right,
2,12,1,0.6663752999997996,['c'],1,left,['9'],2,0.983934699999736,0.2,0,FastFast,8,18,Woman,Right,
3,12,1,0.6159183999998277,['n'],1,right,['0'],1,0.650853300000108,0.4,0,FastFast,8,18,Woman,Right,
4,12,1,0.8828080000002956,['n'],1,right,['0'],1,0.5838623999998163,0.2,0,FastFast,8,18,Woman,Right,
5,12,1,0.6164272999999412,['c'],1,left,['2'],5,0.45050439999977243,0.1,0,FastFast,8,18,Woman,Right,
6,12,1,0.6994878999998946,['n'],1,right,['0'],1,0.4338425000000825,0.4,0,FastFast,8,18,Woman,Right,
7,12,1,0.5996162999999797,['n'],1,right,['0'],1,0.3837558000000172,0.1,0,FastFast,8,18,Woman,Right,
8,12,1,0.6503177000004143,['n'],1,right,['0'],1,0.4337832999999591,0.2,0,FastFast,8,18,Woman,Right,
9,12,1,0.4830713999999716,['c'],1,left,['3'],4,0.5834911000001739,0.1,0,FastFast,8,18,Woman,Right,
10,12,1,0.7338466999999582,['c'],0,right,['0'],1,0.3338803999999982,0.2,0,FastFast,8,18,Woman,Right,
11,12,1,0.5834479000000101,['n'],1,right,['0'],1,0.3507493999995859,0.2,0,FastFast,8,18,Woman,Right,
12,12,1,0.6486420999999609,['n'],1,right,['9'],2,0.5005820000001222,0.1,0,FastFast,8,18,Woman,Right,
13,12,1,0.5826159999996889,['n'],1,right,['0'],1,0.45063759999993636,0.2,0,FastFast,8,18,Woman,Right,
14,12,1,0.5994737999999415,['c'],1,left,['2'],5,0.36716389999992316,0.4,0,FastFast,8,18,Woman,Right,
15,12,1,0.6828316999999515,['n'],1,right,['9'],2,0.3673047000002043,0.2,0,FastFast,8,18,Woman,Right,
16,12,1,0.8831613000002108,['c'],1,left,['0'],1,0.350382399999944,0.1,0,FastFast,8,18,Woman,Right,
17,12,1,0.4826978999999483,['n'],0,left,['0'],1,0.5005737999999837,0.1,0,FastFast,8,18,Woman,Right,
18,12,1,0.5163617999996859,['c'],1,left,['2'],5,0.8338215999997374,0.4,0,FastFast,8,18,Woman,Right,
19,12,1,0.5654645999998138,['n'],0,left,['0'],1,0.40044310000030237,0.2,0,FastFast,8,18,Woman,Right,
20,12,1,0.5665238999999929,['c'],1,left,['2'],5,0.6672106999999414,0.4,0,FastFast,8,18,Woman,Right,
21,12,1,0.6998207999999977,['n'],1,right,['0'],1,0.3673051000000669,0.2,0,FastFast,8,18,Woman,Right,
22,12,1,0.5159247999999934,['c'],1,left,['2'],5,0.400677000000087,0.1,0,FastFast,8,18,Woman,Right,
23,12,1,0.5826332999999977,['c'],1,left,['0'],1,0.43358409999973446,0.2,0,FastFast,8,18,Woman,Right,
24,12,1,0.8328378000001067,['n'],1,right,['0'],1,0.8173286999999618,0.1,0,FastFast,8,18,Woman,Right,
25,12,1,0.9995805999997174,['c'],0,right,['9'],2,0.350537699999677,0.4,0,FastFast,8,18,Woman,Right,
26,12,1,0.8832042999997611,['c'],1,left,['9'],2,1.0505198000000746,0.1,0,FastFast,8,18,Woman,Right,
27,12,1,0.5343510000002425,['c'],0,right,['2'],5,0.667196899999908,0.2,0,FastFast,8,18,Woman,Right,
28,12,1,2.1826993999998194,['n'],1,right,['0'],1,0.3336856999999327,0.2,0,FastFast,8,18,Woman,Right,
29,12,1,0.5663353999998435,['c'],1,left,['2'],5,0.5670367000002443,0.4,0,FastFast,8,18,Woman,Right,
30,12,1,0.4325103000001036,['c'],1,left,['2'],5,0.3502881999997953,0.4,0,FastFast,8,18,Woman,Right,
31,12,1,0.5001712000002954,['c'],1,left,['2'],5,0.31710949999978766,0.4,0,FastFast,8,18,Woman,Right,
32,12,1,0.4989764000001742,['c'],1,left,['2'],5,0.3504979999997886,0.4,0,FastFast,8,18,Woman,Right,
33,12,1,0.5159057000000757,['c'],1,left,['2'],5,0.3837679000002936,0.4,0,FastFast,8,18,Woman,Right,
34,12,1,1.0498551000000589,['n'],1,right,['2'],5,0.8671348000002581,0.4,0,FastFast,8,18,Woman,Right,
35,12,1,0.4663064999999733,['c'],1,left,['2'],5,0.31715540000004694,0.4,0,FastFast,8,18,Woman,Right,
36,12,1,0.4158521999997902,['n'],1,right,['2'],5,1.0838453999999729,0.1,0,FastFast,8,18,Woman,Right,
37,12,1,0.5988950000000841,['n'],1,right,['0'],1,0.5503737999997611,0.1,0,FastFast,8,18,Woman,Right,
38,12,1,0.5991498000003048,['c'],1,left,['2'],5,0.4837035000000469,0.1,0,FastFast,8,18,Woman,Right,
39,12,1,0.4497378999999455,['n'],1,right,['2'],5,1.1171445999998468,0.4,0,FastFast,8,18,Woman,Right,
40,12,1,1.1822378000001663,['n'],0,left,['0'],1,0.30060679999996864,0.1,0,FastFast,8,18,Woman,Right,
41,12,1,0.7159434999998666,['c'],1,left,['0'],1,0.4337417000001551,0.2,0,FastFast,8,18,Woman,Right,
42,12,1,0.6660931000001256,['n'],1,right,['0'],1,0.4338497000003372,0.1,0,FastFast,8,18,Woman,Right,
43,12,1,0.7986276000001453,['c'],1,left,['0'],1,0.3838666999999987,0.1,0,FastFast,8,18,Woman,Right,
44,12,1,0.5997738000000936,['c'],1,left,['0'],1,0.41714009999986956,0.4,0,FastFast,8,18,Woman,Right,
45,12,1,0.5663679999997839,['c'],1,left,['0'],1,0.4004858000002969,0.4,0,FastFast,8,18,Woman,Right,
46,12,1,0.6661917999999787,['n'],1,right,['2'],5,0.43384000000014566,0.4,0,FastFast,8,18,Woman,Right,
47,12,1,0.5152941999999712,['c'],1,left,['2'],5,0.35062340000013137,0.4,0,FastFast,8,18,Woman,Right,
48,12,1,0.5165161999998418,['n'],1,right,['2'],5,0.2171453000000838,0.2,0,FastFast,8,18,Woman,Right,
49,12,1,0.6824069000003874,['n'],1,right,['2'],5,0.2504816999999093,0.4,0,FastFast,8,18,Woman,Right,
50,12,1,0.748683699999674,['n'],1,right,['2'],5,0.2999949000000015,0.4,0,FastFast,8,18,Woman,Right,
51,12,1,0.5494831999999406,['n'],1,right,['3'],4,0.2506616999999096,0.1,0,FastFast,8,18,Woman,Right,
52,12,1,1.3327233999998498,['n'],0,left,['0'],1,0.3004746999999952,0.2,0,FastFast,8,18,Woman,Right,
53,12,1,0.5663329000003614,['n'],1,right,['2'],5,0.6332397000001038,0.2,0,FastFast,8,18,Woman,Right,
54,12,1,0.815709799999695,['n'],0,left,['0'],1,0.30055339999989883,0.2,0,FastFast,8,18,Woman,Right,
55,12,1,0.532993499999975,['n'],1,right,['2'],5,0.7170104000001629,0.2,0,FastFast,8,18,Woman,Right,
56,12,1,0.7164256000000933,['n'],0,left,['0'],1,0.36714819999997417,0.1,0,FastFast,8,18,Woman,Right,
57,12,1,0.965998799999852,['n'],0,left,['0'],1,0.3170658999997613,0.1,0,FastFast,8,18,Woman,Right,
58,12,1,0.8002375000000939,['n'],1,right,['9'],2,0.6504788000002009,0.1,0,FastFast,8,18,Woman,Right,
59,12,1,1.0987168000001475,['n'],1,right,['0'],1,0.3838564000002407,0.2,0,FastFast,8,18,Woman,Right,
0,13,1,2.2322784000002684,['n'],1,right,['9'],2,0.8672829000001911,0.2,0,AccFast,8,18,Woman,Right,
1,13,1,1.9161143999999695,['c'],0,right,['0'],1,0.31716740000001664,0.1,0,AccFast,8,18,Woman,Right,
2,13,1,2.4827580999999554,['c'],1,left,['9'],2,0.6340319000000818,0.2,0,AccFast,8,18,Woman,Right,
3,13,1,0.765827900000204,['c'],1,left,['0'],1,1.0505036999998083,0.4,0,AccFast,8,18,Woman,Right,
4,13,1,0.966664000000037,['n'],1,right,['9'],2,0.6671793000000434,0.2,0,AccFast,8,18,Woman,Right,
5,13,1,1.0988271000001077,['n'],1,right,['2'],5,0.4336625999999342,0.4,0,AccFast,8,18,Woman,Right,
6,13,1,1.2162069999999403,['n'],1,right,['9'],2,0.6672006999997393,0.4,0,AccFast,8,18,Woman,Right,
7,13,1,0.9502595999997538,['c'],1,left,['2'],5,0.38411009999981616,0.4,0,AccFast,8,18,Woman,Right,
8,13,1,0.7160064999998212,['c'],1,left,['2'],5,0.8006351999997605,0.4,0,AccFast,8,18,Woman,Right,
9,13,1,1.2503491000002214,['c'],1,left,['2'],5,0.7506774999997106,0.4,0,AccFast,8,18,Woman,Right,
10,13,1,1.099485100000038,['n'],1,right,['9'],2,0.4506365000002006,0.2,0,AccFast,8,18,Woman,Right,
11,13,1,0.9664075999999113,['c'],1,left,['2'],5,0.4504848999999922,0.2,0,AccFast,8,18,Woman,Right,
12,13,1,1.200201599999673,['n'],1,right,['2'],5,0.2337737000002562,0.1,0,AccFast,8,18,Woman,Right,
13,13,1,2.6494645000002492,['c'],1,left,['0'],1,0.5674027000000024,0.1,0,AccFast,8,18,Woman,Right,
14,13,1,1.3496731000000182,['n'],1,right,['0'],1,0.8004793999998583,0.2,0,AccFast,8,18,Woman,Right,
15,13,1,1.4993669999998929,['n'],0,left,['9'],2,0.3172378000003846,0.2,0,AccFast,8,18,Woman,Right,
16,13,1,1.9333610000003318,['c'],1,left,['9'],2,0.8839075000000776,0.4,0,AccFast,8,18,Woman,Right,
17,13,1,2.1500552000002244,['n'],1,right,['0'],1,0.5838462000001527,0.2,0,AccFast,8,18,Woman,Right,
18,13,1,1.432237299999997,['n'],1,right,['9'],2,0.7005687999999282,0.2,0,AccFast,8,18,Woman,Right,
19,13,1,1.7331958999998278,['n'],1,right,['0'],1,0.5339273999998113,0.2,0,AccFast,8,18,Woman,Right,
20,13,1,1.0654505999996218,['n'],1,right,['9'],2,1.817269000000124,0.1,0,AccFast,8,18,Woman,Right,
21,13,1,2.4828269000004184,['n'],1,right,['0'],1,0.6500670000000355,0.4,0,AccFast,8,18,Woman,Right,
22,13,1,1.46655120000014,['n'],1,right,['0'],1,0.5004228000002513,0.4,0,AccFast,8,18,Woman,Right,
23,13,1,1.299740500000098,['c'],1,left,['2'],5,0.5841805999998542,0.4,0,AccFast,8,18,Woman,Right,
24,13,1,1.633096999999907,['n'],0,left,['0'],1,0.45051180000018576,0.1,0,AccFast,8,18,Woman,Right,
25,13,1,1.4150371999999152,['n'],0,left,['0'],1,0.4337623999999778,0.4,0,AccFast,8,18,Woman,Right,
26,13,1,1.2502466999999342,['n'],0,left,['0'],1,0.4503856999999698,0.2,0,AccFast,8,18,Woman,Right,
27,13,1,1.4153378999999404,['n'],0,left,['0'],1,0.3837381000003006,0.1,0,AccFast,8,18,Woman,Right,
28,13,1,1.4485640000002604,['n'],1,right,['0'],1,0.4337123000000247,0.4,0,AccFast,8,18,Woman,Right,
29,13,1,0.9660578999996687,['c'],1,left,['2'],5,1.3507808000003934,0.4,0,AccFast,8,18,Woman,Right,
30,13,1,0.9324209999999766,['n'],0,left,['2'],5,1.5505259000001388,0.1,0,AccFast,8,18,Woman,Right,
31,13,1,0.7163339000003361,['n'],1,right,['2'],5,0.31686460000037187,0.2,0,AccFast,8,18,Woman,Right,
32,13,1,0.6662141000001611,['n'],1,right,['2'],5,0.3505163999998331,0.4,0,AccFast,8,18,Woman,Right,
33,13,1,1.799403600000005,['n'],0,left,['0'],1,0.283856200000173,0.2,0,AccFast,8,18,Woman,Right,
34,13,1,1.4672497999999905,['c'],0,right,['9'],2,0.9005097999997815,0.1,0,AccFast,8,18,Woman,Right,
35,13,1,2.0833730000003925,['n'],0,left,['0'],1,0.4836912000000666,0.2,0,AccFast,8,18,Woman,Right,
36,13,1,0.9495902000003298,['n'],1,right,['2'],5,0.7004015000002255,0.1,0,AccFast,8,18,Woman,Right,
37,13,1,0.7503538999999364,['n'],1,right,['9'],2,0.417061300000114,0.1,0,AccFast,8,18,Woman,Right,
38,13,1,1.1827891000002637,['c'],1,left,['0'],1,0.7172269000002416,0.1,0,AccFast,8,18,Woman,Right,
39,13,1,1.1326693999999407,['n'],1,right,['9'],2,0.46737020000000484,0.1,0,AccFast,8,18,Woman,Right,
40,13,1,0.6327822999996897,['n'],0,left,['9'],2,0.36715490000005957,0.1,0,AccFast,8,18,Woman,Right,
41,13,1,0.8329256000001806,['n'],1,right,['2'],5,1.0837468999998237,0.1,0,AccFast,8,18,Woman,Right,
42,13,1,0.7498084999997445,['n'],1,right,['9'],2,0.4671690000000126,0.2,0,AccFast,8,18,Woman,Right,
43,13,1,0.782302399999935,['n'],0,left,['0'],1,0.6333330000002206,0.1,0,AccFast,8,18,Woman,Right,
44,13,1,0.8495173000001159,['n'],1,right,['2'],5,0.41723529999990205,0.1,0,AccFast,8,18,Woman,Right,
45,13,1,1.3328369000000748,['c'],1,left,['9'],2,0.5504774999999427,0.2,0,AccFast,8,18,Woman,Right,
46,13,1,0.9495038000000022,['n'],0,left,['0'],1,0.3338464000003114,0.2,0,AccFast,8,18,Woman,Right,
47,13,1,1.098479700000098,['n'],1,right,['9'],2,0.3005693000000065,0.4,0,AccFast,8,18,Woman,Right,
48,13,1,1.1834990000002108,['c'],1,left,['9'],2,0.31718129999990197,0.2,0,AccFast,8,18,Woman,Right,
49,13,1,1.948393699999997,['c'],1,left,['0'],1,0.2838087000000087,0.4,0,AccFast,8,18,Woman,Right,
50,13,1,1.1496673999999985,['c'],1,left,['2'],5,0.2672352999998111,0.1,0,AccFast,8,18,Woman,Right,
51,13,1,1.7334986999999273,['n'],1,right,['2'],5,0.2171619999999166,0.1,0,AccFast,8,18,Woman,Right,
52,13,1,1.7667458999999326,['c'],1,left,['2'],5,0.26719050000019706,0.1,0,AccFast,8,18,Woman,Right,
53,13,1,0.5663377000000764,['n'],1,right,['2'],5,0.5504212000000734,0.4,0,AccFast,8,18,Woman,Right,
54,13,1,0.8005886999999348,['n'],1,right,['0'],1,0.36720119999972667,0.4,0,AccFast,8,18,Woman,Right,
55,13,1,1.3498199999999088,['c'],1,left,['2'],5,0.31719669999984035,0.2,0,AccFast,8,18,Woman,Right,
56,13,1,0.833745700000236,['n'],1,right,['0'],1,0.317083299999922,0.4,0,AccFast,8,18,Woman,Right,
57,13,1,0.8329489000002468,['n'],1,right,['2'],5,0.9004909999998745,0.4,0,AccFast,8,18,Woman,Right,
58,13,1,2.1493819000002077,['c'],1,left,['0'],1,0.31689049999977215,0.2,0,AccFast,8,18,Woman,Right,
59,13,1,1.4329960000000028,['n'],0,left,['0'],1,0.5338222000000314,0.1,0,AccFast,8,18,Woman,Right,
0,14,1,2.0492356999998265,['n'],1,right,['0'],1,1.1338479000000916,0.1,0,AccAcc,8,18,Woman,Right,
1,14,1,1.1494956999999886,['n'],0,left,['0'],1,0.6674682000002576,0.1,0,AccAcc,8,18,Woman,Right,
2,14,1,1.5816031000003932,['n'],1,right,['0'],1,0.43389079999997193,0.4,0,AccAcc,8,18,Woman,Right,
3,14,1,1.0673956000000544,['c'],1,left,['9'],2,0.6834978000001684,0.1,0,AccAcc,8,18,Woman,Right,
4,14,1,0.5327621000001272,['n'],1,right,['2'],5,0.5671799000001556,0.4,0,AccAcc,8,18,Woman,Right,
5,14,1,1.51671720000013,['n'],1,right,['0'],1,1.2003686000002745,0.2,0,AccAcc,8,18,Woman,Right,
6,14,1,1.1503794999998718,['n'],1,right,['0'],1,0.3502941000001556,0.1,0,AccAcc,8,18,Woman,Right,
7,14,1,0.9166960000002291,['n'],1,right,['2'],5,0.4506350999999995,0.4,0,AccAcc,8,18,Woman,Right,
8,14,1,1.74919060000002,['c'],1,left,['9'],2,0.8839579000000413,0.4,0,AccAcc,8,18,Woman,Right,
9,14,1,0.8666048999998566,['c'],1,left,['9'],2,0.35058539999999994,0.2,0,AccAcc,8,18,Woman,Right,
10,14,1,1.1341059000001223,['c'],1,left,['9'],2,0.5505170999999791,0.2,0,AccAcc,8,18,Woman,Right,
11,14,1,0.9167564999997921,['c'],0,right,['2'],5,0.5004051999999319,0.1,0,AccAcc,8,18,Woman,Right,
12,14,1,0.9502126000002136,['c'],0,right,['0'],1,0.40036670000017693,0.1,0,AccAcc,8,18,Woman,Right,
13,14,1,0.8162908999997853,['c'],1,left,['2'],5,0.9669066999999814,0.4,0,AccAcc,8,18,Woman,Right,
14,14,1,1.183600099999694,['c'],1,left,['9'],2,0.5838644999998905,0.1,0,AccAcc,8,18,Woman,Right,
15,14,1,1.5335429000001568,['c'],0,right,['0'],1,0.48374790000025314,0.2,0,AccAcc,8,18,Woman,Right,
16,14,1,1.683630699999867,['c'],0,right,['2'],5,0.4836880999996538,0.1,0,AccAcc,8,18,Woman,Right,
17,14,1,1.0331804000002194,['n'],1,right,['2'],5,1.5670264000000316,0.4,0,AccAcc,8,18,Woman,Right,
18,14,1,1.098852199999783,['c'],1,left,['2'],5,0.8505831000002217,0.4,0,AccAcc,8,18,Woman,Right,
19,14,1,1.5162925999998151,['c'],1,left,['9'],2,0.9335177000002659,0.2,0,AccAcc,8,18,Woman,Right,
20,14,1,1.3828505000001314,['c'],1,left,['2'],5,0.4838408000000527,0.1,0,AccAcc,8,18,Woman,Right,
21,14,1,1.0827665000001616,['c'],1,left,['0'],1,1.0167595999996593,0.4,0,AccAcc,8,18,Woman,Right,
22,14,1,1.5664721000002828,['c'],0,right,['0'],1,0.5505898999999772,0.2,0,AccAcc,8,18,Woman,Right,
23,14,1,0.7998280000001614,['c'],1,left,['2'],5,0.567130299999917,0.4,0,AccAcc,8,18,Woman,Right,
24,14,1,0.9494026999996095,['c'],0,right,['0'],1,0.38388209999993705,0.1,0,AccAcc,8,18,Woman,Right,
25,14,1,0.9499480999998013,['c'],1,left,['9'],2,0.43378549999988536,0.4,0,AccAcc,8,18,Woman,Right,
26,14,1,1.0662449000001288,['c'],1,left,['9'],2,0.5671400999999605,0.2,0,AccAcc,8,18,Woman,Right,
27,14,1,1.249718899999607,['c'],0,right,['0'],1,0.9004785000001903,0.1,0,AccAcc,8,18,Woman,Right,
28,14,1,1.2164173000001028,['c'],1,left,['8'],3,0.3507582000002003,0.2,0,AccAcc,8,18,Woman,Right,
29,14,1,1.0494380000000092,['c'],1,left,['8'],3,0.6335210000002007,0.1,0,AccAcc,8,18,Woman,Right,
30,14,1,1.3996691000002102,['c'],1,left,['9'],2,0.33369200000015553,0.2,0,AccAcc,8,18,Woman,Right,
31,14,1,1.9002610000002278,['c'],0,right,['0'],1,1.0505625000000691,0.4,0,AccAcc,8,18,Woman,Right,
32,14,1,1.5003829000002042,['n'],1,right,['0'],1,0.7672393000002558,0.2,0,AccAcc,8,18,Woman,Right,
33,14,1,0.8164370999998027,['c'],1,left,['2'],5,0.6337363999996342,0.2,0,AccAcc,8,18,Woman,Right,
34,14,1,0.7324030000004313,['n'],1,right,['2'],5,0.6170978999998624,0.4,0,AccAcc,8,18,Woman,Right,
35,14,1,0.9661554999997861,['c'],1,left,['2'],5,0.6172103999997489,0.2,0,AccAcc,8,18,Woman,Right,
36,14,1,0.899769500000275,['n'],1,right,['2'],5,0.41706840000006196,0.4,0,AccAcc,8,18,Woman,Right,
37,14,1,2.316230599999926,['c'],1,left,['0'],1,0.46698639999976876,0.2,0,AccAcc,8,18,Woman,Right,
38,14,1,1.5831975999999486,['c'],1,left,['3'],4,0.5836534999998548,0.4,0,AccAcc,8,18,Woman,Right,
39,14,1,1.0994611999999506,['n'],1,right,['9'],2,1.1503841999997348,0.1,0,AccAcc,8,18,Woman,Right,
40,14,1,1.4003088999998,['c'],1,left,['0'],1,1.067211099999895,0.2,0,AccAcc,8,18,Woman,Right,
41,14,1,0.9829540000000634,['c'],0,right,['0'],1,0.5338723999998365,0.1,0,AccAcc,8,18,Woman,Right,
42,14,1,0.8331159999997908,['c'],1,left,['9'],2,0.46704230000023017,0.1,0,AccAcc,8,18,Woman,Right,
43,14,1,0.7998259000000871,['c'],1,left,['9'],2,0.5004198000001452,0.1,0,AccAcc,8,18,Woman,Right,
44,14,1,0.8164859000003162,['c'],0,right,['9'],2,0.350584699999672,0.1,0,AccAcc,8,18,Woman,Right,
45,14,1,0.6987679000003482,['c'],0,right,['8'],3,1.633899399999791,0.2,0,AccAcc,8,18,Woman,Right,
46,14,1,1.2164075999999113,['c'],1,left,['2'],5,0.3505745000002207,0.2,0,AccAcc,8,18,Woman,Right,
47,14,1,0.7333980999997038,['n'],1,right,['9'],2,0.4172678999998425,0.4,0,AccAcc,8,18,Woman,Right,
48,14,1,1.7830607999999302,['n'],1,right,['0'],1,0.3502831000000697,0.4,0,AccAcc,8,18,Woman,Right,
49,14,1,0.9490858000003755,['c'],1,left,['2'],5,0.5674995999997918,0.4,0,AccAcc,8,18,Woman,Right,
50,14,1,1.5498181999996632,['c'],1,left,['0'],1,0.4837505999998939,0.1,0,AccAcc,8,18,Woman,Right,
51,14,1,1.033442599999944,['c'],1,left,['0'],1,0.6503278000000137,0.2,0,AccAcc,8,18,Woman,Right,
52,14,1,1.0325127999999495,['c'],0,right,['0'],1,0.38387609999972483,0.4,0,AccAcc,8,18,Woman,Right,
53,14,1,0.8000225000000682,['c'],1,left,['9'],2,0.5506970999999794,0.4,0,AccAcc,8,18,Woman,Right,
54,14,1,0.8499001000000135,['c'],0,right,['0'],1,0.5004363000002741,0.4,0,AccAcc,8,18,Woman,Right,
55,14,1,1.1500519000001077,['c'],0,right,['2'],5,0.33356810000032056,0.1,0,AccAcc,8,18,Woman,Right,
56,14,1,1.2328355999998166,['c'],0,right,['9'],2,0.5004734999997709,0.2,0,AccAcc,8,18,Woman,Right,
57,14,1,1.2663823999996566,['c'],1,left,['0'],1,0.38396400000010544,0.1,0,AccAcc,8,18,Woman,Right,
58,14,1,1.3330458999998882,['c'],0,right,['2'],5,0.8004197000000204,0.2,0,AccAcc,8,18,Woman,Right,
59,14,1,1.3330200000000332,['c'],0,right,['0'],1,0.6339038000000983,0.2,0,AccAcc,8,18,Woman,Right,
0,15,1,0.5333294000001843,['c'],0,right,['2'],5,1.3006343999995806,0.1,0,FastAcc,8,18,Woman,Right,
1,15,1,0.6327581000000464,['c'],0,right,['9'],2,1.0836573000001408,0.1,0,FastAcc,8,18,Woman,Right,
2,15,1,0.7329453000002104,['c'],0,right,['0'],1,0.60053280000011,0.4,0,FastAcc,8,18,Woman,Right,
3,15,1,0.6162229999999909,['c'],1,left,['2'],5,0.6004892999999356,0.2,0,FastAcc,8,18,Woman,Right,
4,15,1,0.6495273000000452,['c'],1,left,['2'],5,0.6338080000000446,0.4,0,FastAcc,8,18,Woman,Right,
5,15,1,0.650202100000115,['c'],0,right,['2'],5,0.6504642999998396,0.2,0,FastAcc,8,18,Woman,Right,
6,15,1,0.6495924999999261,['c'],1,left,['3'],4,2.184530200000154,0.4,0,FastAcc,8,18,Woman,Right,
7,15,1,0.632869899999605,['n'],1,right,['2'],5,0.6338619999996808,0.4,0,FastAcc,8,18,Woman,Right,
8,15,1,0.6986560000000281,['n'],1,right,['0'],1,0.8338336000001618,0.2,0,FastAcc,8,18,Woman,Right,
9,15,1,0.8496408999999403,['n'],1,right,['3'],4,1.2503553000001375,0.1,0,FastAcc,8,18,Woman,Right,
10,15,1,0.6004213000001073,['n'],1,right,['2'],5,1.0167315000003327,0.1,0,FastAcc,8,18,Woman,Right,
11,15,1,0.6830362999999124,['c'],1,left,['2'],5,0.4339241999996375,0.2,0,FastAcc,8,18,Woman,Right,
12,15,1,1.366172799999731,['n'],1,right,['9'],2,0.6336955000001581,0.1,0,FastAcc,8,18,Woman,Right,
13,15,1,0.7996422000001076,['c'],0,right,['2'],5,0.4337777000000642,0.1,0,FastAcc,8,18,Woman,Right,
14,15,1,0.6490860999997494,['c'],1,left,['2'],5,0.4338772000000972,0.2,0,FastAcc,8,18,Woman,Right,
15,15,1,0.666612399999849,['n'],1,right,['9'],2,0.5671931000001678,0.2,0,FastAcc,8,18,Woman,Right,
16,15,1,0.6662263000002895,['c'],1,left,['2'],5,0.6172962999999072,0.4,0,FastAcc,8,18,Woman,Right,
17,15,1,0.5826827999999296,['c'],1,left,['2'],5,0.5168817999997373,0.4,0,FastAcc,8,18,Woman,Right,
18,15,1,0.466308300000037,['n'],1,right,['2'],5,0.48378450000018347,0.2,0,FastAcc,8,18,Woman,Right,
19,15,1,0.632868099999996,['c'],1,left,['3'],4,0.9505071000003227,0.4,0,FastAcc,8,18,Woman,Right,
20,15,1,0.6333472999999685,['c'],1,left,['2'],5,0.9838462999996409,0.1,0,FastAcc,8,18,Woman,Right,
21,15,1,0.6995357000000695,['c'],1,left,['9'],2,0.7004569000000629,0.1,0,FastAcc,8,18,Woman,Right,
22,15,1,0.8000047999998969,['c'],1,left,['2'],5,0.5338416999998117,0.4,0,FastAcc,8,18,Woman,Right,
23,15,1,0.8997644000000946,['c'],0,right,['9'],2,0.5164582000002156,0.4,0,FastAcc,8,18,Woman,Right,
24,15,1,0.7661416999999346,['c'],0,right,['9'],2,0.4671640000001389,0.4,0,FastAcc,8,18,Woman,Right,
25,15,1,0.4164474999997765,['c'],0,right,['0'],1,1.0339202000000114,0.2,0,FastAcc,8,18,Woman,Right,
26,15,1,0.6330414999997629,['c'],1,left,['3'],4,0.9669616000001042,0.4,0,FastAcc,8,18,Woman,Right,
27,15,1,0.8331167999999707,['n'],0,left,['2'],5,0.6337326000002577,0.2,0,FastAcc,8,18,Woman,Right,
28,15,1,0.8177771000000575,['n'],1,right,['9'],2,1.0507173999999395,0.1,0,FastAcc,8,18,Woman,Right,
29,15,1,1.3000244999998358,['n'],0,left,['0'],1,0.5671496999998453,0.1,0,FastAcc,8,18,Woman,Right,
30,15,1,0.8837533999999323,['c'],1,left,['0'],1,0.4005322999996679,0.4,0,FastAcc,8,18,Woman,Right,
31,15,1,1.2493484999999964,['c'],1,left,['0'],1,0.4005824000000757,0.2,0,FastAcc,8,18,Woman,Right,
32,15,1,1.350100999999995,['n'],0,left,['0'],1,0.6674565000002985,0.4,0,FastAcc,8,18,Woman,Right,
33,15,1,0.7999666000000616,['n'],1,right,['9'],2,0.517038599999978,0.2,0,FastAcc,8,18,Woman,Right,
34,15,1,0.816247199999907,['n'],1,right,['2'],5,0.8837349999998878,0.4,0,FastAcc,8,18,Woman,Right,
35,15,1,1.6494634999999107,['n'],1,right,['0'],1,0.3172655000003033,0.2,0,FastAcc,8,18,Woman,Right,
36,15,1,0.6330990000001293,['n'],1,right,['2'],5,0.7336717000002864,0.4,0,FastAcc,8,18,Woman,Right,
37,15,1,0.6672039000000041,['n'],1,right,['3'],4,0.9005127999998876,0.1,0,FastAcc,8,18,Woman,Right,
38,15,1,0.7829252999999881,['n'],1,right,['0'],1,0.46710269999994125,0.1,0,FastAcc,8,18,Woman,Right,
39,15,1,0.5162860000000364,['n'],1,right,['0'],1,0.4337449999998171,0.1,0,FastAcc,8,18,Woman,Right,
40,15,1,0.5990702999997666,['c'],1,left,['3'],4,0.8839423999997962,0.2,0,FastAcc,8,18,Woman,Right,
41,15,1,0.6166093000001638,['n'],1,right,['2'],5,1.2672001999999338,0.1,0,FastAcc,8,18,Woman,Right,
42,15,1,0.800364300000183,['n'],0,left,['0'],1,0.3840349000001879,0.1,0,FastAcc,8,18,Woman,Right,
43,15,1,0.46663429999989603,['n'],0,left,['0'],1,0.3837303999998767,0.2,0,FastAcc,8,18,Woman,Right,
44,15,1,0.6666553000000022,['n'],1,right,['2'],5,0.500441900000169,0.4,0,FastAcc,8,18,Woman,Right,
45,15,1,0.8667905000002065,['c'],1,left,['3'],4,0.8170724000001428,0.1,0,FastAcc,8,18,Woman,Right,
46,15,1,0.7829816999997092,['n'],1,right,['9'],2,0.3836957000003167,0.2,0,FastAcc,8,18,Woman,Right,
47,15,1,0.6170904999999038,['c'],1,left,['2'],5,0.6838717999999062,0.2,0,FastAcc,8,18,Woman,Right,
48,15,1,0.9336989999997058,['c'],1,left,['2'],5,0.6838074999996024,0.2,0,FastAcc,8,18,Woman,Right,
49,15,1,0.7665485000002263,['n'],1,right,['9'],2,0.6840612999999394,0.2,0,FastAcc,8,18,Woman,Right,
50,15,1,0.4833643000001757,['c'],1,left,['2'],5,0.7839208999998846,0.4,0,FastAcc,8,18,Woman,Right,
51,15,1,0.5326247000002695,['n'],0,left,['0'],1,1.067518199999995,0.2,0,FastAcc,8,18,Woman,Right,
52,15,1,0.6170483000000786,['c'],1,left,['2'],5,0.7670071000002281,0.1,0,FastAcc,8,18,Woman,Right,
53,15,1,1.117098900000201,['n'],0,left,['0'],1,0.33412589999988995,0.1,0,FastAcc,8,18,Woman,Right,
54,15,1,1.3171728000002076,['c'],0,right,['0'],1,0.40026280000029146,0.1,0,FastAcc,8,18,Woman,Right,
55,15,1,0.6833556000001408,['c'],1,left,['9'],2,0.5169448999999986,0.4,0,FastAcc,8,18,Woman,Right,
56,15,1,0.8836387999999715,['c'],0,right,['3'],4,0.9838604999999916,0.2,0,FastAcc,8,18,Woman,Right,
57,15,1,0.6334163000001354,['c'],1,left,['3'],4,0.6344629999998688,0.4,0,FastAcc,8,18,Woman,Right,
58,15,1,0.7333231999996315,['n'],1,right,['2'],5,0.48391209999999774,0.4,0,FastAcc,8,18,Woman,Right,
59,15,1,0.5661623000000873,['c'],1,left,['2'],5,0.4336859000000004,0.1,0,FastAcc,8,18,Woman,Right,
