withinblocktrial,block,block_repetition,rt,resp,cor,cresp,conf_press,cj,rtconf,coherence,slow_trial,manipulation,sub,age,gender,handedness,
0,1,1,2.1663427000000866,['n'],1,right,none,-99,-99,0.5,0,none,5,18,Woman,Right,
1,1,1,1.8829608999999436,['n'],1,right,none,-99,-99,0.5,0,none,5,18,Woman,Right,
2,1,1,0.9508150999999998,['c'],1,left,none,-99,-99,0.5,0,none,5,18,Woman,Right,
3,1,1,0.7663550999998279,['n'],1,right,none,-99,-99,0.5,0,none,5,18,Woman,Right,
4,1,1,2.03294609999989,['c'],0,right,none,-99,-99,0.5,0,none,5,18,Woman,Right,
5,1,1,0.8498250000000098,['c'],1,left,none,-99,-99,0.5,0,none,5,18,Woman,Right,
6,1,1,1.1997956000000158,['c'],1,left,none,-99,-99,0.5,0,none,5,18,Woman,Right,
7,1,1,0.9332458999999744,['n'],1,right,none,-99,-99,0.5,0,none,5,18,Woman,Right,
8,1,1,1.9660564999999224,['n'],1,right,none,-99,-99,0.5,0,none,5,18,Woman,Right,
9,1,1,0.8158501000000342,['c'],1,left,none,-99,-99,0.5,0,none,5,18,Woman,Right,
10,1,1,0.7169279000002007,['n'],1,right,none,-99,-99,0.5,0,none,5,18,Woman,Right,
11,1,1,0.7329419999998663,['c'],1,left,none,-99,-99,0.5,0,none,5,18,Woman,Right,
12,1,1,0.6337138999999752,['c'],1,left,none,-99,-99,0.5,0,none,5,18,Woman,Right,
13,1,1,1.3488882999999987,['c'],1,left,none,-99,-99,0.5,0,none,5,18,Woman,Right,
14,1,1,0.700123000000076,['n'],0,left,none,-99,-99,0.5,0,none,5,18,Woman,Right,
15,1,1,0.6994560000000547,['c'],1,left,none,-99,-99,0.5,0,none,5,18,Woman,Right,
16,1,1,1.2499577999999474,['c'],1,left,none,-99,-99,0.5,0,none,5,18,Woman,Right,
17,1,1,0.6333260999999766,['n'],1,right,none,-99,-99,0.5,0,none,5,18,Woman,Right,
18,1,1,0.6659435000001395,['c'],1,left,none,-99,-99,0.5,0,none,5,18,Woman,Right,
19,1,1,0.6500063999999384,['n'],1,right,none,-99,-99,0.5,0,none,5,18,Woman,Right,
20,1,1,1.7490235999998731,['c'],0,right,none,-99,-99,0.5,0,none,5,18,Woman,Right,
21,1,1,0.6157216000001426,['n'],1,right,none,-99,-99,0.5,0,none,5,18,Woman,Right,
22,1,1,0.6995750999999473,['c'],1,left,none,-99,-99,0.5,0,none,5,18,Woman,Right,
23,1,1,0.5503705999999511,['n'],1,right,none,-99,-99,0.5,0,none,5,18,Woman,Right,
0,2,1,0.9331011999997827,['c'],1,left,none,-99,-99,0.4,0,none,5,18,Woman,Right,
1,2,1,0.9168044000000464,['n'],1,right,none,-99,-99,0.1,0,none,5,18,Woman,Right,
2,2,1,0.8664750000000367,['c'],1,left,none,-99,-99,0.2,0,none,5,18,Woman,Right,
3,2,1,1.250757700000122,['n'],0,left,none,-99,-99,0.2,0,none,5,18,Woman,Right,
4,2,1,1.2337409000001571,['n'],1,right,none,-99,-99,0.4,0,none,5,18,Woman,Right,
5,2,1,0.5661466999999902,['c'],1,left,none,-99,-99,0.2,0,none,5,18,Woman,Right,
6,2,1,0.5670079999999871,['n'],1,right,none,-99,-99,0.4,0,none,5,18,Woman,Right,
7,2,1,2.7993956000000253,['n'],1,right,none,-99,-99,0.4,0,none,5,18,Woman,Right,
8,2,1,0.7997764000001553,['c'],1,left,none,-99,-99,0.2,0,none,5,18,Woman,Right,
9,2,1,0.7837114000001293,['c'],1,left,none,-99,-99,0.1,0,none,5,18,Woman,Right,
10,2,1,1.066529599999967,['n'],1,right,none,-99,-99,0.1,0,none,5,18,Woman,Right,
11,2,1,0.7498565000000781,['n'],1,right,none,-99,-99,0.4,0,none,5,18,Woman,Right,
12,2,1,0.6163936000000376,['c'],1,left,none,-99,-99,0.1,0,none,5,18,Woman,Right,
13,2,1,0.5490015999998832,['n'],1,right,none,-99,-99,0.2,0,none,5,18,Woman,Right,
14,2,1,0.5675383999998758,['c'],1,left,none,-99,-99,0.4,0,none,5,18,Woman,Right,
15,2,1,0.43294760000003407,['n'],1,right,none,-99,-99,0.1,0,none,5,18,Woman,Right,
16,2,1,0.6996853000000556,['c'],1,left,none,-99,-99,0.2,0,none,5,18,Woman,Right,
17,2,1,0.5335394000001088,['n'],0,left,none,-99,-99,0.1,0,none,5,18,Woman,Right,
18,2,1,0.48362909999991643,['c'],1,left,none,-99,-99,0.2,0,none,5,18,Woman,Right,
19,2,1,1.1164883999999802,['c'],0,right,none,-99,-99,0.1,0,none,5,18,Woman,Right,
20,2,1,0.6325901999998678,['c'],1,left,none,-99,-99,0.2,0,none,5,18,Woman,Right,
21,2,1,0.5497408999999607,['n'],1,right,none,-99,-99,0.4,0,none,5,18,Woman,Right,
22,2,1,1.6991084999999657,['c'],0,right,none,-99,-99,0.1,0,none,5,18,Woman,Right,
23,2,1,0.5499210000000403,['n'],1,right,none,-99,-99,0.4,0,none,5,18,Woman,Right,
0,3,1,1.3673123999999461,['c'],1,left,['1'],1,1.8333743999999115,0.4,0,none,5,18,Woman,Right,
1,3,1,1.4837568000000374,['n'],1,right,['9'],5,1.5171282999999676,0.1,0,none,5,18,Woman,Right,
2,3,1,1.2838257000000795,['n'],1,right,['0'],6,0.6006170999999085,0.4,0,none,5,18,Woman,Right,
3,3,1,2.6673030000001745,['n'],1,right,['8'],4,1.4671850000001996,0.1,0,none,5,18,Woman,Right,
4,3,1,1.0998162000000775,['n'],1,right,['0'],6,0.5337346000001162,0.4,0,none,5,18,Woman,Right,
5,3,1,1.150334500000099,['n'],1,right,['9'],5,0.53389930000003,0.4,0,none,5,18,Woman,Right,
6,3,1,2.3006915999999364,['c'],1,left,['3'],3,0.9836460000001352,0.1,0,none,5,18,Woman,Right,
7,3,1,1.5174924999998893,['n'],1,right,['9'],5,0.5673644000000877,0.2,0,none,5,18,Woman,Right,
8,3,1,2.5005812000001697,['c'],1,left,['3'],3,1.1171670000001086,0.1,0,none,5,18,Woman,Right,
9,3,1,1.2836437999999362,['n'],1,right,['8'],4,0.8672692000000097,0.2,0,none,5,18,Woman,Right,
10,3,1,3.382702899999913,['n'],1,right,['8'],4,0.4837841999999455,0.2,0,none,5,18,Woman,Right,
11,3,1,0.9841143999999531,['c'],1,left,['2'],2,1.1005721999999878,0.1,0,none,5,18,Woman,Right,
12,3,1,1.1334706000000097,['c'],1,left,['3'],3,0.5171738999999889,0.1,0,none,5,18,Woman,Right,
13,3,1,1.149682299999995,['c'],1,left,['2'],2,0.5338676000001215,0.2,0,none,5,18,Woman,Right,
14,3,1,1.0171084999999493,['c'],1,left,['1'],1,0.48383800000010524,0.4,0,none,5,18,Woman,Right,
15,3,1,1.6175022999998419,['c'],1,left,['2'],2,0.5506289999998444,0.4,0,none,5,18,Woman,Right,
16,3,1,1.0005323999998836,['c'],1,left,['1'],1,0.45061020000002827,0.4,0,none,5,18,Woman,Right,
17,3,1,1.3497853999999734,['n'],1,right,['8'],4,0.5169137999998838,0.2,0,none,5,18,Woman,Right,
18,3,1,0.9670512000000144,['c'],1,left,['2'],2,1.0503151000000344,0.1,0,none,5,18,Woman,Right,
19,3,1,3.816696699999966,['c'],1,left,['3'],3,0.48396760000014183,0.1,0,none,5,18,Woman,Right,
20,3,1,1.2994253000001663,['n'],1,right,['9'],5,0.6672540000001845,0.2,0,none,5,18,Woman,Right,
21,3,1,1.0339177000000745,['n'],1,right,['8'],4,0.5834910999999465,0.2,0,none,5,18,Woman,Right,
22,3,1,0.9000210000001516,['n'],1,right,['0'],6,0.5005942000000232,0.4,0,none,5,18,Woman,Right,
23,3,1,1.0841158999999152,['c'],1,left,['2'],2,0.483992599999965,0.2,0,none,5,18,Woman,Right,
0,4,1,1.2996780000000854,['n'],1,right,['9'],5,1.033877099999927,0.2,0,FastFast,5,18,Woman,Right,
1,4,1,1.7835821000001033,['c'],1,left,['3'],3,0.6170760999998492,0.1,0,FastFast,5,18,Woman,Right,
2,4,1,1.1167577000001074,['n'],1,right,['8'],4,0.48392519999993056,0.2,0,FastFast,5,18,Woman,Right,
3,4,1,1.3502653000000464,['n'],0,left,['8'],4,0.3338912000001528,0.1,0,FastFast,5,18,Woman,Right,
4,4,1,0.9169210000000021,['n'],1,right,['0'],6,0.4506653999999344,0.4,0,FastFast,5,18,Woman,Right,
5,4,1,1.182919800000036,['c'],1,left,['1'],1,0.35052059999998164,0.4,0,FastFast,5,18,Woman,Right,
6,4,1,0.8997598999999354,['c'],1,left,['2'],2,0.36718210000003637,0.2,0,FastFast,5,18,Woman,Right,
7,4,1,0.8505560999999489,['c'],1,left,['3'],3,0.4005134999999882,0.1,0,FastFast,5,18,Woman,Right,
8,4,1,0.9006279000000177,['n'],0,left,['8'],4,0.36729009999999107,0.1,0,FastFast,5,18,Woman,Right,
9,4,1,0.9500455999998394,['n'],1,right,['8'],4,0.3339791000000787,0.1,0,FastFast,5,18,Woman,Right,
10,4,1,0.816330999999991,['n'],1,right,['9'],5,0.31712340000012773,0.2,0,FastFast,5,18,Woman,Right,
11,4,1,1.0337314999999307,['n'],1,right,['8'],4,0.31707729999993717,0.2,0,FastFast,5,18,Woman,Right,
12,4,1,0.8167344999999386,['n'],1,right,['0'],6,0.2838065999999344,0.4,0,FastFast,5,18,Woman,Right,
13,4,1,0.8001993000000311,['n'],1,right,['8'],4,0.300117900000032,0.1,0,FastFast,5,18,Woman,Right,
14,4,1,0.7177785999999742,['c'],1,left,['2'],2,0.3338745999999446,0.2,0,FastFast,5,18,Woman,Right,
15,4,1,0.4667611999998371,['n'],1,right,['0'],6,0.30048509999983253,0.4,0,FastFast,5,18,Woman,Right,
16,4,1,0.6174340999998549,['n'],1,right,['0'],6,0.28397019999988515,0.4,0,FastFast,5,18,Woman,Right,
17,4,1,0.6503264000000399,['c'],1,left,['1'],1,0.33374559999992925,0.4,0,FastFast,5,18,Woman,Right,
18,4,1,0.7002187000000504,['c'],1,left,['2'],2,0.3504557000001114,0.2,0,FastFast,5,18,Woman,Right,
19,4,1,0.6506051000001207,['c'],1,left,['1'],1,0.3504488000000947,0.1,0,FastFast,5,18,Woman,Right,
20,4,1,0.5506089999998949,['n'],1,right,['0'],6,0.3004947000001721,0.4,0,FastFast,5,18,Woman,Right,
21,4,1,0.6340138000000479,['c'],0,right,['2'],2,0.31711609999979373,0.1,0,FastFast,5,18,Woman,Right,
22,4,1,0.5678234000001794,['n'],1,right,['0'],6,0.33382480000000214,0.1,0,FastFast,5,18,Woman,Right,
23,4,1,0.6500392000000375,['c'],1,left,['2'],2,0.35046399999987443,0.1,0,FastFast,5,18,Woman,Right,
24,4,1,0.5004472000000533,['n'],1,right,['9'],5,0.3003725000000941,0.1,0,FastFast,5,18,Woman,Right,
25,4,1,0.6500464999999167,['n'],1,right,['0'],6,0.21720570000002226,0.4,0,FastFast,5,18,Woman,Right,
26,4,1,0.6499103999999534,['n'],1,right,['9'],5,0.333515000000034,0.4,0,FastFast,5,18,Woman,Right,
27,4,1,1.1509057999999186,['c'],0,right,['3'],3,0.4004010000001017,0.2,0,FastFast,5,18,Woman,Right,
28,4,1,0.766775399999915,['n'],0,left,['8'],4,0.4835443999998006,0.1,0,FastFast,5,18,Woman,Right,
29,4,1,0.8833988999999747,['n'],1,right,['8'],4,0.3838732000001528,0.2,0,FastFast,5,18,Woman,Right,
30,4,1,1.1003877000000557,['n'],1,right,['9'],5,0.4339666999999281,0.2,0,FastFast,5,18,Woman,Right,
31,4,1,0.716961099999935,['n'],1,right,['0'],6,0.2503100000001268,0.4,0,FastFast,5,18,Woman,Right,
32,4,1,0.5997563999999329,['c'],1,left,['2'],2,0.3338911000000735,0.1,0,FastFast,5,18,Woman,Right,
33,4,1,0.7002410000000054,['c'],1,left,['3'],3,0.350276200000053,0.2,0,FastFast,5,18,Woman,Right,
34,4,1,0.6005605999998807,['n'],1,right,['8'],4,0.2672231000001375,0.2,0,FastFast,5,18,Woman,Right,
35,4,1,0.8002650000000813,['n'],1,right,['9'],5,0.2504923999999846,0.4,0,FastFast,5,18,Woman,Right,
36,4,1,0.6170360000000983,['c'],1,left,['1'],1,0.2838526999998976,0.4,0,FastFast,5,18,Woman,Right,
37,4,1,0.8338650999999118,['c'],0,right,['3'],3,0.2336569999999938,0.1,0,FastFast,5,18,Woman,Right,
38,4,1,0.7001729000000978,['n'],1,right,['8'],4,0.23384779999992134,0.2,0,FastFast,5,18,Woman,Right,
39,4,1,0.717208699999901,['c'],1,left,['1'],1,0.35048920000008366,0.4,0,FastFast,5,18,Woman,Right,
40,4,1,0.617040999999972,['c'],1,left,['1'],1,0.4004637000000457,0.4,0,FastFast,5,18,Woman,Right,
41,4,1,0.48307329999988724,['c'],1,left,['1'],1,0.250315799999953,0.4,0,FastFast,5,18,Woman,Right,
42,4,1,0.6841736999999739,['c'],1,left,['1'],1,0.2339355000001433,0.2,0,FastFast,5,18,Woman,Right,
43,4,1,0.500228399999969,['c'],1,left,['1'],1,0.2172418000000107,0.4,0,FastFast,5,18,Woman,Right,
44,4,1,1.3658313999999336,['n'],1,right,['8'],4,0.23384059999989404,0.1,0,FastFast,5,18,Woman,Right,
45,4,1,1.2499837000000298,['n'],1,right,['8'],4,0.1671925000000556,0.1,0,FastFast,5,18,Woman,Right,
46,4,1,0.6497804999999062,['n'],1,right,['0'],6,0.18381599999997889,0.2,0,FastFast,5,18,Woman,Right,
47,4,1,0.46660220000012487,['c'],1,left,['1'],1,0.28368840000007367,0.2,0,FastFast,5,18,Woman,Right,
48,4,1,0.6340873000001466,['c'],1,left,['2'],2,0.23387000000002445,0.4,0,FastFast,5,18,Woman,Right,
49,4,1,0.9329482999999072,['c'],0,right,['3'],3,0.21722520000002987,0.1,0,FastFast,5,18,Woman,Right,
50,4,1,0.7165344000000005,['c'],1,left,['3'],3,0.23382500000002437,0.4,0,FastFast,5,18,Woman,Right,
51,4,1,0.567436300000054,['c'],1,left,['2'],2,0.300228000000061,0.1,0,FastFast,5,18,Woman,Right,
52,4,1,0.5327773000001343,['n'],1,right,['9'],5,0.25037619999989147,0.2,0,FastFast,5,18,Woman,Right,
53,4,1,0.4661654000001363,['c'],1,left,['1'],1,0.2505131000000347,0.4,0,FastFast,5,18,Woman,Right,
54,4,1,0.6825505000001613,['c'],1,left,['3'],3,0.2505541999998968,0.2,0,FastFast,5,18,Woman,Right,
55,4,1,0.43303560000003927,['n'],1,right,['8'],4,0.23391170000013517,0.4,0,FastFast,5,18,Woman,Right,
56,4,1,0.4326478999998926,['c'],1,left,['2'],2,0.28399209999997765,0.1,0,FastFast,5,18,Woman,Right,
57,4,1,0.6161815999998908,['c'],1,left,['2'],2,0.2505034999999225,0.2,0,FastFast,5,18,Woman,Right,
58,4,1,0.6162262000000283,['c'],1,left,['3'],3,0.2171118999999635,0.2,0,FastFast,5,18,Woman,Right,
59,4,1,1.016338899999937,['n'],0,left,['9'],5,0.2004133999998885,0.1,0,FastFast,5,18,Woman,Right,
0,5,1,4.616291200000205,['n'],1,right,['8'],4,0.4338496000000305,0.1,0,AccFast,5,18,Woman,Right,
1,5,1,1.7996003000000655,['c'],1,left,['2'],2,0.4666413000002194,0.2,0,AccFast,5,18,Woman,Right,
2,5,1,5.015675300000112,x,-99,right,none,-99,-99,0.1,1,AccFast,5,18,Woman,Right,
3,5,1,1.3326508000000103,['c'],1,left,['3'],3,0.4171900999999707,0.1,0,AccFast,5,18,Woman,Right,
4,5,1,2.1162485999998353,['c'],1,left,['3'],3,0.45047950000002857,0.2,0,AccFast,5,18,Woman,Right,
5,5,1,3.9167554999999084,['c'],0,right,['3'],3,0.31714430000010907,0.1,0,AccFast,5,18,Woman,Right,
6,5,1,1.8989334999998846,['n'],1,right,['8'],4,0.2845294000001104,0.2,0,AccFast,5,18,Woman,Right,
7,5,1,1.8990486000000146,['n'],1,right,['8'],4,0.3338377000000037,0.4,0,AccFast,5,18,Woman,Right,
8,5,1,1.8996118000000024,['c'],1,left,['1'],1,0.7338565999998536,0.2,0,AccFast,5,18,Woman,Right,
9,5,1,1.6663522999999714,['c'],1,left,['2'],2,0.683850399999983,0.2,0,AccFast,5,18,Woman,Right,
10,5,1,2.7666730000000825,['c'],0,right,['3'],3,1.833895400000074,0.1,0,AccFast,5,18,Woman,Right,
11,5,1,1.1995586999998977,['c'],1,left,['1'],1,0.7837293999998565,0.2,0,AccFast,5,18,Woman,Right,
12,5,1,1.2322532000000592,['n'],1,right,['8'],4,0.23381150000000162,0.2,0,AccFast,5,18,Woman,Right,
13,5,1,1.7660369000000173,['c'],1,left,['1'],1,0.583989900000006,0.4,0,AccFast,5,18,Woman,Right,
14,5,1,1.9336399000001165,['c'],0,right,['3'],3,0.367292099999986,0.4,0,AccFast,5,18,Woman,Right,
15,5,1,1.2665194999999585,['c'],1,left,['2'],2,0.4006969999998091,0.1,0,AccFast,5,18,Woman,Right,
16,5,1,1.0830799000000297,['c'],1,left,['1'],1,0.5005003999999644,0.4,0,AccFast,5,18,Woman,Right,
17,5,1,0.9161907000000156,['c'],1,left,['1'],1,0.550496700000167,0.4,0,AccFast,5,18,Woman,Right,
18,5,1,1.1662892000001648,['n'],1,right,['8'],4,0.5170368999999937,0.2,0,AccFast,5,18,Woman,Right,
19,5,1,0.9829689000000599,['n'],1,right,['0'],6,0.43364309999992656,0.4,0,AccFast,5,18,Woman,Right,
20,5,1,0.9663178999999218,['n'],1,right,['0'],6,0.58369649999986,0.4,0,AccFast,5,18,Woman,Right,
21,5,1,2.9664024999999583,['c'],1,left,['3'],3,0.31703159999983654,0.1,0,AccFast,5,18,Woman,Right,
22,5,1,1.016123000000107,['c'],1,left,['1'],1,0.4504577000000154,0.1,0,AccFast,5,18,Woman,Right,
23,5,1,1.9494816999999784,['c'],0,right,['2'],2,0.35061930000006214,0.1,0,AccFast,5,18,Woman,Right,
24,5,1,1.099956999999904,['n'],1,right,['0'],6,0.30045429999995577,0.4,0,AccFast,5,18,Woman,Right,
25,5,1,0.9328304999999091,['c'],1,left,['1'],1,0.317170699999906,0.4,0,AccFast,5,18,Woman,Right,
26,5,1,1.0331037999999353,['n'],1,right,['9'],5,0.3171793000001344,0.4,0,AccFast,5,18,Woman,Right,
27,5,1,0.932927300000074,['c'],1,left,['1'],1,0.38371910000000753,0.2,0,AccFast,5,18,Woman,Right,
28,5,1,0.9334046999999828,['c'],1,left,['1'],1,0.43387239999992744,0.2,0,AccFast,5,18,Woman,Right,
29,5,1,1.3992608999999447,['n'],1,right,['0'],6,0.551160199999913,0.4,0,AccFast,5,18,Woman,Right,
30,5,1,1.1495371999999406,['n'],1,right,['9'],5,0.21703530000013416,0.2,0,AccFast,5,18,Woman,Right,
31,5,1,0.8497384000002057,['c'],1,left,['2'],2,0.2837855000000218,0.1,0,AccFast,5,18,Woman,Right,
32,5,1,1.099375000000009,['c'],1,left,['3'],3,0.4840409999999338,0.2,0,AccFast,5,18,Woman,Right,
33,5,1,1.0668170000001282,['c'],1,left,['3'],3,0.2838571000002048,0.1,0,AccFast,5,18,Woman,Right,
34,5,1,1.0330706999998256,['n'],1,right,['9'],5,0.28378249999991567,0.4,0,AccFast,5,18,Woman,Right,
35,5,1,0.7499835999999505,['c'],1,left,['1'],1,0.3005436999999347,0.4,0,AccFast,5,18,Woman,Right,
36,5,1,0.7830805999999484,['c'],0,right,['1'],1,0.30042580000008456,0.1,0,AccFast,5,18,Woman,Right,
37,5,1,0.8001256000000012,['c'],0,right,['2'],2,0.26716860000010456,0.1,0,AccFast,5,18,Woman,Right,
38,5,1,0.6329605000000811,['c'],1,left,['3'],3,0.5504874000000655,0.1,0,AccFast,5,18,Woman,Right,
39,5,1,1.1833397999998851,['c'],0,right,['2'],2,0.4337253999999575,0.2,0,AccFast,5,18,Woman,Right,
40,5,1,0.6326848000001064,['c'],1,left,['1'],1,0.2672297999999955,0.4,0,AccFast,5,18,Woman,Right,
41,5,1,1.0661149000000023,['n'],1,right,['9'],5,0.26726319999988846,0.4,0,AccFast,5,18,Woman,Right,
42,5,1,0.5838367999999718,['c'],1,left,['1'],1,0.5338916000000609,0.4,0,AccFast,5,18,Woman,Right,
43,5,1,0.5665867999998682,['c'],1,left,['1'],1,0.30061730000011266,0.4,0,AccFast,5,18,Woman,Right,
44,5,1,1.1328966000000946,['n'],1,right,['9'],5,0.25057170000013684,0.2,0,AccFast,5,18,Woman,Right,
45,5,1,0.7995425000001433,['n'],1,right,['9'],5,0.30039179999994303,0.4,0,AccFast,5,18,Woman,Right,
46,5,1,0.6162331999998969,['c'],1,left,['1'],1,0.25049140000010084,0.2,0,AccFast,5,18,Woman,Right,
47,5,1,1.3830318000000261,['c'],1,left,['2'],2,0.6338289000000259,0.1,0,AccFast,5,18,Woman,Right,
48,5,1,1.0832843000000594,['c'],0,right,['2'],2,0.3502011999999013,0.2,0,AccFast,5,18,Woman,Right,
49,5,1,0.7495733000000655,['n'],1,right,['9'],5,0.33380490000013197,0.4,0,AccFast,5,18,Woman,Right,
50,5,1,0.8328141999998024,['c'],0,right,['2'],2,0.41720009999994545,0.2,0,AccFast,5,18,Woman,Right,
51,5,1,0.549442400000089,['c'],0,right,['1'],1,0.45050450000007913,0.1,0,AccFast,5,18,Woman,Right,
52,5,1,0.499397799999997,['c'],1,left,['1'],1,0.3669723000000431,0.1,0,AccFast,5,18,Woman,Right,
53,5,1,0.5005751000001055,['c'],1,left,['1'],1,0.43390660000000025,0.2,0,AccFast,5,18,Woman,Right,
54,5,1,0.6669753999999557,['c'],0,right,['2'],2,0.3171116000000893,0.1,0,AccFast,5,18,Woman,Right,
55,5,1,1.1661420999998882,['c'],1,left,['2'],2,0.3838478000000123,0.1,0,AccFast,5,18,Woman,Right,
56,5,1,1.6498258999999962,['c'],0,right,['3'],3,0.23362599999995837,0.1,0,AccFast,5,18,Woman,Right,
57,5,1,2.164898199999925,['n'],1,right,['8'],4,0.35044620000007853,0.4,0,AccFast,5,18,Woman,Right,
58,5,1,1.3497663999999077,['c'],1,left,['1'],1,0.5668714999999338,0.2,0,AccFast,5,18,Woman,Right,
59,5,1,0.8665820999999596,['c'],1,left,['1'],1,0.5171479999999065,0.2,0,AccFast,5,18,Woman,Right,
0,6,1,1.6997590000000855,['c'],1,left,['1'],1,0.9168978000000152,0.4,0,AccAcc,5,18,Woman,Right,
1,6,1,1.2498439999999391,['n'],1,right,['9'],5,0.6839011000001847,0.1,0,AccAcc,5,18,Woman,Right,
2,6,1,1.2505619000000934,['c'],0,right,['3'],3,0.7005073000000266,0.2,0,AccAcc,5,18,Woman,Right,
3,6,1,1.3664936999998645,['n'],1,right,['9'],5,0.45058570000014697,0.1,0,AccAcc,5,18,Woman,Right,
4,6,1,1.0659699000000273,['c'],0,right,['2'],2,0.36716869999986557,0.1,0,AccAcc,5,18,Woman,Right,
5,6,1,2.1505491999998867,['c'],1,left,['3'],3,0.4338708999998744,0.4,0,AccAcc,5,18,Woman,Right,
6,6,1,1.4495124000000033,['c'],1,left,['2'],2,0.3669499000000087,0.4,0,AccAcc,5,18,Woman,Right,
7,6,1,1.2004451000000245,['n'],1,right,['9'],5,0.7003899999999703,0.2,0,AccAcc,5,18,Woman,Right,
8,6,1,1.2002674000000297,['c'],1,left,['3'],3,0.5338915999998335,0.1,0,AccAcc,5,18,Woman,Right,
9,6,1,1.4493766999999025,['c'],0,right,['2'],2,0.6336704999998801,0.2,0,AccAcc,5,18,Woman,Right,
10,6,1,1.1494048999998085,['n'],1,right,['0'],6,0.26720240000008744,0.4,0,AccAcc,5,18,Woman,Right,
11,6,1,0.7495773000000554,['c'],1,left,['1'],1,0.33384079999996175,0.4,0,AccAcc,5,18,Woman,Right,
12,6,1,0.8997268999999051,['c'],1,left,['2'],2,0.3171569000001,0.2,0,AccAcc,5,18,Woman,Right,
13,6,1,0.8830054000000018,['c'],1,left,['1'],1,0.30053459999999177,0.2,0,AccAcc,5,18,Woman,Right,
14,6,1,0.8163008999999875,['n'],1,right,['0'],6,0.2337876999999935,0.4,0,AccAcc,5,18,Woman,Right,
15,6,1,2.96633369999995,['c'],1,left,['0'],6,2.81691150000006,0.2,0,AccAcc,5,18,Woman,Right,
16,6,1,5.000691399999823,x,-99,left,none,-99,-99,0.1,1,AccAcc,5,18,Woman,Right,
17,6,1,2.5497815000001083,['c'],0,right,none,-99,-99,0.2,1,AccAcc,5,18,Woman,Right,
18,6,1,1.1835438000000522,['n'],1,right,['0'],6,0.5338467999999921,0.4,0,AccAcc,5,18,Woman,Right,
19,6,1,1.0497812999999496,['n'],1,right,['0'],6,0.9836912999999186,0.2,0,AccAcc,5,18,Woman,Right,
20,6,1,1.165285600000061,['n'],0,left,['9'],5,0.567158400000153,0.1,0,AccAcc,5,18,Woman,Right,
21,6,1,1.133091899999954,['c'],1,left,['8'],4,1.6504285000000891,0.4,0,AccAcc,5,18,Woman,Right,
22,6,1,1.0664182000000437,['c'],1,left,['2'],2,0.8005447000000459,0.4,0,AccAcc,5,18,Woman,Right,
23,6,1,2.583650900000066,['c'],0,right,['8'],4,1.2670254999998178,0.1,0,AccAcc,5,18,Woman,Right,
24,6,1,1.7163680000001023,['c'],0,right,['3'],3,0.43381129999988843,0.1,0,AccAcc,5,18,Woman,Right,
25,6,1,0.9991385000000719,['n'],1,right,['0'],6,0.43384199999991324,0.4,0,AccAcc,5,18,Woman,Right,
26,6,1,0.7994194999998854,['n'],1,right,['9'],5,0.4171349000000646,0.4,0,AccAcc,5,18,Woman,Right,
27,6,1,0.7000328000001446,['c'],1,left,['0'],6,0.7172778999999991,0.2,0,AccAcc,5,18,Woman,Right,
28,6,1,0.6154670999999325,['c'],1,left,['9'],5,0.6171776999999565,0.2,0,AccAcc,5,18,Woman,Right,
29,6,1,0.7159904999998616,['c'],1,left,['8'],4,0.3506878999999117,0.1,0,AccAcc,5,18,Woman,Right,
30,6,1,0.7668363000000227,['n'],1,right,['9'],5,0.3669937000001937,0.4,0,AccAcc,5,18,Woman,Right,
31,6,1,0.8327594999998382,['n'],1,right,['8'],4,0.4003156000001127,0.2,0,AccAcc,5,18,Woman,Right,
32,6,1,0.9330074000001787,['c'],1,left,['8'],4,0.6004328999999871,0.1,0,AccAcc,5,18,Woman,Right,
33,6,1,0.665924700000005,['n'],1,right,['9'],5,0.3836804000000029,0.2,0,AccAcc,5,18,Woman,Right,
34,6,1,1.4661934999999175,['n'],1,right,['3'],3,0.4006424000001516,0.2,0,AccAcc,5,18,Woman,Right,
35,6,1,0.86639839999998,['c'],1,left,['3'],3,0.433895800000073,0.1,0,AccAcc,5,18,Woman,Right,
36,6,1,1.4163754999999583,['n'],1,right,['9'],5,0.5838292999999339,0.4,0,AccAcc,5,18,Woman,Right,
37,6,1,0.7839025999999194,['c'],1,left,['3'],3,0.8675019000002067,0.4,0,AccAcc,5,18,Woman,Right,
38,6,1,0.8995263000001614,['c'],1,left,['3'],3,0.4672149000000445,0.4,0,AccAcc,5,18,Woman,Right,
39,6,1,1.33320730000014,['c'],0,right,['3'],3,0.5002898999998706,0.1,0,AccAcc,5,18,Woman,Right,
40,6,1,1.016733099999783,['c'],1,left,['3'],3,0.35051819999989675,0.1,0,AccAcc,5,18,Woman,Right,
41,6,1,1.1658288000003267,['n'],1,right,['9'],5,0.38373860000001514,0.4,0,AccAcc,5,18,Woman,Right,
42,6,1,0.7495607999999265,['c'],1,left,['3'],3,0.30061979999982213,0.4,0,AccAcc,5,18,Woman,Right,
43,6,1,1.3827507999999398,['c'],1,left,['3'],3,0.4506811999999627,0.2,0,AccAcc,5,18,Woman,Right,
44,6,1,0.6997001999998247,['c'],1,left,['3'],3,0.33390129999997953,0.2,0,AccAcc,5,18,Woman,Right,
45,6,1,0.7330152999998063,['c'],1,left,['3'],3,0.23383119999971314,0.4,0,AccAcc,5,18,Woman,Right,
46,6,1,1.7327430000000277,['n'],1,right,['3'],3,0.23394619999999122,0.2,0,AccAcc,5,18,Woman,Right,
47,6,1,0.7484818000002633,['n'],1,right,['9'],5,0.23371869999982664,0.4,0,AccAcc,5,18,Woman,Right,
48,6,1,1.0327039000003424,['c'],0,right,['3'],3,0.20055469999988418,0.1,0,AccAcc,5,18,Woman,Right,
49,6,1,0.6995652000000518,['n'],1,right,['8'],4,0.21718409999994037,0.1,0,AccAcc,5,18,Woman,Right,
50,6,1,0.999415499999941,['c'],0,right,['3'],3,0.20048829999996087,0.1,0,AccAcc,5,18,Woman,Right,
51,6,1,0.899317500000052,['c'],1,left,['3'],3,0.2171994000000268,0.2,0,AccAcc,5,18,Woman,Right,
52,6,1,0.6826374999996005,['n'],1,right,['3'],3,0.16708310000012716,0.2,0,AccAcc,5,18,Woman,Right,
53,6,1,0.9828689999999369,['c'],1,left,['3'],3,0.2839273999998113,0.1,0,AccAcc,5,18,Woman,Right,
54,6,1,0.6999914000002718,['c'],1,left,['0'],6,0.7004637000000002,0.4,0,AccAcc,5,18,Woman,Right,
55,6,1,0.79960119999987,['c'],1,left,['8'],4,0.767258800000036,0.1,0,AccAcc,5,18,Woman,Right,
56,6,1,0.9320693999998184,['c'],0,right,['3'],3,0.4005008999997699,0.1,0,AccAcc,5,18,Woman,Right,
57,6,1,0.7163253999997323,['c'],1,left,['3'],3,0.18384219999961715,0.2,0,AccAcc,5,18,Woman,Right,
58,6,1,1.1163950000000114,['c'],1,left,['8'],4,0.18373509999992166,0.1,0,AccAcc,5,18,Woman,Right,
59,6,1,0.7001067000001058,['n'],1,right,['9'],5,0.3171626999996988,0.2,0,AccAcc,5,18,Woman,Right,
0,7,1,1.8827289000000746,['c'],1,left,['3'],3,1.4005034000001615,0.1,0,FastAcc,5,18,Woman,Right,
1,7,1,1.2646819999999934,['c'],1,left,['3'],3,1.1673083000000588,0.2,0,FastAcc,5,18,Woman,Right,
2,7,1,0.7830311000002439,['n'],1,right,['8'],4,1.4171778999998423,0.4,0,FastAcc,5,18,Woman,Right,
3,7,1,0.4659978999998202,['c'],1,left,['2'],2,1.5838463000000047,0.2,0,FastAcc,5,18,Woman,Right,
4,7,1,0.566078099999686,['n'],1,right,['9'],5,1.0171230999999352,0.4,0,FastAcc,5,18,Woman,Right,
5,7,1,0.6998499000001175,['c'],0,right,['2'],2,1.4339281000002302,0.1,0,FastAcc,5,18,Woman,Right,
6,7,1,0.5830588999997417,['c'],1,left,['8'],4,1.0337085999999545,0.4,0,FastAcc,5,18,Woman,Right,
7,7,1,1.099319099999775,['c'],0,right,['8'],4,0.9003631000000496,0.1,0,FastAcc,5,18,Woman,Right,
8,7,1,0.6330359999997199,['n'],1,right,['9'],5,0.8005432999998447,0.4,0,FastAcc,5,18,Woman,Right,
9,7,1,1.8663117999999486,['c'],0,right,['3'],3,1.4169841000002634,0.1,0,FastAcc,5,18,Woman,Right,
10,7,1,0.5834686000002876,['c'],1,left,['8'],4,0.6336083000001054,0.2,0,FastAcc,5,18,Woman,Right,
11,7,1,0.617602799999986,['c'],1,left,['9'],5,1.650601099999676,0.1,0,FastAcc,5,18,Woman,Right,
12,7,1,2.0999378999999863,['n'],1,right,['8'],4,1.9839793999999529,0.4,0,FastAcc,5,18,Woman,Right,
13,7,1,0.8495729999999639,['c'],1,left,['8'],4,0.9838300000001254,0.1,0,FastAcc,5,18,Woman,Right,
14,7,1,0.516033399999742,['c'],1,left,['0'],6,0.7171494999997776,0.4,0,FastAcc,5,18,Woman,Right,
15,7,1,0.9002822000002197,['n'],1,right,['9'],5,1.9673878000003242,0.4,0,FastAcc,5,18,Woman,Right,
16,7,1,0.6663407000000916,['c'],0,right,['3'],3,1.1338418999998794,0.2,0,FastAcc,5,18,Woman,Right,
17,7,1,0.5159084000001712,['n'],1,right,['8'],4,0.6172549000002618,0.4,0,FastAcc,5,18,Woman,Right,
18,7,1,0.9331458999999995,['n'],1,right,['9'],5,1.1173417999998492,0.2,0,FastAcc,5,18,Woman,Right,
19,7,1,1.083024000000023,['n'],1,right,['9'],5,1.5838011999999253,0.2,0,FastAcc,5,18,Woman,Right,
20,7,1,0.6660947999998825,['c'],0,right,['2'],2,1.700611199999912,0.2,0,FastAcc,5,18,Woman,Right,
21,7,1,0.6495984999996836,['n'],1,right,['9'],5,1.0338983999999982,0.4,0,FastAcc,5,18,Woman,Right,
22,7,1,0.7495066000001316,['c'],1,left,['8'],4,1.0341700999997556,0.1,0,FastAcc,5,18,Woman,Right,
23,7,1,1.2328291999997418,['n'],1,right,['8'],4,0.8173832000002221,0.2,0,FastAcc,5,18,Woman,Right,
24,7,1,1.0494048999998995,['c'],1,left,['2'],2,0.78354360000003,0.2,0,FastAcc,5,18,Woman,Right,
25,7,1,0.8658811999998761,['c'],1,left,['3'],3,0.7835143000002063,0.2,0,FastAcc,5,18,Woman,Right,
26,7,1,0.6995213999998668,['c'],0,right,['2'],2,0.9838349000001472,0.1,0,FastAcc,5,18,Woman,Right,
27,7,1,0.4823403000000326,['c'],1,left,['9'],5,0.733443200000238,0.4,0,FastAcc,5,18,Woman,Right,
28,7,1,0.5327422999998817,['c'],0,right,['3'],3,0.6169629000000896,0.2,0,FastAcc,5,18,Woman,Right,
29,7,1,0.850220199999967,['c'],1,left,['2'],2,0.6672463999998399,0.1,0,FastAcc,5,18,Woman,Right,
30,7,1,0.7999601999999868,['c'],1,left,['0'],6,0.5169215999999324,0.4,0,FastAcc,5,18,Woman,Right,
31,7,1,1.8990177999999105,['c'],1,left,['2'],2,1.133600000000115,0.1,0,FastAcc,5,18,Woman,Right,
32,7,1,2.3157476999999744,['n'],1,right,['2'],2,0.9841779000003044,0.1,0,FastAcc,5,18,Woman,Right,
33,7,1,1.5663270000000011,['c'],1,left,['9'],5,0.4671644000000015,0.2,0,FastAcc,5,18,Woman,Right,
34,7,1,0.99957379999978,['c'],1,left,['2'],2,0.31724930000018503,0.2,0,FastAcc,5,18,Woman,Right,
35,7,1,0.5162030999999843,['c'],0,right,['2'],2,0.9334346000000551,0.1,0,FastAcc,5,18,Woman,Right,
36,7,1,1.6829826000002868,['c'],0,right,['8'],4,2.000564299999951,0.1,0,FastAcc,5,18,Woman,Right,
37,7,1,0.5329259000000093,['c'],0,right,['9'],5,0.7671755999999732,0.4,0,FastAcc,5,18,Woman,Right,
38,7,1,1.3828426000000036,['n'],0,left,['3'],3,1.1337984000001597,0.2,0,FastAcc,5,18,Woman,Right,
39,7,1,1.0496487000000343,['c'],1,left,['9'],5,1.3170380000001387,0.4,0,FastAcc,5,18,Woman,Right,
40,7,1,0.9154795999997987,['c'],0,right,['8'],4,1.1672429000000193,0.1,0,FastAcc,5,18,Woman,Right,
41,7,1,0.799616799999967,['c'],1,left,['9'],5,2.3338653000000704,0.1,0,FastAcc,5,18,Woman,Right,
42,7,1,1.099610499999926,['c'],1,left,['3'],3,1.300514000000021,0.1,0,FastAcc,5,18,Woman,Right,
43,7,1,1.1495310999998765,['c'],1,left,['9'],5,0.8500087000002168,0.4,0,FastAcc,5,18,Woman,Right,
44,7,1,0.6826873999998497,['c'],1,left,['0'],6,1.467360799999824,0.4,0,FastAcc,5,18,Woman,Right,
45,7,1,0.8994296000000759,['c'],0,right,['1'],1,1.3337424999999712,0.2,0,FastAcc,5,18,Woman,Right,
46,7,1,0.9833773999998812,['c'],1,left,['8'],4,3.3671437000002697,0.2,0,FastAcc,5,18,Woman,Right,
47,7,1,0.6505632999997033,['c'],0,right,['1'],1,1.100423899999896,0.1,0,FastAcc,5,18,Woman,Right,
48,7,1,0.7986943000000792,['c'],1,left,['8'],4,0.9171363000000383,0.2,0,FastAcc,5,18,Woman,Right,
49,7,1,0.5995302999999694,['n'],0,left,['8'],4,0.8337427999999818,0.2,0,FastAcc,5,18,Woman,Right,
50,7,1,1.7485361999997622,['c'],0,right,['2'],2,0.5339172999997572,0.1,0,FastAcc,5,18,Woman,Right,
51,7,1,0.8162078000000292,['n'],1,right,['9'],5,1.9672780000000785,0.4,0,FastAcc,5,18,Woman,Right,
52,7,1,0.8662052999998195,['n'],0,left,['8'],4,1.30050859999983,0.2,0,FastAcc,5,18,Woman,Right,
53,7,1,0.6995269999997618,['n'],1,right,['3'],3,0.9673673000002054,0.1,0,FastAcc,5,18,Woman,Right,
54,7,1,0.715322400000332,['n'],1,right,['9'],5,1.5169833999998446,0.4,0,FastAcc,5,18,Woman,Right,
55,7,1,0.4828833999999915,['c'],0,right,['1'],1,0.7340305999996417,0.4,0,FastAcc,5,18,Woman,Right,
56,7,1,0.84852920000003,['c'],1,left,['2'],2,1.1670498999997108,0.1,0,FastAcc,5,18,Woman,Right,
57,7,1,0.6832402000000002,['n'],0,left,['1'],1,1.0006719000002704,0.4,0,FastAcc,5,18,Woman,Right,
58,7,1,0.5669465000000855,['c'],1,left,['8'],4,1.5677639000000454,0.2,0,FastAcc,5,18,Woman,Right,
59,7,1,1.1500012000001334,['n'],1,right,['9'],5,0.5504749000001539,0.4,0,FastAcc,5,18,Woman,Right,
0,8,1,0.9156287000000702,['c'],1,left,['2'],2,0.5173376000002463,0.4,0,FastFast,5,18,Woman,Right,
1,8,1,0.7836612000000969,['c'],1,left,['9'],5,0.5005201999997553,0.4,0,FastFast,5,18,Woman,Right,
2,8,1,0.8661604999997508,['c'],1,left,['9'],5,0.5337710999997398,0.4,0,FastFast,5,18,Woman,Right,
3,8,1,0.8828932999999779,['n'],1,right,['8'],4,0.4004824000003282,0.2,0,FastFast,5,18,Woman,Right,
4,8,1,0.783552299999883,['n'],1,right,['8'],4,0.40047180000010485,0.4,0,FastFast,5,18,Woman,Right,
5,8,1,0.7832213000001502,['c'],1,left,['8'],4,0.5505151000002115,0.1,0,FastFast,5,18,Woman,Right,
6,8,1,0.7327962999997908,['n'],1,right,['9'],5,0.4338266000004296,0.4,0,FastFast,5,18,Woman,Right,
7,8,1,0.7171115999999529,['c'],0,right,['3'],3,1.1336865999996917,0.2,0,FastFast,5,18,Woman,Right,
8,8,1,0.4500099000001683,['n'],1,right,['8'],4,0.26710300000013376,0.4,0,FastFast,5,18,Woman,Right,
9,8,1,0.4662705000000642,['c'],1,left,['3'],3,0.16716639999958716,0.1,0,FastFast,5,18,Woman,Right,
10,8,1,0.6165768999999273,['c'],0,right,['3'],3,0.20049080000035246,0.1,0,FastFast,5,18,Woman,Right,
11,8,1,0.6325827000000572,['n'],0,left,['8'],4,0.25064359999987573,0.1,0,FastFast,5,18,Woman,Right,
12,8,1,0.5495887000001858,['c'],1,left,['3'],3,0.2173056000001452,0.1,0,FastFast,5,18,Woman,Right,
13,8,1,0.6167092000000594,['n'],1,right,['8'],4,0.1668285000000651,0.1,0,FastFast,5,18,Woman,Right,
14,8,1,0.6985202999999274,['n'],1,right,['0'],6,0.25040590000025986,0.4,0,FastFast,5,18,Woman,Right,
15,8,1,1.2496218999999655,['c'],1,left,['3'],3,0.20045260000006238,0.1,0,FastFast,5,18,Woman,Right,
16,8,1,0.5831238999999186,['c'],1,left,['3'],3,0.13389809999989666,0.2,0,FastFast,5,18,Woman,Right,
17,8,1,0.8661202999996931,['n'],1,right,['8'],4,0.16717380000000048,0.1,0,FastFast,5,18,Woman,Right,
18,8,1,0.4830603999998857,['c'],1,left,['3'],3,0.16714460000002873,0.1,0,FastFast,5,18,Woman,Right,
19,8,1,0.5838241999999809,['c'],1,left,['3'],3,0.1669902000003276,0.2,0,FastFast,5,18,Woman,Right,
20,8,1,0.9163935000001402,['n'],1,right,['8'],4,0.1837153000001308,0.2,0,FastFast,5,18,Woman,Right,
21,8,1,0.6508720000001631,['n'],1,right,['9'],5,0.2005113000000165,0.4,0,FastFast,5,18,Woman,Right,
22,8,1,0.5832061000000976,['n'],1,right,['9'],5,0.43374820000008185,0.4,0,FastFast,5,18,Woman,Right,
23,8,1,0.8495095000002948,['c'],0,right,['9'],5,0.18343839999988631,0.2,0,FastFast,5,18,Woman,Right,
24,8,1,0.8665495999998711,['c'],0,right,['9'],5,0.2005039000000579,0.2,0,FastFast,5,18,Woman,Right,
25,8,1,0.5498131999997895,['c'],1,left,['8'],4,0.2505959999998595,0.1,0,FastFast,5,18,Woman,Right,
26,8,1,0.4994395000003351,['n'],1,right,['8'],4,0.20062330000018846,0.1,0,FastFast,5,18,Woman,Right,
27,8,1,0.5663374000000658,['c'],1,left,['3'],3,0.1505087000000458,0.2,0,FastFast,5,18,Woman,Right,
28,8,1,0.6831263000003673,['c'],1,left,['9'],5,0.2670899999998255,0.4,0,FastFast,5,18,Woman,Right,
29,8,1,0.5495246999998926,['c'],1,left,['8'],4,0.3004251000002114,0.2,0,FastFast,5,18,Woman,Right,
30,8,1,0.6330134000004364,['c'],1,left,['8'],4,0.21712859999979628,0.1,0,FastFast,5,18,Woman,Right,
31,8,1,0.5164791000001969,['c'],0,right,['0'],6,0.41782670000020516,0.4,0,FastFast,5,18,Woman,Right,
32,8,1,0.682701900000211,['c'],1,left,['3'],3,0.9670946999999614,0.4,0,FastFast,5,18,Woman,Right,
33,8,1,1.2992932000001929,['c'],1,left,['9'],5,0.31724389999999403,0.2,0,FastFast,5,18,Woman,Right,
34,8,1,0.5995222000001377,['c'],1,left,['9'],5,0.20063430000027438,0.1,0,FastFast,5,18,Woman,Right,
35,8,1,1.7665244999998322,['c'],0,right,['3'],3,0.20049299999982395,0.2,0,FastFast,5,18,Woman,Right,
36,8,1,0.682886900000085,['n'],1,right,['9'],5,0.41671820000010484,0.4,0,FastFast,5,18,Woman,Right,
37,8,1,0.9165815999999722,['n'],1,right,['9'],5,0.08382700000038312,0.2,0,FastFast,5,18,Woman,Right,
38,8,1,0.7003138999998555,['n'],1,right,['9'],5,0.13385359999983848,0.4,0,FastFast,5,18,Woman,Right,
39,8,1,0.7990383999999722,['c'],1,left,['3'],3,0.15053459999990082,0.2,0,FastFast,5,18,Woman,Right,
40,8,1,0.49896850000004633,['n'],0,left,['9'],5,0.20048659999974916,0.1,0,FastFast,5,18,Woman,Right,
41,8,1,0.5330300999999054,['n'],0,left,['8'],4,0.21713550000004034,0.1,0,FastFast,5,18,Woman,Right,
42,8,1,0.6998696999999083,['n'],0,left,['9'],5,0.23405200000024706,0.4,0,FastFast,5,18,Woman,Right,
43,8,1,0.8828147999997782,['c'],0,right,['3'],3,0.21711549999963609,0.4,0,FastFast,5,18,Woman,Right,
44,8,1,0.6328646000001754,['n'],1,right,['9'],5,0.18395949999967343,0.1,0,FastFast,5,18,Woman,Right,
45,8,1,0.8162570999998024,['c'],1,left,['3'],3,0.200580500000342,0.1,0,FastFast,5,18,Woman,Right,
46,8,1,1.033274899999924,['c'],1,left,['3'],3,0.16714050000018688,0.2,0,FastFast,5,18,Woman,Right,
47,8,1,0.6830308000003242,['c'],0,right,['3'],3,0.1839353000000301,0.2,0,FastFast,5,18,Woman,Right,
48,8,1,0.5332621000002291,['n'],1,right,['9'],5,0.2337838000003103,0.4,0,FastFast,5,18,Woman,Right,
49,8,1,0.7158444000001509,['n'],0,left,['9'],5,0.21718129999999292,0.2,0,FastFast,5,18,Woman,Right,
50,8,1,0.8828030999998191,['c'],1,left,['3'],3,0.20050939999964612,0.2,0,FastFast,5,18,Woman,Right,
51,8,1,0.7326253000001088,['c'],0,right,['3'],3,0.2671789000000899,0.1,0,FastFast,5,18,Woman,Right,
52,8,1,0.7997389000001931,['c'],0,right,['3'],3,0.2170854999999392,0.1,0,FastFast,5,18,Woman,Right,
53,8,1,0.5495551999997588,['c'],1,left,['3'],3,0.1839028999997936,0.2,0,FastFast,5,18,Woman,Right,
54,8,1,0.6163996000000225,['c'],0,right,['3'],3,0.21729000000004817,0.2,0,FastFast,5,18,Woman,Right,
55,8,1,0.8663486999998895,['c'],1,left,['3'],3,0.21715599999970436,0.2,0,FastFast,5,18,Woman,Right,
56,8,1,0.5999394000000393,['c'],0,right,['3'],3,0.13396209999973507,0.1,0,FastFast,5,18,Woman,Right,
57,8,1,0.6330846000000747,['c'],1,left,['3'],3,0.13375670000004902,0.4,0,FastFast,5,18,Woman,Right,
58,8,1,1.1162458999997398,['n'],1,right,['9'],5,0.217081600000256,0.4,0,FastFast,5,18,Woman,Right,
59,8,1,0.7335017999998854,['n'],1,right,['9'],5,0.20043679999980668,0.4,0,FastFast,5,18,Woman,Right,
0,9,1,3.282067999999981,['n'],1,right,['0'],6,0.6005427000000054,0.1,0,AccFast,5,18,Woman,Right,
1,9,1,1.1003225999997994,['n'],1,right,['8'],4,0.583714300000338,0.1,0,AccFast,5,18,Woman,Right,
2,9,1,0.9167675000003328,['n'],1,right,['9'],5,0.9670361999997112,0.4,0,AccFast,5,18,Woman,Right,
3,9,1,1.916767499999878,['n'],1,right,['8'],4,1.0505034000002524,0.4,0,AccFast,5,18,Woman,Right,
4,9,1,0.9833736999999019,['c'],1,left,['9'],5,1.7337672999997267,0.1,0,AccFast,5,18,Woman,Right,
5,9,1,1.0831943999996838,['n'],1,right,['8'],4,0.21700549999968644,0.4,0,AccFast,5,18,Woman,Right,
6,9,1,1.467024500000207,['c'],1,left,['9'],5,1.4170689000002312,0.2,0,AccFast,5,18,Woman,Right,
7,9,1,1.3671088000000964,['c'],1,left,['9'],5,1.3505628000002616,0.4,0,AccFast,5,18,Woman,Right,
8,9,1,1.8158796999996412,['c'],0,right,['8'],4,0.6672859000000244,0.1,0,AccFast,5,18,Woman,Right,
9,9,1,0.9669602999997551,['c'],1,left,['8'],4,0.3505494999999428,0.2,0,AccFast,5,18,Woman,Right,
10,9,1,2.133593500000188,['c'],0,right,['8'],4,0.25061269999969227,0.4,0,AccFast,5,18,Woman,Right,
11,9,1,0.5995778999999857,['c'],1,left,['9'],5,0.41709510000009686,0.4,0,AccFast,5,18,Woman,Right,
12,9,1,1.699482099999841,['n'],1,right,['9'],5,0.20042100000000573,0.2,0,AccFast,5,18,Woman,Right,
13,9,1,2.149712400000226,['c'],0,right,['9'],5,0.25054180000006454,0.4,0,AccFast,5,18,Woman,Right,
14,9,1,0.7164517000001069,['c'],1,left,['9'],5,0.25039309999965553,0.4,0,AccFast,5,18,Woman,Right,
15,9,1,0.866428100000121,['n'],1,right,['9'],5,0.16714200000023993,0.2,0,AccFast,5,18,Woman,Right,
16,9,1,2.582894799999849,['n'],1,right,['8'],4,0.050434799999948154,0.4,0,AccFast,5,18,Woman,Right,
17,9,1,0.8501863999999841,['c'],1,left,['8'],4,0.15050590000009834,0.2,0,AccFast,5,18,Woman,Right,
18,9,1,1.1012249000000338,['c'],1,left,['9'],5,0.35056900000017777,0.4,0,AccFast,5,18,Woman,Right,
19,9,1,1.100137899999936,['c'],1,left,['8'],4,0.21713110000018787,0.1,0,AccFast,5,18,Woman,Right,
20,9,1,2.0336028000001534,['c'],1,left,['8'],4,0.16736530000025596,0.2,0,AccFast,5,18,Woman,Right,
21,9,1,2.3332579999996597,['n'],1,right,['9'],5,0.08371519999991506,0.4,0,AccFast,5,18,Woman,Right,
22,9,1,1.9671053000001848,['c'],0,right,['8'],4,0.11740569999983563,0.2,0,AccFast,5,18,Woman,Right,
23,9,1,2.016476100000091,['c'],1,left,['8'],4,0.1172089000001506,0.1,0,AccFast,5,18,Woman,Right,
24,9,1,0.833495099999709,['c'],1,left,['8'],4,0.1171266999999716,0.4,0,AccFast,5,18,Woman,Right,
25,9,1,2.31708639999988,['c'],0,right,['9'],5,0.16715650000014648,0.1,0,AccFast,5,18,Woman,Right,
26,9,1,2.7011107000002994,['c'],1,left,['3'],3,0.11713049999980285,0.2,0,AccFast,5,18,Woman,Right,
27,9,1,1.8171526999999514,['c'],1,left,['0'],6,0.16729149999991932,0.1,0,AccFast,5,18,Woman,Right,
28,9,1,0.8497164999998859,['c'],1,left,['9'],5,0.1339618000001792,0.1,0,AccFast,5,18,Woman,Right,
29,9,1,1.2163940000000366,['c'],1,left,['8'],4,0.18374149999999645,0.4,0,AccFast,5,18,Woman,Right,
30,9,1,1.3998696000003292,['c'],1,left,['0'],6,0.16740699999991193,0.4,0,AccFast,5,18,Woman,Right,
31,9,1,2.0671314999999595,['n'],1,right,['9'],5,0.23392610000018976,0.2,0,AccFast,5,18,Woman,Right,
32,9,1,0.8669896999999764,['c'],0,right,['0'],6,0.13385890000017753,0.4,0,AccFast,5,18,Woman,Right,
33,9,1,1.3167386999998598,['c'],0,right,['9'],5,0.10062999999991007,0.4,0,AccFast,5,18,Woman,Right,
34,9,1,0.7650875999997879,['c'],0,right,['0'],6,0.133990900000299,0.1,0,AccFast,5,18,Woman,Right,
35,9,1,0.7509835999999268,['c'],1,left,['8'],4,0.18390539999973043,0.1,0,AccFast,5,18,Woman,Right,
36,9,1,1.5997807999997349,['c'],1,left,['2'],2,0.3004132999999456,0.2,0,AccFast,5,18,Woman,Right,
37,9,1,1.3501274999998714,['c'],1,left,['8'],4,0.35058089999984077,0.1,0,AccFast,5,18,Woman,Right,
38,9,1,1.3651185000003352,['c'],0,right,['3'],3,0.21708349999971688,0.1,0,AccFast,5,18,Woman,Right,
39,9,1,0.7003666999999041,['c'],0,right,['3'],3,0.20024389999980485,0.2,0,AccFast,5,18,Woman,Right,
40,9,1,1.7002617000002829,['n'],1,right,['9'],5,0.2171477000001687,0.4,0,AccFast,5,18,Woman,Right,
41,9,1,0.6503636000002189,['c'],1,left,['3'],3,0.1339349999998376,0.2,0,AccFast,5,18,Woman,Right,
42,9,1,1.5496926999999232,['c'],0,right,['3'],3,0.16703020000022661,0.4,0,AccFast,5,18,Woman,Right,
43,9,1,2.349786900000254,['c'],0,right,['9'],5,0.20057059999999183,0.2,0,AccFast,5,18,Woman,Right,
44,9,1,1.200056499999846,['c'],1,left,['3'],3,0.15065729999969335,0.1,0,AccFast,5,18,Woman,Right,
45,9,1,1.000535900000159,['c'],0,right,['3'],3,0.15049690000023475,0.2,0,AccFast,5,18,Woman,Right,
46,9,1,0.8332322000001113,['c'],0,right,['3'],3,0.11738980000018273,0.1,0,AccFast,5,18,Woman,Right,
47,9,1,0.8829127000003609,['c'],1,left,['9'],5,0.40064059999986057,0.2,0,AccFast,5,18,Woman,Right,
48,9,1,1.6495378999998138,['c'],1,left,['9'],5,0.15049249999992753,0.2,0,AccFast,5,18,Woman,Right,
49,9,1,1.915956499999993,['n'],1,right,['0'],6,0.2006056999998691,0.4,0,AccFast,5,18,Woman,Right,
50,9,1,2.482256999999663,['n'],1,right,['9'],5,0.06688310000026831,0.4,0,AccFast,5,18,Woman,Right,
51,9,1,1.9172201000001223,['n'],1,right,['9'],5,0.1339429999998174,0.1,0,AccFast,5,18,Woman,Right,
52,9,1,1.8666505999999572,['c'],1,left,['8'],4,0.21695230000023003,0.2,0,AccFast,5,18,Woman,Right,
53,9,1,2.416939199999888,['n'],1,right,['8'],4,0.20044030000008206,0.1,0,AccFast,5,18,Woman,Right,
54,9,1,2.316450100000111,['c'],1,left,['8'],4,0.15050419999988662,0.2,0,AccFast,5,18,Woman,Right,
55,9,1,1.0162747000003947,['c'],1,left,['8'],4,0.18400130000009085,0.2,0,AccFast,5,18,Woman,Right,
56,9,1,1.7660722000000533,['c'],1,left,['8'],4,0.16720149999991918,0.1,0,AccFast,5,18,Woman,Right,
57,9,1,1.916057400000227,['c'],0,right,['1'],1,0.6006309999997939,0.1,0,AccFast,5,18,Woman,Right,
58,9,1,1.4001726999999846,['c'],1,left,['1'],1,0.18382480000036594,0.1,0,AccFast,5,18,Woman,Right,
59,9,1,1.1661895000002005,['c'],1,left,['8'],4,0.5005452000000332,0.2,0,AccFast,5,18,Woman,Right,
0,10,1,3.4160352999997485,['n'],1,right,['0'],6,0.4839751999998043,0.4,0,AccAcc,5,18,Woman,Right,
1,10,1,2.032825099999627,['c'],0,right,['8'],4,0.5836436999998114,0.1,0,AccAcc,5,18,Woman,Right,
2,10,1,2.532811899999615,['c'],1,left,['9'],5,0.28406989999984944,0.4,0,AccAcc,5,18,Woman,Right,
3,10,1,1.798775299999761,['c'],1,left,['9'],5,0.36730020000004515,0.4,0,AccAcc,5,18,Woman,Right,
4,10,1,3.7167451000000256,['c'],1,left,['0'],6,0.7338665000002038,0.2,0,AccAcc,5,18,Woman,Right,
5,10,1,2.3505090000003293,['c'],0,right,['9'],5,0.5505060000000412,0.2,0,AccAcc,5,18,Woman,Right,
6,10,1,2.3666309000000183,['c'],1,left,['9'],5,0.5671253000000434,0.4,0,AccAcc,5,18,Woman,Right,
7,10,1,2.115893600000163,['c'],1,left,['9'],5,0.5171888000004401,0.4,0,AccAcc,5,18,Woman,Right,
8,10,1,2.06476449999991,['n'],1,right,['3'],3,0.45032199999968725,0.2,0,AccAcc,5,18,Woman,Right,
9,10,1,2.267782299999908,['c'],0,right,['2'],2,0.8338557000001856,0.2,0,AccAcc,5,18,Woman,Right,
10,10,1,2.331793999999718,['c'],0,right,['3'],3,0.2504388000002109,0.1,0,AccAcc,5,18,Woman,Right,
11,10,1,1.0993929000001117,['c'],0,right,['3'],3,0.25046100000008664,0.1,0,AccAcc,5,18,Woman,Right,
12,10,1,3.516498500000125,['n'],1,right,['8'],4,0.8842028999997638,0.2,0,AccAcc,5,18,Woman,Right,
13,10,1,2.116089699999975,['c'],0,right,['3'],3,0.5505900999996811,0.1,0,AccAcc,5,18,Woman,Right,
14,10,1,2.1493013999997856,['c'],1,left,['9'],5,3.36730899999975,0.4,0,AccAcc,5,18,Woman,Right,
15,10,1,1.182670799999869,['c'],0,right,['3'],3,0.2843777000002774,0.2,0,AccAcc,5,18,Woman,Right,
16,10,1,2.899519000000055,['c'],0,right,['3'],3,0.2002041000000645,0.1,0,AccAcc,5,18,Woman,Right,
17,10,1,3.332895600000029,['c'],0,right,['9'],5,0.2838315999997576,0.2,0,AccAcc,5,18,Woman,Right,
18,10,1,3.166902100000243,['c'],1,left,['9'],5,1.600433200000225,0.2,0,AccAcc,5,18,Woman,Right,
19,10,1,2.382530399999723,['c'],1,left,['9'],5,1.6504964999999174,0.2,0,AccAcc,5,18,Woman,Right,
20,10,1,2.483536400000048,['n'],0,left,['1'],1,0.6340172999998686,0.1,0,AccAcc,5,18,Woman,Right,
21,10,1,2.782911999999669,['c'],1,left,['3'],3,1.0336373999998614,0.1,0,AccAcc,5,18,Woman,Right,
22,10,1,2.233471500000178,['n'],1,right,['8'],4,0.7837606000002779,0.4,0,AccAcc,5,18,Woman,Right,
23,10,1,3.0988936000003378,['c'],1,left,['3'],3,0.3504163999996308,0.1,0,AccAcc,5,18,Woman,Right,
24,10,1,4.266444500000034,['n'],1,right,['9'],5,1.7670570000000225,0.4,0,AccAcc,5,18,Woman,Right,
25,10,1,3.232821800000238,['c'],1,left,['8'],4,2.000924699999814,0.2,0,AccAcc,5,18,Woman,Right,
26,10,1,3.765896100000191,['c'],1,left,['8'],4,1.0841611999999259,0.1,0,AccAcc,5,18,Woman,Right,
27,10,1,4.799329899999975,['c'],0,right,['8'],4,1.3171631000000161,0.2,0,AccAcc,5,18,Woman,Right,
28,10,1,2.999482000000171,['c'],1,left,['8'],4,3.9833545000001322,0.4,0,AccAcc,5,18,Woman,Right,
29,10,1,3.7835737000000336,['c'],1,left,['8'],4,2.1006446999999753,0.2,0,AccAcc,5,18,Woman,Right,
30,10,1,4.216904700000214,['n'],1,right,['2'],2,1.3837760000001254,0.2,0,AccAcc,5,18,Woman,Right,
31,10,1,2.266358500000024,['c'],0,right,['1'],1,0.5838723000001664,0.1,0,AccAcc,5,18,Woman,Right,
32,10,1,2.5340415000000576,['c'],1,left,['9'],5,1.83388449999984,0.4,0,AccAcc,5,18,Woman,Right,
33,10,1,2.199991100000261,['c'],0,right,['1'],1,0.8671226999999817,0.2,0,AccAcc,5,18,Woman,Right,
34,10,1,3.1163108000000648,['c'],1,left,['3'],3,1.6339733999998316,0.2,0,AccAcc,5,18,Woman,Right,
35,10,1,3.9164220000002388,['n'],1,right,['9'],5,1.2505347999999685,0.1,0,AccAcc,5,18,Woman,Right,
36,10,1,3.8496298999998544,['n'],1,right,['0'],6,1.333763099999942,0.4,0,AccAcc,5,18,Woman,Right,
37,10,1,2.19946549999986,['n'],0,left,['8'],4,0.5837523999998666,0.1,0,AccAcc,5,18,Woman,Right,
38,10,1,2.96619230000033,['c'],0,right,['1'],1,0.3505208000001403,0.1,0,AccAcc,5,18,Woman,Right,
39,10,1,2.949905399999807,['c'],1,left,['9'],5,1.5338917999997648,0.1,0,AccAcc,5,18,Woman,Right,
40,10,1,2.6328209999996943,['c'],1,left,['0'],6,1.4338126000002376,0.4,0,AccAcc,5,18,Woman,Right,
41,10,1,1.6495524000001751,['c'],1,left,['0'],6,1.217353600000024,0.4,0,AccAcc,5,18,Woman,Right,
42,10,1,1.6494344000002457,['n'],1,right,['0'],6,0.6171488999998473,0.4,0,AccAcc,5,18,Woman,Right,
43,10,1,2.582955600000332,['c'],1,left,['9'],5,0.5670594999996865,0.4,0,AccAcc,5,18,Woman,Right,
44,10,1,3.682748200000333,['n'],1,right,['9'],5,1.28433189999987,0.1,0,AccAcc,5,18,Woman,Right,
45,10,1,2.8998539999997774,['c'],1,left,['8'],4,1.2503020000003744,0.2,0,AccAcc,5,18,Woman,Right,
46,10,1,5.01606240000001,x,-99,left,none,-99,-99,0.1,1,AccAcc,5,18,Woman,Right,
47,10,1,1.5493876000000455,['n'],1,right,['0'],6,0.4840215999997781,0.4,0,AccAcc,5,18,Woman,Right,
48,10,1,2.6994285999999192,['n'],1,right,['9'],5,1.917063099999723,0.2,0,AccAcc,5,18,Woman,Right,
49,10,1,2.715947000000142,['c'],1,left,['9'],5,1.3671886999995877,0.4,0,AccAcc,5,18,Woman,Right,
50,10,1,2.0327861000000667,['n'],1,right,['8'],4,0.9171950999998444,0.2,0,AccAcc,5,18,Woman,Right,
51,10,1,3.949789399999645,['n'],0,left,['3'],3,1.4005139000000781,0.1,0,AccAcc,5,18,Woman,Right,
52,10,1,4.06612959999984,['n'],1,right,['2'],2,0.6509366000000227,0.1,0,AccAcc,5,18,Woman,Right,
53,10,1,3.4993650999999772,['n'],1,right,['8'],4,1.5005380000002333,0.2,0,AccAcc,5,18,Woman,Right,
54,10,1,4.966478800000004,['c'],1,left,['8'],4,0.6337788999999248,0.1,0,AccAcc,5,18,Woman,Right,
55,10,1,2.06619690000025,['c'],1,left,['0'],6,0.7172818999997617,0.4,0,AccAcc,5,18,Woman,Right,
56,10,1,2.8831709999999475,['c'],1,left,['9'],5,0.7672370000000228,0.4,0,AccAcc,5,18,Woman,Right,
57,10,1,1.5325042000004032,['n'],1,right,['9'],5,1.083483299999898,0.4,0,AccAcc,5,18,Woman,Right,
58,10,1,2.182791200000338,['n'],1,right,['8'],4,0.550531299999875,0.1,0,AccAcc,5,18,Woman,Right,
59,10,1,3.4496486999996705,['c'],1,left,['8'],4,0.950471799999832,0.2,0,AccAcc,5,18,Woman,Right,
0,11,1,0.7826554999996915,['c'],1,left,['9'],5,1.4338502999999037,0.4,0,FastAcc,5,18,Woman,Right,
1,11,1,0.4662892000001193,['c'],1,left,['9'],5,0.9839022999999543,0.4,0,FastAcc,5,18,Woman,Right,
2,11,1,0.39969509999991715,['c'],1,left,['0'],6,0.8839175999996769,0.4,0,FastAcc,5,18,Woman,Right,
3,11,1,0.5331184000001485,['c'],1,left,['8'],4,1.0337937000003876,0.1,0,FastAcc,5,18,Woman,Right,
4,11,1,0.5495934999999008,['n'],1,right,['8'],4,1.0338185000000522,0.2,0,FastAcc,5,18,Woman,Right,
5,11,1,0.4498266999999032,['n'],1,right,['9'],5,1.3506485000002613,0.4,0,FastAcc,5,18,Woman,Right,
6,11,1,0.4171622999997453,['n'],1,right,['8'],4,0.8338481999999203,0.1,0,FastAcc,5,18,Woman,Right,
7,11,1,0.4830925000001116,['n'],1,right,['9'],5,0.9337888000000021,0.2,0,FastAcc,5,18,Woman,Right,
8,11,1,0.5663218999998207,['c'],1,left,['3'],3,0.8338856999998825,0.2,0,FastAcc,5,18,Woman,Right,
9,11,1,0.48300460000018575,['c'],1,left,['3'],3,0.8338305000002038,0.1,0,FastAcc,5,18,Woman,Right,
10,11,1,0.4161269999999604,['c'],1,left,['3'],3,0.8172560000002704,0.4,0,FastAcc,5,18,Woman,Right,
11,11,1,0.4664455000001908,['c'],1,left,['9'],5,0.9172832000003837,0.2,0,FastAcc,5,18,Woman,Right,
12,11,1,0.4997809999999845,['n'],1,right,['0'],6,0.8671046999997998,0.4,0,FastAcc,5,18,Woman,Right,
13,11,1,0.43286140000009254,['c'],1,left,['9'],5,0.8836934999999357,0.2,0,FastAcc,5,18,Woman,Right,
14,11,1,0.4830994999997529,['c'],1,left,['9'],5,0.8172450000001845,0.4,0,FastAcc,5,18,Woman,Right,
15,11,1,0.43363559999988865,['n'],1,right,['9'],5,0.733968300000015,0.1,0,FastAcc,5,18,Woman,Right,
16,11,1,0.48289150000027803,['c'],1,left,['8'],4,0.8173593999999866,0.1,0,FastAcc,5,18,Woman,Right,
17,11,1,0.4165509999997994,['c'],1,left,['8'],4,0.8504947000001266,0.2,0,FastAcc,5,18,Woman,Right,
18,11,1,0.68286420000004,['n'],1,right,['9'],5,0.7504726000001938,0.2,0,FastAcc,5,18,Woman,Right,
19,11,1,0.46654420000004393,['c'],1,left,['8'],4,0.8838749999999891,0.4,0,FastAcc,5,18,Woman,Right,
20,11,1,0.5326467999998385,['c'],1,left,['9'],5,0.800441000000319,0.4,0,FastAcc,5,18,Woman,Right,
21,11,1,0.4498493999999482,['c'],1,left,['9'],5,0.833834300000035,0.2,0,FastAcc,5,18,Woman,Right,
22,11,1,0.6329341000000568,['n'],1,right,['9'],5,0.6336065000000417,0.1,0,FastAcc,5,18,Woman,Right,
23,11,1,0.5332713000002514,['c'],0,right,['8'],4,0.9005412000001343,0.1,0,FastAcc,5,18,Woman,Right,
24,11,1,0.5995384999996531,['n'],1,right,['8'],4,0.6506667999997262,0.1,0,FastAcc,5,18,Woman,Right,
25,11,1,0.5668888999998671,['n'],1,right,['9'],5,0.7005715000000237,0.2,0,FastAcc,5,18,Woman,Right,
26,11,1,0.71631699999989,['c'],0,right,['8'],4,0.6671036000002459,0.2,0,FastAcc,5,18,Woman,Right,
27,11,1,0.9833800000001247,['c'],1,left,['8'],4,0.18382840000003853,0.1,0,FastAcc,5,18,Woman,Right,
28,11,1,0.7996081000001141,['n'],0,left,['8'],4,0.5837862999997014,0.1,0,FastAcc,5,18,Woman,Right,
29,11,1,0.9660415000003013,['c'],1,left,['3'],3,0.5171804999999949,0.1,0,FastAcc,5,18,Woman,Right,
30,11,1,0.9829423000001043,['c'],1,left,['3'],3,0.567313699999886,0.4,0,FastAcc,5,18,Woman,Right,
31,11,1,0.9662263000000166,['n'],1,right,['8'],4,0.650488199999927,0.2,0,FastAcc,5,18,Woman,Right,
32,11,1,0.8314662999996472,['c'],1,left,['3'],3,0.9340178000002197,0.4,0,FastAcc,5,18,Woman,Right,
33,11,1,1.0993189000000712,['c'],1,left,['3'],3,0.383554500000173,0.2,0,FastAcc,5,18,Woman,Right,
34,11,1,0.8498804000000746,['c'],0,right,['3'],3,0.5171722000000045,0.1,0,FastAcc,5,18,Woman,Right,
35,11,1,1.482973900000161,['c'],1,left,['2'],2,0.41730039999993096,0.4,0,FastAcc,5,18,Woman,Right,
36,11,1,1.3827366999998958,['c'],1,left,['2'],2,0.4506372000000738,0.2,0,FastAcc,5,18,Woman,Right,
37,11,1,0.8659883000000264,['n'],1,right,['9'],5,0.5172975000000406,0.4,0,FastAcc,5,18,Woman,Right,
38,11,1,1.8491635000000315,['n'],1,right,['9'],5,0.38395500000024185,0.4,0,FastAcc,5,18,Woman,Right,
39,11,1,0.5165087000000312,['n'],1,right,['8'],4,0.7004138000002058,0.2,0,FastAcc,5,18,Woman,Right,
40,11,1,0.43293739999990066,['n'],1,right,['3'],3,0.9504738000000543,0.1,0,FastAcc,5,18,Woman,Right,
41,11,1,0.7998195000000123,['n'],1,right,['2'],2,0.7337356000002728,0.4,0,FastAcc,5,18,Woman,Right,
42,11,1,0.48286300000017945,['n'],1,right,['8'],4,0.7669237000000066,0.4,0,FastAcc,5,18,Woman,Right,
43,11,1,0.5498609000001125,['n'],0,left,['8'],4,0.8671265000002677,0.1,0,FastAcc,5,18,Woman,Right,
44,11,1,0.9165275999998812,['c'],1,left,['3'],3,0.8005763999999544,0.1,0,FastAcc,5,18,Woman,Right,
45,11,1,0.466063800000029,['c'],1,left,['3'],3,0.7172390000000632,0.2,0,FastAcc,5,18,Woman,Right,
46,11,1,0.3997425999996267,['c'],0,right,['1'],1,1.1667505999998866,0.1,0,FastAcc,5,18,Woman,Right,
47,11,1,2.0837501000000884,['c'],0,right,['8'],4,0.800535200000013,0.1,0,FastAcc,5,18,Woman,Right,
48,11,1,1.5661724999999933,['c'],1,left,['2'],2,0.8170712999999523,0.1,0,FastAcc,5,18,Woman,Right,
49,11,1,0.7832192000000759,['c'],1,left,['2'],2,0.7004904000000352,0.2,0,FastAcc,5,18,Woman,Right,
50,11,1,2.549438200000168,['c'],0,right,['8'],4,1.1669824999999037,0.2,0,FastAcc,5,18,Woman,Right,
51,11,1,0.9495148999999401,['c'],0,right,['2'],2,0.46724940000012793,0.2,0,FastAcc,5,18,Woman,Right,
52,11,1,1.3658747000004041,['c'],0,right,['3'],3,0.867176599999766,0.1,0,FastAcc,5,18,Woman,Right,
53,11,1,0.6662627000000612,['c'],1,left,['2'],2,0.8004906999999548,0.4,0,FastAcc,5,18,Woman,Right,
54,11,1,0.949906600000304,['c'],0,right,['3'],3,0.8007579000000078,0.2,0,FastAcc,5,18,Woman,Right,
55,11,1,0.7827732000000651,['c'],0,right,['3'],3,0.7172712000001411,0.2,0,FastAcc,5,18,Woman,Right,
56,11,1,1.1498610999997254,['n'],1,right,['9'],5,1.3507211000001007,0.4,0,FastAcc,5,18,Woman,Right,
57,11,1,2.5162983999998687,['n'],1,right,['9'],5,0.5672649999996793,0.4,0,FastAcc,5,18,Woman,Right,
58,11,1,0.7823533999999199,['c'],1,left,['3'],3,0.9838480999997046,0.4,0,FastAcc,5,18,Woman,Right,
59,11,1,0.565983999999844,['c'],0,right,['3'],3,0.3338337000000138,0.1,0,FastAcc,5,18,Woman,Right,
0,12,1,1.0159865000000536,['n'],1,right,['9'],5,0.40055249999977605,0.1,0,FastFast,5,18,Woman,Right,
1,12,1,0.6159649999999601,['c'],1,left,['2'],2,0.4169827000000623,0.2,0,FastFast,5,18,Woman,Right,
2,12,1,0.6322047999997267,['c'],1,left,['9'],5,0.567179600000145,0.4,0,FastFast,5,18,Woman,Right,
3,12,1,0.48218260000021473,['c'],1,left,['8'],4,0.5672640000002502,0.1,0,FastFast,5,18,Woman,Right,
4,12,1,0.5170740000003207,['c'],1,left,['0'],6,0.46739720000005036,0.4,0,FastFast,5,18,Woman,Right,
5,12,1,0.8163540000000467,['n'],1,right,['8'],4,0.43374949999997625,0.1,0,FastFast,5,18,Woman,Right,
6,12,1,0.48297009999987495,['c'],1,left,['0'],6,0.417176500000096,0.2,0,FastFast,5,18,Woman,Right,
7,12,1,0.549494699999741,['n'],1,right,['9'],5,0.26720030000024053,0.2,0,FastFast,5,18,Woman,Right,
8,12,1,0.49918049999996583,['c'],1,left,['0'],6,0.33389579999993657,0.4,0,FastFast,5,18,Woman,Right,
9,12,1,0.4662548000001152,['c'],1,left,['0'],6,0.21716419999984282,0.2,0,FastFast,5,18,Woman,Right,
10,12,1,0.46586189999970884,['c'],0,right,['9'],5,0.2505301999999574,0.1,0,FastFast,5,18,Woman,Right,
11,12,1,0.4828290000000379,['n'],1,right,['9'],5,0.20049010000002454,0.4,0,FastFast,5,18,Woman,Right,
12,12,1,0.44959490000019287,['c'],1,left,['8'],4,0.2671556000000237,0.2,0,FastFast,5,18,Woman,Right,
13,12,1,0.43276479999985895,['c'],1,left,['8'],4,0.16725069999984044,0.1,0,FastFast,5,18,Woman,Right,
14,12,1,0.5495449000000008,['n'],1,right,['8'],4,0.23382930000025226,0.4,0,FastFast,5,18,Woman,Right,
15,12,1,0.4161991000000853,['c'],1,left,['0'],6,0.25050599999985934,0.4,0,FastFast,5,18,Woman,Right,
16,12,1,0.4829423000001043,['c'],1,left,['9'],5,0.26732350000020233,0.2,0,FastFast,5,18,Woman,Right,
17,12,1,0.4995113999998466,['c'],1,left,['8'],4,0.16715320000002976,0.1,0,FastFast,5,18,Woman,Right,
18,12,1,0.9988705999999183,['c'],1,left,['3'],3,0.23390470000003916,0.1,0,FastFast,5,18,Woman,Right,
19,12,1,0.616372500000125,['n'],1,right,['8'],4,0.200554000000011,0.1,0,FastFast,5,18,Woman,Right,
20,12,1,0.46608980000019073,['c'],1,left,['8'],4,0.18364549999978408,0.4,0,FastFast,5,18,Woman,Right,
21,12,1,0.6322985000001609,['c'],0,right,['8'],4,0.23383110000031593,0.1,0,FastFast,5,18,Woman,Right,
22,12,1,0.5324824999997873,['c'],0,right,['8'],4,0.18365880000010293,0.1,0,FastFast,5,18,Woman,Right,
23,12,1,0.565042999999605,['c'],1,left,['8'],4,0.1838423000003786,0.4,0,FastFast,5,18,Woman,Right,
24,12,1,0.4662079999998241,['n'],1,right,['0'],6,0.2671704999997928,0.4,0,FastFast,5,18,Woman,Right,
25,12,1,0.4163875999997799,['c'],1,left,['0'],6,0.28397929999982807,0.2,0,FastFast,5,18,Woman,Right,
26,12,1,0.5330916000002617,['c'],0,right,['9'],5,0.21717100000023493,0.4,0,FastFast,5,18,Woman,Right,
27,12,1,0.49944630000027246,['c'],1,left,['8'],4,0.2169791000001169,0.2,0,FastFast,5,18,Woman,Right,
28,12,1,0.6661960999999792,['n'],1,right,['0'],6,0.23381619999963732,0.4,0,FastFast,5,18,Woman,Right,
29,12,1,0.46597960000008243,['c'],1,left,['9'],5,0.1671902000002774,0.2,0,FastFast,5,18,Woman,Right,
30,12,1,0.8161005000001751,['c'],0,right,['3'],3,0.21715229999972507,0.2,0,FastFast,5,18,Woman,Right,
31,12,1,0.5335142000003543,['n'],1,right,['0'],6,0.23394479999979012,0.4,0,FastFast,5,18,Woman,Right,
32,12,1,0.600561899999775,['n'],1,right,['0'],6,0.20040239999980258,0.2,0,FastFast,5,18,Woman,Right,
33,12,1,0.5331028000000515,['c'],1,left,['9'],5,0.21716460000016014,0.2,0,FastFast,5,18,Woman,Right,
34,12,1,0.5165560000000369,['c'],1,left,['8'],4,0.20053090000010343,0.1,0,FastFast,5,18,Woman,Right,
35,12,1,0.549380100000235,['c'],0,right,['9'],5,0.16704939999999624,0.2,0,FastFast,5,18,Woman,Right,
36,12,1,0.5653853000003437,['c'],0,right,['0'],6,0.1835468999997829,0.1,0,FastFast,5,18,Woman,Right,
37,12,1,0.6321721999997862,['c'],1,left,['9'],5,0.21716830000013942,0.1,0,FastFast,5,18,Woman,Right,
38,12,1,0.5493206999999529,['c'],1,left,['8'],4,0.21708840000019336,0.2,0,FastFast,5,18,Woman,Right,
39,12,1,0.882370599999831,['n'],1,right,['8'],4,0.18368000000009488,0.2,0,FastFast,5,18,Woman,Right,
40,12,1,0.7497787000002063,['n'],0,left,['9'],5,0.2504212999997435,0.1,0,FastFast,5,18,Woman,Right,
41,12,1,0.8829909999999472,['n'],1,right,['8'],4,0.18376859999989392,0.2,0,FastFast,5,18,Woman,Right,
42,12,1,0.7835382000002937,['n'],1,right,['3'],3,0.6505821999999171,0.4,0,FastFast,5,18,Woman,Right,
43,12,1,0.5164191000003484,['c'],1,left,['3'],3,0.633774099999755,0.4,0,FastFast,5,18,Woman,Right,
44,12,1,0.6660865999997441,['c'],0,right,['3'],3,0.1838199999997414,0.1,0,FastFast,5,18,Woman,Right,
45,12,1,0.5661540999999488,['n'],1,right,['8'],4,0.19987729999957082,0.2,0,FastFast,5,18,Woman,Right,
46,12,1,0.5318412999999964,['c'],0,right,['1'],1,1.217174299999897,0.4,0,FastFast,5,18,Woman,Right,
47,12,1,1.2669731000000866,['c'],1,left,['2'],2,0.21716150000020207,0.4,0,FastFast,5,18,Woman,Right,
48,12,1,0.9332486000002973,['n'],1,right,['9'],5,0.18382040000005873,0.1,0,FastFast,5,18,Woman,Right,
49,12,1,0.6321496000000479,['n'],1,right,['9'],5,0.16723060000003898,0.1,0,FastFast,5,18,Woman,Right,
50,12,1,0.5492557000002307,['n'],1,right,['9'],5,0.16725050000013653,0.2,0,FastFast,5,18,Woman,Right,
51,12,1,0.6829097000004367,['c'],1,left,['2'],2,0.23398679999991145,0.4,0,FastFast,5,18,Woman,Right,
52,12,1,0.7162732000001597,['c'],1,left,['9'],5,0.18352869999989707,0.2,0,FastFast,5,18,Woman,Right,
53,12,1,0.582654299999831,['c'],1,left,['9'],5,0.18381719999979396,0.1,0,FastFast,5,18,Woman,Right,
54,12,1,0.7481966999998804,['n'],0,left,['8'],4,0.1338279000001421,0.1,0,FastFast,5,18,Woman,Right,
55,12,1,0.9164989999999307,['n'],1,right,['8'],4,0.10042810000004465,0.1,0,FastFast,5,18,Woman,Right,
56,12,1,0.6152436000002126,['c'],1,left,['8'],4,0.16723410000031436,0.2,0,FastFast,5,18,Woman,Right,
57,12,1,0.8325838999999178,['c'],0,right,['9'],5,0.23379400000021633,0.4,0,FastFast,5,18,Woman,Right,
58,12,1,1.265508399999817,['n'],1,right,['0'],6,0.2004466000003049,0.4,0,FastFast,5,18,Woman,Right,
59,12,1,0.5661027000001013,['n'],1,right,['9'],5,0.16715649999969173,0.4,0,FastFast,5,18,Woman,Right,
0,13,1,1.3327798999998777,['c'],1,left,['9'],5,0.4504243999999744,0.4,0,AccFast,5,18,Woman,Right,
1,13,1,0.8167410000000928,['n'],1,right,['9'],5,0.5838662000001023,0.4,0,AccFast,5,18,Woman,Right,
2,13,1,0.616194600000199,['n'],1,right,['9'],5,0.7171856999998454,0.2,0,AccFast,5,18,Woman,Right,
3,13,1,0.6835056999998415,['c'],1,left,['0'],6,0.8339341999999306,0.4,0,AccFast,5,18,Woman,Right,
4,13,1,1.7165893999999753,['c'],1,left,['9'],5,0.15051439999979266,0.2,0,AccFast,5,18,Woman,Right,
5,13,1,1.550216999999975,['n'],1,right,['9'],5,0.1672871999999188,0.2,0,AccFast,5,18,Woman,Right,
6,13,1,1.3497705000004316,['c'],1,left,['9'],5,0.06699979999984862,0.4,0,AccFast,5,18,Woman,Right,
7,13,1,1.4502085000003717,['c'],1,left,['9'],5,2.9339561000001595,0.4,0,AccFast,5,18,Woman,Right,
8,13,1,1.6829456000000391,['c'],0,right,['9'],5,0.05050669999991442,0.2,0,AccFast,5,18,Woman,Right,
9,13,1,1.7329466999999568,['c'],1,left,['8'],4,0.08370659999991403,0.1,0,AccFast,5,18,Woman,Right,
10,13,1,1.9663198999996894,['c'],1,left,['0'],6,0.1340187999999216,0.4,0,AccFast,5,18,Woman,Right,
11,13,1,1.7333122000000003,['n'],1,right,['0'],6,0.08384009999963382,0.2,0,AccFast,5,18,Woman,Right,
12,13,1,1.1498833999999079,['n'],1,right,['9'],5,0.06717620000017632,0.1,0,AccFast,5,18,Woman,Right,
13,13,1,1.0160788000002867,['n'],1,right,['0'],6,0.08393640000031155,0.4,0,AccFast,5,18,Woman,Right,
14,13,1,1.3661262999999053,['c'],0,right,['8'],4,0.08377089999976306,0.1,0,AccFast,5,18,Woman,Right,
15,13,1,1.4000006999999641,['c'],1,left,['9'],5,0.06716179999966698,0.2,0,AccFast,5,18,Woman,Right,
16,13,1,0.7499398999998448,['c'],1,left,['9'],5,0.050583300000198506,0.4,0,AccFast,5,18,Woman,Right,
17,13,1,0.6659936999999445,['c'],0,right,['9'],5,0.05050540000002002,0.1,0,AccFast,5,18,Woman,Right,
18,13,1,0.7507057999996505,['c'],0,right,['9'],5,0.21694520000028206,0.1,0,AccFast,5,18,Woman,Right,
19,13,1,0.5163493999998536,['c'],1,left,['3'],3,0.6505464000001666,0.4,0,AccFast,5,18,Woman,Right,
20,13,1,1.1505018999996537,['c'],1,left,['8'],4,0.18397700000014083,0.2,0,AccFast,5,18,Woman,Right,
21,13,1,0.8163117999997667,['c'],0,right,['9'],5,0.20041089999995165,0.4,0,AccFast,5,18,Woman,Right,
22,13,1,1.3494869000001017,['n'],0,left,['9'],5,0.7503869000001941,0.1,0,AccFast,5,18,Woman,Right,
23,13,1,2.383674200000314,['c'],0,right,['3'],3,0.40061710000009043,0.1,0,AccFast,5,18,Woman,Right,
24,13,1,1.250120700000025,['c'],1,left,['9'],5,0.11711439999999129,0.4,0,AccFast,5,18,Woman,Right,
25,13,1,0.7167223000001286,['c'],1,left,['9'],5,0.5673156999996536,0.4,0,AccFast,5,18,Woman,Right,
26,13,1,1.1834141999997883,['n'],1,right,['9'],5,0.11721330000000307,0.4,0,AccFast,5,18,Woman,Right,
27,13,1,1.366368699999839,['n'],0,left,['3'],3,0.11728070000026491,0.1,0,AccFast,5,18,Woman,Right,
28,13,1,1.4833402999997816,['n'],1,right,['9'],5,0.13379940000004353,0.4,0,AccFast,5,18,Woman,Right,
29,13,1,1.1836299999999937,['c'],1,left,['9'],5,0.18378190000021277,0.1,0,AccFast,5,18,Woman,Right,
30,13,1,5.000129300000026,x,-99,left,none,-99,-99,0.4,1,AccFast,5,18,Woman,Right,
31,13,1,1.8830331999997725,['n'],1,right,['9'],5,0.45054780000009487,0.2,0,AccFast,5,18,Woman,Right,
32,13,1,1.3327221999998073,['c'],0,right,['3'],3,0.5505053000001681,0.2,0,AccFast,5,18,Woman,Right,
33,13,1,1.7832674999999654,['c'],1,left,['9'],5,0.3170792999999321,0.2,0,AccFast,5,18,Woman,Right,
34,13,1,1.4003270999996857,['c'],1,left,['9'],5,0.21723960000008447,0.1,0,AccFast,5,18,Woman,Right,
35,13,1,1.7830360000002656,['n'],1,right,['9'],5,0.2834288999997625,0.1,0,AccFast,5,18,Woman,Right,
36,13,1,3.432660500000111,['c'],0,right,['9'],5,0.200481000000309,0.1,0,AccFast,5,18,Woman,Right,
37,13,1,1.1995756999999685,['c'],1,left,['9'],5,0.21716879999985395,0.1,0,AccFast,5,18,Woman,Right,
38,13,1,0.6661680000001979,['c'],1,left,['9'],5,0.1506019000003107,0.4,0,AccFast,5,18,Woman,Right,
39,13,1,1.4997671000000992,['n'],1,right,['9'],5,0.2005525999998099,0.1,0,AccFast,5,18,Woman,Right,
40,13,1,0.8330187999999907,['c'],0,right,['2'],2,0.40049920000001293,0.1,0,AccFast,5,18,Woman,Right,
41,13,1,0.749613799999679,['c'],1,left,['2'],2,0.21730200000001787,0.2,0,AccFast,5,18,Woman,Right,
42,13,1,0.7331406999996943,['c'],1,left,['2'],2,0.16717749999997977,0.1,0,AccFast,5,18,Woman,Right,
43,13,1,0.7331660999998348,['c'],0,right,['2'],2,0.23374839999996766,0.4,0,AccFast,5,18,Woman,Right,
44,13,1,0.6831599000001916,['c'],0,right,['2'],2,0.2504689000002145,0.2,0,AccFast,5,18,Woman,Right,
45,13,1,0.749762500000088,['c'],1,left,['2'],2,0.2005616999999802,0.4,0,AccFast,5,18,Woman,Right,
46,13,1,0.7164952000002813,['c'],1,left,['2'],2,0.16736760000003414,0.4,0,AccFast,5,18,Woman,Right,
47,13,1,0.6997446000000309,['c'],0,right,['9'],5,0.15051549999998315,0.2,0,AccFast,5,18,Woman,Right,
48,13,1,1.016193999999814,['n'],1,right,['9'],5,0.15066999999999098,0.2,0,AccFast,5,18,Woman,Right,
49,13,1,0.816342000000077,['c'],0,right,['9'],5,0.13383589999966716,0.4,0,AccFast,5,18,Woman,Right,
50,13,1,0.7159099000000424,['c'],1,left,['2'],2,0.16726639999978943,0.2,0,AccFast,5,18,Woman,Right,
51,13,1,0.7663421000002018,['c'],1,left,['2'],2,0.20065430000022388,0.1,0,AccFast,5,18,Woman,Right,
52,13,1,2.0164614999998776,['c'],0,right,['2'],2,0.21694309999975303,0.2,0,AccFast,5,18,Woman,Right,
53,13,1,1.199670700000297,['c'],1,left,['2'],2,0.183892300000025,0.2,0,AccFast,5,18,Woman,Right,
54,13,1,0.8659723999999187,['c'],1,left,['9'],5,0.3674026000003323,0.2,0,AccFast,5,18,Woman,Right,
55,13,1,0.7159105000000636,['c'],0,right,['9'],5,0.13399639999988722,0.2,0,AccFast,5,18,Woman,Right,
56,13,1,1.2333372000002782,['c'],0,right,['3'],3,0.7508864999999787,0.1,0,AccFast,5,18,Woman,Right,
57,13,1,3.0996272000002136,['n'],1,right,['0'],6,0.3671616999999969,0.2,0,AccFast,5,18,Woman,Right,
58,13,1,0.8665033999996012,['c'],1,left,['9'],5,0.16740840000011303,0.1,0,AccFast,5,18,Woman,Right,
59,13,1,1.3159443999998075,['c'],0,right,['8'],4,0.6672616999999263,0.1,0,AccFast,5,18,Woman,Right,
0,14,1,1.4501844999999776,['c'],0,right,['9'],5,1.0341006999997262,0.2,0,AccAcc,5,18,Woman,Right,
1,14,1,0.8497812000000522,['c'],1,left,['8'],4,1.150427700000364,0.2,0,AccAcc,5,18,Woman,Right,
2,14,1,1.5993224000003465,['c'],1,left,['9'],5,0.9337205000001632,0.4,0,AccAcc,5,18,Woman,Right,
3,14,1,1.7168249000001197,['c'],1,left,['9'],5,0.36719589999984237,0.4,0,AccAcc,5,18,Woman,Right,
4,14,1,2.3664177000000564,['c'],1,left,['0'],6,0.5172413000000233,0.4,0,AccAcc,5,18,Woman,Right,
5,14,1,1.9655412000001888,['c'],0,right,['3'],3,0.3338424999997187,0.2,0,AccAcc,5,18,Woman,Right,
6,14,1,1.4002715000001444,['c'],1,left,['8'],4,0.43386429999964093,0.4,0,AccAcc,5,18,Woman,Right,
7,14,1,1.716341100000136,['n'],1,right,['9'],5,0.8337768000001233,0.4,0,AccAcc,5,18,Woman,Right,
8,14,1,1.8324257999997826,['n'],1,right,['2'],2,0.6338393000000906,0.1,0,AccAcc,5,18,Woman,Right,
9,14,1,1.382999199999631,['c'],1,left,['2'],2,0.4838446000003387,0.1,0,AccAcc,5,18,Woman,Right,
10,14,1,1.3666958999997405,['n'],1,right,['8'],4,0.500412200000028,0.2,0,AccAcc,5,18,Woman,Right,
11,14,1,2.115621999999803,['c'],0,right,['8'],4,0.5004766000001837,0.1,0,AccAcc,5,18,Woman,Right,
12,14,1,2.4993727000000945,['c'],1,left,['9'],5,1.4505160000003343,0.4,0,AccAcc,5,18,Woman,Right,
13,14,1,2.4664772000000994,['n'],0,left,['9'],5,0.4506423999996514,0.2,0,AccAcc,5,18,Woman,Right,
14,14,1,1.366374299999734,['c'],1,left,['8'],4,0.9005495999999766,0.1,0,AccAcc,5,18,Woman,Right,
15,14,1,2.132820399999673,['c'],1,left,['9'],5,0.7844015000000581,0.4,0,AccAcc,5,18,Woman,Right,
16,14,1,3.3993248000001586,['n'],1,right,['9'],5,1.450804699999935,0.1,0,AccAcc,5,18,Woman,Right,
17,14,1,3.3161043999998583,['c'],1,left,['9'],5,0.6338363999998364,0.1,0,AccAcc,5,18,Woman,Right,
18,14,1,2.549703099999988,['n'],1,right,['9'],5,0.8671807000000626,0.2,0,AccAcc,5,18,Woman,Right,
19,14,1,5.0163760999998885,x,-99,left,none,-99,-99,0.2,1,AccAcc,5,18,Woman,Right,
20,14,1,1.6157616000000417,['n'],1,right,['9'],5,0.4504266000003554,0.2,0,AccAcc,5,18,Woman,Right,
21,14,1,1.966433699999925,['n'],1,right,['0'],6,0.767190699999901,0.4,0,AccAcc,5,18,Woman,Right,
22,14,1,1.3828389999998763,['n'],1,right,['9'],5,1.2671116999999867,0.2,0,AccAcc,5,18,Woman,Right,
23,14,1,1.832608899999741,['c'],1,left,['8'],4,0.8502637999999934,0.2,0,AccAcc,5,18,Woman,Right,
24,14,1,1.7328294000003552,['c'],1,left,['9'],5,0.8007231999999931,0.4,0,AccAcc,5,18,Woman,Right,
25,14,1,2.0663564999999835,['c'],1,left,['8'],4,1.45047489999979,0.2,0,AccAcc,5,18,Woman,Right,
26,14,1,3.5664138000001913,['c'],0,right,['2'],2,0.4672590999998647,0.1,0,AccAcc,5,18,Woman,Right,
27,14,1,3.76616550000017,['n'],0,left,['9'],5,0.2669945999996344,0.2,0,AccAcc,5,18,Woman,Right,
28,14,1,3.5328468999996403,['c'],1,left,['3'],3,0.41719000000011874,0.1,0,AccAcc,5,18,Woman,Right,
29,14,1,1.482605700000022,['n'],1,right,['9'],5,0.7339265999999043,0.4,0,AccAcc,5,18,Woman,Right,
30,14,1,2.716364899999917,['c'],0,right,['8'],4,0.5836813000000802,0.1,0,AccAcc,5,18,Woman,Right,
31,14,1,2.1500207999997656,['n'],1,right,['9'],5,0.30049659999986034,0.2,0,AccAcc,5,18,Woman,Right,
32,14,1,2.0496478999998544,['n'],1,right,['9'],5,0.4172214999998687,0.4,0,AccAcc,5,18,Woman,Right,
33,14,1,3.665839799999958,['n'],1,right,['9'],5,0.36714529999972,0.4,0,AccAcc,5,18,Woman,Right,
34,14,1,2.483147299999928,['n'],1,right,['9'],5,0.300293999999667,0.2,0,AccAcc,5,18,Woman,Right,
35,14,1,1.9495679000001473,['c'],1,left,['9'],5,0.4507733000000371,0.1,0,AccAcc,5,18,Woman,Right,
36,14,1,1.5658313999997517,['c'],1,left,['0'],6,0.4504948999997396,0.4,0,AccAcc,5,18,Woman,Right,
37,14,1,1.6995810000003075,['c'],1,left,['1'],1,0.31720389999964027,0.1,0,AccAcc,5,18,Woman,Right,
38,14,1,1.6163409000000684,['n'],1,right,['9'],5,0.5339945000000625,0.4,0,AccAcc,5,18,Woman,Right,
39,14,1,1.8329278999999588,['n'],1,right,['3'],3,0.30060050000020055,0.1,0,AccAcc,5,18,Woman,Right,
40,14,1,1.8495990000001257,['n'],1,right,['0'],6,1.0005525999999918,0.4,0,AccAcc,5,18,Woman,Right,
41,14,1,1.8494203000000198,['n'],1,right,['0'],6,0.3672068000000763,0.2,0,AccAcc,5,18,Woman,Right,
42,14,1,1.4831082999999126,['n'],1,right,['0'],6,0.35052660000019387,0.4,0,AccAcc,5,18,Woman,Right,
43,14,1,1.7663209000002098,['c'],1,left,['2'],2,0.367089599999872,0.1,0,AccAcc,5,18,Woman,Right,
44,14,1,1.5994184000001042,['n'],1,right,['0'],6,0.2834766999999374,0.4,0,AccAcc,5,18,Woman,Right,
45,14,1,2.91522759999998,['c'],0,right,['2'],2,0.45048350000024584,0.2,0,AccAcc,5,18,Woman,Right,
46,14,1,1.5997673000001669,['c'],1,left,['2'],2,0.36729920000016136,0.1,0,AccAcc,5,18,Woman,Right,
47,14,1,1.4661182999998346,['c'],0,right,['3'],3,0.2838234000000739,0.1,0,AccAcc,5,18,Woman,Right,
48,14,1,1.615982399999666,['n'],1,right,['0'],6,0.6004534999997304,0.4,0,AccAcc,5,18,Woman,Right,
49,14,1,4.949423200000183,['c'],1,left,['9'],5,3.767048899999736,0.4,0,AccAcc,5,18,Woman,Right,
50,14,1,4.999435000000176,['n'],1,right,['9'],5,3.2837956999997004,0.1,0,AccAcc,5,18,Woman,Right,
51,14,1,3.549484399999983,['c'],1,left,['2'],2,3.633756500000345,0.1,0,AccAcc,5,18,Woman,Right,
52,14,1,4.316260499999771,['n'],1,right,['9'],5,3.883860999999797,0.1,0,AccAcc,5,18,Woman,Right,
53,14,1,2.4325189999999566,['c'],1,left,['9'],5,2.850518799999918,0.2,0,AccAcc,5,18,Woman,Right,
54,14,1,2.782777200000055,['c'],1,left,['8'],4,3.0169205000001966,0.2,0,AccAcc,5,18,Woman,Right,
55,14,1,3.2152085000002444,['n'],1,right,['9'],5,2.367125500000384,0.4,0,AccAcc,5,18,Woman,Right,
56,14,1,2.532892400000037,['c'],1,left,['9'],5,1.4004046000000017,0.1,0,AccAcc,5,18,Woman,Right,
57,14,1,1.8161464999998316,['c'],1,left,['9'],5,1.2171618000002127,0.1,0,AccAcc,5,18,Woman,Right,
58,14,1,3.5492750999997043,['c'],1,left,['9'],5,3.2008216999997785,0.2,0,AccAcc,5,18,Woman,Right,
59,14,1,1.916131200000109,['c'],1,left,['9'],5,1.350654399999712,0.2,0,AccAcc,5,18,Woman,Right,
0,15,1,0.9989153999995324,['n'],1,right,['9'],5,0.8337837999997646,0.2,0,FastAcc,5,18,Woman,Right,
1,15,1,0.48287189999973634,['c'],1,left,['8'],4,1.083927699999549,0.4,0,FastAcc,5,18,Woman,Right,
2,15,1,0.39878239999961806,['c'],1,left,['9'],5,0.6671682999995028,0.4,0,FastAcc,5,18,Woman,Right,
3,15,1,0.6664050999997926,['c'],0,right,['8'],4,0.5671795999996903,0.1,0,FastAcc,5,18,Woman,Right,
4,15,1,0.515539500000159,['c'],0,right,['9'],5,0.4337473999994472,0.1,0,FastAcc,5,18,Woman,Right,
5,15,1,0.48208509999949456,['c'],0,right,['9'],5,0.1840357999999469,0.4,0,FastAcc,5,18,Woman,Right,
6,15,1,0.433211399999891,['c'],1,left,['2'],2,0.20048100000076374,0.1,0,FastAcc,5,18,Woman,Right,
7,15,1,0.4839297999997143,['c'],0,right,['9'],5,0.18381529999987833,0.2,0,FastAcc,5,18,Woman,Right,
8,15,1,0.5492077999997491,['c'],1,left,['0'],6,0.3172406999992745,0.2,0,FastAcc,5,18,Woman,Right,
9,15,1,0.4495137000003524,['c'],1,left,['0'],6,0.2505847000002177,0.2,0,FastAcc,5,18,Woman,Right,
10,15,1,0.4983777999996164,['c'],1,left,['9'],5,0.233752000000095,0.4,0,FastAcc,5,18,Woman,Right,
11,15,1,0.9495690999992803,['c'],1,left,['9'],5,0.28381139999964944,0.1,0,FastAcc,5,18,Woman,Right,
12,15,1,0.6487770000003366,['c'],0,right,['8'],4,0.2171585000005507,0.2,0,FastAcc,5,18,Woman,Right,
13,15,1,0.9162516999995205,['n'],1,right,['8'],4,0.15048470000056113,0.4,0,FastAcc,5,18,Woman,Right,
14,15,1,0.9829211999995096,['c'],0,right,['9'],5,0.11709489999975631,0.1,0,FastAcc,5,18,Woman,Right,
15,15,1,1.0163433999996414,['c'],1,left,['0'],6,0.13391329999922164,0.2,0,FastAcc,5,18,Woman,Right,
16,15,1,0.7667713000000731,['c'],1,left,['8'],4,0.16725659999974596,0.1,0,FastAcc,5,18,Woman,Right,
17,15,1,0.616157899999962,['c'],1,left,['9'],5,0.10051629999998113,0.2,0,FastAcc,5,18,Woman,Right,
18,15,1,0.7495890999998664,['c'],1,left,['8'],4,0.16722220000065136,0.4,0,FastAcc,5,18,Woman,Right,
19,15,1,0.5166785999999775,['n'],1,right,['9'],5,0.21683269999994081,0.2,0,FastAcc,5,18,Woman,Right,
20,15,1,1.549519400000463,['n'],1,right,['8'],4,0.40049120000003313,0.2,0,FastAcc,5,18,Woman,Right,
21,15,1,1.0829237000007197,['c'],0,right,['8'],4,0.3504712000003565,0.2,0,FastAcc,5,18,Woman,Right,
22,15,1,0.7495887000004586,['n'],1,right,['0'],6,0.467175199999474,0.4,0,FastAcc,5,18,Woman,Right,
23,15,1,0.6329700000005687,['c'],1,left,['9'],5,0.13381309999931545,0.1,0,FastAcc,5,18,Woman,Right,
24,15,1,0.6487546000007569,['n'],1,right,['0'],6,0.2005592000004981,0.4,0,FastAcc,5,18,Woman,Right,
25,15,1,0.8496903999994174,['n'],1,right,['9'],5,0.11709919999975682,0.1,0,FastAcc,5,18,Woman,Right,
26,15,1,0.5989642000004096,['n'],0,left,['8'],4,0.23380850000012288,0.2,0,FastAcc,5,18,Woman,Right,
27,15,1,1.000520100000358,['n'],1,right,['0'],6,0.23362530000031256,0.2,0,FastAcc,5,18,Woman,Right,
28,15,1,0.8830041000001074,['c'],1,left,['9'],5,0.2336992000000464,0.2,0,FastAcc,5,18,Woman,Right,
29,15,1,0.5821989999994912,['c'],1,left,['9'],5,0.16724950000025274,0.1,0,FastAcc,5,18,Woman,Right,
30,15,1,0.9485317999997278,['n'],0,left,['8'],4,0.2171317000002091,0.2,0,FastAcc,5,18,Woman,Right,
31,15,1,0.5828950000004625,['c'],1,left,['8'],4,0.18381850000059785,0.4,0,FastAcc,5,18,Woman,Right,
32,15,1,0.5162459000002855,['n'],1,right,['0'],6,0.1838272999993933,0.4,0,FastAcc,5,18,Woman,Right,
33,15,1,0.9328918999999587,['n'],1,right,['9'],5,0.2339017000003878,0.1,0,FastAcc,5,18,Woman,Right,
34,15,1,1.1666888999998264,['c'],0,right,['3'],3,0.25054070000078354,0.2,0,FastAcc,5,18,Woman,Right,
35,15,1,0.6162678999999116,['n'],1,right,['0'],6,0.16723330000058922,0.2,0,FastAcc,5,18,Woman,Right,
36,15,1,1.100081699999464,['c'],0,right,['8'],4,0.2004109999998036,0.1,0,FastAcc,5,18,Woman,Right,
37,15,1,0.7669980000000578,['c'],1,left,['0'],6,0.16717879999941943,0.4,0,FastAcc,5,18,Woman,Right,
38,15,1,1.0159683000001678,['c'],1,left,['3'],3,0.2505221999999776,0.1,0,FastAcc,5,18,Woman,Right,
39,15,1,0.8001424000003681,['c'],1,left,['0'],6,0.1672578000006979,0.4,0,FastAcc,5,18,Woman,Right,
40,15,1,0.6162588999995933,['c'],1,left,['0'],6,0.15036959999997634,0.4,0,FastAcc,5,18,Woman,Right,
41,15,1,0.9660817999993014,['c'],0,right,['8'],4,0.2671448999999484,0.1,0,FastAcc,5,18,Woman,Right,
42,15,1,0.7661420000004,['c'],0,right,['8'],4,0.16707699999915349,0.1,0,FastAcc,5,18,Woman,Right,
43,15,1,0.7667880999997578,['c'],1,left,['0'],6,0.15065899999990506,0.4,0,FastAcc,5,18,Woman,Right,
44,15,1,2.132797799999935,['n'],1,right,['8'],4,0.2838396000006469,0.4,0,FastAcc,5,18,Woman,Right,
45,15,1,1.0509411999992153,['c'],0,right,['9'],5,0.28385100000014063,0.4,0,FastAcc,5,18,Woman,Right,
46,15,1,0.9159084000002622,['c'],0,right,['8'],4,0.18380359999991924,0.2,0,FastAcc,5,18,Woman,Right,
47,15,1,0.783596100000068,['c'],0,right,['8'],4,0.13378170000032696,0.1,0,FastAcc,5,18,Woman,Right,
48,15,1,0.6663107000003947,['c'],1,left,['8'],4,0.13372270000036224,0.1,0,FastAcc,5,18,Woman,Right,
49,15,1,0.5492997000001196,['c'],1,left,['8'],4,0.1838266000004296,0.2,0,FastAcc,5,18,Woman,Right,
50,15,1,0.6331264000000374,['c'],1,left,['8'],4,0.15046849999998813,0.1,0,FastAcc,5,18,Woman,Right,
51,15,1,1.1337853999993968,['c'],1,left,['0'],6,0.21644360000027518,0.4,0,FastAcc,5,18,Woman,Right,
52,15,1,0.7173398999993879,['n'],1,right,['0'],6,0.3006415999998353,0.4,0,FastAcc,5,18,Woman,Right,
53,15,1,0.9161270999993576,['c'],1,left,['3'],3,0.3172197999992932,0.1,0,FastAcc,5,18,Woman,Right,
54,15,1,0.6998052999997526,['c'],0,right,['8'],4,0.16715629999998782,0.1,0,FastAcc,5,18,Woman,Right,
55,15,1,0.6506355000001349,['c'],1,left,['8'],4,0.1506071999992855,0.1,0,FastAcc,5,18,Woman,Right,
56,15,1,0.8161791000002268,['n'],1,right,['0'],6,0.25057939999987866,0.2,0,FastAcc,5,18,Woman,Right,
57,15,1,0.6496645000006538,['c'],1,left,['0'],6,0.2005497000000105,0.4,0,FastAcc,5,18,Woman,Right,
58,15,1,0.6159248000003572,['c'],1,left,['0'],6,0.15057170000000042,0.2,0,FastAcc,5,18,Woman,Right,
59,15,1,0.9998835999995208,['n'],1,right,['9'],5,0.23381259999950998,0.4,0,FastAcc,5,18,Woman,Right,
