withinblocktrial,block,block_repetition,rt,resp,cor,cresp,conf_press,cj,rtconf,coherence,slow_trial,manipulation,sub,age,gender,handedness,
0,1,1,4.566010300000016,['n'],0,left,none,-99,-99,0.5,0,none,2,18,Woman,Right,
1,1,1,5.01289799999995,x,-99,right,none,-99,-99,0.5,1,none,2,18,Woman,Right,
2,1,1,1.5138637000000017,['c'],0,right,none,-99,-99,0.5,0,none,2,18,Woman,Right,
3,1,1,3.2126993000001676,['n'],1,right,none,-99,-99,0.5,0,none,2,18,Woman,Right,
4,1,1,1.7462415999998484,['c'],0,right,none,-99,-99,0.5,0,none,2,18,Woman,Right,
5,1,1,0.9313164999994115,['n'],1,right,none,-99,-99,0.5,0,none,2,18,Woman,Right,
6,1,1,0.8975414000005912,['c'],1,left,none,-99,-99,0.5,0,none,2,18,Woman,Right,
7,1,1,0.8159802000000127,['n'],1,right,none,-99,-99,0.5,0,none,2,18,Woman,Right,
8,1,1,0.7496558000002551,['c'],1,left,none,-99,-99,0.5,0,none,2,18,Woman,Right,
9,1,1,0.8008577000000514,['n'],1,right,none,-99,-99,0.5,0,none,2,18,Woman,Right,
10,1,1,0.8472004000004745,['n'],1,right,none,-99,-99,0.5,0,none,2,18,Woman,Right,
11,1,1,0.9666661000001113,['c'],0,right,none,-99,-99,0.5,0,none,2,18,Woman,Right,
12,1,1,0.8339309000002686,['c'],1,left,none,-99,-99,0.5,0,none,2,18,Woman,Right,
13,1,1,1.3006388000003426,['n'],0,left,none,-99,-99,0.5,0,none,2,18,Woman,Right,
14,1,1,0.8661919999995007,['n'],1,right,none,-99,-99,0.5,0,none,2,18,Woman,Right,
15,1,1,0.7159929999997985,['c'],1,left,none,-99,-99,0.5,0,none,2,18,Woman,Right,
16,1,1,2.2160531999998057,['c'],1,left,none,-99,-99,0.5,0,none,2,18,Woman,Right,
17,1,1,0.9670803999997588,['c'],1,left,none,-99,-99,0.5,0,none,2,18,Woman,Right,
18,1,1,0.8505517000003238,['n'],0,left,none,-99,-99,0.5,0,none,2,18,Woman,Right,
19,1,1,1.04959400000007,['c'],1,left,none,-99,-99,0.5,0,none,2,18,Woman,Right,
20,1,1,0.8496237999997902,['c'],1,left,none,-99,-99,0.5,0,none,2,18,Woman,Right,
21,1,1,0.8839516999996704,['n'],1,right,none,-99,-99,0.5,0,none,2,18,Woman,Right,
22,1,1,1.000259599999481,['n'],1,right,none,-99,-99,0.5,0,none,2,18,Woman,Right,
23,1,1,0.8137769000004482,['c'],1,left,none,-99,-99,0.5,0,none,2,18,Woman,Right,
0,1,2,0.9150292000003901,['c'],0,right,none,-99,-99,0.5,0,none,2,18,Woman,Right,
1,1,2,1.5813090999999986,['n'],0,left,none,-99,-99,0.5,0,none,2,18,Woman,Right,
2,1,2,0.7478046999995058,['n'],1,right,none,-99,-99,0.5,0,none,2,18,Woman,Right,
3,1,2,1.164980700000342,['n'],1,right,none,-99,-99,0.5,0,none,2,18,Woman,Right,
4,1,2,0.7139170000000377,['c'],1,left,none,-99,-99,0.5,0,none,2,18,Woman,Right,
5,1,2,0.6974136999997427,['n'],0,left,none,-99,-99,0.5,0,none,2,18,Woman,Right,
6,1,2,0.647795099999712,['n'],1,right,none,-99,-99,0.5,0,none,2,18,Woman,Right,
7,1,2,0.6343523999994432,['c'],1,left,none,-99,-99,0.5,0,none,2,18,Woman,Right,
8,1,2,0.6631628000004639,['n'],1,right,none,-99,-99,0.5,0,none,2,18,Woman,Right,
9,1,2,0.5809534999998505,['n'],1,right,none,-99,-99,0.5,0,none,2,18,Woman,Right,
10,1,2,0.8000003999995897,['c'],1,left,none,-99,-99,0.5,0,none,2,18,Woman,Right,
11,1,2,0.44746549999945273,['n'],0,left,none,-99,-99,0.5,0,none,2,18,Woman,Right,
12,1,2,0.5795882000002166,['c'],1,left,none,-99,-99,0.5,0,none,2,18,Woman,Right,
13,1,2,1.0813739000004716,['c'],1,left,none,-99,-99,0.5,0,none,2,18,Woman,Right,
14,1,2,1.7973546000002898,['c'],1,left,none,-99,-99,0.5,0,none,2,18,Woman,Right,
15,1,2,0.8135185000001002,['n'],1,right,none,-99,-99,0.5,0,none,2,18,Woman,Right,
16,1,2,0.7309317999997802,['c'],1,left,none,-99,-99,0.5,0,none,2,18,Woman,Right,
17,1,2,0.8974624000002223,['n'],1,right,none,-99,-99,0.5,0,none,2,18,Woman,Right,
18,1,2,0.7636746999996831,['c'],1,left,none,-99,-99,0.5,0,none,2,18,Woman,Right,
19,1,2,0.9474589999999807,['n'],1,right,none,-99,-99,0.5,0,none,2,18,Woman,Right,
20,1,2,0.7470038000001296,['c'],0,right,none,-99,-99,0.5,0,none,2,18,Woman,Right,
21,1,2,1.0641393999994762,['n'],0,left,none,-99,-99,0.5,0,none,2,18,Woman,Right,
22,1,2,0.7317223999998532,['n'],1,right,none,-99,-99,0.5,0,none,2,18,Woman,Right,
23,1,2,0.9296914000005927,['c'],0,right,none,-99,-99,0.5,0,none,2,18,Woman,Right,
0,1,3,0.7999251999999615,['n'],0,left,none,-99,-99,0.5,0,none,2,18,Woman,Right,
1,1,3,0.8141802000000098,['n'],1,right,none,-99,-99,0.5,0,none,2,18,Woman,Right,
2,1,3,0.879576399999678,['n'],0,left,none,-99,-99,0.5,0,none,2,18,Woman,Right,
3,1,3,0.7646087000002808,['c'],1,left,none,-99,-99,0.5,0,none,2,18,Woman,Right,
4,1,3,0.6638064999997368,['n'],1,right,none,-99,-99,0.5,0,none,2,18,Woman,Right,
5,1,3,0.7473777000004702,['c'],1,left,none,-99,-99,0.5,0,none,2,18,Woman,Right,
6,1,3,0.6320021000001361,['n'],1,right,none,-99,-99,0.5,0,none,2,18,Woman,Right,
7,1,3,0.9826657000003252,['n'],1,right,none,-99,-99,0.5,0,none,2,18,Woman,Right,
8,1,3,0.847527099999752,['n'],1,right,none,-99,-99,0.5,0,none,2,18,Woman,Right,
9,1,3,0.9137484000002587,['c'],0,right,none,-99,-99,0.5,0,none,2,18,Woman,Right,
10,1,3,0.6804955999996309,['c'],1,left,none,-99,-99,0.5,0,none,2,18,Woman,Right,
11,1,3,0.7475520000007236,['c'],0,right,none,-99,-99,0.5,0,none,2,18,Woman,Right,
12,1,3,1.447399100000439,['c'],1,left,none,-99,-99,0.5,0,none,2,18,Woman,Right,
13,1,3,1.5975771999992503,['n'],0,left,none,-99,-99,0.5,0,none,2,18,Woman,Right,
14,1,3,0.8974379999999655,['c'],1,left,none,-99,-99,0.5,0,none,2,18,Woman,Right,
15,1,3,0.7327938000007634,['c'],1,left,none,-99,-99,0.5,0,none,2,18,Woman,Right,
16,1,3,1.0969173000003138,['n'],1,right,none,-99,-99,0.5,0,none,2,18,Woman,Right,
17,1,3,0.8808315999995102,['c'],1,left,none,-99,-99,0.5,0,none,2,18,Woman,Right,
18,1,3,1.27978019999955,['c'],1,left,none,-99,-99,0.5,0,none,2,18,Woman,Right,
19,1,3,1.1640610999993442,['c'],1,left,none,-99,-99,0.5,0,none,2,18,Woman,Right,
20,1,3,0.8308366000001115,['n'],1,right,none,-99,-99,0.5,0,none,2,18,Woman,Right,
21,1,3,0.7641217999998844,['n'],1,right,none,-99,-99,0.5,0,none,2,18,Woman,Right,
22,1,3,0.6624464999995325,['n'],1,right,none,-99,-99,0.5,0,none,2,18,Woman,Right,
23,1,3,0.72926120000011,['n'],1,right,none,-99,-99,0.5,0,none,2,18,Woman,Right,
0,1,4,0.9158665000004476,['n'],1,right,none,-99,-99,0.5,0,none,2,18,Woman,Right,
1,1,4,0.6127341999999771,['c'],1,left,none,-99,-99,0.5,0,none,2,18,Woman,Right,
2,1,4,0.6808586999995896,['n'],1,right,none,-99,-99,0.5,0,none,2,18,Woman,Right,
3,1,4,0.714091599999847,['c'],1,left,none,-99,-99,0.5,0,none,2,18,Woman,Right,
4,1,4,0.7146305000005668,['c'],1,left,none,-99,-99,0.5,0,none,2,18,Woman,Right,
5,1,4,0.5975091000000248,['n'],1,right,none,-99,-99,0.5,0,none,2,18,Woman,Right,
6,1,4,0.5807531000000381,['c'],1,left,none,-99,-99,0.5,0,none,2,18,Woman,Right,
7,1,4,0.7308416999994733,['n'],0,left,none,-99,-99,0.5,0,none,2,18,Woman,Right,
8,1,4,0.5473673999995299,['n'],1,right,none,-99,-99,0.5,0,none,2,18,Woman,Right,
9,1,4,0.7810663999998724,['n'],1,right,none,-99,-99,0.5,0,none,2,18,Woman,Right,
10,1,4,0.7475169999997888,['n'],1,right,none,-99,-99,0.5,0,none,2,18,Woman,Right,
11,1,4,0.7333023000001049,['c'],0,right,none,-99,-99,0.5,0,none,2,18,Woman,Right,
12,1,4,0.6808774000000994,['c'],1,left,none,-99,-99,0.5,0,none,2,18,Woman,Right,
13,1,4,0.6817964000001666,['n'],1,right,none,-99,-99,0.5,0,none,2,18,Woman,Right,
14,1,4,0.6974440999993021,['c'],1,left,none,-99,-99,0.5,0,none,2,18,Woman,Right,
15,1,4,0.6640544000001682,['n'],1,right,none,-99,-99,0.5,0,none,2,18,Woman,Right,
16,1,4,0.7639202999998815,['n'],1,right,none,-99,-99,0.5,0,none,2,18,Woman,Right,
17,1,4,0.6140314000003855,['c'],1,left,none,-99,-99,0.5,0,none,2,18,Woman,Right,
18,1,4,0.6128233999997974,['n'],0,left,none,-99,-99,0.5,0,none,2,18,Woman,Right,
19,1,4,0.7637377999999444,['n'],1,right,none,-99,-99,0.5,0,none,2,18,Woman,Right,
20,1,4,0.5806009999996604,['c'],1,left,none,-99,-99,0.5,0,none,2,18,Woman,Right,
21,1,4,0.7306075000005876,['n'],1,right,none,-99,-99,0.5,0,none,2,18,Woman,Right,
22,1,4,0.6314643999994587,['c'],1,left,none,-99,-99,0.5,0,none,2,18,Woman,Right,
23,1,4,0.6832283000003372,['n'],0,left,none,-99,-99,0.5,0,none,2,18,Woman,Right,
0,1,5,0.5326621000003797,['n'],1,right,none,-99,-99,0.5,0,none,2,18,Woman,Right,
1,1,5,0.5804599000002781,['n'],1,right,none,-99,-99,0.5,0,none,2,18,Woman,Right,
2,1,5,0.5975823999997374,['c'],1,left,none,-99,-99,0.5,0,none,2,18,Woman,Right,
3,1,5,1.5139553999997588,['n'],0,left,none,-99,-99,0.5,0,none,2,18,Woman,Right,
4,1,5,0.5809196000000156,['n'],0,left,none,-99,-99,0.5,0,none,2,18,Woman,Right,
5,1,5,1.3810675000004267,['n'],0,left,none,-99,-99,0.5,0,none,2,18,Woman,Right,
6,1,5,2.7310723000000507,['n'],1,right,none,-99,-99,0.5,0,none,2,18,Woman,Right,
7,1,5,0.6464634000003571,['n'],1,right,none,-99,-99,0.5,0,none,2,18,Woman,Right,
8,1,5,0.7807104999992589,['n'],1,right,none,-99,-99,0.5,0,none,2,18,Woman,Right,
9,1,5,0.8480429000001095,['n'],0,left,none,-99,-99,0.5,0,none,2,18,Woman,Right,
10,1,5,1.4808435000004465,['c'],1,left,none,-99,-99,0.5,0,none,2,18,Woman,Right,
11,1,5,1.3478510000004462,['c'],0,right,none,-99,-99,0.5,0,none,2,18,Woman,Right,
12,1,5,1.5473458999995273,['n'],1,right,none,-99,-99,0.5,0,none,2,18,Woman,Right,
13,1,5,1.2472183999998379,['n'],0,left,none,-99,-99,0.5,0,none,2,18,Woman,Right,
14,1,5,1.1973877000000357,['c'],1,left,none,-99,-99,0.5,0,none,2,18,Woman,Right,
15,1,5,1.8139357000000018,['c'],1,left,none,-99,-99,0.5,0,none,2,18,Woman,Right,
16,1,5,1.6485916000001453,['n'],1,right,none,-99,-99,0.5,0,none,2,18,Woman,Right,
17,1,5,1.7832705999999234,['n'],1,right,none,-99,-99,0.5,0,none,2,18,Woman,Right,
18,1,5,1.5969064000000799,['n'],1,right,none,-99,-99,0.5,0,none,2,18,Woman,Right,
19,1,5,1.3326575999999477,['c'],0,right,none,-99,-99,0.5,0,none,2,18,Woman,Right,
20,1,5,1.7309522999994442,['n'],0,left,none,-99,-99,0.5,0,none,2,18,Woman,Right,
21,1,5,0.9461708999997427,['c'],1,left,none,-99,-99,0.5,0,none,2,18,Woman,Right,
22,1,5,1.8305550000004587,['c'],0,right,none,-99,-99,0.5,0,none,2,18,Woman,Right,
23,1,5,2.9490946999994776,['n'],0,left,none,-99,-99,0.5,0,none,2,18,Woman,Right,
0,1,6,1.2662560999997368,['c'],1,left,none,-99,-99,0.5,0,none,2,18,Woman,Right,
1,1,6,1.0653505999998742,['n'],0,left,none,-99,-99,0.5,0,none,2,18,Woman,Right,
2,1,6,1.3460708000002342,['c'],0,right,none,-99,-99,0.5,0,none,2,18,Woman,Right,
3,1,6,2.0311874000008174,['c'],0,right,none,-99,-99,0.5,0,none,2,18,Woman,Right,
4,1,6,1.06425229999968,['n'],1,right,none,-99,-99,0.5,0,none,2,18,Woman,Right,
5,1,6,2.6126303000000917,['n'],0,left,none,-99,-99,0.5,0,none,2,18,Woman,Right,
6,1,6,2.314201299999695,['c'],0,right,none,-99,-99,0.5,0,none,2,18,Woman,Right,
7,1,6,1.0975243000002592,['n'],1,right,none,-99,-99,0.5,0,none,2,18,Woman,Right,
8,1,6,0.8638028000004851,['n'],1,right,none,-99,-99,0.5,0,none,2,18,Woman,Right,
9,1,6,0.7661261999992348,['n'],0,left,none,-99,-99,0.5,0,none,2,18,Woman,Right,
10,1,6,3.282356300000174,['n'],1,right,none,-99,-99,0.5,0,none,2,18,Woman,Right,
11,1,6,1.5796614000000773,['c'],0,right,none,-99,-99,0.5,0,none,2,18,Woman,Right,
12,1,6,2.1142024000000674,['n'],1,right,none,-99,-99,0.5,0,none,2,18,Woman,Right,
13,1,6,1.7805418999996618,['c'],1,left,none,-99,-99,0.5,0,none,2,18,Woman,Right,
14,1,6,1.330506499999501,['c'],1,left,none,-99,-99,0.5,0,none,2,18,Woman,Right,
15,1,6,1.3641121000000567,['n'],0,left,none,-99,-99,0.5,0,none,2,18,Woman,Right,
16,1,6,1.314260799999829,['n'],1,right,none,-99,-99,0.5,0,none,2,18,Woman,Right,
17,1,6,1.333062499999869,['c'],1,left,none,-99,-99,0.5,0,none,2,18,Woman,Right,
18,1,6,1.2140527999999904,['c'],1,left,none,-99,-99,0.5,0,none,2,18,Woman,Right,
19,1,6,1.1643020000001343,['n'],1,right,none,-99,-99,0.5,0,none,2,18,Woman,Right,
20,1,6,1.130585300000348,['c'],1,left,none,-99,-99,0.5,0,none,2,18,Woman,Right,
21,1,6,2.1966281999993953,['c'],1,left,none,-99,-99,0.5,0,none,2,18,Woman,Right,
22,1,6,1.6496530000003986,['c'],1,left,none,-99,-99,0.5,0,none,2,18,Woman,Right,
23,1,6,1.2638981999998578,['n'],1,right,none,-99,-99,0.5,0,none,2,18,Woman,Right,
0,1,7,0.8497839000001477,['n'],1,right,none,-99,-99,0.5,0,none,2,18,Woman,Right,
1,1,7,1.1331402000005255,['n'],1,right,none,-99,-99,0.5,0,none,2,18,Woman,Right,
2,1,7,1.130383300000176,['n'],1,right,none,-99,-99,0.5,0,none,2,18,Woman,Right,
3,1,7,0.9646861999999601,['c'],0,right,none,-99,-99,0.5,0,none,2,18,Woman,Right,
4,1,7,1.7142813000000388,['n'],1,right,none,-99,-99,0.5,0,none,2,18,Woman,Right,
5,1,7,0.9475732999999309,['c'],1,left,none,-99,-99,0.5,0,none,2,18,Woman,Right,
6,1,7,1.5807623999999123,['n'],1,right,none,-99,-99,0.5,0,none,2,18,Woman,Right,
7,1,7,0.8140314000002036,['n'],1,right,none,-99,-99,0.5,0,none,2,18,Woman,Right,
8,1,7,1.0475513000001229,['c'],1,left,none,-99,-99,0.5,0,none,2,18,Woman,Right,
9,1,7,0.8975468999997247,['n'],1,right,none,-99,-99,0.5,0,none,2,18,Woman,Right,
10,1,7,1.7643341999992117,['c'],1,left,none,-99,-99,0.5,0,none,2,18,Woman,Right,
11,1,7,1.0642315999994025,['n'],0,left,none,-99,-99,0.5,0,none,2,18,Woman,Right,
12,1,7,1.3157327999997506,['c'],1,left,none,-99,-99,0.5,0,none,2,18,Woman,Right,
13,1,7,0.9137633999998798,['c'],1,left,none,-99,-99,0.5,0,none,2,18,Woman,Right,
14,1,7,1.2308785999994143,['n'],0,left,none,-99,-99,0.5,0,none,2,18,Woman,Right,
15,1,7,2.2809986000002027,['n'],1,right,none,-99,-99,0.5,0,none,2,18,Woman,Right,
16,1,7,1.6981586000001698,['c'],0,right,none,-99,-99,0.5,0,none,2,18,Woman,Right,
17,1,7,0.9296746999998504,['n'],0,left,none,-99,-99,0.5,0,none,2,18,Woman,Right,
18,1,7,1.264803000000029,['c'],1,left,none,-99,-99,0.5,0,none,2,18,Woman,Right,
19,1,7,2.112975400000323,['c'],1,left,none,-99,-99,0.5,0,none,2,18,Woman,Right,
20,1,7,0.9795745999999781,['n'],1,right,none,-99,-99,0.5,0,none,2,18,Woman,Right,
21,1,7,1.033389399999578,['n'],1,right,none,-99,-99,0.5,0,none,2,18,Woman,Right,
22,1,7,1.1164436000008209,['c'],1,left,none,-99,-99,0.5,0,none,2,18,Woman,Right,
23,1,7,0.8126790000005712,['c'],1,left,none,-99,-99,0.5,0,none,2,18,Woman,Right,
0,1,8,0.8825201999998171,['n'],1,right,none,-99,-99,0.5,0,none,2,18,Woman,Right,
1,1,8,0.6478276999996524,['n'],1,right,none,-99,-99,0.5,0,none,2,18,Woman,Right,
2,1,8,1.1810280999998213,['c'],1,left,none,-99,-99,0.5,0,none,2,18,Woman,Right,
3,1,8,0.6135623999998643,['n'],0,left,none,-99,-99,0.5,0,none,2,18,Woman,Right,
4,1,8,0.7632166999992478,['n'],0,left,none,-99,-99,0.5,0,none,2,18,Woman,Right,
5,1,8,0.8966503999999986,['n'],1,right,none,-99,-99,0.5,0,none,2,18,Woman,Right,
6,1,8,1.1635614999995596,['n'],1,right,none,-99,-99,0.5,0,none,2,18,Woman,Right,
7,1,8,0.8640998999999283,['n'],0,left,none,-99,-99,0.5,0,none,2,18,Woman,Right,
8,1,8,1.2477128000000448,['c'],1,left,none,-99,-99,0.5,0,none,2,18,Woman,Right,
9,1,8,1.8293335000007573,['c'],0,right,none,-99,-99,0.5,0,none,2,18,Woman,Right,
10,1,8,1.4643652000004295,['n'],1,right,none,-99,-99,0.5,0,none,2,18,Woman,Right,
11,1,8,0.6647127999995064,['n'],0,left,none,-99,-99,0.5,0,none,2,18,Woman,Right,
12,1,8,0.9797998000003645,['c'],0,right,none,-99,-99,0.5,0,none,2,18,Woman,Right,
13,1,8,0.6007409000003463,['c'],1,left,none,-99,-99,0.5,0,none,2,18,Woman,Right,
14,1,8,0.8140972000001057,['n'],1,right,none,-99,-99,0.5,0,none,2,18,Woman,Right,
15,1,8,1.097525900000619,['n'],1,right,none,-99,-99,0.5,0,none,2,18,Woman,Right,
16,1,8,0.7810312999999951,['n'],0,left,none,-99,-99,0.5,0,none,2,18,Woman,Right,
17,1,8,0.6161458999995375,['c'],0,right,none,-99,-99,0.5,0,none,2,18,Woman,Right,
18,1,8,0.7810253999996348,['c'],1,left,none,-99,-99,0.5,0,none,2,18,Woman,Right,
19,1,8,0.6624190000002272,['c'],1,left,none,-99,-99,0.5,0,none,2,18,Woman,Right,
20,1,8,0.8145402000000104,['c'],0,right,none,-99,-99,0.5,0,none,2,18,Woman,Right,
21,1,8,1.7147496999996292,['c'],1,left,none,-99,-99,0.5,0,none,2,18,Woman,Right,
22,1,8,1.480910500000391,['n'],0,left,none,-99,-99,0.5,0,none,2,18,Woman,Right,
23,1,8,0.9644516999996995,['n'],1,right,none,-99,-99,0.5,0,none,2,18,Woman,Right,
0,1,9,0.7994175000003452,['n'],1,right,none,-99,-99,0.5,0,none,2,18,Woman,Right,
1,1,9,0.7310239999997066,['n'],1,right,none,-99,-99,0.5,0,none,2,18,Woman,Right,
2,1,9,0.7973784999994677,['n'],1,right,none,-99,-99,0.5,0,none,2,18,Woman,Right,
3,1,9,0.8146331999996619,['c'],1,left,none,-99,-99,0.5,0,none,2,18,Woman,Right,
4,1,9,0.6143886999998358,['n'],1,right,none,-99,-99,0.5,0,none,2,18,Woman,Right,
5,1,9,0.7128156999997373,['n'],1,right,none,-99,-99,0.5,0,none,2,18,Woman,Right,
6,1,9,0.53081740000016,['c'],1,left,none,-99,-99,0.5,0,none,2,18,Woman,Right,
7,1,9,0.5469622000000527,['n'],0,left,none,-99,-99,0.5,0,none,2,18,Woman,Right,
8,1,9,0.5796872999999323,['c'],1,left,none,-99,-99,0.5,0,none,2,18,Woman,Right,
9,1,9,0.63075949999984,['n'],0,left,none,-99,-99,0.5,0,none,2,18,Woman,Right,
10,1,9,1.2810420000005251,['c'],1,left,none,-99,-99,0.5,0,none,2,18,Woman,Right,
11,1,9,1.1627526000002035,['n'],0,left,none,-99,-99,0.5,0,none,2,18,Woman,Right,
12,1,9,0.714066599999569,['n'],1,right,none,-99,-99,0.5,0,none,2,18,Woman,Right,
13,1,9,0.7294707999999446,['n'],0,left,none,-99,-99,0.5,0,none,2,18,Woman,Right,
14,1,9,0.5974950999998327,['n'],1,right,none,-99,-99,0.5,0,none,2,18,Woman,Right,
15,1,9,0.7168945999992502,['c'],1,left,none,-99,-99,0.5,0,none,2,18,Woman,Right,
16,1,9,1.0646899000003032,['n'],0,left,none,-99,-99,0.5,0,none,2,18,Woman,Right,
17,1,9,0.6472235999999612,['n'],1,right,none,-99,-99,0.5,0,none,2,18,Woman,Right,
18,1,9,0.7131688999998005,['c'],1,left,none,-99,-99,0.5,0,none,2,18,Woman,Right,
19,1,9,0.7976411999998163,['n'],1,right,none,-99,-99,0.5,0,none,2,18,Woman,Right,
20,1,9,0.5468966999997065,['n'],1,right,none,-99,-99,0.5,0,none,2,18,Woman,Right,
21,1,9,0.4972606999999698,['n'],1,right,none,-99,-99,0.5,0,none,2,18,Woman,Right,
22,1,9,0.7472502000000532,['n'],0,left,none,-99,-99,0.5,0,none,2,18,Woman,Right,
23,1,9,0.5796198999996705,['n'],1,right,none,-99,-99,0.5,0,none,2,18,Woman,Right,
0,1,10,0.5824658000001364,['n'],1,right,none,-99,-99,0.5,0,none,2,18,Woman,Right,
1,1,10,0.9975838999998814,['c'],1,left,none,-99,-99,0.5,0,none,2,18,Woman,Right,
2,1,10,0.9306337999996686,['n'],0,left,none,-99,-99,0.5,0,none,2,18,Woman,Right,
3,1,10,0.8643938999994134,['c'],1,left,none,-99,-99,0.5,0,none,2,18,Woman,Right,
4,1,10,0.46413720000055037,['c'],1,left,none,-99,-99,0.5,0,none,2,18,Woman,Right,
5,1,10,0.49715959999957704,['n'],1,right,none,-99,-99,0.5,0,none,2,18,Woman,Right,
6,1,10,0.4811090000002878,['n'],0,left,none,-99,-99,0.5,0,none,2,18,Woman,Right,
7,1,10,0.49763180000081775,['n'],0,left,none,-99,-99,0.5,0,none,2,18,Woman,Right,
8,1,10,1.5810848999999507,['c'],0,right,none,-99,-99,0.5,0,none,2,18,Woman,Right,
9,1,10,0.8139332999999169,['n'],1,right,none,-99,-99,0.5,0,none,2,18,Woman,Right,
10,1,10,0.5646981999998388,['c'],1,left,none,-99,-99,0.5,0,none,2,18,Woman,Right,
11,1,10,0.9130128000006152,['c'],1,left,none,-99,-99,0.5,0,none,2,18,Woman,Right,
12,1,10,0.48106360000019777,['n'],1,right,none,-99,-99,0.5,0,none,2,18,Woman,Right,
13,1,10,0.632281399999556,['c'],1,left,none,-99,-99,0.5,0,none,2,18,Woman,Right,
14,1,10,0.5645580999998856,['c'],1,left,none,-99,-99,0.5,0,none,2,18,Woman,Right,
15,1,10,0.48086200000034296,['n'],1,right,none,-99,-99,0.5,0,none,2,18,Woman,Right,
16,1,10,0.46466099999997823,['n'],1,right,none,-99,-99,0.5,0,none,2,18,Woman,Right,
17,1,10,0.8964957000007416,['n'],0,left,none,-99,-99,0.5,0,none,2,18,Woman,Right,
18,1,10,0.7641869999997652,['n'],1,right,none,-99,-99,0.5,0,none,2,18,Woman,Right,
19,1,10,0.7633144999999786,['c'],0,right,none,-99,-99,0.5,0,none,2,18,Woman,Right,
20,1,10,1.3643485000002329,['c'],0,right,none,-99,-99,0.5,0,none,2,18,Woman,Right,
21,1,10,0.9640889000002062,['n'],1,right,none,-99,-99,0.5,0,none,2,18,Woman,Right,
22,1,10,1.6473355999996784,['c'],1,left,none,-99,-99,0.5,0,none,2,18,Woman,Right,
23,1,10,0.5475047999998424,['n'],1,right,none,-99,-99,0.5,0,none,2,18,Woman,Right,
0,1,11,0.7493802000008145,['c'],1,left,none,-99,-99,0.5,0,none,2,18,Woman,Right,
1,1,11,0.41502889999992476,['n'],1,right,none,-99,-99,0.5,0,none,2,18,Woman,Right,
2,1,11,0.6975052000007054,['c'],1,left,none,-99,-99,0.5,0,none,2,18,Woman,Right,
3,1,11,0.530627099999947,['n'],1,right,none,-99,-99,0.5,0,none,2,18,Woman,Right,
4,1,11,0.5130256000002191,['c'],1,left,none,-99,-99,0.5,0,none,2,18,Woman,Right,
5,1,11,0.5144583000001148,['c'],1,left,none,-99,-99,0.5,0,none,2,18,Woman,Right,
6,1,11,0.4127816000000166,['n'],1,right,none,-99,-99,0.5,0,none,2,18,Woman,Right,
7,1,11,0.6474657999997362,['n'],1,right,none,-99,-99,0.5,0,none,2,18,Woman,Right,
8,1,11,0.4805605999999898,['n'],1,right,none,-99,-99,0.5,0,none,2,18,Woman,Right,
9,1,11,0.6467603999999483,['c'],0,right,none,-99,-99,0.5,0,none,2,18,Woman,Right,
10,1,11,0.48322790000020177,['n'],1,right,none,-99,-99,0.5,0,none,2,18,Woman,Right,
11,1,11,0.4642207999995662,['c'],1,left,none,-99,-99,0.5,0,none,2,18,Woman,Right,
12,1,11,0.39723049999975046,['n'],0,left,none,-99,-99,0.5,0,none,2,18,Woman,Right,
13,1,11,0.5145147000002908,['n'],1,right,none,-99,-99,0.5,0,none,2,18,Woman,Right,
14,1,11,0.48136389999945095,['n'],1,right,none,-99,-99,0.5,0,none,2,18,Woman,Right,
15,1,11,0.4629720000002635,['c'],0,right,none,-99,-99,0.5,0,none,2,18,Woman,Right,
16,1,11,0.4807440000004135,['c'],1,left,none,-99,-99,0.5,0,none,2,18,Woman,Right,
17,1,11,1.3642935000007128,['n'],0,left,none,-99,-99,0.5,0,none,2,18,Woman,Right,
18,1,11,0.9304109000004246,['c'],1,left,none,-99,-99,0.5,0,none,2,18,Woman,Right,
19,1,11,0.5800183000001198,['c'],1,left,none,-99,-99,0.5,0,none,2,18,Woman,Right,
20,1,11,0.5475679999999556,['n'],1,right,none,-99,-99,0.5,0,none,2,18,Woman,Right,
21,1,11,0.780647599999611,['n'],1,right,none,-99,-99,0.5,0,none,2,18,Woman,Right,
22,1,11,0.6974092000000383,['c'],1,left,none,-99,-99,0.5,0,none,2,18,Woman,Right,
23,1,11,1.5809361999999965,['c'],1,left,none,-99,-99,0.5,0,none,2,18,Woman,Right,
0,1,12,1.7825201999994533,['c'],1,left,none,-99,-99,0.5,0,none,2,18,Woman,Right,
1,1,12,0.6142816999999923,['n'],1,right,none,-99,-99,0.5,0,none,2,18,Woman,Right,
2,1,12,1.0646939999996903,['n'],1,right,none,-99,-99,0.5,0,none,2,18,Woman,Right,
3,1,12,0.9807277999998405,['n'],0,left,none,-99,-99,0.5,0,none,2,18,Woman,Right,
4,1,12,1.097455799999807,['n'],1,right,none,-99,-99,0.5,0,none,2,18,Woman,Right,
5,1,12,0.764282600000115,['c'],1,left,none,-99,-99,0.5,0,none,2,18,Woman,Right,
6,1,12,0.9126129000005676,['c'],1,left,none,-99,-99,0.5,0,none,2,18,Woman,Right,
7,1,12,0.6996245000000272,['n'],1,right,none,-99,-99,0.5,0,none,2,18,Woman,Right,
8,1,12,0.8296732000007978,['c'],1,left,none,-99,-99,0.5,0,none,2,18,Woman,Right,
9,1,12,0.6148346999998466,['n'],1,right,none,-99,-99,0.5,0,none,2,18,Woman,Right,
10,1,12,0.7477363999996669,['c'],1,left,none,-99,-99,0.5,0,none,2,18,Woman,Right,
11,1,12,1.0131670999999187,['c'],1,left,none,-99,-99,0.5,0,none,2,18,Woman,Right,
12,1,12,0.5970392999997785,['n'],1,right,none,-99,-99,0.5,0,none,2,18,Woman,Right,
13,1,12,0.8300435999999536,['c'],1,left,none,-99,-99,0.5,0,none,2,18,Woman,Right,
14,1,12,0.8800457000006645,['n'],1,right,none,-99,-99,0.5,0,none,2,18,Woman,Right,
15,1,12,1.1976169999998092,['n'],1,right,none,-99,-99,0.5,0,none,2,18,Woman,Right,
16,1,12,0.9482208999997965,['n'],1,right,none,-99,-99,0.5,0,none,2,18,Woman,Right,
17,1,12,0.931422399999974,['n'],1,right,none,-99,-99,0.5,0,none,2,18,Woman,Right,
18,1,12,0.9640151000003243,['c'],1,left,none,-99,-99,0.5,0,none,2,18,Woman,Right,
19,1,12,1.047511900000245,['n'],1,right,none,-99,-99,0.5,0,none,2,18,Woman,Right,
20,1,12,0.7643255999992107,['c'],1,left,none,-99,-99,0.5,0,none,2,18,Woman,Right,
21,1,12,0.8309392999999545,['c'],1,left,none,-99,-99,0.5,0,none,2,18,Woman,Right,
22,1,12,1.0140926000003674,['c'],1,left,none,-99,-99,0.5,0,none,2,18,Woman,Right,
23,1,12,0.7141175000006115,['n'],1,right,none,-99,-99,0.5,0,none,2,18,Woman,Right,
0,2,1,4.549602400000367,['n'],1,right,none,-99,-99,0.1,0,none,2,18,Woman,Right,
1,2,1,1.5473178000002008,['c'],1,left,none,-99,-99,0.1,0,none,2,18,Woman,Right,
2,2,1,1.2144488000003548,['n'],0,left,none,-99,-99,0.1,0,none,2,18,Woman,Right,
3,2,1,1.614095400000224,['c'],1,left,none,-99,-99,0.4,0,none,2,18,Woman,Right,
4,2,1,1.1627482999992935,['c'],1,left,none,-99,-99,0.4,0,none,2,18,Woman,Right,
5,2,1,1.7472325999997338,['c'],1,left,none,-99,-99,0.2,0,none,2,18,Woman,Right,
6,2,1,1.3316180000001623,['c'],1,left,none,-99,-99,0.2,0,none,2,18,Woman,Right,
7,2,1,1.8458190999999715,['c'],1,left,none,-99,-99,0.4,0,none,2,18,Woman,Right,
8,2,1,1.9641247999998086,['c'],0,right,none,-99,-99,0.1,0,none,2,18,Woman,Right,
9,2,1,2.3634234000001015,['n'],1,right,none,-99,-99,0.4,0,none,2,18,Woman,Right,
10,2,1,0.8308967000002667,['n'],1,right,none,-99,-99,0.1,0,none,2,18,Woman,Right,
11,2,1,1.5495231999993848,['n'],1,right,none,-99,-99,0.4,0,none,2,18,Woman,Right,
12,2,1,1.3629398000002766,['n'],0,left,none,-99,-99,0.2,0,none,2,18,Woman,Right,
13,2,1,2.0632869000000937,['c'],1,left,none,-99,-99,0.2,0,none,2,18,Woman,Right,
14,2,1,1.4814942000002702,['n'],1,right,none,-99,-99,0.2,0,none,2,18,Woman,Right,
15,2,1,1.4141213000002608,['n'],0,left,none,-99,-99,0.4,0,none,2,18,Woman,Right,
16,2,1,1.9973368999999366,['c'],0,right,none,-99,-99,0.1,0,none,2,18,Woman,Right,
17,2,1,0.9309579999999187,['c'],0,right,none,-99,-99,0.2,0,none,2,18,Woman,Right,
18,2,1,1.1996368999998595,['n'],0,left,none,-99,-99,0.4,0,none,2,18,Woman,Right,
19,2,1,1.8159811999994417,['c'],0,right,none,-99,-99,0.1,0,none,2,18,Woman,Right,
20,2,1,1.4141441000001578,['n'],1,right,none,-99,-99,0.1,0,none,2,18,Woman,Right,
21,2,1,2.7976836000007097,['n'],1,right,none,-99,-99,0.2,0,none,2,18,Woman,Right,
22,2,1,1.0818540000000212,['c'],1,left,none,-99,-99,0.2,0,none,2,18,Woman,Right,
23,2,1,1.7307930000006309,['n'],1,right,none,-99,-99,0.4,0,none,2,18,Woman,Right,
0,3,1,2.7501829000002544,['n'],1,right,['1'],6,3.8667929000002914,0.2,0,none,2,18,Woman,Right,
1,3,1,2.466479900000195,['n'],1,right,['3'],4,1.8004755999991175,0.2,0,none,2,18,Woman,Right,
2,3,1,3.4499776000002385,['c'],1,left,['8'],3,2.250589399999626,0.1,0,none,2,18,Woman,Right,
3,3,1,3.366191699999945,['c'],1,left,['9'],2,0.7837369000008039,0.1,0,none,2,18,Woman,Right,
4,3,1,2.1662139000000025,['n'],0,left,['3'],4,1.517114500000389,0.2,0,none,2,18,Woman,Right,
5,3,1,2.4666706999996677,['c'],0,right,['9'],2,0.8839338999996471,0.1,0,none,2,18,Woman,Right,
6,3,1,2.6832383000000846,['c'],1,left,['9'],2,0.9838618000003407,0.1,0,none,2,18,Woman,Right,
7,3,1,3.199377099999765,['n'],0,left,['2'],5,1.2838731000001644,0.4,0,none,2,18,Woman,Right,
8,3,1,4.500567299999602,['n'],1,right,['3'],4,2.383867700000337,0.1,0,none,2,18,Woman,Right,
9,3,1,1.466142000000218,['c'],1,left,['1'],6,2.717222400000537,0.1,0,none,2,18,Woman,Right,
10,3,1,3.0502661999998963,['c'],1,left,['2'],5,1.2170571999995445,0.4,0,none,2,18,Woman,Right,
11,3,1,1.7159984999998414,['n'],1,right,['2'],5,0.8010094999999637,0.4,0,none,2,18,Woman,Right,
12,3,1,1.2997254000001703,['n'],1,right,['2'],5,0.46699379999972734,0.2,0,none,2,18,Woman,Right,
13,3,1,2.866644499999893,['c'],1,left,['3'],4,1.417210000000523,0.4,0,none,2,18,Woman,Right,
14,3,1,1.0998882000003505,['n'],1,right,['2'],5,0.6338079999995898,0.4,0,none,2,18,Woman,Right,
15,3,1,2.2994382000006226,['n'],0,left,['3'],4,0.6505951999997706,0.1,0,none,2,18,Woman,Right,
16,3,1,1.8827241999997568,['c'],1,left,['3'],4,0.5171317999993335,0.2,0,none,2,18,Woman,Right,
17,3,1,3.7500229000006584,['n'],0,left,['8'],3,1.1173527000000831,0.2,0,none,2,18,Woman,Right,
18,3,1,3.849699600000349,['n'],1,right,['9'],2,2.1671777999999904,0.2,0,none,2,18,Woman,Right,
19,3,1,3.68319799999972,['c'],1,left,['3'],4,0.9337448000005679,0.4,0,none,2,18,Woman,Right,
20,3,1,1.2496352999996816,['n'],1,right,['3'],4,0.5173175999998421,0.4,0,none,2,18,Woman,Right,
21,3,1,2.1832000000003973,['n'],1,right,['3'],4,0.8004744999998366,0.1,0,none,2,18,Woman,Right,
22,3,1,4.116370099999585,['n'],1,right,['8'],3,0.7504269000000932,0.2,0,none,2,18,Woman,Right,
23,3,1,2.4667266999995263,['n'],1,right,['3'],4,0.5337933000000703,0.4,0,none,2,18,Woman,Right,
0,4,1,1.2496656000002986,['c'],1,left,['8'],3,1.2504328999993959,0.1,0,FastFast,2,18,Woman,Right,
1,4,1,1.2662584000008792,['n'],0,left,['3'],4,0.3339509999996153,0.2,0,FastFast,2,18,Woman,Right,
2,4,1,1.2998888000001898,['n'],1,right,['3'],4,0.9338581000001795,0.2,0,FastFast,2,18,Woman,Right,
3,4,1,2.1993069000000105,['n'],1,right,['8'],3,0.3173068999994939,0.1,0,FastFast,2,18,Woman,Right,
4,4,1,1.3334413000002314,['n'],0,left,['8'],3,0.3837247000001298,0.1,0,FastFast,2,18,Woman,Right,
5,4,1,1.3497639999995954,['c'],1,left,['3'],4,0.39994490000026417,0.4,0,FastFast,2,18,Woman,Right,
6,4,1,1.9335721999996167,['n'],0,left,['3'],4,0.41722459999982675,0.1,0,FastFast,2,18,Woman,Right,
7,4,1,1.6499437000002217,['c'],1,left,['8'],3,0.38391480000063893,0.2,0,FastFast,2,18,Woman,Right,
8,4,1,1.7499659999994037,['c'],1,left,['3'],4,0.5838734999997541,0.4,0,FastFast,2,18,Woman,Right,
9,4,1,1.6496213000000353,['n'],1,right,['3'],4,0.35111400000005233,0.1,0,FastFast,2,18,Woman,Right,
10,4,1,1.6821843000006993,['c'],1,left,['3'],4,0.4671046000003116,0.4,0,FastFast,2,18,Woman,Right,
11,4,1,1.9838615999997273,['n'],0,left,['3'],4,0.383700499999577,0.1,0,FastFast,2,18,Woman,Right,
12,4,1,2.9495053999999072,['n'],1,right,['2'],5,0.733809299999848,0.4,0,FastFast,2,18,Woman,Right,
13,4,1,2.666436900000008,['c'],1,left,['8'],3,0.6505391999999119,0.1,0,FastFast,2,18,Woman,Right,
14,4,1,1.7162005000000136,['c'],1,left,['2'],5,0.7339097000003676,0.1,0,FastFast,2,18,Woman,Right,
15,4,1,1.399493199999597,['n'],1,right,['3'],4,0.6005871999996089,0.1,0,FastFast,2,18,Woman,Right,
16,4,1,2.0662404000004244,['n'],1,right,['3'],4,1.1171807000000626,0.2,0,FastFast,2,18,Woman,Right,
17,4,1,1.482906400000502,['n'],1,right,['2'],5,0.9505847000000358,0.4,0,FastFast,2,18,Woman,Right,
18,4,1,1.6165725000000748,['c'],0,right,['9'],2,0.5839366999998674,0.2,0,FastFast,2,18,Woman,Right,
19,4,1,1.3998012000001836,['n'],1,right,['3'],4,0.43370390000018233,0.2,0,FastFast,2,18,Woman,Right,
20,4,1,1.7833023999992292,['c'],1,left,['8'],3,0.866777600000205,0.1,0,FastFast,2,18,Woman,Right,
21,4,1,2.283568599999853,['n'],0,left,['8'],3,0.4170958000004248,0.2,0,FastFast,2,18,Woman,Right,
22,4,1,2.249481300000298,['n'],0,left,['9'],2,0.6172058000001925,0.1,0,FastFast,2,18,Woman,Right,
23,4,1,2.9498948000000382,['n'],0,left,['3'],4,0.8505033999999796,0.2,0,FastFast,2,18,Woman,Right,
24,4,1,1.5999765999995361,['c'],1,left,['3'],4,0.9506024000002071,0.4,0,FastFast,2,18,Woman,Right,
25,4,1,2.6667569000001095,['n'],1,right,['9'],2,0.8005127999995238,0.2,0,FastFast,2,18,Woman,Right,
26,4,1,1.2496437999998307,['c'],1,left,['2'],5,0.4506043999999747,0.4,0,FastFast,2,18,Woman,Right,
27,4,1,2.482874399999673,['c'],0,right,['3'],4,0.45056579999982205,0.2,0,FastFast,2,18,Woman,Right,
28,4,1,2.583449799999471,['n'],0,left,['0'],1,0.8005864999995538,0.1,0,FastFast,2,18,Woman,Right,
29,4,1,2.9500373999999283,['c'],1,left,['0'],1,0.384034700000484,0.2,0,FastFast,2,18,Woman,Right,
30,4,1,2.4828833999999915,['c'],1,left,['0'],1,0.38384219999989,0.1,0,FastFast,2,18,Woman,Right,
31,4,1,2.2495033000004696,['c'],1,left,['8'],3,0.9838675999999396,0.4,0,FastFast,2,18,Woman,Right,
32,4,1,1.6672216999995726,['n'],1,right,['8'],3,0.7007835999993404,0.2,0,FastFast,2,18,Woman,Right,
33,4,1,1.5331345000004148,['c'],0,right,['0'],1,0.6338488000001234,0.1,0,FastFast,2,18,Woman,Right,
34,4,1,2.2497970999993413,['n'],1,right,['0'],1,0.48372329999983776,0.1,0,FastFast,2,18,Woman,Right,
35,4,1,3.0332573999994565,['n'],1,right,['9'],2,0.6505010000000766,0.4,0,FastFast,2,18,Woman,Right,
36,4,1,2.166140300000734,['c'],0,right,['8'],3,0.7838883999993413,0.4,0,FastFast,2,18,Woman,Right,
37,4,1,1.4828950000000987,['c'],1,left,['3'],4,1.1506274000003032,0.4,0,FastFast,2,18,Woman,Right,
38,4,1,2.099730900000395,['n'],0,left,['3'],4,0.30049939999935305,0.2,0,FastFast,2,18,Woman,Right,
39,4,1,1.2494250999998258,['n'],1,right,['3'],4,0.46746499999972,0.2,0,FastFast,2,18,Woman,Right,
40,4,1,1.3501696000002994,['c'],1,left,['8'],3,0.6674689000001308,0.2,0,FastFast,2,18,Woman,Right,
41,4,1,1.3829132999999274,['c'],1,left,['3'],4,0.5505549999998038,0.2,0,FastFast,2,18,Woman,Right,
42,4,1,1.0829465999995591,['n'],1,right,['3'],4,0.4504843000004257,0.1,0,FastFast,2,18,Woman,Right,
43,4,1,1.9654645999999047,['c'],0,right,['3'],4,0.4336518000000069,0.1,0,FastFast,2,18,Woman,Right,
44,4,1,1.449991399999817,['n'],0,left,['3'],4,0.28381350000017846,0.2,0,FastFast,2,18,Woman,Right,
45,4,1,0.7996715999997832,['n'],1,right,['3'],4,0.45051989999956277,0.4,0,FastFast,2,18,Woman,Right,
46,4,1,1.049630800000159,['c'],1,left,['3'],4,0.2838670999999522,0.4,0,FastFast,2,18,Woman,Right,
47,4,1,1.715786499999922,['n'],1,right,['0'],1,0.3505913999997574,0.1,0,FastFast,2,18,Woman,Right,
48,4,1,2.883462800000416,['c'],1,left,['9'],2,1.0505727999998271,0.1,0,FastFast,2,18,Woman,Right,
49,4,1,1.332140999999865,['n'],1,right,['3'],4,0.8172018000004755,0.4,0,FastFast,2,18,Woman,Right,
50,4,1,1.83378090000042,['c'],0,right,['0'],1,1.1836607000004733,0.2,0,FastFast,2,18,Woman,Right,
51,4,1,2.5168602000003375,['c'],0,right,['0'],1,0.6338777000000846,0.4,0,FastFast,2,18,Woman,Right,
52,4,1,3.182988700000351,['c'],0,right,['0'],1,0.5172274999995352,0.1,0,FastFast,2,18,Woman,Right,
53,4,1,1.2661639999996623,['c'],1,left,['3'],4,0.416986100000031,0.4,0,FastFast,2,18,Woman,Right,
54,4,1,1.0329860000001645,['n'],1,right,['3'],4,0.3172173000002658,0.4,0,FastFast,2,18,Woman,Right,
55,4,1,2.483265599999868,['n'],1,right,['3'],4,0.2506885000002512,0.4,0,FastFast,2,18,Woman,Right,
56,4,1,1.3331462000005558,['c'],0,right,['3'],4,0.05059780000010505,0.4,0,FastFast,2,18,Woman,Right,
57,4,1,1.6834943999992902,['n'],1,right,['2'],5,0.3838788000002751,0.4,0,FastFast,2,18,Woman,Right,
58,4,1,1.2333944000001793,['c'],0,right,['3'],4,0.6504965000003722,0.2,0,FastFast,2,18,Woman,Right,
59,4,1,3.8496125000001484,['c'],1,left,['3'],4,0.467384999999922,0.2,0,FastFast,2,18,Woman,Right,
0,5,1,4.56612959999984,['n'],1,right,['3'],4,0.6171824000002744,0.2,0,AccFast,2,18,Woman,Right,
1,5,1,1.7330266999997548,['n'],1,right,['2'],5,1.5838284999999814,0.2,0,AccFast,2,18,Woman,Right,
2,5,1,1.5995270000003075,['c'],0,right,['3'],4,2.400571299999683,0.1,0,AccFast,2,18,Woman,Right,
3,5,1,5.016291500000079,x,-99,left,none,-99,-99,0.1,1,AccFast,2,18,Woman,Right,
4,5,1,1.4831172999993214,['c'],1,left,['3'],4,0.9839828000003763,0.4,0,AccFast,2,18,Woman,Right,
5,5,1,1.5834361999995963,['n'],1,right,['3'],4,0.9340590000001612,0.1,0,AccFast,2,18,Woman,Right,
6,5,1,1.1000560000002224,['n'],1,right,['3'],4,0.917378699999972,0.4,0,AccFast,2,18,Woman,Right,
7,5,1,3.2996033999997962,['c'],0,right,['8'],3,0.950995399999556,0.1,0,AccFast,2,18,Woman,Right,
8,5,1,1.566239000000678,['n'],1,right,['3'],4,0.6338647000002311,0.2,0,AccFast,2,18,Woman,Right,
9,5,1,2.5662130999999135,['c'],1,left,['8'],3,1.1173188000002483,0.1,0,AccFast,2,18,Woman,Right,
10,5,1,1.583392499999718,['n'],0,left,['8'],3,0.7171728000002986,0.4,0,AccFast,2,18,Woman,Right,
11,5,1,2.3657381000002715,['n'],1,right,['3'],4,0.3505259000003207,0.1,0,AccFast,2,18,Woman,Right,
12,5,1,1.9664811000002373,['c'],0,right,['3'],4,0.5005305000004228,0.2,0,AccFast,2,18,Woman,Right,
13,5,1,1.4329428999999436,['n'],0,left,['8'],3,0.7501929999998538,0.4,0,AccFast,2,18,Woman,Right,
14,5,1,2.232873500000096,['n'],0,left,['3'],4,0.45050540000011097,0.2,0,AccFast,2,18,Woman,Right,
15,5,1,2.2499389000004157,['n'],1,right,['3'],4,0.6171291000000565,0.2,0,AccFast,2,18,Woman,Right,
16,5,1,2.766154199999619,['n'],1,right,['3'],4,0.5004850999994233,0.1,0,AccFast,2,18,Woman,Right,
17,5,1,2.1335703000004287,['c'],1,left,['3'],4,0.3671501000007993,0.4,0,AccFast,2,18,Woman,Right,
18,5,1,1.199584799999684,['n'],1,right,['3'],4,0.3505192000002353,0.4,0,AccFast,2,18,Woman,Right,
19,5,1,2.299562400000468,['n'],1,right,['1'],6,0.3004287999992812,0.4,0,AccFast,2,18,Woman,Right,
20,5,1,2.0004048999999213,['n'],1,right,['2'],5,0.750575399999434,0.2,0,AccFast,2,18,Woman,Right,
21,5,1,1.5337004000002707,['c'],1,left,['3'],4,0.3838536000002932,0.2,0,AccFast,2,18,Woman,Right,
22,5,1,2.3501529000004666,['n'],1,right,['3'],4,0.3171892000000298,0.2,0,AccFast,2,18,Woman,Right,
23,5,1,2.766049099999691,['c'],1,left,['3'],4,0.4004346000001533,0.2,0,AccFast,2,18,Woman,Right,
24,5,1,2.448819700000058,['n'],0,left,['3'],4,0.40039040000010573,0.4,0,AccFast,2,18,Woman,Right,
25,5,1,2.499838099999579,['c'],1,left,['8'],3,0.25047040000026755,0.4,0,AccFast,2,18,Woman,Right,
26,5,1,2.333556999999928,['n'],1,right,['3'],4,0.2505716999994547,0.4,0,AccFast,2,18,Woman,Right,
27,5,1,1.9995223999994778,['n'],0,left,['3'],4,1.0004091999999218,0.1,0,AccFast,2,18,Woman,Right,
28,5,1,2.100302499999998,['n'],1,right,['3'],4,0.25051450000046316,0.4,0,AccFast,2,18,Woman,Right,
29,5,1,1.8661051000008229,['n'],1,right,['3'],4,0.28391219999957684,0.4,0,AccFast,2,18,Woman,Right,
30,5,1,2.6661011999995026,['n'],1,right,['3'],4,0.3172001000002638,0.2,0,AccFast,2,18,Woman,Right,
31,5,1,2.566802500000449,['c'],1,left,['3'],4,0.817340200000217,0.2,0,AccFast,2,18,Woman,Right,
32,5,1,1.7992236999998568,['c'],1,left,['3'],4,0.4173428000003696,0.1,0,AccFast,2,18,Woman,Right,
33,5,1,2.0167752999996083,['c'],1,left,['8'],3,0.8671916000002966,0.4,0,AccFast,2,18,Woman,Right,
34,5,1,2.93317130000014,['c'],1,left,['3'],4,0.23360839999986638,0.4,0,AccFast,2,18,Woman,Right,
35,5,1,1.549695800000336,['c'],1,left,['3'],4,0.1338445999999749,0.4,0,AccFast,2,18,Woman,Right,
36,5,1,2.183281700000407,['n'],1,right,['3'],4,0.36738419999983307,0.1,0,AccFast,2,18,Woman,Right,
37,5,1,2.4332518999999593,['n'],1,right,['2'],5,0.3006863999999041,0.1,0,AccFast,2,18,Woman,Right,
38,5,1,2.049434900000051,['n'],0,left,['2'],5,0.23379100000056496,0.4,0,AccFast,2,18,Woman,Right,
39,5,1,3.0654609999992317,['n'],0,left,['2'],5,0.31716010000036476,0.1,0,AccFast,2,18,Woman,Right,
40,5,1,2.016255400000773,['c'],1,left,['2'],5,0.933777000000191,0.1,0,AccFast,2,18,Woman,Right,
41,5,1,2.6502514999992854,['n'],1,right,['8'],3,0.317164999999477,0.1,0,AccFast,2,18,Woman,Right,
42,5,1,1.516509699999915,['n'],0,left,['3'],4,0.2839570000005551,0.1,0,AccFast,2,18,Woman,Right,
43,5,1,1.5834099000003334,['n'],0,left,['3'],4,0.3338207999995575,0.2,0,AccFast,2,18,Woman,Right,
44,5,1,2.3663336999998137,['c'],0,right,['8'],3,0.2504700999998022,0.2,0,AccFast,2,18,Woman,Right,
45,5,1,2.6163000000005923,['n'],0,left,['3'],4,0.5338359999996101,0.1,0,AccFast,2,18,Woman,Right,
46,5,1,3.0662626000003,['n'],1,right,['8'],3,0.21723310000015772,0.4,0,AccFast,2,18,Woman,Right,
47,5,1,3.166251800000282,['n'],1,right,['9'],2,0.4005717000000004,0.1,0,AccFast,2,18,Woman,Right,
48,5,1,2.399375699999837,['n'],1,right,['0'],1,0.23389090000000579,0.1,0,AccFast,2,18,Woman,Right,
49,5,1,1.5158173999998326,['c'],1,left,['3'],4,0.7499359000003096,0.4,0,AccFast,2,18,Woman,Right,
50,5,1,2.016128899999785,['c'],1,left,['3'],4,0.2674262999998973,0.2,0,AccFast,2,18,Woman,Right,
51,5,1,1.71581470000001,['n'],0,left,['9'],2,0.3505089999998745,0.2,0,AccFast,2,18,Woman,Right,
52,5,1,2.1829165999997713,['n'],1,right,['3'],4,0.3505949000000328,0.2,0,AccFast,2,18,Woman,Right,
53,5,1,2.866988499999934,['c'],1,left,['8'],3,1.1005826000000525,0.1,0,AccFast,2,18,Woman,Right,
54,5,1,1.4823169999999664,['n'],1,right,['3'],4,0.4339862999995603,0.2,0,AccFast,2,18,Woman,Right,
55,5,1,2.033542099999977,['n'],0,left,['3'],4,0.5672172000004139,0.1,0,AccFast,2,18,Woman,Right,
56,5,1,3.449860899999294,['n'],1,right,['9'],2,0.31717639999988023,0.2,0,AccFast,2,18,Woman,Right,
57,5,1,1.183049199999914,['c'],1,left,['3'],4,0.267157600000246,0.4,0,AccFast,2,18,Woman,Right,
58,5,1,2.316327600000477,['n'],0,left,['3'],4,0.45049010000002454,0.4,0,AccFast,2,18,Woman,Right,
59,5,1,2.1155195999999705,['n'],1,right,['3'],4,0.3671729999996387,0.2,0,AccFast,2,18,Woman,Right,
0,6,1,1.4327948000000106,['n'],0,left,['2'],5,2.850764999999228,0.4,0,AccAcc,2,18,Woman,Right,
1,6,1,3.283469299999524,['n'],0,left,['0'],1,0.733755299999757,0.1,0,AccAcc,2,18,Woman,Right,
2,6,1,3.866638000000421,['n'],0,left,['3'],4,0.8005184999992707,0.1,0,AccAcc,2,18,Woman,Right,
3,6,1,2.0322534999995696,['c'],0,right,['3'],4,1.4672362000001158,0.1,0,AccAcc,2,18,Woman,Right,
4,6,1,2.3163495999997394,['n'],1,right,['3'],4,1.4507204999999885,0.2,0,AccAcc,2,18,Woman,Right,
5,6,1,2.9835705000004964,['c'],1,left,['2'],5,1.2171509999998307,0.4,0,AccAcc,2,18,Woman,Right,
6,6,1,2.9332303999999567,['n'],0,left,['0'],1,0.7839696000000913,0.2,0,AccAcc,2,18,Woman,Right,
7,6,1,2.6663508999999976,['n'],0,left,['8'],3,0.817212500000096,0.1,0,AccAcc,2,18,Woman,Right,
8,6,1,2.9168620999998893,['n'],0,left,['3'],4,0.8337871000003361,0.1,0,AccAcc,2,18,Woman,Right,
9,6,1,3.0502206000001024,['n'],1,right,['9'],2,0.5339961999998195,0.1,0,AccAcc,2,18,Woman,Right,
10,6,1,1.6831663000002663,['n'],1,right,['3'],4,0.567259199999171,0.4,0,AccAcc,2,18,Woman,Right,
11,6,1,1.4495826000002126,['c'],1,left,['2'],5,0.5003588999998101,0.4,0,AccAcc,2,18,Woman,Right,
12,6,1,3.466700999999375,['n'],1,right,['3'],4,0.7837804999999207,0.4,0,AccAcc,2,18,Woman,Right,
13,6,1,1.5331996000004438,['n'],1,right,['3'],4,0.8670613000003868,0.2,0,AccAcc,2,18,Woman,Right,
14,6,1,2.2161605999999665,['c'],1,left,['3'],4,0.8173438000003443,0.2,0,AccAcc,2,18,Woman,Right,
15,6,1,3.2657828999999765,['n'],0,left,['0'],1,0.6836106999999174,0.1,0,AccAcc,2,18,Woman,Right,
16,6,1,3.549531899999238,['n'],1,right,['3'],4,1.2341582999997627,0.2,0,AccAcc,2,18,Woman,Right,
17,6,1,1.0175490999999965,['c'],1,left,['2'],5,0.7172363999998197,0.2,0,AccAcc,2,18,Woman,Right,
18,6,1,1.2329974999993283,['n'],1,right,['2'],5,0.4669060999995054,0.2,0,AccAcc,2,18,Woman,Right,
19,6,1,1.6158631999996942,['c'],1,left,['3'],4,1.0005412000000433,0.1,0,AccAcc,2,18,Woman,Right,
20,6,1,1.4668674000004103,['n'],1,right,['3'],4,0.4505955000004178,0.1,0,AccAcc,2,18,Woman,Right,
21,6,1,1.4328267000000778,['c'],1,left,['3'],4,1.1670244999995703,0.1,0,AccAcc,2,18,Woman,Right,
22,6,1,1.1835688000001028,['n'],0,left,['2'],5,0.3173546999996688,0.1,0,AccAcc,2,18,Woman,Right,
23,6,1,2.1996564000000944,['n'],1,right,['9'],2,0.4504986000001736,0.1,0,AccAcc,2,18,Woman,Right,
24,6,1,1.5829312999994727,['c'],1,left,['3'],4,1.3671641000000818,0.1,0,AccAcc,2,18,Woman,Right,
25,6,1,3.766397900000811,['n'],1,right,['2'],5,1.4842088999994303,0.4,0,AccAcc,2,18,Woman,Right,
26,6,1,2.432995299999675,['c'],1,left,['1'],6,0.7507296000003407,0.4,0,AccAcc,2,18,Woman,Right,
27,6,1,3.333112200000869,['c'],1,left,['3'],4,0.7005161999995835,0.1,0,AccAcc,2,18,Woman,Right,
28,6,1,2.1344490999999834,['n'],0,left,['0'],1,0.6170554999998785,0.1,0,AccAcc,2,18,Woman,Right,
29,6,1,3.0326505000002726,['n'],1,right,['9'],2,0.4339632999999594,0.2,0,AccAcc,2,18,Woman,Right,
30,6,1,1.5998223000005964,['n'],1,right,['3'],4,0.6003811000000496,0.4,0,AccAcc,2,18,Woman,Right,
31,6,1,1.149646899999425,['c'],1,left,['2'],5,0.3336150999994061,0.4,0,AccAcc,2,18,Woman,Right,
32,6,1,4.0337722999993275,['n'],1,right,['8'],3,1.0838937999997142,0.1,0,AccAcc,2,18,Woman,Right,
33,6,1,2.3817573000005723,['n'],1,right,['8'],3,0.5673500000002605,0.1,0,AccAcc,2,18,Woman,Right,
34,6,1,1.1662620999995852,['c'],1,left,['2'],5,0.4172398000000612,0.4,0,AccAcc,2,18,Woman,Right,
35,6,1,1.4498457999998209,['n'],1,right,['1'],6,1.5173018000004959,0.4,0,AccAcc,2,18,Woman,Right,
36,6,1,2.0177593999997043,['n'],1,right,['3'],4,0.40071830000033515,0.4,0,AccAcc,2,18,Woman,Right,
37,6,1,1.8668136999995113,['n'],1,right,['3'],4,0.5836484999999811,0.2,0,AccAcc,2,18,Woman,Right,
38,6,1,1.7336844999999812,['c'],1,left,['2'],5,0.2836944999999105,0.2,0,AccAcc,2,18,Woman,Right,
39,6,1,1.2331844000000274,['c'],1,left,['2'],5,0.30045499999960157,0.2,0,AccAcc,2,18,Woman,Right,
40,6,1,1.6668222999996942,['n'],1,right,['3'],4,1.217214199999944,0.4,0,AccAcc,2,18,Woman,Right,
41,6,1,1.2162819000004674,['c'],1,left,['2'],5,0.3339455999994243,0.1,0,AccAcc,2,18,Woman,Right,
42,6,1,2.499750299999505,['n'],0,left,['3'],4,0.6840228999999454,0.1,0,AccAcc,2,18,Woman,Right,
43,6,1,2.6005191000003833,['n'],0,left,['3'],4,0.33378540000012435,0.2,0,AccAcc,2,18,Woman,Right,
44,6,1,2.699417299999368,['c'],1,left,['3'],4,0.41739400000005844,0.2,0,AccAcc,2,18,Woman,Right,
45,6,1,2.732936599999448,['n'],1,right,['3'],4,1.817269000000124,0.4,0,AccAcc,2,18,Woman,Right,
46,6,1,2.1159935000005134,['n'],1,right,['2'],5,0.4004118999991988,0.4,0,AccAcc,2,18,Woman,Right,
47,6,1,2.682557399999496,['c'],0,right,['8'],3,0.18380380000053265,0.2,0,AccAcc,2,18,Woman,Right,
48,6,1,1.816479199999776,['n'],1,right,['9'],2,0.3507152000001952,0.2,0,AccAcc,2,18,Woman,Right,
49,6,1,2.6838758999992933,['n'],0,left,['8'],3,0.2671325999999681,0.2,0,AccAcc,2,18,Woman,Right,
50,6,1,4.100000200000068,['n'],1,right,['3'],4,1.7004252999995515,0.2,0,AccAcc,2,18,Woman,Right,
51,6,1,4.183264999999665,['n'],1,right,['0'],1,0.41706780000004073,0.2,0,AccAcc,2,18,Woman,Right,
52,6,1,3.883622600000308,['c'],0,right,['3'],4,0.43393550000018877,0.4,0,AccAcc,2,18,Woman,Right,
53,6,1,2.1507644000002983,['c'],1,left,['3'],4,0.38364309999997204,0.4,0,AccAcc,2,18,Woman,Right,
54,6,1,1.8667682000004788,['c'],1,left,['3'],4,0.28378999999949883,0.4,0,AccAcc,2,18,Woman,Right,
55,6,1,1.5165045000003374,['n'],1,right,['3'],4,0.3504824000001463,0.2,0,AccAcc,2,18,Woman,Right,
56,6,1,1.4997911000000386,['n'],1,right,['3'],4,1.3839231000001746,0.4,0,AccAcc,2,18,Woman,Right,
57,6,1,1.649475700000039,['c'],1,left,['2'],5,0.41707099999985076,0.4,0,AccAcc,2,18,Woman,Right,
58,6,1,2.049591599999985,['c'],0,right,['3'],4,0.6004808999996385,0.2,0,AccAcc,2,18,Woman,Right,
59,6,1,1.7997869999999239,['n'],1,right,['3'],4,0.4336317000006602,0.1,0,AccAcc,2,18,Woman,Right,
0,7,1,1.499783600000228,['n'],1,right,['3'],4,2.817936500000542,0.2,0,FastAcc,2,18,Woman,Right,
1,7,1,1.5493999000000258,['n'],1,right,['3'],4,0.9006370999995852,0.1,0,FastAcc,2,18,Woman,Right,
2,7,1,2.049508999999489,['c'],0,right,['3'],4,0.7506355000004987,0.2,0,FastAcc,2,18,Woman,Right,
3,7,1,1.2499994999998307,['c'],1,left,['2'],5,1.1170062000001053,0.4,0,FastAcc,2,18,Woman,Right,
4,7,1,1.965257400000155,['n'],1,right,['3'],4,1.9005889000000025,0.4,0,FastAcc,2,18,Woman,Right,
5,7,1,2.1162231999996948,['n'],1,right,['3'],4,0.5669707000006383,0.2,0,FastAcc,2,18,Woman,Right,
6,7,1,1.1650815000002694,['c'],1,left,['3'],4,1.0838658000002397,0.2,0,FastAcc,2,18,Woman,Right,
7,7,1,1.1170787999999447,['c'],1,left,['2'],5,0.5006232999994609,0.4,0,FastAcc,2,18,Woman,Right,
8,7,1,1.5660307999996803,['n'],1,right,['2'],5,0.650467700000263,0.1,0,FastAcc,2,18,Woman,Right,
9,7,1,2.7661434999999983,['n'],0,left,['2'],5,0.8504468999999517,0.2,0,FastAcc,2,18,Woman,Right,
10,7,1,0.965142900000501,['c'],0,right,['3'],4,0.7338658000007854,0.1,0,FastAcc,2,18,Woman,Right,
11,7,1,2.74860709999939,['n'],0,left,['3'],4,1.6670524999999543,0.1,0,FastAcc,2,18,Woman,Right,
12,7,1,1.7490230000003066,['n'],0,left,['3'],4,0.717395700000452,0.2,0,FastAcc,2,18,Woman,Right,
13,7,1,1.0327422999998817,['c'],1,left,['8'],3,0.6004566999999952,0.2,0,FastAcc,2,18,Woman,Right,
14,7,1,1.9994890999996642,['n'],0,left,['8'],3,0.7174353999998857,0.4,0,FastAcc,2,18,Woman,Right,
15,7,1,2.2500497999999425,['n'],1,right,['8'],3,1.2507160999994085,0.4,0,FastAcc,2,18,Woman,Right,
16,7,1,0.9830232000003889,['c'],1,left,['3'],4,0.6672796000002563,0.4,0,FastAcc,2,18,Woman,Right,
17,7,1,1.3840734000004886,['n'],1,right,['3'],4,0.6004182999995464,0.4,0,FastAcc,2,18,Woman,Right,
18,7,1,2.0993054000000484,['n'],1,right,['3'],4,0.6502977000000101,0.1,0,FastAcc,2,18,Woman,Right,
19,7,1,2.199730499999532,['c'],1,left,['3'],4,0.8007251999997607,0.1,0,FastAcc,2,18,Woman,Right,
20,7,1,1.4828459000000294,['c'],1,left,['3'],4,0.6170179999999164,0.1,0,FastAcc,2,18,Woman,Right,
21,7,1,1.7328668999998627,['n'],0,left,['9'],2,1.0672196999994412,0.1,0,FastAcc,2,18,Woman,Right,
22,7,1,1.9329017999998541,['c'],1,left,['8'],3,0.9338557000000947,0.2,0,FastAcc,2,18,Woman,Right,
23,7,1,3.1495316999998977,['c'],1,left,['9'],2,1.050561099999868,0.2,0,FastAcc,2,18,Woman,Right,
24,7,1,1.666091399999459,['n'],0,left,['8'],3,1.0504259999997885,0.1,0,FastAcc,2,18,Woman,Right,
25,7,1,2.7669092999994973,['n'],1,right,['3'],4,0.7338983000008739,0.4,0,FastAcc,2,18,Woman,Right,
26,7,1,1.0486692999993465,['c'],0,right,['3'],4,1.1004688000002716,0.1,0,FastAcc,2,18,Woman,Right,
27,7,1,1.1003741000004084,['n'],1,right,['2'],5,0.767214899999999,0.2,0,FastAcc,2,18,Woman,Right,
28,7,1,1.9992314000000988,['c'],0,right,['8'],3,0.6004804000003787,0.1,0,FastAcc,2,18,Woman,Right,
29,7,1,2.6666175000000294,['n'],0,left,['0'],1,0.700321499999518,0.2,0,FastAcc,2,18,Woman,Right,
30,7,1,1.9997098000003461,['c'],1,left,['9'],2,0.6339213999999629,0.1,0,FastAcc,2,18,Woman,Right,
31,7,1,3.049747500000194,['c'],0,right,['0'],1,0.9505714999995689,0.2,0,FastAcc,2,18,Woman,Right,
32,7,1,2.24975429999904,['n'],0,left,['0'],1,0.7506671999999526,0.4,0,FastAcc,2,18,Woman,Right,
33,7,1,1.5494995999997627,['c'],1,left,['9'],2,0.9171747000000323,0.2,0,FastAcc,2,18,Woman,Right,
34,7,1,2.883057999999437,['n'],0,left,['0'],1,0.4836879000013141,0.1,0,FastAcc,2,18,Woman,Right,
35,7,1,2.783706500000335,['c'],1,left,['9'],2,1.0005693000002793,0.2,0,FastAcc,2,18,Woman,Right,
36,7,1,2.582805100000769,['c'],0,right,['9'],2,0.5838669000004302,0.4,0,FastAcc,2,18,Woman,Right,
37,7,1,1.8170508000002883,['n'],1,right,['9'],2,1.3006124000003183,0.2,0,FastAcc,2,18,Woman,Right,
38,7,1,1.7329509999999573,['n'],1,right,['9'],2,0.46718760000112525,0.1,0,FastAcc,2,18,Woman,Right,
39,7,1,4.2163195999983145,['c'],0,right,['0'],1,0.5171929000007367,0.4,0,FastAcc,2,18,Woman,Right,
40,7,1,0.9505923000015173,['c'],1,left,['9'],2,0.9339018999999098,0.2,0,FastAcc,2,18,Woman,Right,
41,7,1,0.982930000000124,['c'],1,left,['9'],2,0.6838769999994838,0.1,0,FastAcc,2,18,Woman,Right,
42,7,1,1.4651897000003373,['n'],1,right,['0'],1,0.6006379999998899,0.4,0,FastAcc,2,18,Woman,Right,
43,7,1,2.282989900000757,['c'],1,left,['8'],3,1.2337167000005138,0.1,0,FastAcc,2,18,Woman,Right,
44,7,1,1.1999489999998332,['n'],1,right,['8'],3,0.7340651999984402,0.4,0,FastAcc,2,18,Woman,Right,
45,7,1,2.983481200000824,['n'],1,right,['8'],3,0.9672780999990209,0.2,0,FastAcc,2,18,Woman,Right,
46,7,1,2.633056699998633,['c'],0,right,['3'],4,1.0172204000009515,0.2,0,FastAcc,2,18,Woman,Right,
47,7,1,4.116902400000981,['n'],1,right,['0'],1,0.6171291999999085,0.4,0,FastAcc,2,18,Woman,Right,
48,7,1,2.1151822000010725,['c'],1,left,['8'],3,0.6339565999987826,0.1,0,FastAcc,2,18,Woman,Right,
49,7,1,1.131987199998548,['c'],1,left,['8'],3,0.2837851000003866,0.4,0,FastAcc,2,18,Woman,Right,
50,7,1,1.0159717999995337,['n'],1,right,['8'],3,0.2671645000009448,0.4,0,FastAcc,2,18,Woman,Right,
51,7,1,2.9488223000007565,['n'],0,left,['9'],2,0.46706389999962994,0.2,0,FastAcc,2,18,Woman,Right,
52,7,1,3.833002299999862,['n'],1,right,['0'],1,0.5672565000004397,0.1,0,FastAcc,2,18,Woman,Right,
53,7,1,1.9498025000011694,['c'],0,right,['9'],2,0.6338709000010567,0.4,0,FastAcc,2,18,Woman,Right,
54,7,1,1.5994883000003028,['c'],1,left,['8'],3,0.2671703999985766,0.1,0,FastAcc,2,18,Woman,Right,
55,7,1,0.8496216000003187,['n'],1,right,['8'],3,0.3672346999992442,0.4,0,FastAcc,2,18,Woman,Right,
56,7,1,2.298780799999804,['n'],1,right,['8'],3,0.5171884999999747,0.1,0,FastAcc,2,18,Woman,Right,
57,7,1,0.8818116999991616,['c'],1,left,['8'],3,0.3837198000001081,0.4,0,FastAcc,2,18,Woman,Right,
58,7,1,0.9828491000007489,['n'],1,right,['3'],4,0.21713570000065374,0.4,0,FastAcc,2,18,Woman,Right,
59,7,1,2.7662442000000738,['c'],1,left,['3'],4,0.2838945999992575,0.2,0,FastAcc,2,18,Woman,Right,
0,8,1,1.5835071000001335,['n'],1,right,['3'],4,0.26709549999941373,0.4,0,FastFast,2,18,Woman,Right,
1,8,1,1.1993722999995953,['c'],1,left,['3'],4,0.2839641999999003,0.2,0,FastFast,2,18,Woman,Right,
2,8,1,2.6001883000008092,['c'],1,left,['2'],5,0.283710700001393,0.4,0,FastFast,2,18,Woman,Right,
3,8,1,2.4162806999993336,['c'],1,left,['2'],5,0.23362149999957182,0.2,0,FastFast,2,18,Woman,Right,
4,8,1,1.3830855999985943,['n'],1,right,['2'],5,0.2671063999987382,0.4,0,FastFast,2,18,Woman,Right,
5,8,1,1.866078999999445,['n'],1,right,['3'],4,0.21698160000050848,0.4,0,FastFast,2,18,Woman,Right,
6,8,1,1.7321722999986378,['c'],0,right,['3'],4,0.2671752000005654,0.2,0,FastFast,2,18,Woman,Right,
7,8,1,2.0493819000002986,['n'],1,right,['3'],4,0.3171801999997115,0.2,0,FastFast,2,18,Woman,Right,
8,8,1,1.549558300001081,['n'],1,right,['2'],5,1.883965499999249,0.1,0,FastFast,2,18,Woman,Right,
9,8,1,2.248584299999493,['c'],0,right,['3'],4,0.21715709999989485,0.4,0,FastFast,2,18,Woman,Right,
10,8,1,2.2331487000010384,['n'],1,right,['2'],5,0.21717850000095495,0.4,0,FastFast,2,18,Woman,Right,
11,8,1,1.500094100001661,['c'],1,left,['3'],4,0.31716009999945527,0.4,0,FastFast,2,18,Woman,Right,
12,8,1,1.9331105000001116,['c'],1,left,['2'],5,0.30050669999945967,0.1,0,FastFast,2,18,Woman,Right,
13,8,1,1.516047700000854,['n'],1,right,['3'],4,0.717247700000371,0.4,0,FastFast,2,18,Woman,Right,
14,8,1,1.8155300999987958,['c'],1,left,['3'],4,0.5673157000001083,0.1,0,FastFast,2,18,Woman,Right,
15,8,1,2.2833522999990237,['n'],1,right,['3'],4,0.6172709000002214,0.4,0,FastFast,2,18,Woman,Right,
16,8,1,1.7660642999999254,['n'],1,right,['3'],4,0.28379020000102173,0.2,0,FastFast,2,18,Woman,Right,
17,8,1,1.183003500000268,['c'],1,left,['3'],4,0.2671921000001021,0.1,0,FastFast,2,18,Woman,Right,
18,8,1,2.332822100001067,['c'],1,left,['3'],4,0.3506925000001502,0.1,0,FastFast,2,18,Woman,Right,
19,8,1,2.6163179999985005,['n'],1,right,['3'],4,0.3668118000005052,0.4,0,FastFast,2,18,Woman,Right,
20,8,1,3.366076999998768,['c'],1,left,['8'],3,0.25042839999878197,0.2,0,FastFast,2,18,Woman,Right,
21,8,1,1.6660238999993453,['c'],1,left,['3'],4,0.283792900001572,0.1,0,FastFast,2,18,Woman,Right,
22,8,1,3.283030399999916,['c'],1,left,['3'],4,0.48391740000079153,0.1,0,FastFast,2,18,Woman,Right,
23,8,1,2.5161516000007396,['n'],0,left,['3'],4,0.3339219999998022,0.2,0,FastFast,2,18,Woman,Right,
24,8,1,3.8160053999999946,['n'],0,left,['2'],5,0.46721070000057807,0.2,0,FastFast,2,18,Woman,Right,
25,8,1,1.6828292000009242,['n'],0,left,['2'],5,0.18386669999927108,0.2,0,FastFast,2,18,Woman,Right,
26,8,1,2.499451900001077,['c'],0,right,['9'],2,0.20049079999989772,0.1,0,FastFast,2,18,Woman,Right,
27,8,1,1.8831136000007973,['c'],1,left,['3'],4,0.21697169999970356,0.4,0,FastFast,2,18,Woman,Right,
28,8,1,1.833022599999822,['c'],1,left,['3'],4,0.1838246999996045,0.2,0,FastFast,2,18,Woman,Right,
29,8,1,1.8166424999999435,['n'],1,right,['3'],4,0.2171018000008189,0.4,0,FastFast,2,18,Woman,Right,
30,8,1,2.482583599999998,['c'],0,right,['3'],4,0.8174323999992339,0.1,0,FastFast,2,18,Woman,Right,
31,8,1,1.6834000999988348,['n'],1,right,['3'],4,0.4005897000006371,0.4,0,FastFast,2,18,Woman,Right,
32,8,1,3.1656487000000197,['n'],1,right,['3'],4,0.2672325000003184,0.2,0,FastFast,2,18,Woman,Right,
33,8,1,2.1172744000014063,['n'],1,right,['9'],2,0.20044770000095014,0.1,0,FastFast,2,18,Woman,Right,
34,8,1,2.2830312000005506,['c'],0,right,['8'],3,0.20035980000102427,0.2,0,FastFast,2,18,Woman,Right,
35,8,1,2.5987933999986126,['n'],1,right,['9'],2,0.2668866000003618,0.1,0,FastFast,2,18,Woman,Right,
36,8,1,1.9160056999990047,['n'],1,right,['3'],4,0.25040679999983695,0.1,0,FastFast,2,18,Woman,Right,
37,8,1,1.0662880999989284,['c'],1,left,['3'],4,0.25043469999945955,0.4,0,FastFast,2,18,Woman,Right,
38,8,1,2.865313899999819,['n'],0,left,['3'],4,0.2672211999997671,0.2,0,FastFast,2,18,Woman,Right,
39,8,1,2.367727400000149,['n'],0,left,['3'],4,0.31724489999942307,0.4,0,FastFast,2,18,Woman,Right,
40,8,1,2.284003099999609,['n'],1,right,['3'],4,0.2337720999985322,0.4,0,FastFast,2,18,Woman,Right,
41,8,1,2.2666079999999056,['c'],0,right,['3'],4,0.4169932999993762,0.1,0,FastFast,2,18,Woman,Right,
42,8,1,1.8494924000005994,['c'],1,left,['3'],4,0.1836712999993324,0.2,0,FastFast,2,18,Woman,Right,
43,8,1,2.650259300000471,['c'],0,right,['2'],5,0.38380419999884907,0.1,0,FastFast,2,18,Woman,Right,
44,8,1,3.2492650999993202,['n'],0,left,['0'],1,0.21715340000082506,0.2,0,FastFast,2,18,Woman,Right,
45,8,1,1.5986964999992779,['n'],1,right,['3'],4,0.23384820000137552,0.2,0,FastFast,2,18,Woman,Right,
46,8,1,1.0164216000011947,['c'],1,left,['3'],4,0.21724709999944025,0.4,0,FastFast,2,18,Woman,Right,
47,8,1,2.399076099998638,['n'],0,left,['3'],4,0.2501874999998108,0.1,0,FastFast,2,18,Woman,Right,
48,8,1,1.983513799999855,['n'],1,right,['3'],4,0.23380120000001625,0.2,0,FastFast,2,18,Woman,Right,
49,8,1,4.099798999999621,['n'],0,left,['3'],4,0.23375820000001113,0.2,0,FastFast,2,18,Woman,Right,
50,8,1,1.4496085999999195,['c'],1,left,['3'],4,0.15064460000030522,0.4,0,FastFast,2,18,Woman,Right,
51,8,1,2.049818800000139,['n'],0,left,['9'],2,0.16726769999877433,0.2,0,FastFast,2,18,Woman,Right,
52,8,1,2.1665762000011455,['n'],1,right,['9'],2,0.21739069999966887,0.4,0,FastFast,2,18,Woman,Right,
53,8,1,1.8998787000000448,['c'],1,left,['8'],3,0.15048980000028678,0.1,0,FastFast,2,18,Woman,Right,
54,8,1,1.7662851999994018,['c'],1,left,['3'],4,0.23370780000004743,0.1,0,FastFast,2,18,Woman,Right,
55,8,1,1.683177800001431,['n'],0,left,['3'],4,0.21716870000091149,0.1,0,FastFast,2,18,Woman,Right,
56,8,1,2.9826957999994193,['n'],1,right,['0'],1,0.3675727000008919,0.1,0,FastFast,2,18,Woman,Right,
57,8,1,1.9166578999993362,['c'],0,right,['8'],3,0.2340289000003395,0.1,0,FastFast,2,18,Woman,Right,
58,8,1,1.2491755000010016,['c'],1,left,['8'],3,0.35043510000105016,0.2,0,FastFast,2,18,Woman,Right,
59,8,1,2.2498422999997274,['c'],0,right,['3'],4,0.15050289999999222,0.4,0,FastFast,2,18,Woman,Right,
0,9,1,2.282457000001159,['n'],0,left,['2'],5,0.23366060000080324,0.2,0,AccFast,2,18,Woman,Right,
1,9,1,2.182842600001095,['n'],1,right,['3'],4,0.5005873999998585,0.2,0,AccFast,2,18,Woman,Right,
2,9,1,2.5333776000006765,['c'],1,left,['3'],4,0.16713960000015504,0.2,0,AccFast,2,18,Woman,Right,
3,9,1,2.5828137999997125,['c'],1,left,['3'],4,0.3671988000005513,0.2,0,AccFast,2,18,Woman,Right,
4,9,1,1.3659688000007009,['n'],1,right,['3'],4,0.28382799999963026,0.1,0,AccFast,2,18,Woman,Right,
5,9,1,2.682965599999079,['c'],0,right,['9'],2,0.15056130000084522,0.4,0,AccFast,2,18,Woman,Right,
6,9,1,2.581851999999344,['n'],1,right,['8'],3,0.21709669999836478,0.4,0,AccFast,2,18,Woman,Right,
7,9,1,2.382286899999599,['n'],1,right,['8'],3,0.2670154999996157,0.1,0,AccFast,2,18,Woman,Right,
8,9,1,2.94910820000041,['c'],1,left,['8'],3,0.20048420000057376,0.1,0,AccFast,2,18,Woman,Right,
9,9,1,2.2823702999994566,['c'],1,left,['3'],4,0.20043570000052569,0.1,0,AccFast,2,18,Woman,Right,
10,9,1,1.8669389999995474,['c'],1,left,['2'],5,0.30066549999901326,0.4,0,AccFast,2,18,Woman,Right,
11,9,1,1.3655572999996366,['n'],1,right,['2'],5,0.41725659999974596,0.1,0,AccFast,2,18,Woman,Right,
12,9,1,1.9495184000006702,['n'],1,right,['3'],4,0.2671578999998019,0.2,0,AccFast,2,18,Woman,Right,
13,9,1,1.3823800999998639,['c'],1,left,['3'],4,0.2004756999995152,0.1,0,AccFast,2,18,Woman,Right,
14,9,1,1.249596499999825,['n'],0,left,['2'],5,0.31728320000001986,0.1,0,AccFast,2,18,Woman,Right,
15,9,1,2.1989239000013185,['c'],1,left,['2'],5,0.23383319999993546,0.2,0,AccFast,2,18,Woman,Right,
16,9,1,1.4497585000008257,['c'],1,left,['3'],4,0.2836119999992661,0.2,0,AccFast,2,18,Woman,Right,
17,9,1,1.9998649999997724,['c'],1,left,['3'],4,0.250591699999859,0.2,0,AccFast,2,18,Woman,Right,
18,9,1,1.416113100000075,['n'],1,right,['3'],4,0.2338129999989178,0.4,0,AccFast,2,18,Woman,Right,
19,9,1,2.0502120000001014,['n'],1,right,['3'],4,0.23382579999997688,0.4,0,AccFast,2,18,Woman,Right,
20,9,1,1.3000625999993645,['n'],0,left,['2'],5,0.29981839999891235,0.4,0,AccFast,2,18,Woman,Right,
21,9,1,2.7154245999990962,['n'],1,right,['9'],2,0.20031980000021576,0.1,0,AccFast,2,18,Woman,Right,
22,9,1,2.2829837999997835,['n'],0,left,['3'],4,0.4506707999989885,0.1,0,AccFast,2,18,Woman,Right,
23,9,1,2.3822651999998925,['n'],1,right,['3'],4,0.38382260000071255,0.1,0,AccFast,2,18,Woman,Right,
24,9,1,2.5496533000005,['c'],0,right,['8'],3,0.38367550000111805,0.1,0,AccFast,2,18,Woman,Right,
25,9,1,3.265673900001275,['n'],0,left,['9'],2,0.2004929999984597,0.1,0,AccFast,2,18,Woman,Right,
26,9,1,2.899832899998728,['n'],1,right,['9'],2,0.21698659999856318,0.4,0,AccFast,2,18,Woman,Right,
27,9,1,2.7495472999999038,['c'],1,left,['3'],4,0.5338602000010724,0.1,0,AccFast,2,18,Woman,Right,
28,9,1,3.1339074000006804,['n'],0,left,['0'],1,0.36699119999866525,0.1,0,AccFast,2,18,Woman,Right,
29,9,1,2.6162045000000944,['n'],1,right,['3'],4,1.0001183000003948,0.4,0,AccFast,2,18,Woman,Right,
30,9,1,3.349410099999659,['c'],1,left,['3'],4,0.18343649999951595,0.4,0,AccFast,2,18,Woman,Right,
31,9,1,2.1162691000008635,['n'],1,right,['3'],4,0.23390250000011292,0.4,0,AccFast,2,18,Woman,Right,
32,9,1,2.0326712999994925,['c'],0,right,['3'],4,0.21722049999880255,0.1,0,AccFast,2,18,Woman,Right,
33,9,1,2.3496858999988035,['n'],0,left,['3'],4,0.2004629000002751,0.2,0,AccFast,2,18,Woman,Right,
34,9,1,2.5826744999994844,['n'],0,left,['3'],4,0.28367880000041623,0.2,0,AccFast,2,18,Woman,Right,
35,9,1,2.5004382000006444,['n'],1,right,['0'],1,0.2671902999991289,0.1,0,AccFast,2,18,Woman,Right,
36,9,1,1.7827658999995037,['n'],1,right,['8'],3,0.18383600000015576,0.4,0,AccFast,2,18,Woman,Right,
37,9,1,2.0162669999990612,['c'],0,right,['8'],3,0.16719759999978123,0.4,0,AccFast,2,18,Woman,Right,
38,9,1,2.1156656999992265,['n'],1,right,['8'],3,0.25043860000005225,0.2,0,AccFast,2,18,Woman,Right,
39,9,1,2.5826257999997324,['n'],0,left,['9'],2,0.23382889999993495,0.2,0,AccFast,2,18,Woman,Right,
40,9,1,3.366484700000001,['n'],1,right,['8'],3,0.20006970000031288,0.4,0,AccFast,2,18,Woman,Right,
41,9,1,1.4157118999992235,['c'],1,left,['8'],3,0.2179206000000704,0.4,0,AccFast,2,18,Woman,Right,
42,9,1,1.9493677999998908,['n'],1,right,['3'],4,0.20055449999927077,0.4,0,AccFast,2,18,Woman,Right,
43,9,1,1.1826488000006066,['c'],1,left,['3'],4,0.3670951000003697,0.1,0,AccFast,2,18,Woman,Right,
44,9,1,2.7661807000004046,['n'],0,left,['0'],1,0.21725119999973685,0.2,0,AccFast,2,18,Woman,Right,
45,9,1,1.5662051999988762,['c'],1,left,['9'],2,0.15054939999936323,0.2,0,AccFast,2,18,Woman,Right,
46,9,1,2.3995304000000033,['c'],0,right,['8'],3,0.26735550000012154,0.1,0,AccFast,2,18,Woman,Right,
47,9,1,1.5325405999992654,['c'],1,left,['3'],4,0.18376920000082464,0.2,0,AccFast,2,18,Woman,Right,
48,9,1,5.016152599999259,x,-99,left,none,-99,-99,0.1,1,AccFast,2,18,Woman,Right,
49,9,1,1.183412500000486,['c'],1,left,['8'],3,0.6505071999999927,0.4,0,AccFast,2,18,Woman,Right,
50,9,1,1.2155241999989812,['n'],1,right,['8'],3,0.25056709999989835,0.4,0,AccFast,2,18,Woman,Right,
51,9,1,1.5493081000004167,['n'],1,right,['3'],4,0.20050350000019534,0.2,0,AccFast,2,18,Woman,Right,
52,9,1,2.650445999999647,['n'],1,right,['8'],3,0.18414490000031947,0.1,0,AccFast,2,18,Woman,Right,
53,9,1,1.532393100000263,['n'],0,left,['8'],3,0.18379110000023502,0.2,0,AccFast,2,18,Woman,Right,
54,9,1,1.4663603999997576,['n'],1,right,['3'],4,0.2507213999997475,0.2,0,AccFast,2,18,Woman,Right,
55,9,1,1.9496753999992507,['n'],1,right,['3'],4,0.7172371999986353,0.2,0,AccFast,2,18,Woman,Right,
56,9,1,1.865717799999402,['c'],0,right,['3'],4,0.2671167000007699,0.2,0,AccFast,2,18,Woman,Right,
57,9,1,0.8995897999993758,['n'],1,right,['3'],4,0.1838384999991831,0.4,0,AccFast,2,18,Woman,Right,
58,9,1,1.066149399999631,['n'],0,left,['3'],4,0.3005173999990802,0.4,0,AccFast,2,18,Woman,Right,
59,9,1,1.100255900000775,['c'],1,left,['3'],4,0.4839393000002019,0.4,0,AccFast,2,18,Woman,Right,
0,10,1,1.53335590000097,['n'],1,right,['3'],4,0.3002113000002282,0.2,0,AccAcc,2,18,Woman,Right,
1,10,1,1.1496920000008686,['c'],1,left,['3'],4,0.20054179999897315,0.2,0,AccAcc,2,18,Woman,Right,
2,10,1,0.9327317000006587,['c'],1,left,['3'],4,0.2169573000010132,0.4,0,AccAcc,2,18,Woman,Right,
3,10,1,1.1323155999998562,['n'],1,right,['3'],4,0.2670894999992015,0.1,0,AccAcc,2,18,Woman,Right,
4,10,1,1.0493767999996635,['n'],1,right,['3'],4,0.3172728999998071,0.2,0,AccAcc,2,18,Woman,Right,
5,10,1,0.9829016000003321,['n'],1,right,['3'],4,0.6005667999997968,0.2,0,AccAcc,2,18,Woman,Right,
6,10,1,1.1490799999992305,['n'],1,right,['3'],4,0.2339001999989705,0.2,0,AccAcc,2,18,Woman,Right,
7,10,1,1.0161699000000226,['n'],1,right,['3'],4,0.250489900001412,0.2,0,AccAcc,2,18,Woman,Right,
8,10,1,0.9824090000001888,['n'],0,left,['3'],4,0.3509410000006028,0.1,0,AccAcc,2,18,Woman,Right,
9,10,1,1.1333927000014228,['n'],1,right,['3'],4,0.20048429999951622,0.1,0,AccAcc,2,18,Woman,Right,
10,10,1,2.8001746000009007,['c'],1,left,['0'],1,0.1838553999987198,0.2,0,AccAcc,2,18,Woman,Right,
11,10,1,1.1323014000008698,['c'],1,left,['3'],4,0.21715839999887976,0.2,0,AccAcc,2,18,Woman,Right,
12,10,1,1.032481000000189,['n'],0,left,['9'],2,0.5005811000009999,0.1,0,AccAcc,2,18,Woman,Right,
13,10,1,0.7662613999982568,['c'],1,left,['3'],4,0.15062510000097973,0.4,0,AccAcc,2,18,Woman,Right,
14,10,1,0.9490791999996873,['n'],1,right,['3'],4,0.2005563999991864,0.1,0,AccAcc,2,18,Woman,Right,
15,10,1,2.382751700000881,['c'],1,left,['3'],4,0.18383340000036696,0.1,0,AccAcc,2,18,Woman,Right,
16,10,1,1.582840799999758,['n'],1,right,['3'],4,0.60047559999839,0.4,0,AccAcc,2,18,Woman,Right,
17,10,1,1.0491043999991234,['c'],0,right,['3'],4,0.06710159999965981,0.1,0,AccAcc,2,18,Woman,Right,
18,10,1,1.6495587999997952,['n'],1,right,['3'],4,0.1838227000007464,0.4,0,AccAcc,2,18,Woman,Right,
19,10,1,0.9999062999995658,['c'],1,left,['3'],4,0.1839441000010993,0.4,0,AccAcc,2,18,Woman,Right,
20,10,1,1.6504077999998117,['n'],0,left,['3'],4,0.21727970000029018,0.4,0,AccAcc,2,18,Woman,Right,
21,10,1,1.0155482000009215,['c'],1,left,['3'],4,0.20042309999917052,0.1,0,AccAcc,2,18,Woman,Right,
22,10,1,0.8499497000011615,['n'],1,right,['3'],4,0.18361259999983304,0.4,0,AccAcc,2,18,Woman,Right,
23,10,1,0.8491050000011455,['c'],1,left,['3'],4,0.18382810000002792,0.1,0,AccAcc,2,18,Woman,Right,
24,10,1,0.8828186999999161,['n'],1,right,['3'],4,0.18381670000053418,0.4,0,AccAcc,2,18,Woman,Right,
25,10,1,0.9991104000000632,['c'],1,left,['3'],4,0.20042930000090564,0.4,0,AccAcc,2,18,Woman,Right,
26,10,1,0.8824910999992426,['c'],1,left,['3'],4,0.2337466000008135,0.2,0,AccAcc,2,18,Woman,Right,
27,10,1,1.365462200001275,['n'],0,left,['3'],4,0.2837532999983523,0.2,0,AccAcc,2,18,Woman,Right,
28,10,1,1.1829849999994622,['n'],1,right,['8'],3,0.16728619999958028,0.2,0,AccAcc,2,18,Woman,Right,
29,10,1,0.7830912999997963,['n'],1,right,['8'],3,0.2172112999996898,0.4,0,AccAcc,2,18,Woman,Right,
30,10,1,1.4162513999999646,['c'],0,right,['3'],4,0.26716550000128336,0.4,0,AccAcc,2,18,Woman,Right,
31,10,1,0.8826558999990084,['n'],1,right,['3'],4,0.2335523000001558,0.2,0,AccAcc,2,18,Woman,Right,
32,10,1,1.015837900000406,['n'],1,right,['3'],4,0.21717960000023595,0.4,0,AccAcc,2,18,Woman,Right,
33,10,1,1.1491991999992024,['n'],1,right,['3'],4,0.1843722000012349,0.1,0,AccAcc,2,18,Woman,Right,
34,10,1,1.0329173000009177,['c'],1,left,['3'],4,0.18400859999928798,0.1,0,AccAcc,2,18,Woman,Right,
35,10,1,1.4160807999996905,['n'],0,left,['3'],4,0.16701710000052117,0.4,0,AccAcc,2,18,Woman,Right,
36,10,1,1.1331850999995368,['c'],1,left,['3'],4,0.20045260000006238,0.1,0,AccAcc,2,18,Woman,Right,
37,10,1,1.116069100000459,['n'],0,left,['0'],1,0.21720549999918148,0.1,0,AccAcc,2,18,Woman,Right,
38,10,1,1.0328754000001936,['c'],1,left,['9'],2,0.1837574000001041,0.2,0,AccAcc,2,18,Woman,Right,
39,10,1,1.1664034000004904,['n'],1,right,['9'],2,0.2337268999999651,0.1,0,AccAcc,2,18,Woman,Right,
40,10,1,1.0662331999992603,['n'],0,left,['3'],4,0.16718760000003385,0.1,0,AccAcc,2,18,Woman,Right,
41,10,1,1.1494602000002487,['c'],0,right,['8'],3,1.5840191000006598,0.4,0,AccAcc,2,18,Woman,Right,
42,10,1,1.2498080999994272,['c'],0,right,['3'],4,0.3836694000001444,0.4,0,AccAcc,2,18,Woman,Right,
43,10,1,0.8995367999996233,['n'],1,right,['3'],4,0.2005343000000721,0.4,0,AccAcc,2,18,Woman,Right,
44,10,1,0.9661433000001125,['n'],0,left,['3'],4,0.16717749999952503,0.4,0,AccAcc,2,18,Woman,Right,
45,10,1,0.6995882999999594,['n'],0,left,['3'],4,0.3004382999988593,0.2,0,AccAcc,2,18,Woman,Right,
46,10,1,0.7661379999990459,['n'],0,left,['3'],4,0.21719490000032238,0.2,0,AccAcc,2,18,Woman,Right,
47,10,1,0.6829520000010234,['n'],1,right,['3'],4,0.2505187999995542,0.1,0,AccAcc,2,18,Woman,Right,
48,10,1,0.7833599999994476,['n'],1,right,['3'],4,0.21709030000056373,0.2,0,AccAcc,2,18,Woman,Right,
49,10,1,1.5994844999986526,['c'],0,right,['8'],3,0.33387630000106583,0.2,0,AccAcc,2,18,Woman,Right,
50,10,1,1.4991610000015498,['n'],1,right,['0'],1,0.16723029999957362,0.1,0,AccAcc,2,18,Woman,Right,
51,10,1,0.8495418000002246,['c'],1,left,['3'],4,0.21733540000059293,0.4,0,AccAcc,2,18,Woman,Right,
52,10,1,1.5993297999993956,['n'],0,left,['0'],1,0.183875500000795,0.2,0,AccAcc,2,18,Woman,Right,
53,10,1,1.4165840999994543,['n'],0,left,['9'],2,0.18386939999982133,0.2,0,AccAcc,2,18,Woman,Right,
54,10,1,1.8167184999983874,['c'],0,right,['3'],4,0.15055519999987155,0.4,0,AccAcc,2,18,Woman,Right,
55,10,1,1.9331246000001556,['n'],1,right,['3'],4,0.1838354999999865,0.1,0,AccAcc,2,18,Woman,Right,
56,10,1,1.1834727999994357,['n'],0,left,['9'],2,0.16703599999891594,0.2,0,AccAcc,2,18,Woman,Right,
57,10,1,1.249063400000523,['n'],1,right,['3'],4,0.15048040000147012,0.4,0,AccAcc,2,18,Woman,Right,
58,10,1,1.099148299999797,['n'],0,left,['9'],2,0.18374650000077963,0.1,0,AccAcc,2,18,Woman,Right,
59,10,1,1.0996290000002773,['n'],0,left,['3'],4,0.167062900000019,0.1,0,AccAcc,2,18,Woman,Right,
0,11,1,1.033174299998791,['n'],0,left,['3'],4,0.3172703000000183,0.2,0,FastAcc,2,18,Woman,Right,
1,11,1,0.8327258999997866,['n'],0,left,['2'],5,0.21736160000000382,0.1,0,FastAcc,2,18,Woman,Right,
2,11,1,0.6662476000001334,['n'],0,left,['2'],5,0.2171228000006522,0.2,0,FastAcc,2,18,Woman,Right,
3,11,1,0.6993179999990389,['n'],0,left,['2'],5,0.18376720000014757,0.4,0,FastAcc,2,18,Woman,Right,
4,11,1,1.682795199998509,['n'],1,right,['8'],3,0.78344449999895,0.4,0,FastAcc,2,18,Woman,Right,
5,11,1,1.0002012999993894,['c'],1,left,['3'],4,0.18391840000003867,0.4,0,FastAcc,2,18,Woman,Right,
6,11,1,1.132550900001661,['n'],0,left,['3'],4,0.46707810000043537,0.1,0,FastAcc,2,18,Woman,Right,
7,11,1,1.2825993000005838,['c'],1,left,['3'],4,0.15049499999986438,0.4,0,FastAcc,2,18,Woman,Right,
8,11,1,1.182998399999633,['n'],1,right,['0'],1,0.2677246000002924,0.1,0,FastAcc,2,18,Woman,Right,
9,11,1,1.7162418000007165,['n'],0,left,['8'],3,0.23364500000025146,0.1,0,FastAcc,2,18,Woman,Right,
10,11,1,1.633475399999952,['n'],0,left,['3'],4,0.9669885999992403,0.2,0,FastAcc,2,18,Woman,Right,
11,11,1,1.066729199999827,['n'],0,left,['3'],4,0.20042039999862027,0.1,0,FastAcc,2,18,Woman,Right,
12,11,1,1.2495536999995238,['n'],0,left,['3'],4,0.38416400000096473,0.4,0,FastAcc,2,18,Woman,Right,
13,11,1,1.550281099998756,['n'],0,left,['0'],1,0.25059350000083214,0.1,0,FastAcc,2,18,Woman,Right,
14,11,1,0.9829284999996162,['n'],1,right,['3'],4,0.26726420000159123,0.4,0,FastAcc,2,18,Woman,Right,
15,11,1,0.8667619000007107,['n'],1,right,['9'],2,0.7172852000003331,0.2,0,FastAcc,2,18,Woman,Right,
16,11,1,1.2661769999995158,['c'],0,right,['8'],3,0.7671401000006881,0.1,0,FastAcc,2,18,Woman,Right,
17,11,1,1.2494931000001088,['n'],1,right,['3'],4,0.21731050000016694,0.2,0,FastAcc,2,18,Woman,Right,
18,11,1,1.932795900000201,['n'],0,left,['3'],4,0.1837297000001854,0.4,0,FastAcc,2,18,Woman,Right,
19,11,1,1.1831796000005852,['c'],1,left,['3'],4,0.3172623999998905,0.2,0,FastAcc,2,18,Woman,Right,
20,11,1,0.8822043000000122,['c'],1,left,['3'],4,0.23386310000023514,0.2,0,FastAcc,2,18,Woman,Right,
21,11,1,1.165674300000319,['n'],0,left,['3'],4,0.20050110000011045,0.2,0,FastAcc,2,18,Woman,Right,
22,11,1,1.3494353999994928,['c'],1,left,['3'],4,0.1504573000001983,0.4,0,FastAcc,2,18,Woman,Right,
23,11,1,1.0829757999999856,['n'],0,left,['3'],4,0.2004969000008714,0.1,0,FastAcc,2,18,Woman,Right,
24,11,1,1.449542600001223,['n'],1,right,['9'],2,0.16714670000146725,0.2,0,FastAcc,2,18,Woman,Right,
25,11,1,1.3330231999989337,['c'],1,left,['3'],4,0.18406310000136727,0.4,0,FastAcc,2,18,Woman,Right,
26,11,1,1.0498704000001453,['n'],1,right,['9'],2,0.2336949000000459,0.1,0,FastAcc,2,18,Woman,Right,
27,11,1,1.3660615000007965,['n'],1,right,['9'],2,0.567254800000228,0.1,0,FastAcc,2,18,Woman,Right,
28,11,1,1.650792399999773,['n'],0,left,['0'],1,0.2334316000014951,0.2,0,FastAcc,2,18,Woman,Right,
29,11,1,1.4830560999998852,['c'],0,right,['0'],1,0.1838339999994787,0.1,0,FastAcc,2,18,Woman,Right,
30,11,1,1.2660033000011026,['n'],0,left,['3'],4,0.21725750000041444,0.2,0,FastAcc,2,18,Woman,Right,
31,11,1,1.133085299999948,['n'],1,right,['3'],4,0.21721319999960542,0.4,0,FastAcc,2,18,Woman,Right,
32,11,1,1.0161145000001852,['n'],1,right,['2'],5,0.367165899999236,0.4,0,FastAcc,2,18,Woman,Right,
33,11,1,1.1842470999999932,['n'],1,right,['0'],1,0.18388430000049993,0.1,0,FastAcc,2,18,Woman,Right,
34,11,1,1.682268099999419,['n'],1,right,['9'],2,0.26703900000029535,0.4,0,FastAcc,2,18,Woman,Right,
35,11,1,1.5829131999998935,['n'],0,left,['0'],1,0.1336570000003121,0.2,0,FastAcc,2,18,Woman,Right,
36,11,1,1.5340606999998272,['n'],0,left,['0'],1,0.23387739999998303,0.1,0,FastAcc,2,18,Woman,Right,
37,11,1,0.9327033000008669,['c'],1,left,['3'],4,0.16721660000075644,0.2,0,FastAcc,2,18,Woman,Right,
38,11,1,1.6673633999998856,['c'],1,left,['0'],1,0.15081979999922623,0.2,0,FastAcc,2,18,Woman,Right,
39,11,1,0.9665227000004961,['c'],1,left,['3'],4,0.11708870000074967,0.4,0,FastAcc,2,18,Woman,Right,
40,11,1,1.7496190999991086,['c'],0,right,['9'],2,0.40056929999991553,0.2,0,FastAcc,2,18,Woman,Right,
41,11,1,0.91611439999906,['c'],1,left,['3'],4,0.13394029999835766,0.4,0,FastAcc,2,18,Woman,Right,
42,11,1,1.166417200000069,['n'],1,right,['3'],4,0.18400779999865335,0.4,0,FastAcc,2,18,Woman,Right,
43,11,1,0.8658157999998366,['c'],1,left,['3'],4,0.3172138999998424,0.4,0,FastAcc,2,18,Woman,Right,
44,11,1,1.1159748999998556,['c'],1,left,['3'],4,0.36716039999919303,0.1,0,FastAcc,2,18,Woman,Right,
45,11,1,1.2829529999999068,['n'],1,right,['0'],1,0.25058739999985846,0.1,0,FastAcc,2,18,Woman,Right,
46,11,1,1.0996488000000681,['c'],0,right,['9'],2,0.18404390000068815,0.1,0,FastAcc,2,18,Woman,Right,
47,11,1,1.41615339999953,['n'],1,right,['3'],4,0.26724540000031993,0.2,0,FastAcc,2,18,Woman,Right,
48,11,1,1.1993325999992521,['n'],1,right,['3'],4,0.20051840000087395,0.4,0,FastAcc,2,18,Woman,Right,
49,11,1,1.0662150999996811,['n'],1,right,['3'],4,0.23384269999951357,0.4,0,FastAcc,2,18,Woman,Right,
50,11,1,1.0664565000006405,['c'],1,left,['2'],5,1.0672065999988263,0.2,0,FastAcc,2,18,Woman,Right,
51,11,1,0.7161066999997274,['n'],1,right,['2'],5,0.15039619999879505,0.2,0,FastAcc,2,18,Woman,Right,
52,11,1,1.2994515000009415,['n'],1,right,['0'],1,0.1999973999991198,0.1,0,FastAcc,2,18,Woman,Right,
53,11,1,0.7830418999983522,['n'],1,right,['2'],5,0.21695199999885517,0.4,0,FastAcc,2,18,Woman,Right,
54,11,1,2.0000027999994927,['n'],1,right,['3'],4,0.48396890000003623,0.2,0,FastAcc,2,18,Woman,Right,
55,11,1,1.2153171000009024,['n'],1,right,['3'],4,0.433875500000795,0.4,0,FastAcc,2,18,Woman,Right,
56,11,1,1.1830340000014985,['c'],0,right,['8'],3,0.20026529999995546,0.1,0,FastAcc,2,18,Woman,Right,
57,11,1,1.4173383999986982,['n'],1,right,['0'],1,0.233834200000274,0.2,0,FastAcc,2,18,Woman,Right,
58,11,1,0.9661854000005405,['n'],1,right,['0'],1,0.25041219999911846,0.1,0,FastAcc,2,18,Woman,Right,
59,11,1,1.6165705999992497,['c'],0,right,['0'],1,0.2339988000003359,0.1,0,FastAcc,2,18,Woman,Right,
0,12,1,1.1661748999995325,['c'],1,left,['3'],4,0.15056519999961893,0.4,0,FastFast,2,18,Woman,Right,
1,12,1,1.4661309000002802,['n'],1,right,['0'],1,0.2004397999990033,0.1,0,FastFast,2,18,Woman,Right,
2,12,1,1.116707299999689,['c'],1,left,['3'],4,0.25052949999917473,0.4,0,FastFast,2,18,Woman,Right,
3,12,1,2.366137400000298,['c'],1,left,['3'],4,0.767081899999539,0.2,0,FastFast,2,18,Woman,Right,
4,12,1,1.3163796000008006,['n'],0,left,['3'],4,0.18368259999988368,0.1,0,FastFast,2,18,Woman,Right,
5,12,1,1.3996193000002677,['c'],1,left,['3'],4,0.18369440000060422,0.2,0,FastFast,2,18,Woman,Right,
6,12,1,1.5995186000000103,['n'],1,right,['0'],1,0.43370209999920917,0.1,0,FastFast,2,18,Woman,Right,
7,12,1,2.0161114999991696,['n'],1,right,['0'],1,0.23377220000111265,0.2,0,FastFast,2,18,Woman,Right,
8,12,1,0.9660992999997688,['c'],1,left,['3'],4,0.1672285999993619,0.4,0,FastFast,2,18,Woman,Right,
9,12,1,1.09954210000069,['c'],1,left,['3'],4,0.16708370000014838,0.2,0,FastFast,2,18,Woman,Right,
10,12,1,1.2659765999997035,['c'],1,left,['3'],4,0.13383339999927557,0.1,0,FastFast,2,18,Woman,Right,
11,12,1,0.866353600000366,['c'],1,left,['3'],4,0.20060620000003837,0.2,0,FastFast,2,18,Woman,Right,
12,12,1,1.76612810000006,['n'],1,right,['3'],4,0.25049659999967844,0.2,0,FastFast,2,18,Woman,Right,
13,12,1,1.382835399999749,['c'],0,right,['3'],4,0.15044730000045092,0.1,0,FastFast,2,18,Woman,Right,
14,12,1,1.0162123999998585,['c'],1,left,['3'],4,0.20041940000010072,0.1,0,FastFast,2,18,Woman,Right,
15,12,1,1.0661823000009463,['n'],0,left,['3'],4,0.21730249999927764,0.1,0,FastFast,2,18,Woman,Right,
16,12,1,1.332877400000143,['n'],1,right,['9'],2,0.2005948999994871,0.4,0,FastFast,2,18,Woman,Right,
17,12,1,1.1335412000007636,['n'],1,right,['8'],3,0.13373930000125256,0.1,0,FastFast,2,18,Woman,Right,
18,12,1,1.1162014999990788,['c'],1,left,['3'],4,0.21706909999920754,0.4,0,FastFast,2,18,Woman,Right,
19,12,1,1.2662123999998585,['n'],0,left,['3'],4,0.2837791999991168,0.2,0,FastFast,2,18,Woman,Right,
20,12,1,0.8666085000004387,['c'],1,left,['3'],4,0.18384160000096017,0.4,0,FastFast,2,18,Woman,Right,
21,12,1,0.8828059999996185,['c'],1,left,['2'],5,0.18372460000136925,0.2,0,FastFast,2,18,Woman,Right,
22,12,1,0.9829638999999588,['n'],1,right,['3'],4,0.1505410000008851,0.1,0,FastFast,2,18,Woman,Right,
23,12,1,0.699678999999378,['n'],1,right,['3'],4,0.21717119999993884,0.2,0,FastFast,2,18,Woman,Right,
24,12,1,1.2493785999995453,['n'],1,right,['3'],4,0.20045939999909024,0.2,0,FastFast,2,18,Woman,Right,
25,12,1,1.0161945999989257,['n'],1,right,['3'],4,0.25054809999892313,0.4,0,FastFast,2,18,Woman,Right,
26,12,1,1.4329312999998365,['c'],1,left,['3'],4,0.1673401999996713,0.2,0,FastFast,2,18,Woman,Right,
27,12,1,1.1995373999998264,['c'],0,right,['3'],4,0.20036889999937557,0.2,0,FastFast,2,18,Woman,Right,
28,12,1,1.5497326999993675,['c'],1,left,['3'],4,0.20061680000071647,0.4,0,FastFast,2,18,Woman,Right,
29,12,1,1.0492992999988928,['n'],1,right,['3'],4,0.2172117000009166,0.2,0,FastFast,2,18,Woman,Right,
30,12,1,1.0651636000002327,['c'],0,right,['2'],5,0.2004185999994661,0.1,0,FastFast,2,18,Woman,Right,
31,12,1,1.0662529000001086,['c'],1,left,['2'],5,0.21716129999913392,0.4,0,FastFast,2,18,Woman,Right,
32,12,1,0.8662213999996311,['n'],1,right,['2'],5,0.21713459999955376,0.2,0,FastFast,2,18,Woman,Right,
33,12,1,1.449654099998952,['n'],0,left,['9'],2,0.23391559999981837,0.4,0,FastFast,2,18,Woman,Right,
34,12,1,1.599432799999704,['n'],1,right,['8'],3,0.35045089999948686,0.1,0,FastFast,2,18,Woman,Right,
35,12,1,1.7327163999998447,['n'],1,right,['8'],3,0.15059180000025663,0.4,0,FastFast,2,18,Woman,Right,
36,12,1,1.1498096000013902,['n'],1,right,['3'],4,0.18391800000063085,0.1,0,FastFast,2,18,Woman,Right,
37,12,1,1.4661577999995643,['n'],1,right,['3'],4,0.2505081999988761,0.4,0,FastFast,2,18,Woman,Right,
38,12,1,0.8665286000014021,['c'],1,left,['3'],4,0.25051499999972293,0.2,0,FastFast,2,18,Woman,Right,
39,12,1,1.482832400000916,['n'],1,right,['9'],2,0.21715659999972559,0.1,0,FastFast,2,18,Woman,Right,
40,12,1,1.333654399999432,['n'],1,right,['8'],3,0.3339011999996728,0.1,0,FastFast,2,18,Woman,Right,
41,12,1,0.9662263999998686,['n'],1,right,['8'],3,0.3172414000000572,0.1,0,FastFast,2,18,Woman,Right,
42,12,1,1.0494287999990775,['n'],1,right,['3'],4,0.5172017000004416,0.4,0,FastFast,2,18,Woman,Right,
43,12,1,0.8168834999996761,['n'],1,right,['3'],4,0.23383560000002035,0.2,0,FastFast,2,18,Woman,Right,
44,12,1,1.0328943000004074,['n'],1,right,['3'],4,0.21722779999981867,0.2,0,FastFast,2,18,Woman,Right,
45,12,1,0.9492912000005163,['c'],1,left,['3'],4,0.11708540000108769,0.4,0,FastFast,2,18,Woman,Right,
46,12,1,1.0661830000008194,['n'],1,right,['3'],4,0.2504357000016171,0.4,0,FastFast,2,18,Woman,Right,
47,12,1,1.983061800001451,['c'],1,left,['3'],4,0.200677300001189,0.4,0,FastFast,2,18,Woman,Right,
48,12,1,0.9657806999985041,['n'],0,left,['3'],4,0.23377460000119754,0.2,0,FastFast,2,18,Woman,Right,
49,12,1,1.0660119999993185,['c'],1,left,['3'],4,0.21718710000095598,0.4,0,FastFast,2,18,Woman,Right,
50,12,1,1.199392499998794,['c'],1,left,['3'],4,0.28384139999980107,0.2,0,FastFast,2,18,Woman,Right,
51,12,1,0.9164076000015484,['n'],1,right,['3'],4,0.21707419999984268,0.4,0,FastFast,2,18,Woman,Right,
52,12,1,0.9829797000002145,['c'],1,left,['3'],4,0.18382990000100108,0.1,0,FastFast,2,18,Woman,Right,
53,12,1,1.3330767000006745,['n'],0,left,['9'],2,0.23383069999908912,0.2,0,FastFast,2,18,Woman,Right,
54,12,1,0.982248599999366,['n'],1,right,['9'],2,0.20048660000065865,0.1,0,FastFast,2,18,Woman,Right,
55,12,1,1.3492612000009103,['n'],1,right,['9'],2,0.2504809000001842,0.1,0,FastFast,2,18,Woman,Right,
56,12,1,0.8162296000009519,['n'],1,right,['3'],4,0.1503869999996823,0.4,0,FastFast,2,18,Woman,Right,
57,12,1,0.9000336999997671,['c'],1,left,['3'],4,0.233869900001082,0.1,0,FastFast,2,18,Woman,Right,
58,12,1,0.7829323000005388,['n'],0,left,['3'],4,0.23389769999994314,0.1,0,FastFast,2,18,Woman,Right,
59,12,1,0.83284409999942,['c'],1,left,['3'],4,0.26706389999890234,0.4,0,FastFast,2,18,Woman,Right,
0,13,1,1.6663392999998905,['n'],1,right,none,-99,-99,0.4,1,AccFast,2,18,Woman,Right,
1,13,1,5.015793900000062,x,-99,left,none,-99,-99,0.4,1,AccFast,2,18,Woman,Right,
