withinblocktrial,block,block_repetition,rt,resp,cor,cresp,conf_press,cj,rtconf,coherence,metacognition,slow_trial,manipulation,sub,age,gender,handedness,
0,1,1,1.8179294000001391,['c'],0,right,none,-99,-99,0.5,-99,0,none,17,18,Woman,Right,
1,1,1,0.9166409999997995,['c'],0,right,none,-99,-99,0.5,-99,0,none,17,18,Woman,Right,
2,1,1,1.3492878999986715,['n'],0,left,none,-99,-99,0.5,-99,0,none,17,18,Woman,Right,
3,1,1,3.5168039000000135,['c'],1,left,none,-99,-99,0.5,-99,0,none,17,18,Woman,Right,
4,1,1,1.683439600001293,['c'],0,right,none,-99,-99,0.5,-99,0,none,17,18,Woman,Right,
5,1,1,3.1830356000009488,['c'],0,right,none,-99,-99,0.5,-99,0,none,17,18,Woman,Right,
6,1,1,3.3504389000008814,['n'],0,left,none,-99,-99,0.5,-99,0,none,17,18,Woman,Right,
7,1,1,4.150014999999257,['c'],0,right,none,-99,-99,0.5,-99,0,none,17,18,Woman,Right,
8,1,1,2.416617300001235,['c'],0,right,none,-99,-99,0.5,-99,0,none,17,18,Woman,Right,
9,1,1,1.4509729000001244,['n'],1,right,none,-99,-99,0.5,-99,0,none,17,18,Woman,Right,
10,1,1,0.816716200000883,['n'],0,left,none,-99,-99,0.5,-99,0,none,17,18,Woman,Right,
11,1,1,3.634372099999382,['n'],0,left,none,-99,-99,0.5,-99,0,none,17,18,Woman,Right,
12,1,1,2.9506568999986484,['c'],1,left,none,-99,-99,0.5,-99,0,none,17,18,Woman,Right,
13,1,1,2.582785500000682,['c'],0,right,none,-99,-99,0.5,-99,0,none,17,18,Woman,Right,
14,1,1,5.0164502000006905,x,-99,left,none,-99,-99,0.5,-99,1,none,17,18,Woman,Right,
15,1,1,1.1837180999991688,['c'],1,left,none,-99,-99,0.5,-99,0,none,17,18,Woman,Right,
16,1,1,0.4003112999998848,['c'],0,right,none,-99,-99,0.5,-99,0,none,17,18,Woman,Right,
17,1,1,0.8336474999996426,['c'],0,right,none,-99,-99,0.5,-99,0,none,17,18,Woman,Right,
18,1,1,1.8664334999994026,['n'],0,left,none,-99,-99,0.5,-99,0,none,17,18,Woman,Right,
19,1,1,1.5176887000015995,['c'],1,left,none,-99,-99,0.5,-99,0,none,17,18,Woman,Right,
20,1,1,1.050587000001542,['c'],1,left,none,-99,-99,0.5,-99,0,none,17,18,Woman,Right,
21,1,1,0.7014911999995093,['c'],0,right,none,-99,-99,0.5,-99,0,none,17,18,Woman,Right,
22,1,1,1.3012357999996311,['c'],1,left,none,-99,-99,0.5,-99,0,none,17,18,Woman,Right,
23,1,1,0.9676671999986866,['c'],0,right,none,-99,-99,0.5,-99,0,none,17,18,Woman,Right,
0,1,2,1.1833478000007744,['n'],0,left,none,-99,-99,0.5,-99,0,none,17,18,Woman,Right,
1,1,2,1.2010190000000875,['c'],1,left,none,-99,-99,0.5,-99,0,none,17,18,Woman,Right,
2,1,2,2.7167072000011103,['n'],1,right,none,-99,-99,0.5,-99,0,none,17,18,Woman,Right,
3,1,2,1.000637999999526,['n'],1,right,none,-99,-99,0.5,-99,0,none,17,18,Woman,Right,
4,1,2,0.7014397000002646,['n'],1,right,none,-99,-99,0.5,-99,0,none,17,18,Woman,Right,
5,1,2,0.4507761999993818,['n'],1,right,none,-99,-99,0.5,-99,0,none,17,18,Woman,Right,
6,1,2,0.45038779999958933,['n'],1,right,none,-99,-99,0.5,-99,0,none,17,18,Woman,Right,
7,1,2,0.9677357000000484,['n'],0,left,none,-99,-99,0.5,-99,0,none,17,18,Woman,Right,
8,1,2,0.8345458999992843,['n'],0,left,none,-99,-99,0.5,-99,0,none,17,18,Woman,Right,
9,1,2,1.150954400000046,['n'],0,left,none,-99,-99,0.5,-99,0,none,17,18,Woman,Right,
10,1,2,0.9509925999991538,['n'],1,right,none,-99,-99,0.5,-99,0,none,17,18,Woman,Right,
11,1,2,0.6662957000007736,['c'],0,right,none,-99,-99,0.5,-99,0,none,17,18,Woman,Right,
12,1,2,0.5007392999996227,['n'],0,left,none,-99,-99,0.5,-99,0,none,17,18,Woman,Right,
13,1,2,1.2346104000007472,['n'],0,left,none,-99,-99,0.5,-99,0,none,17,18,Woman,Right,
14,1,2,1.3831589999990683,['n'],1,right,none,-99,-99,0.5,-99,0,none,17,18,Woman,Right,
15,1,2,1.332994399999734,['n'],0,left,none,-99,-99,0.5,-99,0,none,17,18,Woman,Right,
16,1,2,1.883727700000236,['n'],0,left,none,-99,-99,0.5,-99,0,none,17,18,Woman,Right,
17,1,2,0.7671386000001803,['n'],1,right,none,-99,-99,0.5,-99,0,none,17,18,Woman,Right,
18,1,2,0.6162762000003568,['c'],0,right,none,-99,-99,0.5,-99,0,none,17,18,Woman,Right,
19,1,2,1.0662838999996893,['n'],0,left,none,-99,-99,0.5,-99,0,none,17,18,Woman,Right,
20,1,2,0.5174982999997155,['n'],1,right,none,-99,-99,0.5,-99,0,none,17,18,Woman,Right,
21,1,2,1.1843267000003834,['n'],1,right,none,-99,-99,0.5,-99,0,none,17,18,Woman,Right,
22,1,2,0.9005111000005854,['n'],0,left,none,-99,-99,0.5,-99,0,none,17,18,Woman,Right,
23,1,2,0.5498692000001029,['c'],1,left,none,-99,-99,0.5,-99,0,none,17,18,Woman,Right,
0,1,3,0.6513517000003048,['n'],0,left,none,-99,-99,0.5,-99,0,none,17,18,Woman,Right,
1,1,3,1.0336667000010493,['n'],1,right,none,-99,-99,0.5,-99,0,none,17,18,Woman,Right,
2,1,3,0.751171300000351,['n'],1,right,none,-99,-99,0.5,-99,0,none,17,18,Woman,Right,
3,1,3,0.7500292000004265,['n'],0,left,none,-99,-99,0.5,-99,0,none,17,18,Woman,Right,
4,1,3,1.3668842000006407,['n'],1,right,none,-99,-99,0.5,-99,0,none,17,18,Woman,Right,
5,1,3,1.133077599999524,['n'],0,left,none,-99,-99,0.5,-99,0,none,17,18,Woman,Right,
6,1,3,1.1161682999991172,['c'],1,left,none,-99,-99,0.5,-99,0,none,17,18,Woman,Right,
7,1,3,1.165951099999802,['n'],1,right,none,-99,-99,0.5,-99,0,none,17,18,Woman,Right,
8,1,3,0.46768490000067686,['c'],1,left,none,-99,-99,0.5,-99,0,none,17,18,Woman,Right,
9,1,3,0.8001789999998437,['n'],1,right,none,-99,-99,0.5,-99,0,none,17,18,Woman,Right,
10,1,3,1.1004450999989785,['c'],0,right,none,-99,-99,0.5,-99,0,none,17,18,Woman,Right,
11,1,3,0.6669597000000067,['n'],1,right,none,-99,-99,0.5,-99,0,none,17,18,Woman,Right,
12,1,3,0.6334994999997434,['n'],1,right,none,-99,-99,0.5,-99,0,none,17,18,Woman,Right,
13,1,3,0.41716839999935473,['n'],0,left,none,-99,-99,0.5,-99,0,none,17,18,Woman,Right,
14,1,3,0.9838423000001058,['c'],1,left,none,-99,-99,0.5,-99,0,none,17,18,Woman,Right,
15,1,3,1.2172597999997379,['c'],1,left,none,-99,-99,0.5,-99,0,none,17,18,Woman,Right,
16,1,3,0.650490300000456,['c'],1,left,none,-99,-99,0.5,-99,0,none,17,18,Woman,Right,
17,1,3,0.8506763999994291,['n'],1,right,none,-99,-99,0.5,-99,0,none,17,18,Woman,Right,
18,1,3,1.4006431999987399,['n'],0,left,none,-99,-99,0.5,-99,0,none,17,18,Woman,Right,
19,1,3,0.8675512999998318,['c'],1,left,none,-99,-99,0.5,-99,0,none,17,18,Woman,Right,
20,1,3,0.9502403999995295,['c'],0,right,none,-99,-99,0.5,-99,0,none,17,18,Woman,Right,
21,1,3,0.71951910000098,['n'],0,left,none,-99,-99,0.5,-99,0,none,17,18,Woman,Right,
22,1,3,0.8663900999999896,['n'],1,right,none,-99,-99,0.5,-99,0,none,17,18,Woman,Right,
23,1,3,0.8677124000005279,['n'],1,right,none,-99,-99,0.5,-99,0,none,17,18,Woman,Right,
0,1,4,1.0005209999999352,['n'],1,right,none,-99,-99,0.5,-99,0,none,17,18,Woman,Right,
1,1,4,0.6504643999996915,['n'],1,right,none,-99,-99,0.5,-99,0,none,17,18,Woman,Right,
2,1,4,0.41777279999951134,['c'],1,left,none,-99,-99,0.5,-99,0,none,17,18,Woman,Right,
3,1,4,0.5010640999989846,['c'],0,right,none,-99,-99,0.5,-99,0,none,17,18,Woman,Right,
4,1,4,0.9837404999998398,['n'],0,left,none,-99,-99,0.5,-99,0,none,17,18,Woman,Right,
5,1,4,0.7342986000003293,['n'],1,right,none,-99,-99,0.5,-99,0,none,17,18,Woman,Right,
6,1,4,0.4506264999999985,['c'],1,left,none,-99,-99,0.5,-99,0,none,17,18,Woman,Right,
7,1,4,0.7671464000013657,['c'],0,right,none,-99,-99,0.5,-99,0,none,17,18,Woman,Right,
8,1,4,0.9675009000002319,['c'],0,right,none,-99,-99,0.5,-99,0,none,17,18,Woman,Right,
9,1,4,0.7671406999997998,['n'],0,left,none,-99,-99,0.5,-99,0,none,17,18,Woman,Right,
10,1,4,1.350819400000546,['n'],1,right,none,-99,-99,0.5,-99,0,none,17,18,Woman,Right,
11,1,4,0.7171156000003975,['n'],0,left,none,-99,-99,0.5,-99,0,none,17,18,Woman,Right,
12,1,4,0.5347638000002917,['n'],0,left,none,-99,-99,0.5,-99,0,none,17,18,Woman,Right,
13,1,4,0.9004570999986754,['n'],1,right,none,-99,-99,0.5,-99,0,none,17,18,Woman,Right,
14,1,4,0.7839112000001478,['n'],1,right,none,-99,-99,0.5,-99,0,none,17,18,Woman,Right,
15,1,4,0.9003345999990415,['n'],1,right,none,-99,-99,0.5,-99,0,none,17,18,Woman,Right,
16,1,4,1.2672633999991376,['n'],0,left,none,-99,-99,0.5,-99,0,none,17,18,Woman,Right,
17,1,4,0.7013851000010618,['n'],1,right,none,-99,-99,0.5,-99,0,none,17,18,Woman,Right,
18,1,4,0.7173531000007642,['n'],0,left,none,-99,-99,0.5,-99,0,none,17,18,Woman,Right,
19,1,4,0.6491394999993645,['c'],1,left,none,-99,-99,0.5,-99,0,none,17,18,Woman,Right,
20,1,4,0.3852765999999974,['c'],1,left,none,-99,-99,0.5,-99,0,none,17,18,Woman,Right,
21,1,4,0.8005530000009458,['n'],0,left,none,-99,-99,0.5,-99,0,none,17,18,Woman,Right,
22,1,4,0.48367159999907017,['c'],1,left,none,-99,-99,0.5,-99,0,none,17,18,Woman,Right,
23,1,4,0.33452260000012757,['c'],0,right,none,-99,-99,0.5,-99,0,none,17,18,Woman,Right,
0,1,5,0.7346594000009645,['n'],0,left,none,-99,-99,0.5,-99,0,none,17,18,Woman,Right,
1,1,5,0.7178268999996362,['n'],0,left,none,-99,-99,0.5,-99,0,none,17,18,Woman,Right,
2,1,5,1.8843446999999287,['c'],1,left,none,-99,-99,0.5,-99,0,none,17,18,Woman,Right,
3,1,5,0.6338206000000355,['c'],1,left,none,-99,-99,0.5,-99,0,none,17,18,Woman,Right,
4,1,5,0.684009700000388,['c'],0,right,none,-99,-99,0.5,-99,0,none,17,18,Woman,Right,
5,1,5,0.46733099999983096,['n'],0,left,none,-99,-99,0.5,-99,0,none,17,18,Woman,Right,
6,1,5,0.7328484999998182,['n'],1,right,none,-99,-99,0.5,-99,0,none,17,18,Woman,Right,
7,1,5,0.5673308000004909,['n'],1,right,none,-99,-99,0.5,-99,0,none,17,18,Woman,Right,
8,1,5,0.7511978000002273,['c'],0,right,none,-99,-99,0.5,-99,0,none,17,18,Woman,Right,
9,1,5,1.6161776000008103,['n'],0,left,none,-99,-99,0.5,-99,0,none,17,18,Woman,Right,
10,1,5,1.050530600001366,['c'],1,left,none,-99,-99,0.5,-99,0,none,17,18,Woman,Right,
11,1,5,0.6999235999992379,['c'],1,left,none,-99,-99,0.5,-99,0,none,17,18,Woman,Right,
12,1,5,0.7336658999993233,['c'],0,right,none,-99,-99,0.5,-99,0,none,17,18,Woman,Right,
13,1,5,1.0170145000010962,['c'],1,left,none,-99,-99,0.5,-99,0,none,17,18,Woman,Right,
14,1,5,0.3343650000006164,['c'],0,right,none,-99,-99,0.5,-99,0,none,17,18,Woman,Right,
15,1,5,0.49974140000085754,['n'],1,right,none,-99,-99,0.5,-99,0,none,17,18,Woman,Right,
16,1,5,0.7003375000003871,['n'],1,right,none,-99,-99,0.5,-99,0,none,17,18,Woman,Right,
17,1,5,0.30067090000011376,['c'],0,right,none,-99,-99,0.5,-99,0,none,17,18,Woman,Right,
18,1,5,0.6002793000006932,['n'],1,right,none,-99,-99,0.5,-99,0,none,17,18,Woman,Right,
19,1,5,0.40019390000088606,['n'],1,right,none,-99,-99,0.5,-99,0,none,17,18,Woman,Right,
20,1,5,0.3836113999986992,['n'],0,left,none,-99,-99,0.5,-99,0,none,17,18,Woman,Right,
21,1,5,0.2673214000005828,['c'],0,right,none,-99,-99,0.5,-99,0,none,17,18,Woman,Right,
22,1,5,0.7512026999993395,['n'],0,left,none,-99,-99,0.5,-99,0,none,17,18,Woman,Right,
23,1,5,0.5344337000005908,['c'],1,left,none,-99,-99,0.5,-99,0,none,17,18,Woman,Right,
0,1,6,0.6014489000008325,['n'],0,left,none,-99,-99,0.5,-99,0,none,17,18,Woman,Right,
1,1,6,0.8834835000016028,['n'],1,right,none,-99,-99,0.5,-99,0,none,17,18,Woman,Right,
2,1,6,0.5842709000007744,['n'],0,left,none,-99,-99,0.5,-99,0,none,17,18,Woman,Right,
3,1,6,0.6680756999994628,['n'],1,right,none,-99,-99,0.5,-99,0,none,17,18,Woman,Right,
4,1,6,0.7510041000005003,['n'],1,right,none,-99,-99,0.5,-99,0,none,17,18,Woman,Right,
5,1,6,0.41747319999922183,['n'],1,right,none,-99,-99,0.5,-99,0,none,17,18,Woman,Right,
6,1,6,0.5001084000014089,['n'],0,left,none,-99,-99,0.5,-99,0,none,17,18,Woman,Right,
7,1,6,0.33481810000012047,['n'],0,left,none,-99,-99,0.5,-99,0,none,17,18,Woman,Right,
8,1,6,0.932810000000245,['c'],0,right,none,-99,-99,0.5,-99,0,none,17,18,Woman,Right,
9,1,6,0.3332485999999335,['n'],0,left,none,-99,-99,0.5,-99,0,none,17,18,Woman,Right,
10,1,6,0.4508917000002839,['n'],0,left,none,-99,-99,0.5,-99,0,none,17,18,Woman,Right,
11,1,6,0.4179548000010982,['c'],0,right,none,-99,-99,0.5,-99,0,none,17,18,Woman,Right,
12,1,6,1.317283000000316,['n'],0,left,none,-99,-99,0.5,-99,0,none,17,18,Woman,Right,
13,1,6,0.4509929999985616,['c'],1,left,none,-99,-99,0.5,-99,0,none,17,18,Woman,Right,
14,1,6,0.8168029999997088,['c'],0,right,none,-99,-99,0.5,-99,0,none,17,18,Woman,Right,
15,1,6,1.350505999998859,['c'],0,right,none,-99,-99,0.5,-99,0,none,17,18,Woman,Right,
16,1,6,0.6838403000001563,['n'],1,right,none,-99,-99,0.5,-99,0,none,17,18,Woman,Right,
17,1,6,0.7172147000001132,['n'],0,left,none,-99,-99,0.5,-99,0,none,17,18,Woman,Right,
18,1,6,0.6835668999992777,['c'],0,right,none,-99,-99,0.5,-99,0,none,17,18,Woman,Right,
19,1,6,0.6674643000005744,['c'],0,right,none,-99,-99,0.5,-99,0,none,17,18,Woman,Right,
20,1,6,0.7005877999999939,['n'],0,left,none,-99,-99,0.5,-99,0,none,17,18,Woman,Right,
21,1,6,0.5334281000014016,['n'],1,right,none,-99,-99,0.5,-99,0,none,17,18,Woman,Right,
22,1,6,0.6176600999988295,['n'],0,left,none,-99,-99,0.5,-99,0,none,17,18,Woman,Right,
23,1,6,0.6017915000011271,['c'],1,left,none,-99,-99,0.5,-99,0,none,17,18,Woman,Right,
0,1,7,0.7504165999998804,['n'],0,left,none,-99,-99,0.5,-99,0,none,17,18,Woman,Right,
1,1,7,0.8677040000002307,['n'],1,right,none,-99,-99,0.5,-99,0,none,17,18,Woman,Right,
2,1,7,0.6841062000003149,['n'],0,left,none,-99,-99,0.5,-99,0,none,17,18,Woman,Right,
3,1,7,1.684359000000768,['n'],1,right,none,-99,-99,0.5,-99,0,none,17,18,Woman,Right,
4,1,7,0.6835674000012659,['n'],1,right,none,-99,-99,0.5,-99,0,none,17,18,Woman,Right,
5,1,7,0.6006410000009055,['n'],1,right,none,-99,-99,0.5,-99,0,none,17,18,Woman,Right,
6,1,7,0.683654899999965,['n'],1,right,none,-99,-99,0.5,-99,0,none,17,18,Woman,Right,
7,1,7,0.4010487999985344,['n'],1,right,none,-99,-99,0.5,-99,0,none,17,18,Woman,Right,
8,1,7,0.4673097999984748,['c'],0,right,none,-99,-99,0.5,-99,0,none,17,18,Woman,Right,
9,1,7,0.8344577999996545,['c'],1,left,none,-99,-99,0.5,-99,0,none,17,18,Woman,Right,
10,1,7,0.434792699999889,['c'],0,right,none,-99,-99,0.5,-99,0,none,17,18,Woman,Right,
11,1,7,0.6171873000002961,['n'],0,left,none,-99,-99,0.5,-99,0,none,17,18,Woman,Right,
12,1,7,1.0010031000001618,['n'],0,left,none,-99,-99,0.5,-99,0,none,17,18,Woman,Right,
13,1,7,0.7673543999990216,['n'],1,right,none,-99,-99,0.5,-99,0,none,17,18,Woman,Right,
14,1,7,0.9008909000003769,['n'],1,right,none,-99,-99,0.5,-99,0,none,17,18,Woman,Right,
15,1,7,0.7330922999990435,['n'],0,left,none,-99,-99,0.5,-99,0,none,17,18,Woman,Right,
16,1,7,0.749512100001084,['n'],1,right,none,-99,-99,0.5,-99,0,none,17,18,Woman,Right,
17,1,7,1.0008500999992975,['n'],0,left,none,-99,-99,0.5,-99,0,none,17,18,Woman,Right,
18,1,7,0.5514879999991535,['c'],1,left,none,-99,-99,0.5,-99,0,none,17,18,Woman,Right,
19,1,7,0.5334218999996665,['c'],0,right,none,-99,-99,0.5,-99,0,none,17,18,Woman,Right,
20,1,7,0.36779030000070634,['c'],1,left,none,-99,-99,0.5,-99,0,none,17,18,Woman,Right,
21,1,7,0.24957719999838446,['c'],1,left,none,-99,-99,0.5,-99,0,none,17,18,Woman,Right,
22,1,7,0.36735160000171163,['c'],1,left,none,-99,-99,0.5,-99,0,none,17,18,Woman,Right,
23,1,7,0.6007291999994777,['c'],1,left,none,-99,-99,0.5,-99,0,none,17,18,Woman,Right,
0,1,8,0.9011061000001064,['n'],0,left,none,-99,-99,0.5,-99,0,none,17,18,Woman,Right,
1,1,8,1.1998392999994394,['c'],1,left,none,-99,-99,0.5,-99,0,none,17,18,Woman,Right,
2,1,8,0.3990544999996928,['c'],1,left,none,-99,-99,0.5,-99,0,none,17,18,Woman,Right,
3,1,8,0.550345899999229,['c'],0,right,none,-99,-99,0.5,-99,0,none,17,18,Woman,Right,
4,1,8,0.6509525000001304,['n'],1,right,none,-99,-99,0.5,-99,0,none,17,18,Woman,Right,
5,1,8,0.8662755000004836,['n'],1,right,none,-99,-99,0.5,-99,0,none,17,18,Woman,Right,
6,1,8,0.8832793000001402,['n'],1,right,none,-99,-99,0.5,-99,0,none,17,18,Woman,Right,
7,1,8,0.46739659999911964,['n'],1,right,none,-99,-99,0.5,-99,0,none,17,18,Woman,Right,
8,1,8,0.3509840999995504,['n'],0,left,none,-99,-99,0.5,-99,0,none,17,18,Woman,Right,
9,1,8,0.4156577000012476,['c'],1,left,none,-99,-99,0.5,-99,0,none,17,18,Woman,Right,
10,1,8,0.38461180000012973,['c'],1,left,none,-99,-99,0.5,-99,0,none,17,18,Woman,Right,
11,1,8,0.3002563999998529,['c'],0,right,none,-99,-99,0.5,-99,0,none,17,18,Woman,Right,
12,1,8,0.8503605999994761,['n'],0,left,none,-99,-99,0.5,-99,0,none,17,18,Woman,Right,
13,1,8,0.4510353000005125,['n'],1,right,none,-99,-99,0.5,-99,0,none,17,18,Woman,Right,
14,1,8,0.41767239999899175,['n'],1,right,none,-99,-99,0.5,-99,0,none,17,18,Woman,Right,
15,1,8,0.5841543999995338,['n'],0,left,none,-99,-99,0.5,-99,0,none,17,18,Woman,Right,
16,1,8,0.4654023999992205,['n'],0,left,none,-99,-99,0.5,-99,0,none,17,18,Woman,Right,
17,1,8,0.3675493999999162,['c'],0,right,none,-99,-99,0.5,-99,0,none,17,18,Woman,Right,
18,1,8,0.6172893000002659,['c'],0,right,none,-99,-99,0.5,-99,0,none,17,18,Woman,Right,
19,1,8,0.3005053999986558,['c'],1,left,none,-99,-99,0.5,-99,0,none,17,18,Woman,Right,
20,1,8,0.2663326000001689,['c'],1,left,none,-99,-99,0.5,-99,0,none,17,18,Woman,Right,
21,1,8,0.5672248999999283,['c'],0,right,none,-99,-99,0.5,-99,0,none,17,18,Woman,Right,
22,1,8,1.400138999999399,['n'],1,right,none,-99,-99,0.5,-99,0,none,17,18,Woman,Right,
23,1,8,0.8342424999991636,['n'],0,left,none,-99,-99,0.5,-99,0,none,17,18,Woman,Right,
0,1,9,0.8005271000001812,['n'],1,right,none,-99,-99,0.5,-99,0,none,17,18,Woman,Right,
1,1,9,0.48274859999946784,['n'],1,right,none,-99,-99,0.5,-99,0,none,17,18,Woman,Right,
2,1,9,0.7170177999996667,['n'],0,left,none,-99,-99,0.5,-99,0,none,17,18,Woman,Right,
3,1,9,1.3836576999983663,['n'],0,left,none,-99,-99,0.5,-99,0,none,17,18,Woman,Right,
4,1,9,1.4497205000006943,['n'],0,left,none,-99,-99,0.5,-99,0,none,17,18,Woman,Right,
5,1,9,1.033951999999772,['n'],0,left,none,-99,-99,0.5,-99,0,none,17,18,Woman,Right,
6,1,9,0.45099860000118497,['n'],1,right,none,-99,-99,0.5,-99,0,none,17,18,Woman,Right,
7,1,9,0.2499033000003692,['n'],0,left,none,-99,-99,0.5,-99,0,none,17,18,Woman,Right,
8,1,9,0.36704289999943285,['c'],1,left,none,-99,-99,0.5,-99,0,none,17,18,Woman,Right,
9,1,9,0.4171175999999832,['c'],0,right,none,-99,-99,0.5,-99,0,none,17,18,Woman,Right,
10,1,9,1.8838113000001613,['c'],1,left,none,-99,-99,0.5,-99,0,none,17,18,Woman,Right,
11,1,9,0.9345740000007936,['n'],0,left,none,-99,-99,0.5,-99,0,none,17,18,Woman,Right,
12,1,9,1.7677279999988968,['n'],0,left,none,-99,-99,0.5,-99,0,none,17,18,Woman,Right,
13,1,9,0.6656206000006932,['n'],0,left,none,-99,-99,0.5,-99,0,none,17,18,Woman,Right,
14,1,9,0.7175060999998095,['c'],0,right,none,-99,-99,0.5,-99,0,none,17,18,Woman,Right,
15,1,9,0.3509478999985731,['n'],1,right,none,-99,-99,0.5,-99,0,none,17,18,Woman,Right,
16,1,9,0.4679113000001962,['n'],0,left,none,-99,-99,0.5,-99,0,none,17,18,Woman,Right,
17,1,9,0.9674475000010716,['n'],1,right,none,-99,-99,0.5,-99,0,none,17,18,Woman,Right,
18,1,9,0.5661175000004732,['n'],1,right,none,-99,-99,0.5,-99,0,none,17,18,Woman,Right,
19,1,9,0.6171837000001688,['n'],1,right,none,-99,-99,0.5,-99,0,none,17,18,Woman,Right,
20,1,9,0.3836559999999736,['n'],1,right,none,-99,-99,0.5,-99,0,none,17,18,Woman,Right,
21,1,9,0.43391459999838844,['n'],1,right,none,-99,-99,0.5,-99,0,none,17,18,Woman,Right,
22,1,9,0.6840092000002187,['n'],1,right,none,-99,-99,0.5,-99,0,none,17,18,Woman,Right,
23,1,9,0.36776909999935015,['n'],0,left,none,-99,-99,0.5,-99,0,none,17,18,Woman,Right,
0,1,10,0.583851000001232,['n'],0,left,none,-99,-99,0.5,-99,0,none,17,18,Woman,Right,
1,1,10,0.6673728000005212,['n'],0,left,none,-99,-99,0.5,-99,0,none,17,18,Woman,Right,
2,1,10,0.5842001000000892,['n'],1,right,none,-99,-99,0.5,-99,0,none,17,18,Woman,Right,
3,1,10,1.0330973000000085,['n'],0,left,none,-99,-99,0.5,-99,0,none,17,18,Woman,Right,
4,1,10,0.6677342000002682,['n'],1,right,none,-99,-99,0.5,-99,0,none,17,18,Woman,Right,
5,1,10,1.6496427999991283,['n'],0,left,none,-99,-99,0.5,-99,0,none,17,18,Woman,Right,
6,1,10,0.6501029000010021,['c'],0,right,none,-99,-99,0.5,-99,0,none,17,18,Woman,Right,
7,1,10,2.284095900000466,['n'],1,right,none,-99,-99,0.5,-99,0,none,17,18,Woman,Right,
8,1,10,1.7336334999999963,['n'],0,left,none,-99,-99,0.5,-99,0,none,17,18,Woman,Right,
9,1,10,1.617203800000425,['n'],0,left,none,-99,-99,0.5,-99,0,none,17,18,Woman,Right,
10,1,10,0.6170897000010882,['n'],0,left,none,-99,-99,0.5,-99,0,none,17,18,Woman,Right,
11,1,10,0.8010910999983025,['c'],0,right,none,-99,-99,0.5,-99,0,none,17,18,Woman,Right,
12,1,10,0.5169568999990588,['c'],0,right,none,-99,-99,0.5,-99,0,none,17,18,Woman,Right,
13,1,10,0.3007780999996612,['c'],0,right,none,-99,-99,0.5,-99,0,none,17,18,Woman,Right,
14,1,10,0.8346297000007326,['n'],1,right,none,-99,-99,0.5,-99,0,none,17,18,Woman,Right,
15,1,10,0.7009741999991093,['n'],0,left,none,-99,-99,0.5,-99,0,none,17,18,Woman,Right,
16,1,10,0.36691889999929117,['c'],0,right,none,-99,-99,0.5,-99,0,none,17,18,Woman,Right,
17,1,10,0.8839815000010276,['c'],0,right,none,-99,-99,0.5,-99,0,none,17,18,Woman,Right,
18,1,10,0.6336635999996361,['n'],0,left,none,-99,-99,0.5,-99,0,none,17,18,Woman,Right,
19,1,10,0.5341644999989512,['n'],0,left,none,-99,-99,0.5,-99,0,none,17,18,Woman,Right,
20,1,10,0.5670898999997007,['n'],0,left,none,-99,-99,0.5,-99,0,none,17,18,Woman,Right,
21,1,10,0.5847360999996454,['n'],1,right,none,-99,-99,0.5,-99,0,none,17,18,Woman,Right,
22,1,10,0.6835389000007126,['n'],1,right,none,-99,-99,0.5,-99,0,none,17,18,Woman,Right,
23,1,10,0.9336722999996709,['c'],1,left,none,-99,-99,0.5,-99,0,none,17,18,Woman,Right,
0,1,11,0.6673158000012336,['n'],1,right,none,-99,-99,0.5,-99,0,none,17,18,Woman,Right,
1,1,11,0.6332268999994994,['n'],1,right,none,-99,-99,0.5,-99,0,none,17,18,Woman,Right,
2,1,11,0.5337682999997924,['c'],1,left,none,-99,-99,0.5,-99,0,none,17,18,Woman,Right,
3,1,11,0.4161144999998214,['c'],1,left,none,-99,-99,0.5,-99,0,none,17,18,Woman,Right,
4,1,11,0.6334765999999945,['c'],0,right,none,-99,-99,0.5,-99,0,none,17,18,Woman,Right,
5,1,11,0.9836804000005941,['n'],0,left,none,-99,-99,0.5,-99,0,none,17,18,Woman,Right,
6,1,11,0.8170629999985977,['c'],0,right,none,-99,-99,0.5,-99,0,none,17,18,Woman,Right,
7,1,11,0.9013484000006429,['c'],1,left,none,-99,-99,0.5,-99,0,none,17,18,Woman,Right,
8,1,11,0.6679473000003782,['c'],0,right,none,-99,-99,0.5,-99,0,none,17,18,Woman,Right,
9,1,11,2.2177566999998817,['n'],0,left,none,-99,-99,0.5,-99,0,none,17,18,Woman,Right,
10,1,11,0.6171458999997412,['n'],1,right,none,-99,-99,0.5,-99,0,none,17,18,Woman,Right,
11,1,11,2.3348851000009745,['n'],0,left,none,-99,-99,0.5,-99,0,none,17,18,Woman,Right,
12,1,11,1.0173422999996546,['c'],1,left,none,-99,-99,0.5,-99,0,none,17,18,Woman,Right,
13,1,11,1.1161821000005148,['n'],1,right,none,-99,-99,0.5,-99,0,none,17,18,Woman,Right,
14,1,11,0.9003781999999774,['n'],1,right,none,-99,-99,0.5,-99,0,none,17,18,Woman,Right,
15,1,11,1.1346336999995401,['n'],1,right,none,-99,-99,0.5,-99,0,none,17,18,Woman,Right,
16,1,11,0.8844058999984554,['n'],0,left,none,-99,-99,0.5,-99,0,none,17,18,Woman,Right,
17,1,11,0.734288399999059,['c'],0,right,none,-99,-99,0.5,-99,0,none,17,18,Woman,Right,
18,1,11,1.3499873999990086,['c'],1,left,none,-99,-99,0.5,-99,0,none,17,18,Woman,Right,
19,1,11,2.4675324999989243,['c'],0,right,none,-99,-99,0.5,-99,0,none,17,18,Woman,Right,
20,1,11,0.9510258000009344,['n'],1,right,none,-99,-99,0.5,-99,0,none,17,18,Woman,Right,
21,1,11,0.6676234000005934,['n'],0,left,none,-99,-99,0.5,-99,0,none,17,18,Woman,Right,
22,1,11,1.9671443000006548,['n'],0,left,none,-99,-99,0.5,-99,0,none,17,18,Woman,Right,
23,1,11,1.0503851999983453,['c'],1,left,none,-99,-99,0.5,-99,0,none,17,18,Woman,Right,
0,1,12,0.7679611000003206,['n'],0,left,none,-99,-99,0.5,-99,0,none,17,18,Woman,Right,
1,1,12,1.6339796999982354,['c'],1,left,none,-99,-99,0.5,-99,0,none,17,18,Woman,Right,
2,1,12,0.9846109999998589,['c'],0,right,none,-99,-99,0.5,-99,0,none,17,18,Woman,Right,
3,1,12,0.8843993999998929,['n'],0,left,none,-99,-99,0.5,-99,0,none,17,18,Woman,Right,
4,1,12,1.0012408000002324,['c'],0,right,none,-99,-99,0.5,-99,0,none,17,18,Woman,Right,
5,1,12,1.484250500001508,['n'],0,left,none,-99,-99,0.5,-99,0,none,17,18,Woman,Right,
6,1,12,2.1672765000002983,['c'],0,right,none,-99,-99,0.5,-99,0,none,17,18,Woman,Right,
7,1,12,0.899701799999093,['c'],1,left,none,-99,-99,0.5,-99,0,none,17,18,Woman,Right,
8,1,12,0.5009179999997286,['c'],0,right,none,-99,-99,0.5,-99,0,none,17,18,Woman,Right,
9,1,12,0.8010917999999947,['n'],0,left,none,-99,-99,0.5,-99,0,none,17,18,Woman,Right,
10,1,12,2.066873099998702,['c'],0,right,none,-99,-99,0.5,-99,0,none,17,18,Woman,Right,
11,1,12,1.4488803999993252,['n'],1,right,none,-99,-99,0.5,-99,0,none,17,18,Woman,Right,
12,1,12,0.4504477999998926,['n'],1,right,none,-99,-99,0.5,-99,0,none,17,18,Woman,Right,
13,1,12,0.584141000001182,['c'],1,left,none,-99,-99,0.5,-99,0,none,17,18,Woman,Right,
14,1,12,0.3838097999996535,['c'],0,right,none,-99,-99,0.5,-99,0,none,17,18,Woman,Right,
15,1,12,0.9344043000000966,['n'],0,left,none,-99,-99,0.5,-99,0,none,17,18,Woman,Right,
16,1,12,0.8831578999997873,['n'],1,right,none,-99,-99,0.5,-99,0,none,17,18,Woman,Right,
17,1,12,0.6340178999998898,['n'],0,left,none,-99,-99,0.5,-99,0,none,17,18,Woman,Right,
18,1,12,0.8336831000015081,['n'],0,left,none,-99,-99,0.5,-99,0,none,17,18,Woman,Right,
19,1,12,0.36748609999995097,['c'],1,left,none,-99,-99,0.5,-99,0,none,17,18,Woman,Right,
20,1,12,0.5662257000003592,['c'],0,right,none,-99,-99,0.5,-99,0,none,17,18,Woman,Right,
21,1,12,0.7171904999995604,['c'],0,right,none,-99,-99,0.5,-99,0,none,17,18,Woman,Right,
22,1,12,0.5171581999984483,['c'],1,left,none,-99,-99,0.5,-99,0,none,17,18,Woman,Right,
23,1,12,0.4169256999994104,['c'],0,right,none,-99,-99,0.5,-99,0,none,17,18,Woman,Right,
0,1,13,0.8347399999984191,['c'],1,left,none,-99,-99,0.5,-99,0,none,17,18,Woman,Right,
1,1,13,0.3505596000013611,['c'],0,right,none,-99,-99,0.5,-99,0,none,17,18,Woman,Right,
2,1,13,0.30030970000007073,['n'],0,left,none,-99,-99,0.5,-99,0,none,17,18,Woman,Right,
3,1,13,2.634010499999931,['n'],1,right,none,-99,-99,0.5,-99,0,none,17,18,Woman,Right,
4,1,13,0.667491299998801,['c'],0,right,none,-99,-99,0.5,-99,0,none,17,18,Woman,Right,
5,1,13,0.8338528999993287,['c'],0,right,none,-99,-99,0.5,-99,0,none,17,18,Woman,Right,
6,1,13,0.9170752999998513,['c'],1,left,none,-99,-99,0.5,-99,0,none,17,18,Woman,Right,
7,1,13,1.1662163000000874,['c'],1,left,none,-99,-99,0.5,-99,0,none,17,18,Woman,Right,
8,1,13,0.982957099999112,['n'],0,left,none,-99,-99,0.5,-99,0,none,17,18,Woman,Right,
9,1,13,0.9649341999993339,['c'],0,right,none,-99,-99,0.5,-99,0,none,17,18,Woman,Right,
10,1,13,3.3347161000001506,['c'],0,right,none,-99,-99,0.5,-99,0,none,17,18,Woman,Right,
11,1,13,0.900879900000291,['n'],0,left,none,-99,-99,0.5,-99,0,none,17,18,Woman,Right,
12,1,13,1.8009798000002775,['n'],1,right,none,-99,-99,0.5,-99,0,none,17,18,Woman,Right,
13,1,13,1.933980600000723,['n'],1,right,none,-99,-99,0.5,-99,0,none,17,18,Woman,Right,
14,1,13,1.4838510999998107,['n'],1,right,none,-99,-99,0.5,-99,0,none,17,18,Woman,Right,
15,1,13,1.2020159000003332,['c'],1,left,none,-99,-99,0.5,-99,0,none,17,18,Woman,Right,
16,1,13,1.5349809999988793,['c'],0,right,none,-99,-99,0.5,-99,0,none,17,18,Woman,Right,
17,1,13,1.3001409000007698,['c'],0,right,none,-99,-99,0.5,-99,0,none,17,18,Woman,Right,
18,1,13,1.2005876999992324,['c'],1,left,none,-99,-99,0.5,-99,0,none,17,18,Woman,Right,
19,1,13,2.034136199999921,['c'],1,left,none,-99,-99,0.5,-99,0,none,17,18,Woman,Right,
20,1,13,1.0335184999985358,['n'],0,left,none,-99,-99,0.5,-99,0,none,17,18,Woman,Right,
21,1,13,0.6671141999995598,['n'],0,left,none,-99,-99,0.5,-99,0,none,17,18,Woman,Right,
22,1,13,0.5000629999994999,['n'],1,right,none,-99,-99,0.5,-99,0,none,17,18,Woman,Right,
23,1,13,0.7003409000008105,['n'],0,left,none,-99,-99,0.5,-99,0,none,17,18,Woman,Right,
0,1,14,2.067910400000983,['c'],1,left,none,-99,-99,0.5,-99,0,none,17,18,Woman,Right,
1,1,14,0.8159845999998652,['n'],0,left,none,-99,-99,0.5,-99,0,none,17,18,Woman,Right,
2,1,14,0.6013977000002342,['n'],1,right,none,-99,-99,0.5,-99,0,none,17,18,Woman,Right,
3,1,14,0.7173268000005919,['c'],0,right,none,-99,-99,0.5,-99,0,none,17,18,Woman,Right,
4,1,14,1.201193000000785,['c'],0,right,none,-99,-99,0.5,-99,0,none,17,18,Woman,Right,
5,1,14,1.7344438000000082,['n'],0,left,none,-99,-99,0.5,-99,0,none,17,18,Woman,Right,
6,1,14,1.5494994000000588,['n'],0,left,none,-99,-99,0.5,-99,0,none,17,18,Woman,Right,
7,1,14,0.5676505000010366,['c'],0,right,none,-99,-99,0.5,-99,0,none,17,18,Woman,Right,
8,1,14,0.6336968999985402,['n'],1,right,none,-99,-99,0.5,-99,0,none,17,18,Woman,Right,
9,1,14,0.434237800000119,['n'],0,left,none,-99,-99,0.5,-99,0,none,17,18,Woman,Right,
10,1,14,0.8333564000004117,['c'],1,left,none,-99,-99,0.5,-99,0,none,17,18,Woman,Right,
11,1,14,0.7008409999998548,['c'],0,right,none,-99,-99,0.5,-99,0,none,17,18,Woman,Right,
12,1,14,0.43421479999960866,['n'],0,left,none,-99,-99,0.5,-99,0,none,17,18,Woman,Right,
13,1,14,1.083648900001208,['n'],1,right,none,-99,-99,0.5,-99,0,none,17,18,Woman,Right,
14,1,14,2.3005884000012884,['n'],0,left,none,-99,-99,0.5,-99,0,none,17,18,Woman,Right,
15,1,14,0.7826801999999589,['c'],0,right,none,-99,-99,0.5,-99,0,none,17,18,Woman,Right,
16,1,14,0.8686232000000018,['c'],0,right,none,-99,-99,0.5,-99,0,none,17,18,Woman,Right,
17,1,14,0.8179209000008996,['n'],0,left,none,-99,-99,0.5,-99,0,none,17,18,Woman,Right,
18,1,14,1.2499097999989317,['c'],1,left,none,-99,-99,0.5,-99,0,none,17,18,Woman,Right,
19,1,14,0.7510462999998708,['n'],0,left,none,-99,-99,0.5,-99,0,none,17,18,Woman,Right,
20,1,14,1.1494913000005909,['n'],0,left,none,-99,-99,0.5,-99,0,none,17,18,Woman,Right,
21,1,14,0.567922100000942,['c'],0,right,none,-99,-99,0.5,-99,0,none,17,18,Woman,Right,
22,1,14,2.916975900001489,['c'],0,right,none,-99,-99,0.5,-99,0,none,17,18,Woman,Right,
23,1,14,0.6159929999994347,['c'],0,right,none,-99,-99,0.5,-99,0,none,17,18,Woman,Right,
0,1,15,0.767648699998972,['n'],0,left,none,-99,-99,0.5,-99,0,none,17,18,Woman,Right,
1,1,15,0.467089700001452,['n'],0,left,none,-99,-99,0.5,-99,0,none,17,18,Woman,Right,
2,1,15,0.3176894000007451,['c'],1,left,none,-99,-99,0.5,-99,0,none,17,18,Woman,Right,
3,1,15,0.28353880000031495,['c'],1,left,none,-99,-99,0.5,-99,0,none,17,18,Woman,Right,
4,1,15,0.3663435999987996,['n'],1,right,none,-99,-99,0.5,-99,0,none,17,18,Woman,Right,
5,1,15,0.3341163000004599,['c'],1,left,none,-99,-99,0.5,-99,0,none,17,18,Woman,Right,
6,1,15,0.3007570999998279,['c'],0,right,none,-99,-99,0.5,-99,0,none,17,18,Woman,Right,
7,1,15,0.3503467999998975,['c'],1,left,none,-99,-99,0.5,-99,0,none,17,18,Woman,Right,
8,1,15,0.2679651999987982,['c'],1,left,none,-99,-99,0.5,-99,0,none,17,18,Woman,Right,
9,1,15,0.45113879999917117,['n'],1,right,none,-99,-99,0.5,-99,0,none,17,18,Woman,Right,
10,1,15,0.3666713000002346,['c'],1,left,none,-99,-99,0.5,-99,0,none,17,18,Woman,Right,
11,1,15,0.3839570999989519,['c'],0,right,none,-99,-99,0.5,-99,0,none,17,18,Woman,Right,
12,1,15,0.30085110000072746,['n'],0,left,none,-99,-99,0.5,-99,0,none,17,18,Woman,Right,
13,1,15,0.30014959999971325,['c'],1,left,none,-99,-99,0.5,-99,0,none,17,18,Woman,Right,
14,1,15,0.26681230000031064,['c'],0,right,none,-99,-99,0.5,-99,0,none,17,18,Woman,Right,
15,1,15,0.36830970000119123,['c'],1,left,none,-99,-99,0.5,-99,0,none,17,18,Woman,Right,
16,1,15,0.29979029999958584,['n'],1,right,none,-99,-99,0.5,-99,0,none,17,18,Woman,Right,
17,1,15,0.18305809999947087,['n'],0,left,none,-99,-99,0.5,-99,0,none,17,18,Woman,Right,
18,1,15,0.21764770000118006,['c'],0,right,none,-99,-99,0.5,-99,0,none,17,18,Woman,Right,
19,1,15,0.2830465999995795,['n'],1,right,none,-99,-99,0.5,-99,0,none,17,18,Woman,Right,
20,1,15,0.3005300000004354,['c'],0,right,none,-99,-99,0.5,-99,0,none,17,18,Woman,Right,
21,1,15,0.11692539999967266,['n'],1,right,none,-99,-99,0.5,-99,0,none,17,18,Woman,Right,
22,1,15,0.08215879999988829,['c'],0,right,none,-99,-99,0.5,-99,0,none,17,18,Woman,Right,
23,1,15,0.3177098999985901,['c'],0,right,none,-99,-99,0.5,-99,0,none,17,18,Woman,Right,
0,1,16,0.3839829999997164,['c'],0,right,none,-99,-99,0.5,-99,0,none,17,18,Woman,Right,
1,1,16,0.5338801999987481,['c'],0,right,none,-99,-99,0.5,-99,0,none,17,18,Woman,Right,
2,1,16,0.30038729999978386,['c'],0,right,none,-99,-99,0.5,-99,0,none,17,18,Woman,Right,
3,1,16,0.017384700000548037,['n'],0,left,none,-99,-99,0.5,-99,0,none,17,18,Woman,Right,
4,1,16,0.11732430000120075,['c'],1,left,none,-99,-99,0.5,-99,0,none,17,18,Woman,Right,
5,1,16,0.3827095999986341,['c'],0,right,none,-99,-99,0.5,-99,0,none,17,18,Woman,Right,
6,1,16,0.23465380000016012,['n'],1,right,none,-99,-99,0.5,-99,0,none,17,18,Woman,Right,
7,1,16,0.2342198999995162,['n'],1,right,none,-99,-99,0.5,-99,0,none,17,18,Woman,Right,
8,1,16,0.2838699000003544,['n'],1,right,none,-99,-99,0.5,-99,0,none,17,18,Woman,Right,
9,1,16,0.21695700000054785,['c'],1,left,none,-99,-99,0.5,-99,0,none,17,18,Woman,Right,
10,1,16,0.2338846000002377,['c'],1,left,none,-99,-99,0.5,-99,0,none,17,18,Woman,Right,
11,1,16,0.2506112999999459,['c'],0,right,none,-99,-99,0.5,-99,0,none,17,18,Woman,Right,
12,1,16,0.04955410000002303,['n'],1,right,none,-99,-99,0.5,-99,0,none,17,18,Woman,Right,
13,1,16,0.26694320000024163,['n'],1,right,none,-99,-99,0.5,-99,0,none,17,18,Woman,Right,
14,1,16,0.217562399999224,['n'],0,left,none,-99,-99,0.5,-99,0,none,17,18,Woman,Right,
15,1,16,0.2673677000002499,['c'],1,left,none,-99,-99,0.5,-99,0,none,17,18,Woman,Right,
16,1,16,0.26616289999947185,['n'],0,left,none,-99,-99,0.5,-99,0,none,17,18,Woman,Right,
17,1,16,0.26708359999975073,['c'],1,left,none,-99,-99,0.5,-99,0,none,17,18,Woman,Right,
18,1,16,0.31745390000105544,['c'],1,left,none,-99,-99,0.5,-99,0,none,17,18,Woman,Right,
19,1,16,0.3005457999988721,['n'],1,right,none,-99,-99,0.5,-99,0,none,17,18,Woman,Right,
20,1,16,0.25109040000097593,['c'],1,left,none,-99,-99,0.5,-99,0,none,17,18,Woman,Right,
21,1,16,0.3503762000000279,['c'],1,left,none,-99,-99,0.5,-99,0,none,17,18,Woman,Right,
22,1,16,0.2995102000004408,['n'],1,right,none,-99,-99,0.5,-99,0,none,17,18,Woman,Right,
23,1,16,0.25098160000015923,['c'],1,left,none,-99,-99,0.5,-99,0,none,17,18,Woman,Right,
0,1,17,0.4677486999989924,['c'],1,left,none,-99,-99,0.5,-99,0,none,17,18,Woman,Right,
1,1,17,0.18345919999956095,['c'],1,left,none,-99,-99,0.5,-99,0,none,17,18,Woman,Right,
2,1,17,0.3337155999997776,['n'],1,right,none,-99,-99,0.5,-99,0,none,17,18,Woman,Right,
3,1,17,0.26698730000134674,['c'],1,left,none,-99,-99,0.5,-99,0,none,17,18,Woman,Right,
4,1,17,0.2335014999989653,['c'],0,right,none,-99,-99,0.5,-99,0,none,17,18,Woman,Right,
5,1,17,0.25122819999887724,['n'],1,right,none,-99,-99,0.5,-99,0,none,17,18,Woman,Right,
6,1,17,0.23372900000140362,['n'],0,left,none,-99,-99,0.5,-99,0,none,17,18,Woman,Right,
7,1,17,0.35170019999895885,['c'],1,left,none,-99,-99,0.5,-99,0,none,17,18,Woman,Right,
8,1,17,0.2662238000011712,['c'],0,right,none,-99,-99,0.5,-99,0,none,17,18,Woman,Right,
9,1,17,0.28386519999912707,['n'],1,right,none,-99,-99,0.5,-99,0,none,17,18,Woman,Right,
10,1,17,0.283687999999529,['c'],1,left,none,-99,-99,0.5,-99,0,none,17,18,Woman,Right,
11,1,17,0.43402599999899394,['n'],0,left,none,-99,-99,0.5,-99,0,none,17,18,Woman,Right,
12,1,17,0.21750950000023295,['n'],0,left,none,-99,-99,0.5,-99,0,none,17,18,Woman,Right,
13,1,17,0.30055969999921217,['c'],1,left,none,-99,-99,0.5,-99,0,none,17,18,Woman,Right,
14,1,17,0.2669200999989698,['c'],1,left,none,-99,-99,0.5,-99,0,none,17,18,Woman,Right,
15,1,17,0.36702730000070005,['c'],1,left,none,-99,-99,0.5,-99,0,none,17,18,Woman,Right,
16,1,17,0.5013901000002079,['n'],1,right,none,-99,-99,0.5,-99,0,none,17,18,Woman,Right,
17,1,17,0.24914729999909468,['n'],1,right,none,-99,-99,0.5,-99,0,none,17,18,Woman,Right,
18,1,17,0.2839414999998553,['n'],1,right,none,-99,-99,0.5,-99,0,none,17,18,Woman,Right,
19,1,17,0.23397109999859822,['c'],0,right,none,-99,-99,0.5,-99,0,none,17,18,Woman,Right,
20,1,17,0.23452180000094813,['c'],0,right,none,-99,-99,0.5,-99,0,none,17,18,Woman,Right,
21,1,17,0.36744569999973464,['c'],0,right,none,-99,-99,0.5,-99,0,none,17,18,Woman,Right,
22,1,17,0.3170865000010963,['c'],1,left,none,-99,-99,0.5,-99,0,none,17,18,Woman,Right,
23,1,17,0.24998620000042138,['c'],0,right,none,-99,-99,0.5,-99,0,none,17,18,Woman,Right,
0,1,18,0.4343200999992405,['n'],1,right,none,-99,-99,0.5,-99,0,none,17,18,Woman,Right,
1,1,18,0.2672868000008748,['n'],0,left,none,-99,-99,0.5,-99,0,none,17,18,Woman,Right,
2,1,18,0.03314990000035323,['c'],0,right,none,-99,-99,0.5,-99,0,none,17,18,Woman,Right,
3,1,18,0.2994568000012805,['c'],1,left,none,-99,-99,0.5,-99,0,none,17,18,Woman,Right,
4,1,18,0.5342357999998057,['n'],0,left,none,-99,-99,0.5,-99,0,none,17,18,Woman,Right,
5,1,18,0.2841982999998436,['c'],1,left,none,-99,-99,0.5,-99,0,none,17,18,Woman,Right,
6,1,18,0.23436099999889848,['c'],0,right,none,-99,-99,0.5,-99,0,none,17,18,Woman,Right,
7,1,18,0.35062140000081854,['c'],1,left,none,-99,-99,0.5,-99,0,none,17,18,Woman,Right,
8,1,18,0.267356700000164,['c'],1,left,none,-99,-99,0.5,-99,0,none,17,18,Woman,Right,
9,1,18,0.2343790999984776,['n'],1,right,none,-99,-99,0.5,-99,0,none,17,18,Woman,Right,
10,1,18,0.250756100000217,['n'],0,left,none,-99,-99,0.5,-99,0,none,17,18,Woman,Right,
11,1,18,0.08378730000003998,['c'],1,left,none,-99,-99,0.5,-99,0,none,17,18,Woman,Right,
12,1,18,0.26720879999993485,['c'],0,right,none,-99,-99,0.5,-99,0,none,17,18,Woman,Right,
13,1,18,0.25095409999994445,['n'],1,right,none,-99,-99,0.5,-99,0,none,17,18,Woman,Right,
14,1,18,0.30050419999861333,['n'],1,right,none,-99,-99,0.5,-99,0,none,17,18,Woman,Right,
15,1,18,0.2843259000001126,['n'],1,right,none,-99,-99,0.5,-99,0,none,17,18,Woman,Right,
16,1,18,0.2835601000006136,['n'],1,right,none,-99,-99,0.5,-99,0,none,17,18,Woman,Right,
17,1,18,0.31682549999823095,['n'],1,right,none,-99,-99,0.5,-99,0,none,17,18,Woman,Right,
18,1,18,0.2507220999996207,['n'],0,left,none,-99,-99,0.5,-99,0,none,17,18,Woman,Right,
19,1,18,0.26673510000000533,['c'],1,left,none,-99,-99,0.5,-99,0,none,17,18,Woman,Right,
20,1,18,0.2504527999990387,['c'],0,right,none,-99,-99,0.5,-99,0,none,17,18,Woman,Right,
21,1,18,0.25075309999920137,['n'],0,left,none,-99,-99,0.5,-99,0,none,17,18,Woman,Right,
22,1,18,0.2505990000008751,['c'],1,left,none,-99,-99,0.5,-99,0,none,17,18,Woman,Right,
23,1,18,0.2832135000007838,['c'],0,right,none,-99,-99,0.5,-99,0,none,17,18,Woman,Right,
0,1,19,0.5010020000008808,['n'],0,left,none,-99,-99,0.5,-99,0,none,17,18,Woman,Right,
1,1,19,0.2847283000010066,['c'],0,right,none,-99,-99,0.5,-99,0,none,17,18,Woman,Right,
2,1,19,0.45033259999945585,['c'],0,right,none,-99,-99,0.5,-99,0,none,17,18,Woman,Right,
3,1,19,0.36719429999902786,['n'],0,left,none,-99,-99,0.5,-99,0,none,17,18,Woman,Right,
4,1,19,0.3005771999996796,['n'],1,right,none,-99,-99,0.5,-99,0,none,17,18,Woman,Right,
5,1,19,0.2511224999998376,['n'],0,left,none,-99,-99,0.5,-99,0,none,17,18,Woman,Right,
6,1,19,0.3507735999992292,['c'],0,right,none,-99,-99,0.5,-99,0,none,17,18,Woman,Right,
7,1,19,1.5001832999987528,['n'],1,right,none,-99,-99,0.5,-99,0,none,17,18,Woman,Right,
8,1,19,0.28394739999930607,['n'],1,right,none,-99,-99,0.5,-99,0,none,17,18,Woman,Right,
9,1,19,0.26715190000140865,['c'],0,right,none,-99,-99,0.5,-99,0,none,17,18,Woman,Right,
10,1,19,0.30043379999915487,['c'],1,left,none,-99,-99,0.5,-99,0,none,17,18,Woman,Right,
11,1,19,0.2671613000002253,['c'],0,right,none,-99,-99,0.5,-99,0,none,17,18,Woman,Right,
12,1,19,0.3841835000002902,['n'],0,left,none,-99,-99,0.5,-99,0,none,17,18,Woman,Right,
13,1,19,0.23354619999918214,['n'],0,left,none,-99,-99,0.5,-99,0,none,17,18,Woman,Right,
14,1,19,0.3995068000003812,['n'],0,left,none,-99,-99,0.5,-99,0,none,17,18,Woman,Right,
15,1,19,0.36772449999989476,['n'],1,right,none,-99,-99,0.5,-99,0,none,17,18,Woman,Right,
16,1,19,0.3665032999997493,['n'],1,right,none,-99,-99,0.5,-99,0,none,17,18,Woman,Right,
17,1,19,0.31688949999988836,['n'],0,left,none,-99,-99,0.5,-99,0,none,17,18,Woman,Right,
18,1,19,0.333149099998991,['c'],1,left,none,-99,-99,0.5,-99,0,none,17,18,Woman,Right,
19,1,19,0.317626800000653,['c'],0,right,none,-99,-99,0.5,-99,0,none,17,18,Woman,Right,
20,1,19,0.9159359999994194,['n'],0,left,none,-99,-99,0.5,-99,0,none,17,18,Woman,Right,
21,1,19,0.30022439999993367,['c'],1,left,none,-99,-99,0.5,-99,0,none,17,18,Woman,Right,
22,1,19,0.251212500001202,['c'],0,right,none,-99,-99,0.5,-99,0,none,17,18,Woman,Right,
23,1,19,0.34964209999998275,['n'],0,left,none,-99,-99,0.5,-99,0,none,17,18,Woman,Right,
0,1,20,0.684363399999711,['c'],1,left,none,-99,-99,0.5,-99,0,none,17,18,Woman,Right,
1,1,20,0.28393449999930453,['c'],0,right,none,-99,-99,0.5,-99,0,none,17,18,Woman,Right,
2,1,20,0.767453000000387,['n'],0,left,none,-99,-99,0.5,-99,0,none,17,18,Woman,Right,
3,1,20,0.30140990000109014,['c'],1,left,none,-99,-99,0.5,-99,0,none,17,18,Woman,Right,
4,1,20,0.3010545999986789,['c'],1,left,none,-99,-99,0.5,-99,0,none,17,18,Woman,Right,
5,1,20,0.3171139999994921,['n'],0,left,none,-99,-99,0.5,-99,0,none,17,18,Woman,Right,
6,1,20,0.5503365999993548,['c'],1,left,none,-99,-99,0.5,-99,0,none,17,18,Woman,Right,
7,1,20,0.3510210000004008,['n'],1,right,none,-99,-99,0.5,-99,0,none,17,18,Woman,Right,
8,1,20,0.5836298999984137,['c'],1,left,none,-99,-99,0.5,-99,0,none,17,18,Woman,Right,
9,1,20,0.41704160000153934,['n'],0,left,none,-99,-99,0.5,-99,0,none,17,18,Woman,Right,
10,1,20,0.26745650000157184,['c'],1,left,none,-99,-99,0.5,-99,0,none,17,18,Woman,Right,
11,1,20,0.3504949000016495,['c'],0,right,none,-99,-99,0.5,-99,0,none,17,18,Woman,Right,
12,1,20,0.33497370000077353,['c'],0,right,none,-99,-99,0.5,-99,0,none,17,18,Woman,Right,
13,1,20,0.11784750000151689,['n'],0,left,none,-99,-99,0.5,-99,0,none,17,18,Woman,Right,
14,1,20,0.350752399999692,['n'],0,left,none,-99,-99,0.5,-99,0,none,17,18,Woman,Right,
15,1,20,0.3345597999996244,['c'],0,right,none,-99,-99,0.5,-99,0,none,17,18,Woman,Right,
16,1,20,0.3003920000010112,['c'],0,right,none,-99,-99,0.5,-99,0,none,17,18,Woman,Right,
17,1,20,0.33426909999980126,['n'],1,right,none,-99,-99,0.5,-99,0,none,17,18,Woman,Right,
18,1,20,0.6503524999989168,['c'],1,left,none,-99,-99,0.5,-99,0,none,17,18,Woman,Right,
19,1,20,0.4338428999999451,['c'],0,right,none,-99,-99,0.5,-99,0,none,17,18,Woman,Right,
20,1,20,0.3008085999990726,['n'],1,right,none,-99,-99,0.5,-99,0,none,17,18,Woman,Right,
21,1,20,0.5174129999995785,['c'],0,right,none,-99,-99,0.5,-99,0,none,17,18,Woman,Right,
22,1,20,0.3674598000015976,['n'],1,right,none,-99,-99,0.5,-99,0,none,17,18,Woman,Right,
23,1,20,0.3677189999998518,['n'],1,right,none,-99,-99,0.5,-99,0,none,17,18,Woman,Right,
0,1,21,0.7178805000003194,['c'],0,right,none,-99,-99,0.5,-99,0,none,17,18,Woman,Right,
1,1,21,0.41807239999980084,['n'],0,left,none,-99,-99,0.5,-99,0,none,17,18,Woman,Right,
2,1,21,0.2508287999989989,['c'],1,left,none,-99,-99,0.5,-99,0,none,17,18,Woman,Right,
3,1,21,0.3352168999990681,['c'],1,left,none,-99,-99,0.5,-99,0,none,17,18,Woman,Right,
4,1,21,0.3012204999995447,['c'],1,left,none,-99,-99,0.5,-99,0,none,17,18,Woman,Right,
5,1,21,0.24989330000062182,['n'],0,left,none,-99,-99,0.5,-99,0,none,17,18,Woman,Right,
6,1,21,0.316908600001625,['n'],1,right,none,-99,-99,0.5,-99,0,none,17,18,Woman,Right,
7,1,21,0.3504850000008446,['n'],0,left,none,-99,-99,0.5,-99,0,none,17,18,Woman,Right,
8,1,21,0.3007900000011432,['c'],0,right,none,-99,-99,0.5,-99,0,none,17,18,Woman,Right,
9,1,21,0.25033150000126625,['c'],0,right,none,-99,-99,0.5,-99,0,none,17,18,Woman,Right,
10,1,21,0.26619359999858716,['c'],0,right,none,-99,-99,0.5,-99,0,none,17,18,Woman,Right,
11,1,21,0.3181953000002977,['c'],0,right,none,-99,-99,0.5,-99,0,none,17,18,Woman,Right,
12,1,21,0.3171947999999247,['n'],0,left,none,-99,-99,0.5,-99,0,none,17,18,Woman,Right,
13,1,21,0.30077559999881487,['c'],1,left,none,-99,-99,0.5,-99,0,none,17,18,Woman,Right,
14,1,21,0.3497546999988117,['c'],0,right,none,-99,-99,0.5,-99,0,none,17,18,Woman,Right,
15,1,21,0.35047169999961625,['n'],0,left,none,-99,-99,0.5,-99,0,none,17,18,Woman,Right,
16,1,21,0.43428730000050564,['c'],0,right,none,-99,-99,0.5,-99,0,none,17,18,Woman,Right,
17,1,21,0.48367120000148134,['c'],1,left,none,-99,-99,0.5,-99,0,none,17,18,Woman,Right,
18,1,21,0.5499572999997326,['c'],0,right,none,-99,-99,0.5,-99,0,none,17,18,Woman,Right,
19,1,21,0.3171433999996225,['c'],0,right,none,-99,-99,0.5,-99,0,none,17,18,Woman,Right,
20,1,21,0.2836827000010089,['n'],1,right,none,-99,-99,0.5,-99,0,none,17,18,Woman,Right,
21,1,21,0.2836361999998189,['n'],0,left,none,-99,-99,0.5,-99,0,none,17,18,Woman,Right,
22,1,21,0.7006646000008914,['n'],1,right,none,-99,-99,0.5,-99,0,none,17,18,Woman,Right,
23,1,21,0.3999184999993304,['n'],0,left,none,-99,-99,0.5,-99,0,none,17,18,Woman,Right,
0,1,22,0.43492390000028536,['c'],0,right,none,-99,-99,0.5,-99,0,none,17,18,Woman,Right,
1,1,22,0.4342644999996992,['c'],1,left,none,-99,-99,0.5,-99,0,none,17,18,Woman,Right,
2,1,22,0.3497860999996192,['c'],1,left,none,-99,-99,0.5,-99,0,none,17,18,Woman,Right,
3,1,22,0.366727800001172,['n'],1,right,none,-99,-99,0.5,-99,0,none,17,18,Woman,Right,
4,1,22,0.45045589999972435,['c'],1,left,none,-99,-99,0.5,-99,0,none,17,18,Woman,Right,
5,1,22,0.3172995000004448,['c'],0,right,none,-99,-99,0.5,-99,0,none,17,18,Woman,Right,
6,1,22,0.28382950000013807,['n'],1,right,none,-99,-99,0.5,-99,0,none,17,18,Woman,Right,
7,1,22,0.2839555999998993,['n'],1,right,none,-99,-99,0.5,-99,0,none,17,18,Woman,Right,
8,1,22,0.25113710000005085,['c'],1,left,none,-99,-99,0.5,-99,0,none,17,18,Woman,Right,
9,1,22,0.24955299999965064,['c'],1,left,none,-99,-99,0.5,-99,0,none,17,18,Woman,Right,
10,1,22,0.2343196000001626,['n'],1,right,none,-99,-99,0.5,-99,0,none,17,18,Woman,Right,
11,1,22,0.25048810000043886,['c'],0,right,none,-99,-99,0.5,-99,0,none,17,18,Woman,Right,
12,1,22,0.2336169999998674,['n'],1,right,none,-99,-99,0.5,-99,0,none,17,18,Woman,Right,
13,1,22,0.2337878999987879,['n'],1,right,none,-99,-99,0.5,-99,0,none,17,18,Woman,Right,
14,1,22,0.33423660000153177,['c'],1,left,none,-99,-99,0.5,-99,0,none,17,18,Woman,Right,
15,1,22,0.23372349999954167,['c'],1,left,none,-99,-99,0.5,-99,0,none,17,18,Woman,Right,
16,1,22,0.26690360000065994,['n'],0,left,none,-99,-99,0.5,-99,0,none,17,18,Woman,Right,
17,1,22,0.282594500000414,['n'],1,right,none,-99,-99,0.5,-99,0,none,17,18,Woman,Right,
18,1,22,0.267671399999017,['n'],0,left,none,-99,-99,0.5,-99,0,none,17,18,Woman,Right,
19,1,22,0.2677377999989403,['c'],1,left,none,-99,-99,0.5,-99,0,none,17,18,Woman,Right,
20,1,22,0.23383849999845552,['c'],0,right,none,-99,-99,0.5,-99,0,none,17,18,Woman,Right,
21,1,22,0.26719750000120257,['c'],1,left,none,-99,-99,0.5,-99,0,none,17,18,Woman,Right,
22,1,22,0.2831949000010354,['n'],0,left,none,-99,-99,0.5,-99,0,none,17,18,Woman,Right,
23,1,22,0.28396020000036515,['n'],1,right,none,-99,-99,0.5,-99,0,none,17,18,Woman,Right,
0,1,23,0.3505600000007689,['c'],1,left,none,-99,-99,0.5,-99,0,none,17,18,Woman,Right,
1,1,23,0.25103409999974247,['c'],0,right,none,-99,-99,0.5,-99,0,none,17,18,Woman,Right,
2,1,23,0.20019630000024335,['n'],0,left,none,-99,-99,0.5,-99,0,none,17,18,Woman,Right,
3,1,23,0.2672824999990553,['c'],0,right,none,-99,-99,0.5,-99,0,none,17,18,Woman,Right,
4,1,23,0.1180956000007427,['c'],1,left,none,-99,-99,0.5,-99,0,none,17,18,Woman,Right,
5,1,23,0.2849177999996755,['c'],0,right,none,-99,-99,0.5,-99,0,none,17,18,Woman,Right,
6,1,23,0.31792940000013914,['c'],1,left,none,-99,-99,0.5,-99,0,none,17,18,Woman,Right,
7,1,23,0.2663466000012704,['c'],0,right,none,-99,-99,0.5,-99,0,none,17,18,Woman,Right,
8,1,23,0.3188220000010915,['n'],1,right,none,-99,-99,0.5,-99,0,none,17,18,Woman,Right,
9,1,23,0.28453910000098404,['n'],1,right,none,-99,-99,0.5,-99,0,none,17,18,Woman,Right,
10,1,23,0.2669419000012567,['c'],0,right,none,-99,-99,0.5,-99,0,none,17,18,Woman,Right,
11,1,23,0.26747240000077,['c'],0,right,none,-99,-99,0.5,-99,0,none,17,18,Woman,Right,
12,1,23,0.33286969999971916,['n'],0,left,none,-99,-99,0.5,-99,0,none,17,18,Woman,Right,
13,1,23,0.3338463000000047,['n'],0,left,none,-99,-99,0.5,-99,0,none,17,18,Woman,Right,
14,1,23,0.6675133999997342,['c'],1,left,none,-99,-99,0.5,-99,0,none,17,18,Woman,Right,
15,1,23,0.28371470000092813,['c'],1,left,none,-99,-99,0.5,-99,0,none,17,18,Woman,Right,
16,1,23,0.31735219999973197,['c'],0,right,none,-99,-99,0.5,-99,0,none,17,18,Woman,Right,
17,1,23,0.31733299999905284,['n'],0,left,none,-99,-99,0.5,-99,0,none,17,18,Woman,Right,
18,1,23,0.3330955000001268,['c'],1,left,none,-99,-99,0.5,-99,0,none,17,18,Woman,Right,
19,1,23,0.25134780000007595,['c'],0,right,none,-99,-99,0.5,-99,0,none,17,18,Woman,Right,
20,1,23,0.2667470999986108,['c'],0,right,none,-99,-99,0.5,-99,0,none,17,18,Woman,Right,
21,1,23,0.06672410000101081,['n'],0,left,none,-99,-99,0.5,-99,0,none,17,18,Woman,Right,
22,1,23,0.16741129999900295,['n'],0,left,none,-99,-99,0.5,-99,0,none,17,18,Woman,Right,
23,1,23,0.3510404999997263,['n'],1,right,none,-99,-99,0.5,-99,0,none,17,18,Woman,Right,
0,1,24,0.46694229999957315,['c'],0,right,none,-99,-99,0.5,-99,0,none,17,18,Woman,Right,
1,1,24,0.28378650000013295,['c'],0,right,none,-99,-99,0.5,-99,0,none,17,18,Woman,Right,
2,1,24,0.31704330000138725,['n'],0,left,none,-99,-99,0.5,-99,0,none,17,18,Woman,Right,
3,1,24,0.5019132000015816,['c'],1,left,none,-99,-99,0.5,-99,0,none,17,18,Woman,Right,
4,1,24,0.2994684999994206,['c'],1,left,none,-99,-99,0.5,-99,0,none,17,18,Woman,Right,
5,1,24,0.36637449999943783,['n'],1,right,none,-99,-99,0.5,-99,0,none,17,18,Woman,Right,
6,1,24,0.35099300000001676,['c'],0,right,none,-99,-99,0.5,-99,0,none,17,18,Woman,Right,
7,1,24,0.3167178999992757,['n'],0,left,none,-99,-99,0.5,-99,0,none,17,18,Woman,Right,
8,1,24,0.2833717000012257,['n'],1,right,none,-99,-99,0.5,-99,0,none,17,18,Woman,Right,
9,1,24,0.3670444999988831,['c'],1,left,none,-99,-99,0.5,-99,0,none,17,18,Woman,Right,
10,1,24,0.4006589000000531,['c'],1,left,none,-99,-99,0.5,-99,0,none,17,18,Woman,Right,
11,1,24,0.03436890000011772,['n'],0,left,none,-99,-99,0.5,-99,0,none,17,18,Woman,Right,
12,1,24,0.24933129999953962,['n'],0,left,none,-99,-99,0.5,-99,0,none,17,18,Woman,Right,
13,1,24,0.2829154000010021,['c'],1,left,none,-99,-99,0.5,-99,0,none,17,18,Woman,Right,
14,1,24,0.33435500000086904,['c'],0,right,none,-99,-99,0.5,-99,0,none,17,18,Woman,Right,
15,1,24,0.30001780000020517,['c'],0,right,none,-99,-99,0.5,-99,0,none,17,18,Woman,Right,
16,1,24,0.23223369999868737,['n'],0,left,none,-99,-99,0.5,-99,0,none,17,18,Woman,Right,
17,1,24,0.3177701000004163,['n'],1,right,none,-99,-99,0.5,-99,0,none,17,18,Woman,Right,
18,1,24,0.23395159999927273,['n'],0,left,none,-99,-99,0.5,-99,0,none,17,18,Woman,Right,
19,1,24,0.30050870000013674,['c'],0,right,none,-99,-99,0.5,-99,0,none,17,18,Woman,Right,
20,1,24,0.2662082000006194,['n'],1,right,none,-99,-99,0.5,-99,0,none,17,18,Woman,Right,
21,1,24,0.4339498999997886,['n'],0,left,none,-99,-99,0.5,-99,0,none,17,18,Woman,Right,
22,1,24,0.4006429000000935,['c'],0,right,none,-99,-99,0.5,-99,0,none,17,18,Woman,Right,
23,1,24,0.6175590999991982,['c'],0,right,none,-99,-99,0.5,-99,0,none,17,18,Woman,Right,
0,1,25,0.5337801000005129,['c'],0,right,none,-99,-99,0.5,-99,0,none,17,18,Woman,Right,
1,1,25,0.5494256000001769,['c'],0,right,none,-99,-99,0.5,-99,0,none,17,18,Woman,Right,
2,1,25,0.4677285000016127,['n'],0,left,none,-99,-99,0.5,-99,0,none,17,18,Woman,Right,
3,1,25,0.4503948000001401,['c'],0,right,none,-99,-99,0.5,-99,0,none,17,18,Woman,Right,
4,1,25,0.4161559000003763,['n'],1,right,none,-99,-99,0.5,-99,0,none,17,18,Woman,Right,
5,1,25,0.23280909999994037,['n'],0,left,none,-99,-99,0.5,-99,0,none,17,18,Woman,Right,
6,1,25,0.3008559999998397,['c'],1,left,none,-99,-99,0.5,-99,0,none,17,18,Woman,Right,
7,1,25,0.3496598999990965,['c'],0,right,none,-99,-99,0.5,-99,0,none,17,18,Woman,Right,
8,1,25,0.3497444999993604,['n'],1,right,none,-99,-99,0.5,-99,0,none,17,18,Woman,Right,
9,1,25,0.38356999999996333,['n'],0,left,none,-99,-99,0.5,-99,0,none,17,18,Woman,Right,
10,1,25,0.30154290000064066,['c'],0,right,none,-99,-99,0.5,-99,0,none,17,18,Woman,Right,
11,1,25,0.3162339999998949,['c'],1,left,none,-99,-99,0.5,-99,0,none,17,18,Woman,Right,
12,1,25,0.36651200000051176,['c'],1,left,none,-99,-99,0.5,-99,0,none,17,18,Woman,Right,
13,1,25,0.41829990000042017,['c'],1,left,none,-99,-99,0.5,-99,0,none,17,18,Woman,Right,
14,1,25,0.632636199999979,['c'],0,right,none,-99,-99,0.5,-99,0,none,17,18,Woman,Right,
15,1,25,0.3520398999989993,['c'],1,left,none,-99,-99,0.5,-99,0,none,17,18,Woman,Right,
16,1,25,0.3175589000002219,['n'],1,right,none,-99,-99,0.5,-99,0,none,17,18,Woman,Right,
17,1,25,0.5172043999991729,['c'],0,right,none,-99,-99,0.5,-99,0,none,17,18,Woman,Right,
18,1,25,0.46577719999913825,['n'],0,left,none,-99,-99,0.5,-99,0,none,17,18,Woman,Right,
19,1,25,0.2511819999999716,['c'],1,left,none,-99,-99,0.5,-99,0,none,17,18,Woman,Right,
20,1,25,0.266005799998311,['c'],1,left,none,-99,-99,0.5,-99,0,none,17,18,Woman,Right,
21,1,25,0.21679050000057032,['c'],0,right,none,-99,-99,0.5,-99,0,none,17,18,Woman,Right,
22,1,25,0.28531979999934265,['c'],1,left,none,-99,-99,0.5,-99,0,none,17,18,Woman,Right,
23,1,25,0.2666000000008353,['n'],1,right,none,-99,-99,0.5,-99,0,none,17,18,Woman,Right,
0,1,26,0.25063499999851047,['c'],0,right,none,-99,-99,0.5,-99,0,none,17,18,Woman,Right,
1,1,26,0.23458299999947485,['c'],1,left,none,-99,-99,0.5,-99,0,none,17,18,Woman,Right,
2,1,26,0.11640090000037162,['c'],0,right,none,-99,-99,0.5,-99,0,none,17,18,Woman,Right,
3,1,26,0.2495146000001114,['c'],0,right,none,-99,-99,0.5,-99,0,none,17,18,Woman,Right,
4,1,26,0.3675905000000057,['c'],0,right,none,-99,-99,0.5,-99,0,none,17,18,Woman,Right,
5,1,26,0.2845319999996718,['n'],0,left,none,-99,-99,0.5,-99,0,none,17,18,Woman,Right,
6,1,26,0.30108969999855617,['c'],0,right,none,-99,-99,0.5,-99,0,none,17,18,Woman,Right,
7,1,26,0.2665591000004497,['c'],0,right,none,-99,-99,0.5,-99,0,none,17,18,Woman,Right,
8,1,26,0.26695680000011635,['c'],1,left,none,-99,-99,0.5,-99,0,none,17,18,Woman,Right,
9,1,26,0.23518739999963145,['c'],1,left,none,-99,-99,0.5,-99,0,none,17,18,Woman,Right,
10,1,26,0.08351509999920381,['c'],1,left,none,-99,-99,0.5,-99,0,none,17,18,Woman,Right,
11,1,26,0.2498818999993091,['n'],1,right,none,-99,-99,0.5,-99,0,none,17,18,Woman,Right,
12,1,26,0.28403789999902074,['n'],0,left,none,-99,-99,0.5,-99,0,none,17,18,Woman,Right,
13,1,26,0.2508754000009503,['c'],1,left,none,-99,-99,0.5,-99,0,none,17,18,Woman,Right,
14,1,26,0.11756359999890265,['c'],0,right,none,-99,-99,0.5,-99,0,none,17,18,Woman,Right,
15,1,26,0.3173004000000219,['c'],1,left,none,-99,-99,0.5,-99,0,none,17,18,Woman,Right,
16,1,26,0.23419649999959802,['c'],0,right,none,-99,-99,0.5,-99,0,none,17,18,Woman,Right,
17,1,26,0.38427950000004785,['n'],1,right,none,-99,-99,0.5,-99,0,none,17,18,Woman,Right,
18,1,26,0.24996730000020762,['n'],1,right,none,-99,-99,0.5,-99,0,none,17,18,Woman,Right,
19,1,26,0.2672953999990568,['n'],0,left,none,-99,-99,0.5,-99,0,none,17,18,Woman,Right,
20,1,26,0.25054569999883824,['c'],1,left,none,-99,-99,0.5,-99,0,none,17,18,Woman,Right,
21,1,26,0.25060170000142534,['c'],1,left,none,-99,-99,0.5,-99,0,none,17,18,Woman,Right,
22,1,26,0.23286449999977776,['c'],0,right,none,-99,-99,0.5,-99,0,none,17,18,Woman,Right,
23,1,26,0.2838933000002726,['n'],0,left,none,-99,-99,0.5,-99,0,none,17,18,Woman,Right,
0,1,27,0.35105470000053174,['n'],0,left,none,-99,-99,0.5,-99,0,none,17,18,Woman,Right,
1,1,27,0.08376099999986764,['c'],1,left,none,-99,-99,0.5,-99,0,none,17,18,Woman,Right,
2,1,27,0.2670434000010573,['c'],0,right,none,-99,-99,0.5,-99,0,none,17,18,Woman,Right,
3,1,27,0.9174142000010761,['c'],0,right,none,-99,-99,0.5,-99,0,none,17,18,Woman,Right,
4,1,27,0.23514419999992242,['n'],0,left,none,-99,-99,0.5,-99,0,none,17,18,Woman,Right,
5,1,27,0.4692211000001407,['n'],1,right,none,-99,-99,0.5,-99,0,none,17,18,Woman,Right,
6,1,27,0.31847190000007686,['n'],0,left,none,-99,-99,0.5,-99,0,none,17,18,Woman,Right,
7,1,27,0.35200500000064494,['c'],0,right,none,-99,-99,0.5,-99,0,none,17,18,Woman,Right,
8,1,27,0.28456200000073295,['c'],0,right,none,-99,-99,0.5,-99,0,none,17,18,Woman,Right,
9,1,27,0.3346220999992511,['c'],1,left,none,-99,-99,0.5,-99,0,none,17,18,Woman,Right,
10,1,27,0.3178883999989921,['c'],1,left,none,-99,-99,0.5,-99,0,none,17,18,Woman,Right,
11,1,27,0.26663659999940137,['c'],1,left,none,-99,-99,0.5,-99,0,none,17,18,Woman,Right,
12,1,27,0.3191385000009177,['c'],1,left,none,-99,-99,0.5,-99,0,none,17,18,Woman,Right,
13,1,27,0.28406010000071547,['n'],1,right,none,-99,-99,0.5,-99,0,none,17,18,Woman,Right,
14,1,27,0.2675020000006043,['n'],1,right,none,-99,-99,0.5,-99,0,none,17,18,Woman,Right,
15,1,27,0.3009022999995068,['n'],1,right,none,-99,-99,0.5,-99,0,none,17,18,Woman,Right,
16,1,27,0.450359299999036,['c'],0,right,none,-99,-99,0.5,-99,0,none,17,18,Woman,Right,
17,1,27,0.35053960000004736,['c'],1,left,none,-99,-99,0.5,-99,0,none,17,18,Woman,Right,
18,1,27,0.29925639999964915,['c'],1,left,none,-99,-99,0.5,-99,0,none,17,18,Woman,Right,
19,1,27,0.08415570000033767,['n'],1,right,none,-99,-99,0.5,-99,0,none,17,18,Woman,Right,
20,1,27,0.2334621000009065,['c'],1,left,none,-99,-99,0.5,-99,0,none,17,18,Woman,Right,
21,1,27,0.2505387000001065,['c'],1,left,none,-99,-99,0.5,-99,0,none,17,18,Woman,Right,
22,1,27,0.2837956999992457,['c'],0,right,none,-99,-99,0.5,-99,0,none,17,18,Woman,Right,
23,1,27,0.31744069999876956,['n'],1,right,none,-99,-99,0.5,-99,0,none,17,18,Woman,Right,
0,1,28,0.2669784999998228,['c'],0,right,none,-99,-99,0.5,-99,0,none,17,18,Woman,Right,
1,1,28,0.3333431999999448,['c'],1,left,none,-99,-99,0.5,-99,0,none,17,18,Woman,Right,
2,1,28,0.33442009999998845,['n'],1,right,none,-99,-99,0.5,-99,0,none,17,18,Woman,Right,
3,1,28,0.30000900000050024,['n'],0,left,none,-99,-99,0.5,-99,0,none,17,18,Woman,Right,
4,1,28,0.2678546000006463,['c'],0,right,none,-99,-99,0.5,-99,0,none,17,18,Woman,Right,
5,1,28,0.2648253000006662,['c'],0,right,none,-99,-99,0.5,-99,0,none,17,18,Woman,Right,
6,1,28,0.26618000000053144,['n'],1,right,none,-99,-99,0.5,-99,0,none,17,18,Woman,Right,
7,1,28,0.26705959999890183,['n'],0,left,none,-99,-99,0.5,-99,0,none,17,18,Woman,Right,
8,1,28,0.24990380000053847,['c'],0,right,none,-99,-99,0.5,-99,0,none,17,18,Woman,Right,
9,1,28,0.3677194000010786,['c'],1,left,none,-99,-99,0.5,-99,0,none,17,18,Woman,Right,
10,1,28,0.333797000001141,['c'],1,left,none,-99,-99,0.5,-99,0,none,17,18,Woman,Right,
11,1,28,0.3182731999986572,['n'],0,left,none,-99,-99,0.5,-99,0,none,17,18,Woman,Right,
12,1,28,0.8165728999993007,['n'],1,right,none,-99,-99,0.5,-99,0,none,17,18,Woman,Right,
13,1,28,0.30045760000029986,['n'],0,left,none,-99,-99,0.5,-99,0,none,17,18,Woman,Right,
14,1,28,0.2663869000007253,['c'],0,right,none,-99,-99,0.5,-99,0,none,17,18,Woman,Right,
15,1,28,0.26702149999982794,['c'],1,left,none,-99,-99,0.5,-99,0,none,17,18,Woman,Right,
16,1,28,0.2670715000003838,['n'],1,right,none,-99,-99,0.5,-99,0,none,17,18,Woman,Right,
17,1,28,0.4333896000007371,['n'],0,left,none,-99,-99,0.5,-99,0,none,17,18,Woman,Right,
18,1,28,0.3001201000006404,['c'],0,right,none,-99,-99,0.5,-99,0,none,17,18,Woman,Right,
19,1,28,0.2666707000007591,['c'],1,left,none,-99,-99,0.5,-99,0,none,17,18,Woman,Right,
20,1,28,0.31626069999947504,['c'],1,left,none,-99,-99,0.5,-99,0,none,17,18,Woman,Right,
21,1,28,0.46720380000078876,['n'],1,right,none,-99,-99,0.5,-99,0,none,17,18,Woman,Right,
22,1,28,0.3501089999990654,['n'],0,left,none,-99,-99,0.5,-99,0,none,17,18,Woman,Right,
23,1,28,0.2676217000007455,['c'],0,right,none,-99,-99,0.5,-99,0,none,17,18,Woman,Right,
0,1,29,0.6995982000007643,['c'],0,right,none,-99,-99,0.5,-99,0,none,17,18,Woman,Right,
1,1,29,0.4176192999984778,['c'],1,left,none,-99,-99,0.5,-99,0,none,17,18,Woman,Right,
2,1,29,0.3171571999992011,['c'],0,right,none,-99,-99,0.5,-99,0,none,17,18,Woman,Right,
3,1,29,0.33261379999930796,['n'],1,right,none,-99,-99,0.5,-99,0,none,17,18,Woman,Right,
4,1,29,0.5010952000011457,['c'],1,left,none,-99,-99,0.5,-99,0,none,17,18,Woman,Right,
5,1,29,0.484755799998311,['c'],1,left,none,-99,-99,0.5,-99,0,none,17,18,Woman,Right,
6,1,29,0.3161225999992894,['c'],1,left,none,-99,-99,0.5,-99,0,none,17,18,Woman,Right,
7,1,29,0.2670552999989013,['c'],0,right,none,-99,-99,0.5,-99,0,none,17,18,Woman,Right,
8,1,29,0.30135750000044936,['n'],0,left,none,-99,-99,0.5,-99,0,none,17,18,Woman,Right,
9,1,29,0.26763349999964703,['c'],0,right,none,-99,-99,0.5,-99,0,none,17,18,Woman,Right,
10,1,29,0.2830492000011873,['n'],0,left,none,-99,-99,0.5,-99,0,none,17,18,Woman,Right,
11,1,29,0.26736630000050354,['n'],0,left,none,-99,-99,0.5,-99,0,none,17,18,Woman,Right,
12,1,29,0.31636799999978393,['n'],1,right,none,-99,-99,0.5,-99,0,none,17,18,Woman,Right,
13,1,29,0.28446420000000217,['n'],1,right,none,-99,-99,0.5,-99,0,none,17,18,Woman,Right,
14,1,29,0.3011882000009791,['n'],0,left,none,-99,-99,0.5,-99,0,none,17,18,Woman,Right,
15,1,29,0.16697820000081265,['c'],1,left,none,-99,-99,0.5,-99,0,none,17,18,Woman,Right,
16,1,29,0.21628210000017134,['c'],0,right,none,-99,-99,0.5,-99,0,none,17,18,Woman,Right,
17,1,29,0.30077970000093046,['c'],0,right,none,-99,-99,0.5,-99,0,none,17,18,Woman,Right,
18,1,29,0.6666924000001018,['n'],0,left,none,-99,-99,0.5,-99,0,none,17,18,Woman,Right,
19,1,29,0.30007339999974647,['c'],1,left,none,-99,-99,0.5,-99,0,none,17,18,Woman,Right,
20,1,29,0.34998190000078466,['c'],0,right,none,-99,-99,0.5,-99,0,none,17,18,Woman,Right,
21,1,29,0.3006633000004513,['n'],1,right,none,-99,-99,0.5,-99,0,none,17,18,Woman,Right,
22,1,29,0.3845352999996976,['n'],0,left,none,-99,-99,0.5,-99,0,none,17,18,Woman,Right,
23,1,29,0.3171529000010196,['c'],0,right,none,-99,-99,0.5,-99,0,none,17,18,Woman,Right,
0,1,30,0.5343764999997802,['c'],0,right,none,-99,-99,0.5,-99,0,none,17,18,Woman,Right,
1,1,30,1.0157952999998088,['n'],0,left,none,-99,-99,0.5,-99,0,none,17,18,Woman,Right,
2,1,30,0.6673730999991676,['c'],1,left,none,-99,-99,0.5,-99,0,none,17,18,Woman,Right,
3,1,30,0.7016498999983014,['c'],0,right,none,-99,-99,0.5,-99,0,none,17,18,Woman,Right,
4,1,30,0.5668859999987035,['n'],0,left,none,-99,-99,0.5,-99,0,none,17,18,Woman,Right,
5,1,30,0.34999989999960235,['c'],0,right,none,-99,-99,0.5,-99,0,none,17,18,Woman,Right,
6,1,30,0.6355441999985487,['n'],1,right,none,-99,-99,0.5,-99,0,none,17,18,Woman,Right,
7,1,30,0.5834858999987773,['n'],0,left,none,-99,-99,0.5,-99,0,none,17,18,Woman,Right,
8,1,30,0.2839280999996845,['c'],1,left,none,-99,-99,0.5,-99,0,none,17,18,Woman,Right,
9,1,30,0.3664754000001267,['c'],1,left,none,-99,-99,0.5,-99,0,none,17,18,Woman,Right,
10,1,30,0.3350831999996444,['c'],1,left,none,-99,-99,0.5,-99,0,none,17,18,Woman,Right,
11,1,30,0.30040439999902446,['c'],0,right,none,-99,-99,0.5,-99,0,none,17,18,Woman,Right,
12,1,30,0.4004869000000326,['c'],1,left,none,-99,-99,0.5,-99,0,none,17,18,Woman,Right,
13,1,30,0.36679220000041823,['c'],1,left,none,-99,-99,0.5,-99,0,none,17,18,Woman,Right,
14,1,30,0.38436840000031225,['c'],0,right,none,-99,-99,0.5,-99,0,none,17,18,Woman,Right,
15,1,30,0.3330160999994405,['n'],1,right,none,-99,-99,0.5,-99,0,none,17,18,Woman,Right,
16,1,30,0.33434940000006463,['n'],1,right,none,-99,-99,0.5,-99,0,none,17,18,Woman,Right,
17,1,30,0.683454800000618,['n'],1,right,none,-99,-99,0.5,-99,0,none,17,18,Woman,Right,
18,1,30,0.2842450000007375,['c'],0,right,none,-99,-99,0.5,-99,0,none,17,18,Woman,Right,
19,1,30,0.2673475999999937,['n'],0,left,none,-99,-99,0.5,-99,0,none,17,18,Woman,Right,
20,1,30,0.34942969999974594,['c'],1,left,none,-99,-99,0.5,-99,0,none,17,18,Woman,Right,
21,1,30,0.41643329999897105,['c'],0,right,none,-99,-99,0.5,-99,0,none,17,18,Woman,Right,
22,1,30,0.30107260000113456,['n'],0,left,none,-99,-99,0.5,-99,0,none,17,18,Woman,Right,
23,1,30,0.30042189999949187,['c'],0,right,none,-99,-99,0.5,-99,0,none,17,18,Woman,Right,
0,1,31,0.6998722000007547,['c'],1,left,none,-99,-99,0.5,-99,0,none,17,18,Woman,Right,
1,1,31,0.3339606999998068,['c'],1,left,none,-99,-99,0.5,-99,0,none,17,18,Woman,Right,
2,1,31,0.31634680000024673,['c'],0,right,none,-99,-99,0.5,-99,0,none,17,18,Woman,Right,
3,1,31,0.3160580999992817,['n'],0,left,none,-99,-99,0.5,-99,0,none,17,18,Woman,Right,
4,1,31,0.36682980000114185,['c'],1,left,none,-99,-99,0.5,-99,0,none,17,18,Woman,Right,
5,1,31,0.3336381999997684,['c'],1,left,none,-99,-99,0.5,-99,0,none,17,18,Woman,Right,
6,1,31,0.41775629999938246,['c'],1,left,none,-99,-99,0.5,-99,0,none,17,18,Woman,Right,
7,1,31,0.3154832999989594,['c'],0,right,none,-99,-99,0.5,-99,0,none,17,18,Woman,Right,
8,1,31,0.33420850000038627,['n'],1,right,none,-99,-99,0.5,-99,0,none,17,18,Woman,Right,
9,1,31,0.20119849999900907,['c'],1,left,none,-99,-99,0.5,-99,0,none,17,18,Woman,Right,
10,1,31,0.2674826000002213,['c'],0,right,none,-99,-99,0.5,-99,0,none,17,18,Woman,Right,
11,1,31,0.3002237000000605,['n'],1,right,none,-99,-99,0.5,-99,0,none,17,18,Woman,Right,
12,1,31,0.28404690000024857,['n'],0,left,none,-99,-99,0.5,-99,0,none,17,18,Woman,Right,
13,1,31,0.3172215000013239,['c'],0,right,none,-99,-99,0.5,-99,0,none,17,18,Woman,Right,
14,1,31,0.36725920000026235,['n'],0,left,none,-99,-99,0.5,-99,0,none,17,18,Woman,Right,
15,1,31,0.349985500000912,['c'],0,right,none,-99,-99,0.5,-99,0,none,17,18,Woman,Right,
16,1,31,0.40087920000041777,['c'],0,right,none,-99,-99,0.5,-99,0,none,17,18,Woman,Right,
17,1,31,0.3493800000014744,['n'],1,right,none,-99,-99,0.5,-99,0,none,17,18,Woman,Right,
18,1,31,0.3343445000009524,['n'],0,left,none,-99,-99,0.5,-99,0,none,17,18,Woman,Right,
19,1,31,0.36700160000145843,['c'],1,left,none,-99,-99,0.5,-99,0,none,17,18,Woman,Right,
20,1,31,0.7173792000012327,['c'],0,right,none,-99,-99,0.5,-99,0,none,17,18,Woman,Right,
21,1,31,0.3338255999988178,['n'],1,right,none,-99,-99,0.5,-99,0,none,17,18,Woman,Right,
22,1,31,0.41901359999974375,['n'],1,right,none,-99,-99,0.5,-99,0,none,17,18,Woman,Right,
23,1,31,0.6007561999995232,['n'],0,left,none,-99,-99,0.5,-99,0,none,17,18,Woman,Right,
0,1,32,0.5842183000004297,['n'],1,right,none,-99,-99,0.5,-99,0,none,17,18,Woman,Right,
1,1,32,0.4838653999995586,['n'],1,right,none,-99,-99,0.5,-99,0,none,17,18,Woman,Right,
2,1,32,0.366401200000837,['n'],0,left,none,-99,-99,0.5,-99,0,none,17,18,Woman,Right,
3,1,32,0.316985499999646,['c'],0,right,none,-99,-99,0.5,-99,0,none,17,18,Woman,Right,
4,1,32,0.4335881999995763,['n'],1,right,none,-99,-99,0.5,-99,0,none,17,18,Woman,Right,
5,1,32,0.33264499999859254,['n'],0,left,none,-99,-99,0.5,-99,0,none,17,18,Woman,Right,
6,1,32,0.3836063999988255,['c'],1,left,none,-99,-99,0.5,-99,0,none,17,18,Woman,Right,
7,1,32,0.4023185999994894,['c'],1,left,none,-99,-99,0.5,-99,0,none,17,18,Woman,Right,
8,1,32,0.534158500000558,['c'],0,right,none,-99,-99,0.5,-99,0,none,17,18,Woman,Right,
9,1,32,0.533578700000362,['n'],1,right,none,-99,-99,0.5,-99,0,none,17,18,Woman,Right,
10,1,32,0.4013790999997582,['n'],0,left,none,-99,-99,0.5,-99,0,none,17,18,Woman,Right,
11,1,32,0.5511294000007183,['c'],0,right,none,-99,-99,0.5,-99,0,none,17,18,Woman,Right,
12,1,32,0.3509269999995013,['n'],0,left,none,-99,-99,0.5,-99,0,none,17,18,Woman,Right,
13,1,32,0.6841435999995156,['c'],1,left,none,-99,-99,0.5,-99,0,none,17,18,Woman,Right,
14,1,32,0.6005256999997073,['c'],0,right,none,-99,-99,0.5,-99,0,none,17,18,Woman,Right,
15,1,32,0.4329380000017409,['n'],1,right,none,-99,-99,0.5,-99,0,none,17,18,Woman,Right,
16,1,32,0.9006770999985747,['n'],1,right,none,-99,-99,0.5,-99,0,none,17,18,Woman,Right,
17,1,32,0.7837717999991582,['n'],1,right,none,-99,-99,0.5,-99,0,none,17,18,Woman,Right,
18,1,32,0.5177087000010943,['n'],0,left,none,-99,-99,0.5,-99,0,none,17,18,Woman,Right,
19,1,32,0.4002022000004217,['c'],1,left,none,-99,-99,0.5,-99,0,none,17,18,Woman,Right,
20,1,32,0.43355049999991024,['c'],0,right,none,-99,-99,0.5,-99,0,none,17,18,Woman,Right,
21,1,32,0.3514102000008279,['n'],0,left,none,-99,-99,0.5,-99,0,none,17,18,Woman,Right,
22,1,32,0.33364479999909236,['c'],1,left,none,-99,-99,0.5,-99,0,none,17,18,Woman,Right,
23,1,32,0.48457330000019283,['c'],1,left,none,-99,-99,0.5,-99,0,none,17,18,Woman,Right,
0,1,33,0.5174406999994972,['c'],1,left,none,-99,-99,0.5,-99,0,none,17,18,Woman,Right,
1,1,33,0.3174166000007972,['c'],0,right,none,-99,-99,0.5,-99,0,none,17,18,Woman,Right,
2,1,33,0.35087229999953706,['n'],1,right,none,-99,-99,0.5,-99,0,none,17,18,Woman,Right,
3,1,33,0.4831869999998162,['n'],1,right,none,-99,-99,0.5,-99,0,none,17,18,Woman,Right,
4,1,33,0.43431969999983266,['n'],0,left,none,-99,-99,0.5,-99,0,none,17,18,Woman,Right,
5,1,33,0.28433620000032533,['c'],0,right,none,-99,-99,0.5,-99,0,none,17,18,Woman,Right,
6,1,33,0.45133329999953276,['n'],0,left,none,-99,-99,0.5,-99,0,none,17,18,Woman,Right,
7,1,33,0.4840607000005548,['c'],1,left,none,-99,-99,0.5,-99,0,none,17,18,Woman,Right,
8,1,33,0.4346525999990263,['c'],0,right,none,-99,-99,0.5,-99,0,none,17,18,Woman,Right,
9,1,33,0.3177780999994866,['n'],1,right,none,-99,-99,0.5,-99,0,none,17,18,Woman,Right,
10,1,33,0.4173539000003075,['n'],0,left,none,-99,-99,0.5,-99,0,none,17,18,Woman,Right,
11,1,33,0.3506522000006953,['c'],0,right,none,-99,-99,0.5,-99,0,none,17,18,Woman,Right,
12,1,33,0.3829507000009471,['n'],1,right,none,-99,-99,0.5,-99,0,none,17,18,Woman,Right,
13,1,33,0.38357579999865266,['n'],1,right,none,-99,-99,0.5,-99,0,none,17,18,Woman,Right,
14,1,33,0.5010261000006722,['n'],0,left,none,-99,-99,0.5,-99,0,none,17,18,Woman,Right,
15,1,33,0.351114699999016,['c'],0,right,none,-99,-99,0.5,-99,0,none,17,18,Woman,Right,
16,1,33,0.299428700000135,['n'],0,left,none,-99,-99,0.5,-99,0,none,17,18,Woman,Right,
17,1,33,0.3669356999998854,['n'],0,left,none,-99,-99,0.5,-99,0,none,17,18,Woman,Right,
18,1,33,0.3341298999985156,['c'],0,right,none,-99,-99,0.5,-99,0,none,17,18,Woman,Right,
19,1,33,0.6006558000008226,['n'],0,left,none,-99,-99,0.5,-99,0,none,17,18,Woman,Right,
20,1,33,0.4003023999994184,['n'],0,left,none,-99,-99,0.5,-99,0,none,17,18,Woman,Right,
21,1,33,0.684130699999514,['n'],0,left,none,-99,-99,0.5,-99,0,none,17,18,Woman,Right,
22,1,33,0.7683477999999013,['n'],1,right,none,-99,-99,0.5,-99,0,none,17,18,Woman,Right,
23,1,33,0.30025319999913336,['n'],0,left,none,-99,-99,0.5,-99,0,none,17,18,Woman,Right,
0,1,34,0.3513102999986586,['c'],0,right,none,-99,-99,0.5,-99,0,none,17,18,Woman,Right,
1,1,34,0.26708099999996193,['n'],1,right,none,-99,-99,0.5,-99,0,none,17,18,Woman,Right,
2,1,34,0.10053200000038487,['n'],0,left,none,-99,-99,0.5,-99,0,none,17,18,Woman,Right,
3,1,34,0.26802049999969313,['c'],1,left,none,-99,-99,0.5,-99,0,none,17,18,Woman,Right,
4,1,34,0.2668985000000248,['c'],1,left,none,-99,-99,0.5,-99,0,none,17,18,Woman,Right,
5,1,34,0.31793719999950554,['c'],0,right,none,-99,-99,0.5,-99,0,none,17,18,Woman,Right,
6,1,34,0.23375279999891063,['n'],1,right,none,-99,-99,0.5,-99,0,none,17,18,Woman,Right,
7,1,34,0.2665782999993098,['n'],1,right,none,-99,-99,0.5,-99,0,none,17,18,Woman,Right,
8,1,34,0.4006508999991638,['c'],1,left,none,-99,-99,0.5,-99,0,none,17,18,Woman,Right,
9,1,34,0.26690210000015213,['c'],0,right,none,-99,-99,0.5,-99,0,none,17,18,Woman,Right,
10,1,34,0.31602059999931953,['c'],0,right,none,-99,-99,0.5,-99,0,none,17,18,Woman,Right,
11,1,34,0.3344281999998202,['n'],0,left,none,-99,-99,0.5,-99,0,none,17,18,Woman,Right,
12,1,34,0.26795730000048934,['c'],0,right,none,-99,-99,0.5,-99,0,none,17,18,Woman,Right,
13,1,34,0.3015049000005092,['n'],0,left,none,-99,-99,0.5,-99,0,none,17,18,Woman,Right,
14,1,34,0.3332051000015781,['n'],1,right,none,-99,-99,0.5,-99,0,none,17,18,Woman,Right,
15,1,34,0.26814269999886164,['n'],1,right,none,-99,-99,0.5,-99,0,none,17,18,Woman,Right,
16,1,34,0.3503599000014219,['n'],1,right,none,-99,-99,0.5,-99,0,none,17,18,Woman,Right,
17,1,34,0.2676241999997728,['n'],0,left,none,-99,-99,0.5,-99,0,none,17,18,Woman,Right,
18,1,34,0.2987907999995514,['c'],1,left,none,-99,-99,0.5,-99,0,none,17,18,Woman,Right,
19,1,34,0.23357150000083493,['c'],1,left,none,-99,-99,0.5,-99,0,none,17,18,Woman,Right,
20,1,34,0.284095700000762,['c'],1,left,none,-99,-99,0.5,-99,0,none,17,18,Woman,Right,
21,1,34,0.23441140000068117,['c'],0,right,none,-99,-99,0.5,-99,0,none,17,18,Woman,Right,
22,1,34,0.3834870000009687,['n'],0,left,none,-99,-99,0.5,-99,0,none,17,18,Woman,Right,
23,1,34,0.38309099999969476,['c'],1,left,none,-99,-99,0.5,-99,0,none,17,18,Woman,Right,
0,1,35,0.7674728999991203,['c'],0,right,none,-99,-99,0.5,-99,0,none,17,18,Woman,Right,
1,1,35,0.3165025999987847,['c'],1,left,none,-99,-99,0.5,-99,0,none,17,18,Woman,Right,
2,1,35,0.2510887999997067,['c'],1,left,none,-99,-99,0.5,-99,0,none,17,18,Woman,Right,
3,1,35,0.2838100000008126,['c'],1,left,none,-99,-99,0.5,-99,0,none,17,18,Woman,Right,
4,1,35,0.2837751000006392,['c'],0,right,none,-99,-99,0.5,-99,0,none,17,18,Woman,Right,
5,1,35,0.28347759999996924,['n'],1,right,none,-99,-99,0.5,-99,0,none,17,18,Woman,Right,
6,1,35,0.33309659999940777,['n'],1,right,none,-99,-99,0.5,-99,0,none,17,18,Woman,Right,
7,1,35,0.28417329999865615,['n'],1,right,none,-99,-99,0.5,-99,0,none,17,18,Woman,Right,
8,1,35,0.28383129999929224,['n'],0,left,none,-99,-99,0.5,-99,0,none,17,18,Woman,Right,
9,1,35,0.4501834000002418,['c'],1,left,none,-99,-99,0.5,-99,0,none,17,18,Woman,Right,
10,1,35,0.316262899999856,['c'],0,right,none,-99,-99,0.5,-99,0,none,17,18,Woman,Right,
11,1,35,0.4334909000008338,['n'],0,left,none,-99,-99,0.5,-99,0,none,17,18,Woman,Right,
12,1,35,0.3176367999985814,['c'],0,right,none,-99,-99,0.5,-99,0,none,17,18,Woman,Right,
13,1,35,0.3678492999988521,['n'],1,right,none,-99,-99,0.5,-99,0,none,17,18,Woman,Right,
14,1,35,0.41607679999833636,['n'],0,left,none,-99,-99,0.5,-99,0,none,17,18,Woman,Right,
15,1,35,0.38378210000155377,['c'],1,left,none,-99,-99,0.5,-99,0,none,17,18,Woman,Right,
16,1,35,0.351193600001352,['c'],0,right,none,-99,-99,0.5,-99,0,none,17,18,Woman,Right,
17,1,35,0.3345957000001363,['n'],1,right,none,-99,-99,0.5,-99,0,none,17,18,Woman,Right,
18,1,35,0.3005099000001792,['n'],0,left,none,-99,-99,0.5,-99,0,none,17,18,Woman,Right,
19,1,35,0.30039489999944635,['c'],0,right,none,-99,-99,0.5,-99,0,none,17,18,Woman,Right,
20,1,35,1.2331071000007796,['c'],0,right,none,-99,-99,0.5,-99,0,none,17,18,Woman,Right,
21,1,35,0.3663602999986324,['c'],1,left,none,-99,-99,0.5,-99,0,none,17,18,Woman,Right,
22,1,35,0.40046799999981886,['c'],1,left,none,-99,-99,0.5,-99,0,none,17,18,Woman,Right,
23,1,35,0.3657422999986011,['c'],1,left,none,-99,-99,0.5,-99,0,none,17,18,Woman,Right,
0,1,36,0.517929900001036,['c'],1,left,none,-99,-99,0.5,-99,0,none,17,18,Woman,Right,
1,1,36,0.41638199999943026,['c'],1,left,none,-99,-99,0.5,-99,0,none,17,18,Woman,Right,
2,1,36,0.34904219999953057,['c'],0,right,none,-99,-99,0.5,-99,0,none,17,18,Woman,Right,
3,1,36,0.41762220000055095,['n'],0,left,none,-99,-99,0.5,-99,0,none,17,18,Woman,Right,
4,1,36,0.3837724999993952,['c'],0,right,none,-99,-99,0.5,-99,0,none,17,18,Woman,Right,
5,1,36,0.3342314000001352,['c'],0,right,none,-99,-99,0.5,-99,0,none,17,18,Woman,Right,
6,1,36,0.7676365000006626,['c'],0,right,none,-99,-99,0.5,-99,0,none,17,18,Woman,Right,
7,1,36,0.2668143999999302,['n'],1,right,none,-99,-99,0.5,-99,0,none,17,18,Woman,Right,
8,1,36,0.36702340000010736,['n'],0,left,none,-99,-99,0.5,-99,0,none,17,18,Woman,Right,
9,1,36,0.31699120000121184,['c'],1,left,none,-99,-99,0.5,-99,0,none,17,18,Woman,Right,
10,1,36,0.4324071000010008,['c'],0,right,none,-99,-99,0.5,-99,0,none,17,18,Woman,Right,
11,1,36,0.35072260000015376,['n'],0,left,none,-99,-99,0.5,-99,0,none,17,18,Woman,Right,
12,1,36,0.45012619999943126,['c'],1,left,none,-99,-99,0.5,-99,0,none,17,18,Woman,Right,
13,1,36,0.2670438999994076,['c'],0,right,none,-99,-99,0.5,-99,0,none,17,18,Woman,Right,
14,1,36,0.41684369999893534,['c'],1,left,none,-99,-99,0.5,-99,0,none,17,18,Woman,Right,
15,1,36,0.33543939999981376,['c'],0,right,none,-99,-99,0.5,-99,0,none,17,18,Woman,Right,
16,1,36,0.4497694000001502,['n'],0,left,none,-99,-99,0.5,-99,0,none,17,18,Woman,Right,
17,1,36,0.30134480000015174,['c'],1,left,none,-99,-99,0.5,-99,0,none,17,18,Woman,Right,
18,1,36,0.46765510000113863,['c'],0,right,none,-99,-99,0.5,-99,0,none,17,18,Woman,Right,
19,1,36,0.33370950000062294,['n'],0,left,none,-99,-99,0.5,-99,0,none,17,18,Woman,Right,
20,1,36,0.28389119999883405,['c'],1,left,none,-99,-99,0.5,-99,0,none,17,18,Woman,Right,
21,1,36,0.3007013000005827,['c'],0,right,none,-99,-99,0.5,-99,0,none,17,18,Woman,Right,
22,1,36,0.317547900000136,['n'],1,right,none,-99,-99,0.5,-99,0,none,17,18,Woman,Right,
23,1,36,0.4493478000003961,['n'],1,right,none,-99,-99,0.5,-99,0,none,17,18,Woman,Right,
0,1,37,0.5840699000000313,['c'],1,left,none,-99,-99,0.5,-99,0,none,17,18,Woman,Right,
1,1,37,0.31759109999984503,['c'],1,left,none,-99,-99,0.5,-99,0,none,17,18,Woman,Right,
2,1,37,0.3835347999993246,['c'],0,right,none,-99,-99,0.5,-99,0,none,17,18,Woman,Right,
3,1,37,0.3349591000005603,['n'],0,left,none,-99,-99,0.5,-99,0,none,17,18,Woman,Right,
4,1,37,0.3170363000008365,['c'],0,right,none,-99,-99,0.5,-99,0,none,17,18,Woman,Right,
5,1,37,0.35208520000014687,['n'],1,right,none,-99,-99,0.5,-99,0,none,17,18,Woman,Right,
6,1,37,0.38343890000032843,['n'],0,left,none,-99,-99,0.5,-99,0,none,17,18,Woman,Right,
7,1,37,0.3674518999996508,['c'],1,left,none,-99,-99,0.5,-99,0,none,17,18,Woman,Right,
8,1,37,0.9176645000006829,['c'],0,right,none,-99,-99,0.5,-99,0,none,17,18,Woman,Right,
9,1,37,0.35070209999867075,['n'],1,right,none,-99,-99,0.5,-99,0,none,17,18,Woman,Right,
10,1,37,0.23216790000151377,['n'],1,right,none,-99,-99,0.5,-99,0,none,17,18,Woman,Right,
11,1,37,0.39930330000061076,['c'],0,right,none,-99,-99,0.5,-99,0,none,17,18,Woman,Right,
12,1,37,0.40118249999977706,['n'],1,right,none,-99,-99,0.5,-99,0,none,17,18,Woman,Right,
13,1,37,0.5001341000006505,['n'],0,left,none,-99,-99,0.5,-99,0,none,17,18,Woman,Right,
14,1,37,0.4335604999996576,['n'],0,left,none,-99,-99,0.5,-99,0,none,17,18,Woman,Right,
15,1,37,0.35013530000105675,['c'],1,left,none,-99,-99,0.5,-99,0,none,17,18,Woman,Right,
16,1,37,0.38342720000036934,['c'],1,left,none,-99,-99,0.5,-99,0,none,17,18,Woman,Right,
17,1,37,0.3667750000004162,['c'],0,right,none,-99,-99,0.5,-99,0,none,17,18,Woman,Right,
18,1,37,0.333233499999551,['n'],1,right,none,-99,-99,0.5,-99,0,none,17,18,Woman,Right,
19,1,37,0.36815870000100404,['n'],0,left,none,-99,-99,0.5,-99,0,none,17,18,Woman,Right,
20,1,37,0.34991750000153843,['c'],0,right,none,-99,-99,0.5,-99,0,none,17,18,Woman,Right,
21,1,37,0.3673683999986679,['c'],1,left,none,-99,-99,0.5,-99,0,none,17,18,Woman,Right,
22,1,37,0.5336451999992278,['c'],1,left,none,-99,-99,0.5,-99,0,none,17,18,Woman,Right,
23,1,37,0.3838068999993993,['c'],0,right,none,-99,-99,0.5,-99,0,none,17,18,Woman,Right,
0,1,38,0.5182999999997264,['c'],0,right,none,-99,-99,0.5,-99,0,none,17,18,Woman,Right,
1,1,38,0.31612610000047425,['n'],1,right,none,-99,-99,0.5,-99,0,none,17,18,Woman,Right,
2,1,38,0.4005632999997033,['n'],1,right,none,-99,-99,0.5,-99,0,none,17,18,Woman,Right,
3,1,38,0.4002349000002141,['n'],1,right,none,-99,-99,0.5,-99,0,none,17,18,Woman,Right,
4,1,38,0.316381900000124,['n'],0,left,none,-99,-99,0.5,-99,0,none,17,18,Woman,Right,
5,1,38,0.3510783999990963,['c'],1,left,none,-99,-99,0.5,-99,0,none,17,18,Woman,Right,
6,1,38,0.716680900000938,['n'],1,right,none,-99,-99,0.5,-99,0,none,17,18,Woman,Right,
7,1,38,0.5342614000001049,['n'],1,right,none,-99,-99,0.5,-99,0,none,17,18,Woman,Right,
8,1,38,0.48290540000016335,['n'],0,left,none,-99,-99,0.5,-99,0,none,17,18,Woman,Right,
9,1,38,0.43361060000097496,['c'],1,left,none,-99,-99,0.5,-99,0,none,17,18,Woman,Right,
10,1,38,0.38390590000017255,['c'],1,left,none,-99,-99,0.5,-99,0,none,17,18,Woman,Right,
11,1,38,0.3171861999999237,['c'],1,left,none,-99,-99,0.5,-99,0,none,17,18,Woman,Right,
12,1,38,0.31697149999854446,['c'],1,left,none,-99,-99,0.5,-99,0,none,17,18,Woman,Right,
13,1,38,0.368069000000105,['c'],1,left,none,-99,-99,0.5,-99,0,none,17,18,Woman,Right,
14,1,38,0.2506777999988117,['c'],0,right,none,-99,-99,0.5,-99,0,none,17,18,Woman,Right,
15,1,38,0.26750280000123894,['n'],0,left,none,-99,-99,0.5,-99,0,none,17,18,Woman,Right,
16,1,38,0.4518863999983296,['c'],0,right,none,-99,-99,0.5,-99,0,none,17,18,Woman,Right,
17,1,38,0.36717979999957606,['n'],1,right,none,-99,-99,0.5,-99,0,none,17,18,Woman,Right,
18,1,38,0.28416769999967073,['n'],0,left,none,-99,-99,0.5,-99,0,none,17,18,Woman,Right,
19,1,38,0.300405399999363,['c'],0,right,none,-99,-99,0.5,-99,0,none,17,18,Woman,Right,
20,1,38,0.48452960000031453,['c'],0,right,none,-99,-99,0.5,-99,0,none,17,18,Woman,Right,
21,1,38,0.41687129999991157,['c'],1,left,none,-99,-99,0.5,-99,0,none,17,18,Woman,Right,
22,1,38,0.46623169999838865,['c'],0,right,none,-99,-99,0.5,-99,0,none,17,18,Woman,Right,
23,1,38,0.482762300000104,['c'],1,left,none,-99,-99,0.5,-99,0,none,17,18,Woman,Right,
0,1,39,0.7847467999999935,['c'],1,left,none,-99,-99,0.5,-99,0,none,17,18,Woman,Right,
1,1,39,0.2838742000003549,['c'],1,left,none,-99,-99,0.5,-99,0,none,17,18,Woman,Right,
2,1,39,0.2658601000002818,['c'],0,right,none,-99,-99,0.5,-99,0,none,17,18,Woman,Right,
3,1,39,0.3000212000006286,['n'],1,right,none,-99,-99,0.5,-99,0,none,17,18,Woman,Right,
4,1,39,0.4002917999987403,['n'],0,left,none,-99,-99,0.5,-99,0,none,17,18,Woman,Right,
5,1,39,0.3338239999993675,['c'],0,right,none,-99,-99,0.5,-99,0,none,17,18,Woman,Right,
6,1,39,0.36619190000055823,['n'],0,left,none,-99,-99,0.5,-99,0,none,17,18,Woman,Right,
7,1,39,0.30133810000006633,['c'],1,left,none,-99,-99,0.5,-99,0,none,17,18,Woman,Right,
8,1,39,0.40063440000085393,['c'],1,left,none,-99,-99,0.5,-99,0,none,17,18,Woman,Right,
9,1,39,0.34929110000121,['c'],1,left,none,-99,-99,0.5,-99,0,none,17,18,Woman,Right,
10,1,39,0.2823064999993221,['c'],0,right,none,-99,-99,0.5,-99,0,none,17,18,Woman,Right,
11,1,39,0.4503541000012774,['n'],1,right,none,-99,-99,0.5,-99,0,none,17,18,Woman,Right,
12,1,39,0.5664970999987418,['n'],0,left,none,-99,-99,0.5,-99,0,none,17,18,Woman,Right,
13,1,39,0.3004454000001715,['c'],0,right,none,-99,-99,0.5,-99,0,none,17,18,Woman,Right,
14,1,39,0.3503018000010343,['n'],0,left,none,-99,-99,0.5,-99,0,none,17,18,Woman,Right,
15,1,39,0.31881959999918763,['c'],0,right,none,-99,-99,0.5,-99,0,none,17,18,Woman,Right,
16,1,39,0.39917330000025686,['n'],1,right,none,-99,-99,0.5,-99,0,none,17,18,Woman,Right,
17,1,39,0.499834500000361,['n'],1,right,none,-99,-99,0.5,-99,0,none,17,18,Woman,Right,
18,1,39,0.49964580000050773,['n'],0,left,none,-99,-99,0.5,-99,0,none,17,18,Woman,Right,
19,1,39,0.31725080000069283,['c'],0,right,none,-99,-99,0.5,-99,0,none,17,18,Woman,Right,
20,1,39,0.36578539999936766,['n'],0,left,none,-99,-99,0.5,-99,0,none,17,18,Woman,Right,
21,1,39,0.33423770000081277,['c'],1,left,none,-99,-99,0.5,-99,0,none,17,18,Woman,Right,
22,1,39,0.3498612999992474,['c'],0,right,none,-99,-99,0.5,-99,0,none,17,18,Woman,Right,
23,1,39,0.3505695999992895,['c'],0,right,none,-99,-99,0.5,-99,0,none,17,18,Woman,Right,
0,1,40,0.3008361000011064,['c'],0,right,none,-99,-99,0.5,-99,0,none,17,18,Woman,Right,
1,1,40,0.21742929999891203,['n'],0,left,none,-99,-99,0.5,-99,0,none,17,18,Woman,Right,
2,1,40,0.251061099999788,['c'],0,right,none,-99,-99,0.5,-99,0,none,17,18,Woman,Right,
3,1,40,0.316876200000479,['c'],1,left,none,-99,-99,0.5,-99,0,none,17,18,Woman,Right,
4,1,40,0.2656215999995766,['c'],1,left,none,-99,-99,0.5,-99,0,none,17,18,Woman,Right,
5,1,40,0.01743920000080834,['n'],0,left,none,-99,-99,0.5,-99,0,none,17,18,Woman,Right,
6,1,40,0.26574339999933727,['c'],0,right,none,-99,-99,0.5,-99,0,none,17,18,Woman,Right,
7,1,40,0.28350479999971867,['n'],0,left,none,-99,-99,0.5,-99,0,none,17,18,Woman,Right,
8,1,40,0.2831970999995974,['c'],0,right,none,-99,-99,0.5,-99,0,none,17,18,Woman,Right,
9,1,40,0.31829300000026706,['c'],0,right,none,-99,-99,0.5,-99,0,none,17,18,Woman,Right,
10,1,40,0.3005725999992137,['n'],1,right,none,-99,-99,0.5,-99,0,none,17,18,Woman,Right,
11,1,40,0.4324280999990151,['n'],0,left,none,-99,-99,0.5,-99,0,none,17,18,Woman,Right,
12,1,40,0.31712440000046627,['c'],1,left,none,-99,-99,0.5,-99,0,none,17,18,Woman,Right,
13,1,40,0.2671227999999246,['c'],0,right,none,-99,-99,0.5,-99,0,none,17,18,Woman,Right,
14,1,40,0.4668205999987549,['n'],0,left,none,-99,-99,0.5,-99,0,none,17,18,Woman,Right,
15,1,40,0.25085670000044047,['c'],1,left,none,-99,-99,0.5,-99,0,none,17,18,Woman,Right,
16,1,40,0.2838125999987824,['c'],0,right,none,-99,-99,0.5,-99,0,none,17,18,Woman,Right,
17,1,40,0.3340098999997281,['n'],1,right,none,-99,-99,0.5,-99,0,none,17,18,Woman,Right,
18,1,40,0.36757589999979245,['n'],1,right,none,-99,-99,0.5,-99,0,none,17,18,Woman,Right,
19,1,40,0.30062700000053155,['n'],1,right,none,-99,-99,0.5,-99,0,none,17,18,Woman,Right,
20,1,40,0.26612759999989066,['n'],1,right,none,-99,-99,0.5,-99,0,none,17,18,Woman,Right,
21,1,40,0.24991380000028585,['n'],0,left,none,-99,-99,0.5,-99,0,none,17,18,Woman,Right,
22,1,40,0.25069299999995565,['c'],1,left,none,-99,-99,0.5,-99,0,none,17,18,Woman,Right,
23,1,40,0.04937229999995907,['c'],1,left,none,-99,-99,0.5,-99,0,none,17,18,Woman,Right,
0,1,41,0.31833909999841126,['c'],1,left,none,-99,-99,0.5,-99,0,none,17,18,Woman,Right,
1,1,41,0.23451769999883254,['c'],0,right,none,-99,-99,0.5,-99,0,none,17,18,Woman,Right,
2,1,41,0.36684799999966344,['n'],1,right,none,-99,-99,0.5,-99,0,none,17,18,Woman,Right,
3,1,41,0.24931069999911415,['n'],1,right,none,-99,-99,0.5,-99,0,none,17,18,Woman,Right,
4,1,41,0.30039080000096874,['n'],0,left,none,-99,-99,0.5,-99,0,none,17,18,Woman,Right,
5,1,41,0.2672285999997257,['c'],1,left,none,-99,-99,0.5,-99,0,none,17,18,Woman,Right,
6,1,41,0.30003039999974135,['c'],0,right,none,-99,-99,0.5,-99,0,none,17,18,Woman,Right,
7,1,41,0.5173562999989372,['n'],1,right,none,-99,-99,0.5,-99,0,none,17,18,Woman,Right,
8,1,41,0.40155849999973725,['n'],1,right,none,-99,-99,0.5,-99,0,none,17,18,Woman,Right,
9,1,41,0.0670354000012594,['n'],1,right,none,-99,-99,0.5,-99,0,none,17,18,Woman,Right,
10,1,41,0.33364439999968454,['n'],0,left,none,-99,-99,0.5,-99,0,none,17,18,Woman,Right,
11,1,41,0.26680099999975937,['c'],0,right,none,-99,-99,0.5,-99,0,none,17,18,Woman,Right,
12,1,41,0.21765869999944698,['n'],1,right,none,-99,-99,0.5,-99,0,none,17,18,Woman,Right,
13,1,41,0.3005696000000171,['n'],1,right,none,-99,-99,0.5,-99,0,none,17,18,Woman,Right,
14,1,41,0.33282189999954426,['n'],1,right,none,-99,-99,0.5,-99,0,none,17,18,Woman,Right,
15,1,41,0.2677890999984811,['n'],0,left,none,-99,-99,0.5,-99,0,none,17,18,Woman,Right,
16,1,41,0.3344180000003689,['c'],0,right,none,-99,-99,0.5,-99,0,none,17,18,Woman,Right,
17,1,41,0.26681509999980335,['n'],0,left,none,-99,-99,0.5,-99,0,none,17,18,Woman,Right,
18,1,41,0.3170356999999058,['n'],0,left,none,-99,-99,0.5,-99,0,none,17,18,Woman,Right,
19,1,41,0.31775070000003325,['c'],1,left,none,-99,-99,0.5,-99,0,none,17,18,Woman,Right,
20,1,41,0.2506510999992315,['c'],1,left,none,-99,-99,0.5,-99,0,none,17,18,Woman,Right,
21,1,41,0.2498395000002347,['c'],1,left,none,-99,-99,0.5,-99,0,none,17,18,Woman,Right,
22,1,41,0.36623949999921024,['c'],1,left,none,-99,-99,0.5,-99,0,none,17,18,Woman,Right,
23,1,41,0.43299130000013974,['c'],1,left,none,-99,-99,0.5,-99,0,none,17,18,Woman,Right,
0,1,42,0.266850500000146,['c'],1,left,none,-99,-99,0.5,-99,0,none,17,18,Woman,Right,
1,1,42,0.25000460000046587,['c'],0,right,none,-99,-99,0.5,-99,0,none,17,18,Woman,Right,
2,1,42,0.3335071000001335,['n'],0,left,none,-99,-99,0.5,-99,0,none,17,18,Woman,Right,
3,1,42,0.2500048000001698,['c'],0,right,none,-99,-99,0.5,-99,0,none,17,18,Woman,Right,
4,1,42,0.03396640000028128,['n'],1,right,none,-99,-99,0.5,-99,0,none,17,18,Woman,Right,
5,1,42,0.3022806999997556,['n'],0,left,none,-99,-99,0.5,-99,0,none,17,18,Woman,Right,
6,1,42,0.3345470000003843,['c'],0,right,none,-99,-99,0.5,-99,0,none,17,18,Woman,Right,
7,1,42,0.250656500000332,['n'],1,right,none,-99,-99,0.5,-99,0,none,17,18,Woman,Right,
8,1,42,0.2838623000006919,['n'],1,right,none,-99,-99,0.5,-99,0,none,17,18,Woman,Right,
9,1,42,0.2662927999990643,['n'],1,right,none,-99,-99,0.5,-99,0,none,17,18,Woman,Right,
10,1,42,0.26705500000025495,['n'],0,left,none,-99,-99,0.5,-99,0,none,17,18,Woman,Right,
11,1,42,0.28349770000022545,['c'],1,left,none,-99,-99,0.5,-99,0,none,17,18,Woman,Right,
12,1,42,0.36663810000027297,['c'],1,left,none,-99,-99,0.5,-99,0,none,17,18,Woman,Right,
13,1,42,0.2178738999991765,['c'],0,right,none,-99,-99,0.5,-99,0,none,17,18,Woman,Right,
14,1,42,0.2673383000001195,['n'],0,left,none,-99,-99,0.5,-99,0,none,17,18,Woman,Right,
15,1,42,0.4489253000010649,['n'],1,right,none,-99,-99,0.5,-99,0,none,17,18,Woman,Right,
16,1,42,0.2841227000008075,['n'],1,right,none,-99,-99,0.5,-99,0,none,17,18,Woman,Right,
17,1,42,0.3341763999997056,['n'],0,left,none,-99,-99,0.5,-99,0,none,17,18,Woman,Right,
18,1,42,0.3671059999996942,['c'],0,right,none,-99,-99,0.5,-99,0,none,17,18,Woman,Right,
19,1,42,0.40012860000024375,['c'],0,right,none,-99,-99,0.5,-99,0,none,17,18,Woman,Right,
20,1,42,0.4344254000006913,['c'],1,left,none,-99,-99,0.5,-99,0,none,17,18,Woman,Right,
21,1,42,0.566393799999787,['c'],1,left,none,-99,-99,0.5,-99,0,none,17,18,Woman,Right,
22,1,42,0.33470419999866863,['c'],1,left,none,-99,-99,0.5,-99,0,none,17,18,Woman,Right,
23,1,42,0.31668420000096376,['n'],0,left,none,-99,-99,0.5,-99,0,none,17,18,Woman,Right,
0,1,43,0.3178998000003048,['n'],1,right,none,-99,-99,0.5,-99,0,none,17,18,Woman,Right,
1,1,43,0.3670880000008765,['n'],0,left,none,-99,-99,0.5,-99,0,none,17,18,Woman,Right,
2,1,43,0.3003927999998268,['c'],0,right,none,-99,-99,0.5,-99,0,none,17,18,Woman,Right,
3,1,43,0.23381650000010268,['c'],0,right,none,-99,-99,0.5,-99,0,none,17,18,Woman,Right,
4,1,43,0.3661344000011013,['c'],0,right,none,-99,-99,0.5,-99,0,none,17,18,Woman,Right,
5,1,43,0.33444199999939883,['n'],0,left,none,-99,-99,0.5,-99,0,none,17,18,Woman,Right,
6,1,43,0.35027639999862004,['n'],1,right,none,-99,-99,0.5,-99,0,none,17,18,Woman,Right,
7,1,43,0.3504467000002478,['n'],0,left,none,-99,-99,0.5,-99,0,none,17,18,Woman,Right,
8,1,43,0.583389299999908,['c'],0,right,none,-99,-99,0.5,-99,0,none,17,18,Woman,Right,
9,1,43,0.3842819999990752,['n'],0,left,none,-99,-99,0.5,-99,0,none,17,18,Woman,Right,
10,1,43,0.4167477000009967,['c'],0,right,none,-99,-99,0.5,-99,0,none,17,18,Woman,Right,
11,1,43,0.04965030000130355,['n'],0,left,none,-99,-99,0.5,-99,0,none,17,18,Woman,Right,
12,1,43,0.6009582000006048,['n'],0,left,none,-99,-99,0.5,-99,0,none,17,18,Woman,Right,
13,1,43,0.367681799998536,['n'],0,left,none,-99,-99,0.5,-99,0,none,17,18,Woman,Right,
14,1,43,0.2676482000006217,['c'],0,right,none,-99,-99,0.5,-99,0,none,17,18,Woman,Right,
15,1,43,0.38420030000088445,['n'],0,left,none,-99,-99,0.5,-99,0,none,17,18,Woman,Right,
16,1,43,0.6170531999996456,['c'],1,left,none,-99,-99,0.5,-99,0,none,17,18,Woman,Right,
17,1,43,0.38168669999868143,['c'],0,right,none,-99,-99,0.5,-99,0,none,17,18,Woman,Right,
18,1,43,0.5187165000006644,['c'],0,right,none,-99,-99,0.5,-99,0,none,17,18,Woman,Right,
19,1,43,0.36684059999970486,['c'],1,left,none,-99,-99,0.5,-99,0,none,17,18,Woman,Right,
20,1,43,0.26709329999903275,['c'],1,left,none,-99,-99,0.5,-99,0,none,17,18,Woman,Right,
21,1,43,0.33381050000025425,['c'],1,left,none,-99,-99,0.5,-99,0,none,17,18,Woman,Right,
22,1,43,0.3500257000014244,['c'],0,right,none,-99,-99,0.5,-99,0,none,17,18,Woman,Right,
23,1,43,0.36712769999940065,['n'],1,right,none,-99,-99,0.5,-99,0,none,17,18,Woman,Right,
0,1,44,0.3166651000010461,['c'],1,left,none,-99,-99,0.5,-99,0,none,17,18,Woman,Right,
1,1,44,0.2685980999995081,['c'],0,right,none,-99,-99,0.5,-99,0,none,17,18,Woman,Right,
2,1,44,0.31791130000056,['n'],0,left,none,-99,-99,0.5,-99,0,none,17,18,Woman,Right,
3,1,44,0.2660809999997582,['c'],0,right,none,-99,-99,0.5,-99,0,none,17,18,Woman,Right,
4,1,44,0.5342369999998482,['n'],0,left,none,-99,-99,0.5,-99,0,none,17,18,Woman,Right,
5,1,44,0.582429800000682,['n'],0,left,none,-99,-99,0.5,-99,0,none,17,18,Woman,Right,
6,1,44,0.3344068000005791,['c'],0,right,none,-99,-99,0.5,-99,0,none,17,18,Woman,Right,
7,1,44,0.3673858999991353,['c'],0,right,none,-99,-99,0.5,-99,0,none,17,18,Woman,Right,
8,1,44,0.7180851000011899,['c'],1,left,none,-99,-99,0.5,-99,0,none,17,18,Woman,Right,
9,1,44,0.26695440000003146,['c'],0,right,none,-99,-99,0.5,-99,0,none,17,18,Woman,Right,
10,1,44,0.26777539999966393,['n'],1,right,none,-99,-99,0.5,-99,0,none,17,18,Woman,Right,
11,1,44,0.06806700000015553,['n'],1,right,none,-99,-99,0.5,-99,0,none,17,18,Woman,Right,
12,1,44,0.25065729999914765,['n'],0,left,none,-99,-99,0.5,-99,0,none,17,18,Woman,Right,
13,1,44,0.301695699999982,['n'],0,left,none,-99,-99,0.5,-99,0,none,17,18,Woman,Right,
14,1,44,0.1653046000010363,['c'],0,right,none,-99,-99,0.5,-99,0,none,17,18,Woman,Right,
15,1,44,0.31703139999990526,['n'],0,left,none,-99,-99,0.5,-99,0,none,17,18,Woman,Right,
16,1,44,0.28283620000001974,['c'],1,left,none,-99,-99,0.5,-99,0,none,17,18,Woman,Right,
17,1,44,0.33392839999942225,['n'],1,right,none,-99,-99,0.5,-99,0,none,17,18,Woman,Right,
18,1,44,0.06594890000087616,['n'],0,left,none,-99,-99,0.5,-99,0,none,17,18,Woman,Right,
19,1,44,0.30067159999998694,['c'],0,right,none,-99,-99,0.5,-99,0,none,17,18,Woman,Right,
20,1,44,0.26709979999941424,['n'],1,right,none,-99,-99,0.5,-99,0,none,17,18,Woman,Right,
21,1,44,0.33389330000136397,['n'],0,left,none,-99,-99,0.5,-99,0,none,17,18,Woman,Right,
22,1,44,0.34947550000106276,['n'],1,right,none,-99,-99,0.5,-99,0,none,17,18,Woman,Right,
23,1,44,0.4827986999989662,['c'],1,left,none,-99,-99,0.5,-99,0,none,17,18,Woman,Right,
0,1,45,0.28466020000087155,['n'],1,right,none,-99,-99,0.5,-99,0,none,17,18,Woman,Right,
1,1,45,0.08390700000018114,['n'],1,right,none,-99,-99,0.5,-99,0,none,17,18,Woman,Right,
2,1,45,0.31719060000068566,['n'],0,left,none,-99,-99,0.5,-99,0,none,17,18,Woman,Right,
3,1,45,0.26712059999954363,['n'],1,right,none,-99,-99,0.5,-99,0,none,17,18,Woman,Right,
4,1,45,0.39985189999970316,['c'],1,left,none,-99,-99,0.5,-99,0,none,17,18,Woman,Right,
5,1,45,0.3833432999999786,['c'],1,left,none,-99,-99,0.5,-99,0,none,17,18,Woman,Right,
6,1,45,0.2826024999994843,['c'],1,left,none,-99,-99,0.5,-99,0,none,17,18,Woman,Right,
7,1,45,0.25138780000088445,['c'],0,right,none,-99,-99,0.5,-99,0,none,17,18,Woman,Right,
8,1,45,0.3174931999983528,['n'],1,right,none,-99,-99,0.5,-99,0,none,17,18,Woman,Right,
9,1,45,0.2664368999994622,['n'],0,left,none,-99,-99,0.5,-99,0,none,17,18,Woman,Right,
10,1,45,0.19958340000084718,['c'],0,right,none,-99,-99,0.5,-99,0,none,17,18,Woman,Right,
11,1,45,0.2844533000006777,['n'],1,right,none,-99,-99,0.5,-99,0,none,17,18,Woman,Right,
12,1,45,0.2819526000002952,['n'],0,left,none,-99,-99,0.5,-99,0,none,17,18,Woman,Right,
13,1,45,0.3006285999999818,['c'],0,right,none,-99,-99,0.5,-99,0,none,17,18,Woman,Right,
14,1,45,0.3005546999993385,['n'],0,left,none,-99,-99,0.5,-99,0,none,17,18,Woman,Right,
15,1,45,0.33335099999931117,['c'],0,right,none,-99,-99,0.5,-99,0,none,17,18,Woman,Right,
16,1,45,0.3000592999997025,['c'],1,left,none,-99,-99,0.5,-99,0,none,17,18,Woman,Right,
17,1,45,0.2671886000007362,['c'],1,left,none,-99,-99,0.5,-99,0,none,17,18,Woman,Right,
18,1,45,0.25089999999909196,['c'],1,left,none,-99,-99,0.5,-99,0,none,17,18,Woman,Right,
19,1,45,0.31770090000100026,['n'],0,left,none,-99,-99,0.5,-99,0,none,17,18,Woman,Right,
20,1,45,0.26792999999997846,['c'],0,right,none,-99,-99,0.5,-99,0,none,17,18,Woman,Right,
21,1,45,0.31752749999941443,['c'],0,right,none,-99,-99,0.5,-99,0,none,17,18,Woman,Right,
22,1,45,0.3000575999994908,['n'],0,left,none,-99,-99,0.5,-99,0,none,17,18,Woman,Right,
23,1,45,0.24965200000042387,['c'],0,right,none,-99,-99,0.5,-99,0,none,17,18,Woman,Right,
0,1,46,0.2679100000004837,['c'],0,right,none,-99,-99,0.5,-99,0,none,17,18,Woman,Right,
1,1,46,0.28225150000071153,['n'],1,right,none,-99,-99,0.5,-99,0,none,17,18,Woman,Right,
2,1,46,0.26675579999937327,['n'],1,right,none,-99,-99,0.5,-99,0,none,17,18,Woman,Right,
3,1,46,0.31706429999940156,['n'],0,left,none,-99,-99,0.5,-99,0,none,17,18,Woman,Right,
4,1,46,0.29902920000131417,['c'],1,left,none,-99,-99,0.5,-99,0,none,17,18,Woman,Right,
5,1,46,0.250908599999093,['c'],1,left,none,-99,-99,0.5,-99,0,none,17,18,Woman,Right,
6,1,46,0.26806110000143235,['c'],0,right,none,-99,-99,0.5,-99,0,none,17,18,Woman,Right,
7,1,46,0.2823491999988619,['n'],0,left,none,-99,-99,0.5,-99,0,none,17,18,Woman,Right,
8,1,46,0.3336018999998487,['c'],0,right,none,-99,-99,0.5,-99,0,none,17,18,Woman,Right,
9,1,46,0.2998986000002333,['c'],1,left,none,-99,-99,0.5,-99,0,none,17,18,Woman,Right,
10,1,46,0.3503746999995201,['c'],1,left,none,-99,-99,0.5,-99,0,none,17,18,Woman,Right,
11,1,46,0.33378259999881266,['c'],0,right,none,-99,-99,0.5,-99,0,none,17,18,Woman,Right,
12,1,46,0.3171791000004305,['n'],0,left,none,-99,-99,0.5,-99,0,none,17,18,Woman,Right,
13,1,46,0.3011456000003818,['c'],0,right,none,-99,-99,0.5,-99,0,none,17,18,Woman,Right,
14,1,46,0.38407420000112324,['n'],1,right,none,-99,-99,0.5,-99,0,none,17,18,Woman,Right,
15,1,46,0.3658962000008614,['n'],1,right,none,-99,-99,0.5,-99,0,none,17,18,Woman,Right,
16,1,46,0.25025169999935315,['n'],0,left,none,-99,-99,0.5,-99,0,none,17,18,Woman,Right,
17,1,46,0.30008810000072117,['n'],0,left,none,-99,-99,0.5,-99,0,none,17,18,Woman,Right,
18,1,46,0.284435300000041,['c'],0,right,none,-99,-99,0.5,-99,0,none,17,18,Woman,Right,
19,1,46,0.25112109999827226,['n'],1,right,none,-99,-99,0.5,-99,0,none,17,18,Woman,Right,
20,1,46,0.24932300000000396,['n'],0,left,none,-99,-99,0.5,-99,0,none,17,18,Woman,Right,
21,1,46,0.2675008999995043,['n'],0,left,none,-99,-99,0.5,-99,0,none,17,18,Woman,Right,
22,1,46,0.26654010000129347,['c'],0,right,none,-99,-99,0.5,-99,0,none,17,18,Woman,Right,
23,1,46,0.4672726999997394,['n'],0,left,none,-99,-99,0.5,-99,0,none,17,18,Woman,Right,
0,1,47,0.5664528999986942,['n'],0,left,none,-99,-99,0.5,-99,0,none,17,18,Woman,Right,
1,1,47,0.3675550000007206,['n'],0,left,none,-99,-99,0.5,-99,0,none,17,18,Woman,Right,
2,1,47,0.23342559999946388,['c'],0,right,none,-99,-99,0.5,-99,0,none,17,18,Woman,Right,
3,1,47,0.2824201000003086,['c'],1,left,none,-99,-99,0.5,-99,0,none,17,18,Woman,Right,
4,1,47,0.30120480000005045,['c'],1,left,none,-99,-99,0.5,-99,0,none,17,18,Woman,Right,
5,1,47,0.06728230000044277,['c'],1,left,none,-99,-99,0.5,-99,0,none,17,18,Woman,Right,
6,1,47,0.3332444999996369,['c'],1,left,none,-99,-99,0.5,-99,0,none,17,18,Woman,Right,
7,1,47,0.25085720000060974,['n'],1,right,none,-99,-99,0.5,-99,0,none,17,18,Woman,Right,
8,1,47,0.23463919999994687,['n'],1,right,none,-99,-99,0.5,-99,0,none,17,18,Woman,Right,
9,1,47,0.1004692000005889,['n'],1,right,none,-99,-99,0.5,-99,0,none,17,18,Woman,Right,
10,1,47,0.21785199999976612,['n'],1,right,none,-99,-99,0.5,-99,0,none,17,18,Woman,Right,
11,1,47,0.23428389999935462,['n'],1,right,none,-99,-99,0.5,-99,0,none,17,18,Woman,Right,
12,1,47,0.26755459999913,['c'],0,right,none,-99,-99,0.5,-99,0,none,17,18,Woman,Right,
13,1,47,0.0840066000000661,['c'],0,right,none,-99,-99,0.5,-99,0,none,17,18,Woman,Right,
14,1,47,0.15075860000069952,['n'],1,right,none,-99,-99,0.5,-99,0,none,17,18,Woman,Right,
15,1,47,0.2677230999997846,['n'],0,left,none,-99,-99,0.5,-99,0,none,17,18,Woman,Right,
16,1,47,0.2840742999997019,['c'],1,left,none,-99,-99,0.5,-99,0,none,17,18,Woman,Right,
17,1,47,0.2667159000011452,['c'],1,left,none,-99,-99,0.5,-99,0,none,17,18,Woman,Right,
18,1,47,0.2997551000007661,['c'],1,left,none,-99,-99,0.5,-99,0,none,17,18,Woman,Right,
19,1,47,0.25099539999973786,['c'],0,right,none,-99,-99,0.5,-99,0,none,17,18,Woman,Right,
20,1,47,0.25007170000026235,['n'],1,right,none,-99,-99,0.5,-99,0,none,17,18,Woman,Right,
21,1,47,0.23401399999966088,['n'],1,right,none,-99,-99,0.5,-99,0,none,17,18,Woman,Right,
22,1,47,0.268457699999999,['n'],0,left,none,-99,-99,0.5,-99,0,none,17,18,Woman,Right,
23,1,47,0.2663475000008475,['c'],1,left,none,-99,-99,0.5,-99,0,none,17,18,Woman,Right,
0,1,48,0.6677485999989585,['c'],0,right,none,-99,-99,0.5,-99,0,none,17,18,Woman,Right,
1,1,48,0.3498672000005172,['n'],1,right,none,-99,-99,0.5,-99,0,none,17,18,Woman,Right,
2,1,48,0.3328841000002285,['n'],1,right,none,-99,-99,0.5,-99,0,none,17,18,Woman,Right,
3,1,48,0.3171038000000408,['n'],0,left,none,-99,-99,0.5,-99,0,none,17,18,Woman,Right,
4,1,48,0.2509719999998197,['c'],0,right,none,-99,-99,0.5,-99,0,none,17,18,Woman,Right,
5,1,48,0.033873799999128096,['c'],0,right,none,-99,-99,0.5,-99,0,none,17,18,Woman,Right,
6,1,48,0.28241870000056224,['n'],0,left,none,-99,-99,0.5,-99,0,none,17,18,Woman,Right,
7,1,48,0.43354510000062874,['n'],0,left,none,-99,-99,0.5,-99,0,none,17,18,Woman,Right,
8,1,48,0.36738119999972696,['c'],1,left,none,-99,-99,0.5,-99,0,none,17,18,Woman,Right,
9,1,48,0.7673766000007163,['c'],1,left,none,-99,-99,0.5,-99,0,none,17,18,Woman,Right,
10,1,48,0.3011444000003394,['c'],1,left,none,-99,-99,0.5,-99,0,none,17,18,Woman,Right,
11,1,48,0.3511935000005906,['c'],0,right,none,-99,-99,0.5,-99,0,none,17,18,Woman,Right,
12,1,48,0.3170661000003747,['n'],0,left,none,-99,-99,0.5,-99,0,none,17,18,Woman,Right,
13,1,48,0.3337301999999909,['c'],0,right,none,-99,-99,0.5,-99,0,none,17,18,Woman,Right,
14,1,48,0.26752420000048005,['n'],0,left,none,-99,-99,0.5,-99,0,none,17,18,Woman,Right,
15,1,48,0.3177842999994027,['n'],1,right,none,-99,-99,0.5,-99,0,none,17,18,Woman,Right,
16,1,48,0.34923170000001846,['n'],0,left,none,-99,-99,0.5,-99,0,none,17,18,Woman,Right,
