withinblocktrial,block,block_repetition,rt,resp,cor,cresp,conf_press,cj,rtconf,coherence,metacognition,slow_trial,manipulation,sub,age,gender,handedness,
0,1,1,2.4008024999984627,['c'],0,right,none,-99,-99,0.5,-99,0,none,22,18,Woman,Right,
1,1,1,2.6490025999992213,['n'],1,right,none,-99,-99,0.5,-99,0,none,22,18,Woman,Right,
2,1,1,1.383868299999449,['c'],0,right,none,-99,-99,0.5,-99,0,none,22,18,Woman,Right,
3,1,1,3.117065399999774,['c'],1,left,none,-99,-99,0.5,-99,0,none,22,18,Woman,Right,
4,1,1,1.3188637000002927,['n'],1,right,none,-99,-99,0.5,-99,0,none,22,18,Woman,Right,
5,1,1,0.8342204999989917,['c'],1,left,none,-99,-99,0.5,-99,0,none,22,18,Woman,Right,
6,1,1,0.6682180000007065,['c'],0,right,none,-99,-99,0.5,-99,0,none,22,18,Woman,Right,
7,1,1,0.9843338999999105,['c'],1,left,none,-99,-99,0.5,-99,0,none,22,18,Woman,Right,
8,1,1,2.582504699999845,['n'],0,left,none,-99,-99,0.5,-99,0,none,22,18,Woman,Right,
9,1,1,1.400258000001486,['c'],0,right,none,-99,-99,0.5,-99,0,none,22,18,Woman,Right,
10,1,1,0.7176199000004999,['c'],0,right,none,-99,-99,0.5,-99,0,none,22,18,Woman,Right,
11,1,1,3.550920899999255,['c'],1,left,none,-99,-99,0.5,-99,0,none,22,18,Woman,Right,
12,1,1,1.5009898000007524,['c'],0,right,none,-99,-99,0.5,-99,0,none,22,18,Woman,Right,
13,1,1,1.95023190000029,['n'],0,left,none,-99,-99,0.5,-99,0,none,22,18,Woman,Right,
14,1,1,0.7658235999988392,['c'],1,left,none,-99,-99,0.5,-99,0,none,22,18,Woman,Right,
15,1,1,0.8671981999996206,['n'],1,right,none,-99,-99,0.5,-99,0,none,22,18,Woman,Right,
16,1,1,1.8674409000013839,['c'],1,left,none,-99,-99,0.5,-99,0,none,22,18,Woman,Right,
17,1,1,3.2989338000006683,['c'],1,left,none,-99,-99,0.5,-99,0,none,22,18,Woman,Right,
18,1,1,1.2176223000005848,['n'],1,right,none,-99,-99,0.5,-99,0,none,22,18,Woman,Right,
19,1,1,1.3002078000008623,['n'],0,left,none,-99,-99,0.5,-99,0,none,22,18,Woman,Right,
20,1,1,0.6663250000001426,['c'],0,right,none,-99,-99,0.5,-99,0,none,22,18,Woman,Right,
21,1,1,0.35071509999943373,['c'],0,right,none,-99,-99,0.5,-99,0,none,22,18,Woman,Right,
22,1,1,0.35143629999947734,['c'],1,left,none,-99,-99,0.5,-99,0,none,22,18,Woman,Right,
23,1,1,0.601400300000023,['c'],1,left,none,-99,-99,0.5,-99,0,none,22,18,Woman,Right,
0,1,2,0.9179385000006732,['n'],0,left,none,-99,-99,0.5,-99,0,none,22,18,Woman,Right,
1,1,2,1.1834875999993528,['c'],1,left,none,-99,-99,0.5,-99,0,none,22,18,Woman,Right,
2,1,2,2.950454900001205,['c'],0,right,none,-99,-99,0.5,-99,0,none,22,18,Woman,Right,
3,1,2,0.7999118999996426,['c'],0,right,none,-99,-99,0.5,-99,0,none,22,18,Woman,Right,
4,1,2,0.39996229999997013,['c'],0,right,none,-99,-99,0.5,-99,0,none,22,18,Woman,Right,
5,1,2,0.616456300000209,['c'],1,left,none,-99,-99,0.5,-99,0,none,22,18,Woman,Right,
6,1,2,0.6336632999991707,['c'],1,left,none,-99,-99,0.5,-99,0,none,22,18,Woman,Right,
7,1,2,0.8844779000010021,['n'],1,right,none,-99,-99,0.5,-99,0,none,22,18,Woman,Right,
8,1,2,1.6170770000007906,['c'],1,left,none,-99,-99,0.5,-99,0,none,22,18,Woman,Right,
9,1,2,1.5001921999992192,['c'],0,right,none,-99,-99,0.5,-99,0,none,22,18,Woman,Right,
10,1,2,1.4176494999992428,['c'],1,left,none,-99,-99,0.5,-99,0,none,22,18,Woman,Right,
11,1,2,1.500057100000049,['c'],1,left,none,-99,-99,0.5,-99,0,none,22,18,Woman,Right,
12,1,2,1.316570299999512,['n'],1,right,none,-99,-99,0.5,-99,0,none,22,18,Woman,Right,
13,1,2,3.216707999999926,['c'],1,left,none,-99,-99,0.5,-99,0,none,22,18,Woman,Right,
14,1,2,1.4839959999990242,['n'],1,right,none,-99,-99,0.5,-99,0,none,22,18,Woman,Right,
15,1,2,1.13380639999923,['c'],1,left,none,-99,-99,0.5,-99,0,none,22,18,Woman,Right,
16,1,2,1.0006386999993993,['n'],1,right,none,-99,-99,0.5,-99,0,none,22,18,Woman,Right,
17,1,2,0.9163091000009445,['c'],1,left,none,-99,-99,0.5,-99,0,none,22,18,Woman,Right,
18,1,2,3.5824541000001773,['c'],1,left,none,-99,-99,0.5,-99,0,none,22,18,Woman,Right,
19,1,2,1.0330505000001722,['n'],1,right,none,-99,-99,0.5,-99,0,none,22,18,Woman,Right,
20,1,2,0.9677284000008513,['n'],1,right,none,-99,-99,0.5,-99,0,none,22,18,Woman,Right,
21,1,2,1.0674496999999974,['n'],1,right,none,-99,-99,0.5,-99,0,none,22,18,Woman,Right,
22,1,2,3.2346787999995286,['n'],1,right,none,-99,-99,0.5,-99,0,none,22,18,Woman,Right,
23,1,2,0.7845202999997127,['c'],1,left,none,-99,-99,0.5,-99,0,none,22,18,Woman,Right,
0,1,3,0.9838039000005665,['c'],1,left,none,-99,-99,0.5,-99,0,none,22,18,Woman,Right,
1,1,3,0.9668301999990945,['c'],1,left,none,-99,-99,0.5,-99,0,none,22,18,Woman,Right,
2,1,3,0.8335855000004813,['c'],1,left,none,-99,-99,0.5,-99,0,none,22,18,Woman,Right,
3,1,3,1.150525099999868,['n'],1,right,none,-99,-99,0.5,-99,0,none,22,18,Woman,Right,
4,1,3,0.933026400000017,['n'],1,right,none,-99,-99,0.5,-99,0,none,22,18,Woman,Right,
5,1,3,1.0828187000006437,['n'],1,right,none,-99,-99,0.5,-99,0,none,22,18,Woman,Right,
6,1,3,0.7843372999996063,['c'],1,left,none,-99,-99,0.5,-99,0,none,22,18,Woman,Right,
7,1,3,0.7157152999989194,['c'],1,left,none,-99,-99,0.5,-99,0,none,22,18,Woman,Right,
8,1,3,0.6673857999994652,['n'],1,right,none,-99,-99,0.5,-99,0,none,22,18,Woman,Right,
9,1,3,1.1509072999997443,['n'],1,right,none,-99,-99,0.5,-99,0,none,22,18,Woman,Right,
10,1,3,0.5677032000003237,['c'],1,left,none,-99,-99,0.5,-99,0,none,22,18,Woman,Right,
11,1,3,0.8173951999997371,['c'],1,left,none,-99,-99,0.5,-99,0,none,22,18,Woman,Right,
12,1,3,0.6165220000002591,['n'],1,right,none,-99,-99,0.5,-99,0,none,22,18,Woman,Right,
13,1,3,0.6673611999995046,['c'],1,left,none,-99,-99,0.5,-99,0,none,22,18,Woman,Right,
14,1,3,0.8505284000002575,['n'],1,right,none,-99,-99,0.5,-99,0,none,22,18,Woman,Right,
15,1,3,0.6349851000013587,['c'],1,left,none,-99,-99,0.5,-99,0,none,22,18,Woman,Right,
16,1,3,0.7174460999995063,['n'],1,right,none,-99,-99,0.5,-99,0,none,22,18,Woman,Right,
17,1,3,0.5335648000000219,['c'],1,left,none,-99,-99,0.5,-99,0,none,22,18,Woman,Right,
18,1,3,0.5508156999985658,['n'],1,right,none,-99,-99,0.5,-99,0,none,22,18,Woman,Right,
19,1,3,1.0343763999990188,['n'],1,right,none,-99,-99,0.5,-99,0,none,22,18,Woman,Right,
20,1,3,0.9832178000015119,['n'],1,right,none,-99,-99,0.5,-99,0,none,22,18,Woman,Right,
21,1,3,0.9172178000007989,['n'],1,right,none,-99,-99,0.5,-99,0,none,22,18,Woman,Right,
22,1,3,0.751345599999695,['c'],1,left,none,-99,-99,0.5,-99,0,none,22,18,Woman,Right,
23,1,3,0.7839345000011235,['c'],1,left,none,-99,-99,0.5,-99,0,none,22,18,Woman,Right,
0,2,1,1.482854199999565,['c'],1,left,none,-99,-99,0.2,-99,0,none,22,18,Woman,Right,
1,2,1,1.0673640000004525,['c'],1,left,none,-99,-99,0.4,-99,0,none,22,18,Woman,Right,
2,2,1,1.0675787000000128,['n'],1,right,none,-99,-99,0.4,-99,0,none,22,18,Woman,Right,
3,2,1,0.599823299999116,['c'],1,left,none,-99,-99,0.4,-99,0,none,22,18,Woman,Right,
4,2,1,1.2509446000003663,['c'],1,left,none,-99,-99,0.2,-99,0,none,22,18,Woman,Right,
5,2,1,0.799954300000536,['c'],1,left,none,-99,-99,0.4,-99,0,none,22,18,Woman,Right,
6,2,1,0.684290900000633,['n'],1,right,none,-99,-99,0.1,-99,0,none,22,18,Woman,Right,
7,2,1,0.7499483999999939,['n'],1,right,none,-99,-99,0.4,-99,0,none,22,18,Woman,Right,
8,2,1,2.1510119999984454,['n'],1,right,none,-99,-99,0.1,-99,0,none,22,18,Woman,Right,
9,2,1,0.8346526000004815,['n'],1,right,none,-99,-99,0.2,-99,0,none,22,18,Woman,Right,
10,2,1,0.9337643999988359,['n'],1,right,none,-99,-99,0.4,-99,0,none,22,18,Woman,Right,
11,2,1,0.8349777000003087,['c'],1,left,none,-99,-99,0.2,-99,0,none,22,18,Woman,Right,
12,2,1,1.1169604000006075,['n'],0,left,none,-99,-99,0.1,-99,0,none,22,18,Woman,Right,
13,2,1,1.100352400000702,['n'],1,right,none,-99,-99,0.4,-99,0,none,22,18,Woman,Right,
14,2,1,1.3178229999994073,['c'],1,left,none,-99,-99,0.1,-99,0,none,22,18,Woman,Right,
15,2,1,1.500911699999051,['c'],1,left,none,-99,-99,0.2,-99,0,none,22,18,Woman,Right,
16,2,1,0.6675667999988946,['n'],1,right,none,-99,-99,0.1,-99,0,none,22,18,Woman,Right,
17,2,1,0.7185215000008611,['c'],0,right,none,-99,-99,0.1,-99,0,none,22,18,Woman,Right,
18,2,1,0.9669899000000441,['n'],1,right,none,-99,-99,0.2,-99,0,none,22,18,Woman,Right,
19,2,1,0.9342453999997815,['c'],1,left,none,-99,-99,0.2,-99,0,none,22,18,Woman,Right,
20,2,1,1.6829502000000502,['c'],1,left,none,-99,-99,0.1,-99,0,none,22,18,Woman,Right,
21,2,1,1.3995140000006359,['n'],1,right,none,-99,-99,0.2,-99,0,none,22,18,Woman,Right,
22,2,1,0.7679633000007016,['n'],1,right,none,-99,-99,0.4,-99,0,none,22,18,Woman,Right,
23,2,1,0.7838148999999248,['c'],1,left,none,-99,-99,0.1,-99,0,none,22,18,Woman,Right,
0,3,1,2.534125000000131,['c'],0,right,['u'],0,1.3229888999994728,0.1,1,0,none,22,18,Woman,Right,
1,3,1,1.1505065000001196,['n'],1,right,['e'],1,1.8070622999985062,0.4,1,0,none,22,18,Woman,Right,
2,3,1,2.4847317000003386,['c'],1,left,['u'],0,1.1145316000001912,0.2,0,0,none,22,18,Woman,Right,
3,3,1,1.2342262000001938,['c'],1,left,['u'],0,0.4029822000011336,0.4,0,0,none,22,18,Woman,Right,
4,3,1,1.417129899999054,['n'],1,right,['u'],0,0.8162212999995972,0.2,0,0,none,22,18,Woman,Right,
5,3,1,1.3170408999994834,['c'],1,left,['u'],0,0.3054588999984844,0.4,0,0,none,22,18,Woman,Right,
6,3,1,1.1343774999986636,['n'],0,left,['u'],0,0.3984775000008085,0.2,1,0,none,22,18,Woman,Right,
7,3,1,1.8345960000006016,['n'],0,left,['u'],0,0.6520287999992433,0.1,1,0,none,22,18,Woman,Right,
8,3,1,1.8843396000011126,['c'],0,right,['u'],0,0.780456000000413,0.2,1,0,none,22,18,Woman,Right,
9,3,1,1.5841306000002078,['n'],0,left,['u'],0,0.9161524000010104,0.1,1,0,none,22,18,Woman,Right,
10,3,1,1.533898899999258,['n'],0,left,['u'],0,0.5525152999998681,0.4,1,0,none,22,18,Woman,Right,
11,3,1,2.7509829999999056,['n'],0,left,['u'],0,0.8430494999993243,0.2,1,0,none,22,18,Woman,Right,
12,3,1,1.0845091000010143,['n'],1,right,['u'],0,0.3569385000009788,0.4,0,0,none,22,18,Woman,Right,
13,3,1,1.2502278000010847,['n'],1,right,['u'],0,0.3792668000005506,0.2,0,0,none,22,18,Woman,Right,
14,3,1,1.1337215999992623,['c'],1,left,['e'],1,0.8207121999985247,0.1,1,0,none,22,18,Woman,Right,
15,3,1,2.0843354999997246,['c'],1,left,['u'],0,1.0629771999992954,0.4,0,0,none,22,18,Woman,Right,
16,3,1,3.6290355999990425,['n'],1,right,['u'],0,1.3638214000002336,0.2,0,0,none,22,18,Woman,Right,
17,3,1,1.0510729999987234,['c'],1,left,['u'],0,0.6333938999996462,0.1,0,0,none,22,18,Woman,Right,
18,3,1,1.5015533000005234,['n'],1,right,['u'],0,0.6973118999994767,0.4,0,0,none,22,18,Woman,Right,
19,3,1,2.300927700000102,['n'],1,right,['u'],0,0.5997311000010086,0.1,0,0,none,22,18,Woman,Right,
20,3,1,1.0177994999994553,['n'],1,right,['u'],0,0.23739519999980985,0.1,0,0,none,22,18,Woman,Right,
21,3,1,1.101174000001265,['n'],1,right,['u'],0,0.254226999999446,0.1,0,0,none,22,18,Woman,Right,
22,3,1,0.8339857999999367,['c'],1,left,['u'],0,0.3133785000009084,0.4,0,0,none,22,18,Woman,Right,
23,3,1,2.3329682999992656,['n'],1,right,['u'],0,0.27822849999938626,0.2,0,0,none,22,18,Woman,Right,
0,4,1,5.016328600000634,x,-99,left,none,-99,-99,0.4,-99,1,AccAcc,22,18,Woman,Right,
1,4,1,2.4504485999987082,['c'],1,left,['u'],0,0.780660499998703,0.1,0,0,AccAcc,22,18,Woman,Right,
2,4,1,1.2511876999997185,['n'],1,right,['u'],0,0.301931500000137,0.1,0,0,AccAcc,22,18,Woman,Right,
3,4,1,1.1179905000008148,['n'],1,right,['u'],0,0.45528829999966547,0.2,0,0,AccAcc,22,18,Woman,Right,
4,4,1,1.9836636999989423,['n'],1,right,['u'],0,0.24849449999965145,0.2,0,0,AccAcc,22,18,Woman,Right,
5,4,1,1.367730299998584,['n'],0,left,['u'],0,0.21945899999991525,0.4,1,0,AccAcc,22,18,Woman,Right,
6,4,1,1.0013353000013012,['n'],1,right,['u'],0,0.364608899999439,0.4,0,0,AccAcc,22,18,Woman,Right,
7,4,1,1.6676332000006369,['n'],0,left,['u'],0,0.36494760000095994,0.1,1,0,AccAcc,22,18,Woman,Right,
8,4,1,2.6500883999997313,['n'],0,left,['u'],0,0.6467420000008133,0.1,1,0,AccAcc,22,18,Woman,Right,
9,4,1,1.3510206999999355,['n'],0,left,['u'],0,0.3610533999999461,0.4,1,0,AccAcc,22,18,Woman,Right,
10,4,1,1.6665259999990667,['n'],1,right,['u'],0,0.34693680000054883,0.4,0,0,AccAcc,22,18,Woman,Right,
11,4,1,3.1512340000008408,['c'],0,right,['u'],0,0.41730850000021746,0.1,1,0,AccAcc,22,18,Woman,Right,
12,4,1,2.0333695000008447,['n'],0,left,['u'],0,0.27412179999919317,0.4,1,0,AccAcc,22,18,Woman,Right,
13,4,1,1.15010440000151,['c'],1,left,['u'],0,0.444548899999063,0.2,0,0,AccAcc,22,18,Woman,Right,
14,4,1,1.6509152999988146,['n'],1,right,['u'],0,0.34675440000137314,0.4,0,0,AccAcc,22,18,Woman,Right,
15,4,1,2.1012024999999994,['n'],1,right,['u'],0,0.34703799999988405,0.1,0,0,AccAcc,22,18,Woman,Right,
16,4,1,1.1516267000006337,['c'],1,left,['u'],0,0.3854085999992094,0.4,0,0,AccAcc,22,18,Woman,Right,
17,4,1,1.9842133999991347,['c'],1,left,['u'],0,0.341160600000876,0.1,0,0,AccAcc,22,18,Woman,Right,
18,4,1,0.7511696999990818,['c'],1,left,['u'],0,0.3488195000009,0.1,0,0,AccAcc,22,18,Woman,Right,
19,4,1,0.7014125999994576,['n'],1,right,['u'],0,0.2764342000009492,0.4,0,0,AccAcc,22,18,Woman,Right,
20,4,1,0.8847740999990492,['n'],1,right,['u'],0,0.296922600000471,0.4,0,0,AccAcc,22,18,Woman,Right,
21,4,1,0.8680542000001878,['c'],1,left,['u'],0,0.33234149999952933,0.1,0,0,AccAcc,22,18,Woman,Right,
22,4,1,1.1843503000000055,['c'],1,left,['u'],0,0.30600630000117235,0.2,0,0,AccAcc,22,18,Woman,Right,
23,4,1,1.1335441999999603,['n'],1,right,['u'],0,0.2831119000002218,0.2,0,0,AccAcc,22,18,Woman,Right,
24,4,1,1.3999045999989903,['c'],1,left,['u'],0,0.25013140000010026,0.2,0,0,AccAcc,22,18,Woman,Right,
25,4,1,1.8008924999994633,['n'],0,left,['u'],0,0.2345633999993879,0.2,1,0,AccAcc,22,18,Woman,Right,
26,4,1,1.334444000000076,['n'],1,right,['u'],0,0.254283199999918,0.1,0,0,AccAcc,22,18,Woman,Right,
27,4,1,2.5835354999999254,['n'],1,right,['u'],0,0.2074044999990292,0.1,0,0,AccAcc,22,18,Woman,Right,
28,4,1,0.9680045000004611,['n'],1,right,['u'],0,0.24313719999918249,0.2,0,0,AccAcc,22,18,Woman,Right,
29,4,1,0.6350526999995054,['c'],1,left,['u'],0,0.30673639999986335,0.4,0,0,AccAcc,22,18,Woman,Right,
30,4,1,0.5333458999994036,['n'],1,right,['u'],0,0.27599689999988186,0.4,0,0,AccAcc,22,18,Woman,Right,
31,4,1,0.6346604999998817,['c'],1,left,['u'],0,0.33779319999848667,0.2,0,0,AccAcc,22,18,Woman,Right,
32,4,1,1.2349565000004077,['n'],0,left,['u'],0,0.27757479999854695,0.2,1,0,AccAcc,22,18,Woman,Right,
33,4,1,1.5514426000008825,['n'],1,right,['u'],0,0.255341000000044,0.2,0,0,AccAcc,22,18,Woman,Right,
34,4,1,2.0673480999994354,['n'],0,left,['u'],0,0.5172493999998551,0.1,1,0,AccAcc,22,18,Woman,Right,
35,4,1,1.89981109999826,['c'],1,left,['u'],0,0.34328499999901396,0.1,0,0,AccAcc,22,18,Woman,Right,
36,4,1,0.7511076999999204,['n'],1,right,['u'],0,0.25378269999964687,0.2,0,0,AccAcc,22,18,Woman,Right,
37,4,1,0.7510798000002978,['n'],1,right,['u'],0,0.6321341000002576,0.1,0,0,AccAcc,22,18,Woman,Right,
38,4,1,0.7505615999998554,['c'],1,left,['u'],0,0.38777289999961795,0.2,0,0,AccAcc,22,18,Woman,Right,
39,4,1,1.5169352000011713,['c'],1,left,['u'],0,0.44136600000092585,0.4,0,0,AccAcc,22,18,Woman,Right,
40,4,1,1.4343853000009403,['n'],1,right,['u'],0,0.43319680000058725,0.1,0,0,AccAcc,22,18,Woman,Right,
41,4,1,0.9177000999989104,['n'],1,right,['u'],0,0.20572960000026796,0.4,0,0,AccAcc,22,18,Woman,Right,
42,4,1,0.7513407000005827,['c'],1,left,['u'],0,0.6658981000000495,0.4,0,0,AccAcc,22,18,Woman,Right,
43,4,1,1.4168766000002506,['n'],0,left,['u'],0,0.25026830000024347,0.1,1,0,AccAcc,22,18,Woman,Right,
44,4,1,1.3175410000003467,['n'],1,right,['u'],0,0.28469699999914155,0.2,0,0,AccAcc,22,18,Woman,Right,
45,4,1,0.6501619000009669,['n'],1,right,['u'],0,0.2656525000002148,0.4,0,0,AccAcc,22,18,Woman,Right,
46,4,1,0.6179592000007688,['n'],1,right,['u'],0,0.2326905000008992,0.4,0,0,AccAcc,22,18,Woman,Right,
47,4,1,1.1017575000005309,['c'],1,left,['u'],0,0.26115690000006,0.1,0,0,AccAcc,22,18,Woman,Right,
48,4,1,0.7842693000002328,['n'],1,right,['u'],0,0.23819580000053975,0.4,0,0,AccAcc,22,18,Woman,Right,
49,4,1,1.9845069000002695,['n'],0,left,['u'],0,0.29600919999938924,0.1,1,0,AccAcc,22,18,Woman,Right,
50,4,1,1.466192099998807,['n'],1,right,['e'],1,0.30898290000004636,0.4,1,0,AccAcc,22,18,Woman,Right,
51,4,1,2.4010557000001427,['n'],1,right,['u'],0,0.28238020000026154,0.1,0,0,AccAcc,22,18,Woman,Right,
52,4,1,2.0332593000002817,['c'],1,left,['e'],1,0.5120841999996628,0.2,1,0,AccAcc,22,18,Woman,Right,
53,4,1,1.567151900000681,['n'],1,right,['u'],0,0.19139039999936358,0.2,0,0,AccAcc,22,18,Woman,Right,
54,4,1,1.1510469999993802,['n'],1,right,['u'],0,0.3961954999995214,0.1,0,0,AccAcc,22,18,Woman,Right,
55,4,1,1.4179377000000386,['c'],1,left,['u'],0,0.29399740000008023,0.2,0,0,AccAcc,22,18,Woman,Right,
56,4,1,1.9844726999999693,['c'],1,left,['u'],0,0.33377440000003844,0.2,0,0,AccAcc,22,18,Woman,Right,
57,4,1,1.234222299999601,['c'],1,left,['u'],0,0.305580900001587,0.2,0,0,AccAcc,22,18,Woman,Right,
58,4,1,0.8009855000000243,['n'],1,right,['u'],0,0.27981499999987136,0.4,0,0,AccAcc,22,18,Woman,Right,
59,4,1,1.434497199999896,['n'],1,right,['u'],0,0.38951429999906395,0.2,0,0,AccAcc,22,18,Woman,Right,
0,5,1,1.6169226999991224,['n'],1,right,['u'],0,1.3894923999996536,0.2,0,0,FastAcc,22,18,Woman,Right,
1,5,1,0.8181823999984772,['n'],1,right,['u'],0,0.21586919999936072,0.1,0,0,FastAcc,22,18,Woman,Right,
2,5,1,0.6344461999997293,['n'],1,right,['u'],0,0.1842427999999927,0.2,0,0,FastAcc,22,18,Woman,Right,
3,5,1,0.5850155000007362,['n'],1,right,['u'],0,0.20359309999912512,0.4,0,0,FastAcc,22,18,Woman,Right,
4,5,1,0.9661958000015147,['c'],1,left,['u'],0,0.20800629999939702,0.2,0,0,FastAcc,22,18,Woman,Right,
5,5,1,0.6328165000013541,['n'],1,right,['u'],0,0.1922985000001063,0.2,0,0,FastAcc,22,18,Woman,Right,
6,5,1,1.0502548000004026,['n'],1,right,['u'],0,0.16191780000008293,0.4,0,0,FastAcc,22,18,Woman,Right,
7,5,1,0.6680949999990844,['c'],1,left,['u'],0,0.1956437000008009,0.1,0,0,FastAcc,22,18,Woman,Right,
8,5,1,0.5518606999994518,['n'],1,right,['u'],0,0.1995277999994869,0.2,0,0,FastAcc,22,18,Woman,Right,
9,5,1,0.7499234999995679,['c'],1,left,['u'],0,0.2127598000006401,0.1,0,0,FastAcc,22,18,Woman,Right,
10,5,1,0.5828034000005573,['n'],1,right,['u'],0,0.2145607000002201,0.4,0,0,FastAcc,22,18,Woman,Right,
11,5,1,0.768015400000877,['c'],1,left,['u'],0,0.24142010000105074,0.2,0,0,FastAcc,22,18,Woman,Right,
12,5,1,0.9506251000002521,['n'],0,left,['u'],0,0.2285308000009536,0.2,1,0,FastAcc,22,18,Woman,Right,
13,5,1,1.0003398999997444,['c'],1,left,['u'],0,0.21373250000033295,0.2,0,0,FastAcc,22,18,Woman,Right,
14,5,1,2.0343377999997756,['c'],1,left,['u'],0,0.20551909999994677,0.2,0,0,FastAcc,22,18,Woman,Right,
15,5,1,0.7010170000012295,['n'],1,right,['u'],0,0.18781119999948714,0.1,0,0,FastAcc,22,18,Woman,Right,
16,5,1,0.7843106999989686,['c'],1,left,['u'],0,0.19948939999994764,0.1,0,0,FastAcc,22,18,Woman,Right,
17,5,1,0.7997912999999244,['c'],1,left,['u'],0,0.2744481999998243,0.4,0,0,FastAcc,22,18,Woman,Right,
18,5,1,0.951378100000511,['n'],1,right,['u'],0,0.27550820000033127,0.2,0,0,FastAcc,22,18,Woman,Right,
19,5,1,0.9675108999999793,['n'],1,right,['u'],0,0.1806574999991426,0.2,0,0,FastAcc,22,18,Woman,Right,
20,5,1,1.1005356000005122,['n'],1,right,['u'],0,0.21160870000130672,0.1,0,0,FastAcc,22,18,Woman,Right,
21,5,1,0.9169439999986935,['n'],1,right,['u'],0,0.28144460000112304,0.1,0,0,FastAcc,22,18,Woman,Right,
22,5,1,1.0846748000003572,['n'],0,left,['u'],0,0.22854109999934735,0.2,1,0,FastAcc,22,18,Woman,Right,
23,5,1,0.9514201000001776,['n'],0,left,['u'],0,0.24768629999925906,0.4,1,0,FastAcc,22,18,Woman,Right,
24,5,1,1.001033099999404,['n'],0,left,['u'],0,0.2640871999992669,0.4,1,0,FastAcc,22,18,Woman,Right,
25,5,1,0.567900500000178,['n'],1,right,['u'],0,0.20108910000089963,0.1,0,0,FastAcc,22,18,Woman,Right,
26,5,1,0.7666484000001219,['c'],1,left,['u'],0,0.1973842000006698,0.4,0,0,FastAcc,22,18,Woman,Right,
27,5,1,1.001292700000704,['c'],1,left,['e'],1,0.1827104000003601,0.4,1,0,FastAcc,22,18,Woman,Right,
28,5,1,0.7345122000006086,['c'],0,right,['u'],0,0.13247579999915615,0.1,1,0,FastAcc,22,18,Woman,Right,
29,5,1,2.698825699999361,['c'],1,left,['u'],0,0.6633395999997447,0.4,0,0,FastAcc,22,18,Woman,Right,
30,5,1,0.5019687000003614,['n'],1,right,['u'],0,0.31346210000083374,0.1,0,0,FastAcc,22,18,Woman,Right,
31,5,1,1.0845117999997456,['c'],0,right,['u'],0,0.25981379999939236,0.1,1,0,FastAcc,22,18,Woman,Right,
32,5,1,1.100572600000305,['n'],1,right,['u'],0,0.416014799999175,0.4,0,0,FastAcc,22,18,Woman,Right,
33,5,1,0.8990673999996943,['n'],1,right,['u'],0,0.20567540000047302,0.1,0,0,FastAcc,22,18,Woman,Right,
34,5,1,1.034389000000374,['n'],1,right,['u'],0,0.17492099999981292,0.2,0,0,FastAcc,22,18,Woman,Right,
35,5,1,1.101432899999054,['c'],1,left,['u'],0,0.23837230000026466,0.1,0,0,FastAcc,22,18,Woman,Right,
36,5,1,1.567710100000113,['n'],0,left,['u'],0,0.1687402999996266,0.1,1,0,FastAcc,22,18,Woman,Right,
37,5,1,0.7512587000001076,['n'],1,right,['u'],0,0.3583338000007643,0.4,0,0,FastAcc,22,18,Woman,Right,
38,5,1,0.9349179000000731,['c'],1,left,['e'],1,0.8054448999992019,0.4,1,0,FastAcc,22,18,Woman,Right,
39,5,1,0.6511623000005784,['n'],0,left,['e'],1,0.28564149999874644,0.1,0,0,FastAcc,22,18,Woman,Right,
40,5,1,0.8843631999989157,['n'],1,right,['e'],1,0.2735363000010693,0.4,1,0,FastAcc,22,18,Woman,Right,
41,5,1,1.267661899999439,['n'],0,left,['u'],0,0.21441630000117584,0.1,1,0,FastAcc,22,18,Woman,Right,
42,5,1,0.68566009999995,['n'],1,right,['e'],1,0.45268660000147065,0.4,1,0,FastAcc,22,18,Woman,Right,
43,5,1,0.8668706999997084,['n'],1,right,['e'],1,0.19430540000030305,0.4,1,0,FastAcc,22,18,Woman,Right,
44,5,1,1.6508305999996082,['c'],0,right,['u'],0,0.5074359999998705,0.2,1,0,FastAcc,22,18,Woman,Right,
45,5,1,1.3677802000001975,['c'],1,left,['u'],0,0.2430597000002308,0.2,0,0,FastAcc,22,18,Woman,Right,
46,5,1,1.1343367999998009,['c'],1,left,['u'],0,0.22275099999933445,0.2,0,0,FastAcc,22,18,Woman,Right,
47,5,1,0.6336460999991687,['n'],1,right,['u'],0,0.36707039999964763,0.2,0,0,FastAcc,22,18,Woman,Right,
48,5,1,1.1507034999995085,['c'],1,left,['e'],1,0.7727403999997478,0.4,1,0,FastAcc,22,18,Woman,Right,
49,5,1,0.5842074000011053,['n'],1,right,['u'],0,0.22501520000150776,0.2,0,0,FastAcc,22,18,Woman,Right,
50,5,1,0.9842294999998558,['n'],1,right,['u'],0,0.2754577000014251,0.1,0,0,FastAcc,22,18,Woman,Right,
51,5,1,1.0670479000000341,['n'],0,left,['u'],0,0.2243336999999883,0.2,1,0,FastAcc,22,18,Woman,Right,
52,5,1,1.218003799998769,['c'],1,left,['u'],0,0.3134827000012592,0.4,0,0,FastAcc,22,18,Woman,Right,
53,5,1,1.2683266000003641,['n'],0,left,['u'],0,0.2046661000003951,0.2,1,0,FastAcc,22,18,Woman,Right,
54,5,1,0.7678285000001779,['n'],1,right,['e'],1,0.3606672999994771,0.4,1,0,FastAcc,22,18,Woman,Right,
55,5,1,0.8847132999999303,['n'],1,right,['e'],1,0.24895490000017162,0.1,1,0,FastAcc,22,18,Woman,Right,
56,5,1,0.717758100001447,['n'],0,left,['e'],1,0.21244630000001052,0.4,0,0,FastAcc,22,18,Woman,Right,
57,5,1,1.7677268999996159,['n'],0,left,['e'],1,0.2637068999993062,0.1,0,0,FastAcc,22,18,Woman,Right,
58,5,1,1.3345467999988614,['n'],0,left,['e'],1,0.20182260000001406,0.1,0,0,FastAcc,22,18,Woman,Right,
59,5,1,1.134487799999988,['c'],1,left,['e'],1,0.29516420000072685,0.4,1,0,FastAcc,22,18,Woman,Right,
0,6,1,1.4167539999998553,['n'],0,left,['u'],0,0.22374470000067959,0.4,1,0,FastFast,22,18,Woman,Right,
1,6,1,1.0678444000004674,['n'],0,left,['u'],0,0.22248159999981,0.1,1,0,FastFast,22,18,Woman,Right,
2,6,1,0.917550599999231,['n'],1,right,['u'],0,0.3554732000011427,0.2,0,0,FastFast,22,18,Woman,Right,
3,6,1,1.2679394999995566,['n'],0,left,['u'],0,0.2450924999993731,0.4,1,0,FastFast,22,18,Woman,Right,
4,6,1,0.8169700999987981,['n'],1,right,['u'],0,0.3008188000003429,0.4,0,0,FastFast,22,18,Woman,Right,
5,6,1,1.3167166999992332,['n'],0,left,['e'],1,0.47843120000106865,0.2,0,0,FastFast,22,18,Woman,Right,
6,6,1,1.201326099999278,['n'],1,right,['u'],0,0.23823759999868344,0.1,0,0,FastFast,22,18,Woman,Right,
7,6,1,1.0178352999992057,['c'],0,right,['u'],0,0.5579470000011497,0.1,1,0,FastFast,22,18,Woman,Right,
8,6,1,1.667649999999412,['n'],1,right,['u'],0,0.29554989999996906,0.1,0,0,FastFast,22,18,Woman,Right,
9,6,1,1.1827847000004112,['n'],0,left,['u'],0,0.19125629999871308,0.1,1,0,FastFast,22,18,Woman,Right,
10,6,1,0.9012617999997019,['n'],0,left,['u'],0,0.1974731000009342,0.1,1,0,FastFast,22,18,Woman,Right,
11,6,1,0.5343106000000262,['n'],1,right,['e'],1,0.4265350000005128,0.1,1,0,FastFast,22,18,Woman,Right,
12,6,1,0.6845145999996021,['n'],0,left,['e'],1,0.32082489999993413,0.2,0,0,FastFast,22,18,Woman,Right,
13,6,1,0.801410300000498,['n'],1,right,['e'],1,0.1664232000002812,0.4,1,0,FastFast,22,18,Woman,Right,
14,6,1,1.084200300001612,['c'],1,left,['u'],0,0.26280120000046736,0.4,0,0,FastFast,22,18,Woman,Right,
15,6,1,0.7506033999998181,['n'],1,right,['u'],0,0.49642300000050454,0.1,0,0,FastFast,22,18,Woman,Right,
16,6,1,1.599903300000733,['n'],0,left,['u'],0,0.19138369999927818,0.1,1,0,FastFast,22,18,Woman,Right,
17,6,1,0.5839835000006133,['n'],0,left,['u'],0,0.19453770000109216,0.2,1,0,FastFast,22,18,Woman,Right,
18,6,1,0.9996348000004218,['c'],1,left,['u'],0,0.1661465999986831,0.4,0,0,FastFast,22,18,Woman,Right,
19,6,1,1.0509142000009888,['n'],0,left,['u'],0,0.21500800000103482,0.2,1,0,FastFast,22,18,Woman,Right,
20,6,1,1.1846042000015586,['n'],0,left,['u'],0,0.24138369999855058,0.1,1,0,FastFast,22,18,Woman,Right,
21,6,1,0.6845377000008739,['n'],1,right,['u'],0,0.19073570000000473,0.4,0,0,FastFast,22,18,Woman,Right,
22,6,1,1.016461100000015,['c'],0,right,['u'],0,0.21059890000105952,0.1,1,0,FastFast,22,18,Woman,Right,
23,6,1,0.834429700000328,['c'],1,left,['u'],0,0.2664723000016238,0.4,0,0,FastFast,22,18,Woman,Right,
24,6,1,0.7503603000004659,['n'],1,right,['u'],0,0.22773380000035104,0.2,0,0,FastFast,22,18,Woman,Right,
25,6,1,0.7009600000001228,['n'],1,right,['u'],0,0.20930480000060925,0.2,0,0,FastFast,22,18,Woman,Right,
26,6,1,0.950695800000176,['n'],0,left,['u'],0,0.23047890000088955,0.2,1,0,FastFast,22,18,Woman,Right,
27,6,1,1.2330982000003132,['n'],1,right,['u'],0,0.15790109999943525,0.2,0,0,FastFast,22,18,Woman,Right,
28,6,1,0.8010715000000346,['n'],1,right,['u'],0,0.21766240000033577,0.4,0,0,FastFast,22,18,Woman,Right,
29,6,1,0.7662452999993548,['n'],1,right,['u'],0,0.24547100000017963,0.4,0,0,FastFast,22,18,Woman,Right,
30,6,1,1.0517335000004095,['n'],0,left,['u'],0,0.1796433999988949,0.2,1,0,FastFast,22,18,Woman,Right,
31,6,1,1.2512652999994316,['c'],1,left,['u'],0,0.22083269999893673,0.2,0,0,FastFast,22,18,Woman,Right,
32,6,1,0.9013885000003938,['c'],1,left,['u'],0,0.22702539999954752,0.4,0,0,FastFast,22,18,Woman,Right,
33,6,1,1.8010721000009653,['n'],0,left,['u'],0,0.17994539999926928,0.1,1,0,FastFast,22,18,Woman,Right,
34,6,1,0.8172431000002689,['c'],1,left,['u'],0,0.19035450000046694,0.4,0,0,FastFast,22,18,Woman,Right,
35,6,1,0.7844050000003335,['n'],0,left,['u'],0,0.28216489999977057,0.1,1,0,FastFast,22,18,Woman,Right,
36,6,1,1.0328931999993074,['c'],1,left,['u'],0,0.2162265999995725,0.2,0,0,FastFast,22,18,Woman,Right,
37,6,1,0.8010854000003746,['n'],1,right,['u'],0,0.2090548000014678,0.4,0,0,FastFast,22,18,Woman,Right,
38,6,1,0.8330581999998685,['n'],1,right,['u'],0,0.21915199999966717,0.2,0,0,FastFast,22,18,Woman,Right,
39,6,1,0.8343707999993057,['c'],1,left,['u'],0,0.22656019999885757,0.4,0,0,FastFast,22,18,Woman,Right,
40,6,1,0.5176790000004985,['n'],1,right,['u'],0,0.3602745000007417,0.2,0,0,FastFast,22,18,Woman,Right,
41,6,1,0.8681300999996893,['n'],1,right,['u'],0,0.23314690000006522,0.4,0,0,FastFast,22,18,Woman,Right,
42,6,1,1.016799600000013,['n'],1,right,['u'],0,0.24954020000041055,0.1,0,0,FastFast,22,18,Woman,Right,
43,6,1,0.7176577999998699,['n'],1,right,['u'],0,0.19711639999877661,0.1,0,0,FastFast,22,18,Woman,Right,
44,6,1,0.8844423000009556,['n'],1,right,['u'],0,0.5238276000000042,0.1,0,0,FastFast,22,18,Woman,Right,
45,6,1,0.8167216000001645,['n'],1,right,['u'],0,0.20108240000081423,0.2,0,0,FastFast,22,18,Woman,Right,
46,6,1,0.7343474999997852,['n'],1,right,['u'],0,0.19792919999963487,0.2,0,0,FastFast,22,18,Woman,Right,
47,6,1,1.001235200001247,['n'],0,left,['u'],0,0.2480306000015844,0.2,1,0,FastFast,22,18,Woman,Right,
48,6,1,0.5672174000010273,['n'],1,right,['u'],0,0.16978259999996226,0.4,0,0,FastFast,22,18,Woman,Right,
49,6,1,0.5671498000010615,['n'],0,left,['u'],0,0.1755303999998432,0.2,1,0,FastFast,22,18,Woman,Right,
50,6,1,0.9510251000010612,['n'],0,left,['u'],0,0.1806629000002431,0.2,1,0,FastFast,22,18,Woman,Right,
51,6,1,0.7340339000002132,['n'],1,right,['u'],0,0.2101357999999891,0.4,0,0,FastFast,22,18,Woman,Right,
52,6,1,0.7332756000014342,['n'],0,left,['u'],0,0.38358549999975367,0.4,1,0,FastFast,22,18,Woman,Right,
53,6,1,0.9843066000012186,['n'],0,left,['u'],0,0.2026389000002382,0.2,1,0,FastFast,22,18,Woman,Right,
54,6,1,1.2843972999999096,['n'],0,left,['u'],0,0.19363899999916612,0.1,1,0,FastFast,22,18,Woman,Right,
55,6,1,0.9017907000015839,['n'],1,right,['u'],0,0.2488087000001542,0.1,0,0,FastFast,22,18,Woman,Right,
56,6,1,0.9002523999988625,['n'],0,left,['u'],0,0.25351900000168825,0.4,1,0,FastFast,22,18,Woman,Right,
57,6,1,1.1340362999999343,['n'],1,right,['u'],0,0.2478147000001627,0.1,0,0,FastFast,22,18,Woman,Right,
58,6,1,1.1679015000008803,['n'],1,right,['u'],0,0.1774411999995209,0.1,0,0,FastFast,22,18,Woman,Right,
59,6,1,0.9349817000002076,['n'],1,right,['u'],0,0.20020019999901706,0.4,0,0,FastFast,22,18,Woman,Right,
0,7,1,2.48330309999983,['n'],1,right,['u'],0,0.5938763000012841,0.2,0,0,AccFast,22,18,Woman,Right,
1,7,1,2.5842246000011073,['n'],1,right,['u'],0,0.43746939999982715,0.1,0,0,AccFast,22,18,Woman,Right,
2,7,1,1.0010199999996985,['n'],1,right,['u'],0,0.33448259999931906,0.1,0,0,AccFast,22,18,Woman,Right,
3,7,1,1.1510336999999708,['n'],1,right,['u'],0,0.13386569999966014,0.4,0,0,AccFast,22,18,Woman,Right,
4,7,1,2.450528499999564,['c'],0,right,['u'],0,0.1923958000006678,0.1,1,0,AccFast,22,18,Woman,Right,
5,7,1,0.7514206000014383,['n'],1,right,['u'],0,0.14135060000080557,0.4,0,0,AccFast,22,18,Woman,Right,
6,7,1,0.9181762000007438,['n'],0,left,['u'],0,0.16605079999862937,0.1,1,0,AccFast,22,18,Woman,Right,
7,7,1,0.9344230999995489,['n'],0,left,['u'],0,0.1879205000004731,0.1,1,0,AccFast,22,18,Woman,Right,
8,7,1,0.7175198000004457,['n'],1,right,['u'],0,0.5225274999993417,0.2,0,0,AccFast,22,18,Woman,Right,
9,7,1,0.9505988000000798,['n'],1,right,['u'],0,0.13015810000069905,0.2,0,0,AccFast,22,18,Woman,Right,
10,7,1,0.9511440000005678,['n'],1,right,['u'],0,0.13711229999898933,0.4,0,0,AccFast,22,18,Woman,Right,
11,7,1,1.3834685999991052,['n'],0,left,['u'],0,0.35076459999982035,0.1,1,0,AccFast,22,18,Woman,Right,
12,7,1,0.8511373000001186,['n'],1,right,['u'],0,0.19296199999917008,0.2,0,0,AccFast,22,18,Woman,Right,
13,7,1,0.8179640999987896,['n'],0,left,['u'],0,0.23533349999888742,0.1,1,0,AccFast,22,18,Woman,Right,
14,7,1,1.11704490000011,['n'],1,right,['u'],0,0.2001109999982873,0.2,0,0,AccFast,22,18,Woman,Right,
15,7,1,1.117598300001191,['n'],1,right,['u'],0,0.13351020000118297,0.1,0,0,AccFast,22,18,Woman,Right,
16,7,1,1.6497103000001516,['c'],1,left,['u'],0,0.16038119999939227,0.2,0,0,AccFast,22,18,Woman,Right,
17,7,1,0.43453390000104264,['c'],0,right,['u'],0,0.18726820000119915,0.2,1,0,AccFast,22,18,Woman,Right,
18,7,1,0.33396429999993416,['c'],0,right,['u'],0,0.18464630000016768,0.2,1,0,AccFast,22,18,Woman,Right,
19,7,1,0.33449540000037814,['n'],0,left,['u'],0,0.18221970000013243,0.4,1,0,AccFast,22,18,Woman,Right,
20,7,1,0.4333145999989938,['n'],0,left,['u'],0,0.22400369999922987,0.1,1,0,AccFast,22,18,Woman,Right,
21,7,1,0.6173199000004388,['n'],1,right,['u'],0,0.16102139999929932,0.4,0,0,AccFast,22,18,Woman,Right,
22,7,1,1.0831101999992825,['n'],0,left,['u'],0,0.1298000000006141,0.1,1,0,AccFast,22,18,Woman,Right,
23,7,1,1.4346330000007583,['c'],1,left,['u'],0,0.10155289999966044,0.2,0,0,AccFast,22,18,Woman,Right,
24,7,1,0.8011502000008477,['n'],1,right,['u'],0,0.13174760000038077,0.4,0,0,AccFast,22,18,Woman,Right,
25,7,1,1.201361800000086,['c'],1,left,['u'],0,0.14467289999993227,0.2,0,0,AccFast,22,18,Woman,Right,
26,7,1,0.9678112999990844,['c'],1,left,['u'],0,0.16710020000027725,0.4,0,0,AccFast,22,18,Woman,Right,
27,7,1,0.9510855000007723,['c'],1,left,['u'],0,0.1728318000004947,0.1,0,0,AccFast,22,18,Woman,Right,
28,7,1,0.7502307000013388,['n'],1,right,['u'],0,0.1544212000007974,0.4,0,0,AccFast,22,18,Woman,Right,
29,7,1,0.6682354999993549,['c'],1,left,['u'],0,0.15602009999929578,0.4,0,0,AccFast,22,18,Woman,Right,
30,7,1,1.101516000000629,['n'],0,left,['u'],0,0.14026680000097258,0.2,1,0,AccFast,22,18,Woman,Right,
31,7,1,0.9008490999985952,['c'],1,left,['u'],0,0.35720729999957257,0.1,0,0,AccFast,22,18,Woman,Right,
32,7,1,0.7184722000001784,['c'],1,left,['u'],0,0.20516630000020086,0.1,0,0,AccFast,22,18,Woman,Right,
33,7,1,0.7346543000003294,['n'],1,right,['u'],0,0.18579490000047372,0.4,0,0,AccFast,22,18,Woman,Right,
34,7,1,0.7834075000009761,['n'],1,right,['u'],0,0.16614939999999478,0.4,0,0,AccFast,22,18,Woman,Right,
35,7,1,1.1986054999997577,['c'],1,left,['u'],0,0.1625540999993973,0.2,0,0,AccFast,22,18,Woman,Right,
36,7,1,0.8509993999996368,['n'],1,right,['u'],0,0.20328759999938484,0.4,0,0,AccFast,22,18,Woman,Right,
37,7,1,0.8512741000013193,['n'],1,right,['u'],0,0.14779659999840078,0.4,0,0,AccFast,22,18,Woman,Right,
38,7,1,1.6170154999999795,['c'],1,left,['u'],0,0.15948440000101982,0.1,0,0,AccFast,22,18,Woman,Right,
39,7,1,0.7172478000011324,['n'],1,right,['u'],0,0.1592335000004823,0.2,0,0,AccFast,22,18,Woman,Right,
40,7,1,1.2676093999998557,['n'],1,right,['u'],0,0.18470370000068215,0.2,0,0,AccFast,22,18,Woman,Right,
41,7,1,0.9849214999994729,['c'],1,left,['u'],0,0.20449159999952826,0.2,0,0,AccFast,22,18,Woman,Right,
42,7,1,0.8510220999996818,['c'],1,left,['u'],0,0.19671419999940554,0.4,0,0,AccFast,22,18,Woman,Right,
43,7,1,0.9669841999984783,['c'],1,left,['u'],0,0.24840579999909096,0.1,0,0,AccFast,22,18,Woman,Right,
44,7,1,0.9183123000002524,['n'],1,right,['u'],0,0.2367142999992211,0.2,0,0,AccFast,22,18,Woman,Right,
45,7,1,0.9338616999993974,['c'],1,left,['u'],0,0.19172230000003765,0.4,0,0,AccFast,22,18,Woman,Right,
46,7,1,0.9013058000000456,['c'],1,left,['u'],0,0.19863059999988764,0.2,0,0,AccFast,22,18,Woman,Right,
47,7,1,0.8674100999996881,['c'],1,left,['u'],0,0.2063722000002599,0.1,0,0,AccFast,22,18,Woman,Right,
48,7,1,1.0503897999988112,['n'],1,right,['u'],0,0.23882839999896532,0.1,0,0,AccFast,22,18,Woman,Right,
49,7,1,0.6848508000002766,['n'],1,right,['u'],0,0.20416239999940444,0.1,0,0,AccFast,22,18,Woman,Right,
50,7,1,1.1340827999993053,['c'],1,left,['u'],0,0.28099099999963073,0.1,0,0,AccFast,22,18,Woman,Right,
51,7,1,1.099922699999297,['n'],0,left,['u'],0,0.16486869999971532,0.1,1,0,AccFast,22,18,Woman,Right,
52,7,1,0.7340590999992855,['c'],0,right,['u'],0,0.4823586000002251,0.2,1,0,AccFast,22,18,Woman,Right,
53,7,1,1.4174212999987503,['n'],1,right,['u'],0,0.2007131999998819,0.2,0,0,AccFast,22,18,Woman,Right,
54,7,1,0.7334451000006084,['c'],1,left,['u'],0,0.18231500000001688,0.4,0,0,AccFast,22,18,Woman,Right,
55,7,1,1.4842969000001176,['c'],1,left,['u'],0,0.16546139999991283,0.2,0,0,AccFast,22,18,Woman,Right,
56,7,1,2.367637900000773,['n'],0,left,['u'],0,0.13086010000006354,0.4,1,0,AccFast,22,18,Woman,Right,
57,7,1,1.1844276000010723,['n'],1,right,['u'],0,0.11233779999929538,0.4,0,0,AccFast,22,18,Woman,Right,
58,7,1,0.7003930000009859,['n'],1,right,['u'],0,0.14610739999989164,0.4,0,0,AccFast,22,18,Woman,Right,
59,7,1,0.7340344999993249,['c'],1,left,['u'],0,0.16093580000051588,0.4,0,0,AccFast,22,18,Woman,Right,
0,8,1,0.8171170000005077,['n'],1,right,['u'],0,0.12654400000064925,0.4,0,0,AccAcc,22,18,Woman,Right,
1,8,1,1.1351912999998603,['n'],1,right,['u'],0,0.17542479999974603,0.1,0,0,AccAcc,22,18,Woman,Right,
2,8,1,0.6345391000013478,['n'],1,right,['u'],0,0.1128791999999521,0.4,0,0,AccAcc,22,18,Woman,Right,
3,8,1,0.8513760999994702,['n'],1,right,['u'],0,0.12532170000122278,0.1,0,0,AccAcc,22,18,Woman,Right,
4,8,1,0.9847714999996242,['n'],0,left,['u'],0,0.3389181999991706,0.1,1,0,AccAcc,22,18,Woman,Right,
5,8,1,1.3020373999988806,['n'],1,right,['u'],0,0.13174249999974563,0.2,0,0,AccAcc,22,18,Woman,Right,
6,8,1,1.0180139000003692,['n'],0,left,['u'],0,0.10407940000004601,0.4,1,0,AccAcc,22,18,Woman,Right,
7,8,1,0.6013827000006131,['n'],1,right,['u'],0,0.12664610000138055,0.4,0,0,AccAcc,22,18,Woman,Right,
8,8,1,0.7833510999989812,['c'],1,left,['e'],1,0.23675770000045304,0.2,1,0,AccAcc,22,18,Woman,Right,
9,8,1,0.7994493000005605,['c'],1,left,['e'],1,0.19908219999888388,0.2,1,0,AccAcc,22,18,Woman,Right,
10,8,1,2.5853485999996337,['c'],0,right,['u'],0,0.08928910000031465,0.1,1,0,AccAcc,22,18,Woman,Right,
11,8,1,0.6504767000005813,['c'],1,left,['u'],0,0.17403809999996156,0.4,0,0,AccAcc,22,18,Woman,Right,
12,8,1,1.8330165999996098,['n'],0,left,['u'],0,0.14406119999875955,0.2,1,0,AccAcc,22,18,Woman,Right,
13,8,1,1.8342702000009012,['c'],1,left,['u'],0,0.7401781999997183,0.4,0,0,AccAcc,22,18,Woman,Right,
14,8,1,0.58434859999943,['n'],1,right,['e'],1,0.22646900000108872,0.4,1,0,AccAcc,22,18,Woman,Right,
15,8,1,1.7014650000000984,['n'],1,right,['e'],1,0.18324589999974705,0.2,1,0,AccAcc,22,18,Woman,Right,
16,8,1,1.666710100000273,['c'],1,left,['u'],0,0.2558366000012029,0.2,0,0,AccAcc,22,18,Woman,Right,
17,8,1,0.8680033000000549,['c'],1,left,['u'],0,0.16521520000060264,0.1,0,0,AccAcc,22,18,Woman,Right,
18,8,1,1.4506215000001248,['c'],1,left,['u'],0,0.215762600000744,0.2,0,0,AccAcc,22,18,Woman,Right,
19,8,1,1.134282399998483,['n'],1,right,['e'],1,0.24356629999965662,0.2,1,0,AccAcc,22,18,Woman,Right,
20,8,1,1.0013248000013846,['n'],1,right,['e'],1,0.26051819999884174,0.2,1,0,AccAcc,22,18,Woman,Right,
21,8,1,1.2509506000005786,['c'],0,right,['u'],0,0.28287619999900926,0.1,1,0,AccAcc,22,18,Woman,Right,
22,8,1,0.8184258999990561,['c'],1,left,['u'],0,0.2892340999987937,0.4,0,0,AccAcc,22,18,Woman,Right,
23,8,1,0.918183499999941,['n'],1,right,['u'],0,0.24359389999881387,0.2,0,0,AccAcc,22,18,Woman,Right,
24,8,1,1.2346373000000312,['c'],1,left,['u'],0,0.23513500000080967,0.1,0,0,AccAcc,22,18,Woman,Right,
25,8,1,1.0510657000013452,['n'],0,left,['e'],1,0.2500006999998732,0.4,0,0,AccAcc,22,18,Woman,Right,
26,8,1,1.1016477000011946,['c'],0,right,['u'],0,0.2624548000003415,0.2,1,0,AccAcc,22,18,Woman,Right,
27,8,1,0.9677515999992465,['n'],0,left,['e'],1,0.24744549999923038,0.1,0,0,AccAcc,22,18,Woman,Right,
28,8,1,1.3498777999993763,['n'],1,right,['u'],0,0.1863959000002069,0.2,0,0,AccAcc,22,18,Woman,Right,
29,8,1,0.8677607999998145,['n'],1,right,['e'],1,0.4502224000007118,0.4,1,0,AccAcc,22,18,Woman,Right,
30,8,1,0.9005343999997422,['n'],1,right,['e'],1,0.20624150000003283,0.2,1,0,AccAcc,22,18,Woman,Right,
31,8,1,0.9347336999999243,['c'],1,left,['e'],1,0.35543719999986934,0.4,1,0,AccAcc,22,18,Woman,Right,
32,8,1,1.0320304999986547,['n'],1,right,['u'],0,0.22329239999999118,0.2,0,0,AccAcc,22,18,Woman,Right,
33,8,1,1.4505810999999085,['n'],0,left,['u'],0,0.3665798000001814,0.1,1,0,AccAcc,22,18,Woman,Right,
34,8,1,1.3345024999998714,['c'],0,right,['u'],0,0.380670900000041,0.1,1,0,AccAcc,22,18,Woman,Right,
35,8,1,0.8658947000003536,['n'],1,right,['u'],0,0.1740432000005967,0.2,0,0,AccAcc,22,18,Woman,Right,
36,8,1,0.6843631000010646,['n'],1,right,['u'],0,0.12497679999978573,0.4,0,0,AccAcc,22,18,Woman,Right,
37,8,1,0.8007268000001204,['n'],1,right,['u'],0,0.2027338999996573,0.4,0,0,AccAcc,22,18,Woman,Right,
38,8,1,0.8177519000000757,['n'],1,right,['u'],0,0.21211829999992915,0.4,0,0,AccAcc,22,18,Woman,Right,
39,8,1,1.3511621999987256,['n'],0,left,['u'],0,0.16784790000019711,0.2,1,0,AccAcc,22,18,Woman,Right,
40,8,1,0.9169443999999203,['n'],0,left,['u'],0,0.3507930999985547,0.1,1,0,AccAcc,22,18,Woman,Right,
41,8,1,0.8505181999989873,['n'],1,right,['u'],0,0.33733549999851675,0.2,0,0,AccAcc,22,18,Woman,Right,
42,8,1,0.8842413000002125,['n'],0,left,['u'],0,0.17895519999910903,0.1,1,0,AccAcc,22,18,Woman,Right,
43,8,1,0.7328871999998228,['n'],0,left,['u'],0,0.17671469999913825,0.1,1,0,AccAcc,22,18,Woman,Right,
44,8,1,0.9514404000001377,['n'],1,right,['u'],0,0.21407779999935883,0.1,0,0,AccAcc,22,18,Woman,Right,
45,8,1,0.7342845000002853,['n'],0,left,['u'],0,0.35456449999946926,0.4,1,0,AccAcc,22,18,Woman,Right,
46,8,1,0.8348605999999563,['n'],0,left,['u'],0,0.14918000000034226,0.4,1,0,AccAcc,22,18,Woman,Right,
47,8,1,0.717754799999966,['n'],1,right,['u'],0,0.24560180000116816,0.4,0,0,AccAcc,22,18,Woman,Right,
48,8,1,1.0845399999998335,['n'],0,left,['u'],0,0.2106844000009005,0.1,1,0,AccAcc,22,18,Woman,Right,
49,8,1,0.7675693999990472,['n'],0,left,['u'],0,0.1425152000010712,0.1,1,0,AccAcc,22,18,Woman,Right,
50,8,1,0.8348107999991043,['n'],1,right,['u'],0,0.345965200000137,0.2,0,0,AccAcc,22,18,Woman,Right,
51,8,1,0.7012572999992699,['n'],0,left,['u'],0,0.16251999999985856,0.1,1,0,AccAcc,22,18,Woman,Right,
52,8,1,0.8511065000002418,['n'],0,left,['u'],0,0.315690800000084,0.1,1,0,AccAcc,22,18,Woman,Right,
53,8,1,1.0005053999993834,['n'],1,right,['u'],0,0.441547399999763,0.2,0,0,AccAcc,22,18,Woman,Right,
54,8,1,1.2848511000011058,['n'],0,left,['u'],0,0.31131660000028205,0.1,1,0,AccAcc,22,18,Woman,Right,
55,8,1,1.9175893999999971,['c'],1,left,['u'],0,0.1775526000001264,0.4,0,0,AccAcc,22,18,Woman,Right,
56,8,1,0.8518536999999924,['c'],1,left,['u'],0,0.21872309999889694,0.4,0,0,AccAcc,22,18,Woman,Right,
57,8,1,1.1505858000000444,['c'],1,left,['u'],0,0.2781914000006509,0.4,0,0,AccAcc,22,18,Woman,Right,
58,8,1,2.601704000000609,['n'],1,right,['u'],0,0.18184629999996105,0.2,0,0,AccAcc,22,18,Woman,Right,
59,8,1,1.2172983000000386,['n'],1,right,['u'],0,0.2404077999999572,0.1,0,0,AccAcc,22,18,Woman,Right,
0,9,1,1.2836463000003278,['n'],0,left,['u'],0,0.49044340000000375,0.2,1,0,FastAcc,22,18,Woman,Right,
1,9,1,0.26797740000074555,['n'],0,left,['u'],0,0.09491840000009688,0.4,1,0,FastAcc,22,18,Woman,Right,
2,9,1,0.8516655999992508,['c'],1,left,['u'],0,0.07575880000149482,0.1,0,0,FastAcc,22,18,Woman,Right,
3,9,1,0.46760489999905985,['n'],1,right,['u'],0,0.10454860000027111,0.1,0,0,FastAcc,22,18,Woman,Right,
4,9,1,0.6004295000002458,['c'],1,left,['u'],0,0.09468440000091505,0.4,0,0,FastAcc,22,18,Woman,Right,
5,9,1,0.5345166000006429,['n'],0,left,['u'],0,0.10450049999963085,0.2,1,0,FastAcc,22,18,Woman,Right,
6,9,1,0.45127119999960996,['c'],1,left,['u'],0,0.11636910000015632,0.4,0,0,FastAcc,22,18,Woman,Right,
7,9,1,0.4835196000003634,['n'],0,left,['u'],0,0.142777400000341,0.2,1,0,FastAcc,22,18,Woman,Right,
8,9,1,0.4999143999993976,['n'],1,right,['u'],0,0.104409300000043,0.4,0,0,FastAcc,22,18,Woman,Right,
9,9,1,0.9846901000000798,['c'],1,left,['u'],0,0.1586725999986811,0.1,0,0,FastAcc,22,18,Woman,Right,
10,9,1,0.5009073000001081,['n'],1,right,['u'],0,0.10326239999994868,0.4,0,0,FastAcc,22,18,Woman,Right,
11,9,1,0.5666971999999078,['n'],1,right,['u'],0,0.11071059999994759,0.2,0,0,FastAcc,22,18,Woman,Right,
12,9,1,0.4499636000000464,['n'],0,left,['u'],0,0.12343139999939012,0.4,1,0,FastAcc,22,18,Woman,Right,
13,9,1,0.9511711000013747,['n'],0,left,['u'],0,0.16225819999999658,0.2,1,0,FastAcc,22,18,Woman,Right,
14,9,1,0.4852688000009948,['n'],0,left,['u'],0,0.12286910000148055,0.4,1,0,FastAcc,22,18,Woman,Right,
15,9,1,0.5676089999997203,['n'],1,right,['u'],0,0.11355440000079398,0.2,0,0,FastAcc,22,18,Woman,Right,
16,9,1,0.7346666000012192,['c'],1,left,['u'],0,0.11358409999957075,0.2,0,0,FastAcc,22,18,Woman,Right,
17,9,1,0.39949109999906796,['n'],0,left,['u'],0,0.0795152999999118,0.1,1,0,FastAcc,22,18,Woman,Right,
18,9,1,0.43472770000153105,['n'],1,right,['u'],0,0.1255395000007411,0.1,0,0,FastAcc,22,18,Woman,Right,
19,9,1,0.784385700000712,['n'],1,right,['u'],0,0.05965420000029553,0.1,0,0,FastAcc,22,18,Woman,Right,
20,9,1,1.8835448999998334,['c'],1,left,['u'],0,0.0807199999999284,0.2,0,0,FastAcc,22,18,Woman,Right,
21,9,1,0.5845200000003388,['c'],1,left,['u'],0,0.15189379999901576,0.1,0,0,FastAcc,22,18,Woman,Right,
22,9,1,0.9846790999999939,['n'],0,left,['u'],0,0.12523909999981697,0.2,1,0,FastAcc,22,18,Woman,Right,
23,9,1,0.5343231999995623,['n'],1,right,['u'],0,0.10097350000069127,0.1,0,0,FastAcc,22,18,Woman,Right,
24,9,1,0.5503026000005775,['n'],1,right,['u'],0,0.10967379999965488,0.4,0,0,FastAcc,22,18,Woman,Right,
25,9,1,0.5681069000002026,['n'],1,right,['u'],0,0.11717809999936435,0.2,0,0,FastAcc,22,18,Woman,Right,
26,9,1,0.5164808999998058,['n'],0,left,['u'],0,0.12652909999997064,0.1,1,0,FastAcc,22,18,Woman,Right,
27,9,1,0.8677164999990055,['n'],0,left,['u'],0,0.0728369999997085,0.2,1,0,FastAcc,22,18,Woman,Right,
28,9,1,0.5347696000008,['n'],1,right,['u'],0,0.13105369999902905,0.1,0,0,FastAcc,22,18,Woman,Right,
29,9,1,0.4345984000010503,['n'],1,right,['u'],0,0.1747352000002138,0.2,0,0,FastAcc,22,18,Woman,Right,
30,9,1,0.6345708999997441,['c'],1,left,['e'],1,0.09723780000058468,0.4,1,0,FastAcc,22,18,Woman,Right,
31,9,1,0.4507004999995843,['n'],1,right,['u'],0,0.06152920000022277,0.4,0,0,FastAcc,22,18,Woman,Right,
32,9,1,0.6012267000005522,['n'],1,right,['u'],0,0.06966639999882318,0.2,0,0,FastAcc,22,18,Woman,Right,
33,9,1,0.6677916999997251,['c'],1,left,['u'],0,0.12236660000053234,0.1,0,0,FastAcc,22,18,Woman,Right,
34,9,1,0.5012590999995155,['n'],1,right,['u'],0,0.11568439999973634,0.1,0,0,FastAcc,22,18,Woman,Right,
35,9,1,0.6346100000009756,['n'],1,right,['u'],0,0.08822820000023057,0.2,0,0,FastAcc,22,18,Woman,Right,
36,9,1,0.7004094000003533,['n'],1,right,['u'],0,0.10718599999927392,0.1,0,0,FastAcc,22,18,Woman,Right,
37,9,1,1.2161115999988397,['n'],0,left,['u'],0,0.0895353999985673,0.4,1,0,FastAcc,22,18,Woman,Right,
38,9,1,0.6344755999998597,['n'],1,right,['u'],0,0.11026730000048701,0.4,0,0,FastAcc,22,18,Woman,Right,
39,9,1,0.717114600000059,['n'],1,right,['u'],0,0.1280920999997761,0.2,0,0,FastAcc,22,18,Woman,Right,
40,9,1,0.5515669000014896,['n'],1,right,['u'],0,0.08747169999878679,0.4,0,0,FastAcc,22,18,Woman,Right,
41,9,1,1.1351314000003185,['n'],0,left,['u'],0,0.20124290000057954,0.2,1,0,FastAcc,22,18,Woman,Right,
42,9,1,0.5670788000006723,['n'],1,right,['u'],0,0.09269360000143934,0.2,0,0,FastAcc,22,18,Woman,Right,
43,9,1,0.46784130000014557,['n'],1,right,['u'],0,0.10495009999976901,0.1,0,0,FastAcc,22,18,Woman,Right,
44,9,1,0.5503778000002058,['n'],0,left,['u'],0,0.09737920000043232,0.2,1,0,FastAcc,22,18,Woman,Right,
45,9,1,0.5509693000003608,['n'],0,left,['u'],0,0.13750289999916276,0.1,1,0,FastAcc,22,18,Woman,Right,
46,9,1,0.5495984999997745,['n'],1,right,['u'],0,0.12962399999923946,0.4,0,0,FastAcc,22,18,Woman,Right,
47,9,1,0.5851927000003343,['n'],1,right,['u'],0,0.11920409999947879,0.4,0,0,FastAcc,22,18,Woman,Right,
48,9,1,0.534477599998354,['n'],1,right,['u'],0,0.14281579999988026,0.4,0,0,FastAcc,22,18,Woman,Right,
49,9,1,0.6006362000007357,['n'],1,right,['u'],0,0.27519610000126704,0.1,0,0,FastAcc,22,18,Woman,Right,
50,9,1,0.9345185000001948,['n'],0,left,['u'],0,0.08538419999968028,0.1,1,0,FastAcc,22,18,Woman,Right,
51,9,1,0.6000604999990173,['n'],1,right,['u'],0,0.07653150000078313,0.4,0,0,FastAcc,22,18,Woman,Right,
52,9,1,0.9013906000000134,['n'],0,left,['u'],0,0.1685481999993499,0.1,1,0,FastAcc,22,18,Woman,Right,
53,9,1,0.5168229999999312,['n'],1,right,['u'],0,0.09503200000108336,0.4,0,0,FastAcc,22,18,Woman,Right,
54,9,1,0.9167067999987921,['n'],0,left,['u'],0,0.10485909999988507,0.2,1,0,FastAcc,22,18,Woman,Right,
55,9,1,0.8511151000002428,['n'],1,right,['u'],0,0.1489400000009482,0.1,0,0,FastAcc,22,18,Woman,Right,
56,9,1,0.5155049999993935,['n'],1,right,['u'],0,0.12550459999874874,0.2,0,0,FastAcc,22,18,Woman,Right,
57,9,1,1.0004484000000957,['n'],0,left,['u'],0,0.14676979999967443,0.1,1,0,FastAcc,22,18,Woman,Right,
58,9,1,0.8828567000000476,['n'],0,left,['u'],0,0.12408400000094844,0.4,1,0,FastAcc,22,18,Woman,Right,
59,9,1,0.9171328000011272,['n'],0,left,['u'],0,0.10020459999941522,0.4,1,0,FastAcc,22,18,Woman,Right,
0,10,1,0.5512331999998423,['n'],0,left,['u'],0,0.08607500000107393,0.4,1,0,FastFast,22,18,Woman,Right,
1,10,1,0.2333435999989888,['c'],0,right,['e'],1,0.07643559999996796,0.4,0,0,FastFast,22,18,Woman,Right,
2,10,1,0.6505988999997498,['n'],0,left,['u'],0,0.04979939999975613,0.1,1,0,FastFast,22,18,Woman,Right,
3,10,1,0.30096750000120664,['n'],1,right,['u'],0,0.06902839999929711,0.2,0,0,FastFast,22,18,Woman,Right,
4,10,1,0.40160950000063167,['n'],1,right,['u'],0,0.06896040000174253,0.2,0,0,FastFast,22,18,Woman,Right,
5,10,1,0.13523709999935818,['n'],0,left,['u'],0,0.030775299999731942,0.4,1,0,FastFast,22,18,Woman,Right,
6,10,1,0.4161273000008805,['n'],1,right,['u'],0,0.09633450000001176,0.1,0,0,FastFast,22,18,Woman,Right,
7,10,1,0.5995918000007805,['n'],1,right,['u'],0,0.13420199999927718,0.1,0,0,FastFast,22,18,Woman,Right,
8,10,1,0.4672536999987642,['n'],0,left,['u'],0,0.11131599999862374,0.4,1,0,FastFast,22,18,Woman,Right,
9,10,1,0.617721900000106,['n'],1,right,['u'],0,0.08495079999920563,0.1,0,0,FastFast,22,18,Woman,Right,
10,10,1,0.7011856000008265,['n'],0,left,['u'],0,0.10401649999948859,0.4,1,0,FastFast,22,18,Woman,Right,
11,10,1,0.3011791999997513,['n'],0,left,['u'],0,0.09010169999965001,0.1,1,0,FastFast,22,18,Woman,Right,
12,10,1,0.3005821000006108,['n'],1,right,['u'],0,0.09438279999994847,0.2,0,0,FastFast,22,18,Woman,Right,
13,10,1,0.4511717999994289,['n'],1,right,['u'],0,0.09000959999866609,0.1,0,0,FastFast,22,18,Woman,Right,
14,10,1,0.45008509999934176,['n'],0,left,['u'],0,0.11939569999958621,0.2,1,0,FastFast,22,18,Woman,Right,
15,10,1,0.35080329999982496,['n'],0,left,['u'],0,0.07062709999991057,0.1,1,0,FastFast,22,18,Woman,Right,
16,10,1,0.13428960000055667,['n'],0,left,['u'],0,0.03385139999954845,0.1,1,0,FastFast,22,18,Woman,Right,
17,10,1,0.21844229999987874,['n'],1,right,['u'],0,0.05678460000126506,0.2,0,0,FastFast,22,18,Woman,Right,
18,10,1,0.21787790000053064,['n'],0,left,['u'],0,0.0013438000005407957,0.2,1,0,FastFast,22,18,Woman,Right,
19,10,1,0.21651460000066436,['n'],1,right,['u'],0,0.011266700001215213,0.2,0,0,FastFast,22,18,Woman,Right,
20,10,1,0.16763090000131342,['n'],0,left,['u'],0,0.021752000000560656,0.1,1,0,FastFast,22,18,Woman,Right,
21,10,1,0.1677852000011626,['n'],0,left,['u'],0,0.2568390000014915,0.2,1,0,FastFast,22,18,Woman,Right,
22,10,1,0.01688349999858474,['n'],1,right,['u'],0,0.10505170000033104,0.2,0,0,FastFast,22,18,Woman,Right,
23,10,1,0.18488330000036513,['n'],0,left,['u'],0,1.9031388000003062,0.1,1,0,FastFast,22,18,Woman,Right,
24,10,1,0.31585890000133077,['n'],1,right,['u'],0,0.0740142000013293,0.2,0,0,FastFast,22,18,Woman,Right,
25,10,1,0.3176901999995607,['n'],1,right,['u'],0,0.07547929999964254,0.4,0,0,FastFast,22,18,Woman,Right,
26,10,1,0.3327030999989802,['n'],1,right,['u'],0,0.06289950000063982,0.1,0,0,FastFast,22,18,Woman,Right,
27,10,1,0.46554420000029495,['n'],1,right,['u'],0,0.09188739999990503,0.4,0,0,FastFast,22,18,Woman,Right,
28,10,1,0.5493870000009338,['c'],1,left,['u'],0,0.06763780000073893,0.4,0,0,FastFast,22,18,Woman,Right,
29,10,1,0.5667430000012246,['n'],1,right,['u'],0,0.12512670000069193,0.4,0,0,FastFast,22,18,Woman,Right,
30,10,1,0.6348324000009598,['n'],1,right,['u'],0,0.04861720000008063,0.1,0,0,FastFast,22,18,Woman,Right,
31,10,1,0.5838060000005498,['n'],1,right,['u'],0,0.08963460000086343,0.1,0,0,FastFast,22,18,Woman,Right,
32,10,1,0.851179499999489,['n'],0,left,['u'],0,0.10258040000007895,0.1,1,0,FastFast,22,18,Woman,Right,
33,10,1,0.4659883999993326,['n'],1,right,['u'],0,0.13177830000131507,0.2,0,0,FastFast,22,18,Woman,Right,
34,10,1,0.3003246999996918,['n'],1,right,['u'],0,0.08375300000079733,0.4,0,0,FastFast,22,18,Woman,Right,
35,10,1,0.4663784999993368,['n'],1,right,['u'],0,0.09605320000082429,0.4,0,0,FastFast,22,18,Woman,Right,
36,10,1,0.4354877000005217,['n'],0,left,['u'],0,0.17216080000071088,0.4,1,0,FastFast,22,18,Woman,Right,
37,10,1,0.6335677999995823,['c'],1,left,['u'],0,0.07869920000121056,0.2,0,0,FastFast,22,18,Woman,Right,
38,10,1,0.6176658000003954,['n'],1,right,['u'],0,0.06892149999839603,0.4,0,0,FastFast,22,18,Woman,Right,
39,10,1,0.5333896000011009,['c'],1,left,['u'],0,0.04701969999950961,0.2,0,0,FastFast,22,18,Woman,Right,
40,10,1,0.4006707999997161,['n'],1,right,['u'],0,0.031739799998831586,0.2,0,0,FastFast,22,18,Woman,Right,
41,10,1,0.5677503999995679,['c'],1,left,['u'],0,0.025642900000093505,0.4,0,0,FastFast,22,18,Woman,Right,
42,10,1,0.48309359999984736,['n'],1,right,['u'],0,0.024348299999473966,0.2,0,0,FastFast,22,18,Woman,Right,
43,10,1,0.4675611000002391,['n'],1,right,['u'],0,0.08681009999963862,0.4,0,0,FastFast,22,18,Woman,Right,
44,10,1,0.5189786999999342,['n'],1,right,['u'],0,0.04890750000049593,0.4,0,0,FastFast,22,18,Woman,Right,
45,10,1,0.5828853999992134,['c'],1,left,['u'],0,0.07486929999868153,0.1,0,0,FastFast,22,18,Woman,Right,
46,10,1,0.5177075999999943,['n'],0,left,['u'],0,0.10071799999968789,0.1,1,0,FastFast,22,18,Woman,Right,
47,10,1,0.7338682999998127,['c'],1,left,['u'],0,0.07009309999921243,0.4,0,0,FastFast,22,18,Woman,Right,
48,10,1,0.7326641999989079,['c'],1,left,['u'],0,0.07317490000059479,0.1,0,0,FastFast,22,18,Woman,Right,
49,10,1,0.6854808000007324,['c'],1,left,['u'],0,0.07740410000042175,0.4,0,0,FastFast,22,18,Woman,Right,
50,10,1,0.7849072000008164,['c'],1,left,['u'],0,0.09256989999994403,0.4,0,0,FastFast,22,18,Woman,Right,
51,10,1,0.7348191999990377,['c'],1,left,['u'],0,0.09413970000059635,0.2,0,0,FastFast,22,18,Woman,Right,
52,10,1,0.6008648999995785,['n'],1,right,['u'],0,0.06887520000054792,0.2,0,0,FastFast,22,18,Woman,Right,
53,10,1,1.2853009999998903,['n'],0,left,['u'],0,3.4252333000004,0.1,1,0,FastFast,22,18,Woman,Right,
54,10,1,1.6011109999999462,['n'],0,left,['u'],0,0.07571330000064336,0.2,1,0,FastFast,22,18,Woman,Right,
55,10,1,0.367517399999997,['n'],1,right,['u'],0,0.07673010000144131,0.2,0,0,FastFast,22,18,Woman,Right,
56,10,1,0.33401210000010906,['n'],0,left,['u'],0,0.04677779999838094,0.4,1,0,FastFast,22,18,Woman,Right,
57,10,1,0.30056929999955173,['n'],1,right,['u'],0,3.426993000000948,0.1,0,0,FastFast,22,18,Woman,Right,
58,10,1,0.5346214000001055,['n'],1,right,['u'],0,0.10334140000122716,0.1,0,0,FastFast,22,18,Woman,Right,
59,10,1,0.5505257000004349,['n'],0,left,['u'],0,0.07973610000044573,0.2,1,0,FastFast,22,18,Woman,Right,
0,11,1,0.5006248000008782,['n'],0,left,['u'],0,0.10232759999962582,0.1,1,0,AccFast,22,18,Woman,Right,
1,11,1,0.28219999999964784,['n'],0,left,['u'],0,0.04081659999974363,0.4,1,0,AccFast,22,18,Woman,Right,
2,11,1,0.31669329999931506,['n'],0,left,['u'],0,0.07736760000079812,0.4,1,0,AccFast,22,18,Woman,Right,
3,11,1,0.2827283000005991,['n'],0,left,['u'],0,0.03293599999960861,0.2,1,0,AccFast,22,18,Woman,Right,
4,11,1,0.2348493999998027,['n'],0,left,['u'],0,0.08824730000014824,0.1,1,0,AccFast,22,18,Woman,Right,
5,11,1,0.23315089999960037,['n'],1,right,['u'],0,0.10974690000148257,0.2,0,0,AccFast,22,18,Woman,Right,
6,11,1,0.2343407999996998,['n'],1,right,['u'],0,0.019691100000272854,0.2,0,0,AccFast,22,18,Woman,Right,
7,11,1,0.2844301000004634,['n'],1,right,['u'],0,0.07314980000046489,0.4,0,0,AccFast,22,18,Woman,Right,
8,11,1,0.34922390000065207,['n'],0,left,['u'],0,0.10687879999932193,0.2,1,0,AccFast,22,18,Woman,Right,
9,11,1,0.41721119999965595,['n'],1,right,['u'],0,0.10500230000070587,0.1,0,0,AccFast,22,18,Woman,Right,
10,11,1,0.7001323999993474,['n'],1,right,['u'],0,0.07399110000005749,0.1,0,0,AccFast,22,18,Woman,Right,
11,11,1,0.6164322000004177,['n'],1,right,['u'],0,0.06597979999969539,0.2,0,0,AccFast,22,18,Woman,Right,
12,11,1,0.3511238000010053,['n'],1,right,['u'],0,0.13074390000110725,0.2,0,0,AccFast,22,18,Woman,Right,
13,11,1,0.4510941000007733,['n'],1,right,['u'],0,0.1093352000007144,0.4,0,0,AccFast,22,18,Woman,Right,
14,11,1,0.4348785999991378,['n'],0,left,['u'],0,0.10821709999981977,0.4,1,0,AccFast,22,18,Woman,Right,
15,11,1,0.35066920000099344,['n'],1,right,['u'],0,0.12256470000102127,0.1,0,0,AccFast,22,18,Woman,Right,
16,11,1,0.6331210000007559,['n'],0,left,['u'],0,0.09607900000082736,0.4,1,0,AccFast,22,18,Woman,Right,
17,11,1,0.45174779999979364,['n'],0,left,['u'],0,0.12367980000090029,0.2,1,0,AccFast,22,18,Woman,Right,
18,11,1,0.46733230000063486,['n'],1,right,['u'],0,0.1194775000003574,0.2,0,0,AccFast,22,18,Woman,Right,
19,11,1,0.5011243999997532,['n'],1,right,['u'],0,0.11255569999957515,0.1,0,0,AccFast,22,18,Woman,Right,
20,11,1,0.601391700000022,['n'],0,left,['u'],0,0.08569549999992887,0.4,1,0,AccFast,22,18,Woman,Right,
21,11,1,0.5170371999993222,['n'],1,right,['u'],0,0.11237849999997707,0.2,0,0,AccFast,22,18,Woman,Right,
22,11,1,0.4012655000005907,['n'],0,left,['u'],0,0.14163180000105058,0.1,1,0,AccFast,22,18,Woman,Right,
23,11,1,0.3345448000000033,['n'],1,right,['u'],0,0.17325590000109514,0.4,0,0,AccFast,22,18,Woman,Right,
24,11,1,0.2845190999996703,['n'],1,right,['u'],0,0.09340999999949418,0.2,0,0,AccFast,22,18,Woman,Right,
25,11,1,0.3338120999997045,['n'],0,left,['u'],0,0.11142499999914435,0.4,1,0,AccFast,22,18,Woman,Right,
26,11,1,0.36782599999969534,['n'],0,left,['u'],0,0.11057479999908537,0.1,1,0,AccFast,22,18,Woman,Right,
27,11,1,0.516702400000213,['n'],1,right,['u'],0,0.07288339999831805,0.4,0,0,AccFast,22,18,Woman,Right,
28,11,1,0.4511150999987876,['n'],1,right,['u'],0,0.13378630000079283,0.4,0,0,AccFast,22,18,Woman,Right,
29,11,1,0.4169805000001361,['n'],1,right,['u'],0,0.08250029999908293,0.4,0,0,AccFast,22,18,Woman,Right,
30,11,1,0.4494094000001496,['n'],1,right,['u'],0,0.14417279999906896,0.1,0,0,AccFast,22,18,Woman,Right,
31,11,1,0.4666168999992806,['n'],0,left,['u'],0,0.15366209999956482,0.1,1,0,AccFast,22,18,Woman,Right,
32,11,1,0.5836116999998922,['n'],0,left,['u'],0,0.06278310000016063,0.2,1,0,AccFast,22,18,Woman,Right,
33,11,1,0.2334023999992496,['n'],0,left,['u'],0,0.08452159999978903,0.4,1,0,AccFast,22,18,Woman,Right,
34,11,1,0.25055630000133533,['n'],0,left,['u'],0,0.07297509999989416,0.1,1,0,AccFast,22,18,Woman,Right,
35,11,1,0.2670161999994889,['n'],1,right,['u'],0,0.1266077000000223,0.4,0,0,AccFast,22,18,Woman,Right,
36,11,1,0.5663496000015584,['n'],1,right,['u'],0,1.1095131999991281,0.4,0,0,AccFast,22,18,Woman,Right,
37,11,1,1.117146300000968,['n'],1,right,['u'],0,0.11114220000126807,0.4,0,0,AccFast,22,18,Woman,Right,
38,11,1,0.6660933000002842,['n'],1,right,['u'],0,0.11485549999997602,0.1,0,0,AccFast,22,18,Woman,Right,
39,11,1,0.6168894999991608,['n'],0,left,['u'],0,0.08775210000021616,0.2,1,0,AccFast,22,18,Woman,Right,
40,11,1,0.7494001000013668,['c'],1,left,['e'],1,0.08877449999999953,0.4,1,0,AccFast,22,18,Woman,Right,
41,11,1,1.068341700000019,['n'],0,left,['u'],0,0.07632680000097025,0.2,1,0,AccFast,22,18,Woman,Right,
42,11,1,0.5011156999989907,['n'],1,right,['u'],0,0.08794980000129726,0.2,0,0,AccFast,22,18,Woman,Right,
43,11,1,0.6344108000012056,['n'],0,left,['u'],0,0.10955009999997856,0.1,1,0,AccFast,22,18,Woman,Right,
44,11,1,0.7679750999996031,['n'],0,left,['u'],0,0.09304419999898528,0.4,1,0,AccFast,22,18,Woman,Right,
45,11,1,0.8512224000005517,['n'],0,left,['u'],0,0.154037000000244,0.2,1,0,AccFast,22,18,Woman,Right,
46,11,1,0.5178532000009,['n'],1,right,['u'],0,0.09777960000064922,0.1,0,0,AccFast,22,18,Woman,Right,
47,11,1,0.3835462999995798,['n'],1,right,['u'],0,0.017277099999773782,0.4,0,0,AccFast,22,18,Woman,Right,
48,11,1,0.38219129999924917,['n'],0,left,['u'],0,0.09955359999912616,0.4,1,0,AccFast,22,18,Woman,Right,
49,11,1,0.4335773999991943,['n'],0,left,['u'],0,0.0636395999990782,0.2,1,0,AccFast,22,18,Woman,Right,
50,11,1,0.4330009000004793,['n'],0,left,['u'],0,0.11015989999941667,0.2,1,0,AccFast,22,18,Woman,Right,
51,11,1,0.4846317999999883,['n'],0,left,['u'],0,0.12114180000025954,0.1,1,0,AccFast,22,18,Woman,Right,
52,11,1,0.31799769999997807,['n'],1,right,['u'],0,0.10561740000048303,0.2,0,0,AccFast,22,18,Woman,Right,
53,11,1,0.3325853999995161,['n'],0,left,['u'],0,0.10726790000080655,0.2,1,0,AccFast,22,18,Woman,Right,
54,11,1,0.3674252999990131,['n'],1,right,['u'],0,0.1224039000007906,0.1,0,0,AccFast,22,18,Woman,Right,
55,11,1,0.2848087000002124,['n'],0,left,['u'],0,0.12475530000119761,0.1,1,0,AccFast,22,18,Woman,Right,
56,11,1,0.35055260000081034,['n'],1,right,['u'],0,0.060151899999254965,0.2,0,0,AccFast,22,18,Woman,Right,
57,11,1,0.5177284000001237,['n'],1,right,['u'],0,0.08766819999982545,0.1,0,0,AccFast,22,18,Woman,Right,
58,11,1,0.5167354000004707,['n'],1,right,['u'],0,0.16208329999972193,0.1,0,0,AccFast,22,18,Woman,Right,
59,11,1,0.28365219999977853,['n'],0,left,['u'],0,0.11406809999971301,0.1,1,0,AccFast,22,18,Woman,Right,
0,12,1,0.8843925000001036,['n'],1,right,['u'],0,0.15366759999960777,0.4,0,0,AccAcc,22,18,Woman,Right,
1,12,1,0.7840510000005452,['c'],1,left,['u'],0,0.15099719999852823,0.1,0,0,AccAcc,22,18,Woman,Right,
2,12,1,0.5836346999985835,['n'],1,right,['u'],0,0.20358540000052017,0.2,0,0,AccAcc,22,18,Woman,Right,
3,12,1,0.5336267000002408,['n'],1,right,['u'],0,0.09672700000010082,0.1,0,0,AccAcc,22,18,Woman,Right,
4,12,1,0.6176443999993353,['n'],1,right,['u'],0,0.13441280000006373,0.1,0,0,AccAcc,22,18,Woman,Right,
5,12,1,0.5490312999991147,['n'],1,right,['u'],0,0.14217419999840786,0.4,0,0,AccAcc,22,18,Woman,Right,
6,12,1,0.6163695000013831,['c'],1,left,['u'],0,0.1305646999990131,0.2,0,0,AccAcc,22,18,Woman,Right,
7,12,1,0.6495139000016934,['n'],1,right,['u'],0,0.10086729999966337,0.2,0,0,AccAcc,22,18,Woman,Right,
8,12,1,0.6845166999992216,['n'],1,right,['u'],0,0.10366480000084266,0.2,0,0,AccAcc,22,18,Woman,Right,
9,12,1,0.6170617000007041,['n'],1,right,['u'],0,0.1576433000009274,0.4,0,0,AccAcc,22,18,Woman,Right,
10,12,1,0.46765140000024985,['n'],1,right,['u'],0,0.13438209999912942,0.4,0,0,AccAcc,22,18,Woman,Right,
11,12,1,1.1668487999995705,['c'],1,left,['u'],0,0.1172526000009384,0.2,0,0,AccAcc,22,18,Woman,Right,
12,12,1,0.6988468999988982,['n'],0,left,['u'],0,0.1195384999991802,0.1,1,0,AccAcc,22,18,Woman,Right,
13,12,1,0.550650900000619,['n'],0,left,['u'],0,0.11031229999935022,0.2,1,0,AccAcc,22,18,Woman,Right,
14,12,1,0.933914499999446,['c'],1,left,['u'],0,0.18279860000075132,0.2,0,0,AccAcc,22,18,Woman,Right,
15,12,1,0.4504496999998082,['n'],1,right,['u'],0,0.12773269999888726,0.1,0,0,AccAcc,22,18,Woman,Right,
16,12,1,0.5680222999999387,['n'],0,left,['u'],0,0.15093499999966298,0.2,1,0,AccAcc,22,18,Woman,Right,
17,12,1,0.5514628000000812,['c'],1,left,['u'],0,0.1409155000001192,0.2,0,0,AccAcc,22,18,Woman,Right,
18,12,1,0.6013021999988268,['c'],1,left,['u'],0,0.11369720000038797,0.4,0,0,AccAcc,22,18,Woman,Right,
19,12,1,0.9667800000006537,['n'],0,left,['u'],0,0.07303940000019793,0.4,1,0,AccAcc,22,18,Woman,Right,
20,12,1,0.650908999999956,['n'],0,left,['u'],0,0.11143189999893366,0.4,1,0,AccAcc,22,18,Woman,Right,
21,12,1,0.5343676000011328,['n'],1,right,['u'],0,0.13585210000019288,0.1,0,0,AccAcc,22,18,Woman,Right,
22,12,1,0.6514337999997224,['n'],1,right,['u'],0,0.09062319999975443,0.1,0,0,AccAcc,22,18,Woman,Right,
23,12,1,0.901298400000087,['c'],1,left,['u'],0,0.10118039999906614,0.4,0,0,AccAcc,22,18,Woman,Right,
24,12,1,0.5174723000000085,['n'],1,right,['u'],0,0.046939300000303774,0.1,0,0,AccAcc,22,18,Woman,Right,
25,12,1,0.6678995000002033,['n'],0,left,['u'],0,0.10050149999915448,0.1,1,0,AccAcc,22,18,Woman,Right,
26,12,1,0.5168469000000186,['n'],1,right,['u'],0,0.11082470000110334,0.1,0,0,AccAcc,22,18,Woman,Right,
27,12,1,0.5009147000000667,['n'],1,right,['u'],0,0.08838160000050266,0.1,0,0,AccAcc,22,18,Woman,Right,
28,12,1,0.6498348000004626,['n'],1,right,['u'],0,0.11041149999982736,0.1,0,0,AccAcc,22,18,Woman,Right,
29,12,1,0.6010509000007005,['n'],1,right,['u'],0,0.08457699999962642,0.1,0,0,AccAcc,22,18,Woman,Right,
30,12,1,0.6515648000004148,['n'],1,right,['u'],0,0.0883412999992288,0.2,0,0,AccAcc,22,18,Woman,Right,
31,12,1,0.6339012999997067,['n'],1,right,['u'],0,0.07797109999955865,0.2,0,0,AccAcc,22,18,Woman,Right,
32,12,1,0.7839592999989691,['c'],1,left,['u'],0,0.1421064000005572,0.4,0,0,AccAcc,22,18,Woman,Right,
33,12,1,0.7661403000001883,['n'],0,left,['u'],0,0.09301260000029288,0.2,1,0,AccAcc,22,18,Woman,Right,
34,12,1,0.7182628999998997,['n'],1,right,['u'],0,0.06256389999907697,0.2,0,0,AccAcc,22,18,Woman,Right,
35,12,1,1.0345199999992474,['c'],1,left,['u'],0,0.08560100000067905,0.4,0,0,AccAcc,22,18,Woman,Right,
36,12,1,0.7005152000001544,['n'],0,left,['u'],0,0.136295300000711,0.4,1,0,AccAcc,22,18,Woman,Right,
37,12,1,0.8679045000008045,['n'],0,left,['u'],0,0.1145606999998563,0.1,1,0,AccAcc,22,18,Woman,Right,
38,12,1,0.7668112000010296,['n'],1,right,['u'],0,0.08176060000005236,0.2,0,0,AccAcc,22,18,Woman,Right,
39,12,1,0.8502794999985781,['n'],0,left,['u'],0,0.09462489999896206,0.1,1,0,AccAcc,22,18,Woman,Right,
40,12,1,0.8014469999998255,['n'],1,right,['u'],0,0.09332009999889124,0.2,0,0,AccAcc,22,18,Woman,Right,
41,12,1,0.7825542000009591,['n'],0,left,['u'],0,0.09384139999929175,0.4,1,0,AccAcc,22,18,Woman,Right,
42,12,1,0.817829100000381,['n'],0,left,['u'],0,0.13947679999910179,0.4,1,0,AccAcc,22,18,Woman,Right,
43,12,1,0.6667302999994718,['n'],1,right,['u'],0,0.14196400000037102,0.4,0,0,AccAcc,22,18,Woman,Right,
44,12,1,0.7664608999984921,['n'],0,left,['u'],0,0.10853139999926498,0.2,1,0,AccAcc,22,18,Woman,Right,
45,12,1,0.8004875000005995,['n'],0,left,['u'],0,0.10611880000033125,0.2,1,0,AccAcc,22,18,Woman,Right,
46,12,1,1.0007398999987345,['n'],1,right,['u'],0,0.12876549999964482,0.1,0,0,AccAcc,22,18,Woman,Right,
47,12,1,0.8012152999999671,['n'],0,left,['u'],0,0.10904029999983322,0.4,1,0,AccAcc,22,18,Woman,Right,
48,12,1,0.7680158999992273,['n'],0,left,['u'],0,0.09267130000080215,0.4,1,0,AccAcc,22,18,Woman,Right,
49,12,1,0.667817900000955,['n'],1,right,['u'],0,0.08083000000078755,0.1,0,0,AccAcc,22,18,Woman,Right,
50,12,1,0.7178703999998106,['n'],1,right,['u'],0,0.131424799999877,0.4,0,0,AccAcc,22,18,Woman,Right,
51,12,1,0.7845123000006424,['n'],0,left,['u'],0,0.14482139999927313,0.4,1,0,AccAcc,22,18,Woman,Right,
52,12,1,0.534422499998982,['n'],0,left,['u'],0,0.1366461999987223,0.1,1,0,AccAcc,22,18,Woman,Right,
53,12,1,0.6497249999993073,['n'],1,right,['u'],0,0.0919555999989825,0.4,0,0,AccAcc,22,18,Woman,Right,
54,12,1,0.4514653999995062,['n'],0,left,['u'],0,0.07212150000123074,0.1,1,0,AccAcc,22,18,Woman,Right,
55,12,1,0.38366730000052485,['n'],1,right,['u'],0,0.08864179999909538,0.4,0,0,AccAcc,22,18,Woman,Right,
56,12,1,0.3668486999995366,['n'],1,right,['u'],0,0.04082419999940612,0.2,0,0,AccAcc,22,18,Woman,Right,
57,12,1,0.33494729999983974,['n'],0,left,['u'],0,0.07634759999928065,0.2,1,0,AccAcc,22,18,Woman,Right,
58,12,1,0.38466589999916323,['n'],0,left,['u'],0,0.09284280000065337,0.1,1,0,AccAcc,22,18,Woman,Right,
59,12,1,0.5843705999996018,['n'],1,right,['u'],0,0.10052460000042629,0.2,0,0,AccAcc,22,18,Woman,Right,
0,13,1,0.5676187000008213,['n'],1,right,['u'],0,0.708332000000155,0.1,0,0,FastAcc,22,18,Woman,Right,
1,13,1,0.46751669999866863,['n'],1,right,['u'],0,0.07220950000009907,0.4,0,0,FastAcc,22,18,Woman,Right,
2,13,1,0.9499918999990768,['n'],1,right,['u'],0,0.050283099999433034,0.2,0,0,FastAcc,22,18,Woman,Right,
3,13,1,0.46707470000001194,['n'],0,left,['u'],0,0.11121249999996508,0.4,1,0,FastAcc,22,18,Woman,Right,
4,13,1,0.36707299999943643,['n'],1,right,['u'],0,0.11086009999962698,0.2,0,0,FastAcc,22,18,Woman,Right,
5,13,1,0.2832902999998623,['n'],0,left,['u'],0,0.11388869999973394,0.2,1,0,FastAcc,22,18,Woman,Right,
6,13,1,0.2501472999992984,['n'],1,right,['u'],0,0.13351990000046499,0.1,0,0,FastAcc,22,18,Woman,Right,
7,13,1,0.6342409999997471,['c'],1,left,['u'],0,0.1368834999993851,0.4,0,0,FastAcc,22,18,Woman,Right,
8,13,1,1.5676732000010816,['c'],1,left,['u'],0,0.039239899999302,0.2,0,0,FastAcc,22,18,Woman,Right,
9,13,1,0.034945600000355626,['n'],1,right,['u'],0,0.08652759999858972,0.1,0,0,FastAcc,22,18,Woman,Right,
10,13,1,0.45192390000011073,['n'],1,right,['u'],0,0.11539040000025125,0.1,0,0,FastAcc,22,18,Woman,Right,
11,13,1,0.20129529999940132,['n'],1,right,['u'],0,0.04136840000137454,0.1,0,0,FastAcc,22,18,Woman,Right,
12,13,1,0.4011463000006188,['n'],1,right,['u'],0,0.07402709999951185,0.4,0,0,FastAcc,22,18,Woman,Right,
13,13,1,0.45126930000151333,['n'],1,right,['u'],0,0.07182889999967301,0.1,0,0,FastAcc,22,18,Woman,Right,
14,13,1,0.48464029999922786,['n'],0,left,['u'],0,0.051797599999190425,0.2,1,0,FastAcc,22,18,Woman,Right,
15,13,1,0.7512330999998085,['n'],1,right,['u'],0,0.0861045000001468,0.2,0,0,FastAcc,22,18,Woman,Right,
16,13,1,0.5177364999999554,['n'],0,left,['u'],0,0.06437320000077307,0.4,1,0,FastAcc,22,18,Woman,Right,
17,13,1,0.43336570000064967,['n'],0,left,['u'],0,0.04664760000014212,0.1,1,0,FastAcc,22,18,Woman,Right,
18,13,1,0.6673501999994187,['n'],0,left,['u'],0,0.05266990000018268,0.2,1,0,FastAcc,22,18,Woman,Right,
19,13,1,0.4675366000010399,['n'],1,right,['u'],0,0.11371620000136318,0.2,0,0,FastAcc,22,18,Woman,Right,
20,13,1,0.7502288999985467,['c'],1,left,['u'],0,0.04987099999925704,0.4,0,0,FastAcc,22,18,Woman,Right,
21,13,1,0.616239900000437,['n'],1,right,['u'],0,0.07451709999986633,0.2,0,0,FastAcc,22,18,Woman,Right,
22,13,1,0.9510413999996672,['n'],1,right,['u'],0,0.06660200000078476,0.1,0,0,FastAcc,22,18,Woman,Right,
23,13,1,0.8500291999989713,['c'],1,left,['u'],0,0.033058499999242486,0.4,0,0,FastAcc,22,18,Woman,Right,
24,13,1,0.5321837000010419,['n'],0,left,['u'],0,0.04512330000034126,0.1,1,0,FastAcc,22,18,Woman,Right,
25,13,1,0.517985000000408,['n'],1,right,['u'],0,0.024523199999748613,0.2,0,0,FastAcc,22,18,Woman,Right,
26,13,1,0.8174853000000439,['n'],0,left,['u'],0,0.057340700001077494,0.4,1,0,FastAcc,22,18,Woman,Right,
27,13,1,0.4849306999985856,['n'],1,right,['u'],0,0.05395130000033532,0.4,0,0,FastAcc,22,18,Woman,Right,
28,13,1,0.7830264000003808,['n'],0,left,['u'],0,0.11872570000014093,0.2,1,0,FastAcc,22,18,Woman,Right,
29,13,1,0.5339511999991373,['n'],1,right,['u'],0,0.04701519999980519,0.1,0,0,FastAcc,22,18,Woman,Right,
30,13,1,0.5176248000007035,['n'],0,left,['u'],0,0.09086369999931776,0.1,1,0,FastAcc,22,18,Woman,Right,
31,13,1,0.45057830000041577,['n'],0,left,['u'],0,0.040694100000109756,0.4,1,0,FastAcc,22,18,Woman,Right,
32,13,1,0.35046689999944647,['n'],0,left,['u'],0,0.0431497000008676,0.2,1,0,FastAcc,22,18,Woman,Right,
33,13,1,0.4169378999995388,['n'],1,right,['u'],0,0.042651899999327725,0.2,0,0,FastAcc,22,18,Woman,Right,
34,13,1,0.38450559999910183,['n'],0,left,['u'],0,0.09244300000136718,0.1,1,0,FastAcc,22,18,Woman,Right,
35,13,1,0.30001979999906325,['n'],1,right,['u'],0,0.06392689999847789,0.2,0,0,FastAcc,22,18,Woman,Right,
36,13,1,0.534288299999389,['n'],0,left,['u'],0,0.041393299999981537,0.1,1,0,FastAcc,22,18,Woman,Right,
37,13,1,0.4516321000010066,['n'],1,right,['u'],0,0.02430579999963811,0.4,0,0,FastAcc,22,18,Woman,Right,
38,13,1,0.5011341999997967,['n'],0,left,['u'],0,0.24591639999925974,0.4,1,0,FastAcc,22,18,Woman,Right,
39,13,1,0.6677225999992515,['n'],1,right,['u'],0,0.09967319999850588,0.1,0,0,FastAcc,22,18,Woman,Right,
40,13,1,0.8839016999991145,['n'],0,left,['u'],0,0.06231579999985115,0.2,1,0,FastAcc,22,18,Woman,Right,
41,13,1,0.5185591000008571,['n'],1,right,['u'],0,0.8412638999998308,0.2,0,0,FastAcc,22,18,Woman,Right,
42,13,1,0.41701410000132455,['n'],1,right,['u'],0,0.05838720000065223,0.4,0,0,FastAcc,22,18,Woman,Right,
43,13,1,0.45037430000047607,['n'],1,right,['u'],0,0.08870759999990696,0.4,0,0,FastAcc,22,18,Woman,Right,
44,13,1,1.0342483000003995,['n'],0,left,['u'],0,0.09352380000018456,0.1,1,0,FastAcc,22,18,Woman,Right,
45,13,1,0.6830728000004456,['n'],0,left,['u'],0,0.002392100001088693,0.4,1,0,FastAcc,22,18,Woman,Right,
46,13,1,0.5188453999999183,['n'],0,left,['u'],0,0.09479140000075859,0.1,1,0,FastAcc,22,18,Woman,Right,
47,13,1,0.5681694000013522,['n'],0,left,['u'],0,0.0549948999996559,0.4,1,0,FastAcc,22,18,Woman,Right,
48,13,1,0.4007050000000163,['n'],0,left,['u'],0,0.0711524999987887,0.2,1,0,FastAcc,22,18,Woman,Right,
49,13,1,0.24985059999926307,['n'],0,left,['u'],0,0.06126130000120611,0.1,1,0,FastAcc,22,18,Woman,Right,
50,13,1,0.18446299999959592,['n'],0,left,['u'],0,0.06967470000017784,0.4,1,0,FastAcc,22,18,Woman,Right,
51,13,1,0.25013899999976275,['n'],0,left,['u'],0,0.05973769999945944,0.4,1,0,FastAcc,22,18,Woman,Right,
52,13,1,0.18403399999988324,['n'],1,right,['u'],0,0.036201299999447656,0.1,0,0,FastAcc,22,18,Woman,Right,
53,13,1,0.33494229999996605,['n'],0,left,['u'],0,2.807591200000388,0.1,1,0,FastAcc,22,18,Woman,Right,
54,13,1,0.6020160999996733,['n'],0,left,['u'],0,0.018413199999486096,0.1,1,0,FastAcc,22,18,Woman,Right,
55,13,1,0.23273990000052436,['n'],1,right,['u'],0,0.05894020000050659,0.2,0,0,FastAcc,22,18,Woman,Right,
56,13,1,0.2668045999998867,['n'],1,right,['u'],0,0.06477970000014466,0.4,0,0,FastAcc,22,18,Woman,Right,
57,13,1,0.06774009999935515,['n'],1,right,['u'],0,0.12480930000128865,0.4,0,0,FastAcc,22,18,Woman,Right,
58,13,1,0.03347890000077314,['n'],1,right,['u'],0,0.13778269999966142,0.2,0,0,FastAcc,22,18,Woman,Right,
59,13,1,0.4992182000005414,['n'],1,right,['u'],0,0.09906249999949068,0.2,0,0,FastAcc,22,18,Woman,Right,
0,14,1,0.40044850000049337,['n'],1,right,['u'],0,0.04939350000131526,0.4,0,0,FastFast,22,18,Woman,Right,
1,14,1,0.46832679999897664,['n'],1,right,['u'],0,0.046012300001166295,0.2,0,0,FastFast,22,18,Woman,Right,
2,14,1,0.1835291999996116,['n'],1,right,['u'],0,0.02431570000044303,0.2,0,0,FastFast,22,18,Woman,Right,
3,14,1,0.08382460000029823,['n'],1,right,['u'],0,0.0858421000011731,0.1,0,0,FastFast,22,18,Woman,Right,
4,14,1,0.5342410000012023,['n'],0,left,['u'],0,0.12734699999964505,0.2,1,0,FastFast,22,18,Woman,Right,
5,14,1,0.3169326999995974,['n'],0,left,['u'],0,0.03228379999927711,0.2,1,0,FastFast,22,18,Woman,Right,
6,14,1,0.23309269999845128,['n'],0,left,['u'],0,0.023729300000923104,0.2,1,0,FastFast,22,18,Woman,Right,
7,14,1,0.21757129999969038,['n'],1,right,['u'],0,0.04767569999967236,0.1,0,0,FastFast,22,18,Woman,Right,
8,14,1,0.2176964999998745,['n'],0,left,['u'],0,0.05541359999915585,0.2,1,0,FastFast,22,18,Woman,Right,
9,14,1,0.23414880000018456,['n'],1,right,['u'],0,0.9264302999999927,0.4,0,0,FastFast,22,18,Woman,Right,
10,14,1,0.2686706000004051,['n'],0,left,['u'],0,0.08120199999939359,0.2,1,0,FastFast,22,18,Woman,Right,
11,14,1,0.26911610000024666,['n'],0,left,['u'],0,0.06937740000103076,0.1,1,0,FastFast,22,18,Woman,Right,
12,14,1,0.250102699999843,['n'],0,left,['u'],0,0.05921680000028573,0.4,1,0,FastFast,22,18,Woman,Right,
13,14,1,0.2842799999998533,['n'],1,right,['u'],0,0.0323153999997885,0.1,0,0,FastFast,22,18,Woman,Right,
14,14,1,0.20047819999854255,['n'],1,right,['u'],0,0.07359820000056061,0.2,0,0,FastFast,22,18,Woman,Right,
15,14,1,0.25117339999997057,['n'],1,right,['u'],0,0.030484900000374182,0.2,0,0,FastFast,22,18,Woman,Right,
16,14,1,0.18439190000026429,['n'],1,right,['u'],0,0.024142099999153288,0.1,0,0,FastFast,22,18,Woman,Right,
17,14,1,0.29910930000005465,['n'],0,left,['u'],0,0.07885700000042561,0.1,1,0,FastFast,22,18,Woman,Right,
18,14,1,0.20112840000001597,['n'],1,right,['u'],0,0.05305700000099023,0.2,0,0,FastFast,22,18,Woman,Right,
19,14,1,0.23497560000032536,['n'],1,right,['u'],0,0.07653539999955683,0.4,0,0,FastFast,22,18,Woman,Right,
20,14,1,0.2512532000000647,['n'],1,right,['u'],0,0.945749500000602,0.2,0,0,FastFast,22,18,Woman,Right,
21,14,1,0.3011882999999216,['n'],1,right,['u'],0,0.06625940000049013,0.4,0,0,FastFast,22,18,Woman,Right,
22,14,1,0.30116110000017215,['n'],0,left,['u'],0,0.14909159999842814,0.1,1,0,FastFast,22,18,Woman,Right,
23,14,1,0.20107199999984005,['n'],1,right,['u'],0,0.07345359999999346,0.1,0,0,FastFast,22,18,Woman,Right,
24,14,1,0.21716720000040368,['n'],0,left,['u'],0,0.06498990000000049,0.4,1,0,FastFast,22,18,Woman,Right,
25,14,1,0.11774069999955827,['n'],0,left,['u'],0,0.10738230000060867,0.2,1,0,FastFast,22,18,Woman,Right,
26,14,1,0.03312069999992673,['n'],0,left,['u'],0,0.13741769999978715,0.4,1,0,FastFast,22,18,Woman,Right,
27,14,1,0.2686048000014125,['n'],0,left,['u'],0,0.12277720000020054,0.1,1,0,FastFast,22,18,Woman,Right,
28,14,1,0.2509771000004548,['n'],1,right,['u'],0,0.046029600000110804,0.2,0,0,FastFast,22,18,Woman,Right,
29,14,1,0.25115310000001045,['n'],1,right,['u'],0,0.06819390000055137,0.2,0,0,FastFast,22,18,Woman,Right,
30,14,1,0.25059150000015507,['n'],1,right,['u'],0,0.05769800000052783,0.2,0,0,FastFast,22,18,Woman,Right,
31,14,1,0.28419399999984307,['n'],0,left,['u'],0,0.07860599999912665,0.4,1,0,FastFast,22,18,Woman,Right,
32,14,1,0.1676841999997123,['n'],0,left,['u'],0,0.11855690000083996,0.4,1,0,FastFast,22,18,Woman,Right,
33,14,1,0.20194650000121328,['n'],1,right,['u'],0,0.028285200000027544,0.1,0,0,FastFast,22,18,Woman,Right,
34,14,1,0.15152799999850686,['n'],0,left,['u'],0,0.3920610000004672,0.2,1,0,FastFast,22,18,Woman,Right,
35,14,1,0.2848322999998345,['n'],0,left,['u'],0,0.09478049999961513,0.4,1,0,FastFast,22,18,Woman,Right,
36,14,1,0.2663496999994095,['n'],1,right,['u'],0,0.05228809999971418,0.4,0,0,FastFast,22,18,Woman,Right,
37,14,1,0.45269329999973706,['n'],1,right,['u'],0,0.06600149999940186,0.1,0,0,FastFast,22,18,Woman,Right,
38,14,1,0.20013190000099712,['n'],1,right,['u'],0,0.05742149999969115,0.2,0,0,FastFast,22,18,Woman,Right,
39,14,1,0.2679384000002756,['n'],0,left,['u'],0,0.06217629999991914,0.2,1,0,FastFast,22,18,Woman,Right,
40,14,1,0.3006913000008353,['n'],0,left,['u'],0,0.09800510000059148,0.1,1,0,FastFast,22,18,Woman,Right,
41,14,1,0.13329220000014175,['n'],1,right,['u'],0,0.07537720000073023,0.4,0,0,FastFast,22,18,Woman,Right,
42,14,1,0.15156200000092213,['n'],0,left,['u'],0,0.06837899999845831,0.4,1,0,FastFast,22,18,Woman,Right,
43,14,1,0.2343364999996993,['n'],1,right,['u'],0,0.12295189999895229,0.4,0,0,FastFast,22,18,Woman,Right,
44,14,1,0.28340039999966393,['n'],1,right,['u'],0,0.10941930000080902,0.4,0,0,FastFast,22,18,Woman,Right,
45,14,1,0.30005610000080196,['n'],1,right,['u'],0,0.111398700000791,0.1,0,0,FastFast,22,18,Woman,Right,
46,14,1,0.25170520000028773,['n'],0,left,['u'],0,0.13110629999937373,0.4,1,0,FastFast,22,18,Woman,Right,
47,14,1,0.11702250000053027,['n'],0,left,['u'],0,0.09116739999990386,0.4,1,0,FastFast,22,18,Woman,Right,
48,14,1,0.3343445000009524,['n'],0,left,['u'],0,0.10915649999878951,0.4,1,0,FastFast,22,18,Woman,Right,
49,14,1,0.46812990000034915,['n'],1,right,['u'],0,0.10423640000044543,0.2,0,0,FastFast,22,18,Woman,Right,
50,14,1,0.7847516999991058,['n'],0,left,['u'],0,0.10333490000084566,0.1,1,0,FastFast,22,18,Woman,Right,
51,14,1,0.5661002999986522,['n'],0,left,['u'],0,0.06432400000085181,0.1,1,0,FastFast,22,18,Woman,Right,
52,14,1,0.5000727999995433,['n'],0,left,['u'],0,0.07575230000111333,0.4,1,0,FastFast,22,18,Woman,Right,
53,14,1,0.5845929000006436,['n'],1,right,['u'],0,0.10014499999851978,0.1,0,0,FastFast,22,18,Woman,Right,
54,14,1,0.5333566999997856,['n'],0,left,['u'],0,0.06029519999901822,0.1,1,0,FastFast,22,18,Woman,Right,
55,14,1,1.2344213999986096,['n'],0,left,['u'],0,0.05897910000021511,0.1,1,0,FastFast,22,18,Woman,Right,
56,14,1,0.6178316000004997,['n'],1,right,['u'],0,0.09873909999987518,0.4,0,0,FastFast,22,18,Woman,Right,
57,14,1,0.7328863999991881,['n'],1,right,['u'],0,0.08356240000102844,0.1,0,0,FastFast,22,18,Woman,Right,
58,14,1,0.5664808000001358,['n'],0,left,['u'],0,0.12450800000078743,0.1,1,0,FastFast,22,18,Woman,Right,
59,14,1,0.6175622000009753,['n'],0,left,['u'],0,0.09670920000098704,0.2,1,0,FastFast,22,18,Woman,Right,
0,15,1,1.3835985999994591,['n'],1,right,['u'],0,0.2165537000000768,0.2,0,0,AccFast,22,18,Woman,Right,
1,15,1,0.6165603000008559,['n'],1,right,['u'],0,0.15302890000020852,0.4,0,0,AccFast,22,18,Woman,Right,
2,15,1,0.5843695000003208,['n'],1,right,['u'],0,0.17353279999952065,0.2,0,0,AccFast,22,18,Woman,Right,
3,15,1,1.0679976000010356,['n'],0,left,['u'],0,0.19064199999957054,0.2,1,0,AccFast,22,18,Woman,Right,
4,15,1,0.6340349999991304,['n'],0,left,['u'],0,0.25699270000040997,0.4,1,0,AccFast,22,18,Woman,Right,
5,15,1,0.8512351000008493,['n'],1,right,['u'],0,0.23093560000052094,0.1,0,0,AccFast,22,18,Woman,Right,
6,15,1,1.3509259000002203,['n'],0,left,['u'],0,0.08941930000037246,0.1,1,0,AccFast,22,18,Woman,Right,
7,15,1,0.5335029999987455,['n'],1,right,['u'],0,0.09949830000005022,0.2,0,0,AccFast,22,18,Woman,Right,
8,15,1,0.5334604999989097,['n'],1,right,['u'],0,0.12517289999959758,0.2,0,0,AccFast,22,18,Woman,Right,
9,15,1,1.1012925000013638,['c'],1,left,['u'],0,0.09389589999955206,0.4,0,0,AccFast,22,18,Woman,Right,
10,15,1,0.48481920000085665,['n'],1,right,['u'],0,0.1054532999987714,0.4,0,0,AccFast,22,18,Woman,Right,
11,15,1,0.6504550999998173,['c'],1,left,['u'],0,0.09359799999947427,0.4,0,0,AccFast,22,18,Woman,Right,
12,15,1,0.5505032000000938,['n'],0,left,['u'],0,0.08715160000065225,0.4,1,0,AccFast,22,18,Woman,Right,
13,15,1,0.8011024000006728,['n'],0,left,['u'],0,0.19729410000036296,0.1,1,0,AccFast,22,18,Woman,Right,
14,15,1,0.8348230999999942,['n'],0,left,['u'],0,0.11065729999972973,0.4,1,0,AccFast,22,18,Woman,Right,
15,15,1,0.5341590999996697,['n'],1,right,['u'],0,0.1352532999990217,0.2,0,0,AccFast,22,18,Woman,Right,
16,15,1,0.9499476999990293,['n'],1,right,['u'],0,0.1429723000001104,0.1,0,0,AccFast,22,18,Woman,Right,
17,15,1,0.6837770999991335,['n'],1,right,['u'],0,0.1598837999990792,0.4,0,0,AccFast,22,18,Woman,Right,
18,15,1,0.6843429000000469,['c'],1,left,['u'],0,0.11313679999875603,0.4,0,0,AccFast,22,18,Woman,Right,
19,15,1,0.7168106000008265,['n'],0,left,['u'],0,0.06622539999989385,0.4,1,0,AccFast,22,18,Woman,Right,
20,15,1,0.5674973999994108,['n'],1,right,['u'],0,0.1388475000003382,0.2,0,0,AccFast,22,18,Woman,Right,
21,15,1,0.8997724000000744,['n'],0,left,['u'],0,0.13247170000067854,0.1,1,0,AccFast,22,18,Woman,Right,
22,15,1,0.5492042000005313,['n'],1,right,['u'],0,0.027500700000018696,0.4,0,0,AccFast,22,18,Woman,Right,
23,15,1,0.6670159999994212,['n'],0,left,['u'],0,0.0818223999995098,0.1,1,0,AccFast,22,18,Woman,Right,
24,15,1,0.5014847000002192,['n'],1,right,['u'],0,0.09239920000072743,0.1,0,0,AccFast,22,18,Woman,Right,
25,15,1,0.6681079000009049,['n'],1,right,['u'],0,0.11280729999998584,0.1,0,0,AccFast,22,18,Woman,Right,
26,15,1,0.6676429999988613,['n'],0,left,['u'],0,0.09958569999980682,0.4,1,0,AccFast,22,18,Woman,Right,
27,15,1,0.5350312999999005,['n'],0,left,['u'],0,0.12489880000066478,0.2,1,0,AccFast,22,18,Woman,Right,
28,15,1,0.48439909999979136,['n'],1,right,['u'],0,0.11884809999901336,0.4,0,0,AccFast,22,18,Woman,Right,
29,15,1,0.5337166999997862,['n'],0,left,['u'],0,0.09525159999975585,0.2,1,0,AccFast,22,18,Woman,Right,
30,15,1,0.46541400000023714,['n'],1,right,['u'],0,0.10800489999928686,0.1,0,0,AccFast,22,18,Woman,Right,
31,15,1,0.5670604999995703,['n'],1,right,['u'],0,0.0993415000011737,0.4,0,0,AccFast,22,18,Woman,Right,
32,15,1,0.5335391999997228,['n'],1,right,['u'],0,0.12342770000032033,0.1,0,0,AccFast,22,18,Woman,Right,
33,15,1,0.3514424999993935,['n'],1,right,['u'],0,0.10693499999979394,0.2,0,0,AccFast,22,18,Woman,Right,
34,15,1,0.4830041000004712,['n'],1,right,['u'],0,0.11869130000013683,0.4,0,0,AccFast,22,18,Woman,Right,
35,15,1,0.3182041999989451,['n'],1,right,['u'],0,0.1187153999999282,0.2,0,0,AccFast,22,18,Woman,Right,
36,15,1,0.4343562000012753,['n'],1,right,['u'],0,0.06796819999908621,0.4,0,0,AccFast,22,18,Woman,Right,
37,15,1,0.7335044999999809,['c'],1,left,['u'],0,0.7890070000012201,0.1,0,0,AccFast,22,18,Woman,Right,
38,15,1,0.5011035999996238,['n'],1,right,['u'],0,0.10098939999988943,0.2,0,0,AccFast,22,18,Woman,Right,
39,15,1,0.7184476000002178,['n'],0,left,['u'],0,0.11761899999874004,0.1,1,0,AccFast,22,18,Woman,Right,
40,15,1,0.7821076000000176,['c'],1,left,['u'],0,0.11688230000072508,0.4,0,0,AccFast,22,18,Woman,Right,
41,15,1,0.7829209999999875,['n'],1,right,['u'],0,0.16320559999985562,0.2,0,0,AccFast,22,18,Woman,Right,
42,15,1,1.018383200000244,['c'],1,left,['u'],0,0.13315070000135165,0.4,0,0,AccFast,22,18,Woman,Right,
43,15,1,0.6164867999996204,['n'],0,left,['u'],0,0.12130170000091312,0.1,1,0,AccFast,22,18,Woman,Right,
44,15,1,0.766719600000215,['n'],0,left,['u'],0,0.15290380000078585,0.1,1,0,AccFast,22,18,Woman,Right,
45,15,1,1.2676473000010446,['n'],0,left,['u'],0,0.14591610000024957,0.1,1,0,AccFast,22,18,Woman,Right,
46,15,1,0.8672354999998788,['n'],1,right,['u'],0,0.13962339999852702,0.1,0,0,AccFast,22,18,Woman,Right,
47,15,1,1.0673158999998122,['n'],0,left,['u'],0,0.09408590000020922,0.2,1,0,AccFast,22,18,Woman,Right,
48,15,1,0.784926500000438,['n'],1,right,['u'],0,0.09425080000073649,0.1,0,0,AccFast,22,18,Woman,Right,
49,15,1,0.9509352000004583,['n'],1,right,['u'],0,0.10276620000149705,0.2,0,0,AccFast,22,18,Woman,Right,
50,15,1,0.9513589999987744,['n'],1,right,['u'],0,0.04673490000095626,0.2,0,0,AccFast,22,18,Woman,Right,
51,15,1,1.0498711000000185,['n'],0,left,['u'],0,0.03822359999867331,0.4,1,0,AccFast,22,18,Woman,Right,
52,15,1,0.8841370000009192,['n'],0,left,['u'],0,0.09877969999979541,0.2,1,0,AccFast,22,18,Woman,Right,
53,15,1,0.7512836999994761,['n'],0,left,['u'],0,0.14710310000009486,0.1,1,0,AccFast,22,18,Woman,Right,
54,15,1,0.5008374999997613,['n'],1,right,['u'],0,0.07619619999968563,0.2,0,0,AccFast,22,18,Woman,Right,
55,15,1,0.7498586000001524,['n'],0,left,['u'],0,0.12482500000078289,0.1,1,0,AccFast,22,18,Woman,Right,
56,15,1,0.8995573000011063,['n'],0,left,['u'],0,0.1512203000002046,0.1,1,0,AccFast,22,18,Woman,Right,
57,15,1,0.7841852999990806,['n'],0,left,['u'],0,0.052709500001583365,0.4,1,0,AccFast,22,18,Woman,Right,
58,15,1,0.785054099998888,['n'],1,right,['u'],0,0.0685685000007652,0.2,0,0,AccFast,22,18,Woman,Right,
59,15,1,0.567056899999443,['n'],0,left,['u'],0,0.06192190000001574,0.2,1,0,AccFast,22,18,Woman,Right,
