withinblocktrial,block,block_repetition,rt,resp,cor,cresp,conf_press,cj,rtconf,coherence,metacognition,slow_trial,manipulation,sub,age,gender,handedness,
0,1,1,3.4170109999995475,['n'],1,right,none,-99,-99,0.5,-99,0,none,23,17,Woman,Right,
1,1,1,2.0336310000002413,['c'],0,right,none,-99,-99,0.5,-99,0,none,23,17,Woman,Right,
2,1,1,1.9332368000004863,['n'],1,right,none,-99,-99,0.5,-99,0,none,23,17,Woman,Right,
3,1,1,1.8839515999998184,['c'],0,right,none,-99,-99,0.5,-99,0,none,23,17,Woman,Right,
4,1,1,1.56646389999878,['n'],1,right,none,-99,-99,0.5,-99,0,none,23,17,Woman,Right,
5,1,1,1.0325539000004937,['c'],1,left,none,-99,-99,0.5,-99,0,none,23,17,Woman,Right,
6,1,1,1.1001565999995364,['c'],1,left,none,-99,-99,0.5,-99,0,none,23,17,Woman,Right,
7,1,1,1.7332662000007986,['n'],0,left,none,-99,-99,0.5,-99,0,none,23,17,Woman,Right,
8,1,1,1.0658277000002272,['c'],1,left,none,-99,-99,0.5,-99,0,none,23,17,Woman,Right,
9,1,1,0.8845977000000858,['n'],1,right,none,-99,-99,0.5,-99,0,none,23,17,Woman,Right,
10,1,1,2.3332869999994728,['n'],1,right,none,-99,-99,0.5,-99,0,none,23,17,Woman,Right,
11,1,1,1.184285600000294,['c'],1,left,none,-99,-99,0.5,-99,0,none,23,17,Woman,Right,
12,1,1,2.6493322999995144,['n'],1,right,none,-99,-99,0.5,-99,0,none,23,17,Woman,Right,
13,1,1,2.1170638000003237,['c'],0,right,none,-99,-99,0.5,-99,0,none,23,17,Woman,Right,
14,1,1,1.500350399999661,['n'],0,left,none,-99,-99,0.5,-99,0,none,23,17,Woman,Right,
15,1,1,1.6172511000004306,['c'],1,left,none,-99,-99,0.5,-99,0,none,23,17,Woman,Right,
16,1,1,1.6666710999998031,['c'],0,right,none,-99,-99,0.5,-99,0,none,23,17,Woman,Right,
17,1,1,1.2839289000003191,['c'],1,left,none,-99,-99,0.5,-99,0,none,23,17,Woman,Right,
18,1,1,2.817177900000388,['n'],1,right,none,-99,-99,0.5,-99,0,none,23,17,Woman,Right,
19,1,1,0.6838416000009602,['c'],1,left,none,-99,-99,0.5,-99,0,none,23,17,Woman,Right,
20,1,1,0.6149898000003304,['c'],1,left,none,-99,-99,0.5,-99,0,none,23,17,Woman,Right,
21,1,1,2.3180361000013363,['c'],1,left,none,-99,-99,0.5,-99,0,none,23,17,Woman,Right,
22,1,1,2.834310500000356,['c'],1,left,none,-99,-99,0.5,-99,0,none,23,17,Woman,Right,
23,1,1,1.4991327999996429,['c'],0,right,none,-99,-99,0.5,-99,0,none,23,17,Woman,Right,
0,1,2,1.0173236999999062,['n'],1,right,none,-99,-99,0.5,-99,0,none,23,17,Woman,Right,
1,1,2,2.050629100000151,['n'],1,right,none,-99,-99,0.5,-99,0,none,23,17,Woman,Right,
2,1,2,0.7512905000003229,['c'],1,left,none,-99,-99,0.5,-99,0,none,23,17,Woman,Right,
3,1,2,0.6669941000000108,['c'],1,left,none,-99,-99,0.5,-99,0,none,23,17,Woman,Right,
4,1,2,0.7848249999988184,['c'],1,left,none,-99,-99,0.5,-99,0,none,23,17,Woman,Right,
5,1,2,1.1676931000001787,['n'],1,right,none,-99,-99,0.5,-99,0,none,23,17,Woman,Right,
6,1,2,0.8332330000012007,['n'],1,right,none,-99,-99,0.5,-99,0,none,23,17,Woman,Right,
7,1,2,0.6330703000003268,['c'],1,left,none,-99,-99,0.5,-99,0,none,23,17,Woman,Right,
8,1,2,0.5664299000000028,['c'],1,left,none,-99,-99,0.5,-99,0,none,23,17,Woman,Right,
9,1,2,0.4503432999990764,['n'],1,right,none,-99,-99,0.5,-99,0,none,23,17,Woman,Right,
10,1,2,1.0177982000004704,['c'],0,right,none,-99,-99,0.5,-99,0,none,23,17,Woman,Right,
11,1,2,0.6671389000002819,['n'],1,right,none,-99,-99,0.5,-99,0,none,23,17,Woman,Right,
12,1,2,0.5986709000007977,['c'],1,left,none,-99,-99,0.5,-99,0,none,23,17,Woman,Right,
13,1,2,0.8659131000003981,['c'],1,left,none,-99,-99,0.5,-99,0,none,23,17,Woman,Right,
14,1,2,0.9340378000015335,['n'],1,right,none,-99,-99,0.5,-99,0,none,23,17,Woman,Right,
15,1,2,0.5178185000004305,['c'],1,left,none,-99,-99,0.5,-99,0,none,23,17,Woman,Right,
16,1,2,0.6838975999999093,['c'],0,right,none,-99,-99,0.5,-99,0,none,23,17,Woman,Right,
17,1,2,0.6011347999992722,['n'],1,right,none,-99,-99,0.5,-99,0,none,23,17,Woman,Right,
18,1,2,0.8507478999999876,['c'],0,right,none,-99,-99,0.5,-99,0,none,23,17,Woman,Right,
19,1,2,0.6010098999995535,['c'],1,left,none,-99,-99,0.5,-99,0,none,23,17,Woman,Right,
20,1,2,2.183406500000274,['c'],1,left,none,-99,-99,0.5,-99,0,none,23,17,Woman,Right,
21,1,2,0.5338809000004403,['c'],1,left,none,-99,-99,0.5,-99,0,none,23,17,Woman,Right,
22,1,2,1.4002388000008068,['n'],0,left,none,-99,-99,0.5,-99,0,none,23,17,Woman,Right,
23,1,2,1.6010029999997641,['n'],1,right,none,-99,-99,0.5,-99,0,none,23,17,Woman,Right,
0,1,3,0.6346320000011474,['c'],1,left,none,-99,-99,0.5,-99,0,none,23,17,Woman,Right,
1,1,3,0.6167731000005006,['n'],1,right,none,-99,-99,0.5,-99,0,none,23,17,Woman,Right,
2,1,3,0.8503885000009177,['c'],0,right,none,-99,-99,0.5,-99,0,none,23,17,Woman,Right,
3,1,3,0.5171439000005194,['c'],1,left,none,-99,-99,0.5,-99,0,none,23,17,Woman,Right,
4,1,3,0.6172210999993695,['n'],0,left,none,-99,-99,0.5,-99,0,none,23,17,Woman,Right,
5,1,3,0.5338535999999294,['n'],1,right,none,-99,-99,0.5,-99,0,none,23,17,Woman,Right,
6,1,3,0.7171596999996837,['c'],0,right,none,-99,-99,0.5,-99,0,none,23,17,Woman,Right,
7,1,3,0.6677319999998872,['c'],1,left,none,-99,-99,0.5,-99,0,none,23,17,Woman,Right,
8,1,3,0.566560400000526,['n'],1,right,none,-99,-99,0.5,-99,0,none,23,17,Woman,Right,
9,1,3,1.6503415999995923,['c'],1,left,none,-99,-99,0.5,-99,0,none,23,17,Woman,Right,
10,1,3,1.5835765000010724,['n'],1,right,none,-99,-99,0.5,-99,0,none,23,17,Woman,Right,
11,1,3,1.3179389999986597,['c'],0,right,none,-99,-99,0.5,-99,0,none,23,17,Woman,Right,
12,1,3,0.9844235000000481,['c'],1,left,none,-99,-99,0.5,-99,0,none,23,17,Woman,Right,
13,1,3,0.833434699999998,['c'],1,left,none,-99,-99,0.5,-99,0,none,23,17,Woman,Right,
14,1,3,1.7677690000000439,['n'],0,left,none,-99,-99,0.5,-99,0,none,23,17,Woman,Right,
15,1,3,2.700340099998357,['c'],1,left,none,-99,-99,0.5,-99,0,none,23,17,Woman,Right,
16,1,3,1.4669462999991083,['c'],0,right,none,-99,-99,0.5,-99,0,none,23,17,Woman,Right,
17,1,3,0.71707029999925,['n'],1,right,none,-99,-99,0.5,-99,0,none,23,17,Woman,Right,
18,1,3,1.4498506999989331,['n'],1,right,none,-99,-99,0.5,-99,0,none,23,17,Woman,Right,
19,1,3,1.0835392999997566,['c'],1,left,none,-99,-99,0.5,-99,0,none,23,17,Woman,Right,
20,1,3,0.800023699999656,['n'],1,right,none,-99,-99,0.5,-99,0,none,23,17,Woman,Right,
21,1,3,1.0347146000003704,['c'],1,left,none,-99,-99,0.5,-99,0,none,23,17,Woman,Right,
22,1,3,0.8500423999994382,['n'],1,right,none,-99,-99,0.5,-99,0,none,23,17,Woman,Right,
23,1,3,0.6667444999984582,['c'],1,left,none,-99,-99,0.5,-99,0,none,23,17,Woman,Right,
0,1,4,1.2678684999991674,['c'],1,left,none,-99,-99,0.5,-99,0,none,23,17,Woman,Right,
1,1,4,0.632849300000089,['c'],1,left,none,-99,-99,0.5,-99,0,none,23,17,Woman,Right,
2,1,4,0.63217319999967,['n'],1,right,none,-99,-99,0.5,-99,0,none,23,17,Woman,Right,
3,1,4,0.4500836999995954,['c'],1,left,none,-99,-99,0.5,-99,0,none,23,17,Woman,Right,
4,1,4,0.6337851000007504,['n'],1,right,none,-99,-99,0.5,-99,0,none,23,17,Woman,Right,
5,1,4,0.6507430999990902,['n'],1,right,none,-99,-99,0.5,-99,0,none,23,17,Woman,Right,
6,1,4,0.5998090000011871,['c'],1,left,none,-99,-99,0.5,-99,0,none,23,17,Woman,Right,
7,1,4,0.8835213999991538,['c'],1,left,none,-99,-99,0.5,-99,0,none,23,17,Woman,Right,
8,1,4,0.8510791999997309,['c'],1,left,none,-99,-99,0.5,-99,0,none,23,17,Woman,Right,
9,1,4,0.5844436999996105,['c'],1,left,none,-99,-99,0.5,-99,0,none,23,17,Woman,Right,
10,1,4,0.5176708999988477,['n'],1,right,none,-99,-99,0.5,-99,0,none,23,17,Woman,Right,
11,1,4,0.5516694999987521,['n'],1,right,none,-99,-99,0.5,-99,0,none,23,17,Woman,Right,
12,1,4,0.5832602999998926,['c'],1,left,none,-99,-99,0.5,-99,0,none,23,17,Woman,Right,
13,1,4,0.7005418999997346,['c'],1,left,none,-99,-99,0.5,-99,0,none,23,17,Woman,Right,
14,1,4,0.5833659999989322,['n'],1,right,none,-99,-99,0.5,-99,0,none,23,17,Woman,Right,
15,1,4,0.5170659999985219,['n'],1,right,none,-99,-99,0.5,-99,0,none,23,17,Woman,Right,
16,1,4,0.6005504000004294,['c'],1,left,none,-99,-99,0.5,-99,0,none,23,17,Woman,Right,
17,1,4,0.5339036999994278,['n'],1,right,none,-99,-99,0.5,-99,0,none,23,17,Woman,Right,
18,1,4,0.7500104999999166,['n'],1,right,none,-99,-99,0.5,-99,0,none,23,17,Woman,Right,
19,1,4,0.4675886000004539,['c'],1,left,none,-99,-99,0.5,-99,0,none,23,17,Woman,Right,
20,1,4,0.48327790000075765,['n'],1,right,none,-99,-99,0.5,-99,0,none,23,17,Woman,Right,
21,1,4,0.55120800000077,['n'],1,right,none,-99,-99,0.5,-99,0,none,23,17,Woman,Right,
22,1,4,0.4502819000008458,['c'],1,left,none,-99,-99,0.5,-99,0,none,23,17,Woman,Right,
23,1,4,0.4837384000002203,['n'],1,right,none,-99,-99,0.5,-99,0,none,23,17,Woman,Right,
0,2,1,1.601243400000385,['c'],0,right,none,-99,-99,0.2,-99,0,none,23,17,Woman,Right,
1,2,1,0.46666170000025886,['n'],0,left,none,-99,-99,0.1,-99,0,none,23,17,Woman,Right,
2,2,1,1.3177739000002475,['c'],0,right,none,-99,-99,0.1,-99,0,none,23,17,Woman,Right,
3,2,1,1.9000052999999753,['n'],0,left,none,-99,-99,0.2,-99,0,none,23,17,Woman,Right,
4,2,1,1.4833940000007715,['c'],0,right,none,-99,-99,0.2,-99,0,none,23,17,Woman,Right,
5,2,1,1.6832040999997844,['n'],0,left,none,-99,-99,0.4,-99,0,none,23,17,Woman,Right,
6,2,1,1.5842467000002216,['c'],1,left,none,-99,-99,0.1,-99,0,none,23,17,Woman,Right,
7,2,1,1.4166729000007763,['c'],1,left,none,-99,-99,0.4,-99,0,none,23,17,Woman,Right,
8,2,1,1.3677296999994724,['c'],1,left,none,-99,-99,0.4,-99,0,none,23,17,Woman,Right,
9,2,1,1.650993400000516,['c'],1,left,none,-99,-99,0.2,-99,0,none,23,17,Woman,Right,
10,2,1,1.2836287000009179,['c'],0,right,none,-99,-99,0.2,-99,0,none,23,17,Woman,Right,
11,2,1,1.0004950000002282,['c'],0,right,none,-99,-99,0.1,-99,0,none,23,17,Woman,Right,
12,2,1,2.0679235000006884,['c'],1,left,none,-99,-99,0.2,-99,0,none,23,17,Woman,Right,
13,2,1,0.6502665000007255,['n'],1,right,none,-99,-99,0.1,-99,0,none,23,17,Woman,Right,
14,2,1,1.2350783999991108,['n'],0,left,none,-99,-99,0.4,-99,0,none,23,17,Woman,Right,
15,2,1,0.6666189999996277,['n'],1,right,none,-99,-99,0.4,-99,0,none,23,17,Woman,Right,
16,2,1,0.6174592999996094,['n'],1,right,none,-99,-99,0.1,-99,0,none,23,17,Woman,Right,
17,2,1,0.7002405999992334,['c'],0,right,none,-99,-99,0.1,-99,0,none,23,17,Woman,Right,
18,2,1,1.1833145999989938,['c'],1,left,none,-99,-99,0.2,-99,0,none,23,17,Woman,Right,
19,2,1,0.934658500000296,['n'],1,right,none,-99,-99,0.1,-99,0,none,23,17,Woman,Right,
20,2,1,0.667381999999634,['n'],1,right,none,-99,-99,0.2,-99,0,none,23,17,Woman,Right,
21,2,1,0.5177715999998327,['c'],1,left,none,-99,-99,0.4,-99,0,none,23,17,Woman,Right,
22,2,1,0.8837920999994822,['c'],1,left,none,-99,-99,0.4,-99,0,none,23,17,Woman,Right,
23,2,1,0.5509738000000652,['n'],1,right,none,-99,-99,0.4,-99,0,none,23,17,Woman,Right,
0,2,2,0.9843537999986438,['c'],1,left,none,-99,-99,0.2,-99,0,none,23,17,Woman,Right,
1,2,2,0.917018600001029,['c'],1,left,none,-99,-99,0.1,-99,0,none,23,17,Woman,Right,
2,2,2,1.2503424000005907,['n'],0,left,none,-99,-99,0.1,-99,0,none,23,17,Woman,Right,
3,2,2,0.7004811000006157,['n'],1,right,none,-99,-99,0.2,-99,0,none,23,17,Woman,Right,
4,2,2,0.5852878999994573,['c'],1,left,none,-99,-99,0.2,-99,0,none,23,17,Woman,Right,
5,2,2,0.584358299998712,['c'],1,left,none,-99,-99,0.4,-99,0,none,23,17,Woman,Right,
6,2,2,0.6011605000003328,['n'],1,right,none,-99,-99,0.1,-99,0,none,23,17,Woman,Right,
7,2,2,0.6009227000013198,['n'],1,right,none,-99,-99,0.4,-99,0,none,23,17,Woman,Right,
8,2,2,1.150420199999644,['c'],0,right,none,-99,-99,0.4,-99,0,none,23,17,Woman,Right,
9,2,2,0.5832735000003595,['n'],1,right,none,-99,-99,0.2,-99,0,none,23,17,Woman,Right,
10,2,2,0.7176024000000325,['n'],1,right,none,-99,-99,0.2,-99,0,none,23,17,Woman,Right,
11,2,2,0.7177226000003429,['c'],0,right,none,-99,-99,0.1,-99,0,none,23,17,Woman,Right,
12,2,2,1.2661412999987078,['c'],1,left,none,-99,-99,0.2,-99,0,none,23,17,Woman,Right,
13,2,2,1.1664174000015919,['c'],1,left,none,-99,-99,0.1,-99,0,none,23,17,Woman,Right,
14,2,2,1.049823600000309,['c'],1,left,none,-99,-99,0.4,-99,0,none,23,17,Woman,Right,
15,2,2,0.8832877999993798,['c'],1,left,none,-99,-99,0.4,-99,0,none,23,17,Woman,Right,
16,2,2,1.0002779999995255,['n'],1,right,none,-99,-99,0.1,-99,0,none,23,17,Woman,Right,
17,2,2,1.8506211000003532,['n'],0,left,none,-99,-99,0.1,-99,0,none,23,17,Woman,Right,
18,2,2,1.1510430999987875,['n'],1,right,none,-99,-99,0.2,-99,0,none,23,17,Woman,Right,
19,2,2,0.6502540000001318,['c'],0,right,none,-99,-99,0.1,-99,0,none,23,17,Woman,Right,
20,2,2,0.7160086999992927,['c'],1,left,none,-99,-99,0.2,-99,0,none,23,17,Woman,Right,
21,2,2,0.7509030000001076,['n'],1,right,none,-99,-99,0.4,-99,0,none,23,17,Woman,Right,
22,2,2,0.7664559000004374,['c'],1,left,none,-99,-99,0.4,-99,0,none,23,17,Woman,Right,
23,2,2,0.6506419999986974,['n'],1,right,none,-99,-99,0.4,-99,0,none,23,17,Woman,Right,
0,3,1,2.0337041999991925,['n'],1,right,['u'],1,2.991573300001619,0.4,1,0,none,23,17,Woman,Right,
1,3,1,2.6514055999996344,['c'],0,right,['u'],1,2.3410578000002715,0.1,0,0,none,23,17,Woman,Right,
2,3,1,2.766933799999606,['n'],0,left,['e'],0,0.7516353000009985,0.2,1,0,none,23,17,Woman,Right,
3,3,1,1.3012608000008186,['n'],1,right,['u'],1,0.6440002999988792,0.2,1,0,none,23,17,Woman,Right,
4,3,1,2.450729299998784,['c'],0,right,['e'],0,0.6870855999986816,0.4,1,0,none,23,17,Woman,Right,
5,3,1,2.733640700000251,['n'],0,left,['u'],1,0.3486947000001237,0.1,0,0,none,23,17,Woman,Right,
6,3,1,1.2019323000004078,['c'],1,left,['u'],1,0.485068300000421,0.2,1,0,none,23,17,Woman,Right,
7,3,1,5.000095800000054,x,-99,left,none,-99,-99,0.4,-99,1,none,23,17,Woman,Right,
8,3,1,1.6670109999995475,['n'],0,left,['u'],1,0.484211700000742,0.1,0,0,none,23,17,Woman,Right,
9,3,1,1.5181466000012733,['c'],0,right,['u'],1,0.41054869999970833,0.2,0,0,none,23,17,Woman,Right,
10,3,1,1.1162223999999696,['c'],1,left,['u'],1,0.37237329999879876,0.2,1,0,none,23,17,Woman,Right,
11,3,1,1.5509897000010824,['c'],1,left,['u'],1,0.2536336000011943,0.1,1,0,none,23,17,Woman,Right,
12,3,1,1.0013628999986395,['n'],1,right,['u'],1,0.2904863999992813,0.1,1,0,none,23,17,Woman,Right,
13,3,1,0.9011441000002378,['n'],0,left,['u'],1,0.2967279000004055,0.4,0,0,none,23,17,Woman,Right,
14,3,1,2.0509657000002335,['n'],1,right,['e'],0,0.36904109999886714,0.1,0,0,none,23,17,Woman,Right,
15,3,1,2.1514709000002767,['c'],0,right,['u'],1,0.43478479999976116,0.1,0,0,none,23,17,Woman,Right,
16,3,1,0.9679653000002872,['n'],1,right,['u'],1,0.28882119999980205,0.4,1,0,none,23,17,Woman,Right,
17,3,1,1.883611600000222,['c'],1,left,['e'],0,0.5125084999999672,0.1,0,0,none,23,17,Woman,Right,
18,3,1,1.4844665000000532,['c'],0,right,['u'],1,0.31067719999919063,0.2,0,0,none,23,17,Woman,Right,
19,3,1,1.7186461000001145,['n'],1,right,['u'],1,0.509244499999113,0.4,1,0,none,23,17,Woman,Right,
20,3,1,2.6178698999992775,['c'],0,right,['e'],0,0.39032119999865245,0.4,1,0,none,23,17,Woman,Right,
21,3,1,2.2844375999993645,['n'],0,left,['e'],0,0.41797009999936563,0.4,1,0,none,23,17,Woman,Right,
22,3,1,1.2344752999997581,['c'],1,left,['u'],1,0.2942027000008238,0.2,1,0,none,23,17,Woman,Right,
23,3,1,2.3333272999989276,['c'],1,left,['u'],1,0.420231000000058,0.2,1,0,none,23,17,Woman,Right,
0,4,1,2.6839644000010594,['n'],1,right,['u'],1,1.893982399999004,0.2,1,0,AccAcc,23,17,Woman,Right,
1,4,1,2.200976100000844,['c'],1,left,['u'],1,0.9010398000009445,0.4,1,0,AccAcc,23,17,Woman,Right,
2,4,1,2.533765099999073,['c'],1,left,['e'],0,0.9742034999999305,0.1,0,0,AccAcc,23,17,Woman,Right,
3,4,1,3.383457100000669,['c'],0,right,['e'],0,1.250762300000133,0.2,1,0,AccAcc,23,17,Woman,Right,
4,4,1,2.1167230999999447,['n'],1,right,['u'],1,0.7351463000013609,0.1,1,0,AccAcc,23,17,Woman,Right,
5,4,1,1.7009123000007094,['c'],1,left,['u'],1,0.3997252999997727,0.1,1,0,AccAcc,23,17,Woman,Right,
6,4,1,2.4181257000000187,['c'],1,left,['e'],0,0.5452852999987954,0.2,0,0,AccAcc,23,17,Woman,Right,
7,4,1,2.4348498999988806,['c'],1,left,['u'],1,0.4924784999984695,0.4,1,0,AccAcc,23,17,Woman,Right,
8,4,1,1.0512238999999681,['n'],1,right,['u'],1,0.8175081999997929,0.1,1,0,AccAcc,23,17,Woman,Right,
9,4,1,1.9009203999994497,['n'],1,right,['u'],1,0.9511089999996329,0.4,1,0,AccAcc,23,17,Woman,Right,
10,4,1,2.133656800000608,['c'],1,left,['u'],1,0.4943829000003461,0.1,1,0,AccAcc,23,17,Woman,Right,
11,4,1,2.8330012999995233,['c'],0,right,['e'],0,0.397368899999492,0.1,1,0,AccAcc,23,17,Woman,Right,
12,4,1,1.1340170000003127,['n'],1,right,['u'],1,0.4653683999986242,0.4,1,0,AccAcc,23,17,Woman,Right,
13,4,1,2.3175965000009455,['c'],1,left,['e'],0,0.4042661000003136,0.1,0,0,AccAcc,23,17,Woman,Right,
14,4,1,2.6003860000000714,['n'],1,right,['e'],0,0.6704671000006783,0.1,0,0,AccAcc,23,17,Woman,Right,
15,4,1,1.2842753999993874,['n'],1,right,['u'],1,0.5470012999994651,0.2,1,0,AccAcc,23,17,Woman,Right,
16,4,1,1.0516322999992553,['c'],1,left,['u'],1,0.53334729999915,0.1,1,0,AccAcc,23,17,Woman,Right,
17,4,1,0.9511873999999807,['c'],1,left,['u'],1,0.4120534999983647,0.1,1,0,AccAcc,23,17,Woman,Right,
18,4,1,1.1847066000009363,['c'],1,left,['u'],1,0.7504621999996743,0.4,1,0,AccAcc,23,17,Woman,Right,
19,4,1,2.0669135000007373,['n'],0,left,['e'],0,0.5923984999990353,0.1,1,0,AccAcc,23,17,Woman,Right,
20,4,1,2.267565399999512,['c'],0,right,['e'],0,0.5286388999993505,0.2,1,0,AccAcc,23,17,Woman,Right,
21,4,1,1.3160989000007248,['c'],1,left,['u'],1,0.6177733000004082,0.2,1,0,AccAcc,23,17,Woman,Right,
22,4,1,2.067058700000416,['c'],1,left,['e'],0,0.655950300000768,0.2,0,0,AccAcc,23,17,Woman,Right,
23,4,1,3.3507321999986743,['n'],0,left,['e'],0,0.5624741999999969,0.1,1,0,AccAcc,23,17,Woman,Right,
24,4,1,2.6009912000008626,['n'],0,left,['e'],0,0.8709210000015446,0.1,1,0,AccAcc,23,17,Woman,Right,
25,4,1,1.8843680000009044,['n'],1,right,['u'],1,0.5387761000001774,0.4,1,0,AccAcc,23,17,Woman,Right,
26,4,1,0.8510851000010007,['n'],1,right,['u'],1,0.3576635000008537,0.4,1,0,AccAcc,23,17,Woman,Right,
27,4,1,0.9012167000000773,['c'],1,left,['u'],1,0.40608570000040345,0.4,1,0,AccAcc,23,17,Woman,Right,
28,4,1,1.0838803999995434,['n'],1,right,['u'],1,0.5089140999989468,0.2,1,0,AccAcc,23,17,Woman,Right,
29,4,1,0.9680644000000029,['c'],1,left,['u'],1,0.5326281999987259,0.4,1,0,AccAcc,23,17,Woman,Right,
30,4,1,0.7011163000006491,['n'],1,right,['u'],1,0.5021987000000081,0.2,1,0,AccAcc,23,17,Woman,Right,
31,4,1,1.4674881999999343,['n'],1,right,['e'],0,0.537289800000508,0.4,0,0,AccAcc,23,17,Woman,Right,
32,4,1,0.8345269000001281,['c'],1,left,['u'],1,0.356787800001257,0.1,1,0,AccAcc,23,17,Woman,Right,
33,4,1,0.6670407000001433,['n'],1,right,['u'],1,0.4463479999994888,0.2,1,0,AccAcc,23,17,Woman,Right,
34,4,1,1.9008102999996481,['n'],1,right,['u'],1,0.4826162999997905,0.4,1,0,AccAcc,23,17,Woman,Right,
35,4,1,1.6334650999997393,['c'],0,right,['e'],0,0.3531284999990021,0.2,1,0,AccAcc,23,17,Woman,Right,
36,4,1,0.8348716000000422,['c'],1,left,['u'],1,0.4513191000005463,0.2,1,0,AccAcc,23,17,Woman,Right,
37,4,1,2.1163200000009965,['c'],1,left,['e'],0,0.6078054000008706,0.2,0,0,AccAcc,23,17,Woman,Right,
38,4,1,1.5676426000009087,['c'],1,left,['u'],1,0.3949432000008528,0.4,1,0,AccAcc,23,17,Woman,Right,
39,4,1,1.5343217000008735,['n'],1,right,['e'],0,0.6887415000001056,0.2,0,0,AccAcc,23,17,Woman,Right,
40,4,1,1.701176000000487,['c'],1,left,['u'],1,0.691672799999651,0.1,1,0,AccAcc,23,17,Woman,Right,
41,4,1,1.6499891000003117,['n'],1,right,['e'],0,0.6171938000006776,0.4,0,0,AccAcc,23,17,Woman,Right,
42,4,1,2.0329437000000325,['c'],0,right,['e'],0,0.5295132999999623,0.4,1,0,AccAcc,23,17,Woman,Right,
43,4,1,2.000202999999601,['n'],1,right,['e'],0,0.7185283999988314,0.2,0,0,AccAcc,23,17,Woman,Right,
44,4,1,1.7841463000004296,['c'],1,left,['e'],0,0.6523575000010169,0.1,0,0,AccAcc,23,17,Woman,Right,
45,4,1,2.334248999999545,['c'],0,right,['e'],0,0.45555939999940165,0.1,1,0,AccAcc,23,17,Woman,Right,
46,4,1,3.467542299998968,['c'],1,left,['e'],0,0.3817586000004667,0.1,0,0,AccAcc,23,17,Woman,Right,
47,4,1,2.1506508000002214,['n'],1,right,['u'],1,0.7150619000003644,0.1,1,0,AccAcc,23,17,Woman,Right,
48,4,1,1.3842807999990328,['c'],1,left,['u'],1,0.44087820000095235,0.4,1,0,AccAcc,23,17,Woman,Right,
49,4,1,3.48465749999923,['c'],0,right,['e'],0,0.49537559999953373,0.2,1,0,AccAcc,23,17,Woman,Right,
50,4,1,0.6509789000010642,['n'],1,right,['u'],1,0.4675545999998576,0.4,1,0,AccAcc,23,17,Woman,Right,
51,4,1,2.083372099999906,['c'],0,right,['e'],0,0.4318697999988217,0.2,1,0,AccAcc,23,17,Woman,Right,
52,4,1,1.6013543000008212,['c'],1,left,['u'],1,0.8488708000004408,0.2,1,0,AccAcc,23,17,Woman,Right,
53,4,1,1.4166683999992529,['c'],1,left,['u'],1,0.553254399999787,0.4,1,0,AccAcc,23,17,Woman,Right,
54,4,1,2.350532899999962,['c'],0,right,['e'],0,0.5030731000006199,0.2,1,0,AccAcc,23,17,Woman,Right,
55,4,1,1.6501245999988896,['c'],1,left,['e'],0,0.9154195000010077,0.2,0,0,AccAcc,23,17,Woman,Right,
56,4,1,1.6337791999994806,['c'],0,right,['e'],0,0.49589000000014494,0.4,1,0,AccAcc,23,17,Woman,Right,
57,4,1,3.150282900000093,['c'],1,left,['u'],1,0.3843293999998423,0.4,1,0,AccAcc,23,17,Woman,Right,
58,4,1,0.7848899999989953,['c'],1,left,['u'],1,0.29172079999989364,0.4,1,0,AccAcc,23,17,Woman,Right,
59,4,1,1.6013368999992963,['n'],1,right,['u'],1,0.410801400001219,0.1,1,0,AccAcc,23,17,Woman,Right,
0,5,1,1.318058299999393,['c'],0,right,['u'],1,1.7021936000001006,0.2,0,0,FastAcc,23,17,Woman,Right,
1,5,1,0.4511189999993803,['n'],1,right,['u'],1,0.802630300000601,0.2,1,0,FastAcc,23,17,Woman,Right,
2,5,1,0.38460099999974773,['c'],1,left,['u'],1,0.6616191000011895,0.4,1,0,FastAcc,23,17,Woman,Right,
3,5,1,0.5016496999996889,['n'],1,right,['u'],1,0.6019656999997096,0.2,1,0,FastAcc,23,17,Woman,Right,
4,5,1,1.267614299998968,['c'],0,right,['e'],0,0.6095095000000583,0.4,1,0,FastAcc,23,17,Woman,Right,
5,5,1,0.8009400999999343,['c'],1,left,['e'],0,1.1157486000010977,0.4,0,0,FastAcc,23,17,Woman,Right,
6,5,1,1.601540700001351,['c'],1,left,['e'],0,0.46559289999822795,0.4,0,0,FastAcc,23,17,Woman,Right,
7,5,1,0.9012544999986858,['c'],1,left,['u'],1,0.3170155000007071,0.2,1,0,FastAcc,23,17,Woman,Right,
8,5,1,0.7678421000000526,['n'],1,right,['e'],0,1.1246835000001738,0.1,0,0,FastAcc,23,17,Woman,Right,
9,5,1,0.4513829000006808,['n'],1,right,['u'],1,0.5996875000000728,0.4,1,0,FastAcc,23,17,Woman,Right,
10,5,1,0.6345774000001256,['c'],0,right,['u'],1,1.2245824000001448,0.1,0,0,FastAcc,23,17,Woman,Right,
11,5,1,1.6853771999994933,['c'],1,left,['e'],0,1.4790522000002966,0.1,0,0,FastAcc,23,17,Woman,Right,
12,5,1,0.9668789999996079,['c'],0,right,['e'],0,1.2555155999998533,0.2,1,0,FastAcc,23,17,Woman,Right,
13,5,1,0.7845287000000098,['n'],0,left,['u'],1,0.6963800999983505,0.2,0,0,FastAcc,23,17,Woman,Right,
14,5,1,0.8677409000010812,['c'],0,right,['e'],0,0.9721233000000211,0.1,1,0,FastAcc,23,17,Woman,Right,
15,5,1,0.6005137000011018,['c'],1,left,['u'],1,0.4475597000000562,0.4,1,0,FastAcc,23,17,Woman,Right,
16,5,1,0.4345827000015561,['n'],0,left,['u'],1,1.3265411000011227,0.2,0,0,FastAcc,23,17,Woman,Right,
17,5,1,0.5006472000004578,['n'],1,right,['u'],1,0.8881564999992406,0.4,1,0,FastAcc,23,17,Woman,Right,
18,5,1,0.6346365000008518,['n'],1,right,['u'],1,0.9899989999994432,0.4,1,0,FastAcc,23,17,Woman,Right,
19,5,1,0.5837246999999479,['c'],1,left,['u'],1,0.9454975000007835,0.2,1,0,FastAcc,23,17,Woman,Right,
20,5,1,0.650981499999034,['n'],0,left,['u'],1,1.2838491999991675,0.2,0,0,FastAcc,23,17,Woman,Right,
21,5,1,1.1351150000009511,['c'],1,left,['e'],0,0.8533968000010645,0.1,0,0,FastAcc,23,17,Woman,Right,
22,5,1,0.8179841999990458,['c'],1,left,['u'],1,0.8531994000004488,0.1,1,0,FastAcc,23,17,Woman,Right,
23,5,1,0.6010967000001983,['n'],1,right,['u'],1,0.8135638000003382,0.2,1,0,FastAcc,23,17,Woman,Right,
24,5,1,0.6512689999999566,['c'],1,left,['u'],1,0.8370164999996632,0.1,1,0,FastAcc,23,17,Woman,Right,
25,5,1,0.6511447000011685,['n'],1,right,['u'],1,0.9399161999990611,0.1,1,0,FastAcc,23,17,Woman,Right,
26,5,1,0.5513322000006156,['c'],1,left,['u'],1,0.9151339999989432,0.1,1,0,FastAcc,23,17,Woman,Right,
27,5,1,0.5341698000011093,['n'],1,right,['u'],1,0.9394872000011674,0.2,1,0,FastAcc,23,17,Woman,Right,
28,5,1,0.6337954999999056,['c'],1,left,['u'],1,0.8309305000002496,0.1,1,0,FastAcc,23,17,Woman,Right,
29,5,1,0.8500249999997322,['n'],1,right,['u'],1,1.566450199999963,0.2,1,0,FastAcc,23,17,Woman,Right,
30,5,1,0.5844281000008777,['n'],1,right,['e'],0,0.938835700000709,0.2,0,0,FastAcc,23,17,Woman,Right,
31,5,1,0.5506084999997256,['n'],1,right,['e'],0,1.0898519000002125,0.2,0,0,FastAcc,23,17,Woman,Right,
32,5,1,0.6852777000003698,['n'],1,right,['u'],1,0.8607821999994485,0.2,1,0,FastAcc,23,17,Woman,Right,
33,5,1,0.7995154000000184,['c'],1,left,['u'],1,0.8945406000002549,0.1,1,0,FastAcc,23,17,Woman,Right,
34,5,1,1.3675814999987779,['c'],1,left,['e'],0,0.6458355999984633,0.1,0,0,FastAcc,23,17,Woman,Right,
35,5,1,0.8176311000006535,['c'],1,left,['u'],1,1.0530746999993426,0.4,1,0,FastAcc,23,17,Woman,Right,
36,5,1,0.5661298999984865,['c'],1,left,['u'],1,0.5913631000003079,0.4,1,0,FastAcc,23,17,Woman,Right,
37,5,1,0.45010419999925944,['n'],1,right,['u'],1,1.032995600000504,0.2,1,0,FastAcc,23,17,Woman,Right,
38,5,1,0.45031439999911527,['c'],1,left,['u'],1,0.7030276999994385,0.1,1,0,FastAcc,23,17,Woman,Right,
39,5,1,0.634394999999131,['c'],1,left,['u'],1,0.6517422999986593,0.4,1,0,FastAcc,23,17,Woman,Right,
40,5,1,1.45014749999973,['n'],1,right,['e'],0,0.8420089999999618,0.1,0,0,FastAcc,23,17,Woman,Right,
41,5,1,0.6840099999990343,['n'],1,right,['u'],1,0.511464999999589,0.4,1,0,FastAcc,23,17,Woman,Right,
42,5,1,0.8353932999998506,['c'],1,left,['u'],1,0.8285129000014422,0.1,1,0,FastAcc,23,17,Woman,Right,
43,5,1,0.6511753000013414,['n'],1,right,['u'],1,1.427463900001385,0.1,1,0,FastAcc,23,17,Woman,Right,
44,5,1,0.5679282000000967,['n'],0,left,['u'],1,0.6623118999996223,0.1,0,0,FastAcc,23,17,Woman,Right,
45,5,1,0.6510298000011971,['n'],1,right,['u'],1,0.9640524000005826,0.4,1,0,FastAcc,23,17,Woman,Right,
46,5,1,0.8677329000001919,['c'],0,right,['u'],1,0.5571405999999115,0.4,0,0,FastAcc,23,17,Woman,Right,
47,5,1,0.4677876000005199,['n'],1,right,['u'],1,0.7916126999989501,0.4,1,0,FastAcc,23,17,Woman,Right,
48,5,1,0.7681478999984392,['c'],1,left,['u'],1,0.6509165999996185,0.4,1,0,FastAcc,23,17,Woman,Right,
49,5,1,0.767736399999194,['c'],1,left,['u'],1,0.6605878000009398,0.4,1,0,FastAcc,23,17,Woman,Right,
50,5,1,0.6014785000006668,['n'],1,right,['u'],1,0.6767240999997739,0.4,1,0,FastAcc,23,17,Woman,Right,
51,5,1,1.2184435999988636,['c'],0,right,['e'],0,0.5878830999990896,0.2,1,0,FastAcc,23,17,Woman,Right,
52,5,1,1.0346804000000702,['n'],1,right,['e'],0,1.005336599999282,0.4,0,0,FastAcc,23,17,Woman,Right,
53,5,1,0.7176125999994838,['n'],1,right,['u'],1,0.683018900001116,0.4,1,0,FastAcc,23,17,Woman,Right,
54,5,1,0.9348743000009563,['c'],1,left,['e'],0,0.540586600000097,0.2,0,0,FastAcc,23,17,Woman,Right,
55,5,1,1.0672505000002275,['c'],1,left,['u'],1,0.3029335999999603,0.2,1,0,FastAcc,23,17,Woman,Right,
56,5,1,0.7512236000002304,['c'],1,left,['u'],1,0.8554600999996183,0.2,1,0,FastAcc,23,17,Woman,Right,
57,5,1,1.0004376000015327,['c'],1,left,['e'],0,0.6395969000004698,0.1,0,0,FastAcc,23,17,Woman,Right,
58,5,1,1.4331961999996565,['c'],1,left,['e'],0,0.5432151000004524,0.1,0,0,FastAcc,23,17,Woman,Right,
59,5,1,0.800998200000322,['n'],1,right,['u'],1,0.7487715999995999,0.1,1,0,FastAcc,23,17,Woman,Right,
0,6,1,0.6321565999987797,['c'],1,left,['u'],1,0.23833330000161368,0.4,1,0,FastFast,23,17,Woman,Right,
1,6,1,0.5011529000003065,['n'],1,right,['u'],1,0.25854330000038317,0.4,1,0,FastFast,23,17,Woman,Right,
2,6,1,0.46683650000159105,['c'],1,left,['u'],1,0.3287549000015133,0.2,1,0,FastFast,23,17,Woman,Right,
3,6,1,0.7862943000000087,['c'],1,left,['e'],0,0.2382209999996121,0.2,0,0,FastFast,23,17,Woman,Right,
4,6,1,0.40122990000054415,['n'],1,right,['u'],1,0.2472514000000956,0.4,1,0,FastFast,23,17,Woman,Right,
5,6,1,0.4512868999991042,['c'],1,left,['u'],1,0.2373836000006122,0.2,1,0,FastFast,23,17,Woman,Right,
6,6,1,0.4003537000007782,['n'],1,right,['u'],1,0.21414909999839438,0.4,1,0,FastFast,23,17,Woman,Right,
7,6,1,0.4007235999997647,['c'],1,left,['u'],1,0.22418590000052063,0.4,1,0,FastFast,23,17,Woman,Right,
8,6,1,0.6671874000003299,['c'],0,right,['u'],1,0.22265150000021094,0.1,0,0,FastFast,23,17,Woman,Right,
9,6,1,0.5675599999995029,['n'],1,right,['e'],0,0.24156909999874188,0.4,0,0,FastFast,23,17,Woman,Right,
10,6,1,0.9015422000011313,['c'],0,right,['e'],0,0.21445090000088385,0.2,1,0,FastFast,23,17,Woman,Right,
11,6,1,1.5344206999998278,['c'],0,right,['e'],0,0.7548271999985445,0.2,1,0,FastFast,23,17,Woman,Right,
12,6,1,0.5007084000008035,['c'],1,left,['u'],1,0.2269613999997091,0.2,1,0,FastFast,23,17,Woman,Right,
13,6,1,0.5011876999997185,['c'],1,left,['u'],1,0.2965657000004285,0.1,1,0,FastFast,23,17,Woman,Right,
14,6,1,0.5009735999992699,['c'],1,left,['u'],1,0.2668675000004441,0.2,1,0,FastFast,23,17,Woman,Right,
15,6,1,0.4181127000010747,['n'],1,right,['u'],1,0.2900362000000314,0.4,1,0,FastFast,23,17,Woman,Right,
16,6,1,0.4846268000001146,['n'],1,right,['u'],1,0.2773121000009269,0.4,1,0,FastFast,23,17,Woman,Right,
17,6,1,0.6011639000007563,['c'],1,left,['u'],1,0.3087532999998075,0.2,1,0,FastFast,23,17,Woman,Right,
18,6,1,1.0829846000015095,['c'],1,left,['u'],1,0.16116490000058548,0.2,1,0,FastFast,23,17,Woman,Right,
19,6,1,0.8501859999996668,['c'],0,right,['e'],0,0.2500834999991639,0.1,1,0,FastFast,23,17,Woman,Right,
20,6,1,0.533962800000154,['c'],1,left,['u'],1,0.22085449999940465,0.1,1,0,FastFast,23,17,Woman,Right,
21,6,1,0.6004885999991529,['n'],1,right,['u'],1,0.31847949999973935,0.1,1,0,FastFast,23,17,Woman,Right,
22,6,1,0.5845341000003828,['c'],0,right,['u'],1,0.2206996999993862,0.1,0,0,FastFast,23,17,Woman,Right,
23,6,1,0.6161551000004692,['c'],1,left,['u'],1,0.22224170000117738,0.4,1,0,FastFast,23,17,Woman,Right,
24,6,1,0.4180400000004738,['n'],1,right,['u'],1,0.2785508999986632,0.4,1,0,FastFast,23,17,Woman,Right,
25,6,1,0.501572600000145,['c'],1,left,['u'],1,0.21769820000008622,0.1,1,0,FastFast,23,17,Woman,Right,
26,6,1,0.6673570000002655,['n'],1,right,['u'],1,0.24893279999923834,0.1,1,0,FastFast,23,17,Woman,Right,
27,6,1,0.5505453000005218,['n'],1,right,['u'],1,0.28282429999853775,0.2,1,0,FastFast,23,17,Woman,Right,
28,6,1,0.9504849000004469,['c'],1,left,['e'],0,0.4601672000007966,0.1,0,0,FastFast,23,17,Woman,Right,
29,6,1,0.6336554000008618,['c'],1,left,['u'],1,0.1628418000000238,0.1,1,0,FastFast,23,17,Woman,Right,
30,6,1,0.9850506000002497,['c'],1,left,['u'],1,0.24656019999929413,0.1,1,0,FastFast,23,17,Woman,Right,
31,6,1,0.9177412999997614,['n'],1,right,['e'],0,0.26626020000003336,0.1,0,0,FastFast,23,17,Woman,Right,
32,6,1,0.4845917000002373,['n'],1,right,['u'],1,0.6704539000002114,0.4,1,0,FastFast,23,17,Woman,Right,
33,6,1,0.5670519000013883,['c'],1,left,['u'],1,0.2394014999990759,0.1,1,0,FastFast,23,17,Woman,Right,
34,6,1,0.500843600000735,['c'],1,left,['u'],1,0.24422489999960817,0.4,1,0,FastFast,23,17,Woman,Right,
35,6,1,0.6005886000002647,['n'],0,left,['u'],1,0.24583050000001094,0.1,0,0,FastFast,23,17,Woman,Right,
36,6,1,0.5338006000001769,['c'],1,left,['u'],1,0.21627300000000105,0.4,1,0,FastFast,23,17,Woman,Right,
37,6,1,0.683437399999093,['c'],0,right,['u'],1,0.23143829999935406,0.1,0,0,FastFast,23,17,Woman,Right,
38,6,1,0.8008637999992061,['c'],1,left,['u'],1,0.22322930000154884,0.2,1,0,FastFast,23,17,Woman,Right,
39,6,1,0.8348654000001261,['c'],0,right,['u'],1,0.2636851999995997,0.1,0,0,FastFast,23,17,Woman,Right,
40,6,1,0.8005690000009054,['c'],1,left,['u'],1,0.25508129999980156,0.2,1,0,FastFast,23,17,Woman,Right,
41,6,1,0.667912000000797,['c'],1,left,['u'],1,0.23645570000007865,0.1,1,0,FastFast,23,17,Woman,Right,
42,6,1,1.0510795999998663,['n'],1,right,['u'],1,0.2514214000002539,0.4,1,0,FastFast,23,17,Woman,Right,
43,6,1,0.5510027000000264,['c'],1,left,['u'],1,0.19075360000169894,0.1,1,0,FastFast,23,17,Woman,Right,
44,6,1,0.7511942000001,['c'],1,left,['u'],1,0.2187460999994073,0.4,1,0,FastFast,23,17,Woman,Right,
45,6,1,0.6346379999995406,['c'],1,left,['u'],1,0.21885460000157764,0.4,1,0,FastFast,23,17,Woman,Right,
46,6,1,0.7848709000008967,['n'],1,right,['u'],1,0.24543510000148672,0.4,1,0,FastFast,23,17,Woman,Right,
47,6,1,0.7016296000001603,['c'],0,right,['u'],1,0.22543909999876632,0.1,0,0,FastFast,23,17,Woman,Right,
48,6,1,0.6679382000002079,['c'],0,right,['u'],1,0.19222110000009707,0.1,0,0,FastFast,23,17,Woman,Right,
49,6,1,0.4009375000005093,['n'],1,right,['u'],1,0.26729599999998754,0.2,1,0,FastFast,23,17,Woman,Right,
50,6,1,0.5005753000004916,['c'],1,left,['u'],1,0.23866239999915706,0.2,1,0,FastFast,23,17,Woman,Right,
51,6,1,0.467846899999131,['c'],1,left,['u'],1,0.2610987000007299,0.4,1,0,FastFast,23,17,Woman,Right,
52,6,1,0.6338923999992403,['n'],1,right,['u'],1,0.2445852000000741,0.4,1,0,FastFast,23,17,Woman,Right,
53,6,1,0.634510700001556,['c'],1,left,['u'],1,0.21147800000107964,0.2,1,0,FastFast,23,17,Woman,Right,
54,6,1,0.6682848000000376,['c'],1,left,['u'],1,0.21089910000046075,0.2,1,0,FastFast,23,17,Woman,Right,
55,6,1,0.4510802999993757,['n'],1,right,['u'],1,0.41125470000042696,0.2,1,0,FastFast,23,17,Woman,Right,
56,6,1,1.0515849999992497,['n'],1,right,['e'],0,0.40353940000022703,0.2,0,0,FastFast,23,17,Woman,Right,
57,6,1,0.5505169999996724,['n'],1,right,['e'],0,0.3517011000003549,0.4,0,0,FastFast,23,17,Woman,Right,
58,6,1,0.9344109000012395,['c'],0,right,['e'],0,0.25461859999995795,0.2,1,0,FastFast,23,17,Woman,Right,
59,6,1,0.46771590000025753,['n'],1,right,['e'],0,0.3081121000013809,0.2,0,0,FastFast,23,17,Woman,Right,
0,7,1,2.1010234000004857,['c'],1,left,['e'],0,0.22997669999858772,0.2,0,0,AccFast,23,17,Woman,Right,
1,7,1,1.9346168999982183,['c'],0,right,['e'],0,0.337464700000055,0.1,1,0,AccFast,23,17,Woman,Right,
2,7,1,1.5513989000010042,['c'],0,right,['u'],1,0.20059969999965688,0.1,0,0,AccFast,23,17,Woman,Right,
3,7,1,1.3508935999998357,['n'],1,right,['u'],1,0.25276300000041374,0.4,1,0,AccFast,23,17,Woman,Right,
4,7,1,1.483391899999333,['c'],0,right,['u'],1,0.3623638999997638,0.1,0,0,AccFast,23,17,Woman,Right,
5,7,1,1.5671459000004688,['c'],1,left,['e'],0,0.2547866000004433,0.1,0,0,AccFast,23,17,Woman,Right,
6,7,1,1.2177372999994986,['c'],1,left,['u'],1,0.19838549999985844,0.2,1,0,AccFast,23,17,Woman,Right,
7,7,1,1.0666709999986779,['n'],1,right,['u'],1,0.18280940000113333,0.4,1,0,AccFast,23,17,Woman,Right,
8,7,1,0.6013330000005226,['c'],1,left,['u'],1,0.2330426999997144,0.4,1,0,AccFast,23,17,Woman,Right,
9,7,1,0.8838455000004615,['c'],0,right,['u'],1,0.22258220000003348,0.1,0,0,AccFast,23,17,Woman,Right,
10,7,1,0.7344369000002189,['n'],1,right,['u'],1,0.18670210000163934,0.4,1,0,AccFast,23,17,Woman,Right,
11,7,1,0.785151500000211,['c'],1,left,['u'],1,0.1342387000004237,0.2,1,0,AccFast,23,17,Woman,Right,
12,7,1,1.051043400000708,['n'],0,left,['u'],1,0.20123929999863321,0.1,0,0,AccFast,23,17,Woman,Right,
13,7,1,0.7326166000002559,['n'],1,right,['u'],1,0.18338070000027074,0.4,1,0,AccFast,23,17,Woman,Right,
14,7,1,0.5853538999999728,['c'],1,left,['u'],1,0.2017087000003812,0.1,1,0,AccFast,23,17,Woman,Right,
15,7,1,2.2667461000000912,['c'],0,right,['e'],0,0.20172230000025593,0.2,1,0,AccFast,23,17,Woman,Right,
16,7,1,0.5847883000005822,['n'],1,right,['u'],1,0.3643333999989409,0.2,1,0,AccFast,23,17,Woman,Right,
17,7,1,1.067627000000357,['n'],1,right,['u'],1,0.19743430000016815,0.1,1,0,AccFast,23,17,Woman,Right,
18,7,1,1.1678295000001526,['c'],0,right,['e'],0,0.2568721999996342,0.4,1,0,AccFast,23,17,Woman,Right,
19,7,1,0.8997061000009126,['n'],1,right,['e'],0,0.18207059999986086,0.2,0,0,AccFast,23,17,Woman,Right,
20,7,1,1.633366500000193,['c'],0,right,['e'],0,0.2230630000012752,0.1,1,0,AccFast,23,17,Woman,Right,
21,7,1,0.984157499999128,['c'],1,left,['e'],0,0.2412015000008978,0.1,0,0,AccFast,23,17,Woman,Right,
22,7,1,0.8347586999989289,['c'],1,left,['u'],1,0.2327000000004773,0.4,1,0,AccFast,23,17,Woman,Right,
23,7,1,1.5837217000007513,['c'],1,left,['e'],0,0.25878949999969336,0.2,0,0,AccFast,23,17,Woman,Right,
24,7,1,1.201108799999929,['n'],1,right,['e'],0,0.282554400000663,0.2,0,0,AccFast,23,17,Woman,Right,
25,7,1,1.250507300001118,['c'],1,left,['u'],1,0.1760671000010916,0.1,1,0,AccFast,23,17,Woman,Right,
26,7,1,1.0511836000005133,['c'],1,left,['u'],1,0.2090267000003223,0.4,1,0,AccFast,23,17,Woman,Right,
27,7,1,1.551309399999809,['c'],1,left,['u'],1,0.2542564000013954,0.4,1,0,AccFast,23,17,Woman,Right,
28,7,1,0.6513364000002184,['n'],0,left,['u'],1,0.267742800000633,0.2,0,0,AccFast,23,17,Woman,Right,
29,7,1,0.9166171999986545,['n'],1,right,['u'],1,0.4626384000002872,0.2,1,0,AccFast,23,17,Woman,Right,
30,7,1,2.7832791000000725,['c'],1,left,['u'],1,0.19104210000114108,0.1,1,0,AccFast,23,17,Woman,Right,
31,7,1,0.9845834999996441,['c'],1,left,['u'],1,0.14743540000017674,0.4,1,0,AccFast,23,17,Woman,Right,
32,7,1,0.7839186999990488,['n'],1,right,['u'],1,0.22420539999984612,0.2,1,0,AccFast,23,17,Woman,Right,
33,7,1,0.8013726999997743,['c'],1,left,['u'],1,0.28136710000035237,0.2,1,0,AccFast,23,17,Woman,Right,
34,7,1,0.8678345999996964,['n'],1,right,['u'],1,0.25348160000066855,0.2,1,0,AccFast,23,17,Woman,Right,
35,7,1,0.7181478999991668,['c'],1,left,['u'],1,0.1690225999991526,0.4,1,0,AccFast,23,17,Woman,Right,
36,7,1,1.6012236000005942,['c'],1,left,['e'],0,0.21287420000044222,0.2,0,0,AccFast,23,17,Woman,Right,
37,7,1,0.48432970000067144,['n'],1,right,['u'],1,0.20304839999880642,0.4,1,0,AccFast,23,17,Woman,Right,
38,7,1,0.7841396999992867,['n'],1,right,['u'],1,0.22979399999894667,0.1,1,0,AccFast,23,17,Woman,Right,
39,7,1,1.517957899999601,['c'],1,left,['e'],0,0.16210060000048543,0.1,0,0,AccFast,23,17,Woman,Right,
40,7,1,0.5345794999993814,['n'],1,right,['u'],1,0.2482666000014433,0.1,1,0,AccFast,23,17,Woman,Right,
41,7,1,1.2504802999992535,['c'],1,left,['e'],0,0.17451580000124522,0.1,0,0,AccFast,23,17,Woman,Right,
42,7,1,0.5841796999993676,['n'],1,right,['u'],1,0.3228148999987752,0.2,1,0,AccFast,23,17,Woman,Right,
43,7,1,1.3018042000003334,['c'],0,right,['e'],0,0.16457049999917217,0.4,1,0,AccFast,23,17,Woman,Right,
44,7,1,1.3510375000005297,['c'],0,right,['e'],0,0.17021349999959057,0.1,1,0,AccFast,23,17,Woman,Right,
45,7,1,2.167114899999433,['c'],0,right,['e'],0,0.11115579999932379,0.2,1,0,AccFast,23,17,Woman,Right,
46,7,1,1.1014471999988018,['c'],1,left,['u'],1,0.16158399999949324,0.4,1,0,AccFast,23,17,Woman,Right,
47,7,1,1.60139590000108,['c'],1,left,['e'],0,0.20573419999891485,0.4,0,0,AccFast,23,17,Woman,Right,
48,7,1,0.700060899998789,['n'],1,right,['u'],1,0.17207570000027772,0.4,1,0,AccFast,23,17,Woman,Right,
49,7,1,1.3511146000000736,['n'],1,right,['e'],0,0.1464219999998022,0.2,0,0,AccFast,23,17,Woman,Right,
50,7,1,0.5510452999988047,['c'],1,left,['u'],1,0.16778429999976652,0.2,1,0,AccFast,23,17,Woman,Right,
51,7,1,0.7844799999984389,['n'],1,right,['u'],1,0.14810060000127123,0.4,1,0,AccFast,23,17,Woman,Right,
52,7,1,1.3510858000008739,['c'],0,right,['u'],1,0.15424530000018422,0.2,0,0,AccFast,23,17,Woman,Right,
53,7,1,1.6677244000002247,['c'],1,left,['u'],1,0.13219040000149107,0.4,1,0,AccFast,23,17,Woman,Right,
54,7,1,1.5167901999993774,['c'],1,left,['e'],0,0.13298679999934393,0.1,0,0,AccFast,23,17,Woman,Right,
55,7,1,1.6844662000003154,['c'],1,left,['e'],0,0.14193220000015572,0.1,0,0,AccFast,23,17,Woman,Right,
56,7,1,1.3180955999996513,['c'],0,right,['u'],1,0.27834140000049956,0.1,0,0,AccFast,23,17,Woman,Right,
57,7,1,1.184350399998948,['c'],1,left,['u'],1,0.11035889999948267,0.4,1,0,AccFast,23,17,Woman,Right,
58,7,1,1.5339872000004107,['n'],0,left,['e'],0,0.14358589999937976,0.2,1,0,AccFast,23,17,Woman,Right,
59,7,1,0.5516527999989194,['c'],1,left,['u'],1,0.10236220000115281,0.4,1,0,AccFast,23,17,Woman,Right,
0,8,1,2.033430399998906,['n'],1,right,['u'],1,1.1549569999988307,0.4,1,0,AccAcc,23,17,Woman,Right,
1,8,1,1.8996948999993037,['c'],0,right,['u'],1,0.8110049999995681,0.2,0,0,AccAcc,23,17,Woman,Right,
2,8,1,0.9513213999998698,['c'],1,left,['u'],1,0.4713107999996282,0.4,1,0,AccAcc,23,17,Woman,Right,
3,8,1,1.0501729999996314,['c'],1,left,['u'],1,0.7648023999990983,0.2,1,0,AccAcc,23,17,Woman,Right,
4,8,1,0.7845335999991221,['c'],1,left,['u'],1,0.6409722000007605,0.4,1,0,AccAcc,23,17,Woman,Right,
5,8,1,1.0511065000009694,['n'],0,left,['u'],1,0.7519881999996869,0.1,0,0,AccAcc,23,17,Woman,Right,
6,8,1,1.501189999999042,['c'],1,left,['e'],0,0.6484703999994963,0.2,0,0,AccAcc,23,17,Woman,Right,
7,8,1,1.3013479000001098,['c'],1,left,['e'],0,0.9728974999998172,0.2,0,0,AccAcc,23,17,Woman,Right,
8,8,1,2.4677848999999696,['n'],0,left,['e'],0,0.5177788000000874,0.1,1,0,AccAcc,23,17,Woman,Right,
9,8,1,0.9336892000010266,['n'],1,right,['u'],1,0.6221602000005078,0.4,1,0,AccAcc,23,17,Woman,Right,
10,8,1,1.0343161000000691,['c'],1,left,['u'],1,0.5903574000003573,0.2,1,0,AccAcc,23,17,Woman,Right,
11,8,1,1.7006504999990284,['n'],0,left,['e'],0,0.7108208999998169,0.1,1,0,AccAcc,23,17,Woman,Right,
12,8,1,0.7668946999983746,['n'],1,right,['u'],1,0.877699799999391,0.4,1,0,AccAcc,23,17,Woman,Right,
13,8,1,1.2013380999997025,['n'],1,right,['e'],0,1.1327579999997397,0.2,0,0,AccAcc,23,17,Woman,Right,
14,8,1,0.6840548000000126,['n'],0,left,['u'],1,0.9503649999987829,0.2,0,0,AccAcc,23,17,Woman,Right,
15,8,1,0.6670008000000962,['c'],1,left,['u'],1,0.7766377000007196,0.4,1,0,AccAcc,23,17,Woman,Right,
16,8,1,1.500710700000127,['n'],1,right,['e'],0,0.7038771999996243,0.2,0,0,AccAcc,23,17,Woman,Right,
17,8,1,1.4346618999989005,['c'],0,right,['e'],0,0.796701999999641,0.2,1,0,AccAcc,23,17,Woman,Right,
18,8,1,1.7514461999999185,['c'],1,left,['u'],1,0.8251899999995658,0.2,1,0,AccAcc,23,17,Woman,Right,
19,8,1,1.7175444999993488,['n'],0,left,['e'],0,0.9341361000006145,0.1,1,0,AccAcc,23,17,Woman,Right,
20,8,1,2.9177894000004017,['n'],1,right,['e'],0,0.6706653999990522,0.1,0,0,AccAcc,23,17,Woman,Right,
21,8,1,1.7172952000000805,['c'],0,right,['e'],0,0.7060875999995915,0.1,1,0,AccAcc,23,17,Woman,Right,
22,8,1,1.050294099999519,['n'],1,right,['u'],1,0.6868306000014854,0.4,1,0,AccAcc,23,17,Woman,Right,
23,8,1,0.9675230000011652,['c'],1,left,['u'],1,0.6864382000003388,0.2,1,0,AccAcc,23,17,Woman,Right,
24,8,1,1.0511084999998275,['c'],1,left,['u'],1,0.6841234000003169,0.1,1,0,AccAcc,23,17,Woman,Right,
25,8,1,0.8333714999989752,['n'],1,right,['u'],1,0.6742269000005763,0.4,1,0,AccAcc,23,17,Woman,Right,
26,8,1,1.6518476999990526,['c'],0,right,['u'],1,0.6147840000012366,0.4,0,0,AccAcc,23,17,Woman,Right,
27,8,1,1.6332067999992432,['c'],0,right,['e'],0,0.6877782999999908,0.4,1,0,AccAcc,23,17,Woman,Right,
28,8,1,1.1344847999989724,['n'],1,right,['u'],1,1.576759999999922,0.4,1,0,AccAcc,23,17,Woman,Right,
29,8,1,1.5512146999990364,['c'],0,right,['e'],0,0.49516339999900083,0.4,1,0,AccAcc,23,17,Woman,Right,
30,8,1,1.9827746000009938,['n'],1,right,['e'],0,0.4475888999986637,0.1,0,0,AccAcc,23,17,Woman,Right,
31,8,1,2.5158657000010862,['c'],0,right,['e'],0,0.4585698999999295,0.1,1,0,AccAcc,23,17,Woman,Right,
32,8,1,0.8346363000000565,['c'],1,left,['u'],1,0.6329703999999765,0.4,1,0,AccAcc,23,17,Woman,Right,
33,8,1,0.9176453999989462,['c'],1,left,['u'],1,0.6372534000001906,0.2,1,0,AccAcc,23,17,Woman,Right,
34,8,1,2.1669538999994984,['c'],0,right,['e'],0,0.7196682000012515,0.1,1,0,AccAcc,23,17,Woman,Right,
35,8,1,3.2334606000003987,['c'],0,right,['e'],0,0.9162866999995458,0.1,1,0,AccAcc,23,17,Woman,Right,
36,8,1,1.9512238999996043,['c'],1,left,['e'],0,0.7079477000006591,0.2,0,0,AccAcc,23,17,Woman,Right,
37,8,1,3.133076300000539,['c'],1,left,['e'],0,0.8299659000003885,0.1,0,0,AccAcc,23,17,Woman,Right,
38,8,1,1.1667241000013746,['n'],1,right,['u'],1,0.7201726999992388,0.2,1,0,AccAcc,23,17,Woman,Right,
39,8,1,0.8511280000002444,['n'],1,right,['u'],1,0.8190335000017512,0.4,1,0,AccAcc,23,17,Woman,Right,
40,8,1,1.8169809999999416,['n'],1,right,['e'],0,0.5404388000006293,0.1,0,0,AccAcc,23,17,Woman,Right,
41,8,1,0.8496090000007825,['c'],1,left,['u'],1,0.6163015000001906,0.4,1,0,AccAcc,23,17,Woman,Right,
42,8,1,1.352103299999726,['c'],1,left,['e'],0,0.7948269999997137,0.1,0,0,AccAcc,23,17,Woman,Right,
43,8,1,1.1160675000010087,['n'],1,right,['u'],1,0.5781144000011409,0.4,1,0,AccAcc,23,17,Woman,Right,
44,8,1,0.733749799999714,['c'],1,left,['u'],1,0.6233173999989958,0.4,1,0,AccAcc,23,17,Woman,Right,
45,8,1,0.667868599999565,['n'],1,right,['u'],1,0.6541728000011062,0.4,1,0,AccAcc,23,17,Woman,Right,
46,8,1,1.2346868999993603,['c'],1,left,['e'],0,0.6144168000009813,0.1,0,0,AccAcc,23,17,Woman,Right,
47,8,1,0.9346619999996619,['n'],1,right,['u'],1,0.7622378000014578,0.4,1,0,AccAcc,23,17,Woman,Right,
48,8,1,1.4858019999992393,['n'],1,right,['e'],0,0.7545608000000357,0.1,0,0,AccAcc,23,17,Woman,Right,
49,8,1,1.0002760999996099,['c'],1,left,['u'],1,0.7675842999997258,0.2,1,0,AccAcc,23,17,Woman,Right,
50,8,1,2.9329529000006005,['c'],1,left,['e'],0,0.6868257999994967,0.1,0,0,AccAcc,23,17,Woman,Right,
51,8,1,1.5830557999997836,['n'],1,right,['e'],0,0.7740162999998574,0.2,0,0,AccAcc,23,17,Woman,Right,
52,8,1,2.000621499999397,['n'],0,left,['e'],0,0.8416802000010648,0.2,1,0,AccAcc,23,17,Woman,Right,
53,8,1,2.8344509999988077,['n'],1,right,['e'],0,0.6808135000010225,0.1,0,0,AccAcc,23,17,Woman,Right,
54,8,1,0.9346052000000782,['c'],1,left,['u'],1,0.7623518000000331,0.2,1,0,AccAcc,23,17,Woman,Right,
55,8,1,2.534312499999942,['c'],0,right,['e'],0,0.7288889000010386,0.1,1,0,AccAcc,23,17,Woman,Right,
56,8,1,2.015799300001163,['n'],0,left,['e'],0,0.7021573000001808,0.1,1,0,AccAcc,23,17,Woman,Right,
57,8,1,1.3675377999988996,['c'],1,left,['e'],0,0.8290188000009948,0.2,0,0,AccAcc,23,17,Woman,Right,
58,8,1,0.8009741999994731,['n'],1,right,['u'],1,0.6226176000000123,0.4,1,0,AccAcc,23,17,Woman,Right,
59,8,1,0.9330852999992203,['c'],1,left,['u'],1,0.7550987000013265,0.2,1,0,AccAcc,23,17,Woman,Right,
0,9,1,1.25072899999941,['c'],1,left,['e'],0,1.0874208000004728,0.2,0,0,FastAcc,23,17,Woman,Right,
1,9,1,0.9664816000004066,['n'],1,right,['e'],0,0.9448477000005369,0.1,0,0,FastAcc,23,17,Woman,Right,
2,9,1,0.3821852000000945,['c'],1,left,['u'],1,0.590561399998478,0.4,1,0,FastAcc,23,17,Woman,Right,
3,9,1,0.3496171000006143,['n'],1,right,['u'],1,1.4515621999998984,0.2,1,0,FastAcc,23,17,Woman,Right,
4,9,1,0.4165821999995387,['n'],1,right,['u'],1,0.8348530000002938,0.2,1,0,FastAcc,23,17,Woman,Right,
5,9,1,0.4326699000012013,['c'],1,left,['u'],1,0.961442600000737,0.1,1,0,FastAcc,23,17,Woman,Right,
6,9,1,0.6349059000003763,['c'],1,left,['u'],1,0.7405254999994213,0.2,1,0,FastAcc,23,17,Woman,Right,
7,9,1,0.3512415000004694,['n'],1,right,['u'],1,1.3233921000010014,0.1,1,0,FastAcc,23,17,Woman,Right,
8,9,1,0.6837149999992107,['c'],0,right,['e'],0,0.765872699999818,0.2,1,0,FastAcc,23,17,Woman,Right,
9,9,1,0.4340345000000525,['c'],1,left,['u'],1,0.9287698000007367,0.2,1,0,FastAcc,23,17,Woman,Right,
10,9,1,0.499930799998765,['c'],1,left,['e'],0,0.698378999999477,0.2,0,0,FastAcc,23,17,Woman,Right,
11,9,1,0.4173026000007667,['n'],1,right,['u'],1,1.05554740000116,0.4,1,0,FastAcc,23,17,Woman,Right,
12,9,1,0.5177923999999621,['c'],1,left,['u'],1,0.7867043000005651,0.4,1,0,FastAcc,23,17,Woman,Right,
13,9,1,0.6500840999997308,['c'],1,left,['e'],0,0.8122085999984847,0.2,0,0,FastAcc,23,17,Woman,Right,
14,9,1,1.4348236999994697,['n'],1,right,['e'],0,0.5639897000000929,0.1,0,0,FastAcc,23,17,Woman,Right,
15,9,1,0.7343673999985185,['c'],0,right,['e'],0,0.6742164999996021,0.1,1,0,FastAcc,23,17,Woman,Right,
16,9,1,0.700389700001324,['c'],1,left,['u'],1,0.7180561999994097,0.1,1,0,FastAcc,23,17,Woman,Right,
17,9,1,0.5512925999992149,['c'],1,left,['u'],1,0.877415299999484,0.2,1,0,FastAcc,23,17,Woman,Right,
18,9,1,0.635268800000631,['n'],1,right,['u'],1,0.7076579999993555,0.2,1,0,FastAcc,23,17,Woman,Right,
19,9,1,0.5840958000007959,['n'],1,right,['u'],1,0.8191258000006201,0.1,1,0,FastAcc,23,17,Woman,Right,
20,9,1,0.5169550000009622,['c'],1,left,['u'],1,0.7356150000014168,0.4,1,0,FastAcc,23,17,Woman,Right,
21,9,1,0.5339970000004541,['n'],1,right,['u'],1,0.9911699000003864,0.4,1,0,FastAcc,23,17,Woman,Right,
22,9,1,0.6990798999995604,['c'],0,right,['u'],1,0.7510216999999102,0.2,0,0,FastAcc,23,17,Woman,Right,
23,9,1,0.5512073000008968,['n'],1,right,['u'],1,0.7168579999997746,0.2,1,0,FastAcc,23,17,Woman,Right,
24,9,1,0.8010749999994005,['n'],1,right,['u'],1,0.9460826000013185,0.2,1,0,FastAcc,23,17,Woman,Right,
25,9,1,0.5175970999989659,['n'],1,right,['e'],0,0.9059884000016609,0.4,0,0,FastAcc,23,17,Woman,Right,
26,9,1,0.6001802000009775,['c'],0,right,['e'],0,0.9760375999994721,0.1,1,0,FastAcc,23,17,Woman,Right,
27,9,1,0.5516831000004458,['c'],1,left,['e'],0,1.1738918999999441,0.4,0,0,FastAcc,23,17,Woman,Right,
28,9,1,0.5845851999984006,['c'],1,left,['e'],0,0.7549032999995688,0.4,0,0,FastAcc,23,17,Woman,Right,
29,9,1,0.5163856999988639,['n'],1,right,['u'],1,0.562282499999128,0.1,1,0,FastAcc,23,17,Woman,Right,
30,9,1,0.9335266999987653,['n'],1,right,['e'],0,0.6485340999988694,0.4,0,0,FastAcc,23,17,Woman,Right,
31,9,1,0.9170273999989149,['c'],1,left,['u'],1,0.47633199999836506,0.1,1,0,FastAcc,23,17,Woman,Right,
32,9,1,0.6838418000006641,['c'],1,left,['e'],0,0.7524645000012242,0.2,0,0,FastAcc,23,17,Woman,Right,
33,9,1,0.45101339999928314,['c'],1,left,['u'],1,1.0587157000009029,0.4,1,0,FastAcc,23,17,Woman,Right,
34,9,1,0.6161530000008497,['n'],1,right,['u'],1,0.9140169000002061,0.1,1,0,FastAcc,23,17,Woman,Right,
35,9,1,0.4829869000004692,['c'],1,left,['u'],1,0.7966873999994277,0.2,1,0,FastAcc,23,17,Woman,Right,
36,9,1,0.5845391999991989,['n'],1,right,['u'],1,1.0322522000005847,0.2,1,0,FastAcc,23,17,Woman,Right,
37,9,1,0.45114230000035604,['c'],1,left,['u'],1,0.8940199999997276,0.4,1,0,FastAcc,23,17,Woman,Right,
38,9,1,0.6169352999986586,['c'],1,left,['u'],1,0.9653430999987904,0.1,1,0,FastAcc,23,17,Woman,Right,
39,9,1,1.0167681999992055,['n'],1,right,['u'],1,0.8400959999999031,0.1,1,0,FastAcc,23,17,Woman,Right,
40,9,1,0.5661163000004308,['c'],0,right,['e'],0,0.9938918000007106,0.1,1,0,FastAcc,23,17,Woman,Right,
41,9,1,0.9183374000003823,['c'],0,right,['e'],0,0.7117830999995931,0.2,1,0,FastAcc,23,17,Woman,Right,
42,9,1,0.40014330000121845,['n'],0,left,['e'],0,0.8463408000006893,0.1,1,0,FastAcc,23,17,Woman,Right,
43,9,1,0.4842472000000271,['c'],1,left,['u'],1,0.8904456000000209,0.2,1,0,FastAcc,23,17,Woman,Right,
44,9,1,0.4504293999998481,['c'],1,left,['u'],1,0.9517551999997522,0.4,1,0,FastAcc,23,17,Woman,Right,
45,9,1,0.48378969999976107,['n'],1,right,['u'],1,0.8162869999996474,0.4,1,0,FastAcc,23,17,Woman,Right,
46,9,1,0.7844308000003366,['c'],0,right,['u'],1,0.7712463999996544,0.4,0,0,FastAcc,23,17,Woman,Right,
47,9,1,0.41711469999972905,['n'],1,right,['u'],1,0.7895250000001397,0.4,1,0,FastAcc,23,17,Woman,Right,
48,9,1,0.4015603999996529,['c'],1,left,['u'],1,0.7123221000001649,0.4,1,0,FastAcc,23,17,Woman,Right,
49,9,1,0.3831652999997459,['n'],1,right,['u'],1,0.7989288000007946,0.2,1,0,FastAcc,23,17,Woman,Right,
50,9,1,0.5010139999994863,['c'],1,left,['e'],0,0.7488892000001215,0.1,0,0,FastAcc,23,17,Woman,Right,
51,9,1,0.516758400000981,['c'],1,left,['u'],1,0.7647694000006595,0.4,1,0,FastAcc,23,17,Woman,Right,
52,9,1,0.5341891999996733,['c'],1,left,['u'],1,0.9395636999997805,0.4,1,0,FastAcc,23,17,Woman,Right,
53,9,1,0.5159891999992396,['n'],1,right,['u'],1,1.2357664000010118,0.4,1,0,FastAcc,23,17,Woman,Right,
54,9,1,0.5180430000000342,['c'],1,left,['u'],1,0.8795634000016435,0.1,1,0,FastAcc,23,17,Woman,Right,
55,9,1,0.48340490000009595,['n'],0,left,['u'],1,1.147652300000118,0.1,0,0,FastAcc,23,17,Woman,Right,
56,9,1,0.5178584000004776,['c'],1,left,['u'],1,0.9065753999984736,0.4,1,0,FastAcc,23,17,Woman,Right,
57,9,1,0.6174231000004511,['n'],1,right,['u'],1,1.0401810000003024,0.1,1,0,FastAcc,23,17,Woman,Right,
58,9,1,0.7844038000002911,['c'],1,left,['e'],0,0.9219686999986152,0.1,0,0,FastAcc,23,17,Woman,Right,
59,9,1,0.4843593999994482,['n'],1,right,['u'],1,0.7242841000006592,0.2,1,0,FastAcc,23,17,Woman,Right,
0,10,1,0.8512114999994083,['c'],1,left,['u'],1,0.25929010000072594,0.1,1,0,FastFast,23,17,Woman,Right,
1,10,1,0.434310300001016,['n'],0,left,['e'],0,0.26552930000070774,0.1,1,0,FastFast,23,17,Woman,Right,
2,10,1,0.5848013999984687,['c'],1,left,['e'],0,0.28158520000033604,0.1,0,0,FastFast,23,17,Woman,Right,
3,10,1,0.41723999999885564,['c'],1,left,['u'],1,0.3677672000012535,0.4,1,0,FastFast,23,17,Woman,Right,
4,10,1,0.4998436000005313,['c'],1,left,['u'],1,0.480290800000148,0.1,1,0,FastFast,23,17,Woman,Right,
5,10,1,0.8679290000000037,['n'],1,right,['u'],1,0.331675899999027,0.1,1,0,FastFast,23,17,Woman,Right,
6,10,1,0.4338086000007024,['c'],1,left,['u'],1,0.23945019999882788,0.2,1,0,FastFast,23,17,Woman,Right,
7,10,1,0.5023677999997744,['c'],1,left,['u'],1,0.19628410000041185,0.2,1,0,FastFast,23,17,Woman,Right,
8,10,1,0.6515306000001146,['c'],1,left,['e'],0,0.24444339999899967,0.2,0,0,FastFast,23,17,Woman,Right,
9,10,1,0.3851850999999442,['n'],1,right,['e'],0,0.3660503000010067,0.1,0,0,FastFast,23,17,Woman,Right,
10,10,1,0.46708030000081635,['n'],1,right,['u'],1,0.25488380000024335,0.2,1,0,FastFast,23,17,Woman,Right,
11,10,1,0.48420939999959955,['c'],0,right,['u'],1,0.21271420000084618,0.1,0,0,FastFast,23,17,Woman,Right,
12,10,1,0.7827080999995815,['c'],1,left,['e'],0,0.22326220000104513,0.2,0,0,FastFast,23,17,Woman,Right,
13,10,1,1.3179247999996733,['c'],0,right,['e'],0,0.3397021999990102,0.2,1,0,FastFast,23,17,Woman,Right,
14,10,1,0.43364569999903324,['n'],1,right,['u'],1,0.7586059000004752,0.1,1,0,FastFast,23,17,Woman,Right,
15,10,1,0.6517245000013645,['n'],1,right,['u'],1,0.2247520999990229,0.4,1,0,FastFast,23,17,Woman,Right,
16,10,1,0.599968099999387,['c'],1,left,['u'],1,0.2263345000010304,0.2,1,0,FastFast,23,17,Woman,Right,
17,10,1,0.5345667000001413,['n'],1,right,['u'],1,0.32647329999963404,0.2,1,0,FastFast,23,17,Woman,Right,
18,10,1,0.6012952999990375,['c'],0,right,['u'],1,0.29201859999921,0.1,0,0,FastFast,23,17,Woman,Right,
19,10,1,0.5183105999985855,['c'],1,left,['u'],1,0.29442200000084995,0.4,1,0,FastFast,23,17,Woman,Right,
20,10,1,0.5016875000001164,['c'],1,left,['u'],1,0.313367400000061,0.1,1,0,FastFast,23,17,Woman,Right,
21,10,1,0.5833886000000348,['c'],1,left,['u'],1,0.2160160999992513,0.4,1,0,FastFast,23,17,Woman,Right,
22,10,1,0.684668200001397,['c'],1,left,['e'],0,0.27768139999898267,0.2,0,0,FastFast,23,17,Woman,Right,
23,10,1,0.4514980999992986,['n'],1,right,['u'],1,0.5073984999999084,0.4,1,0,FastFast,23,17,Woman,Right,
24,10,1,0.6348055000016757,['c'],0,right,['u'],1,0.32010690000061004,0.1,0,0,FastFast,23,17,Woman,Right,
25,10,1,0.46783030000005965,['n'],1,right,['u'],1,0.30715389999932086,0.4,1,0,FastFast,23,17,Woman,Right,
26,10,1,0.46727459999965504,['n'],1,right,['e'],0,0.3907712000000174,0.2,0,0,FastFast,23,17,Woman,Right,
27,10,1,0.4504711000008683,['n'],1,right,['u'],1,0.215678200000184,0.4,1,0,FastFast,23,17,Woman,Right,
28,10,1,0.5521395999985543,['c'],0,right,['u'],1,0.18712129999948957,0.2,0,0,FastFast,23,17,Woman,Right,
29,10,1,0.7853056000003562,['c'],0,right,['e'],0,0.21462009999959264,0.1,1,0,FastFast,23,17,Woman,Right,
30,10,1,0.6344069999995554,['c'],1,left,['e'],0,0.2630570000001171,0.1,0,0,FastFast,23,17,Woman,Right,
31,10,1,0.49966590000076394,['n'],1,right,['u'],1,0.26713399999971443,0.2,1,0,FastFast,23,17,Woman,Right,
32,10,1,0.5176326999990124,['c'],1,left,['u'],1,0.2534603000003699,0.2,1,0,FastFast,23,17,Woman,Right,
33,10,1,0.5181032999989839,['n'],1,right,['u'],1,0.2249376999989181,0.4,1,0,FastFast,23,17,Woman,Right,
34,10,1,0.46804840000004333,['c'],1,left,['u'],1,0.20021210000049905,0.4,1,0,FastFast,23,17,Woman,Right,
35,10,1,0.8179141999989952,['c'],1,left,['u'],1,0.2093946999993932,0.1,1,0,FastFast,23,17,Woman,Right,
36,10,1,0.9668676000001142,['c'],1,left,['e'],0,0.1968354000000545,0.1,0,0,FastFast,23,17,Woman,Right,
37,10,1,0.7330068999999639,['n'],1,right,['u'],1,0.24309580000044662,0.1,1,0,FastFast,23,17,Woman,Right,
38,10,1,0.6346730000004754,['n'],0,left,['u'],1,0.2735080000002199,0.4,0,0,FastFast,23,17,Woman,Right,
39,10,1,0.5178727999991679,['c'],1,left,['u'],1,0.26074359999984154,0.4,1,0,FastFast,23,17,Woman,Right,
40,10,1,0.7524878999993234,['c'],1,left,['e'],0,0.23888130000159435,0.2,0,0,FastFast,23,17,Woman,Right,
41,10,1,0.5677603000003728,['c'],1,left,['u'],1,0.22486230000140495,0.4,1,0,FastFast,23,17,Woman,Right,
42,10,1,0.3996528000006947,['n'],1,right,['u'],1,0.2983589000014035,0.4,1,0,FastFast,23,17,Woman,Right,
43,10,1,0.8514801999990596,['c'],1,left,['u'],1,0.41474720000042,0.2,1,0,FastFast,23,17,Woman,Right,
44,10,1,0.8004638999991585,['c'],1,left,['u'],1,0.2724304999992455,0.2,1,0,FastFast,23,17,Woman,Right,
45,10,1,0.5004896999998891,['c'],1,left,['u'],1,0.2437796000012895,0.2,1,0,FastFast,23,17,Woman,Right,
46,10,1,0.4675081000004866,['n'],1,right,['u'],1,0.3138677999995707,0.4,1,0,FastFast,23,17,Woman,Right,
47,10,1,0.9167870999990555,['c'],0,right,['u'],1,0.2833780000000843,0.2,0,0,FastFast,23,17,Woman,Right,
48,10,1,1.1511468999997305,['n'],1,right,['e'],0,0.4839969000004203,0.1,0,0,FastFast,23,17,Woman,Right,
49,10,1,0.6847393999996711,['c'],1,left,['u'],1,0.19932640000115498,0.2,1,0,FastFast,23,17,Woman,Right,
50,10,1,0.6012446999993699,['n'],1,right,['u'],1,0.23358010000083596,0.4,1,0,FastFast,23,17,Woman,Right,
51,10,1,0.48419839999951364,['c'],0,right,['u'],1,0.23916529999951308,0.1,0,0,FastFast,23,17,Woman,Right,
52,10,1,0.3845667000005051,['n'],1,right,['u'],1,0.24874520000048506,0.4,1,0,FastFast,23,17,Woman,Right,
53,10,1,0.45041959999980463,['c'],1,left,['u'],1,0.17510670000046957,0.4,1,0,FastFast,23,17,Woman,Right,
54,10,1,0.6675551000007545,['n'],1,right,['u'],1,0.22391649999917718,0.4,1,0,FastFast,23,17,Woman,Right,
55,10,1,0.716803200000868,['c'],1,left,['e'],0,0.23739340000065567,0.1,0,0,FastFast,23,17,Woman,Right,
56,10,1,0.41805939999903785,['n'],1,right,['u'],1,0.2129186000001937,0.2,1,0,FastFast,23,17,Woman,Right,
57,10,1,0.5181209999991552,['c'],1,left,['u'],1,0.18599399999948218,0.4,1,0,FastFast,23,17,Woman,Right,
58,10,1,0.4843679000005068,['n'],1,right,['u'],1,0.24145449999923585,0.4,1,0,FastFast,23,17,Woman,Right,
59,10,1,0.5179907000001549,['c'],0,right,['u'],1,0.2136253000007855,0.1,0,0,FastFast,23,17,Woman,Right,
0,11,1,2.6000540999993973,['n'],1,right,['e'],0,0.1907205999996222,0.4,0,0,AccFast,23,17,Woman,Right,
1,11,1,0.7013256999998703,['n'],1,right,['e'],0,0.34943329999987327,0.1,0,0,AccFast,23,17,Woman,Right,
2,11,1,1.7322160999992775,['n'],1,right,['e'],0,0.3338738000002195,0.4,0,0,AccFast,23,17,Woman,Right,
3,11,1,1.2505565000010392,['c'],0,right,['e'],0,0.383484199999657,0.1,1,0,AccFast,23,17,Woman,Right,
4,11,1,0.5496361999994406,['n'],1,right,['u'],1,2.301020500000959,0.4,1,0,AccFast,23,17,Woman,Right,
5,11,1,2.0507957999998325,['c'],1,left,['e'],0,0.19301020000057179,0.2,0,0,AccFast,23,17,Woman,Right,
6,11,1,0.7502717999996094,['c'],1,left,['u'],1,0.12644580000051064,0.2,1,0,AccFast,23,17,Woman,Right,
7,11,1,1.1185445999999502,['n'],1,right,['u'],1,0.15857819999837375,0.2,1,0,AccFast,23,17,Woman,Right,
8,11,1,1.2342349000009563,['c'],1,left,['e'],0,0.21755149999989953,0.1,0,0,AccFast,23,17,Woman,Right,
9,11,1,0.4999232000009215,['n'],0,left,['e'],0,0.1436452999987523,0.1,1,0,AccFast,23,17,Woman,Right,
10,11,1,0.8998120000014751,['c'],1,left,['e'],0,0.18440869999903953,0.4,0,0,AccFast,23,17,Woman,Right,
11,11,1,1.9001226000000315,['n'],0,left,['e'],0,0.16737470000043686,0.1,1,0,AccFast,23,17,Woman,Right,
12,11,1,0.7340545000006387,['n'],1,right,['e'],0,0.21401999999943655,0.4,0,0,AccFast,23,17,Woman,Right,
13,11,1,1.349884799999927,['c'],1,left,['u'],1,0.10597059999963676,0.4,1,0,AccFast,23,17,Woman,Right,
14,11,1,0.6668933999990259,['c'],1,left,['u'],1,0.17310340000040014,0.2,1,0,AccFast,23,17,Woman,Right,
15,11,1,0.6337682000012137,['c'],1,left,['u'],1,0.19141789999957837,0.4,1,0,AccFast,23,17,Woman,Right,
16,11,1,0.7019032000007428,['n'],1,right,['u'],1,0.19014969999989262,0.4,1,0,AccFast,23,17,Woman,Right,
17,11,1,0.584606000000349,['n'],1,right,['e'],0,0.1780386999998882,0.2,0,0,AccFast,23,17,Woman,Right,
18,11,1,0.7002620000002935,['c'],1,left,['u'],1,0.17681479999919247,0.4,1,0,AccFast,23,17,Woman,Right,
19,11,1,0.9346291999991081,['c'],0,right,['u'],1,0.13500290000047244,0.2,0,0,AccFast,23,17,Woman,Right,
20,11,1,1.2681386999993265,['c'],1,left,['e'],0,0.12953509999897506,0.1,0,0,AccFast,23,17,Woman,Right,
21,11,1,0.6184140000004845,['n'],1,right,['u'],1,0.19757260000005772,0.2,1,0,AccFast,23,17,Woman,Right,
22,11,1,0.6177876999990985,['n'],1,right,['e'],0,0.11941750000005413,0.1,0,0,AccFast,23,17,Woman,Right,
23,11,1,0.6183517999998003,['c'],1,left,['e'],0,0.172004799998831,0.1,0,0,AccFast,23,17,Woman,Right,
24,11,1,1.3344848999986425,['c'],0,right,['e'],0,0.1303237000010995,0.2,1,0,AccFast,23,17,Woman,Right,
25,11,1,0.6350949000006949,['n'],1,right,['e'],0,0.13382260000071255,0.4,0,0,AccFast,23,17,Woman,Right,
26,11,1,1.1180826999989222,['c'],0,right,['e'],0,0.10243300000001909,0.1,1,0,AccFast,23,17,Woman,Right,
27,11,1,0.5678305000001274,['n'],1,right,['e'],0,0.12596379999922647,0.1,0,0,AccFast,23,17,Woman,Right,
28,11,1,0.4673735000014858,['c'],1,left,['u'],1,0.15262280000024475,0.2,1,0,AccFast,23,17,Woman,Right,
29,11,1,0.5833586999997351,['c'],1,left,['u'],1,0.15795040000011795,0.4,1,0,AccFast,23,17,Woman,Right,
30,11,1,0.6846416000007594,['n'],1,right,['u'],1,0.15822120000120776,0.4,1,0,AccFast,23,17,Woman,Right,
31,11,1,1.3680721999990055,['c'],0,right,['e'],0,0.14807120000114082,0.1,1,0,AccFast,23,17,Woman,Right,
32,11,1,0.51782170000115,['n'],1,right,['e'],0,0.12330860000110988,0.4,0,0,AccFast,23,17,Woman,Right,
33,11,1,0.45169239999995625,['c'],0,right,['e'],0,0.1831068999999843,0.4,1,0,AccFast,23,17,Woman,Right,
34,11,1,0.8337986999995337,['c'],1,left,['e'],0,0.17729990000043472,0.1,0,0,AccFast,23,17,Woman,Right,
35,11,1,0.6835193000006257,['n'],0,left,['e'],0,0.12942579999980808,0.1,1,0,AccFast,23,17,Woman,Right,
36,11,1,0.7507440999997925,['c'],0,right,['u'],1,0.12869700000010198,0.2,0,0,AccFast,23,17,Woman,Right,
37,11,1,0.9342794999993203,['c'],0,right,['u'],1,0.1200183000000834,0.1,0,0,AccFast,23,17,Woman,Right,
38,11,1,1.5677537000010489,['n'],0,left,['u'],1,0.18346229999951902,0.1,0,0,AccFast,23,17,Woman,Right,
39,11,1,0.650720800000272,['c'],1,left,['u'],1,0.15161620000071707,0.4,1,0,AccFast,23,17,Woman,Right,
40,11,1,0.8511593000002904,['c'],1,left,['u'],1,0.11417979999896488,0.2,1,0,AccFast,23,17,Woman,Right,
41,11,1,0.6180370000001858,['n'],0,left,['u'],1,0.1509977000005165,0.2,0,0,AccFast,23,17,Woman,Right,
42,11,1,0.9835158999994746,['c'],1,left,['u'],1,0.15656210000088322,0.4,1,0,AccFast,23,17,Woman,Right,
43,11,1,1.0822370000005321,['n'],1,right,['e'],0,0.20575319999989006,0.1,0,0,AccFast,23,17,Woman,Right,
44,11,1,0.6005939000006038,['c'],1,left,['u'],1,0.14321820000077423,0.4,1,0,AccFast,23,17,Woman,Right,
45,11,1,1.1329863999999361,['c'],0,right,['e'],0,0.12663849999989907,0.2,1,0,AccFast,23,17,Woman,Right,
46,11,1,0.9841226999997161,['c'],1,left,['e'],0,0.10088799999903131,0.2,0,0,AccFast,23,17,Woman,Right,
47,11,1,0.8337874999997439,['c'],0,right,['e'],0,0.12970259999929112,0.2,1,0,AccFast,23,17,Woman,Right,
48,11,1,0.718090200000006,['c'],1,left,['u'],1,0.09798740000042017,0.2,1,0,AccFast,23,17,Woman,Right,
49,11,1,1.0844651000006706,['n'],1,right,['u'],1,0.13283929999852262,0.2,1,0,AccFast,23,17,Woman,Right,
50,11,1,0.9837756999986595,['c'],1,left,['e'],0,0.13858350000009523,0.1,0,0,AccFast,23,17,Woman,Right,
51,11,1,0.8679778999994596,['c'],1,left,['e'],0,0.1168429000008473,0.2,0,0,AccFast,23,17,Woman,Right,
52,11,1,0.6845659000009618,['c'],0,right,['u'],1,0.13537819999874046,0.4,0,0,AccFast,23,17,Woman,Right,
53,11,1,0.5996549000010418,['n'],1,right,['e'],0,0.12447470000006433,0.1,0,0,AccFast,23,17,Woman,Right,
54,11,1,0.6832856000000902,['n'],0,left,['u'],1,0.14205819999915548,0.1,0,0,AccFast,23,17,Woman,Right,
55,11,1,0.4506141000001662,['n'],0,left,['e'],0,0.15267149999999674,0.4,1,0,AccFast,23,17,Woman,Right,
56,11,1,1.3679557000014029,['c'],1,left,['u'],1,0.14275810000071942,0.2,1,0,AccFast,23,17,Woman,Right,
57,11,1,0.6170567999997729,['n'],1,right,['u'],1,0.13191790000018955,0.2,1,0,AccFast,23,17,Woman,Right,
58,11,1,0.6332774000002246,['c'],1,left,['e'],0,0.1503486999990855,0.4,0,0,AccFast,23,17,Woman,Right,
59,11,1,0.9341932000006636,['n'],1,right,['u'],1,0.15845699999954377,0.1,1,0,AccFast,23,17,Woman,Right,
0,12,1,0.7340165000005072,['n'],1,right,['u'],1,0.38220000000001164,0.1,1,0,AccAcc,23,17,Woman,Right,
1,12,1,0.8845761000011407,['n'],1,right,['e'],0,0.3657532000015635,0.2,0,0,AccAcc,23,17,Woman,Right,
2,12,1,1.0000448000009783,['c'],0,right,['e'],0,0.39403259999926377,0.1,1,0,AccAcc,23,17,Woman,Right,
3,12,1,0.6000618999987637,['n'],1,right,['u'],1,0.5177665000010165,0.1,1,0,AccAcc,23,17,Woman,Right,
4,12,1,1.067640700000993,['c'],1,left,['e'],0,0.43955819999973755,0.1,0,0,AccAcc,23,17,Woman,Right,
5,12,1,0.6171524000001227,['n'],1,right,['u'],1,0.43168899999909627,0.4,1,0,AccAcc,23,17,Woman,Right,
6,12,1,1.1513290999992023,['c'],1,left,['e'],0,0.35440980000021227,0.1,0,0,AccAcc,23,17,Woman,Right,
7,12,1,1.1515656000010495,['c'],1,left,['e'],0,0.31270389999917825,0.1,0,0,AccAcc,23,17,Woman,Right,
8,12,1,0.7996242000008351,['c'],0,right,['e'],0,0.31916999999884865,0.1,1,0,AccAcc,23,17,Woman,Right,
9,12,1,0.5688258999998652,['c'],1,left,['u'],1,0.23713260000113223,0.2,1,0,AccAcc,23,17,Woman,Right,
10,12,1,0.6011868999994476,['c'],1,left,['u'],1,0.2541715999996086,0.4,1,0,AccAcc,23,17,Woman,Right,
11,12,1,0.6843876000002638,['c'],1,left,['u'],1,0.31543190000047616,0.2,1,0,AccAcc,23,17,Woman,Right,
12,12,1,0.600180100000216,['c'],1,left,['u'],1,0.44128099999943515,0.2,1,0,AccAcc,23,17,Woman,Right,
13,12,1,1.2178917000001093,['c'],1,left,['e'],0,0.328900499998781,0.1,0,0,AccAcc,23,17,Woman,Right,
14,12,1,1.384377599999425,['n'],0,left,['e'],0,0.5986028999996051,0.1,1,0,AccAcc,23,17,Woman,Right,
15,12,1,0.5016039999991335,['n'],1,right,['u'],1,0.5567857000005461,0.2,1,0,AccAcc,23,17,Woman,Right,
16,12,1,0.6497132000004058,['n'],1,right,['e'],0,0.4310755999995308,0.4,0,0,AccAcc,23,17,Woman,Right,
17,12,1,0.6012049000000843,['n'],1,right,['u'],1,0.4720426999992924,0.4,1,0,AccAcc,23,17,Woman,Right,
18,12,1,0.816389399999025,['n'],1,right,['u'],1,0.5037548999989667,0.4,1,0,AccAcc,23,17,Woman,Right,
19,12,1,1.1180342999996356,['c'],1,left,['e'],0,0.36053679999895394,0.2,0,0,AccAcc,23,17,Woman,Right,
20,12,1,0.9682118000000628,['n'],1,right,['e'],0,0.4549341000001732,0.2,0,0,AccAcc,23,17,Woman,Right,
21,12,1,0.9663373000003048,['c'],1,left,['e'],0,0.368407500000103,0.2,0,0,AccAcc,23,17,Woman,Right,
22,12,1,0.9999509000008402,['n'],1,right,['e'],0,0.5233998999992764,0.1,0,0,AccAcc,23,17,Woman,Right,
23,12,1,1.134527899999739,['n'],1,right,['e'],0,0.6197618999995029,0.4,0,0,AccAcc,23,17,Woman,Right,
24,12,1,1.3341018999999505,['c'],0,right,['e'],0,0.36808250000103726,0.1,1,0,AccAcc,23,17,Woman,Right,
25,12,1,0.6326045999994676,['n'],0,left,['e'],0,0.3474406999994244,0.2,1,0,AccAcc,23,17,Woman,Right,
26,12,1,0.7341022999989946,['n'],1,right,['u'],1,0.4175210000012157,0.4,1,0,AccAcc,23,17,Woman,Right,
27,12,1,0.9000606999998126,['c'],1,left,['e'],0,0.43207149999943795,0.2,0,0,AccAcc,23,17,Woman,Right,
28,12,1,0.8346841999991739,['n'],1,right,['e'],0,0.3824953999992431,0.1,0,0,AccAcc,23,17,Woman,Right,
29,12,1,0.8341641000006348,['c'],1,left,['e'],0,0.4960074999999051,0.2,0,0,AccAcc,23,17,Woman,Right,
30,12,1,0.4012499000000389,['n'],1,right,['u'],1,0.4955128000001423,0.1,1,0,AccAcc,23,17,Woman,Right,
31,12,1,0.9511841000003187,['c'],1,left,['e'],0,0.7273021999990306,0.2,0,0,AccAcc,23,17,Woman,Right,
32,12,1,0.6843688999997539,['c'],1,left,['u'],1,0.5617172999991453,0.2,1,0,AccAcc,23,17,Woman,Right,
33,12,1,0.7671995000000607,['c'],1,left,['u'],1,0.43112380000093253,0.4,1,0,AccAcc,23,17,Woman,Right,
34,12,1,0.7679021000003559,['c'],0,right,['u'],1,0.5613632000004145,0.1,0,0,AccAcc,23,17,Woman,Right,
35,12,1,0.6849247999998624,['c'],1,left,['u'],1,0.5783133999993879,0.2,1,0,AccAcc,23,17,Woman,Right,
36,12,1,0.7015525000006164,['n'],1,right,['u'],1,0.7214547999992647,0.4,1,0,AccAcc,23,17,Woman,Right,
37,12,1,1.017834899999798,['c'],0,right,['e'],0,0.6382417000004352,0.2,1,0,AccAcc,23,17,Woman,Right,
38,12,1,1.750150500000018,['n'],1,right,['e'],0,0.6577681000017037,0.1,0,0,AccAcc,23,17,Woman,Right,
39,12,1,0.6335500000004686,['c'],1,left,['u'],1,0.81640569999945,0.4,1,0,AccAcc,23,17,Woman,Right,
40,12,1,0.751075199999832,['c'],1,left,['u'],1,0.5959385999994993,0.1,1,0,AccAcc,23,17,Woman,Right,
41,12,1,0.5841536000007181,['n'],1,right,['u'],1,0.6795023000013316,0.2,1,0,AccAcc,23,17,Woman,Right,
42,12,1,0.5665477999991708,['n'],1,right,['u'],1,0.6153095999998186,0.4,1,0,AccAcc,23,17,Woman,Right,
43,12,1,0.8171420999988186,['c'],1,left,['u'],1,0.5759538999991491,0.4,1,0,AccAcc,23,17,Woman,Right,
44,12,1,1.0511468000004243,['c'],1,left,['u'],1,0.6897188999992068,0.4,1,0,AccAcc,23,17,Woman,Right,
45,12,1,0.9013604000010673,['n'],1,right,['e'],0,0.8207954999998037,0.2,0,0,AccAcc,23,17,Woman,Right,
46,12,1,1.2677068000011786,['c'],0,right,['e'],0,0.5802593999997043,0.2,1,0,AccAcc,23,17,Woman,Right,
47,12,1,0.9340384000006452,['c'],0,right,['e'],0,0.5056268999996973,0.1,1,0,AccAcc,23,17,Woman,Right,
48,12,1,0.750918299998375,['c'],1,left,['u'],1,0.5694912999988446,0.4,1,0,AccAcc,23,17,Woman,Right,
49,12,1,1.1176120999989507,['c'],0,right,['e'],0,0.6326488999984576,0.1,1,0,AccAcc,23,17,Woman,Right,
50,12,1,1.4325767000009364,['n'],1,right,['e'],0,0.4568975000001956,0.4,0,0,AccAcc,23,17,Woman,Right,
51,12,1,1.517802100001063,['c'],1,left,['e'],0,0.2839344000003621,0.1,0,0,AccAcc,23,17,Woman,Right,
52,12,1,1.0167168000007223,['c'],1,left,['e'],0,0.5386008000004949,0.2,0,0,AccAcc,23,17,Woman,Right,
53,12,1,0.9670452999998815,['c'],1,left,['e'],0,0.46503839999968477,0.2,0,0,AccAcc,23,17,Woman,Right,
54,12,1,0.6006888000010804,['n'],1,right,['u'],1,0.519980699998996,0.4,1,0,AccAcc,23,17,Woman,Right,
55,12,1,0.6346374999993714,['c'],1,left,['u'],1,0.4282834000005096,0.4,1,0,AccAcc,23,17,Woman,Right,
56,12,1,1.0846547999990435,['c'],1,left,['e'],0,0.35459679999985383,0.1,0,0,AccAcc,23,17,Woman,Right,
57,12,1,0.6833402999982354,['c'],1,left,['u'],1,0.4915352999996685,0.4,1,0,AccAcc,23,17,Woman,Right,
58,12,1,0.5674641999994492,['c'],1,left,['u'],1,0.4038060000002588,0.4,1,0,AccAcc,23,17,Woman,Right,
59,12,1,0.8509641000000556,['n'],1,right,['u'],1,0.43610980000084965,0.4,1,0,AccAcc,23,17,Woman,Right,
0,13,1,0.6179756999990786,['c'],1,left,['u'],1,0.19872250000116765,0.1,1,0,FastAcc,23,17,Woman,Right,
1,13,1,0.4676926000011008,['n'],0,left,['e'],0,0.6053706999991846,0.4,1,0,FastAcc,23,17,Woman,Right,
2,13,1,0.5346288000000641,['c'],1,left,['u'],1,0.5636105999983556,0.1,1,0,FastAcc,23,17,Woman,Right,
3,13,1,0.41679459999977553,['c'],1,left,['u'],1,0.7179426000002422,0.2,1,0,FastAcc,23,17,Woman,Right,
4,13,1,0.5171953000008216,['n'],1,right,['e'],0,0.7666824999996606,0.2,0,0,FastAcc,23,17,Woman,Right,
5,13,1,0.4840358000001288,['c'],0,right,['u'],1,0.7824941999988368,0.1,0,0,FastAcc,23,17,Woman,Right,
6,13,1,0.5024052999997366,['n'],1,right,['u'],1,0.6535423000004812,0.2,1,0,FastAcc,23,17,Woman,Right,
7,13,1,0.43374129999938305,['c'],1,left,['u'],1,0.7563585000007151,0.1,1,0,FastAcc,23,17,Woman,Right,
8,13,1,0.5180132999994385,['n'],1,right,['u'],1,0.8360388000000967,0.1,1,0,FastAcc,23,17,Woman,Right,
9,13,1,0.4347514000000956,['c'],1,left,['e'],0,0.7247081999994407,0.2,0,0,FastAcc,23,17,Woman,Right,
10,13,1,0.4683396000000357,['n'],1,right,['e'],0,0.8386173000017152,0.1,0,0,FastAcc,23,17,Woman,Right,
11,13,1,0.5345577000007324,['n'],1,right,['u'],1,0.9301340000001801,0.4,1,0,FastAcc,23,17,Woman,Right,
12,13,1,0.9678574999998091,['n'],1,right,['e'],0,0.712327399998685,0.4,0,0,FastAcc,23,17,Woman,Right,
13,13,1,0.5167893999987427,['c'],1,left,['u'],1,0.7932815999993181,0.4,1,0,FastAcc,23,17,Woman,Right,
14,13,1,0.46818979999989097,['n'],1,right,['u'],1,0.7775325999991765,0.2,1,0,FastAcc,23,17,Woman,Right,
15,13,1,0.4012609999990673,['n'],0,left,['e'],0,0.8133290000005218,0.1,1,0,FastAcc,23,17,Woman,Right,
16,13,1,0.5003254000002926,['c'],0,right,['u'],1,0.8435301999998046,0.4,0,0,FastAcc,23,17,Woman,Right,
17,13,1,0.5009176999992633,['n'],0,left,['e'],0,0.9038878999999724,0.2,1,0,FastAcc,23,17,Woman,Right,
18,13,1,0.7333435000000463,['c'],1,left,['e'],0,0.9374062999995658,0.2,0,0,FastAcc,23,17,Woman,Right,
19,13,1,0.5338068000000931,['c'],1,left,['u'],1,0.9603494000002684,0.1,1,0,FastAcc,23,17,Woman,Right,
20,13,1,0.5183360999999422,['c'],1,left,['u'],1,1.1285731999996642,0.4,1,0,FastAcc,23,17,Woman,Right,
21,13,1,0.6009352000000945,['n'],1,right,['e'],0,0.8216616000008798,0.1,0,0,FastAcc,23,17,Woman,Right,
22,13,1,0.5004646999987017,['c'],1,left,['u'],1,0.7397626999991189,0.2,1,0,FastAcc,23,17,Woman,Right,
23,13,1,0.6339137000013579,['c'],1,left,['u'],1,0.8468388000001141,0.2,1,0,FastAcc,23,17,Woman,Right,
24,13,1,0.5837251000011747,['c'],1,left,['e'],0,0.8882207000006019,0.2,0,0,FastAcc,23,17,Woman,Right,
25,13,1,0.5178720999992947,['n'],1,right,['e'],0,0.7061517000001913,0.4,0,0,FastAcc,23,17,Woman,Right,
26,13,1,0.48460979999981646,['n'],1,right,['e'],0,0.821109599999545,0.4,0,0,FastAcc,23,17,Woman,Right,
27,13,1,0.6008987000004709,['c'],1,left,['u'],1,0.7666106999986368,0.4,1,0,FastAcc,23,17,Woman,Right,
28,13,1,1.1678446999994776,['c'],1,left,['e'],0,0.8197245999999723,0.4,0,0,FastAcc,23,17,Woman,Right,
29,13,1,0.8330072000007931,['n'],1,right,['u'],1,0.7406164000003628,0.2,1,0,FastAcc,23,17,Woman,Right,
30,13,1,1.534777099999701,['c'],0,right,['e'],0,0.6355764999989333,0.2,1,0,FastAcc,23,17,Woman,Right,
31,13,1,0.6180415999988327,['c'],1,left,['u'],1,0.9722001999998611,0.1,1,0,FastAcc,23,17,Woman,Right,
32,13,1,0.48377139999865904,['c'],1,left,['u'],1,0.9323085999985778,0.2,1,0,FastAcc,23,17,Woman,Right,
33,13,1,0.7014705000001413,['c'],1,left,['u'],1,0.8536244999995688,0.4,1,0,FastAcc,23,17,Woman,Right,
34,13,1,0.5169046999999409,['n'],1,right,['u'],1,0.8813628000007157,0.4,1,0,FastAcc,23,17,Woman,Right,
35,13,1,0.48512120000123105,['c'],0,right,['u'],1,0.8443722000010894,0.2,0,0,FastAcc,23,17,Woman,Right,
36,13,1,0.7172527999991871,['c'],0,right,['u'],1,0.8165862999994715,0.1,0,0,FastAcc,23,17,Woman,Right,
37,13,1,0.6834748000001127,['c'],0,right,['e'],0,0.8718498999987787,0.1,1,0,FastAcc,23,17,Woman,Right,
38,13,1,0.9177256000002671,['c'],0,right,['u'],1,0.6738552999995591,0.2,0,0,FastAcc,23,17,Woman,Right,
39,13,1,0.9512095999998564,['c'],1,left,['e'],0,0.9003331999992952,0.2,0,0,FastAcc,23,17,Woman,Right,
40,13,1,0.6004945000004227,['c'],1,left,['u'],1,0.8426804999999149,0.4,1,0,FastAcc,23,17,Woman,Right,
41,13,1,0.550804499998776,['n'],1,right,['u'],1,0.8527951999985817,0.4,1,0,FastAcc,23,17,Woman,Right,
42,13,1,0.6673381000000518,['n'],1,right,['e'],0,0.8425086999995983,0.4,0,0,FastAcc,23,17,Woman,Right,
43,13,1,1.0688830999988568,['c'],1,left,['e'],0,0.7369018999997934,0.1,0,0,FastAcc,23,17,Woman,Right,
44,13,1,0.6164883000001282,['c'],1,left,['u'],1,0.6538254999995843,0.4,1,0,FastAcc,23,17,Woman,Right,
45,13,1,1.116503699999157,['c'],0,right,['e'],0,0.6180506000000605,0.1,1,0,FastAcc,23,17,Woman,Right,
46,13,1,0.8847552000006544,['c'],1,left,['u'],1,0.6872190999984014,0.2,1,0,FastAcc,23,17,Woman,Right,
47,13,1,1.4500592999993387,['c'],1,left,['e'],0,0.8766649999997753,0.1,0,0,FastAcc,23,17,Woman,Right,
48,13,1,1.218088199999329,['c'],0,right,['e'],0,0.9390786000003573,0.1,1,0,FastAcc,23,17,Woman,Right,
49,13,1,0.7349290000001929,['c'],0,right,['u'],1,0.6346628000010242,0.1,0,0,FastAcc,23,17,Woman,Right,
50,13,1,1.4676303999985976,['n'],1,right,['e'],0,0.48979809999946156,0.1,0,0,FastAcc,23,17,Woman,Right,
51,13,1,0.43412239999997837,['c'],1,left,['u'],1,1.0467159999989235,0.2,1,0,FastAcc,23,17,Woman,Right,
52,13,1,0.7180103999999119,['c'],1,left,['e'],0,0.754261600000973,0.4,0,0,FastAcc,23,17,Woman,Right,
53,13,1,0.6678921000002447,['c'],0,right,['e'],0,0.8598634999998467,0.1,1,0,FastAcc,23,17,Woman,Right,
54,13,1,0.6995767999997042,['c'],1,left,['u'],1,0.6243951000014931,0.4,1,0,FastAcc,23,17,Woman,Right,
55,13,1,0.6664501000013843,['n'],1,right,['e'],0,0.7039917000001878,0.2,0,0,FastAcc,23,17,Woman,Right,
56,13,1,0.5182475000001432,['n'],1,right,['u'],1,0.7692239999996673,0.4,1,0,FastAcc,23,17,Woman,Right,
57,13,1,0.4344371000006504,['c'],1,left,['u'],1,0.6112525000007736,0.1,1,0,FastAcc,23,17,Woman,Right,
58,13,1,0.4843247999997402,['n'],1,right,['u'],1,0.6978042999999161,0.2,1,0,FastAcc,23,17,Woman,Right,
59,13,1,0.4663946999990003,['n'],1,right,['u'],1,0.6060951999988902,0.4,1,0,FastAcc,23,17,Woman,Right,
0,14,1,0.4678933000013785,['c'],1,left,['u'],1,0.2296953000004578,0.4,1,0,FastFast,23,17,Woman,Right,
1,14,1,0.4167256000000634,['n'],0,left,['u'],1,0.2376765000008163,0.1,0,0,FastFast,23,17,Woman,Right,
2,14,1,0.5506199000010383,['n'],1,right,['e'],0,0.2244921000001341,0.2,0,0,FastFast,23,17,Woman,Right,
3,14,1,0.38267260000066017,['c'],0,right,['u'],1,0.26763320000100066,0.4,0,0,FastFast,23,17,Woman,Right,
4,14,1,0.36700089999976626,['c'],1,left,['e'],0,0.3563630999997258,0.1,0,0,FastFast,23,17,Woman,Right,
5,14,1,0.4505484000001161,['c'],0,right,['e'],0,0.4540467000006174,0.1,1,0,FastFast,23,17,Woman,Right,
6,14,1,0.36794560000089405,['n'],0,left,['u'],1,0.4394737000002351,0.1,0,0,FastFast,23,17,Woman,Right,
7,14,1,0.3674758000015572,['c'],0,right,['e'],0,0.5070914000007178,0.2,1,0,FastFast,23,17,Woman,Right,
8,14,1,0.4003917999998521,['n'],0,left,['e'],0,0.8558795999997528,0.1,1,0,FastFast,23,17,Woman,Right,
9,14,1,0.38357560000076774,['c'],0,right,['e'],0,0.31283110000003944,0.1,1,0,FastFast,23,17,Woman,Right,
10,14,1,0.449444299998504,['n'],1,right,['e'],0,0.2377104999995936,0.4,0,0,FastFast,23,17,Woman,Right,
11,14,1,0.4014318000008643,['n'],1,right,['u'],1,0.22948840000026394,0.2,1,0,FastFast,23,17,Woman,Right,
12,14,1,0.4171117999994749,['c'],1,left,['u'],1,0.23735250000027008,0.1,1,0,FastFast,23,17,Woman,Right,
13,14,1,0.7183024000005389,['c'],1,left,['e'],0,0.20158949999859033,0.2,0,0,FastFast,23,17,Woman,Right,
14,14,1,0.4012548999999126,['c'],1,left,['e'],0,0.32385529999919527,0.1,0,0,FastFast,23,17,Woman,Right,
15,14,1,0.4841612999989593,['n'],1,right,['u'],1,0.21511110000028566,0.2,1,0,FastFast,23,17,Woman,Right,
16,14,1,0.45017860000007204,['n'],1,right,['u'],1,0.20684389999951236,0.4,1,0,FastFast,23,17,Woman,Right,
17,14,1,0.44923650000055204,['n'],1,right,['u'],1,0.21508559999892896,0.1,1,0,FastFast,23,17,Woman,Right,
18,14,1,0.5011959999992541,['c'],1,left,['u'],1,0.23560680000082357,0.2,1,0,FastFast,23,17,Woman,Right,
19,14,1,0.4501754000011715,['c'],1,left,['e'],0,0.35537790000125824,0.2,0,0,FastFast,23,17,Woman,Right,
20,14,1,0.4348245000001043,['c'],0,right,['e'],0,0.3253867999992508,0.2,1,0,FastFast,23,17,Woman,Right,
21,14,1,0.48490859999947133,['n'],1,right,['u'],1,0.2633691999999428,0.4,1,0,FastFast,23,17,Woman,Right,
22,14,1,0.4346745999991981,['c'],1,left,['u'],1,0.23788969999986875,0.2,1,0,FastFast,23,17,Woman,Right,
23,14,1,0.5504160999989836,['c'],1,left,['e'],0,0.288827799999126,0.2,0,0,FastFast,23,17,Woman,Right,
24,14,1,0.46815560000140977,['c'],1,left,['u'],1,0.26078310000048077,0.2,1,0,FastFast,23,17,Woman,Right,
25,14,1,0.5341000000007625,['n'],0,left,['e'],0,0.4240743999998813,0.1,1,0,FastFast,23,17,Woman,Right,
26,14,1,1.2495432000014262,['n'],0,left,['e'],0,0.20005640000090352,0.2,1,0,FastFast,23,17,Woman,Right,
27,14,1,1.3350472999991325,['c'],0,right,['u'],1,0.2682429999986198,0.1,0,0,FastFast,23,17,Woman,Right,
28,14,1,0.7014444999986154,['n'],1,right,['u'],1,0.26378719999956957,0.1,1,0,FastFast,23,17,Woman,Right,
29,14,1,1.8667531000010058,['n'],0,left,['e'],0,0.2932378000004974,0.2,1,0,FastFast,23,17,Woman,Right,
30,14,1,0.4676472000010108,['n'],1,right,['u'],1,0.4091279999993276,0.4,1,0,FastFast,23,17,Woman,Right,
31,14,1,0.5008589000008214,['c'],1,left,['u'],1,0.23157400000127382,0.1,1,0,FastFast,23,17,Woman,Right,
32,14,1,0.5166606999991927,['c'],1,left,['u'],1,0.17216179999923042,0.4,1,0,FastFast,23,17,Woman,Right,
33,14,1,0.48483090000081575,['n'],1,right,['u'],1,0.21261129999948025,0.4,1,0,FastFast,23,17,Woman,Right,
34,14,1,0.5001582000004419,['c'],1,left,['u'],1,0.1696394999999029,0.2,1,0,FastFast,23,17,Woman,Right,
35,14,1,0.8846799000002648,['n'],1,right,['u'],1,0.27388260000043374,0.4,1,0,FastFast,23,17,Woman,Right,
36,14,1,0.6015345000014349,['c'],1,left,['u'],1,0.14517800000066927,0.4,1,0,FastFast,23,17,Woman,Right,
37,14,1,0.46809290000055626,['n'],1,right,['u'],1,0.23480469999958586,0.4,1,0,FastFast,23,17,Woman,Right,
38,14,1,0.45100669999919774,['c'],1,left,['u'],1,0.1615285000007134,0.4,1,0,FastFast,23,17,Woman,Right,
39,14,1,0.5014377999996213,['n'],1,right,['u'],1,0.24977060000128404,0.2,1,0,FastFast,23,17,Woman,Right,
40,14,1,0.3834667000010086,['c'],0,right,['u'],1,0.19528340000033495,0.4,0,0,FastFast,23,17,Woman,Right,
41,14,1,0.7015314000000217,['n'],1,right,['u'],1,0.22611940000024333,0.1,1,0,FastFast,23,17,Woman,Right,
42,14,1,0.5183412999995198,['n'],0,left,['u'],1,0.1988216999998258,0.2,0,0,FastFast,23,17,Woman,Right,
43,14,1,0.48449839999921096,['c'],0,right,['u'],1,0.1894259000000602,0.1,0,0,FastFast,23,17,Woman,Right,
44,14,1,0.517098199999964,['n'],1,right,['u'],1,0.17951709999942977,0.1,1,0,FastFast,23,17,Woman,Right,
45,14,1,0.45191220000015164,['n'],1,right,['u'],1,0.18845280000095954,0.4,1,0,FastFast,23,17,Woman,Right,
46,14,1,0.4665320000003703,['n'],1,right,['u'],1,0.3253566999992472,0.2,1,0,FastFast,23,17,Woman,Right,
47,14,1,0.3846193999997922,['c'],1,left,['u'],1,0.17121039999983623,0.1,1,0,FastFast,23,17,Woman,Right,
48,14,1,0.4681639999998879,['c'],1,left,['u'],1,0.16405769999983022,0.1,1,0,FastFast,23,17,Woman,Right,
49,14,1,0.433202700000038,['n'],1,right,['u'],1,0.12651290000030713,0.4,1,0,FastFast,23,17,Woman,Right,
50,14,1,0.43344689999867114,['c'],1,left,['u'],1,0.10716799999863724,0.4,1,0,FastFast,23,17,Woman,Right,
51,14,1,0.43371380000098725,['n'],0,left,['u'],1,0.27932420000070124,0.2,0,0,FastFast,23,17,Woman,Right,
52,14,1,0.38506989999950747,['c'],1,left,['u'],1,0.14238259999910952,0.4,1,0,FastFast,23,17,Woman,Right,
53,14,1,0.4344311999993806,['n'],1,right,['u'],1,0.15395790000002307,0.4,1,0,FastFast,23,17,Woman,Right,
54,14,1,0.6002733999994234,['c'],0,right,['u'],1,0.12626149999960035,0.2,0,0,FastFast,23,17,Woman,Right,
55,14,1,0.5337094999995315,['n'],1,right,['u'],1,0.1665627999991557,0.4,1,0,FastFast,23,17,Woman,Right,
56,14,1,0.583680199999435,['n'],1,right,['u'],1,0.17150340000080178,0.2,1,0,FastFast,23,17,Woman,Right,
57,14,1,0.4504013000005216,['n'],0,left,['u'],1,0.19629429999986314,0.1,0,0,FastFast,23,17,Woman,Right,
58,14,1,0.5009871999991447,['c'],1,left,['u'],1,0.20238009999957285,0.1,1,0,FastFast,23,17,Woman,Right,
59,14,1,0.4513647999992827,['c'],1,left,['u'],1,0.19467160000021977,0.4,1,0,FastFast,23,17,Woman,Right,
0,15,1,0.6176694999994652,['n'],0,left,['u'],1,0.31091659999947296,0.2,0,0,AccFast,23,17,Woman,Right,
1,15,1,0.500382799998988,['n'],1,right,['u'],1,0.2654467000011209,0.4,1,0,AccFast,23,17,Woman,Right,
2,15,1,0.5680004999994708,['c'],0,right,['u'],1,0.23379790000035428,0.2,0,0,AccFast,23,17,Woman,Right,
3,15,1,0.4505126999993081,['n'],1,right,['u'],1,0.25666549999914423,0.2,1,0,AccFast,23,17,Woman,Right,
4,15,1,0.40093829999932495,['n'],1,right,['u'],1,0.45687999999972817,0.4,1,0,AccFast,23,17,Woman,Right,
5,15,1,0.4514235999995435,['c'],1,left,['u'],1,0.2163430000000517,0.4,1,0,AccFast,23,17,Woman,Right,
6,15,1,0.6345624000005046,['n'],1,right,['u'],1,0.2633220000006986,0.2,1,0,AccFast,23,17,Woman,Right,
7,15,1,0.6334684000012203,['n'],1,right,['u'],1,0.22957399999904737,0.4,1,0,AccFast,23,17,Woman,Right,
8,15,1,0.6345820000005915,['c'],1,left,['u'],1,0.14910489999965648,0.1,1,0,AccFast,23,17,Woman,Right,
9,15,1,0.549197100001038,['c'],1,left,['u'],1,0.12413410000044678,0.4,1,0,AccFast,23,17,Woman,Right,
10,15,1,0.5013785999999527,['c'],1,left,['u'],1,0.1486600999996881,0.4,1,0,AccFast,23,17,Woman,Right,
11,15,1,0.4334443999996438,['n'],1,right,['u'],1,0.1443794999995589,0.1,1,0,AccFast,23,17,Woman,Right,
12,15,1,0.41755749999902037,['c'],1,left,['u'],1,0.187994299998536,0.1,1,0,AccFast,23,17,Woman,Right,
13,15,1,0.7345098000005237,['n'],0,left,['e'],0,0.13752950000161945,0.1,1,0,AccFast,23,17,Woman,Right,
14,15,1,0.6845776999998634,['c'],0,right,['e'],0,0.18697180000162916,0.1,1,0,AccFast,23,17,Woman,Right,
15,15,1,0.883068800001638,['c'],1,left,['u'],1,0.16252850000091712,0.1,1,0,AccFast,23,17,Woman,Right,
16,15,1,0.5337166999997862,['c'],1,left,['e'],0,0.2008162000001903,0.2,0,0,AccFast,23,17,Woman,Right,
17,15,1,0.6178482000013901,['c'],0,right,['u'],1,0.13836569999875792,0.1,0,0,AccFast,23,17,Woman,Right,
18,15,1,0.501121500001318,['n'],1,right,['u'],1,0.2594507000012527,0.2,1,0,AccFast,23,17,Woman,Right,
19,15,1,1.051065199999357,['n'],1,right,['e'],0,0.14540839999972377,0.2,0,0,AccFast,23,17,Woman,Right,
20,15,1,0.600976300000184,['c'],0,right,['e'],0,0.1976570000006177,0.2,1,0,AccFast,23,17,Woman,Right,
21,15,1,0.9015832999994018,['c'],1,left,['u'],1,0.21998330000133137,0.1,1,0,AccFast,23,17,Woman,Right,
22,15,1,0.5168439999997645,['c'],1,left,['e'],0,0.22573090000150842,0.1,0,0,AccFast,23,17,Woman,Right,
23,15,1,0.4179979000000458,['n'],1,right,['u'],1,0.15424180000081833,0.1,1,0,AccFast,23,17,Woman,Right,
24,15,1,0.5501352000010229,['n'],1,right,['u'],1,0.17657279999912134,0.4,1,0,AccFast,23,17,Woman,Right,
25,15,1,0.7345105000003969,['n'],1,right,['u'],1,0.20605390000127954,0.4,1,0,AccFast,23,17,Woman,Right,
26,15,1,0.6006462000004831,['c'],0,right,['u'],1,0.160403399999268,0.2,0,0,AccFast,23,17,Woman,Right,
27,15,1,0.46760969999922963,['n'],1,right,['u'],1,0.1538276000010228,0.1,1,0,AccFast,23,17,Woman,Right,
28,15,1,0.5009724000010465,['n'],1,right,['u'],1,0.14630589999978838,0.4,1,0,AccFast,23,17,Woman,Right,
29,15,1,0.4842155999995157,['c'],0,right,['u'],1,0.1551417999999103,0.2,0,0,AccFast,23,17,Woman,Right,
30,15,1,0.4181255000003148,['c'],1,left,['u'],1,0.16659160000017437,0.2,1,0,AccFast,23,17,Woman,Right,
31,15,1,0.43376639999951294,['c'],1,left,['u'],1,0.16066269999828364,0.2,1,0,AccFast,23,17,Woman,Right,
32,15,1,0.4670611999990797,['n'],0,left,['u'],1,0.1710895000014716,0.4,0,0,AccFast,23,17,Woman,Right,
33,15,1,0.41770480000013777,['c'],1,left,['u'],1,0.18108570000003965,0.4,1,0,AccFast,23,17,Woman,Right,
34,15,1,0.5997789000011835,['n'],1,right,['u'],1,0.18518210000002,0.4,1,0,AccFast,23,17,Woman,Right,
35,15,1,0.6349675000001298,['c'],1,left,['e'],0,0.3295568000012281,0.2,0,0,AccFast,23,17,Woman,Right,
36,15,1,0.816309399999227,['n'],1,right,['u'],1,0.15906979999999749,0.2,1,0,AccFast,23,17,Woman,Right,
37,15,1,0.4351661000000604,['c'],1,left,['u'],1,0.16888660000040545,0.1,1,0,AccFast,23,17,Woman,Right,
38,15,1,0.6015127999999095,['c'],1,left,['u'],1,0.2523966999997356,0.2,1,0,AccFast,23,17,Woman,Right,
39,15,1,0.95096729999932,['n'],1,right,['u'],1,0.3354018999998516,0.1,1,0,AccFast,23,17,Woman,Right,
40,15,1,1.5684827999994013,['n'],1,right,['e'],0,0.14876449999974284,0.1,0,0,AccFast,23,17,Woman,Right,
41,15,1,1.299073700000008,['c'],1,left,['u'],1,0.14180930000111402,0.1,1,0,AccFast,23,17,Woman,Right,
42,15,1,0.7343815000003815,['c'],1,left,['u'],1,0.1568604999993113,0.4,1,0,AccFast,23,17,Woman,Right,
43,15,1,1.1176758999990852,['c'],1,left,['u'],1,0.18847889999960898,0.4,1,0,AccFast,23,17,Woman,Right,
44,15,1,0.7174184000014066,['c'],0,right,['u'],1,0.1227175999993051,0.4,0,0,AccFast,23,17,Woman,Right,
45,15,1,0.6497565000008763,['c'],0,right,['u'],1,0.12612850000004983,0.1,0,0,AccFast,23,17,Woman,Right,
46,15,1,0.9157469000001583,['c'],0,right,['u'],1,0.18437330000051588,0.4,0,0,AccFast,23,17,Woman,Right,
47,15,1,0.983816800000568,['c'],1,left,['u'],1,0.15552750000097149,0.2,1,0,AccFast,23,17,Woman,Right,
48,15,1,0.7003552000005584,['c'],0,right,['u'],1,0.1715184999993653,0.2,0,0,AccFast,23,17,Woman,Right,
49,15,1,0.6175661999986914,['n'],1,right,['u'],1,0.1896574000002147,0.4,1,0,AccFast,23,17,Woman,Right,
50,15,1,0.7015599999995175,['c'],1,left,['u'],1,0.18876880000061647,0.4,1,0,AccFast,23,17,Woman,Right,
51,15,1,0.6010331999987102,['c'],1,left,['u'],1,0.12823039999966568,0.1,1,0,AccFast,23,17,Woman,Right,
52,15,1,0.4332529000002978,['c'],1,left,['u'],1,0.1407199999994191,0.4,1,0,AccFast,23,17,Woman,Right,
53,15,1,0.5010068000010506,['c'],1,left,['u'],1,0.11720659999991767,0.2,1,0,AccFast,23,17,Woman,Right,
54,15,1,0.6346647000009398,['c'],1,left,['e'],0,0.18483010000090871,0.4,0,0,AccFast,23,17,Woman,Right,
55,15,1,0.4839393000002019,['n'],1,right,['e'],0,0.14436960000057297,0.1,0,0,AccFast,23,17,Woman,Right,
56,15,1,0.6013999000006152,['c'],0,right,['e'],0,0.13316999999915424,0.2,1,0,AccFast,23,17,Woman,Right,
57,15,1,0.6014854999993986,['c'],1,left,['u'],1,0.1862232999992557,0.1,1,0,AccFast,23,17,Woman,Right,
58,15,1,0.550739700000122,['c'],1,left,['u'],1,0.12713290000101551,0.2,1,0,AccFast,23,17,Woman,Right,
59,15,1,0.5840668999990157,['n'],0,left,['e'],0,0.1333599999998114,0.1,1,0,AccFast,23,17,Woman,Right,
