withinblocktrial,block,block_repetition,rt,resp,cor,cresp,conf_press,cj,rtconf,coherence,metacognition,slow_trial,manipulation,sub,age,gender,handedness,
0,1,1,1.11648360000072,['n'],1,right,none,-99,-99,0.5,-99,0,none,16,18,Woman,Right,
1,1,1,1.8681336999998166,['n'],0,left,none,-99,-99,0.5,-99,0,none,16,18,Woman,Right,
2,1,1,1.0171276000000944,['c'],1,left,none,-99,-99,0.5,-99,0,none,16,18,Woman,Right,
3,1,1,0.6996024999989459,['n'],1,right,none,-99,-99,0.5,-99,0,none,16,18,Woman,Right,
4,1,1,0.9331583000002865,['n'],1,right,none,-99,-99,0.5,-99,0,none,16,18,Woman,Right,
5,1,1,0.6349101000014343,['n'],1,right,none,-99,-99,0.5,-99,0,none,16,18,Woman,Right,
6,1,1,1.0011324000006425,['c'],1,left,none,-99,-99,0.5,-99,0,none,16,18,Woman,Right,
7,1,1,0.550679099998888,['n'],1,right,none,-99,-99,0.5,-99,0,none,16,18,Woman,Right,
8,1,1,0.5341771999992488,['n'],1,right,none,-99,-99,0.5,-99,0,none,16,18,Woman,Right,
9,1,1,0.6840204000000085,['c'],1,left,none,-99,-99,0.5,-99,0,none,16,18,Woman,Right,
10,1,1,0.43421809999927063,['n'],1,right,none,-99,-99,0.5,-99,0,none,16,18,Woman,Right,
11,1,1,0.6832240999992791,['n'],1,right,none,-99,-99,0.5,-99,0,none,16,18,Woman,Right,
12,1,1,0.7326597000010224,['c'],1,left,none,-99,-99,0.5,-99,0,none,16,18,Woman,Right,
13,1,1,0.9504157999999734,['n'],1,right,none,-99,-99,0.5,-99,0,none,16,18,Woman,Right,
14,1,1,0.8328087000008964,['c'],1,left,none,-99,-99,0.5,-99,0,none,16,18,Woman,Right,
15,1,1,0.6338888999998744,['n'],0,left,none,-99,-99,0.5,-99,0,none,16,18,Woman,Right,
16,1,1,0.7161505999993096,['n'],1,right,none,-99,-99,0.5,-99,0,none,16,18,Woman,Right,
17,1,1,0.6666094000011071,['c'],1,left,none,-99,-99,0.5,-99,0,none,16,18,Woman,Right,
18,1,1,0.733100800000102,['n'],1,right,none,-99,-99,0.5,-99,0,none,16,18,Woman,Right,
19,1,1,0.5317850999999791,['n'],1,right,none,-99,-99,0.5,-99,0,none,16,18,Woman,Right,
20,1,1,1.2349090999996406,['n'],0,left,none,-99,-99,0.5,-99,0,none,16,18,Woman,Right,
21,1,1,0.7666888000003382,['n'],0,left,none,-99,-99,0.5,-99,0,none,16,18,Woman,Right,
22,1,1,1.0003501999999571,['c'],1,left,none,-99,-99,0.5,-99,0,none,16,18,Woman,Right,
23,1,1,0.9005166000006284,['c'],1,left,none,-99,-99,0.5,-99,0,none,16,18,Woman,Right,
0,1,2,0.9676898999987316,['n'],1,right,none,-99,-99,0.5,-99,0,none,16,18,Woman,Right,
1,1,2,0.616751600000498,['n'],1,right,none,-99,-99,0.5,-99,0,none,16,18,Woman,Right,
2,1,2,0.6495728999998391,['c'],1,left,none,-99,-99,0.5,-99,0,none,16,18,Woman,Right,
3,1,2,0.6507626000002347,['c'],1,left,none,-99,-99,0.5,-99,0,none,16,18,Woman,Right,
4,1,2,0.6005033000001276,['n'],1,right,none,-99,-99,0.5,-99,0,none,16,18,Woman,Right,
5,1,2,0.6002973999984533,['n'],1,right,none,-99,-99,0.5,-99,0,none,16,18,Woman,Right,
6,1,2,0.701119800000015,['c'],1,left,none,-99,-99,0.5,-99,0,none,16,18,Woman,Right,
7,1,2,0.6509592999991582,['c'],1,left,none,-99,-99,0.5,-99,0,none,16,18,Woman,Right,
8,1,2,0.5848167000003741,['c'],0,right,none,-99,-99,0.5,-99,0,none,16,18,Woman,Right,
9,1,2,0.7004887999992206,['c'],1,left,none,-99,-99,0.5,-99,0,none,16,18,Woman,Right,
10,1,2,0.7672578000001522,['c'],1,left,none,-99,-99,0.5,-99,0,none,16,18,Woman,Right,
11,1,2,0.5502427000010357,['c'],1,left,none,-99,-99,0.5,-99,0,none,16,18,Woman,Right,
12,1,2,0.6496297999983653,['n'],1,right,none,-99,-99,0.5,-99,0,none,16,18,Woman,Right,
13,1,2,1.1670247999991261,['c'],1,left,none,-99,-99,0.5,-99,0,none,16,18,Woman,Right,
14,1,2,0.7334461999998894,['n'],0,left,none,-99,-99,0.5,-99,0,none,16,18,Woman,Right,
15,1,2,1.0006037000002834,['n'],1,right,none,-99,-99,0.5,-99,0,none,16,18,Woman,Right,
16,1,2,0.5671915000002627,['c'],1,left,none,-99,-99,0.5,-99,0,none,16,18,Woman,Right,
17,1,2,0.6015870000010182,['n'],1,right,none,-99,-99,0.5,-99,0,none,16,18,Woman,Right,
18,1,2,0.4501901000003272,['n'],1,right,none,-99,-99,0.5,-99,0,none,16,18,Woman,Right,
19,1,2,0.5847377000009146,['c'],1,left,none,-99,-99,0.5,-99,0,none,16,18,Woman,Right,
20,1,2,0.5843487999991339,['n'],1,right,none,-99,-99,0.5,-99,0,none,16,18,Woman,Right,
21,1,2,0.7166887000003044,['c'],1,left,none,-99,-99,0.5,-99,0,none,16,18,Woman,Right,
22,1,2,0.5336060999998153,['n'],1,right,none,-99,-99,0.5,-99,0,none,16,18,Woman,Right,
23,1,2,0.5995726999990438,['n'],1,right,none,-99,-99,0.5,-99,0,none,16,18,Woman,Right,
0,2,1,1.1842613999997411,['c'],1,left,none,-99,-99,0.4,-99,0,none,16,18,Woman,Right,
1,2,1,0.6832102999997005,['n'],1,right,none,-99,-99,0.1,-99,0,none,16,18,Woman,Right,
2,2,1,0.6176759999998467,['n'],1,right,none,-99,-99,0.2,-99,0,none,16,18,Woman,Right,
3,2,1,0.49954239999897254,['n'],0,left,none,-99,-99,0.4,-99,0,none,16,18,Woman,Right,
4,2,1,0.76786600000014,['c'],1,left,none,-99,-99,0.4,-99,0,none,16,18,Woman,Right,
5,2,1,0.6180257000014535,['n'],0,left,none,-99,-99,0.1,-99,0,none,16,18,Woman,Right,
6,2,1,1.0672887999990053,['n'],1,right,none,-99,-99,0.2,-99,0,none,16,18,Woman,Right,
7,2,1,1.2004147999996349,['c'],1,left,none,-99,-99,0.2,-99,0,none,16,18,Woman,Right,
8,2,1,0.6341901000014332,['n'],0,left,none,-99,-99,0.1,-99,0,none,16,18,Woman,Right,
9,2,1,0.7495621999987634,['n'],1,right,none,-99,-99,0.1,-99,0,none,16,18,Woman,Right,
10,2,1,1.049868799998876,['n'],1,right,none,-99,-99,0.1,-99,0,none,16,18,Woman,Right,
11,2,1,0.7826015999999072,['c'],1,left,none,-99,-99,0.4,-99,0,none,16,18,Woman,Right,
12,2,1,1.0993194000002404,['n'],0,left,none,-99,-99,0.1,-99,0,none,16,18,Woman,Right,
13,2,1,0.6334862999992765,['n'],1,right,none,-99,-99,0.2,-99,0,none,16,18,Woman,Right,
14,2,1,0.766412400000263,['c'],1,left,none,-99,-99,0.4,-99,0,none,16,18,Woman,Right,
15,2,1,0.5840669000008347,['n'],1,right,none,-99,-99,0.4,-99,0,none,16,18,Woman,Right,
16,2,1,1.0829688000012538,['n'],0,left,none,-99,-99,0.1,-99,0,none,16,18,Woman,Right,
17,2,1,0.7334042999991652,['n'],1,right,none,-99,-99,0.4,-99,0,none,16,18,Woman,Right,
18,2,1,1.0340309999992314,['c'],0,right,none,-99,-99,0.1,-99,0,none,16,18,Woman,Right,
19,2,1,0.9495685000001686,['n'],1,right,none,-99,-99,0.2,-99,0,none,16,18,Woman,Right,
20,2,1,0.7509089999985008,['n'],1,right,none,-99,-99,0.2,-99,0,none,16,18,Woman,Right,
21,2,1,0.9005032999994,['c'],1,left,none,-99,-99,0.4,-99,0,none,16,18,Woman,Right,
22,2,1,1.2826167000002897,['c'],1,left,none,-99,-99,0.2,-99,0,none,16,18,Woman,Right,
23,2,1,0.8512637000003451,['n'],1,right,none,-99,-99,0.2,-99,0,none,16,18,Woman,Right,
0,3,1,1.751177699999971,['c'],1,left,['u'],0,1.98837900000035,0.4,0,0,none,16,18,Woman,Right,
1,3,1,1.5173458000008395,['n'],1,right,['u'],0,0.7992684000000736,0.2,0,0,none,16,18,Woman,Right,
2,3,1,1.0677937000000384,['c'],1,left,['e'],1,0.6026602000001731,0.4,1,0,none,16,18,Woman,Right,
3,3,1,1.4502116000003298,['n'],1,right,['e'],1,0.6547062000008737,0.2,1,0,none,16,18,Woman,Right,
4,3,1,1.017618500000026,['c'],1,left,['e'],1,0.578552299999501,0.4,1,0,none,16,18,Woman,Right,
5,3,1,1.3181506000000809,['n'],1,right,['e'],1,0.8292560999998386,0.1,1,0,none,16,18,Woman,Right,
6,3,1,2.4674572000003536,['n'],0,left,['u'],0,0.863641899999493,0.2,1,0,none,16,18,Woman,Right,
7,3,1,1.3177056000004086,['n'],1,right,['u'],0,0.5104945999992196,0.1,0,0,none,16,18,Woman,Right,
8,3,1,1.3341616000016074,['n'],0,left,['e'],1,0.4277561999988393,0.1,0,0,none,16,18,Woman,Right,
9,3,1,1.2175987999999052,['n'],1,right,['e'],1,0.4003675999992993,0.1,1,0,none,16,18,Woman,Right,
10,3,1,0.6513030999994953,['n'],1,right,['e'],1,0.39650710000023537,0.2,1,0,none,16,18,Woman,Right,
11,3,1,1.6012935000017023,['n'],0,left,['u'],0,0.7867310000001453,0.2,1,0,none,16,18,Woman,Right,
12,3,1,1.5012294000007387,['n'],0,left,['u'],0,0.6696181000006618,0.1,1,0,none,16,18,Woman,Right,
13,3,1,0.8505097000015667,['n'],1,right,['e'],1,0.2312617000006867,0.4,1,0,none,16,18,Woman,Right,
14,3,1,0.7177644000003056,['n'],1,right,['e'],1,0.3595705999996426,0.4,1,0,none,16,18,Woman,Right,
15,3,1,0.7511896999985765,['n'],1,right,['e'],1,0.3219418999997288,0.4,1,0,none,16,18,Woman,Right,
16,3,1,0.6673528999999689,['n'],1,right,['e'],1,0.40080630000011297,0.4,1,0,none,16,18,Woman,Right,
17,3,1,1.3178285000012693,['n'],0,left,['u'],0,1.138242300001366,0.2,1,0,none,16,18,Woman,Right,
18,3,1,0.8343387999993865,['n'],0,left,['e'],1,0.3778128000012657,0.2,0,0,none,16,18,Woman,Right,
19,3,1,1.3677575000001525,['n'],1,right,['e'],1,0.5225757999996858,0.1,1,0,none,16,18,Woman,Right,
20,3,1,1.201501699999426,['n'],0,left,['e'],1,0.476188300001013,0.1,0,0,none,16,18,Woman,Right,
21,3,1,1.4509672000003775,['n'],0,left,['u'],0,0.6936636000009457,0.1,1,0,none,16,18,Woman,Right,
22,3,1,0.9328840999987733,['c'],1,left,['e'],1,1.6281144999993558,0.2,1,0,none,16,18,Woman,Right,
23,3,1,0.7677110999993602,['n'],1,right,['e'],1,0.4023643999989872,0.4,1,0,none,16,18,Woman,Right,
0,4,1,0.8671869999998307,['n'],1,right,['u'],0,3.8221526999986963,0.2,0,0,FastAcc,16,18,Woman,Right,
1,4,1,1.7500227999989875,['n'],0,left,['u'],0,2.3222103000007337,0.1,1,0,FastAcc,16,18,Woman,Right,
2,4,1,1.9345116000004055,['c'],0,right,['u'],0,7.866150800000469,0.2,1,0,FastAcc,16,18,Woman,Right,
3,4,1,0.9175524000002042,['n'],0,left,['e'],1,6.26966689999972,0.1,0,0,FastAcc,16,18,Woman,Right,
4,4,1,1.10023209999963,['n'],1,right,['e'],1,4.089924699999756,0.1,1,0,FastAcc,16,18,Woman,Right,
5,4,1,1.100114400000166,['n'],0,left,['u'],0,2.205094299999473,0.2,1,0,FastAcc,16,18,Woman,Right,
6,4,1,0.8842342000007193,['n'],1,right,['u'],0,5.956265300001178,0.1,0,0,FastAcc,16,18,Woman,Right,
7,4,1,0.650555299998814,['n'],1,right,['e'],1,1.8068308999991132,0.4,1,0,FastAcc,16,18,Woman,Right,
8,4,1,0.8846159000004263,['n'],1,right,['e'],1,2.597798899998452,0.4,1,0,FastAcc,16,18,Woman,Right,
9,4,1,0.9675829999996495,['n'],1,right,['e'],1,3.897710300001563,0.2,1,0,FastAcc,16,18,Woman,Right,
10,4,1,0.800751400000081,['n'],1,right,['e'],1,1.984259300001213,0.1,1,0,FastAcc,16,18,Woman,Right,
11,4,1,1.1677500000005239,['n'],1,right,['u'],0,3.220559299999877,0.1,0,0,FastAcc,16,18,Woman,Right,
12,4,1,0.6172284000003856,['n'],0,left,['u'],0,4.669893399999637,0.4,1,0,FastAcc,16,18,Woman,Right,
13,4,1,0.7180656000000454,['n'],1,right,['e'],1,1.2090536000014254,0.1,1,0,FastAcc,16,18,Woman,Right,
14,4,1,0.8678318000002037,['n'],0,left,['u'],0,2.616607300000396,0.2,1,0,FastAcc,16,18,Woman,Right,
15,4,1,1.2177578999999241,['n'],0,left,['u'],0,2.44974159999947,0.1,1,0,FastAcc,16,18,Woman,Right,
16,4,1,1.7336064999999508,['c'],0,right,['u'],0,3.853738300000259,0.1,1,0,FastAcc,16,18,Woman,Right,
17,4,1,1.1842047999998613,['n'],0,left,['u'],0,1.590227099999538,0.2,1,0,FastAcc,16,18,Woman,Right,
18,4,1,0.8671156999989762,['n'],0,left,['u'],0,3.35060920000069,0.4,1,0,FastAcc,16,18,Woman,Right,
19,4,1,1.6512352999998257,['n'],0,left,['u'],0,5.61690119999912,0.1,1,0,FastAcc,16,18,Woman,Right,
20,4,1,1.0012671999993472,['n'],0,left,['u'],0,3.531060900000739,0.1,1,0,FastAcc,16,18,Woman,Right,
21,4,1,1.0678265999995347,['c'],1,left,['u'],0,3.125656099999105,0.4,0,0,FastAcc,16,18,Woman,Right,
22,4,1,1.2175479999987147,['c'],1,left,['u'],0,3.2589000000007218,0.4,0,0,FastAcc,16,18,Woman,Right,
23,4,1,0.9830153999992035,['n'],0,left,['u'],0,3.828029600001173,0.4,1,0,FastAcc,16,18,Woman,Right,
24,4,1,0.6008078000013484,['n'],1,right,['u'],0,3.078190000000177,0.1,0,0,FastAcc,16,18,Woman,Right,
25,4,1,1.316665099999227,['n'],0,left,['u'],0,1.8814553000011074,0.2,1,0,FastAcc,16,18,Woman,Right,
26,4,1,1.0677810000015597,['n'],1,right,['e'],1,1.7013665000013134,0.4,1,0,FastAcc,16,18,Woman,Right,
27,4,1,1.416616000000431,['c'],1,left,['e'],1,3.5317383999990852,0.4,1,0,FastAcc,16,18,Woman,Right,
28,4,1,0.9342101000002003,['n'],0,left,['e'],1,2.9712025999997422,0.1,0,0,FastAcc,16,18,Woman,Right,
29,4,1,0.9507360999996308,['n'],1,right,['e'],1,3.1207004000007146,0.2,1,0,FastAcc,16,18,Woman,Right,
30,4,1,1.0838669000004302,['n'],1,right,['e'],1,2.859302500000922,0.4,1,0,FastAcc,16,18,Woman,Right,
31,4,1,1.8675772999995388,['n'],1,right,['u'],0,4.40115120000155,0.2,0,0,FastAcc,16,18,Woman,Right,
32,4,1,0.5844668999998248,['c'],1,left,['u'],0,3.5165357000005315,0.4,0,0,FastAcc,16,18,Woman,Right,
33,4,1,0.5507015000002866,['n'],1,right,['e'],1,3.900205800000549,0.2,1,0,FastAcc,16,18,Woman,Right,
34,4,1,0.8006905999991432,['c'],1,left,['e'],1,2.978716899999199,0.1,1,0,FastAcc,16,18,Woman,Right,
35,4,1,0.717662900000505,['n'],0,left,['u'],0,2.0013352000005398,0.1,1,0,FastAcc,16,18,Woman,Right,
36,4,1,0.900558599998476,['n'],0,left,['u'],0,1.503469799999948,0.2,1,0,FastAcc,16,18,Woman,Right,
37,4,1,1.1676410000000033,['n'],1,right,['u'],0,5.031328700000813,0.1,0,0,FastAcc,16,18,Woman,Right,
38,4,1,0.7346149000004516,['n'],1,right,['u'],0,2.003161300001011,0.1,0,0,FastAcc,16,18,Woman,Right,
39,4,1,0.76786600000014,['n'],1,right,['e'],1,1.2870542000000569,0.2,1,0,FastAcc,16,18,Woman,Right,
40,4,1,0.8184743000001617,['n'],1,right,['e'],1,3.429081700000097,0.2,1,0,FastAcc,16,18,Woman,Right,
41,4,1,0.9677222999998776,['n'],1,right,['u'],0,2.535599300001195,0.1,0,0,FastAcc,16,18,Woman,Right,
42,4,1,0.6675320999984251,['n'],1,right,['e'],1,1.8981722999997146,0.4,1,0,FastAcc,16,18,Woman,Right,
43,4,1,1.2337958000007347,['n'],0,left,['u'],0,2.255091099999845,0.2,1,0,FastAcc,16,18,Woman,Right,
44,4,1,1.2675409000003128,['c'],1,left,['u'],0,1.988796400000865,0.2,0,0,FastAcc,16,18,Woman,Right,
45,4,1,0.5347099000009621,['n'],1,right,['e'],1,2.6265963000005286,0.4,1,0,FastAcc,16,18,Woman,Right,
46,4,1,0.8173317000000679,['c'],1,left,['u'],0,2.619695800000045,0.4,0,0,FastAcc,16,18,Woman,Right,
47,4,1,0.6349798999999621,['n'],0,left,['u'],0,3.26020840000092,0.2,1,0,FastAcc,16,18,Woman,Right,
48,4,1,0.8005603000001429,['c'],1,left,['u'],0,4.2846256000011635,0.2,0,0,FastAcc,16,18,Woman,Right,
49,4,1,0.7346971999995731,['c'],1,left,['u'],0,2.9184460999986186,0.4,0,0,FastAcc,16,18,Woman,Right,
50,4,1,1.1845668999994814,['n'],0,left,['u'],0,3.476979699998992,0.4,1,0,FastAcc,16,18,Woman,Right,
51,4,1,0.8164007999985188,['c'],1,left,['u'],0,1.7568372999994608,0.2,0,0,FastAcc,16,18,Woman,Right,
52,4,1,1.101288799998656,['n'],1,right,['e'],1,2.0924754999996367,0.4,1,0,FastAcc,16,18,Woman,Right,
53,4,1,1.0669004000010318,['n'],1,right,['e'],1,2.2412098000004335,0.4,1,0,FastAcc,16,18,Woman,Right,
54,4,1,1.050591200000781,['c'],1,left,['u'],0,2.464044100001047,0.4,0,0,FastAcc,16,18,Woman,Right,
55,4,1,0.7176692000011826,['n'],1,right,['e'],1,1.7150158000004012,0.4,1,0,FastAcc,16,18,Woman,Right,
56,4,1,0.8013418999998976,['n'],1,right,['e'],1,1.6009543999989546,0.2,1,0,FastAcc,16,18,Woman,Right,
57,4,1,0.7013026000004174,['n'],1,right,['e'],1,1.399195599999075,0.2,1,0,FastAcc,16,18,Woman,Right,
58,4,1,0.5512400999996316,['n'],1,right,['e'],1,2.76333330000125,0.1,1,0,FastAcc,16,18,Woman,Right,
59,4,1,0.7512270000006538,['n'],0,left,['e'],1,2.561259300000529,0.1,0,0,FastAcc,16,18,Woman,Right,
0,5,1,0.850940599999376,['n'],1,right,['e'],1,1.2181816000011167,0.4,1,0,FastFast,16,18,Woman,Right,
1,5,1,1.716316400001233,['c'],1,left,['e'],1,1.6638045999989117,0.1,1,0,FastFast,16,18,Woman,Right,
2,5,1,0.9173608000000968,['n'],0,left,['u'],0,0.7941098000010243,0.2,1,0,FastFast,16,18,Woman,Right,
3,5,1,0.8512446999993699,['n'],1,right,['u'],0,0.44316620000063267,0.1,0,0,FastFast,16,18,Woman,Right,
4,5,1,0.8016511999994691,['n'],1,right,['e'],1,1.2600657999992109,0.1,1,0,FastFast,16,18,Woman,Right,
5,5,1,0.584559500000978,['n'],1,right,['e'],1,0.48511169999983395,0.4,1,0,FastFast,16,18,Woman,Right,
6,5,1,0.9673293000014382,['c'],1,left,['u'],0,0.6853430999999546,0.2,0,0,FastFast,16,18,Woman,Right,
7,5,1,0.6653650000007474,['n'],1,right,['e'],1,0.6987712999998621,0.2,1,0,FastFast,16,18,Woman,Right,
8,5,1,1.0681315000001632,['c'],0,right,['u'],0,0.4691941000000952,0.2,1,0,FastFast,16,18,Woman,Right,
9,5,1,0.9507610000000568,['c'],1,left,['e'],1,0.5585934999999154,0.4,1,0,FastFast,16,18,Woman,Right,
10,5,1,0.6015131000003748,['n'],1,right,['e'],1,1.267035200000464,0.4,1,0,FastFast,16,18,Woman,Right,
11,5,1,0.517682199999399,['n'],1,right,['e'],1,0.590556999999535,0.4,1,0,FastFast,16,18,Woman,Right,
12,5,1,1.2168275000003632,['c'],1,left,['u'],0,0.44022600000062084,0.4,0,0,FastFast,16,18,Woman,Right,
13,5,1,0.6675605999989784,['c'],1,left,['e'],1,0.5582670999992843,0.4,1,0,FastFast,16,18,Woman,Right,
14,5,1,0.5847152000005735,['c'],1,left,['e'],1,0.3553209000001516,0.4,1,0,FastFast,16,18,Woman,Right,
15,5,1,0.5679344000000128,['c'],1,left,['e'],1,0.32080370000039693,0.4,1,0,FastFast,16,18,Woman,Right,
16,5,1,0.7177978999989136,['n'],1,right,['e'],1,0.5537217999990389,0.1,1,0,FastFast,16,18,Woman,Right,
17,5,1,0.6174317000004521,['c'],1,left,['e'],1,0.36538199999995413,0.2,1,0,FastFast,16,18,Woman,Right,
18,5,1,0.8677366000010807,['n'],1,right,['e'],1,0.7500961999994615,0.1,1,0,FastFast,16,18,Woman,Right,
19,5,1,0.684351500000048,['n'],1,right,['e'],1,0.29532800000015413,0.2,1,0,FastFast,16,18,Woman,Right,
20,5,1,0.8680739999999787,['c'],1,left,['u'],0,0.4434378999994806,0.2,0,0,FastFast,16,18,Woman,Right,
21,5,1,0.6001711000008072,['c'],1,left,['u'],0,0.40417300000081013,0.2,0,0,FastFast,16,18,Woman,Right,
22,5,1,0.5838628000001336,['c'],1,left,['e'],1,0.36705170000095677,0.4,1,0,FastFast,16,18,Woman,Right,
23,5,1,0.7505512000007002,['n'],1,right,['e'],1,0.24498049999965588,0.4,1,0,FastFast,16,18,Woman,Right,
24,5,1,0.8844830000016373,['n'],1,right,['u'],0,0.5861669999994774,0.1,0,0,FastFast,16,18,Woman,Right,
25,5,1,0.6847262000010232,['c'],1,left,['e'],1,0.28239249999933236,0.1,1,0,FastFast,16,18,Woman,Right,
26,5,1,0.7495009000012942,['n'],0,left,['e'],1,0.6600006000007852,0.2,0,0,FastFast,16,18,Woman,Right,
27,5,1,0.8347649999996065,['n'],1,right,['u'],0,0.5379633000011381,0.1,0,0,FastFast,16,18,Woman,Right,
28,5,1,0.7845276000007289,['n'],1,right,['e'],1,0.4071640000001935,0.4,1,0,FastFast,16,18,Woman,Right,
29,5,1,0.6679920999995375,['n'],1,right,['e'],1,0.25484599999981583,0.2,1,0,FastFast,16,18,Woman,Right,
30,5,1,0.9513909000015701,['c'],1,left,['u'],0,1.8250807000003988,0.2,0,0,FastFast,16,18,Woman,Right,
31,5,1,0.5505142999991222,['n'],1,right,['e'],1,0.22881819999929576,0.4,1,0,FastFast,16,18,Woman,Right,
32,5,1,0.7501419999989594,['n'],0,left,['u'],0,0.6396686999996746,0.4,1,0,FastFast,16,18,Woman,Right,
33,5,1,0.6511558000001969,['n'],1,right,['e'],1,0.2705305999988923,0.1,1,0,FastFast,16,18,Woman,Right,
34,5,1,1.2825987999985955,['c'],1,left,['u'],0,0.5151908000007097,0.1,0,0,FastFast,16,18,Woman,Right,
35,5,1,1.0844746999991912,['c'],1,left,['u'],0,1.4936211000003823,0.2,0,0,FastFast,16,18,Woman,Right,
36,5,1,0.9514455999997153,['n'],0,left,['u'],0,0.32606179999856977,0.1,1,0,FastFast,16,18,Woman,Right,
37,5,1,0.699898499999108,['c'],1,left,['e'],1,0.35220250000020314,0.4,1,0,FastFast,16,18,Woman,Right,
38,5,1,1.6518460999996023,['c'],1,left,['u'],0,0.32170439999936207,0.4,0,0,FastFast,16,18,Woman,Right,
39,5,1,0.8336705999990954,['c'],1,left,['u'],0,0.40600090000043565,0.4,0,0,FastFast,16,18,Woman,Right,
40,5,1,0.6507743000001938,['n'],1,right,['e'],1,0.2543232000007265,0.2,1,0,FastFast,16,18,Woman,Right,
41,5,1,0.9182626000001619,['c'],0,right,['u'],0,0.5305330999999569,0.4,1,0,FastFast,16,18,Woman,Right,
42,5,1,1.1839937999993708,['c'],1,left,['u'],0,0.5116324999999051,0.1,0,0,FastFast,16,18,Woman,Right,
43,5,1,1.068213199998354,['c'],1,left,['u'],0,0.4990356999987853,0.1,0,0,FastFast,16,18,Woman,Right,
44,5,1,1.267121799999586,['n'],1,right,['e'],1,0.7837175999993633,0.2,1,0,FastFast,16,18,Woman,Right,
45,5,1,0.7330810000003112,['n'],1,right,['e'],1,0.3243672000007791,0.4,1,0,FastFast,16,18,Woman,Right,
46,5,1,0.5674815000002127,['n'],1,right,['u'],0,0.46714390000124695,0.2,0,0,FastFast,16,18,Woman,Right,
47,5,1,0.5005357999998523,['n'],1,right,['u'],0,0.27059059999919555,0.2,0,0,FastFast,16,18,Woman,Right,
48,5,1,0.88338240000121,['n'],0,left,['u'],0,0.33952030000000377,0.1,1,0,FastFast,16,18,Woman,Right,
49,5,1,1.1335664999987785,['n'],0,left,['u'],0,1.0351395000016055,0.1,1,0,FastFast,16,18,Woman,Right,
50,5,1,0.9002467000009347,['n'],1,right,['e'],1,0.6399977999990369,0.2,1,0,FastFast,16,18,Woman,Right,
51,5,1,1.0683929999995598,['c'],1,left,['u'],0,0.4455906999992294,0.1,0,0,FastFast,16,18,Woman,Right,
52,5,1,0.7343362999999954,['c'],1,left,['u'],0,1.4407432000007248,0.2,0,0,FastFast,16,18,Woman,Right,
53,5,1,1.1835817999999563,['c'],1,left,['u'],0,0.26636859999962326,0.2,0,0,FastFast,16,18,Woman,Right,
54,5,1,0.5345940999995946,['n'],1,right,['e'],1,0.36450390000027255,0.4,1,0,FastFast,16,18,Woman,Right,
55,5,1,1.1178624000003765,['c'],1,left,['u'],0,0.4197102999987692,0.1,0,0,FastFast,16,18,Woman,Right,
56,5,1,0.8679601000003458,['n'],1,right,['e'],1,0.7062222999993537,0.1,1,0,FastFast,16,18,Woman,Right,
57,5,1,0.6658592000003409,['n'],1,right,['e'],1,0.2544188000010763,0.2,1,0,FastFast,16,18,Woman,Right,
58,5,1,1.034436399999322,['n'],1,right,['u'],0,0.33279570000013337,0.1,0,0,FastFast,16,18,Woman,Right,
59,5,1,0.6993268000005628,['n'],1,right,['u'],0,0.2784901999984868,0.1,0,0,FastFast,16,18,Woman,Right,
0,6,1,1.3338497000004281,['c'],1,left,['e'],1,1.7557627000005596,0.4,1,0,AccFast,16,18,Woman,Right,
1,6,1,0.9511107999987871,['n'],1,right,['e'],1,0.6900684000011097,0.4,1,0,AccFast,16,18,Woman,Right,
2,6,1,1.7348448000011558,['n'],1,right,['e'],1,0.259521500000119,0.4,1,0,AccFast,16,18,Woman,Right,
3,6,1,2.784492200000386,['n'],1,right,['e'],1,0.4129198999999062,0.2,1,0,AccFast,16,18,Woman,Right,
4,6,1,2.5845127000011416,['n'],1,right,['e'],1,0.279179799999838,0.2,1,0,AccFast,16,18,Woman,Right,
5,6,1,1.2182603000001109,['c'],1,left,['e'],1,0.3335150999992038,0.1,1,0,AccFast,16,18,Woman,Right,
6,6,1,0.967760300000009,['n'],1,right,['e'],1,0.347751999999673,0.2,1,0,AccFast,16,18,Woman,Right,
7,6,1,4.217272399999274,['n'],1,right,['u'],0,0.3274605000005977,0.1,0,0,AccFast,16,18,Woman,Right,
8,6,1,1.2828946999998152,['n'],0,left,['e'],1,0.36231729999963136,0.1,0,0,AccFast,16,18,Woman,Right,
9,6,1,2.783347300000969,['n'],0,left,['e'],1,0.3664956999982678,0.2,0,0,AccFast,16,18,Woman,Right,
10,6,1,2.3838236999999936,['n'],0,left,['e'],1,0.3224556000004668,0.1,0,0,AccFast,16,18,Woman,Right,
11,6,1,1.1510202000008576,['n'],1,right,['e'],1,0.33015330000125687,0.4,1,0,AccFast,16,18,Woman,Right,
12,6,1,5.000209100000575,x,-99,left,none,-99,-99,0.2,-99,1,AccFast,16,18,Woman,Right,
13,6,1,0.8011549999991985,['n'],1,right,['e'],1,0.3777728000004572,0.4,1,0,AccFast,16,18,Woman,Right,
14,6,1,0.9692213999987871,['n'],1,right,['e'],1,0.7426429999995889,0.2,1,0,AccFast,16,18,Woman,Right,
15,6,1,1.601539599998432,['n'],1,right,['e'],1,0.5397293000005448,0.2,1,0,AccFast,16,18,Woman,Right,
16,6,1,1.4337827999988804,['c'],1,left,['u'],0,0.7032715000004828,0.2,0,0,AccFast,16,18,Woman,Right,
17,6,1,0.817240700000184,['n'],1,right,['e'],1,0.5655249000010372,0.2,1,0,AccFast,16,18,Woman,Right,
18,6,1,1.4847343000001274,['c'],1,left,['u'],0,0.5972011000012571,0.2,0,0,AccFast,16,18,Woman,Right,
19,6,1,1.1511594000003242,['c'],1,left,['e'],1,0.38540570000077423,0.4,1,0,AccFast,16,18,Woman,Right,
20,6,1,1.3503815999993094,['n'],1,right,['e'],1,0.39850900000055844,0.2,1,0,AccFast,16,18,Woman,Right,
21,6,1,1.3011033999991923,['c'],1,left,['u'],0,0.4447653999995964,0.1,0,0,AccFast,16,18,Woman,Right,
22,6,1,2.734608200000366,['c'],1,left,['u'],0,0.44866969999930006,0.1,0,0,AccFast,16,18,Woman,Right,
23,6,1,1.2504609000006894,['n'],1,right,['e'],1,1.9826677000000927,0.1,1,0,AccFast,16,18,Woman,Right,
24,6,1,1.01672950000102,['c'],1,left,['u'],0,0.37787199999911536,0.4,0,0,AccFast,16,18,Woman,Right,
25,6,1,0.7344001000001299,['n'],1,right,['e'],1,0.2714242000001832,0.2,1,0,AccFast,16,18,Woman,Right,
26,6,1,1.1011128999998618,['c'],1,left,['e'],1,0.6669521999992867,0.2,1,0,AccFast,16,18,Woman,Right,
27,6,1,2.318070200000875,['c'],1,left,['e'],1,0.4380567999996856,0.2,1,0,AccFast,16,18,Woman,Right,
28,6,1,2.1511203999998543,['n'],0,left,['u'],0,0.6890994000004866,0.1,1,0,AccFast,16,18,Woman,Right,
29,6,1,2.0503841000008833,['n'],0,left,['u'],0,0.5502188000009482,0.2,1,0,AccFast,16,18,Woman,Right,
30,6,1,0.9679467000005388,['n'],1,right,['e'],1,0.2835101000000577,0.2,1,0,AccFast,16,18,Woman,Right,
31,6,1,0.6840047000005143,['n'],1,right,['e'],1,0.279540999999881,0.4,1,0,AccFast,16,18,Woman,Right,
32,6,1,0.9175962999997864,['c'],1,left,['e'],1,0.31340410000120755,0.4,1,0,AccFast,16,18,Woman,Right,
33,6,1,0.9677136000009341,['c'],1,left,['e'],1,0.26448530000016035,0.2,1,0,AccFast,16,18,Woman,Right,
34,6,1,1.0166399000008823,['n'],1,right,['e'],1,0.26381099999889557,0.1,1,0,AccFast,16,18,Woman,Right,
35,6,1,0.6681267000003572,['n'],1,right,['e'],1,0.29229660000055446,0.4,1,0,AccFast,16,18,Woman,Right,
36,6,1,1.0841433999994479,['n'],1,right,['e'],1,0.2876938000008522,0.1,1,0,AccFast,16,18,Woman,Right,
37,6,1,0.6671217000002798,['n'],1,right,['e'],1,0.26796379999905184,0.4,1,0,AccFast,16,18,Woman,Right,
38,6,1,1.4342487000012625,['n'],0,left,['u'],0,0.31419220000134374,0.2,1,0,AccFast,16,18,Woman,Right,
39,6,1,1.484629100001257,['c'],0,right,['u'],0,0.22838300000148593,0.1,1,0,AccFast,16,18,Woman,Right,
40,6,1,1.250720199999705,['n'],1,right,['u'],0,0.33170330000029935,0.1,0,0,AccFast,16,18,Woman,Right,
41,6,1,0.7179801000002044,['n'],1,right,['e'],1,0.2914394999988872,0.4,1,0,AccFast,16,18,Woman,Right,
42,6,1,0.6177505999985442,['n'],1,right,['e'],1,0.30586659999971744,0.4,1,0,AccFast,16,18,Woman,Right,
43,6,1,0.7677303999989817,['c'],1,left,['e'],1,0.24936070000148902,0.4,1,0,AccFast,16,18,Woman,Right,
44,6,1,0.5008080999996309,['c'],1,left,['e'],1,0.33374189999994996,0.4,1,0,AccFast,16,18,Woman,Right,
45,6,1,1.084820000000036,['c'],1,left,['e'],1,0.27906739999889396,0.4,1,0,AccFast,16,18,Woman,Right,
46,6,1,0.9010966000005283,['c'],1,left,['e'],1,0.26600170000165235,0.2,1,0,AccFast,16,18,Woman,Right,
47,6,1,1.5844961000002513,['n'],0,left,['u'],0,0.7065335000006598,0.1,1,0,AccFast,16,18,Woman,Right,
48,6,1,1.0678676999996242,['n'],1,right,['e'],1,0.31812340000033146,0.1,1,0,AccFast,16,18,Woman,Right,
49,6,1,1.3003263999999035,['n'],0,left,['u'],0,0.23946520000026794,0.1,1,0,AccFast,16,18,Woman,Right,
50,6,1,0.6834636999992654,['n'],1,right,['e'],1,1.3097565000007307,0.4,1,0,AccFast,16,18,Woman,Right,
51,6,1,1.183710000001156,['n'],0,left,['u'],0,0.3329302000001917,0.1,1,0,AccFast,16,18,Woman,Right,
52,6,1,1.7844627000013134,['c'],1,left,['u'],0,0.4256809999988036,0.1,0,0,AccFast,16,18,Woman,Right,
53,6,1,0.6487526999990223,['n'],1,right,['e'],1,0.2746852999989642,0.4,1,0,AccFast,16,18,Woman,Right,
54,6,1,0.8844421000012517,['c'],1,left,['e'],1,0.2616026999985479,0.4,1,0,AccFast,16,18,Woman,Right,
55,6,1,0.8841172000011284,['n'],1,right,['e'],1,0.4578017000003456,0.2,1,0,AccFast,16,18,Woman,Right,
56,6,1,1.7676492999999027,['n'],0,left,['u'],0,0.40413559999979043,0.1,1,0,AccFast,16,18,Woman,Right,
57,6,1,0.9345891000011761,['n'],1,right,['e'],1,0.4805546999996295,0.1,1,0,AccFast,16,18,Woman,Right,
58,6,1,0.6010679999999411,['n'],1,right,['e'],1,0.24722590000055789,0.4,1,0,AccFast,16,18,Woman,Right,
59,6,1,1.8006600999997318,['n'],0,left,['u'],0,0.64767700000084,0.1,1,0,AccFast,16,18,Woman,Right,
0,7,1,1.367211099999622,['n'],1,right,['e'],1,2.303842100000111,0.2,1,0,AccAcc,16,18,Woman,Right,
1,7,1,0.9012125999997807,['n'],0,left,['e'],1,0.4663220000002184,0.1,0,0,AccAcc,16,18,Woman,Right,
2,7,1,1.6177496999989671,['c'],1,left,['e'],1,1.5692228000007162,0.1,1,0,AccAcc,16,18,Woman,Right,
3,7,1,1.366856700000426,['n'],1,right,['e'],1,2.910302000000229,0.1,1,0,AccAcc,16,18,Woman,Right,
4,7,1,1.2843177000013384,['n'],1,right,['e'],1,3.5295697999990807,0.1,1,0,AccAcc,16,18,Woman,Right,
5,7,1,1.1182332999997016,['c'],1,left,['e'],1,0.5782591000006505,0.4,1,0,AccAcc,16,18,Woman,Right,
6,7,1,1.9844721999998,['c'],1,left,['u'],0,0.6063278000001446,0.4,0,0,AccAcc,16,18,Woman,Right,
7,7,1,1.3689335999988543,['n'],1,right,['e'],1,0.9141500999994605,0.2,1,0,AccAcc,16,18,Woman,Right,
8,7,1,2.3845626000002085,['n'],1,right,['u'],0,1.1204237999991165,0.1,0,0,AccAcc,16,18,Woman,Right,
9,7,1,2.5345340999992914,['n'],0,left,['u'],0,1.632997400000022,0.2,1,0,AccAcc,16,18,Woman,Right,
10,7,1,1.6845291999998153,['n'],1,right,['u'],0,0.8626898000002257,0.2,0,0,AccAcc,16,18,Woman,Right,
11,7,1,1.1665845999996236,['c'],1,left,['e'],1,0.9597104999993462,0.4,1,0,AccAcc,16,18,Woman,Right,
12,7,1,0.7515080000011949,['n'],1,right,['e'],1,1.166080900000452,0.4,1,0,AccAcc,16,18,Woman,Right,
13,7,1,1.3679363999999623,['n'],1,right,['u'],0,0.8747483000006469,0.1,0,0,AccAcc,16,18,Woman,Right,
14,7,1,0.8183589999989636,['n'],1,right,['e'],1,0.601963799999794,0.2,1,0,AccAcc,16,18,Woman,Right,
15,7,1,1.0844200999999885,['n'],1,right,['e'],1,0.5048470999990968,0.4,1,0,AccAcc,16,18,Woman,Right,
16,7,1,1.9345751000000746,['n'],1,right,['e'],1,0.5216710999993666,0.2,1,0,AccAcc,16,18,Woman,Right,
17,7,1,0.7344783999997162,['n'],1,right,['e'],1,0.8580817999991268,0.2,1,0,AccAcc,16,18,Woman,Right,
18,7,1,2.317315199999939,['n'],0,left,['u'],0,3.2780208999993192,0.2,1,0,AccAcc,16,18,Woman,Right,
19,7,1,1.235067000001436,['n'],0,left,['u'],0,0.7483269000003929,0.4,1,0,AccAcc,16,18,Woman,Right,
20,7,1,1.6172950000000128,['n'],1,right,['u'],0,0.7198872999997548,0.2,0,0,AccAcc,16,18,Woman,Right,
21,7,1,2.5498001000014483,['n'],0,left,['u'],0,1.4557279999989987,0.2,1,0,AccAcc,16,18,Woman,Right,
22,7,1,1.816745299998729,['c'],1,left,['e'],1,0.767952599999262,0.4,1,0,AccAcc,16,18,Woman,Right,
23,7,1,1.4341294999994716,['c'],1,left,['e'],1,0.7617718000001332,0.1,1,0,AccAcc,16,18,Woman,Right,
24,7,1,1.9167735999999422,['c'],1,left,['e'],1,0.6248813000001974,0.2,1,0,AccAcc,16,18,Woman,Right,
25,7,1,0.9676357000007556,['n'],1,right,['e'],1,0.6758802000003925,0.4,1,0,AccAcc,16,18,Woman,Right,
26,7,1,0.8847260999991704,['c'],1,left,['e'],1,0.6799673000004987,0.4,1,0,AccAcc,16,18,Woman,Right,
27,7,1,1.3676431000003504,['n'],1,right,['e'],1,1.656189600000289,0.1,1,0,AccAcc,16,18,Woman,Right,
28,7,1,0.8012434000011126,['n'],1,right,['e'],1,0.5366137999990315,0.4,1,0,AccAcc,16,18,Woman,Right,
29,7,1,1.5510973000000376,['n'],1,right,['e'],1,0.4556291999997484,0.4,1,0,AccAcc,16,18,Woman,Right,
30,7,1,0.7343925000004674,['n'],1,right,['e'],1,0.6185765999998694,0.1,1,0,AccAcc,16,18,Woman,Right,
31,7,1,1.1006338000006508,['c'],1,left,['e'],1,0.4720945000008214,0.1,1,0,AccAcc,16,18,Woman,Right,
32,7,1,1.2337928999986616,['c'],1,left,['e'],1,0.6462467000001197,0.2,1,0,AccAcc,16,18,Woman,Right,
33,7,1,1.1674207000014576,['n'],1,right,['e'],1,0.4801017999998294,0.1,1,0,AccAcc,16,18,Woman,Right,
34,7,1,2.6177083999991737,['c'],1,left,['u'],0,0.6304241999987426,0.2,0,0,AccAcc,16,18,Woman,Right,
35,7,1,1.4168195000002015,['n'],1,right,['e'],1,0.7273752000000968,0.1,1,0,AccAcc,16,18,Woman,Right,
36,7,1,0.8671226000005845,['n'],1,right,['e'],1,0.2981486999997287,0.4,1,0,AccAcc,16,18,Woman,Right,
37,7,1,1.3014094999998633,['n'],1,right,['u'],0,2.187792900000204,0.1,0,0,AccAcc,16,18,Woman,Right,
38,7,1,1.783752999999706,['n'],0,left,['u'],0,0.6716512999992119,0.1,1,0,AccAcc,16,18,Woman,Right,
39,7,1,1.217738900000768,['c'],1,left,['e'],1,1.4148850000001403,0.4,1,0,AccAcc,16,18,Woman,Right,
40,7,1,3.3179235000006884,['c'],1,left,['u'],0,0.45984839999982796,0.1,0,0,AccAcc,16,18,Woman,Right,
41,7,1,2.567435700000715,['c'],1,left,['u'],0,0.5818771999984165,0.1,0,0,AccAcc,16,18,Woman,Right,
42,7,1,1.317893000001277,['c'],1,left,['e'],1,0.42801610000060464,0.4,1,0,AccAcc,16,18,Woman,Right,
43,7,1,2.234645599999567,['c'],1,left,['u'],0,0.9964552999990701,0.1,0,0,AccAcc,16,18,Woman,Right,
44,7,1,3.11796559999857,['n'],0,left,['u'],0,1.9219818000001396,0.2,1,0,AccAcc,16,18,Woman,Right,
45,7,1,1.400397499999599,['n'],1,right,['e'],1,0.4479780999990908,0.4,1,0,AccAcc,16,18,Woman,Right,
46,7,1,1.499850800000786,['c'],1,left,['u'],0,0.4528216999988217,0.1,0,0,AccAcc,16,18,Woman,Right,
47,7,1,2.1174250000003667,['c'],1,left,['u'],0,0.3998085999992327,0.1,0,0,AccAcc,16,18,Woman,Right,
48,7,1,0.9007412000009936,['n'],1,right,['e'],1,0.846183599998767,0.4,1,0,AccAcc,16,18,Woman,Right,
49,7,1,1.4176088999993226,['n'],1,right,['e'],1,0.5818088000014541,0.2,1,0,AccAcc,16,18,Woman,Right,
50,7,1,1.0844558000007964,['n'],1,right,['e'],1,0.6774134000006597,0.2,1,0,AccAcc,16,18,Woman,Right,
51,7,1,1.7510141999991902,['c'],1,left,['u'],0,1.8468807999997807,0.2,0,0,AccAcc,16,18,Woman,Right,
52,7,1,1.1344202999989648,['c'],1,left,['e'],1,1.5380966999982775,0.2,1,0,AccAcc,16,18,Woman,Right,
53,7,1,1.201169600000867,['n'],1,right,['e'],1,1.479129400000602,0.2,1,0,AccAcc,16,18,Woman,Right,
54,7,1,1.4661133999998128,['c'],1,left,['e'],1,1.027901399998882,0.4,1,0,AccAcc,16,18,Woman,Right,
55,7,1,1.018075800000588,['n'],1,right,['e'],1,0.42041969999991124,0.4,1,0,AccAcc,16,18,Woman,Right,
56,7,1,0.967622999998639,['n'],1,right,['e'],1,0.3512891000009404,0.4,1,0,AccAcc,16,18,Woman,Right,
57,7,1,0.7178860000003624,['n'],1,right,['e'],1,0.4229952999994566,0.1,1,0,AccAcc,16,18,Woman,Right,
58,7,1,1.217790700000478,['c'],1,left,['e'],1,0.42381640000166954,0.4,1,0,AccAcc,16,18,Woman,Right,
59,7,1,1.2845376999994187,['n'],0,left,['u'],0,0.4222959999988234,0.2,1,0,AccAcc,16,18,Woman,Right,
0,8,1,1.2664284000002226,['c'],0,right,['u'],0,1.646733100000347,0.1,1,0,FastAcc,16,18,Woman,Right,
1,8,1,0.551218799999333,['n'],1,right,['u'],0,0.7608022000003984,0.1,0,0,FastAcc,16,18,Woman,Right,
2,8,1,0.7159183000003395,['c'],1,left,['u'],0,0.41747250000116765,0.1,0,0,FastAcc,16,18,Woman,Right,
3,8,1,0.8844871999990573,['c'],1,left,['e'],1,2.8948916000008467,0.4,1,0,FastAcc,16,18,Woman,Right,
4,8,1,0.5840186000004906,['n'],1,right,['e'],1,1.3824124000002485,0.2,1,0,FastAcc,16,18,Woman,Right,
5,8,1,0.6992205999995349,['c'],1,left,['e'],1,3.63818960000026,0.4,1,0,FastAcc,16,18,Woman,Right,
6,8,1,1.0176492999999027,['c'],1,left,['u'],0,2.7818191000005754,0.1,0,0,FastAcc,16,18,Woman,Right,
7,8,1,0.799363899999662,['c'],1,left,['u'],0,1.3459378000006836,0.4,0,0,FastAcc,16,18,Woman,Right,
8,8,1,0.8170018000000709,['n'],1,right,['e'],1,1.9807013000008737,0.2,1,0,FastAcc,16,18,Woman,Right,
9,8,1,0.8998959000000468,['n'],1,right,['e'],1,0.8768584999997984,0.2,1,0,FastAcc,16,18,Woman,Right,
10,8,1,1.0177206000007573,['c'],1,left,['e'],1,1.9705687000005128,0.4,1,0,FastAcc,16,18,Woman,Right,
11,8,1,0.8846905999998853,['n'],1,right,['e'],1,1.4429971999998088,0.1,1,0,FastAcc,16,18,Woman,Right,
12,8,1,0.8176917000000685,['c'],1,left,['e'],1,1.051251000000775,0.4,1,0,FastAcc,16,18,Woman,Right,
13,8,1,1.733727099999669,['n'],0,left,['u'],0,1.18244439999944,0.2,1,0,FastAcc,16,18,Woman,Right,
14,8,1,0.5997038999994402,['n'],1,right,['e'],1,1.6102950000004057,0.1,1,0,FastAcc,16,18,Woman,Right,
15,8,1,0.5178722000000562,['n'],1,right,['e'],1,1.3349149000005127,0.4,1,0,FastAcc,16,18,Woman,Right,
16,8,1,1.0500287000013486,['c'],1,left,['e'],1,1.2106007000002137,0.2,1,0,FastAcc,16,18,Woman,Right,
17,8,1,0.6013653999998496,['n'],1,right,['u'],0,2.8043224999983067,0.1,0,0,FastAcc,16,18,Woman,Right,
18,8,1,0.6166419999990467,['n'],0,left,['u'],0,2.3184228999998595,0.1,1,0,FastAcc,16,18,Woman,Right,
19,8,1,0.9677005000012286,['c'],1,left,['u'],0,1.7571599000002607,0.4,0,0,FastAcc,16,18,Woman,Right,
20,8,1,0.5344523999992816,['n'],1,right,['e'],1,1.4602099999992788,0.1,1,0,FastAcc,16,18,Woman,Right,
21,8,1,0.8016564999998081,['n'],1,right,['e'],1,0.8926159999991796,0.2,1,0,FastAcc,16,18,Woman,Right,
22,8,1,0.6495859999995446,['n'],1,right,['e'],1,2.082739600000423,0.2,1,0,FastAcc,16,18,Woman,Right,
23,8,1,0.5670233000000735,['n'],1,right,['e'],1,1.3219308000007004,0.4,1,0,FastAcc,16,18,Woman,Right,
24,8,1,0.6497041000002355,['n'],1,right,['e'],1,1.294445600000472,0.4,1,0,FastAcc,16,18,Woman,Right,
25,8,1,0.5504553999999189,['n'],1,right,['e'],1,1.2863927000016702,0.1,1,0,FastAcc,16,18,Woman,Right,
26,8,1,0.7178463000000193,['c'],1,left,['e'],1,1.4964723000011873,0.4,1,0,FastAcc,16,18,Woman,Right,
27,8,1,2.018087700000251,['c'],1,left,['u'],0,1.5183815000000322,0.1,0,0,FastAcc,16,18,Woman,Right,
28,8,1,0.5496469000008801,['n'],1,right,['e'],1,1.3741379999992205,0.4,1,0,FastAcc,16,18,Woman,Right,
29,8,1,0.6678541000001132,['n'],1,right,['e'],1,1.7914773000011337,0.1,1,0,FastAcc,16,18,Woman,Right,
30,8,1,0.7345377000001463,['n'],1,right,['e'],1,1.1485116000003472,0.4,1,0,FastAcc,16,18,Woman,Right,
31,8,1,0.7182571000012103,['c'],1,left,['e'],1,3.7644003000004886,0.2,1,0,FastAcc,16,18,Woman,Right,
32,8,1,0.566576700000951,['n'],1,right,['e'],1,1.69055440000011,0.4,1,0,FastAcc,16,18,Woman,Right,
33,8,1,0.5179508000001078,['c'],1,left,['e'],1,1.6038177000009455,0.4,1,0,FastAcc,16,18,Woman,Right,
34,8,1,0.5833225999995193,['n'],1,right,['e'],1,1.246842700000343,0.2,1,0,FastAcc,16,18,Woman,Right,
35,8,1,0.46801760000016657,['c'],1,left,['e'],1,0.9082615000006626,0.1,1,0,FastAcc,16,18,Woman,Right,
36,8,1,0.35154160000092816,['n'],0,left,['e'],1,1.9325565999988612,0.1,0,0,FastAcc,16,18,Woman,Right,
37,8,1,0.4836047000007966,['c'],1,left,['e'],1,2.846935100000337,0.4,1,0,FastAcc,16,18,Woman,Right,
38,8,1,0.8998126000005868,['c'],0,right,['u'],0,1.243720000000394,0.2,1,0,FastAcc,16,18,Woman,Right,
39,8,1,0.599885900001027,['n'],1,right,['e'],1,1.2358186999990721,0.2,1,0,FastAcc,16,18,Woman,Right,
40,8,1,0.583659699999771,['n'],1,right,['e'],1,1.5653337000003376,0.2,1,0,FastAcc,16,18,Woman,Right,
41,8,1,0.5339062000002741,['n'],1,right,['e'],1,0.7477262000011251,0.4,1,0,FastAcc,16,18,Woman,Right,
42,8,1,0.6511562999985472,['c'],1,left,['u'],0,1.7191744000010658,0.1,0,0,FastAcc,16,18,Woman,Right,
43,8,1,0.9005042999997386,['c'],1,left,['u'],0,1.3121176999993622,0.1,0,0,FastAcc,16,18,Woman,Right,
44,8,1,0.8181234999992739,['n'],1,right,['u'],0,2.877235899999505,0.2,0,0,FastAcc,16,18,Woman,Right,
45,8,1,1.800049499999659,['n'],0,left,['u'],0,4.469108200000846,0.2,1,0,FastAcc,16,18,Woman,Right,
46,8,1,0.6997857000005752,['n'],0,left,['u'],0,2.9852537000006123,0.1,1,0,FastAcc,16,18,Woman,Right,
47,8,1,1.6676642000002175,['c'],1,left,['u'],0,2.161556799999744,0.1,0,0,FastAcc,16,18,Woman,Right,
48,8,1,0.6499061999984406,['n'],1,right,['e'],1,1.9558479000006628,0.2,1,0,FastAcc,16,18,Woman,Right,
49,8,1,0.9684883999998419,['c'],1,left,['e'],1,1.9855438000013237,0.4,1,0,FastAcc,16,18,Woman,Right,
50,8,1,0.6514827999999397,['n'],1,right,['e'],1,2.2179059000009147,0.2,1,0,FastAcc,16,18,Woman,Right,
51,8,1,1.0333159000001615,['c'],1,left,['e'],1,2.5710925000003044,0.4,1,0,FastAcc,16,18,Woman,Right,
52,8,1,0.967166399999769,['n'],0,left,['u'],0,2.31977790000019,0.2,1,0,FastAcc,16,18,Woman,Right,
53,8,1,0.5505925999987085,['n'],1,right,['e'],1,1.4233469999999215,0.4,1,0,FastAcc,16,18,Woman,Right,
54,8,1,1.8336634999996022,['c'],1,left,['u'],0,2.496172299999671,0.2,0,0,FastAcc,16,18,Woman,Right,
55,8,1,0.6175316999997449,['n'],1,right,['e'],1,1.7493515000005573,0.2,1,0,FastAcc,16,18,Woman,Right,
56,8,1,0.6344790999992256,['n'],0,left,['u'],0,2.792336800001067,0.1,1,0,FastAcc,16,18,Woman,Right,
57,8,1,1.2846769999996468,['c'],1,left,['u'],0,1.5442708999999013,0.1,0,0,FastAcc,16,18,Woman,Right,
58,8,1,0.7845271000005596,['n'],1,right,['e'],1,2.190091800001028,0.2,1,0,FastAcc,16,18,Woman,Right,
59,8,1,0.8679828999993333,['c'],1,left,['e'],1,1.1587823999998363,0.4,1,0,FastAcc,16,18,Woman,Right,
0,9,1,0.7846564000010403,['n'],1,right,['u'],0,1.6949953000003006,0.4,0,0,FastFast,16,18,Woman,Right,
1,9,1,0.8168984999992972,['n'],1,right,['u'],0,0.44528360000003886,0.1,0,0,FastFast,16,18,Woman,Right,
2,9,1,0.5517631000002439,['c'],1,left,['e'],1,0.2953821000010066,0.4,1,0,FastFast,16,18,Woman,Right,
3,9,1,0.5678402000012284,['c'],1,left,['e'],1,0.3749822000008862,0.2,1,0,FastFast,16,18,Woman,Right,
4,9,1,0.7850363999987167,['n'],1,right,['u'],0,1.0034673999998631,0.1,0,0,FastFast,16,18,Woman,Right,
5,9,1,1.2001954000006663,['c'],1,left,['u'],0,1.9261372999990272,0.4,0,0,FastFast,16,18,Woman,Right,
6,9,1,0.6510529999995924,['c'],1,left,['e'],1,1.8893757999994705,0.2,1,0,FastFast,16,18,Woman,Right,
7,9,1,0.8843895999998495,['c'],1,left,['e'],1,1.397218600000997,0.4,1,0,FastFast,16,18,Woman,Right,
8,9,1,1.1001950000008947,['n'],1,right,['e'],1,1.4756236000011995,0.2,1,0,FastFast,16,18,Woman,Right,
9,9,1,0.7334103000011964,['n'],1,right,['e'],1,0.4146294999991369,0.2,1,0,FastFast,16,18,Woman,Right,
10,9,1,0.9333077999999659,['c'],0,right,['e'],1,1.2112770000003366,0.2,0,0,FastFast,16,18,Woman,Right,
11,9,1,0.6499607999994623,['n'],1,right,['u'],0,0.4354488000008132,0.1,0,0,FastFast,16,18,Woman,Right,
12,9,1,1.1494304000007105,['c'],1,left,['u'],0,0.3267596000005142,0.1,0,0,FastFast,16,18,Woman,Right,
13,9,1,0.8840646999997261,['n'],0,left,['u'],0,0.4564442999999301,0.1,1,0,FastFast,16,18,Woman,Right,
14,9,1,0.7499597999994876,['n'],1,right,['e'],1,0.5540388000008534,0.1,1,0,FastFast,16,18,Woman,Right,
15,9,1,0.5844056999994791,['c'],1,left,['e'],1,0.4466275000013411,0.4,1,0,FastFast,16,18,Woman,Right,
16,9,1,1.0496939999993629,['n'],0,left,['e'],1,0.37348949999977776,0.2,0,0,FastFast,16,18,Woman,Right,
17,9,1,0.8998924999996234,['n'],1,right,['e'],1,0.37319620000016585,0.2,1,0,FastFast,16,18,Woman,Right,
18,9,1,1.2012930000000779,['n'],0,left,['e'],1,0.3921721999995498,0.2,0,0,FastFast,16,18,Woman,Right,
19,9,1,1.018105999999534,['n'],1,right,['u'],0,0.3383080000003247,0.1,0,0,FastFast,16,18,Woman,Right,
20,9,1,1.1167898000003333,['n'],1,right,['e'],1,0.45915810000042256,0.2,1,0,FastFast,16,18,Woman,Right,
21,9,1,0.9190693000000465,['n'],1,right,['e'],1,0.39058939999995346,0.4,1,0,FastFast,16,18,Woman,Right,
22,9,1,0.7016387000003306,['n'],1,right,['e'],1,0.44497149999915564,0.2,1,0,FastFast,16,18,Woman,Right,
23,9,1,0.7507987000008143,['n'],0,left,['e'],1,0.3353483999999298,0.2,0,0,FastFast,16,18,Woman,Right,
24,9,1,1.0513953000008769,['n'],1,right,['e'],1,0.3943968000003224,0.2,1,0,FastFast,16,18,Woman,Right,
25,9,1,1.634020800000144,['c'],1,left,['e'],1,0.9242662999986351,0.4,1,0,FastFast,16,18,Woman,Right,
26,9,1,1.050088500000129,['n'],1,right,['e'],1,0.33579219999955967,0.2,1,0,FastFast,16,18,Woman,Right,
27,9,1,0.9333430000006047,['n'],1,right,['e'],1,0.5760843999996723,0.2,1,0,FastFast,16,18,Woman,Right,
28,9,1,2.3009550999995554,['c'],1,left,['u'],0,0.7027778000010585,0.1,0,0,FastFast,16,18,Woman,Right,
29,9,1,1.884469700000409,['n'],0,left,['u'],0,0.5537841000004846,0.4,1,0,FastFast,16,18,Woman,Right,
30,9,1,1.5176847000002454,['n'],0,left,['u'],0,0.45729260000007343,0.4,1,0,FastFast,16,18,Woman,Right,
31,9,1,1.4176962000001367,['c'],1,left,['e'],1,0.4010828999998921,0.4,1,0,FastFast,16,18,Woman,Right,
32,9,1,0.6845493000000715,['n'],1,right,['u'],0,0.5198213000003307,0.1,0,0,FastFast,16,18,Woman,Right,
33,9,1,0.7511205000009795,['c'],1,left,['u'],0,0.3754871000001003,0.4,0,0,FastFast,16,18,Woman,Right,
34,9,1,0.8170159000001149,['n'],1,right,['u'],0,0.28275980000034906,0.1,0,0,FastFast,16,18,Woman,Right,
35,9,1,0.8163239000004978,['n'],1,right,['e'],1,0.24112410000088857,0.2,1,0,FastFast,16,18,Woman,Right,
36,9,1,1.4343085000000428,['c'],0,right,['u'],0,0.22418949999882898,0.2,1,0,FastFast,16,18,Woman,Right,
37,9,1,1.4847325999999157,['n'],1,right,['u'],0,0.3344586999992316,0.4,0,0,FastFast,16,18,Woman,Right,
38,9,1,1.017691000000923,['c'],1,left,['u'],0,0.2828427999993437,0.2,0,0,FastFast,16,18,Woman,Right,
39,9,1,2.150021800000104,['n'],0,left,['u'],0,0.4601803999994445,0.1,1,0,FastFast,16,18,Woman,Right,
40,9,1,1.5509848000001512,['c'],1,left,['u'],0,0.3503927999990992,0.1,0,0,FastFast,16,18,Woman,Right,
41,9,1,2.4173478999982763,['c'],1,left,['u'],0,0.4337233999995078,0.4,0,0,FastFast,16,18,Woman,Right,
42,9,1,0.8355396000006294,['n'],1,right,['e'],1,0.29047089999949094,0.1,1,0,FastFast,16,18,Woman,Right,
43,9,1,0.9011124999997264,['n'],1,right,['e'],1,0.356377899999643,0.4,1,0,FastFast,16,18,Woman,Right,
44,9,1,0.9845054999987042,['c'],1,left,['e'],1,0.497117499999149,0.2,1,0,FastFast,16,18,Woman,Right,
45,9,1,1.5850252000000182,['c'],1,left,['u'],0,0.22423170000001846,0.2,0,0,FastFast,16,18,Woman,Right,
46,9,1,0.584479499999361,['n'],1,right,['e'],1,0.3224893000005977,0.4,1,0,FastFast,16,18,Woman,Right,
47,9,1,1.0169171000015922,['n'],0,left,['u'],0,0.38379949999944074,0.1,1,0,FastFast,16,18,Woman,Right,
48,9,1,1.334677199998623,['n'],1,right,['u'],0,0.30086040000060166,0.1,0,0,FastFast,16,18,Woman,Right,
49,9,1,0.8663431000004493,['c'],1,left,['u'],0,0.33760970000003,0.4,0,0,FastFast,16,18,Woman,Right,
50,9,1,0.8000415999995312,['n'],0,left,['u'],0,0.3103313999999955,0.1,1,0,FastFast,16,18,Woman,Right,
51,9,1,1.7853680999996868,['c'],1,left,['u'],0,0.356207999999242,0.1,0,0,FastFast,16,18,Woman,Right,
52,9,1,1.13380860000143,['n'],1,right,['e'],1,0.26718980000077863,0.4,1,0,FastFast,16,18,Woman,Right,
53,9,1,0.7168892999998207,['n'],1,right,['e'],1,0.27964690000044357,0.1,1,0,FastFast,16,18,Woman,Right,
54,9,1,0.7849143000003096,['c'],1,left,['e'],1,0.23811699999896518,0.4,1,0,FastFast,16,18,Woman,Right,
55,9,1,1.016722899999877,['n'],0,left,['u'],0,0.33477440000024217,0.4,1,0,FastFast,16,18,Woman,Right,
56,9,1,0.5007040000000416,['n'],1,right,['e'],1,0.35158859999864944,0.4,1,0,FastFast,16,18,Woman,Right,
57,9,1,0.6673958999999741,['n'],1,right,['e'],1,0.29687249999915366,0.2,1,0,FastFast,16,18,Woman,Right,
58,9,1,0.5847053999987111,['n'],0,left,['e'],1,0.5679347000004782,0.1,0,0,FastFast,16,18,Woman,Right,
59,9,1,1.5173056999992696,['n'],1,right,['u'],0,0.3908413000008295,0.1,0,0,FastFast,16,18,Woman,Right,
0,10,1,1.6513334999999643,['c'],1,left,['e'],1,1.2209062999991147,0.1,1,0,AccFast,16,18,Woman,Right,
1,10,1,0.8677686000009999,['n'],1,right,['e'],1,0.8201074999997218,0.2,1,0,AccFast,16,18,Woman,Right,
2,10,1,1.1334956999999122,['c'],1,left,['e'],1,0.5049779000000854,0.2,1,0,AccFast,16,18,Woman,Right,
3,10,1,0.9341855999991822,['n'],1,right,['e'],1,0.46557020000000193,0.2,1,0,AccFast,16,18,Woman,Right,
4,10,1,1.433362899999338,['c'],1,left,['e'],1,0.4884029000004375,0.2,1,0,AccFast,16,18,Woman,Right,
5,10,1,1.184951799999908,['n'],1,right,['e'],1,3.990953399999853,0.1,1,0,AccFast,16,18,Woman,Right,
6,10,1,0.7347410999991553,['c'],1,left,['e'],1,0.7809608999996271,0.2,1,0,AccFast,16,18,Woman,Right,
7,10,1,1.3502650999998878,['c'],1,left,['e'],1,0.3940603999999439,0.2,1,0,AccFast,16,18,Woman,Right,
8,10,1,1.4679012000015064,['n'],1,right,['e'],1,0.8661929999998392,0.1,1,0,AccFast,16,18,Woman,Right,
9,10,1,0.917765899999722,['c'],1,left,['e'],1,0.3493316000003688,0.4,1,0,AccFast,16,18,Woman,Right,
10,10,1,0.8840509000001475,['c'],1,left,['e'],1,0.30271910000010394,0.4,1,0,AccFast,16,18,Woman,Right,
11,10,1,1.4842067999998108,['n'],1,right,['e'],1,0.3769690000008268,0.2,1,0,AccFast,16,18,Woman,Right,
12,10,1,1.2663035000005038,['c'],1,left,['u'],0,0.3785351000005903,0.2,0,0,AccFast,16,18,Woman,Right,
13,10,1,0.767067800001314,['n'],1,right,['u'],0,0.4793999999983498,0.1,0,0,AccFast,16,18,Woman,Right,
14,10,1,0.6333751999991364,['c'],1,left,['u'],0,0.3244873000003281,0.4,0,0,AccFast,16,18,Woman,Right,
15,10,1,1.0504712000001746,['n'],1,right,['e'],1,0.32027410000046075,0.4,1,0,AccFast,16,18,Woman,Right,
16,10,1,0.9505417000000307,['n'],0,left,['u'],0,0.41630259999874397,0.2,1,0,AccFast,16,18,Woman,Right,
17,10,1,0.6008732999998756,['n'],1,right,['e'],1,0.3132915000005596,0.4,1,0,AccFast,16,18,Woman,Right,
18,10,1,1.0670197999988886,['n'],1,right,['e'],1,0.4686736000003293,0.4,1,0,AccFast,16,18,Woman,Right,
19,10,1,1.8844829999998183,['c'],0,right,['u'],0,0.5523616000009497,0.1,1,0,AccFast,16,18,Woman,Right,
20,10,1,0.9666799999995419,['c'],1,left,['e'],1,0.6863962999996147,0.4,1,0,AccFast,16,18,Woman,Right,
21,10,1,1.0170061999997415,['c'],1,left,['e'],1,0.396131499999683,0.4,1,0,AccFast,16,18,Woman,Right,
22,10,1,1.7334484999992128,['n'],1,right,['u'],0,0.4256256000007852,0.2,0,0,AccFast,16,18,Woman,Right,
23,10,1,0.7010935999987851,['n'],1,right,['u'],0,0.3989071999985754,0.1,0,0,AccFast,16,18,Woman,Right,
24,10,1,0.7985049999988405,['c'],1,left,['e'],1,0.370213899999726,0.4,1,0,AccFast,16,18,Woman,Right,
25,10,1,1.6017262999994273,['n'],1,right,['u'],0,0.3250552000008611,0.1,0,0,AccFast,16,18,Woman,Right,
26,10,1,1.4177772999992158,['n'],0,left,['u'],0,0.5136476999996376,0.1,1,0,AccFast,16,18,Woman,Right,
27,10,1,1.5338236999996298,['n'],1,right,['u'],0,0.4498442999993131,0.2,0,0,AccFast,16,18,Woman,Right,
28,10,1,1.2675729999991745,['n'],1,right,['e'],1,0.3195341000009648,0.4,1,0,AccFast,16,18,Woman,Right,
29,10,1,1.0346801000014239,['n'],1,right,['e'],1,0.3320118999999977,0.4,1,0,AccFast,16,18,Woman,Right,
30,10,1,1.034393399999317,['c'],1,left,['e'],1,0.24725930000022345,0.2,1,0,AccFast,16,18,Woman,Right,
31,10,1,1.6165616999987833,['c'],0,right,['u'],0,0.4309797999994771,0.1,1,0,AccFast,16,18,Woman,Right,
32,10,1,0.9845462000012049,['n'],1,right,['u'],0,0.28053130000080273,0.1,0,0,AccFast,16,18,Woman,Right,
33,10,1,1.6681372999992163,['c'],1,left,['u'],0,0.30077019999953336,0.1,0,0,AccFast,16,18,Woman,Right,
34,10,1,1.0346417000000656,['n'],0,left,['u'],0,0.7616560000005848,0.2,1,0,AccFast,16,18,Woman,Right,
35,10,1,0.850732800001424,['n'],1,right,['e'],1,0.31538329999966663,0.1,1,0,AccFast,16,18,Woman,Right,
36,10,1,1.2673928999993223,['c'],1,left,['e'],1,0.3025028000010934,0.1,1,0,AccFast,16,18,Woman,Right,
37,10,1,0.7003065000008064,['n'],1,right,['e'],1,0.3126069000009011,0.2,1,0,AccFast,16,18,Woman,Right,
38,10,1,1.534444099999746,['n'],0,left,['e'],1,0.32067430000097374,0.1,0,0,AccFast,16,18,Woman,Right,
39,10,1,1.9509526000001642,['c'],1,left,['e'],1,0.6325890999996773,0.4,1,0,AccFast,16,18,Woman,Right,
40,10,1,1.183547999999064,['n'],0,left,['e'],1,0.32260069999938423,0.2,0,0,AccFast,16,18,Woman,Right,
41,10,1,1.166151000001264,['n'],1,right,['u'],0,0.31308890000036627,0.1,0,0,AccFast,16,18,Woman,Right,
42,10,1,1.151112199999261,['n'],1,right,['u'],0,0.3047347000010632,0.2,0,0,AccFast,16,18,Woman,Right,
43,10,1,0.8503308999988803,['c'],1,left,['u'],0,0.2934492999993381,0.4,0,0,AccFast,16,18,Woman,Right,
44,10,1,1.0508616999995866,['c'],1,left,['u'],0,0.38576800000009825,0.1,0,0,AccFast,16,18,Woman,Right,
45,10,1,0.784480700000131,['c'],1,left,['e'],1,0.37348410000049626,0.4,1,0,AccFast,16,18,Woman,Right,
46,10,1,0.9015089999993506,['c'],1,left,['e'],1,0.3580232000003889,0.2,1,0,AccFast,16,18,Woman,Right,
47,10,1,1.1497450999995635,['n'],1,right,['e'],1,0.42780299999867566,0.1,1,0,AccFast,16,18,Woman,Right,
48,10,1,0.8341675000010582,['n'],1,right,['e'],1,0.2515325999993365,0.2,1,0,AccFast,16,18,Woman,Right,
49,10,1,0.9005409999990661,['n'],1,right,['e'],1,0.3997314999996888,0.1,1,0,AccFast,16,18,Woman,Right,
50,10,1,0.6836115999994945,['c'],1,left,['e'],1,0.32719620000170835,0.4,1,0,AccFast,16,18,Woman,Right,
51,10,1,0.7498138000009931,['n'],1,right,['e'],1,0.28678190000027826,0.4,1,0,AccFast,16,18,Woman,Right,
52,10,1,0.6169613000001846,['n'],1,right,['e'],1,1.1964119000003848,0.4,1,0,AccFast,16,18,Woman,Right,
53,10,1,0.8007404999989376,['c'],1,left,['e'],1,0.33474180000121123,0.4,1,0,AccFast,16,18,Woman,Right,
54,10,1,0.8008915000009438,['c'],1,left,['e'],1,0.34009250000053726,0.4,1,0,AccFast,16,18,Woman,Right,
55,10,1,0.81812329999957,['n'],0,left,['e'],1,0.3119622000012896,0.2,0,0,AccFast,16,18,Woman,Right,
56,10,1,0.7013640000004671,['n'],1,right,['e'],1,0.36969000000135566,0.1,1,0,AccFast,16,18,Woman,Right,
57,10,1,0.9165634000000864,['c'],1,left,['e'],1,0.3201424999988376,0.4,1,0,AccFast,16,18,Woman,Right,
58,10,1,0.7682537999990018,['n'],1,right,['e'],1,0.29498550000062096,0.1,1,0,AccFast,16,18,Woman,Right,
59,10,1,0.7339881000007153,['n'],1,right,['u'],0,0.6562942000000476,0.2,0,0,AccFast,16,18,Woman,Right,
0,11,1,1.3335941999994247,['n'],1,right,['e'],1,1.1948532000005798,0.4,1,0,AccAcc,16,18,Woman,Right,
1,11,1,0.6677259000007325,['c'],1,left,['e'],1,2.115135799998825,0.4,1,0,AccAcc,16,18,Woman,Right,
2,11,1,0.6340005000001838,['n'],1,right,['e'],1,1.5763837000013154,0.2,1,0,AccAcc,16,18,Woman,Right,
3,11,1,0.5849166000007244,['n'],1,right,['e'],1,1.6206206000006205,0.4,1,0,AccAcc,16,18,Woman,Right,
4,11,1,0.9668822000003274,['c'],1,left,['e'],1,1.1509069000003365,0.2,1,0,AccAcc,16,18,Woman,Right,
5,11,1,0.517889799999466,['n'],1,right,['e'],1,1.3906267999991542,0.1,1,0,AccAcc,16,18,Woman,Right,
6,11,1,0.734408500000427,['n'],1,right,['e'],1,0.7489186000002519,0.1,1,0,AccAcc,16,18,Woman,Right,
7,11,1,1.0339599999988422,['n'],1,right,['e'],1,0.8071593000004214,0.1,1,0,AccAcc,16,18,Woman,Right,
8,11,1,1.8329896999985067,['c'],1,left,['u'],0,3.968639200000325,0.1,0,0,AccAcc,16,18,Woman,Right,
9,11,1,0.8840930000005756,['n'],0,left,['u'],0,1.5047594999996363,0.2,1,0,AccAcc,16,18,Woman,Right,
10,11,1,1.0180798000001232,['c'],1,left,['e'],1,2.1744473000017024,0.2,1,0,AccAcc,16,18,Woman,Right,
11,11,1,0.5845807999994577,['c'],1,left,['e'],1,0.6427626999993663,0.4,1,0,AccAcc,16,18,Woman,Right,
12,11,1,1.0680253999998968,['n'],1,right,['e'],1,1.9214336999993975,0.1,1,0,AccAcc,16,18,Woman,Right,
13,11,1,0.5666008000007423,['n'],1,right,['e'],1,1.5681334000000788,0.4,1,0,AccAcc,16,18,Woman,Right,
14,11,1,0.9675463000003219,['n'],1,right,['e'],1,1.2452608000003238,0.1,1,0,AccAcc,16,18,Woman,Right,
15,11,1,0.7181031000000075,['c'],1,left,['e'],1,2.3526980000006006,0.1,1,0,AccAcc,16,18,Woman,Right,
16,11,1,1.217326800000592,['n'],1,right,['e'],1,0.7886703000003763,0.2,1,0,AccAcc,16,18,Woman,Right,
17,11,1,0.6516458000005514,['n'],1,right,['e'],1,2.221470099999351,0.4,1,0,AccAcc,16,18,Woman,Right,
18,11,1,1.4179270999993605,['n'],0,left,['u'],0,1.9184853000006115,0.1,1,0,AccAcc,16,18,Woman,Right,
19,11,1,1.6001816999996663,['n'],0,left,['u'],0,1.6522217000001547,0.2,1,0,AccAcc,16,18,Woman,Right,
20,11,1,0.7846681999999419,['n'],1,right,['e'],1,0.8052991999993537,0.1,1,0,AccAcc,16,18,Woman,Right,
21,11,1,0.8010257000005367,['c'],1,left,['e'],1,1.7676468999998178,0.4,1,0,AccAcc,16,18,Woman,Right,
22,11,1,1.4339454999990267,['n'],0,left,['u'],0,3.4342513999999937,0.1,1,0,AccAcc,16,18,Woman,Right,
23,11,1,1.133366300000489,['c'],1,left,['u'],0,2.37434199999916,0.1,0,0,AccAcc,16,18,Woman,Right,
24,11,1,1.2516304000000673,['n'],1,right,['u'],0,1.1436226000005263,0.1,0,0,AccAcc,16,18,Woman,Right,
25,11,1,0.8848832999992737,['c'],1,left,['e'],1,2.2172319999990577,0.4,1,0,AccAcc,16,18,Woman,Right,
26,11,1,0.5678023000000394,['c'],1,left,['e'],1,1.7088107999989006,0.2,1,0,AccAcc,16,18,Woman,Right,
27,11,1,1.3675328000008449,['c'],1,left,['e'],1,1.524747200001002,0.4,1,0,AccAcc,16,18,Woman,Right,
28,11,1,1.5667084000015166,['n'],0,left,['u'],0,1.0673082000012073,0.2,1,0,AccAcc,16,18,Woman,Right,
29,11,1,2.000870899999427,['n'],0,left,['u'],0,0.8507752999994409,0.2,1,0,AccAcc,16,18,Woman,Right,
30,11,1,0.9834100999996735,['c'],1,left,['e'],1,1.7398902000004455,0.4,1,0,AccAcc,16,18,Woman,Right,
31,11,1,1.5502135999995517,['c'],1,left,['u'],0,1.946902300000147,0.2,0,0,AccAcc,16,18,Woman,Right,
32,11,1,1.434385900000052,['c'],1,left,['u'],0,1.2379268999993656,0.2,0,0,AccAcc,16,18,Woman,Right,
33,11,1,0.9012204999999085,['c'],1,left,['u'],0,1.250844700000016,0.1,0,0,AccAcc,16,18,Woman,Right,
34,11,1,1.5510838999998668,['n'],0,left,['u'],0,2.501076100001228,0.2,1,0,AccAcc,16,18,Woman,Right,
35,11,1,1.1679987999996229,['n'],0,left,['u'],0,1.3971230000006472,0.1,1,0,AccAcc,16,18,Woman,Right,
36,11,1,0.8001428999996278,['n'],1,right,['e'],1,1.279492300000129,0.4,1,0,AccAcc,16,18,Woman,Right,
37,11,1,1.1161862000008114,['n'],1,right,['e'],1,0.4829769000007218,0.1,1,0,AccAcc,16,18,Woman,Right,
38,11,1,0.75241620000088,['c'],1,left,['e'],1,1.6826234999989538,0.2,1,0,AccAcc,16,18,Woman,Right,
39,11,1,0.6011405999997805,['n'],1,right,['e'],1,0.82567089999975,0.4,1,0,AccAcc,16,18,Woman,Right,
40,11,1,0.6185757000002923,['n'],1,right,['e'],1,1.234686399999191,0.4,1,0,AccAcc,16,18,Woman,Right,
41,11,1,0.5517323000003671,['n'],1,right,['e'],1,2.2215046000001166,0.4,1,0,AccAcc,16,18,Woman,Right,
42,11,1,0.6179197000001295,['n'],1,right,['e'],1,1.2307385000003705,0.2,1,0,AccAcc,16,18,Woman,Right,
43,11,1,0.5680985999988479,['n'],1,right,['e'],1,1.0968990000001213,0.4,1,0,AccAcc,16,18,Woman,Right,
44,11,1,0.7837846000002173,['c'],1,left,['e'],1,1.1040764999997918,0.4,1,0,AccAcc,16,18,Woman,Right,
45,11,1,0.635004999998273,['c'],1,left,['u'],0,1.5007499000003008,0.4,0,0,AccAcc,16,18,Woman,Right,
46,11,1,0.7502714000002015,['n'],1,right,['e'],1,0.8211403000004793,0.2,1,0,AccAcc,16,18,Woman,Right,
47,11,1,1.4676905999986047,['n'],1,right,['u'],0,1.4521034999997937,0.1,0,0,AccAcc,16,18,Woman,Right,
48,11,1,2.3171204999998736,['n'],0,left,['u'],0,1.2405256000001827,0.2,1,0,AccAcc,16,18,Woman,Right,
49,11,1,0.6843368000008923,['n'],1,right,['e'],1,1.7735603999990417,0.2,1,0,AccAcc,16,18,Woman,Right,
50,11,1,0.6340392000001884,['c'],1,left,['e'],1,1.6799756000000343,0.4,1,0,AccAcc,16,18,Woman,Right,
51,11,1,1.0671531000007235,['n'],0,left,['e'],1,1.3166681999991852,0.1,0,0,AccAcc,16,18,Woman,Right,
52,11,1,1.71653680000054,['n'],1,right,['u'],0,1.4217186999994738,0.2,0,0,AccAcc,16,18,Woman,Right,
53,11,1,0.7510949999996228,['n'],1,right,['e'],1,0.7289223000007041,0.4,1,0,AccAcc,16,18,Woman,Right,
54,11,1,1.4177558000010322,['n'],1,right,['u'],0,1.0931374000010692,0.1,0,0,AccAcc,16,18,Woman,Right,
55,11,1,0.8019994999995106,['n'],1,right,['e'],1,1.0842366999986552,0.4,1,0,AccAcc,16,18,Woman,Right,
56,11,1,1.1846363000004203,['n'],1,right,['e'],1,1.108101899999383,0.1,1,0,AccAcc,16,18,Woman,Right,
57,11,1,1.867146300000968,['c'],0,right,['u'],0,0.7837677000006806,0.1,1,0,AccAcc,16,18,Woman,Right,
58,11,1,1.0176566000009188,['n'],0,left,['e'],1,1.6258858000001055,0.2,0,0,AccAcc,16,18,Woman,Right,
59,11,1,0.8011821999989479,['n'],1,right,['e'],1,1.116092000000208,0.2,1,0,AccAcc,16,18,Woman,Right,
0,12,1,0.6005994000006467,['n'],1,right,['e'],1,1.3606908000001567,0.2,1,0,FastAcc,16,18,Woman,Right,
1,12,1,0.5346546000000671,['n'],1,right,['u'],0,1.2717704000006052,0.1,0,0,FastAcc,16,18,Woman,Right,
2,12,1,0.4842255000003206,['n'],1,right,['e'],1,1.011961700000029,0.4,1,0,FastAcc,16,18,Woman,Right,
3,12,1,0.6842164999998204,['c'],1,left,['e'],1,2.1463201999995363,0.1,1,0,FastAcc,16,18,Woman,Right,
4,12,1,0.3499846000013349,['n'],1,right,['e'],1,1.72933809999995,0.4,1,0,FastAcc,16,18,Woman,Right,
5,12,1,0.6840295999991213,['c'],1,left,['e'],1,1.2022622999993473,0.1,1,0,FastAcc,16,18,Woman,Right,
6,12,1,0.6847443999995448,['c'],1,left,['e'],1,1.8652549999987968,0.2,1,0,FastAcc,16,18,Woman,Right,
7,12,1,0.5664096000000427,['c'],1,left,['e'],1,1.258847800001604,0.4,1,0,FastAcc,16,18,Woman,Right,
8,12,1,0.5010418000001664,['n'],1,right,['e'],1,1.3025875999992422,0.2,1,0,FastAcc,16,18,Woman,Right,
9,12,1,0.734431200000472,['c'],1,left,['e'],1,1.3519121000008454,0.1,1,0,FastAcc,16,18,Woman,Right,
10,12,1,0.7845061999996688,['c'],1,left,['e'],1,1.6684416000007332,0.2,1,0,FastAcc,16,18,Woman,Right,
11,12,1,0.6512751000009303,['n'],1,right,['e'],1,1.6420473999987735,0.2,1,0,FastAcc,16,18,Woman,Right,
12,12,1,0.801475099999152,['c'],1,left,['e'],1,1.2116038000003755,0.4,1,0,FastAcc,16,18,Woman,Right,
13,12,1,1.3844430000008288,['n'],0,left,['u'],0,1.126172399999632,0.2,1,0,FastAcc,16,18,Woman,Right,
14,12,1,1.401345800000854,['n'],0,left,['u'],0,1.299829100000352,0.1,1,0,FastAcc,16,18,Woman,Right,
15,12,1,0.9506571000001713,['n'],1,right,['u'],0,1.404266400000779,0.1,0,0,FastAcc,16,18,Woman,Right,
16,12,1,1.1517217000000528,['n'],1,right,['u'],0,0.9046641000004456,0.2,0,0,FastAcc,16,18,Woman,Right,
17,12,1,0.5839372000009462,['n'],1,right,['e'],1,0.6554873000004591,0.2,1,0,FastAcc,16,18,Woman,Right,
18,12,1,0.6512809000014386,['n'],1,right,['e'],1,0.7499397999999928,0.2,1,0,FastAcc,16,18,Woman,Right,
19,12,1,0.6175886000000901,['c'],1,left,['e'],1,1.065513599998667,0.4,1,0,FastAcc,16,18,Woman,Right,
20,12,1,1.1498160000010103,['n'],1,right,['e'],1,1.9077347000002192,0.1,1,0,FastAcc,16,18,Woman,Right,
21,12,1,1.2675185999996756,['n'],1,right,['e'],1,0.582836600000519,0.2,1,0,FastAcc,16,18,Woman,Right,
22,12,1,0.8186667999998463,['n'],0,left,['u'],0,0.5289667999986705,0.2,1,0,FastAcc,16,18,Woman,Right,
23,12,1,0.515969900001437,['n'],1,right,['e'],1,0.5383184000002075,0.4,1,0,FastAcc,16,18,Woman,Right,
24,12,1,0.6354792000001908,['c'],1,left,['e'],1,0.7008186000002752,0.2,1,0,FastAcc,16,18,Woman,Right,
25,12,1,0.7177124000008916,['n'],1,right,['e'],1,1.0785014999983105,0.1,1,0,FastAcc,16,18,Woman,Right,
26,12,1,1.5504740999986097,['c'],1,left,['u'],0,2.9115634000008868,0.1,0,0,FastAcc,16,18,Woman,Right,
27,12,1,0.5513955000005808,['n'],1,right,['e'],1,1.2720690999994986,0.1,1,0,FastAcc,16,18,Woman,Right,
28,12,1,0.5669834999989689,['n'],1,right,['e'],1,1.2808426999999938,0.4,1,0,FastAcc,16,18,Woman,Right,
29,12,1,0.9667294000009861,['n'],1,right,['u'],0,1.161242799998945,0.1,0,0,FastAcc,16,18,Woman,Right,
30,12,1,0.5667131999998674,['n'],1,right,['e'],1,0.9038153999990755,0.1,1,0,FastAcc,16,18,Woman,Right,
31,12,1,0.5849398999998812,['c'],1,left,['e'],1,0.46175980000043637,0.4,1,0,FastAcc,16,18,Woman,Right,
32,12,1,0.8003460999989329,['c'],1,left,['e'],1,0.4144706999995833,0.4,1,0,FastAcc,16,18,Woman,Right,
33,12,1,0.7008329000000231,['n'],1,right,['e'],1,0.7556573000001663,0.1,1,0,FastAcc,16,18,Woman,Right,
34,12,1,0.5003677000004245,['c'],1,left,['e'],1,0.7236174000008759,0.4,1,0,FastAcc,16,18,Woman,Right,
35,12,1,1.1344868000014685,['c'],1,left,['u'],0,0.5243239999999787,0.4,0,0,FastAcc,16,18,Woman,Right,
36,12,1,0.7179876999998669,['c'],1,left,['e'],1,0.6368261000006896,0.4,1,0,FastAcc,16,18,Woman,Right,
37,12,1,0.8519890999996278,['n'],0,left,['e'],1,0.7719268000000739,0.2,0,0,FastAcc,16,18,Woman,Right,
38,12,1,0.6519910000006348,['n'],1,right,['e'],1,0.9733548000003793,0.1,1,0,FastAcc,16,18,Woman,Right,
39,12,1,0.7173141000002943,['n'],1,right,['e'],1,1.4202889000007417,0.4,1,0,FastAcc,16,18,Woman,Right,
40,12,1,0.8008636000013212,['n'],1,right,['e'],1,0.662256300000081,0.4,1,0,FastAcc,16,18,Woman,Right,
41,12,1,1.017800299998271,['n'],1,right,['u'],0,2.6610033999986626,0.1,0,0,FastAcc,16,18,Woman,Right,
42,12,1,0.5682651000006445,['n'],1,right,['e'],1,0.5347653999997419,0.2,1,0,FastAcc,16,18,Woman,Right,
43,12,1,0.8004387000000861,['n'],1,right,['u'],0,0.8037057000001369,0.1,0,0,FastAcc,16,18,Woman,Right,
44,12,1,0.5181236999997054,['n'],1,right,['u'],0,0.6417876000014076,0.2,0,0,FastAcc,16,18,Woman,Right,
45,12,1,0.3511899999994057,['n'],0,left,['u'],0,0.6521031000011135,0.1,1,0,FastAcc,16,18,Woman,Right,
46,12,1,0.5996250000007421,['c'],1,left,['e'],1,0.7174070000000938,0.4,1,0,FastAcc,16,18,Woman,Right,
47,12,1,0.8517565999991348,['n'],0,left,['e'],1,0.6560085000000981,0.2,0,0,FastAcc,16,18,Woman,Right,
48,12,1,0.8012461999987863,['c'],1,left,['e'],1,0.6641909000009036,0.2,1,0,FastAcc,16,18,Woman,Right,
49,12,1,0.5009028000004037,['n'],1,right,['e'],1,0.5883493999990606,0.1,1,0,FastAcc,16,18,Woman,Right,
50,12,1,0.6177970999997342,['c'],1,left,['e'],1,0.5741350999996939,0.4,1,0,FastAcc,16,18,Woman,Right,
51,12,1,0.5510104000004503,['n'],1,right,['e'],1,0.467692199999874,0.1,1,0,FastAcc,16,18,Woman,Right,
52,12,1,0.9509674000000814,['n'],0,left,['u'],0,0.39729129999977886,0.1,1,0,FastAcc,16,18,Woman,Right,
53,12,1,0.8678751000006741,['n'],0,left,['u'],0,0.4287094999999681,0.2,1,0,FastAcc,16,18,Woman,Right,
54,12,1,1.1836922999991657,['c'],1,left,['u'],0,0.41441669999949227,0.2,0,0,FastAcc,16,18,Woman,Right,
55,12,1,0.8003429000000324,['c'],1,left,['e'],1,0.7517127000010078,0.4,1,0,FastAcc,16,18,Woman,Right,
56,12,1,0.5503981000001659,['n'],1,right,['e'],1,0.4942212000005384,0.2,1,0,FastAcc,16,18,Woman,Right,
57,12,1,0.7017386999996233,['c'],1,left,['e'],1,0.46484179999970365,0.4,1,0,FastAcc,16,18,Woman,Right,
58,12,1,0.5177652000002126,['n'],1,right,['e'],1,0.49192409999886877,0.4,1,0,FastAcc,16,18,Woman,Right,
59,12,1,0.567075199998726,['c'],1,left,['e'],1,0.37212499999986903,0.4,1,0,FastAcc,16,18,Woman,Right,
0,13,1,0.517640099998971,['n'],1,right,['e'],1,0.481635299998743,0.4,1,0,FastFast,16,18,Woman,Right,
1,13,1,0.8348728000000847,['c'],1,left,['u'],0,0.3988272999995388,0.1,0,0,FastFast,16,18,Woman,Right,
2,13,1,0.9511564999993425,['n'],0,left,['u'],0,0.39500690000022587,0.4,1,0,FastFast,16,18,Woman,Right,
3,13,1,0.6334971000014775,['c'],1,left,['e'],1,0.3720692999995663,0.4,1,0,FastFast,16,18,Woman,Right,
4,13,1,0.46743229999992764,['n'],1,right,['e'],1,0.5812294999996084,0.4,1,0,FastFast,16,18,Woman,Right,
5,13,1,0.4846125000003667,['n'],1,right,['e'],1,0.3484931000002689,0.1,1,0,FastFast,16,18,Woman,Right,
6,13,1,0.6010317000000214,['n'],1,right,['e'],1,0.3443245999987994,0.2,1,0,FastFast,16,18,Woman,Right,
7,13,1,0.6181651999995665,['n'],1,right,['u'],0,0.3406149999991612,0.1,0,0,FastFast,16,18,Woman,Right,
8,13,1,0.6179784999985714,['n'],0,left,['e'],1,0.2889049999994313,0.2,0,0,FastFast,16,18,Woman,Right,
9,13,1,0.6680546999996295,['n'],0,left,['u'],0,0.8300266000005649,0.4,1,0,FastFast,16,18,Woman,Right,
10,13,1,0.43463789999987057,['n'],1,right,['e'],1,0.3646977999997034,0.4,1,0,FastFast,16,18,Woman,Right,
11,13,1,0.9177063000006456,['c'],1,left,['e'],1,0.37959239999872807,0.4,1,0,FastFast,16,18,Woman,Right,
12,13,1,0.850784799999019,['n'],1,right,['u'],0,0.5407560000003286,0.1,0,0,FastFast,16,18,Woman,Right,
13,13,1,0.5843614000004891,['n'],1,right,['u'],0,0.33850949999941804,0.1,0,0,FastFast,16,18,Woman,Right,
14,13,1,0.667945500001224,['c'],1,left,['e'],1,0.3482315000001108,0.2,1,0,FastFast,16,18,Woman,Right,
15,13,1,0.5844381999995676,['n'],1,right,['e'],1,0.377185899998949,0.2,1,0,FastFast,16,18,Woman,Right,
16,13,1,0.9178893999996944,['n'],0,left,['u'],0,0.37659030000031635,0.1,1,0,FastFast,16,18,Woman,Right,
17,13,1,0.5680096000014601,['n'],1,right,['e'],1,0.34201819999907457,0.2,1,0,FastFast,16,18,Woman,Right,
18,13,1,0.6010502999997698,['n'],1,right,['e'],1,0.3541088999991189,0.4,1,0,FastFast,16,18,Woman,Right,
19,13,1,0.5332522999997309,['n'],1,right,['e'],1,0.36944989999938116,0.2,1,0,FastFast,16,18,Woman,Right,
20,13,1,0.8840446999984124,['n'],0,left,['u'],0,0.35413640000115265,0.4,1,0,FastFast,16,18,Woman,Right,
21,13,1,0.3171409999995376,['n'],1,right,['e'],1,0.37750769999911427,0.2,1,0,FastFast,16,18,Woman,Right,
22,13,1,0.5518369000001258,['n'],1,right,['e'],1,0.31022139999913634,0.2,1,0,FastFast,16,18,Woman,Right,
23,13,1,0.6347738999993453,['n'],0,left,['u'],0,0.5467607000009593,0.1,1,0,FastFast,16,18,Woman,Right,
24,13,1,0.43317410000054224,['n'],1,right,['e'],1,0.26997320000009495,0.4,1,0,FastFast,16,18,Woman,Right,
25,13,1,0.33452959999885934,['n'],0,left,['e'],1,0.3280138000009174,0.2,0,0,FastFast,16,18,Woman,Right,
26,13,1,0.4000436999995145,['n'],1,right,['e'],1,0.2856517000000167,0.1,1,0,FastFast,16,18,Woman,Right,
27,13,1,0.8004955000014888,['c'],1,left,['u'],0,0.4210127000005741,0.4,0,0,FastFast,16,18,Woman,Right,
28,13,1,0.7677131000000372,['n'],0,left,['u'],0,0.5516047000000981,0.1,1,0,FastFast,16,18,Woman,Right,
29,13,1,0.8337432000007539,['c'],1,left,['u'],0,0.3223450999994384,0.2,0,0,FastFast,16,18,Woman,Right,
30,13,1,0.5508785000001808,['n'],1,right,['e'],1,0.5784404999994877,0.2,1,0,FastFast,16,18,Woman,Right,
31,13,1,0.5175947999996424,['n'],1,right,['e'],1,0.28061390000038955,0.4,1,0,FastFast,16,18,Woman,Right,
32,13,1,0.5001062999999704,['n'],1,right,['e'],1,0.25277420000020356,0.1,1,0,FastFast,16,18,Woman,Right,
33,13,1,0.6673145999993721,['c'],1,left,['e'],1,0.6011619999990216,0.4,1,0,FastFast,16,18,Woman,Right,
34,13,1,0.5003586000002542,['n'],1,right,['e'],1,0.3031894999985525,0.4,1,0,FastFast,16,18,Woman,Right,
35,13,1,0.4175525999999081,['n'],1,right,['u'],0,0.43699759999981325,0.1,0,0,FastFast,16,18,Woman,Right,
36,13,1,0.6181122999987565,['n'],0,left,['u'],0,0.5252153000001272,0.1,1,0,FastFast,16,18,Woman,Right,
37,13,1,0.9179819000000862,['n'],0,left,['u'],0,1.4298493999995117,0.1,1,0,FastFast,16,18,Woman,Right,
38,13,1,0.6347759000000224,['c'],1,left,['e'],1,0.5016080999994301,0.2,1,0,FastFast,16,18,Woman,Right,
39,13,1,1.2008182000008674,['c'],1,left,['u'],0,0.2601572000003216,0.2,0,0,FastFast,16,18,Woman,Right,
40,13,1,1.5511394000004657,['c'],1,left,['u'],0,0.36612869999953546,0.1,0,0,FastFast,16,18,Woman,Right,
41,13,1,0.6009916000002704,['n'],1,right,['e'],1,0.9219299999986106,0.2,1,0,FastFast,16,18,Woman,Right,
42,13,1,0.6838105999995605,['c'],1,left,['e'],1,0.3318278000006103,0.4,1,0,FastFast,16,18,Woman,Right,
43,13,1,1.1846004999988509,['n'],0,left,['u'],0,0.7376904000011564,0.2,1,0,FastFast,16,18,Woman,Right,
44,13,1,0.8844762999997329,['c'],1,left,['e'],1,0.7233642999999574,0.4,1,0,FastFast,16,18,Woman,Right,
45,13,1,1.1513161999992008,['n'],0,left,['u'],0,0.2827683000014076,0.1,1,0,FastFast,16,18,Woman,Right,
46,13,1,0.6338732000003802,['n'],1,right,['e'],1,0.3932206000008591,0.2,1,0,FastFast,16,18,Woman,Right,
47,13,1,0.4835688000002847,['n'],1,right,['e'],1,0.2807454999983747,0.2,1,0,FastFast,16,18,Woman,Right,
48,13,1,0.6666228999984014,['n'],1,right,['e'],1,0.3247512999987521,0.1,1,0,FastFast,16,18,Woman,Right,
49,13,1,0.6177455999986705,['c'],1,left,['e'],1,0.3370141999985208,0.2,1,0,FastFast,16,18,Woman,Right,
50,13,1,0.5170060999989801,['n'],1,right,['u'],0,0.3053789000005054,0.2,0,0,FastFast,16,18,Woman,Right,
51,13,1,0.651766700000735,['c'],1,left,['u'],0,0.34933749999981956,0.4,0,0,FastFast,16,18,Woman,Right,
52,13,1,0.7502655999996932,['c'],1,left,['e'],1,0.2917641999993066,0.4,1,0,FastFast,16,18,Woman,Right,
53,13,1,0.4677850000007311,['n'],1,right,['e'],1,0.24790679999932763,0.1,1,0,FastFast,16,18,Woman,Right,
54,13,1,0.551112799999828,['c'],1,left,['e'],1,0.3306646999990335,0.2,1,0,FastFast,16,18,Woman,Right,
55,13,1,0.7346436999996513,['n'],1,right,['e'],1,0.27413009999872884,0.1,1,0,FastFast,16,18,Woman,Right,
56,13,1,0.7675634000006539,['n'],1,right,['e'],1,0.2826922000003833,0.1,1,0,FastFast,16,18,Woman,Right,
57,13,1,0.6679652000002534,['c'],1,left,['e'],1,0.31061009999939415,0.4,1,0,FastFast,16,18,Woman,Right,
58,13,1,0.5500396000006731,['n'],1,right,['e'],1,0.24752660000012838,0.4,1,0,FastFast,16,18,Woman,Right,
59,13,1,0.767011600000842,['c'],1,left,['e'],1,0.28838100000029954,0.1,1,0,FastFast,16,18,Woman,Right,
0,14,1,0.9178443000000698,['c'],1,left,['u'],0,1.0489615999995294,0.2,0,0,AccFast,16,18,Woman,Right,
1,14,1,0.9509403000010934,['c'],1,left,['u'],0,0.23534840000138502,0.2,0,0,AccFast,16,18,Woman,Right,
2,14,1,1.4177245999999286,['c'],1,left,['u'],0,0.1876806000000215,0.4,0,0,AccFast,16,18,Woman,Right,
3,14,1,1.2850784999991447,['n'],1,right,['e'],1,0.1472806000001583,0.2,1,0,AccFast,16,18,Woman,Right,
4,14,1,1.1835954999987734,['n'],1,right,['e'],1,0.19274890000087908,0.2,1,0,AccFast,16,18,Woman,Right,
5,14,1,0.9338209999987157,['n'],1,right,['e'],1,0.18138139999973646,0.4,1,0,AccFast,16,18,Woman,Right,
6,14,1,0.7676983999990625,['n'],1,right,['e'],1,0.16185129999939818,0.4,1,0,AccFast,16,18,Woman,Right,
7,14,1,1.267714600000545,['c'],1,left,['u'],0,0.15468789999977162,0.2,0,0,AccFast,16,18,Woman,Right,
8,14,1,1.3343082000010327,['c'],1,left,['u'],0,0.28976439999860304,0.1,0,0,AccFast,16,18,Woman,Right,
9,14,1,1.6337168000009115,['n'],1,right,['e'],1,0.2636601000012888,0.1,1,0,AccFast,16,18,Woman,Right,
10,14,1,1.9829487000006338,['n'],0,left,['u'],0,0.19136839999919175,0.4,1,0,AccFast,16,18,Woman,Right,
11,14,1,1.017282200000409,['n'],1,right,['e'],1,0.1468392999995558,0.4,1,0,AccFast,16,18,Woman,Right,
12,14,1,0.7169128999994427,['c'],1,left,['e'],1,0.20957590000034543,0.4,1,0,AccFast,16,18,Woman,Right,
13,14,1,0.8669727000014973,['n'],0,left,['e'],1,0.3779690000010305,0.1,0,0,AccFast,16,18,Woman,Right,
14,14,1,0.5829362000004039,['n'],1,right,['e'],1,0.21395920000031765,0.4,1,0,AccFast,16,18,Woman,Right,
15,14,1,0.8667115999996895,['c'],1,left,['e'],1,0.2530838999991829,0.1,1,0,AccFast,16,18,Woman,Right,
16,14,1,0.6353113000004669,['n'],1,right,['e'],1,0.1548717999994551,0.2,1,0,AccFast,16,18,Woman,Right,
17,14,1,1.2679898000005778,['n'],0,left,['e'],1,0.19697090000045137,0.2,0,0,AccFast,16,18,Woman,Right,
18,14,1,1.317309000000023,['n'],0,left,['e'],1,0.4260620999993989,0.1,0,0,AccFast,16,18,Woman,Right,
19,14,1,1.151072500000737,['c'],1,left,['e'],1,0.18999500000063563,0.4,1,0,AccFast,16,18,Woman,Right,
20,14,1,0.8510124000003998,['c'],1,left,['e'],1,0.21460730000035255,0.4,1,0,AccFast,16,18,Woman,Right,
21,14,1,1.9171800000003714,['n'],0,left,['e'],1,0.19563709999965795,0.2,0,0,AccFast,16,18,Woman,Right,
22,14,1,2.1507494000015868,['c'],1,left,['u'],0,0.31204299999990326,0.1,0,0,AccFast,16,18,Woman,Right,
23,14,1,1.4668432000016765,['c'],1,left,['u'],0,0.3229033999996318,0.2,0,0,AccFast,16,18,Woman,Right,
24,14,1,1.6344540999998571,['c'],1,left,['u'],0,0.24737239999922167,0.2,0,0,AccFast,16,18,Woman,Right,
25,14,1,1.3340600999999879,['n'],1,right,['u'],0,0.37821550000080606,0.1,0,0,AccFast,16,18,Woman,Right,
26,14,1,1.4345334000008734,['n'],1,right,['u'],0,0.24458559999948193,0.1,0,0,AccFast,16,18,Woman,Right,
27,14,1,1.3679701000000932,['n'],1,right,['e'],1,0.1667410000009113,0.1,1,0,AccFast,16,18,Woman,Right,
28,14,1,2.049875400000019,['n'],0,left,['u'],0,0.9289337999998679,0.2,1,0,AccFast,16,18,Woman,Right,
29,14,1,0.7845104999996693,['n'],1,right,['e'],1,0.18996669999978621,0.2,1,0,AccFast,16,18,Woman,Right,
30,14,1,0.7342731000007916,['n'],1,right,['e'],1,0.1395381999991514,0.4,1,0,AccFast,16,18,Woman,Right,
31,14,1,1.251268699999855,['n'],1,right,['e'],1,0.15031749999980093,0.2,1,0,AccFast,16,18,Woman,Right,
32,14,1,0.6173333000006096,['n'],1,right,['e'],1,0.15438519999952405,0.2,1,0,AccFast,16,18,Woman,Right,
33,14,1,1.0502001999993809,['c'],1,left,['u'],0,0.26829349999934493,0.2,0,0,AccFast,16,18,Woman,Right,
34,14,1,1.333116699999664,['n'],0,left,['u'],0,0.20641900000009628,0.2,1,0,AccFast,16,18,Woman,Right,
35,14,1,1.4673120000006747,['n'],0,left,['u'],0,0.2859325000008539,0.1,1,0,AccFast,16,18,Woman,Right,
36,14,1,1.518004400000791,['n'],1,right,['u'],0,0.2004073000007338,0.1,0,0,AccFast,16,18,Woman,Right,
37,14,1,0.9168360000003304,['n'],1,right,['e'],1,0.17395260000012058,0.4,1,0,AccFast,16,18,Woman,Right,
38,14,1,1.2339230999987194,['n'],1,right,['e'],1,0.16809990000001562,0.2,1,0,AccFast,16,18,Woman,Right,
39,14,1,0.7337456999994174,['n'],1,right,['e'],1,0.13498780000008992,0.4,1,0,AccFast,16,18,Woman,Right,
40,14,1,1.9339302999997017,['n'],0,left,['u'],0,0.24581969999962894,0.4,1,0,AccFast,16,18,Woman,Right,
41,14,1,0.6856054999989283,['n'],1,right,['u'],0,0.2275337999999465,0.2,0,0,AccFast,16,18,Woman,Right,
42,14,1,0.7669807999991463,['c'],1,left,['e'],1,0.2855693000001338,0.4,1,0,AccFast,16,18,Woman,Right,
43,14,1,0.9828113000003214,['c'],1,left,['u'],0,0.33392210000056366,0.1,0,0,AccFast,16,18,Woman,Right,
44,14,1,0.7655025000003661,['n'],1,right,['e'],1,0.16419540000060806,0.4,1,0,AccFast,16,18,Woman,Right,
45,14,1,1.6344012999998085,['n'],0,left,['u'],0,0.318558099999791,0.1,1,0,AccFast,16,18,Woman,Right,
46,14,1,1.4844633000011527,['n'],1,right,['u'],0,0.18475219999891124,0.1,0,0,AccFast,16,18,Woman,Right,
47,14,1,1.1679015000008803,['n'],0,left,['u'],0,0.29349790000014764,0.1,1,0,AccFast,16,18,Woman,Right,
48,14,1,1.0514952000012272,['n'],1,right,['e'],1,0.193688999999722,0.2,1,0,AccFast,16,18,Woman,Right,
49,14,1,0.8011486000013974,['n'],1,right,['e'],1,0.14053519999833952,0.2,1,0,AccFast,16,18,Woman,Right,
50,14,1,0.6678522000001976,['n'],1,right,['e'],1,0.20635380000021541,0.1,1,0,AccFast,16,18,Woman,Right,
51,14,1,1.016920600000958,['n'],1,right,['u'],0,0.19191270000010263,0.1,0,0,AccFast,16,18,Woman,Right,
52,14,1,1.2179598000002443,['c'],1,left,['u'],0,0.45822860000043875,0.4,0,0,AccFast,16,18,Woman,Right,
53,14,1,0.9339663999999175,['c'],1,left,['e'],1,0.19825250000030792,0.4,1,0,AccFast,16,18,Woman,Right,
54,14,1,0.7177282000011473,['n'],1,right,['e'],1,0.1309371999996074,0.4,1,0,AccFast,16,18,Woman,Right,
55,14,1,0.8007481999993615,['n'],1,right,['e'],1,1.1675071999998181,0.1,1,0,AccFast,16,18,Woman,Right,
56,14,1,0.7844019000003755,['c'],1,left,['e'],1,0.21189240000057907,0.4,1,0,AccFast,16,18,Woman,Right,
57,14,1,0.834307600000102,['n'],0,left,['e'],1,0.18811280000045372,0.1,0,0,AccFast,16,18,Woman,Right,
58,14,1,1.083585200000016,['n'],1,right,['e'],1,0.17180679999910353,0.1,1,0,AccFast,16,18,Woman,Right,
59,14,1,0.8845947999998316,['n'],1,right,['e'],1,0.2600103999993735,0.4,1,0,AccFast,16,18,Woman,Right,
0,15,1,1.950897000000623,['n'],1,right,['e'],1,0.9591722000004665,0.1,1,0,AccAcc,16,18,Woman,Right,
1,15,1,0.966900400000668,['n'],1,right,['e'],1,1.0130169000003661,0.4,1,0,AccAcc,16,18,Woman,Right,
2,15,1,0.8676963999987493,['n'],1,right,['e'],1,0.6186881000012363,0.2,1,0,AccAcc,16,18,Woman,Right,
3,15,1,1.3508552000002965,['n'],0,left,['u'],0,0.39822689999891736,0.2,1,0,AccAcc,16,18,Woman,Right,
4,15,1,0.8837416999995185,['c'],1,left,['e'],1,0.781168899999102,0.1,1,0,AccAcc,16,18,Woman,Right,
5,15,1,0.901149000001169,['n'],0,left,['e'],1,0.4281327999997302,0.1,0,0,AccAcc,16,18,Woman,Right,
6,15,1,1.2329609000007622,['n'],1,right,['e'],1,0.46105200000056357,0.2,1,0,AccAcc,16,18,Woman,Right,
7,15,1,1.7347790999992867,['c'],1,left,['u'],0,3.0474193999998533,0.1,0,0,AccAcc,16,18,Woman,Right,
8,15,1,0.8498379000011482,['n'],1,right,['e'],1,1.1986324000008608,0.2,1,0,AccAcc,16,18,Woman,Right,
9,15,1,1.1834486999996443,['c'],1,left,['e'],1,1.6017635999996855,0.2,1,0,AccAcc,16,18,Woman,Right,
10,15,1,0.6334975999998278,['n'],1,right,['e'],1,1.0506798000005801,0.4,1,0,AccAcc,16,18,Woman,Right,
11,15,1,1.4844823999992514,['c'],1,left,['e'],1,0.9670519000010245,0.2,1,0,AccAcc,16,18,Woman,Right,
12,15,1,0.6676982999997563,['n'],1,right,['e'],1,0.7759045000002516,0.4,1,0,AccAcc,16,18,Woman,Right,
13,15,1,0.7347425000007206,['n'],1,right,['e'],1,0.8462347999993654,0.1,1,0,AccAcc,16,18,Woman,Right,
14,15,1,0.6676365000002988,['n'],1,right,['e'],1,0.8681043999986287,0.4,1,0,AccAcc,16,18,Woman,Right,
15,15,1,1.0341859000000113,['n'],1,right,['e'],1,1.1781425999997737,0.2,1,0,AccAcc,16,18,Woman,Right,
16,15,1,0.8858090999983688,['c'],1,left,['e'],1,1.0183695999985503,0.4,1,0,AccAcc,16,18,Woman,Right,
17,15,1,0.98321869999927,['n'],1,right,['e'],1,0.9894497000004776,0.2,1,0,AccAcc,16,18,Woman,Right,
18,15,1,0.917569100000037,['n'],1,right,['e'],1,2.2432101000013063,0.1,1,0,AccAcc,16,18,Woman,Right,
19,15,1,0.7512583000006998,['n'],1,right,['e'],1,0.9581251999989036,0.1,1,0,AccAcc,16,18,Woman,Right,
20,15,1,0.9347225000001345,['c'],1,left,['u'],0,1.8772091000009823,0.2,0,0,AccAcc,16,18,Woman,Right,
21,15,1,0.9843065999993996,['c'],1,left,['e'],1,2.117455300000074,0.4,1,0,AccAcc,16,18,Woman,Right,
22,15,1,1.3334260000010545,['n'],0,left,['u'],0,2.173794899999848,0.1,1,0,AccAcc,16,18,Woman,Right,
23,15,1,1.1845466000013403,['n'],1,right,['e'],1,1.530171500000506,0.2,1,0,AccAcc,16,18,Woman,Right,
24,15,1,0.7334402999986196,['n'],1,right,['e'],1,2.146182200000112,0.2,1,0,AccAcc,16,18,Woman,Right,
25,15,1,0.6676886000004743,['n'],1,right,['e'],1,1.3003255999992689,0.4,1,0,AccAcc,16,18,Woman,Right,
26,15,1,0.7827066000008926,['n'],1,right,['u'],0,0.8032387000002927,0.1,0,0,AccAcc,16,18,Woman,Right,
27,15,1,0.7503808999990724,['n'],1,right,['e'],1,1.7669699999987643,0.2,1,0,AccAcc,16,18,Woman,Right,
28,15,1,1.0352801000008185,['n'],0,left,['u'],0,1.3531570999984979,0.1,1,0,AccAcc,16,18,Woman,Right,
29,15,1,0.6503417999992962,['n'],1,right,['e'],1,1.435680800001137,0.4,1,0,AccAcc,16,18,Woman,Right,
30,15,1,0.7337663999987853,['n'],1,right,['e'],1,0.8551892999985284,0.4,1,0,AccAcc,16,18,Woman,Right,
31,15,1,0.7842980999994325,['n'],1,right,['e'],1,1.1123807999993005,0.2,1,0,AccAcc,16,18,Woman,Right,
32,15,1,1.0834140999995725,['c'],1,left,['e'],1,0.9948782000010397,0.4,1,0,AccAcc,16,18,Woman,Right,
33,15,1,0.7338409999993019,['c'],1,left,['e'],1,1.0240829999984271,0.4,1,0,AccAcc,16,18,Woman,Right,
34,15,1,0.8843205000011949,['n'],0,left,['e'],1,0.886574300000575,0.1,0,0,AccAcc,16,18,Woman,Right,
35,15,1,1.333708399999523,['c'],1,left,['u'],0,0.8160689000014827,0.1,0,0,AccAcc,16,18,Woman,Right,
36,15,1,0.6506610000014916,['n'],1,right,['e'],1,0.9355959999993502,0.2,1,0,AccAcc,16,18,Woman,Right,
37,15,1,0.8001605000008567,['c'],1,left,['e'],1,0.9325555000013992,0.4,1,0,AccAcc,16,18,Woman,Right,
38,15,1,0.6180437000002712,['n'],0,left,['e'],1,1.0168909999993048,0.1,0,0,AccAcc,16,18,Woman,Right,
39,15,1,0.8004994000002625,['c'],1,left,['e'],1,1.5070593000000372,0.4,1,0,AccAcc,16,18,Woman,Right,
40,15,1,0.7180950000001758,['c'],1,left,['e'],1,0.9242591999991419,0.4,1,0,AccAcc,16,18,Woman,Right,
41,15,1,0.9002246000000014,['n'],1,right,['e'],1,0.8539913000004162,0.1,1,0,AccAcc,16,18,Woman,Right,
42,15,1,0.6675362999994832,['c'],1,left,['e'],1,0.7154898999997386,0.4,1,0,AccAcc,16,18,Woman,Right,
43,15,1,0.7338075000006938,['c'],1,left,['e'],1,1.2516203000013775,0.4,1,0,AccAcc,16,18,Woman,Right,
44,15,1,1.2510970000002999,['c'],1,left,['e'],1,0.6899209000002884,0.2,1,0,AccAcc,16,18,Woman,Right,
45,15,1,1.5506874000002426,['c'],1,left,['u'],0,0.667229500000758,0.2,0,0,AccAcc,16,18,Woman,Right,
46,15,1,0.6515017000001535,['n'],1,right,['e'],1,0.4884593999995559,0.4,1,0,AccAcc,16,18,Woman,Right,
47,15,1,0.6843056999987311,['c'],1,left,['e'],1,0.7481498000015563,0.4,1,0,AccAcc,16,18,Woman,Right,
48,15,1,1.8511908000000403,['c'],1,left,['u'],0,2.486353999998755,0.1,0,0,AccAcc,16,18,Woman,Right,
49,15,1,0.6508213999986765,['n'],1,right,['e'],1,0.7475727000000916,0.1,1,0,AccAcc,16,18,Woman,Right,
50,15,1,2.184524100000999,['c'],0,right,['u'],0,0.7124536999999691,0.1,1,0,AccAcc,16,18,Woman,Right,
51,15,1,0.8844475999994756,['n'],1,right,['e'],1,0.4593002000001434,0.4,1,0,AccAcc,16,18,Woman,Right,
52,15,1,1.4513583999996627,['c'],1,left,['e'],1,0.43307590000040364,0.1,1,0,AccAcc,16,18,Woman,Right,
53,15,1,2.149997099999382,['c'],1,left,['e'],1,0.39722059999985504,0.2,1,0,AccAcc,16,18,Woman,Right,
54,15,1,1.485399500001222,['c'],1,left,['e'],1,0.3868774000002304,0.1,1,0,AccAcc,16,18,Woman,Right,
55,15,1,1.3168733999991673,['n'],1,right,['u'],0,0.7054701999986719,0.2,0,0,AccAcc,16,18,Woman,Right,
56,15,1,1.7504109000001336,['c'],1,left,['e'],1,0.6257373999997071,0.4,1,0,AccAcc,16,18,Woman,Right,
57,15,1,1.9348626999999397,['c'],1,left,['e'],1,0.44603119999919727,0.2,1,0,AccAcc,16,18,Woman,Right,
58,15,1,1.0501679999997577,['n'],1,right,['e'],1,0.5649348999995709,0.2,1,0,AccAcc,16,18,Woman,Right,
59,15,1,1.1660296000009112,['n'],1,right,['e'],1,0.5293720000008761,0.1,1,0,AccAcc,16,18,Woman,Right,
