withinblocktrial,block,block_repetition,rt,resp,cor,cresp,conf_press,cj,rtconf,coherence,metacognition,slow_trial,manipulation,sub,age,gender,handedness,
0,1,1,1.7512122999987696,['n'],0,left,none,-99,-99,0.5,-99,0,none,20,17,Woman,Right,
1,1,1,0.8831384000004618,['n'],1,right,none,-99,-99,0.5,-99,0,none,20,17,Woman,Right,
2,1,1,2.2178070999998454,['c'],0,right,none,-99,-99,0.5,-99,0,none,20,17,Woman,Right,
3,1,1,0.7012742000006256,['n'],1,right,none,-99,-99,0.5,-99,0,none,20,17,Woman,Right,
4,1,1,0.6494811000011396,['c'],1,left,none,-99,-99,0.5,-99,0,none,20,17,Woman,Right,
5,1,1,0.5508282000009785,['c'],1,left,none,-99,-99,0.5,-99,0,none,20,17,Woman,Right,
6,1,1,0.6326360000002751,['n'],1,right,none,-99,-99,0.5,-99,0,none,20,17,Woman,Right,
7,1,1,0.5178485000014916,['n'],1,right,none,-99,-99,0.5,-99,0,none,20,17,Woman,Right,
8,1,1,0.5331945999987511,['c'],1,left,none,-99,-99,0.5,-99,0,none,20,17,Woman,Right,
9,1,1,0.5830108000009204,['n'],1,right,none,-99,-99,0.5,-99,0,none,20,17,Woman,Right,
10,1,1,0.5170151999991504,['n'],1,right,none,-99,-99,0.5,-99,0,none,20,17,Woman,Right,
11,1,1,0.5179683000005753,['c'],1,left,none,-99,-99,0.5,-99,0,none,20,17,Woman,Right,
12,1,1,0.5348957000005612,['c'],1,left,none,-99,-99,0.5,-99,0,none,20,17,Woman,Right,
13,1,1,0.5171136000008119,['n'],1,right,none,-99,-99,0.5,-99,0,none,20,17,Woman,Right,
14,1,1,0.5679309999995894,['c'],1,left,none,-99,-99,0.5,-99,0,none,20,17,Woman,Right,
15,1,1,0.4837364000013622,['n'],1,right,none,-99,-99,0.5,-99,0,none,20,17,Woman,Right,
16,1,1,0.4519335000004503,['n'],1,right,none,-99,-99,0.5,-99,0,none,20,17,Woman,Right,
17,1,1,0.40117190000091796,['c'],1,left,none,-99,-99,0.5,-99,0,none,20,17,Woman,Right,
18,1,1,0.43289740000000165,['c'],1,left,none,-99,-99,0.5,-99,0,none,20,17,Woman,Right,
19,1,1,0.4676498000007996,['c'],1,left,none,-99,-99,0.5,-99,0,none,20,17,Woman,Right,
20,1,1,0.4345107999997708,['c'],1,left,none,-99,-99,0.5,-99,0,none,20,17,Woman,Right,
21,1,1,0.3997760999991442,['c'],1,left,none,-99,-99,0.5,-99,0,none,20,17,Woman,Right,
22,1,1,0.5487544000006892,['n'],1,right,none,-99,-99,0.5,-99,0,none,20,17,Woman,Right,
23,1,1,0.4525552000013704,['n'],1,right,none,-99,-99,0.5,-99,0,none,20,17,Woman,Right,
0,2,1,2.1343250000008993,['c'],1,left,none,-99,-99,0.2,-99,0,none,20,17,Woman,Right,
1,2,1,0.5014097000002948,['c'],0,right,none,-99,-99,0.2,-99,0,none,20,17,Woman,Right,
2,2,1,0.49998059999961697,['c'],1,left,none,-99,-99,0.2,-99,0,none,20,17,Woman,Right,
3,2,1,0.5494732000006479,['c'],0,right,none,-99,-99,0.4,-99,0,none,20,17,Woman,Right,
4,2,1,0.5177267999988544,['c'],1,left,none,-99,-99,0.2,-99,0,none,20,17,Woman,Right,
5,2,1,0.5675590999999258,['c'],1,left,none,-99,-99,0.4,-99,0,none,20,17,Woman,Right,
6,2,1,0.700311700000384,['c'],0,right,none,-99,-99,0.4,-99,0,none,20,17,Woman,Right,
7,2,1,0.5848998000001302,['c'],1,left,none,-99,-99,0.4,-99,0,none,20,17,Woman,Right,
8,2,1,0.49908700000014505,['c'],0,right,none,-99,-99,0.1,-99,0,none,20,17,Woman,Right,
9,2,1,0.5679518999986612,['c'],0,right,none,-99,-99,0.1,-99,0,none,20,17,Woman,Right,
10,2,1,0.8165654000003997,['c'],1,left,none,-99,-99,0.4,-99,0,none,20,17,Woman,Right,
11,2,1,0.4674146999986988,['c'],1,left,none,-99,-99,0.1,-99,0,none,20,17,Woman,Right,
12,2,1,0.3845108999994409,['c'],0,right,none,-99,-99,0.2,-99,0,none,20,17,Woman,Right,
13,2,1,0.5344411999994918,['n'],1,right,none,-99,-99,0.4,-99,0,none,20,17,Woman,Right,
14,2,1,0.5013550000003306,['c'],1,left,none,-99,-99,0.1,-99,0,none,20,17,Woman,Right,
15,2,1,0.5173797999996168,['c'],1,left,none,-99,-99,0.1,-99,0,none,20,17,Woman,Right,
16,2,1,0.5172490999993897,['c'],0,right,none,-99,-99,0.2,-99,0,none,20,17,Woman,Right,
17,2,1,0.4675767000007909,['c'],1,left,none,-99,-99,0.1,-99,0,none,20,17,Woman,Right,
18,2,1,0.9164213000003656,['n'],0,left,none,-99,-99,0.1,-99,0,none,20,17,Woman,Right,
19,2,1,0.48513420000017504,['n'],1,right,none,-99,-99,0.2,-99,0,none,20,17,Woman,Right,
20,2,1,1.1163348000009137,['n'],1,right,none,-99,-99,0.4,-99,0,none,20,17,Woman,Right,
21,2,1,0.4680490999999165,['c'],1,left,none,-99,-99,0.4,-99,0,none,20,17,Woman,Right,
22,2,1,1.9663199000005989,['n'],1,right,none,-99,-99,0.2,-99,0,none,20,17,Woman,Right,
23,2,1,0.433956599999874,['n'],1,right,none,-99,-99,0.1,-99,0,none,20,17,Woman,Right,
0,3,1,1.94982710000113,['c'],1,left,['e'],1,2.365315400000327,0.4,1,0,none,20,17,Woman,Right,
1,3,1,1.3181856999999582,['c'],1,left,['u'],0,0.39199530000041705,0.1,0,0,none,20,17,Woman,Right,
2,3,1,1.2348258000001806,['n'],1,right,['e'],1,1.1894973999987997,0.2,1,0,none,20,17,Woman,Right,
3,3,1,1.5003956999989896,['c'],1,left,['e'],1,0.4243876000000455,0.4,1,0,none,20,17,Woman,Right,
4,3,1,0.7668823999993037,['n'],0,left,['u'],0,0.5113636000005499,0.2,1,0,none,20,17,Woman,Right,
5,3,1,1.4505043999997724,['n'],1,right,['u'],0,0.40008010000019567,0.2,0,0,none,20,17,Woman,Right,
6,3,1,2.3343507000008685,['c'],1,left,['u'],0,0.664591400000063,0.2,0,0,none,20,17,Woman,Right,
7,3,1,1.418180399999983,['n'],1,right,['u'],0,0.5555826999989222,0.2,0,0,none,20,17,Woman,Right,
8,3,1,2.4677500999987387,['n'],1,right,['e'],1,0.49748840000029304,0.4,1,0,none,20,17,Woman,Right,
9,3,1,1.1505653999993228,['c'],1,left,['e'],1,0.8297289000001911,0.4,1,0,none,20,17,Woman,Right,
10,3,1,1.5008072999989963,['n'],1,right,['e'],1,0.46250330000111717,0.1,1,0,none,20,17,Woman,Right,
11,3,1,2.0346279999994294,['c'],0,right,['u'],0,0.6489636000005703,0.1,1,0,none,20,17,Woman,Right,
12,3,1,0.9674553999993805,['n'],1,right,['e'],1,1.0226496000013867,0.2,1,0,none,20,17,Woman,Right,
13,3,1,2.0180096000003687,['c'],1,left,['u'],0,0.3954410000005737,0.1,0,0,none,20,17,Woman,Right,
14,3,1,2.3850857999987056,['n'],1,right,['u'],0,0.3944033000007039,0.1,0,0,none,20,17,Woman,Right,
15,3,1,0.7680275000002439,['c'],1,left,['u'],0,0.6668926999991527,0.1,0,0,none,20,17,Woman,Right,
16,3,1,2.284707499999058,['c'],1,left,['e'],1,0.6832013000002917,0.4,1,0,none,20,17,Woman,Right,
17,3,1,1.6512631999994483,['c'],1,left,['e'],1,0.41204690000085975,0.2,1,0,none,20,17,Woman,Right,
18,3,1,1.568136300000333,['n'],0,left,['u'],0,0.8039050000006682,0.1,1,0,none,20,17,Woman,Right,
19,3,1,1.2004919000009977,['n'],1,right,['u'],0,0.39402830000108224,0.2,0,0,none,20,17,Woman,Right,
20,3,1,1.6337287000005745,['n'],1,right,['e'],1,0.3117326999999932,0.4,1,0,none,20,17,Woman,Right,
21,3,1,0.8338822999994591,['c'],1,left,['u'],0,0.37653019999925164,0.1,0,0,none,20,17,Woman,Right,
22,3,1,1.1831669000002876,['n'],1,right,['e'],1,0.489469399999507,0.4,1,0,none,20,17,Woman,Right,
23,3,1,1.4162366000000475,['n'],1,right,['e'],1,0.3872886999997718,0.4,1,0,none,20,17,Woman,Right,
0,4,1,1.250851099999636,['c'],1,left,['e'],1,1.4027081000003818,0.4,1,0,FastAcc,20,17,Woman,Right,
1,4,1,0.9835880999999063,['n'],1,right,['e'],1,0.526445400000739,0.1,1,0,FastAcc,20,17,Woman,Right,
2,4,1,0.5849016000011034,['c'],0,right,['e'],1,1.307877399998688,0.1,0,0,FastAcc,20,17,Woman,Right,
3,4,1,1.1187874999995984,['n'],1,right,['e'],1,0.8055639000012889,0.2,1,0,FastAcc,20,17,Woman,Right,
4,4,1,0.9516898000001675,['c'],1,left,['u'],0,0.4667260999995051,0.2,0,0,FastAcc,20,17,Woman,Right,
5,4,1,0.6007582999991428,['n'],1,right,['u'],0,0.5773619000010513,0.1,0,0,FastAcc,20,17,Woman,Right,
6,4,1,0.6014434000007896,['c'],1,left,['e'],1,0.5649436000003334,0.2,1,0,FastAcc,20,17,Woman,Right,
7,4,1,1.9844119000008504,['c'],1,left,['e'],1,2.2653345999988233,0.1,1,0,FastAcc,20,17,Woman,Right,
8,4,1,0.7343720000008034,['n'],1,right,['e'],1,0.6759762999990926,0.1,1,0,FastAcc,20,17,Woman,Right,
9,4,1,0.4350253000011435,['c'],1,left,['e'],1,1.4421304000006785,0.1,1,0,FastAcc,20,17,Woman,Right,
10,4,1,0.48460510000040813,['c'],1,left,['e'],1,0.6877948000001197,0.4,1,0,FastAcc,20,17,Woman,Right,
11,4,1,0.45212399999945774,['c'],1,left,['e'],1,0.4688086000005569,0.1,1,0,FastAcc,20,17,Woman,Right,
12,4,1,0.5170341000011831,['c'],1,left,['e'],1,0.5526183000001765,0.4,1,0,FastAcc,20,17,Woman,Right,
13,4,1,0.7681834999984858,['n'],0,left,['u'],0,0.9014146000008623,0.1,1,0,FastAcc,20,17,Woman,Right,
14,4,1,0.5172148000001471,['c'],0,right,['u'],0,0.526609999998982,0.2,1,0,FastAcc,20,17,Woman,Right,
15,4,1,0.45092310000109137,['n'],1,right,['e'],1,1.0663454000005004,0.1,1,0,FastAcc,20,17,Woman,Right,
16,4,1,0.46715340000082506,['n'],1,right,['e'],1,0.8792330999986007,0.4,1,0,FastAcc,20,17,Woman,Right,
17,4,1,0.7506795000008424,['n'],1,right,['u'],0,0.7522718000000168,0.4,0,0,FastAcc,20,17,Woman,Right,
18,4,1,2.0838953999991645,['n'],1,right,['e'],1,0.3212765999996918,0.4,1,0,FastAcc,20,17,Woman,Right,
19,4,1,0.6846000000005006,['n'],0,left,['e'],1,0.32367579999845475,0.4,0,0,FastAcc,20,17,Woman,Right,
20,4,1,0.6174209000000701,['c'],1,left,['e'],1,0.46450149999873247,0.4,1,0,FastAcc,20,17,Woman,Right,
21,4,1,0.8338053999996191,['n'],1,right,['e'],1,1.9425687000002654,0.4,1,0,FastAcc,20,17,Woman,Right,
22,4,1,0.4503822000006039,['c'],0,right,['u'],0,0.6344705000010435,0.4,1,0,FastAcc,20,17,Woman,Right,
23,4,1,0.4516119999989314,['c'],1,left,['e'],1,2.0328231000003143,0.4,1,0,FastAcc,20,17,Woman,Right,
24,4,1,0.8343945999986317,['n'],0,left,['u'],0,0.6966907999994874,0.2,1,0,FastAcc,20,17,Woman,Right,
25,4,1,0.48253250000016124,['n'],1,right,['e'],1,0.756642300000749,0.2,1,0,FastAcc,20,17,Woman,Right,
26,4,1,0.6523992999991606,['c'],1,left,['e'],1,0.3736482000003889,0.2,1,0,FastAcc,20,17,Woman,Right,
27,4,1,0.6510964000008244,['n'],1,right,['e'],1,0.3511070999993535,0.4,1,0,FastAcc,20,17,Woman,Right,
28,4,1,0.6177883000000293,['n'],1,right,['e'],1,0.4186341000004177,0.4,1,0,FastAcc,20,17,Woman,Right,
29,4,1,0.9681695999988733,['n'],0,left,['u'],0,0.27756659999977273,0.1,1,0,FastAcc,20,17,Woman,Right,
30,4,1,0.535121099999742,['n'],1,right,['u'],0,0.9517744000004313,0.4,0,0,FastAcc,20,17,Woman,Right,
31,4,1,1.2847302000009222,['c'],1,left,['u'],0,1.7368337999996584,0.1,0,0,FastAcc,20,17,Woman,Right,
32,4,1,0.4658847999999125,['c'],1,left,['u'],0,0.9001696999985143,0.2,0,0,FastAcc,20,17,Woman,Right,
33,4,1,0.5678180000013526,['n'],1,right,['u'],0,0.6522459999996499,0.2,0,0,FastAcc,20,17,Woman,Right,
34,4,1,0.4513491999987309,['n'],0,left,['u'],0,0.7292175000002317,0.1,1,0,FastAcc,20,17,Woman,Right,
35,4,1,0.36766660000103,['c'],1,left,['u'],0,0.6395514999985608,0.1,0,0,FastAcc,20,17,Woman,Right,
36,4,1,1.1844277000000147,['n'],0,left,['u'],0,0.864963699999862,0.1,1,0,FastAcc,20,17,Woman,Right,
37,4,1,0.6006586000003153,['n'],1,right,['e'],1,0.7048130000002857,0.2,1,0,FastAcc,20,17,Woman,Right,
38,4,1,0.451181300000826,['n'],1,right,['e'],1,0.6209232000001066,0.4,1,0,FastAcc,20,17,Woman,Right,
39,4,1,0.6182059999991907,['c'],1,left,['e'],1,0.3899844999996276,0.4,1,0,FastAcc,20,17,Woman,Right,
40,4,1,1.450280199998815,['c'],1,left,['e'],1,0.3272693999988405,0.2,1,0,FastAcc,20,17,Woman,Right,
41,4,1,1.0331662000007782,['n'],0,left,['u'],0,0.33152270000027784,0.1,1,0,FastAcc,20,17,Woman,Right,
42,4,1,1.0513470000005327,['c'],1,left,['u'],0,0.4459707999994862,0.2,0,0,FastAcc,20,17,Woman,Right,
43,4,1,1.367788000001383,['n'],1,right,['u'],0,0.2797105999998166,0.4,0,0,FastAcc,20,17,Woman,Right,
44,4,1,0.917688100000305,['n'],1,right,['e'],1,0.2186598000007507,0.2,1,0,FastAcc,20,17,Woman,Right,
45,4,1,0.866686800000025,['c'],1,left,['e'],1,0.5846502000003966,0.4,1,0,FastAcc,20,17,Woman,Right,
46,4,1,1.4846277000015107,['c'],1,left,['e'],1,0.5284754999993311,0.2,1,0,FastAcc,20,17,Woman,Right,
47,4,1,0.8343985999999859,['n'],1,right,['u'],0,0.44394020000072487,0.2,0,0,FastAcc,20,17,Woman,Right,
48,4,1,0.7167930999985401,['n'],1,right,['e'],1,0.30465360000016517,0.2,1,0,FastAcc,20,17,Woman,Right,
49,4,1,1.3012791000001016,['c'],0,right,['u'],0,0.6668289999997796,0.1,1,0,FastAcc,20,17,Woman,Right,
50,4,1,0.88396769999963,['n'],1,right,['u'],0,0.6628552999991371,0.4,0,0,FastAcc,20,17,Woman,Right,
51,4,1,3.284577399999762,['c'],0,right,['u'],0,0.3632612000001245,0.1,1,0,FastAcc,20,17,Woman,Right,
52,4,1,1.534669099999519,['c'],1,left,['u'],0,0.545910200000435,0.4,0,0,FastAcc,20,17,Woman,Right,
53,4,1,0.9013678000010259,['c'],1,left,['u'],0,0.43386329999884765,0.1,0,0,FastAcc,20,17,Woman,Right,
54,4,1,2.0837279000006674,['c'],0,right,['u'],0,0.2236004000005778,0.2,1,0,FastAcc,20,17,Woman,Right,
55,4,1,0.6681305000001885,['n'],1,right,['u'],0,0.5425753999988956,0.2,0,0,FastAcc,20,17,Woman,Right,
56,4,1,0.5511409000009735,['c'],1,left,['u'],0,0.42943730000115465,0.2,0,0,FastAcc,20,17,Woman,Right,
57,4,1,0.7016325999993569,['n'],1,right,['e'],1,0.3944759999994858,0.1,1,0,FastAcc,20,17,Woman,Right,
58,4,1,0.6511420999995607,['n'],1,right,['e'],1,0.3232011000000057,0.1,1,0,FastAcc,20,17,Woman,Right,
59,4,1,0.568624000001364,['c'],1,left,['e'],1,0.2740806000001612,0.2,1,0,FastAcc,20,17,Woman,Right,
0,5,1,0.8345998000004329,['c'],1,left,['e'],1,0.49104869999973744,0.2,1,0,FastFast,20,17,Woman,Right,
1,5,1,0.8846484000005148,['n'],1,right,['e'],1,0.23860290000084206,0.4,1,0,FastFast,20,17,Woman,Right,
2,5,1,0.5668487000002642,['c'],1,left,['e'],1,0.2089493000003131,0.2,1,0,FastFast,20,17,Woman,Right,
3,5,1,0.9178250000004482,['n'],1,right,['e'],1,0.17460229999960575,0.4,1,0,FastFast,20,17,Woman,Right,
4,5,1,0.5012153000006947,['c'],1,left,['e'],1,0.19779519999974582,0.4,1,0,FastFast,20,17,Woman,Right,
5,5,1,0.5514554999990651,['c'],1,left,['e'],1,0.20210989999941376,0.4,1,0,FastFast,20,17,Woman,Right,
6,5,1,1.1680467999995017,['c'],0,right,['u'],0,0.9737538000008499,0.2,1,0,FastFast,20,17,Woman,Right,
7,5,1,0.6353124999986903,['c'],1,left,['u'],0,0.28803030000017316,0.2,0,0,FastFast,20,17,Woman,Right,
8,5,1,0.80098739999994,['n'],1,right,['u'],0,0.19897370000035153,0.4,0,0,FastFast,20,17,Woman,Right,
9,5,1,0.46705979999933334,['c'],1,left,['e'],1,0.20640579999962938,0.1,1,0,FastFast,20,17,Woman,Right,
10,5,1,0.5008834999989631,['c'],1,left,['e'],1,0.22068930000023101,0.1,1,0,FastFast,20,17,Woman,Right,
11,5,1,0.7009263999989344,['c'],0,right,['u'],0,1.0507219000010082,0.1,1,0,FastFast,20,17,Woman,Right,
12,5,1,1.2510464999995747,['n'],1,right,['u'],0,0.6328451000008499,0.2,0,0,FastFast,20,17,Woman,Right,
13,5,1,0.7169321999990643,['c'],0,right,['u'],0,0.4372432000000117,0.1,1,0,FastFast,20,17,Woman,Right,
14,5,1,1.7338822999990953,['n'],1,right,['e'],1,0.2008456000003207,0.4,1,0,FastFast,20,17,Woman,Right,
15,5,1,1.1512079999993148,['c'],0,right,['e'],1,1.988837599999897,0.1,0,0,FastFast,20,17,Woman,Right,
16,5,1,1.4166291000001365,['n'],1,right,['e'],1,0.25596569999834173,0.2,1,0,FastFast,20,17,Woman,Right,
17,5,1,0.9012276000012207,['c'],0,right,['e'],1,0.2435949000009714,0.1,0,0,FastFast,20,17,Woman,Right,
18,5,1,0.9518019000006461,['c'],0,right,['e'],1,0.2223532999996678,0.2,0,0,FastFast,20,17,Woman,Right,
19,5,1,0.8845568999986426,['c'],1,left,['e'],1,0.2046954999987065,0.4,1,0,FastFast,20,17,Woman,Right,
20,5,1,0.6332802999986598,['c'],1,left,['e'],1,0.2063278999994509,0.4,1,0,FastFast,20,17,Woman,Right,
21,5,1,1.0672816000005696,['c'],0,right,['e'],1,0.22120970000105444,0.1,0,0,FastFast,20,17,Woman,Right,
22,5,1,0.9670898000003945,['c'],0,right,['e'],1,0.208135000000766,0.1,0,0,FastFast,20,17,Woman,Right,
23,5,1,0.7833195000002888,['c'],1,left,['e'],1,0.2432064000004175,0.2,1,0,FastFast,20,17,Woman,Right,
24,5,1,0.8177206999989721,['c'],1,left,['e'],1,0.24344169999858423,0.2,1,0,FastFast,20,17,Woman,Right,
25,5,1,0.700977000000421,['c'],1,left,['e'],1,0.23306330000013986,0.4,1,0,FastFast,20,17,Woman,Right,
26,5,1,0.7512969999988854,['c'],0,right,['e'],1,0.2829853999992338,0.2,0,0,FastFast,20,17,Woman,Right,
27,5,1,1.4016326000000845,['n'],1,right,['e'],1,0.2819859000010183,0.2,1,0,FastFast,20,17,Woman,Right,
28,5,1,0.883345799999006,['c'],1,left,['e'],1,0.2623323999996501,0.2,1,0,FastFast,20,17,Woman,Right,
29,5,1,2.2014090000011493,['n'],0,left,['u'],0,0.9254770000006829,0.4,1,0,FastFast,20,17,Woman,Right,
30,5,1,2.467791800001578,['c'],1,left,['e'],1,0.28941609999856155,0.4,1,0,FastFast,20,17,Woman,Right,
31,5,1,0.8842761999985669,['c'],1,left,['e'],1,0.3080261999984941,0.4,1,0,FastFast,20,17,Woman,Right,
32,5,1,0.8354808000003686,['n'],1,right,['e'],1,0.3288794999989477,0.2,1,0,FastFast,20,17,Woman,Right,
33,5,1,0.9681187000005593,['n'],0,left,['e'],1,0.23932030000105442,0.1,0,0,FastFast,20,17,Woman,Right,
34,5,1,1.3343267000000196,['n'],1,right,['u'],0,0.24274969999896712,0.4,0,0,FastFast,20,17,Woman,Right,
35,5,1,1.551255599999422,['c'],1,left,['e'],1,0.21373579999999492,0.2,1,0,FastFast,20,17,Woman,Right,
36,5,1,0.6680288999996264,['c'],1,left,['e'],1,0.18079969999962486,0.1,1,0,FastFast,20,17,Woman,Right,
37,5,1,2.416847399999824,['n'],0,left,['e'],1,0.2870671000000584,0.2,0,0,FastFast,20,17,Woman,Right,
38,5,1,0.7347155999996176,['c'],1,left,['e'],1,0.22458019999976386,0.1,1,0,FastFast,20,17,Woman,Right,
39,5,1,1.2179397999989305,['c'],1,left,['u'],0,0.3215586999995139,0.1,0,0,FastFast,20,17,Woman,Right,
40,5,1,1.0011613999995461,['c'],0,right,['u'],0,0.5674082000005001,0.4,1,0,FastFast,20,17,Woman,Right,
41,5,1,1.0347597999989375,['n'],0,left,['e'],1,0.4735777000005328,0.4,0,0,FastFast,20,17,Woman,Right,
42,5,1,1.3677786000007472,['n'],1,right,['e'],1,0.6825741000011476,0.4,1,0,FastFast,20,17,Woman,Right,
43,5,1,0.7677992000008089,['n'],0,left,['e'],1,0.2988253999992594,0.1,0,0,FastFast,20,17,Woman,Right,
44,5,1,2.301299200000358,['n'],1,right,['e'],1,0.2531511999986833,0.1,1,0,FastFast,20,17,Woman,Right,
45,5,1,0.8180429000003642,['n'],1,right,['e'],1,0.2525567000011506,0.1,1,0,FastFast,20,17,Woman,Right,
46,5,1,0.8177016999998159,['n'],0,left,['e'],1,0.25246940000033646,0.1,0,0,FastFast,20,17,Woman,Right,
47,5,1,0.6351329000008263,['n'],1,right,['e'],1,0.2030825999991066,0.1,1,0,FastFast,20,17,Woman,Right,
48,5,1,0.9501823999999033,['n'],0,left,['e'],1,0.3439720000005764,0.2,0,0,FastFast,20,17,Woman,Right,
49,5,1,0.9015153000000282,['n'],1,right,['e'],1,0.6723361000003933,0.2,1,0,FastFast,20,17,Woman,Right,
50,5,1,0.8513861000010365,['c'],0,right,['e'],1,0.5421121000017592,0.2,0,0,FastFast,20,17,Woman,Right,
51,5,1,1.1514879000005749,['n'],1,right,['u'],0,0.48495899999943504,0.4,0,0,FastFast,20,17,Woman,Right,
52,5,1,0.8179915000000619,['n'],1,right,['u'],0,0.3873786000003747,0.4,0,0,FastFast,20,17,Woman,Right,
53,5,1,1.2517571999997017,['c'],0,right,['u'],0,0.25208480000037525,0.1,1,0,FastFast,20,17,Woman,Right,
54,5,1,1.1662620999995852,['n'],0,left,['e'],1,0.4941757999986294,0.2,0,0,FastFast,20,17,Woman,Right,
55,5,1,1.0660767999997915,['n'],0,left,['u'],0,0.6514090999990003,0.2,1,0,FastFast,20,17,Woman,Right,
56,5,1,1.618575000000419,['n'],0,left,['u'],0,0.5219944999989821,0.4,1,0,FastFast,20,17,Woman,Right,
57,5,1,0.7342681999998604,['n'],1,right,['u'],0,0.2423330999990867,0.4,0,0,FastFast,20,17,Woman,Right,
58,5,1,1.1001694000005955,['c'],1,left,['u'],0,0.3354951000001165,0.1,0,0,FastFast,20,17,Woman,Right,
59,5,1,1.3170970999999554,['n'],1,right,['e'],1,1.0152179999986402,0.1,1,0,FastFast,20,17,Woman,Right,
0,6,1,3.416780800000197,['n'],0,left,['u'],0,0.4144049999995332,0.1,1,0,AccFast,20,17,Woman,Right,
1,6,1,0.9682193999997253,['c'],1,left,['u'],0,0.3058925999994244,0.4,0,0,AccFast,20,17,Woman,Right,
2,6,1,1.1177276999987953,['n'],1,right,['e'],1,0.7787184000007983,0.2,1,0,AccFast,20,17,Woman,Right,
3,6,1,1.351500999999189,['c'],0,right,['e'],1,0.5277373000008083,0.2,0,0,AccFast,20,17,Woman,Right,
4,6,1,0.767132799999672,['n'],1,right,['e'],1,0.2477270999988832,0.1,1,0,AccFast,20,17,Woman,Right,
5,6,1,0.7846274000003177,['c'],0,right,['e'],1,0.20748730000013893,0.1,0,0,AccFast,20,17,Woman,Right,
6,6,1,0.7015260000007402,['c'],1,left,['u'],0,0.3338292000007641,0.1,0,0,AccFast,20,17,Woman,Right,
7,6,1,0.70144640000035,['c'],1,left,['u'],0,0.4785898999998608,0.1,0,0,AccFast,20,17,Woman,Right,
8,6,1,1.1181496999997762,['c'],1,left,['u'],0,0.47384210000018356,0.1,0,0,AccFast,20,17,Woman,Right,
9,6,1,0.7169939999985218,['c'],1,left,['u'],0,0.2686487999999372,0.2,0,0,AccFast,20,17,Woman,Right,
10,6,1,0.7844010000007984,['c'],0,right,['u'],0,0.2762271999999939,0.1,1,0,AccFast,20,17,Woman,Right,
11,6,1,0.7519708999989234,['c'],1,left,['u'],0,0.20575450000069395,0.4,0,0,AccFast,20,17,Woman,Right,
12,6,1,0.5004360000002634,['c'],0,right,['u'],0,1.3884756000006746,0.4,1,0,AccFast,20,17,Woman,Right,
13,6,1,5.0000962000012805,x,-99,right,none,-99,-99,0.4,-99,1,AccFast,20,17,Woman,Right,
14,6,1,1.0839780999995128,['n'],1,right,['e'],1,0.49438929999996617,0.4,1,0,AccFast,20,17,Woman,Right,
15,6,1,0.7840321999992739,['n'],1,right,['e'],1,0.4628131999998004,0.2,1,0,AccFast,20,17,Woman,Right,
16,6,1,0.7180557000010594,['c'],1,left,['e'],1,0.264953300000343,0.1,1,0,AccFast,20,17,Woman,Right,
17,6,1,0.8514150999999401,['n'],0,left,['e'],1,0.2864986000004137,0.1,0,0,AccFast,20,17,Woman,Right,
18,6,1,0.6850365999998758,['n'],1,right,['e'],1,0.29001679999964836,0.2,1,0,AccFast,20,17,Woman,Right,
19,6,1,0.7859692000001814,['c'],1,left,['e'],1,0.6177093000005698,0.4,1,0,AccFast,20,17,Woman,Right,
20,6,1,0.5684404000003269,['c'],1,left,['e'],1,0.22059820000140462,0.4,1,0,AccFast,20,17,Woman,Right,
21,6,1,0.5840466999998171,['c'],1,left,['e'],1,0.21465720000014699,0.2,1,0,AccFast,20,17,Woman,Right,
22,6,1,1.75127109999994,['c'],1,left,['u'],0,0.28240269999878365,0.4,0,0,AccFast,20,17,Woman,Right,
23,6,1,0.8004768999999214,['c'],1,left,['u'],0,0.23428200000125798,0.4,0,0,AccFast,20,17,Woman,Right,
24,6,1,1.4178249999986292,['n'],0,left,['u'],0,0.3936933000004501,0.1,1,0,AccFast,20,17,Woman,Right,
25,6,1,0.5849931000011566,['c'],0,right,['u'],0,0.5252498999998352,0.1,1,0,AccFast,20,17,Woman,Right,
26,6,1,0.7684470000003785,['n'],1,right,['u'],0,0.45210749999932887,0.4,0,0,AccFast,20,17,Woman,Right,
27,6,1,0.8668323000001692,['c'],1,left,['e'],1,0.48970469999949273,0.2,1,0,AccFast,20,17,Woman,Right,
28,6,1,1.134690099999716,['n'],1,right,['u'],0,0.2914498000009189,0.2,0,0,AccFast,20,17,Woman,Right,
29,6,1,0.5847307000003639,['c'],1,left,['u'],0,0.3071281000011368,0.4,0,0,AccFast,20,17,Woman,Right,
30,6,1,1.3514572999993106,['c'],0,right,['e'],1,0.3792641000000003,0.1,0,0,AccFast,20,17,Woman,Right,
31,6,1,2.166734100001122,['n'],1,right,['u'],0,0.3357820000001084,0.1,0,0,AccFast,20,17,Woman,Right,
32,6,1,0.717178500000955,['c'],1,left,['u'],0,0.2958264999997482,0.1,0,0,AccFast,20,17,Woman,Right,
33,6,1,2.4349291999988054,['n'],1,right,['e'],1,0.36481949999870267,0.1,1,0,AccFast,20,17,Woman,Right,
34,6,1,0.8180128000003606,['c'],1,left,['e'],1,0.37600620000011986,0.2,1,0,AccFast,20,17,Woman,Right,
35,6,1,2.4175709999999526,['c'],0,right,['e'],1,0.5550081000001228,0.1,0,0,AccFast,20,17,Woman,Right,
36,6,1,3.000879699999132,['c'],1,left,['e'],1,0.4473518000013428,0.2,1,0,AccFast,20,17,Woman,Right,
37,6,1,1.616855400001441,['n'],1,right,['u'],0,0.5110532999988209,0.2,0,0,AccFast,20,17,Woman,Right,
38,6,1,1.8507068999988405,['c'],1,left,['e'],1,0.3073930999998993,0.2,1,0,AccFast,20,17,Woman,Right,
39,6,1,2.583294100000785,['c'],1,left,['e'],1,0.3709672999993927,0.2,1,0,AccFast,20,17,Woman,Right,
40,6,1,1.3506081000014092,['n'],0,left,['u'],0,0.432296300001326,0.4,1,0,AccFast,20,17,Woman,Right,
41,6,1,1.4835586000008334,['c'],0,right,['u'],0,0.39820030000009865,0.2,1,0,AccFast,20,17,Woman,Right,
42,6,1,0.9018242999991344,['n'],1,right,['u'],0,0.5320063999988633,0.2,0,0,AccFast,20,17,Woman,Right,
43,6,1,1.6675809999997,['c'],0,right,['u'],0,0.3106718999988516,0.1,1,0,AccFast,20,17,Woman,Right,
44,6,1,1.1182804000000033,['c'],0,right,['u'],0,0.35989619999963907,0.1,1,0,AccFast,20,17,Woman,Right,
45,6,1,1.5677553999994416,['c'],0,right,['u'],0,0.318498599999657,0.4,1,0,AccFast,20,17,Woman,Right,
46,6,1,0.8345793999997113,['n'],1,right,['u'],0,0.24199159999989206,0.4,0,0,AccFast,20,17,Woman,Right,
47,6,1,0.8348716999989847,['c'],1,left,['e'],1,0.361469000001307,0.4,1,0,AccFast,20,17,Woman,Right,
48,6,1,0.6847330000000511,['n'],0,left,['e'],1,0.28975890000037907,0.1,0,0,AccFast,20,17,Woman,Right,
49,6,1,1.3682681000009325,['n'],1,right,['e'],1,0.25049179999950866,0.2,1,0,AccFast,20,17,Woman,Right,
50,6,1,0.8014435999994021,['c'],1,left,['e'],1,0.3702515000004496,0.1,1,0,AccFast,20,17,Woman,Right,
51,6,1,0.8353549000003113,['n'],1,right,['e'],1,0.18849770000088029,0.4,1,0,AccFast,20,17,Woman,Right,
52,6,1,0.6180346999990434,['c'],1,left,['e'],1,0.20679030000064813,0.4,1,0,AccFast,20,17,Woman,Right,
53,6,1,0.7345439000000624,['c'],1,left,['e'],1,0.19554450000032375,0.4,1,0,AccFast,20,17,Woman,Right,
54,6,1,1.5511564000007638,['c'],1,left,['u'],0,0.24079519999941112,0.2,0,0,AccFast,20,17,Woman,Right,
55,6,1,0.917836200000238,['c'],0,right,['u'],0,0.14043950000086625,0.2,1,0,AccFast,20,17,Woman,Right,
56,6,1,1.5844976999997016,['c'],0,right,['u'],0,0.1457481999987067,0.2,1,0,AccFast,20,17,Woman,Right,
57,6,1,0.6833219999989524,['c'],0,right,['u'],0,0.21139030000085768,0.4,1,0,AccFast,20,17,Woman,Right,
58,6,1,1.1673163000014029,['c'],1,left,['u'],0,0.3185579000000871,0.2,0,0,AccFast,20,17,Woman,Right,
59,6,1,1.6678185000000667,['n'],1,right,['u'],0,0.369280400000207,0.4,0,0,AccFast,20,17,Woman,Right,
0,7,1,1.034660299999814,['c'],1,left,['e'],1,0.4569344999999885,0.4,1,0,AccAcc,20,17,Woman,Right,
1,7,1,0.8499297999987903,['n'],1,right,['e'],1,0.34384159999899566,0.4,1,0,AccAcc,20,17,Woman,Right,
2,7,1,0.8019602000003943,['c'],1,left,['e'],1,0.36394990000007965,0.2,1,0,AccAcc,20,17,Woman,Right,
3,7,1,0.6509270999995351,['n'],1,right,['e'],1,0.40547569999944244,0.4,1,0,AccAcc,20,17,Woman,Right,
4,7,1,1.1011561000013899,['c'],1,left,['u'],0,0.29182140000011714,0.1,0,0,AccAcc,20,17,Woman,Right,
5,7,1,0.7346639999996114,['n'],1,right,['u'],0,0.3334866000004695,0.2,0,0,AccAcc,20,17,Woman,Right,
6,7,1,0.7348481000008178,['c'],1,left,['u'],0,0.32513900000049034,0.4,0,0,AccAcc,20,17,Woman,Right,
7,7,1,1.6179634999989503,['n'],1,right,['e'],1,0.2018631999999343,0.2,1,0,AccAcc,20,17,Woman,Right,
8,7,1,1.2511950000007346,['c'],1,left,['u'],0,0.26616350000040256,0.1,0,0,AccAcc,20,17,Woman,Right,
9,7,1,0.8840273999994679,['c'],0,right,['e'],1,0.37436669999988226,0.1,0,0,AccAcc,20,17,Woman,Right,
10,7,1,0.7004943000010826,['n'],1,right,['e'],1,0.32599110000046494,0.2,1,0,AccAcc,20,17,Woman,Right,
11,7,1,0.8999500000008993,['n'],1,right,['u'],0,0.2715936000004149,0.4,0,0,AccAcc,20,17,Woman,Right,
12,7,1,0.749479700001757,['c'],1,left,['e'],1,0.3385774999987916,0.4,1,0,AccAcc,20,17,Woman,Right,
13,7,1,0.9346863999999186,['c'],1,left,['e'],1,0.616841499999282,0.2,1,0,AccAcc,20,17,Woman,Right,
14,7,1,1.3678622000006726,['c'],1,left,['e'],1,0.3077539000005345,0.4,1,0,AccAcc,20,17,Woman,Right,
15,7,1,0.968023200000971,['c'],1,left,['e'],1,0.34747689999858267,0.4,1,0,AccAcc,20,17,Woman,Right,
16,7,1,2.3515271999986,['c'],0,right,['e'],1,0.3217856000010215,0.2,0,0,AccAcc,20,17,Woman,Right,
17,7,1,1.5489001999994798,['n'],1,right,['u'],0,0.267004100000122,0.1,0,0,AccAcc,20,17,Woman,Right,
18,7,1,1.735599199999342,['c'],1,left,['u'],0,0.2518840000011551,0.1,0,0,AccAcc,20,17,Woman,Right,
19,7,1,0.9847747999992862,['c'],1,left,['u'],0,0.32538190000013856,0.2,0,0,AccAcc,20,17,Woman,Right,
20,7,1,0.8512305000003835,['n'],1,right,['e'],1,0.2723056999984692,0.2,1,0,AccAcc,20,17,Woman,Right,
21,7,1,1.3012031999987812,['c'],1,left,['u'],0,0.2447759999995469,0.1,0,0,AccAcc,20,17,Woman,Right,
22,7,1,0.8845025999999052,['c'],1,left,['u'],0,0.3615719999997964,0.2,0,0,AccAcc,20,17,Woman,Right,
23,7,1,1.0173895999996603,['c'],1,left,['u'],0,0.2932591999997385,0.1,0,0,AccAcc,20,17,Woman,Right,
24,7,1,0.9352672999993956,['n'],0,left,['u'],0,0.31079249999856984,0.4,1,0,AccAcc,20,17,Woman,Right,
25,7,1,0.634628599998905,['c'],1,left,['e'],1,0.25955989999965823,0.2,1,0,AccAcc,20,17,Woman,Right,
26,7,1,0.6673109999992448,['c'],1,left,['e'],1,0.2571140000000014,0.2,1,0,AccAcc,20,17,Woman,Right,
27,7,1,0.6682129000000714,['c'],0,right,['u'],0,0.5986156999988452,0.2,1,0,AccAcc,20,17,Woman,Right,
28,7,1,0.850410600000032,['c'],1,left,['e'],1,0.3350164000003133,0.4,1,0,AccAcc,20,17,Woman,Right,
29,7,1,0.8676998999999341,['c'],1,left,['e'],1,0.369131199999174,0.2,1,0,AccAcc,20,17,Woman,Right,
30,7,1,1.2183473000004597,['c'],0,right,['e'],1,0.3002139999989595,0.1,0,0,AccAcc,20,17,Woman,Right,
31,7,1,1.4667604999995092,['c'],0,right,['e'],1,0.29641350000019884,0.1,0,0,AccAcc,20,17,Woman,Right,
32,7,1,0.9678413000001456,['c'],0,right,['e'],1,0.335440999999264,0.1,0,0,AccAcc,20,17,Woman,Right,
33,7,1,1.1340761000010389,['c'],1,left,['e'],1,0.23232850000022154,0.2,1,0,AccAcc,20,17,Woman,Right,
34,7,1,1.184090799999467,['c'],0,right,['e'],1,0.24054620000060822,0.4,0,0,AccAcc,20,17,Woman,Right,
35,7,1,0.668086100000437,['c'],0,right,['e'],1,0.2869253999997454,0.1,0,0,AccAcc,20,17,Woman,Right,
36,7,1,2.9828520999999455,['c'],1,left,['e'],1,0.39904999999998836,0.1,1,0,AccAcc,20,17,Woman,Right,
37,7,1,0.8667021000001114,['c'],0,right,['e'],1,0.2944820000011532,0.4,0,0,AccAcc,20,17,Woman,Right,
38,7,1,1.0012501000001066,['c'],0,right,['e'],1,0.36520089999976335,0.1,0,0,AccAcc,20,17,Woman,Right,
39,7,1,1.0335273000000598,['c'],0,right,['e'],1,0.3355426999987685,0.1,0,0,AccAcc,20,17,Woman,Right,
40,7,1,0.7849581999998918,['c'],1,left,['e'],1,0.2929994000005536,0.2,1,0,AccAcc,20,17,Woman,Right,
41,7,1,0.8500240000012127,['c'],1,left,['e'],1,0.450786599998537,0.4,1,0,AccAcc,20,17,Woman,Right,
42,7,1,0.8346600999993825,['c'],1,left,['e'],1,0.34484770000017306,0.2,1,0,AccAcc,20,17,Woman,Right,
43,7,1,0.7344568999997136,['c'],1,left,['e'],1,0.40850489999866113,0.1,1,0,AccAcc,20,17,Woman,Right,
44,7,1,0.8846646999991208,['c'],1,left,['e'],1,0.3992286000011518,0.1,1,0,AccAcc,20,17,Woman,Right,
45,7,1,0.817752200000541,['c'],1,left,['e'],1,0.3930248999986361,0.4,1,0,AccAcc,20,17,Woman,Right,
46,7,1,0.7179568000010477,['c'],0,right,['e'],1,0.28712699999960023,0.2,0,0,AccAcc,20,17,Woman,Right,
47,7,1,0.7503799999994953,['c'],1,left,['e'],1,0.3682933999989473,0.1,1,0,AccAcc,20,17,Woman,Right,
48,7,1,0.7340466000005108,['c'],0,right,['e'],1,0.6302883999996993,0.4,0,0,AccAcc,20,17,Woman,Right,
49,7,1,0.651091699999597,['c'],0,right,['e'],1,0.3572963000005984,0.4,0,0,AccAcc,20,17,Woman,Right,
50,7,1,0.7675406999987899,['c'],0,right,['e'],1,0.35489070000039646,0.4,0,0,AccAcc,20,17,Woman,Right,
51,7,1,0.6500880000003235,['c'],0,right,['e'],1,0.3656387999999424,0.4,0,0,AccAcc,20,17,Woman,Right,
52,7,1,0.784692899998845,['c'],0,right,['e'],1,0.3853529999996681,0.1,0,0,AccAcc,20,17,Woman,Right,
53,7,1,0.45117240000035963,['c'],0,right,['e'],1,0.4111873000001651,0.1,0,0,AccAcc,20,17,Woman,Right,
54,7,1,0.5185790000014094,['c'],1,left,['e'],1,0.31982760000028065,0.4,1,0,AccAcc,20,17,Woman,Right,
55,7,1,0.634845900000073,['c'],0,right,['e'],1,0.2521371000002546,0.2,0,0,AccAcc,20,17,Woman,Right,
56,7,1,0.6168628999985231,['c'],0,right,['e'],1,0.3004201000003377,0.2,0,0,AccAcc,20,17,Woman,Right,
57,7,1,0.6340664000017568,['c'],0,right,['e'],1,0.3366445999999996,0.1,0,0,AccAcc,20,17,Woman,Right,
58,7,1,0.6012733999996271,['c'],0,right,['e'],1,0.36533389999931387,0.4,0,0,AccAcc,20,17,Woman,Right,
59,7,1,0.6182213000010961,['c'],1,left,['e'],1,0.26428069999928994,0.2,1,0,AccAcc,20,17,Woman,Right,
0,8,1,0.9846514000000752,['n'],1,right,['u'],0,1.0133724999996048,0.4,0,0,FastAcc,20,17,Woman,Right,
1,8,1,0.41798409999864816,['c'],1,left,['e'],1,0.47038070000053267,0.4,1,0,FastAcc,20,17,Woman,Right,
2,8,1,0.41688169999906677,['c'],1,left,['e'],1,1.157989199999065,0.4,1,0,FastAcc,20,17,Woman,Right,
3,8,1,0.7178035999986605,['c'],0,right,['u'],0,0.4130184999994526,0.4,1,0,FastAcc,20,17,Woman,Right,
4,8,1,0.5015548999999737,['c'],1,left,['e'],1,0.346198799999911,0.2,1,0,FastAcc,20,17,Woman,Right,
5,8,1,0.4519490999991831,['n'],0,left,['u'],0,0.3484599999992497,0.1,1,0,FastAcc,20,17,Woman,Right,
6,8,1,0.4515038999998069,['c'],1,left,['e'],1,0.2546727999997529,0.1,1,0,FastAcc,20,17,Woman,Right,
7,8,1,0.6349499999996624,['c'],0,right,['e'],1,0.189490199998545,0.2,0,0,FastAcc,20,17,Woman,Right,
8,8,1,0.5017975000009756,['c'],0,right,['e'],1,0.20468720000098983,0.1,0,0,FastAcc,20,17,Woman,Right,
9,8,1,0.5179609999995591,['n'],0,left,['e'],1,0.26612589999967895,0.1,0,0,FastAcc,20,17,Woman,Right,
10,8,1,0.6516998999995849,['c'],1,left,['e'],1,0.255517300000065,0.2,1,0,FastAcc,20,17,Woman,Right,
11,8,1,0.4512598999990587,['c'],1,left,['e'],1,0.23791780000101426,0.4,1,0,FastAcc,20,17,Woman,Right,
12,8,1,0.4182847000010952,['c'],1,left,['e'],1,0.40593470000021625,0.4,1,0,FastAcc,20,17,Woman,Right,
13,8,1,0.40115479999985837,['c'],0,right,['e'],1,0.44826970000030997,0.2,0,0,FastAcc,20,17,Woman,Right,
14,8,1,0.4012003999996523,['c'],1,left,['e'],1,0.20856560000174795,0.1,1,0,FastAcc,20,17,Woman,Right,
15,8,1,0.36737320000065665,['c'],1,left,['e'],1,0.22005870000066352,0.4,1,0,FastAcc,20,17,Woman,Right,
16,8,1,0.3841141000011703,['c'],0,right,['e'],1,0.17418060000090918,0.2,0,0,FastAcc,20,17,Woman,Right,
17,8,1,0.4332964000004722,['c'],0,right,['e'],1,0.2404982000007294,0.1,0,0,FastAcc,20,17,Woman,Right,
18,8,1,2.7997074000013527,['n'],1,right,['u'],0,0.3378975999985414,0.4,0,0,FastAcc,20,17,Woman,Right,
19,8,1,0.5516379999990022,['c'],1,left,['e'],1,0.2562694999996893,0.1,1,0,FastAcc,20,17,Woman,Right,
20,8,1,0.800068900000042,['n'],1,right,['e'],1,0.3534159000009822,0.2,1,0,FastAcc,20,17,Woman,Right,
21,8,1,0.9013226000006398,['n'],1,right,['u'],0,0.40891540000120585,0.2,0,0,FastAcc,20,17,Woman,Right,
22,8,1,0.5844077999990986,['c'],0,right,['e'],1,0.25963580000097863,0.2,0,0,FastAcc,20,17,Woman,Right,
23,8,1,0.5018627999997989,['c'],0,right,['u'],0,0.31194139999934123,0.2,1,0,FastAcc,20,17,Woman,Right,
24,8,1,0.551210000001447,['c'],1,left,['e'],1,0.20746800000051735,0.4,1,0,FastAcc,20,17,Woman,Right,
25,8,1,0.43403070000022126,['c'],1,left,['e'],1,0.3924427000001742,0.2,1,0,FastAcc,20,17,Woman,Right,
26,8,1,0.534350899999481,['c'],0,right,['e'],1,0.4780491000001348,0.2,0,0,FastAcc,20,17,Woman,Right,
27,8,1,0.4995742999999493,['c'],1,left,['e'],1,0.21778119999908085,0.2,1,0,FastAcc,20,17,Woman,Right,
28,8,1,0.4179760000006354,['c'],0,right,['e'],1,0.2583072999987053,0.2,0,0,FastAcc,20,17,Woman,Right,
29,8,1,0.48391970000011497,['c'],1,left,['e'],1,0.3196698000010656,0.1,1,0,FastAcc,20,17,Woman,Right,
30,8,1,0.43452439999964554,['c'],0,right,['e'],1,0.2916027999999642,0.1,0,0,FastAcc,20,17,Woman,Right,
31,8,1,0.4175577999994857,['c'],1,left,['e'],1,0.30564960000083374,0.1,1,0,FastAcc,20,17,Woman,Right,
32,8,1,0.4171839999999065,['c'],1,left,['e'],1,0.31122770000001765,0.4,1,0,FastAcc,20,17,Woman,Right,
33,8,1,0.4182066000012128,['c'],0,right,['e'],1,0.2688761000008526,0.2,0,0,FastAcc,20,17,Woman,Right,
34,8,1,0.43446250000124564,['c'],0,right,['e'],1,0.29096620000018447,0.2,0,0,FastAcc,20,17,Woman,Right,
35,8,1,0.4680515000000014,['c'],0,right,['e'],1,0.2872189999998227,0.1,0,0,FastAcc,20,17,Woman,Right,
36,8,1,0.517126199998529,['c'],0,right,['e'],1,0.29827599999953236,0.4,0,0,FastAcc,20,17,Woman,Right,
37,8,1,0.43408959999942454,['c'],0,right,['e'],1,0.30225529999916034,0.2,0,0,FastAcc,20,17,Woman,Right,
38,8,1,0.534450499999366,['c'],1,left,['e'],1,0.3751375999981974,0.4,1,0,FastAcc,20,17,Woman,Right,
39,8,1,0.6015504000006331,['c'],1,left,['e'],1,0.42679859999952896,0.4,1,0,FastAcc,20,17,Woman,Right,
40,8,1,0.46916199999941455,['c'],1,left,['e'],1,0.32967029999963415,0.4,1,0,FastAcc,20,17,Woman,Right,
41,8,1,0.35162990000026184,['c'],1,left,['e'],1,0.3453957999990962,0.1,1,0,FastAcc,20,17,Woman,Right,
42,8,1,0.46761979999973846,['c'],1,left,['e'],1,0.33898969999972905,0.4,1,0,FastAcc,20,17,Woman,Right,
43,8,1,1.4839829000011378,['n'],1,right,['u'],0,0.46838649999881454,0.1,0,0,FastAcc,20,17,Woman,Right,
44,8,1,0.6514594000000216,['c'],1,left,['u'],0,0.43395980000059353,0.1,0,0,FastAcc,20,17,Woman,Right,
45,8,1,0.6002091999998811,['c'],1,left,['e'],1,0.3708148000005167,0.4,1,0,FastAcc,20,17,Woman,Right,
46,8,1,1.467948299999989,['n'],1,right,['u'],0,0.275811600000452,0.1,0,0,FastAcc,20,17,Woman,Right,
47,8,1,0.5351135000000795,['c'],0,right,['u'],0,0.5024033000008785,0.2,1,0,FastAcc,20,17,Woman,Right,
48,8,1,0.8680591000011191,['n'],1,right,['u'],0,0.2736985999999888,0.1,0,0,FastAcc,20,17,Woman,Right,
49,8,1,0.5353652999983751,['c'],1,left,['u'],0,0.30007710000063526,0.1,0,0,FastAcc,20,17,Woman,Right,
50,8,1,1.118674599998485,['c'],0,right,['u'],0,0.25338750000082655,0.4,1,0,FastAcc,20,17,Woman,Right,
51,8,1,0.7179801999991469,['c'],0,right,['u'],0,0.2570365999999922,0.2,1,0,FastAcc,20,17,Woman,Right,
52,8,1,0.7504501999992499,['n'],0,left,['e'],1,0.8273328000013862,0.1,0,0,FastAcc,20,17,Woman,Right,
53,8,1,0.6348088000013377,['n'],1,right,['e'],1,0.29946770000060496,0.1,1,0,FastAcc,20,17,Woman,Right,
54,8,1,0.48476219999975,['n'],0,left,['e'],1,0.262600799998836,0.1,0,0,FastAcc,20,17,Woman,Right,
55,8,1,0.4506822999992437,['n'],1,right,['e'],1,0.23613990000012564,0.4,1,0,FastAcc,20,17,Woman,Right,
56,8,1,0.3670953000000736,['n'],1,right,['e'],1,0.19866299999921466,0.2,1,0,FastAcc,20,17,Woman,Right,
57,8,1,0.4511192999998457,['n'],1,right,['e'],1,0.3505092999985209,0.2,1,0,FastAcc,20,17,Woman,Right,
58,8,1,0.517832500001532,['n'],0,left,['e'],1,0.22214580000036221,0.4,0,0,FastAcc,20,17,Woman,Right,
59,8,1,0.3841204000000289,['n'],0,left,['e'],1,0.24020289999862143,0.4,0,0,FastAcc,20,17,Woman,Right,
0,9,1,1.584515200000169,['n'],0,left,['e'],1,0.5567981999993208,0.4,0,0,FastFast,20,17,Woman,Right,
1,9,1,0.44892000000072585,['c'],1,left,['e'],1,0.18424209999830055,0.1,1,0,FastFast,20,17,Woman,Right,
2,9,1,0.617866699998558,['n'],0,left,['e'],1,0.1934132000005775,0.1,0,0,FastFast,20,17,Woman,Right,
3,9,1,0.5172064999987924,['n'],1,right,['u'],0,0.34337109999978566,0.4,0,0,FastFast,20,17,Woman,Right,
4,9,1,0.5018978000007337,['n'],1,right,['e'],1,0.2560864999995829,0.1,1,0,FastFast,20,17,Woman,Right,
5,9,1,0.5167215000001306,['n'],1,right,['u'],0,0.24392770000122255,0.4,0,0,FastFast,20,17,Woman,Right,
6,9,1,0.601351600000271,['c'],1,left,['u'],0,0.21251699999993434,0.2,0,0,FastFast,20,17,Woman,Right,
7,9,1,0.4333256000008987,['c'],1,left,['e'],1,0.3175666999995883,0.4,1,0,FastFast,20,17,Woman,Right,
8,9,1,0.5009628000007069,['c'],0,right,['e'],1,0.21405390000109037,0.1,0,0,FastFast,20,17,Woman,Right,
9,9,1,0.6679023999986384,['n'],0,left,['u'],0,0.2533354999995936,0.1,1,0,FastFast,20,17,Woman,Right,
10,9,1,0.5850666000005731,['n'],1,right,['e'],1,0.19823410000026342,0.1,1,0,FastFast,20,17,Woman,Right,
11,9,1,0.5181002999997872,['n'],1,right,['e'],1,0.33163129999957164,0.1,1,0,FastFast,20,17,Woman,Right,
12,9,1,0.4832104999986768,['n'],1,right,['e'],1,0.19797770000150194,0.1,1,0,FastFast,20,17,Woman,Right,
13,9,1,0.43410359999870707,['c'],1,left,['e'],1,0.22224830000050133,0.4,1,0,FastFast,20,17,Woman,Right,
14,9,1,0.5835796000010305,['c'],1,left,['e'],1,0.18443229999866162,0.1,1,0,FastFast,20,17,Woman,Right,
15,9,1,0.5012839999999414,['n'],1,right,['e'],1,0.17517149999912363,0.1,1,0,FastFast,20,17,Woman,Right,
16,9,1,0.5166007999996509,['n'],0,left,['e'],1,0.12677699999949255,0.1,0,0,FastFast,20,17,Woman,Right,
17,9,1,0.467868499999895,['n'],0,left,['e'],1,0.14498079999975744,0.2,0,0,FastFast,20,17,Woman,Right,
18,9,1,0.48376270000153454,['c'],1,left,['u'],0,0.42627340000035474,0.4,0,0,FastFast,20,17,Woman,Right,
19,9,1,0.5196083000009821,['n'],1,right,['e'],1,0.19856170000093698,0.2,1,0,FastFast,20,17,Woman,Right,
20,9,1,0.4014188999990438,['c'],1,left,['e'],1,0.2649992000006023,0.2,1,0,FastFast,20,17,Woman,Right,
21,9,1,0.38442140000006475,['n'],1,right,['e'],1,0.16139670000120532,0.1,1,0,FastFast,20,17,Woman,Right,
22,9,1,0.9167495999990933,['c'],1,left,['u'],0,0.16061100000115403,0.2,0,0,FastFast,20,17,Woman,Right,
23,9,1,0.7834112000000459,['n'],1,right,['u'],0,0.19750030000068364,0.4,0,0,FastFast,20,17,Woman,Right,
24,9,1,0.4512152999996033,['c'],0,right,['e'],1,0.19777679999970132,0.1,0,0,FastFast,20,17,Woman,Right,
25,9,1,0.8346973000006983,['n'],1,right,['u'],0,0.16716359999918495,0.1,0,0,FastFast,20,17,Woman,Right,
26,9,1,0.5013085999999021,['c'],1,left,['u'],0,0.1831094999997731,0.2,0,0,FastFast,20,17,Woman,Right,
27,9,1,0.9675881000002846,['n'],0,left,['u'],0,0.15463090000048396,0.2,1,0,FastFast,20,17,Woman,Right,
28,9,1,0.6513102000008075,['n'],1,right,['u'],0,0.14167109999834793,0.4,0,0,FastFast,20,17,Woman,Right,
29,9,1,0.584723899999517,['n'],1,right,['u'],0,0.14659750000100757,0.1,0,0,FastFast,20,17,Woman,Right,
30,9,1,0.500982199999271,['c'],1,left,['e'],1,0.1623074999988603,0.2,1,0,FastFast,20,17,Woman,Right,
31,9,1,0.46821020000061253,['n'],1,right,['e'],1,0.14747210000132327,0.2,1,0,FastFast,20,17,Woman,Right,
32,9,1,0.43492780000087805,['n'],1,right,['e'],1,0.1262315000003582,0.1,1,0,FastFast,20,17,Woman,Right,
33,9,1,1.551293300000907,['c'],1,left,['u'],0,0.2618413000000146,0.2,0,0,FastFast,20,17,Woman,Right,
34,9,1,0.7677845999987767,['c'],1,left,['u'],0,0.11138070000015432,0.2,0,0,FastFast,20,17,Woman,Right,
35,9,1,0.7179102999998577,['c'],1,left,['e'],1,0.14361439999993308,0.2,1,0,FastFast,20,17,Woman,Right,
36,9,1,0.5677171999996062,['n'],1,right,['u'],0,0.1657734000000346,0.2,0,0,FastFast,20,17,Woman,Right,
37,9,1,0.5846451000015804,['c'],0,right,['u'],0,0.14595880000160832,0.2,1,0,FastFast,20,17,Woman,Right,
38,9,1,0.6005715000010241,['n'],1,right,['u'],0,0.13428559999920253,0.4,0,0,FastFast,20,17,Woman,Right,
39,9,1,0.6180890000014188,['n'],1,right,['u'],0,0.12246860000050219,0.4,0,0,FastFast,20,17,Woman,Right,
40,9,1,0.8179187000005186,['n'],1,right,['e'],1,0.1352243000001181,0.4,1,0,FastFast,20,17,Woman,Right,
41,9,1,2.1172690999992483,['n'],0,left,['e'],1,0.16005450000011479,0.4,0,0,FastFast,20,17,Woman,Right,
42,9,1,0.7007714999999735,['n'],1,right,['u'],0,0.16007769999851007,0.2,0,0,FastFast,20,17,Woman,Right,
43,9,1,0.7334728000005271,['n'],1,right,['e'],1,0.1354899000016303,0.4,1,0,FastFast,20,17,Woman,Right,
44,9,1,0.7846596999988833,['n'],1,right,['e'],1,0.13230850000036298,0.1,1,0,FastFast,20,17,Woman,Right,
45,9,1,2.1998935000010533,['c'],1,left,['e'],1,0.15412040000046545,0.4,1,0,FastFast,20,17,Woman,Right,
46,9,1,0.6180038999991666,['n'],0,left,['e'],1,0.14091390000066895,0.2,0,0,FastFast,20,17,Woman,Right,
47,9,1,0.8016840999989654,['c'],1,left,['u'],0,0.1461144000004424,0.4,0,0,FastFast,20,17,Woman,Right,
48,9,1,0.6007062000007863,['n'],1,right,['u'],0,0.1260733999988588,0.2,0,0,FastFast,20,17,Woman,Right,
49,9,1,0.6505207999998674,['c'],1,left,['e'],1,0.12990020000142977,0.1,1,0,FastFast,20,17,Woman,Right,
50,9,1,1.1349305999992794,['c'],0,right,['u'],0,0.40919899999971676,0.1,1,0,FastFast,20,17,Woman,Right,
51,9,1,0.5672295000003942,['n'],1,right,['e'],1,0.28476449999834585,0.2,1,0,FastFast,20,17,Woman,Right,
52,9,1,0.5179539999990084,['c'],1,left,['u'],0,0.1829754000009416,0.4,0,0,FastFast,20,17,Woman,Right,
53,9,1,0.551428599999781,['c'],0,right,['e'],1,0.14775100000042585,0.4,0,0,FastFast,20,17,Woman,Right,
54,9,1,0.6845570999994379,['c'],1,left,['e'],1,0.16515009999966423,0.2,1,0,FastFast,20,17,Woman,Right,
55,9,1,0.584210199998779,['c'],1,left,['e'],1,0.12926640000114276,0.4,1,0,FastFast,20,17,Woman,Right,
56,9,1,0.5170354999991105,['c'],1,left,['e'],1,0.1139171000013448,0.4,1,0,FastFast,20,17,Woman,Right,
57,9,1,1.2679107999992993,['n'],0,left,['e'],1,0.2602918000011414,0.4,0,0,FastFast,20,17,Woman,Right,
58,9,1,0.5163007999999536,['c'],1,left,['u'],0,0.4008643999986816,0.2,0,0,FastFast,20,17,Woman,Right,
59,9,1,1.433678499999587,['c'],0,right,['u'],0,0.29665860000022803,0.1,1,0,FastFast,20,17,Woman,Right,
0,10,1,1.6003129000000627,['n'],1,right,['e'],1,0.917706399999588,0.2,1,0,AccFast,20,17,Woman,Right,
1,10,1,0.6844072999992932,['c'],1,left,['e'],1,0.29589239999950223,0.1,1,0,AccFast,20,17,Woman,Right,
2,10,1,0.5342811999998958,['c'],1,left,['e'],1,0.2888134999993781,0.2,1,0,AccFast,20,17,Woman,Right,
3,10,1,0.651320000000851,['c'],0,right,['e'],1,0.3015599000009388,0.1,0,0,AccFast,20,17,Woman,Right,
4,10,1,0.533440299999711,['n'],1,right,['u'],0,0.2944526000010228,0.2,0,0,AccFast,20,17,Woman,Right,
5,10,1,1.0006256999986363,['c'],1,left,['u'],0,0.21373350000067148,0.1,0,0,AccFast,20,17,Woman,Right,
6,10,1,0.9177416000002268,['n'],1,right,['u'],0,0.23427780000019993,0.2,0,0,AccFast,20,17,Woman,Right,
7,10,1,0.5516695999995136,['c'],1,left,['u'],0,0.2622066999992967,0.4,0,0,AccFast,20,17,Woman,Right,
8,10,1,1.0682314000005135,['n'],1,right,['u'],0,0.17887750000045344,0.4,0,0,AccFast,20,17,Woman,Right,
9,10,1,1.2012279000009585,['n'],1,right,['e'],1,1.4058937999998307,0.4,1,0,AccFast,20,17,Woman,Right,
10,10,1,1.1681539000001067,['c'],1,left,['e'],1,0.2654891999991378,0.2,1,0,AccFast,20,17,Woman,Right,
11,10,1,1.1346364000000904,['n'],1,right,['e'],1,0.17181839999830117,0.4,1,0,AccFast,20,17,Woman,Right,
12,10,1,1.351287900000898,['c'],1,left,['e'],1,0.21734920000017155,0.4,1,0,AccFast,20,17,Woman,Right,
13,10,1,1.0342815000003611,['n'],0,left,['e'],1,0.1376858000003267,0.2,0,0,AccFast,20,17,Woman,Right,
14,10,1,1.1682767999991484,['n'],1,right,['e'],1,0.16001539999888337,0.1,1,0,AccFast,20,17,Woman,Right,
15,10,1,0.7675913000002765,['n'],1,right,['e'],1,0.23751280000033148,0.2,1,0,AccFast,20,17,Woman,Right,
16,10,1,1.3505563000016991,['c'],1,left,['u'],0,0.24058719999993627,0.1,0,0,AccFast,20,17,Woman,Right,
17,10,1,0.9851261999992857,['n'],1,right,['e'],1,0.1539163000015833,0.2,1,0,AccFast,20,17,Woman,Right,
18,10,1,0.8346917999988364,['c'],1,left,['u'],0,0.25288430000000517,0.2,0,0,AccFast,20,17,Woman,Right,
19,10,1,0.8846114999996644,['c'],1,left,['u'],0,0.18588780000027327,0.2,0,0,AccFast,20,17,Woman,Right,
20,10,1,1.5506669000005786,['n'],0,left,['u'],0,0.2627809999994497,0.1,1,0,AccFast,20,17,Woman,Right,
21,10,1,1.035029399999985,['n'],0,left,['u'],0,0.3009910000000673,0.1,1,0,AccFast,20,17,Woman,Right,
22,10,1,0.6331657999999152,['c'],1,left,['u'],0,0.21879919999992126,0.2,0,0,AccFast,20,17,Woman,Right,
23,10,1,1.1679681000005075,['n'],1,right,['u'],0,0.2209355000013602,0.2,0,0,AccFast,20,17,Woman,Right,
24,10,1,0.8180382999998983,['c'],0,right,['u'],0,0.38189520000014454,0.1,1,0,AccFast,20,17,Woman,Right,
25,10,1,0.8509032999991177,['n'],1,right,['u'],0,0.2627837999989424,0.1,0,0,AccFast,20,17,Woman,Right,
26,10,1,1.1671619999997347,['c'],1,left,['u'],0,0.2717004000005545,0.1,0,0,AccFast,20,17,Woman,Right,
27,10,1,0.6177809999990131,['c'],1,left,['e'],1,0.20661680000011984,0.4,1,0,AccFast,20,17,Woman,Right,
28,10,1,0.7349248999998963,['c'],0,right,['e'],1,0.4034890999992058,0.2,0,0,AccFast,20,17,Woman,Right,
29,10,1,0.6676618000001326,['c'],0,right,['e'],1,0.27531010000166134,0.1,0,0,AccFast,20,17,Woman,Right,
30,10,1,0.8841818000000785,['c'],0,right,['e'],1,0.25535579999996116,0.1,0,0,AccFast,20,17,Woman,Right,
31,10,1,0.5835257999988244,['c'],1,left,['e'],1,0.28818589999900723,0.1,1,0,AccFast,20,17,Woman,Right,
32,10,1,0.6686654000004637,['c'],0,right,['e'],1,0.3005149000000529,0.1,0,0,AccFast,20,17,Woman,Right,
33,10,1,0.7519025999990845,['c'],0,right,['e'],1,0.300667199999225,0.1,0,0,AccFast,20,17,Woman,Right,
34,10,1,0.4345181999997294,['c'],0,right,['e'],1,0.2978736000004574,0.4,0,0,AccFast,20,17,Woman,Right,
35,10,1,0.43445339999925636,['c'],1,left,['e'],1,0.3345227999998315,0.2,1,0,AccFast,20,17,Woman,Right,
36,10,1,0.5348329999997077,['c'],0,right,['e'],1,0.3261301000002277,0.4,0,0,AccFast,20,17,Woman,Right,
37,10,1,0.38347109999995155,['c'],1,left,['e'],1,0.2770338999998785,0.4,1,0,AccFast,20,17,Woman,Right,
38,10,1,0.36809679999896616,['c'],0,right,['e'],1,0.31752299999971,0.4,0,0,AccFast,20,17,Woman,Right,
39,10,1,0.3852344999995694,['c'],0,right,['e'],1,0.3071509999990667,0.2,0,0,AccFast,20,17,Woman,Right,
40,10,1,0.43330930000047374,['c'],0,right,['e'],1,0.28153179999935674,0.4,0,0,AccFast,20,17,Woman,Right,
41,10,1,0.566137499999968,['c'],1,left,['e'],1,0.4019141999997373,0.1,1,0,AccFast,20,17,Woman,Right,
42,10,1,0.3678207000011753,['c'],0,right,['e'],1,0.3078605000009702,0.2,0,0,AccFast,20,17,Woman,Right,
43,10,1,0.4508307000014611,['c'],1,left,['e'],1,0.2562383000004047,0.4,1,0,AccFast,20,17,Woman,Right,
44,10,1,0.4173792000001413,['c'],0,right,['e'],1,0.2877031000007264,0.1,0,0,AccFast,20,17,Woman,Right,
45,10,1,0.41773509999984526,['c'],0,right,['e'],1,0.3267748999987816,0.4,0,0,AccFast,20,17,Woman,Right,
46,10,1,0.46774290000030305,['c'],0,right,['e'],1,0.32080620000124327,0.1,0,0,AccFast,20,17,Woman,Right,
47,10,1,0.41687350000029255,['c'],0,right,['e'],1,0.3345088999994914,0.1,0,0,AccFast,20,17,Woman,Right,
48,10,1,0.41778009999870847,['c'],1,left,['e'],1,0.305896699999721,0.4,1,0,AccFast,20,17,Woman,Right,
49,10,1,0.45041390000005777,['c'],1,left,['e'],1,0.3670128999983717,0.4,1,0,AccFast,20,17,Woman,Right,
50,10,1,0.5826741000000766,['c'],1,left,['e'],1,0.30767030000060913,0.4,1,0,AccFast,20,17,Woman,Right,
51,10,1,0.7189444000014191,['c'],1,left,['e'],1,0.21194000000105007,0.2,1,0,AccFast,20,17,Woman,Right,
52,10,1,0.9846641000003729,['c'],0,right,['e'],1,0.2780757000000449,0.4,0,0,AccFast,20,17,Woman,Right,
53,10,1,0.35035510000125214,['c'],1,left,['e'],1,0.28833949999898323,0.2,1,0,AccFast,20,17,Woman,Right,
54,10,1,0.38456570000016654,['c'],1,left,['e'],1,0.2725960000007035,0.2,1,0,AccFast,20,17,Woman,Right,
55,10,1,0.4182481000007101,['c'],1,left,['e'],1,0.25405529999989085,0.2,1,0,AccFast,20,17,Woman,Right,
56,10,1,0.4516753999996581,['c'],1,left,['e'],1,0.3001898999991681,0.4,1,0,AccFast,20,17,Woman,Right,
57,10,1,0.5164819999990868,['c'],1,left,['e'],1,0.47073920000002545,0.4,1,0,AccFast,20,17,Woman,Right,
58,10,1,0.40095280000059574,['c'],1,left,['e'],1,0.3493980000002921,0.4,1,0,AccFast,20,17,Woman,Right,
59,10,1,0.46812039999895205,['c'],0,right,['e'],1,0.31101739999940037,0.1,0,0,AccFast,20,17,Woman,Right,
0,11,1,1.0996221999994304,['c'],1,left,['e'],1,0.24658029999955033,0.1,1,0,AccAcc,20,17,Woman,Right,
1,11,1,0.568117999999231,['c'],0,right,['e'],1,0.19847440000012284,0.2,0,0,AccAcc,20,17,Woman,Right,
2,11,1,0.5513415000004898,['c'],0,right,['e'],1,0.17863330000000133,0.1,0,0,AccAcc,20,17,Woman,Right,
3,11,1,0.5007793000004312,['c'],1,left,['e'],1,0.17763509999895177,0.1,1,0,AccAcc,20,17,Woman,Right,
4,11,1,0.5677449999984674,['c'],0,right,['e'],1,0.1984026999998605,0.1,0,0,AccAcc,20,17,Woman,Right,
5,11,1,0.6013461999991705,['c'],0,right,['e'],1,0.5206226999998762,0.1,0,0,AccAcc,20,17,Woman,Right,
6,11,1,0.5515329999998357,['c'],1,left,['e'],1,0.34563539999908244,0.4,1,0,AccAcc,20,17,Woman,Right,
7,11,1,0.6184135999992577,['c'],0,right,['e'],1,0.252596899999844,0.1,0,0,AccAcc,20,17,Woman,Right,
8,11,1,1.3513483999995515,['n'],0,left,['u'],0,0.21498130000145466,0.1,1,0,AccAcc,20,17,Woman,Right,
9,11,1,0.6342770000010205,['c'],1,left,['u'],0,0.23177829999985988,0.2,0,0,AccAcc,20,17,Woman,Right,
10,11,1,1.1504519000009168,['n'],1,right,['u'],0,0.21061720000034256,0.4,0,0,AccAcc,20,17,Woman,Right,
11,11,1,0.7011870999995153,['c'],0,right,['u'],0,0.1842261999991024,0.4,1,0,AccAcc,20,17,Woman,Right,
12,11,1,0.5345583999987866,['c'],0,right,['u'],0,0.22260289999940142,0.2,1,0,AccAcc,20,17,Woman,Right,
13,11,1,0.6347542999992584,['c'],0,right,['u'],0,0.19005149999975401,0.2,1,0,AccAcc,20,17,Woman,Right,
14,11,1,1.7002363999999943,['n'],1,right,['u'],0,0.2288528999997652,0.2,0,0,AccAcc,20,17,Woman,Right,
15,11,1,0.8522448000003351,['c'],1,left,['u'],0,0.20569389999945997,0.1,0,0,AccAcc,20,17,Woman,Right,
16,11,1,2.783460999999079,['c'],0,right,['u'],0,0.1752453000008245,0.2,1,0,AccAcc,20,17,Woman,Right,
17,11,1,1.416236500001105,['c'],1,left,['u'],0,0.4588547000003018,0.4,0,0,AccAcc,20,17,Woman,Right,
18,11,1,0.8681711999997788,['c'],1,left,['u'],0,0.3115514000000985,0.2,0,0,AccAcc,20,17,Woman,Right,
19,11,1,1.066180499999973,['n'],1,right,['u'],0,0.5798019000012573,0.1,0,0,AccAcc,20,17,Woman,Right,
20,11,1,0.6323260000008304,['c'],1,left,['u'],0,0.30955569999969157,0.4,0,0,AccAcc,20,17,Woman,Right,
21,11,1,1.6506128999990324,['n'],0,left,['u'],0,0.4727421999996295,0.1,1,0,AccAcc,20,17,Woman,Right,
22,11,1,1.284170199998698,['n'],1,right,['u'],0,0.5568751999999222,0.1,0,0,AccAcc,20,17,Woman,Right,
23,11,1,1.3183163000012428,['n'],1,right,['u'],0,0.3084134000000631,0.4,0,0,AccAcc,20,17,Woman,Right,
24,11,1,0.835120800000368,['n'],1,right,['u'],0,0.5054297000006045,0.4,0,0,AccAcc,20,17,Woman,Right,
25,11,1,1.1351181000009092,['n'],1,right,['u'],0,0.1941067000007024,0.2,0,0,AccAcc,20,17,Woman,Right,
26,11,1,2.4198085999996692,['n'],0,left,['e'],1,0.8125860000000102,0.2,0,0,AccAcc,20,17,Woman,Right,
27,11,1,1.0516381999987061,['n'],1,right,['e'],1,0.23624070000005304,0.1,1,0,AccAcc,20,17,Woman,Right,
28,11,1,0.9524479000010615,['n'],0,left,['e'],1,0.2552006000005349,0.1,0,0,AccAcc,20,17,Woman,Right,
29,11,1,0.9677482000006421,['n'],0,left,['e'],1,0.22475480000139214,0.1,0,0,AccAcc,20,17,Woman,Right,
30,11,1,0.7001530000015919,['n'],0,left,['e'],1,0.28780860000006214,0.1,0,0,AccAcc,20,17,Woman,Right,
31,11,1,0.6999605999990308,['n'],0,left,['e'],1,0.24953819999973348,0.2,0,0,AccAcc,20,17,Woman,Right,
32,11,1,0.7518249000004289,['n'],0,left,['e'],1,0.2673933999994915,0.4,0,0,AccAcc,20,17,Woman,Right,
33,11,1,0.8338785999985703,['n'],1,right,['e'],1,0.23371899999983725,0.4,1,0,AccAcc,20,17,Woman,Right,
34,11,1,0.9662617000012688,['n'],1,right,['e'],1,0.22934449999956996,0.1,1,0,AccAcc,20,17,Woman,Right,
35,11,1,0.8843556000010722,['n'],1,right,['e'],1,0.2506898999999976,0.1,1,0,AccAcc,20,17,Woman,Right,
36,11,1,0.7667172000001301,['n'],1,right,['e'],1,0.26843899999948917,0.2,1,0,AccAcc,20,17,Woman,Right,
37,11,1,0.968532500000947,['n'],0,left,['e'],1,0.19014360000073793,0.4,0,0,AccAcc,20,17,Woman,Right,
38,11,1,0.8012838000013289,['n'],0,left,['e'],1,0.19962680000026012,0.2,0,0,AccAcc,20,17,Woman,Right,
39,11,1,0.7497466000004351,['n'],0,left,['e'],1,0.19655349999993632,0.2,0,0,AccAcc,20,17,Woman,Right,
40,11,1,0.7003455999983998,['n'],1,right,['e'],1,0.21008119999896735,0.2,1,0,AccAcc,20,17,Woman,Right,
41,11,1,0.6172952999986592,['n'],0,left,['e'],1,0.17995329999939713,0.2,0,0,AccAcc,20,17,Woman,Right,
42,11,1,0.6512796000006347,['n'],1,right,['e'],1,0.18064349999986007,0.4,1,0,AccAcc,20,17,Woman,Right,
43,11,1,0.6998036999993928,['n'],0,left,['e'],1,0.15641250000044238,0.4,0,0,AccAcc,20,17,Woman,Right,
44,11,1,0.6327636000005441,['n'],1,right,['e'],1,0.17560369999955583,0.4,1,0,AccAcc,20,17,Woman,Right,
45,11,1,0.6162925000007817,['n'],0,left,['e'],1,0.18645920000017213,0.1,0,0,AccAcc,20,17,Woman,Right,
46,11,1,1.9332290000002104,['n'],0,left,['u'],0,0.21569720000115922,0.4,1,0,AccAcc,20,17,Woman,Right,
47,11,1,0.7345664000004035,['n'],0,left,['u'],0,0.19525220000105037,0.1,1,0,AccAcc,20,17,Woman,Right,
48,11,1,1.0192509000007703,['c'],1,left,['u'],0,0.18870269999933953,0.4,0,0,AccAcc,20,17,Woman,Right,
49,11,1,0.7010609999997541,['n'],1,right,['e'],1,0.31582609999895794,0.2,1,0,AccAcc,20,17,Woman,Right,
50,11,1,0.7848469000000478,['n'],0,left,['e'],1,0.24187480000000505,0.2,0,0,AccAcc,20,17,Woman,Right,
51,11,1,0.667476100001295,['n'],0,left,['e'],1,0.20008310000048368,0.4,0,0,AccAcc,20,17,Woman,Right,
52,11,1,1.4162847000006877,['n'],0,left,['e'],1,0.22675710000112304,0.4,0,0,AccAcc,20,17,Woman,Right,
53,11,1,0.732980700000553,['n'],0,left,['e'],1,0.1738943999989715,0.2,0,0,AccAcc,20,17,Woman,Right,
54,11,1,0.6003060000002733,['n'],1,right,['e'],1,0.1948594999994384,0.4,1,0,AccAcc,20,17,Woman,Right,
55,11,1,0.5165003999991313,['n'],1,right,['e'],1,0.29573770000024524,0.4,1,0,AccAcc,20,17,Woman,Right,
56,11,1,0.5838323999996646,['n'],1,right,['e'],1,0.2785930999998527,0.2,1,0,AccAcc,20,17,Woman,Right,
57,11,1,0.534691799999564,['n'],1,right,['e'],1,0.21626629999991565,0.2,1,0,AccAcc,20,17,Woman,Right,
58,11,1,1.183488099999522,['n'],0,left,['e'],1,0.2503827000000456,0.1,0,0,AccAcc,20,17,Woman,Right,
59,11,1,0.7006841000002169,['n'],1,right,['e'],1,0.28656709999995655,0.4,1,0,AccAcc,20,17,Woman,Right,
0,12,1,1.1014309000001958,['n'],0,left,['e'],1,0.37764599999900383,0.1,0,0,FastAcc,20,17,Woman,Right,
1,12,1,0.5175514999991719,['c'],1,left,['e'],1,1.1841856999999436,0.4,1,0,FastAcc,20,17,Woman,Right,
2,12,1,0.7342265999996016,['n'],0,left,['u'],0,0.22201999999924737,0.1,1,0,FastAcc,20,17,Woman,Right,
3,12,1,0.4999905000004219,['c'],0,right,['e'],1,0.26892380000026606,0.2,0,0,FastAcc,20,17,Woman,Right,
4,12,1,0.6177164999990055,['c'],1,left,['e'],1,0.43428940000012517,0.1,1,0,FastAcc,20,17,Woman,Right,
5,12,1,0.6013884999993024,['n'],1,right,['e'],1,0.23528369999985443,0.4,1,0,FastAcc,20,17,Woman,Right,
6,12,1,0.5508216000016546,['c'],1,left,['e'],1,0.21418070000072476,0.2,1,0,FastAcc,20,17,Woman,Right,
7,12,1,0.7994896999989578,['n'],1,right,['u'],0,0.208959200001118,0.2,0,0,FastAcc,20,17,Woman,Right,
8,12,1,0.634846999999354,['c'],1,left,['u'],0,0.22459969999908935,0.2,0,0,FastAcc,20,17,Woman,Right,
9,12,1,0.5345540999987861,['n'],1,right,['u'],0,0.2847641999996995,0.4,0,0,FastAcc,20,17,Woman,Right,
10,12,1,0.5835406000005605,['c'],0,right,['u'],0,0.2851967999995395,0.2,1,0,FastAcc,20,17,Woman,Right,
11,12,1,0.6832028999997419,['c'],0,right,['u'],0,0.18402860000060173,0.1,1,0,FastAcc,20,17,Woman,Right,
12,12,1,0.5847418999983347,['c'],0,right,['e'],1,0.25178629999936675,0.4,0,0,FastAcc,20,17,Woman,Right,
13,12,1,0.5166403000002902,['c'],0,right,['e'],1,0.23247540000011213,0.1,0,0,FastAcc,20,17,Woman,Right,
14,12,1,0.5833194999995612,['c'],1,left,['e'],1,0.24957849999918835,0.1,1,0,FastAcc,20,17,Woman,Right,
15,12,1,0.4676144999993994,['c'],1,left,['e'],1,0.30210470000019995,0.2,1,0,FastAcc,20,17,Woman,Right,
16,12,1,0.5338587000005646,['c'],0,right,['e'],1,0.2469998000015039,0.4,0,0,FastAcc,20,17,Woman,Right,
17,12,1,0.41755670000020473,['c'],1,left,['e'],1,0.25463850000051025,0.4,1,0,FastAcc,20,17,Woman,Right,
18,12,1,0.4342341999999917,['c'],0,right,['e'],1,0.2782140999988769,0.2,0,0,FastAcc,20,17,Woman,Right,
19,12,1,0.467890100000659,['c'],1,left,['e'],1,0.24244379999981902,0.4,1,0,FastAcc,20,17,Woman,Right,
20,12,1,0.5347947999998723,['c'],1,left,['e'],1,0.26190049999968323,0.1,1,0,FastAcc,20,17,Woman,Right,
21,12,1,0.4849205000009533,['c'],0,right,['e'],1,0.3064233000004606,0.2,0,0,FastAcc,20,17,Woman,Right,
22,12,1,0.5325264999992214,['c'],1,left,['e'],1,0.3323413000016444,0.4,1,0,FastAcc,20,17,Woman,Right,
23,12,1,0.6519086999996944,['c'],0,right,['e'],1,0.29476360000080604,0.2,0,0,FastAcc,20,17,Woman,Right,
24,12,1,0.45152020000023185,['c'],1,left,['e'],1,0.2587727999998606,0.1,1,0,FastAcc,20,17,Woman,Right,
25,12,1,0.4997309000009409,['c'],0,right,['e'],1,0.288474099999803,0.1,0,0,FastAcc,20,17,Woman,Right,
26,12,1,0.5674791000001278,['c'],0,right,['e'],1,0.27128819999961706,0.2,0,0,FastAcc,20,17,Woman,Right,
27,12,1,0.5017087999985961,['c'],1,left,['e'],1,0.32292819999929634,0.4,1,0,FastAcc,20,17,Woman,Right,
28,12,1,0.43373740000060934,['c'],1,left,['e'],1,0.3041408999997657,0.4,1,0,FastAcc,20,17,Woman,Right,
29,12,1,0.449102499998844,['c'],1,left,['e'],1,0.276600099999996,0.2,1,0,FastAcc,20,17,Woman,Right,
30,12,1,0.38481209999918065,['c'],1,left,['e'],1,0.2674029999998311,0.4,1,0,FastAcc,20,17,Woman,Right,
31,12,1,0.4687307999993209,['c'],1,left,['e'],1,0.24026930000036373,0.1,1,0,FastAcc,20,17,Woman,Right,
32,12,1,0.43433530000038445,['c'],1,left,['e'],1,0.23982400000022608,0.4,1,0,FastAcc,20,17,Woman,Right,
33,12,1,0.38373800000044866,['c'],0,right,['e'],1,0.2660697000010259,0.1,0,0,FastAcc,20,17,Woman,Right,
34,12,1,0.6015075999985129,['c'],1,left,['e'],1,0.21689019999939774,0.1,1,0,FastAcc,20,17,Woman,Right,
35,12,1,0.5681918999998743,['c'],0,right,['e'],1,0.26776260000042384,0.1,0,0,FastAcc,20,17,Woman,Right,
36,12,1,0.5179372999991756,['c'],1,left,['e'],1,0.23886099999981525,0.1,1,0,FastAcc,20,17,Woman,Right,
37,12,1,0.9998816999996052,['n'],1,right,['u'],0,0.39270439999927476,0.4,0,0,FastAcc,20,17,Woman,Right,
38,12,1,1.1522939999995288,['n'],1,right,['e'],1,0.22982330000013462,0.4,1,0,FastAcc,20,17,Woman,Right,
39,12,1,0.5850697999994736,['c'],0,right,['e'],1,0.22213360000023386,0.4,0,0,FastAcc,20,17,Woman,Right,
40,12,1,0.6680543999991642,['c'],0,right,['e'],1,0.28518739999890386,0.1,0,0,FastAcc,20,17,Woman,Right,
41,12,1,0.8831304000013915,['c'],1,left,['e'],1,0.24073420000058832,0.4,1,0,FastAcc,20,17,Woman,Right,
42,12,1,0.5010610000008455,['c'],1,left,['e'],1,0.26150269999925513,0.1,1,0,FastAcc,20,17,Woman,Right,
43,12,1,0.44948680000015884,['c'],0,right,['e'],1,0.3245212999991054,0.1,0,0,FastAcc,20,17,Woman,Right,
44,12,1,0.3685454000005848,['c'],1,left,['e'],1,0.27544879999913974,0.4,1,0,FastAcc,20,17,Woman,Right,
45,12,1,0.4339398000010988,['c'],0,right,['e'],1,0.36891060000016296,0.2,0,0,FastAcc,20,17,Woman,Right,
46,12,1,0.5005316000006133,['c'],0,right,['e'],1,0.2885322999991331,0.4,0,0,FastAcc,20,17,Woman,Right,
47,12,1,0.36782080000011774,['c'],1,left,['e'],1,0.27342459999999846,0.2,1,0,FastAcc,20,17,Woman,Right,
48,12,1,0.48352189999968687,['c'],0,right,['e'],1,0.21361900000010792,0.2,0,0,FastAcc,20,17,Woman,Right,
49,12,1,0.9505981999991491,['n'],0,left,['e'],1,0.16926829999829351,0.2,0,0,FastAcc,20,17,Woman,Right,
50,12,1,0.9007968000005349,['n'],1,right,['e'],1,0.27201270000114164,0.2,1,0,FastAcc,20,17,Woman,Right,
51,12,1,0.9514579999995476,['n'],1,right,['e'],1,0.2255113999999594,0.4,1,0,FastAcc,20,17,Woman,Right,
52,12,1,0.5515734000000521,['c'],0,right,['e'],1,0.22888479999892297,0.2,0,0,FastAcc,20,17,Woman,Right,
53,12,1,0.8841821000005439,['n'],0,left,['e'],1,0.23540779999893857,0.1,0,0,FastAcc,20,17,Woman,Right,
54,12,1,1.1351650999986305,['n'],0,left,['e'],1,0.2304430999993201,0.2,0,0,FastAcc,20,17,Woman,Right,
55,12,1,0.6166806000001088,['n'],1,right,['e'],1,0.24746110000160115,0.2,1,0,FastAcc,20,17,Woman,Right,
56,12,1,0.7496709999995801,['c'],1,left,['e'],1,0.21756050000112737,0.4,1,0,FastAcc,20,17,Woman,Right,
57,12,1,0.8680810999994719,['n'],1,right,['e'],1,0.23972109999886015,0.2,1,0,FastAcc,20,17,Woman,Right,
58,12,1,1.0340828000007605,['n'],0,left,['e'],1,0.14362989999972342,0.1,0,0,FastAcc,20,17,Woman,Right,
59,12,1,0.96736779999992,['n'],1,right,['e'],1,0.23801540000022214,0.1,1,0,FastAcc,20,17,Woman,Right,
0,13,1,1.0184783000004245,['n'],0,left,['e'],1,0.1486734999998589,0.2,0,0,FastFast,20,17,Woman,Right,
1,13,1,0.584694799999852,['c'],1,left,['e'],1,0.19329950000064855,0.4,1,0,FastFast,20,17,Woman,Right,
2,13,1,0.7341636999990442,['n'],0,left,['u'],0,0.11912239999946905,0.4,1,0,FastFast,20,17,Woman,Right,
3,13,1,0.451314400001138,['c'],1,left,['e'],1,0.15453879999950004,0.2,1,0,FastFast,20,17,Woman,Right,
4,13,1,1.3160798000008072,['n'],0,left,['u'],0,0.11476930000026186,0.2,1,0,FastFast,20,17,Woman,Right,
5,13,1,1.0341119000004255,['n'],1,right,['e'],1,0.1662255000010191,0.2,1,0,FastFast,20,17,Woman,Right,
6,13,1,1.2516627000004519,['n'],1,right,['e'],1,0.17595370000162802,0.1,1,0,FastFast,20,17,Woman,Right,
7,13,1,0.6843098999997892,['n'],0,left,['u'],0,0.12834789999942586,0.2,1,0,FastFast,20,17,Woman,Right,
8,13,1,0.5172977000001993,['c'],1,left,['u'],0,0.20891740000115533,0.4,0,0,FastFast,20,17,Woman,Right,
9,13,1,0.6177115999998932,['n'],0,left,['e'],1,0.1787263999995048,0.2,0,0,FastFast,20,17,Woman,Right,
10,13,1,0.7680756000008842,['n'],1,right,['e'],1,0.15094010000029812,0.1,1,0,FastFast,20,17,Woman,Right,
11,13,1,0.767336000000796,['n'],1,right,['e'],1,0.17223620000004303,0.4,1,0,FastFast,20,17,Woman,Right,
12,13,1,0.7842495999993844,['n'],0,left,['e'],1,0.18478130000039528,0.2,0,0,FastFast,20,17,Woman,Right,
13,13,1,0.6179725999991206,['n'],1,right,['e'],1,0.18680680000034044,0.4,1,0,FastFast,20,17,Woman,Right,
14,13,1,0.8180542999998579,['n'],1,right,['e'],1,0.11787559999902442,0.1,1,0,FastFast,20,17,Woman,Right,
15,13,1,0.7186042000012094,['n'],1,right,['e'],1,0.158310499999061,0.4,1,0,FastFast,20,17,Woman,Right,
16,13,1,0.617381000000023,['n'],1,right,['e'],1,0.13045830000010028,0.1,1,0,FastFast,20,17,Woman,Right,
17,13,1,0.7852505000009842,['n'],0,left,['e'],1,0.11107609999999113,0.2,0,0,FastFast,20,17,Woman,Right,
18,13,1,0.5500900000006368,['n'],1,right,['e'],1,0.13525380000100995,0.4,1,0,FastFast,20,17,Woman,Right,
19,13,1,0.4513967999992019,['n'],1,right,['e'],1,0.1554113000001962,0.1,1,0,FastFast,20,17,Woman,Right,
20,13,1,0.6847292000002199,['n'],0,left,['e'],1,0.14733300000079907,0.1,0,0,FastFast,20,17,Woman,Right,
21,13,1,0.5833350000011706,['n'],1,right,['e'],1,0.16781900000023597,0.2,1,0,FastFast,20,17,Woman,Right,
22,13,1,0.5513978999988467,['n'],1,right,['e'],1,0.15748270000040065,0.2,1,0,FastFast,20,17,Woman,Right,
23,13,1,0.7666340000014316,['n'],0,left,['e'],1,0.12344790000133798,0.2,0,0,FastFast,20,17,Woman,Right,
24,13,1,0.6348839000002044,['n'],0,left,['e'],1,0.21528009999929054,0.1,0,0,FastFast,20,17,Woman,Right,
25,13,1,0.48362989999986894,['n'],0,left,['e'],1,0.32558980000067095,0.2,0,0,FastFast,20,17,Woman,Right,
26,13,1,0.4511050000000978,['n'],0,left,['e'],1,0.16970489999948768,0.4,0,0,FastFast,20,17,Woman,Right,
27,13,1,0.4181275999999343,['n'],1,right,['e'],1,0.16429539999990084,0.1,1,0,FastFast,20,17,Woman,Right,
28,13,1,0.534779300000082,['n'],1,right,['e'],1,0.16203069999937725,0.1,1,0,FastFast,20,17,Woman,Right,
29,13,1,0.48425419999875885,['n'],1,right,['e'],1,0.2263793000001897,0.4,1,0,FastFast,20,17,Woman,Right,
30,13,1,0.6831300999983796,['n'],1,right,['e'],1,0.1692763000010018,0.1,1,0,FastFast,20,17,Woman,Right,
31,13,1,0.43349769999986165,['n'],1,right,['e'],1,0.16296429999965767,0.4,1,0,FastFast,20,17,Woman,Right,
32,13,1,0.5847890000004554,['n'],1,right,['e'],1,0.16772820000005595,0.1,1,0,FastFast,20,17,Woman,Right,
33,13,1,0.5677931999998691,['n'],1,right,['e'],1,0.1317479999997886,0.2,1,0,FastFast,20,17,Woman,Right,
34,13,1,0.5338928000001033,['n'],0,left,['e'],1,0.14806860000135202,0.2,0,0,FastFast,20,17,Woman,Right,
35,13,1,0.5343849999990198,['n'],0,left,['e'],1,0.16294659999948635,0.2,0,0,FastFast,20,17,Woman,Right,
36,13,1,0.5506136000003607,['n'],0,left,['e'],1,0.176520500001061,0.1,0,0,FastFast,20,17,Woman,Right,
37,13,1,0.5177578000002541,['n'],0,left,['e'],1,0.1584755000003497,0.1,0,0,FastFast,20,17,Woman,Right,
38,13,1,0.6013631999994686,['n'],0,left,['e'],1,0.1866861999988032,0.2,0,0,FastFast,20,17,Woman,Right,
39,13,1,0.4337094000002253,['n'],0,left,['e'],1,0.15709939999942435,0.4,0,0,FastFast,20,17,Woman,Right,
40,13,1,0.5191994999986491,['n'],0,left,['e'],1,0.17985609999959706,0.1,0,0,FastFast,20,17,Woman,Right,
41,13,1,0.584063000000242,['n'],1,right,['e'],1,0.16756179999902088,0.2,1,0,FastFast,20,17,Woman,Right,
42,13,1,0.6179681000012351,['n'],0,left,['e'],1,0.28234510000038426,0.2,0,0,FastFast,20,17,Woman,Right,
43,13,1,0.6506723000002239,['n'],0,left,['e'],1,0.2717103999984829,0.4,0,0,FastFast,20,17,Woman,Right,
44,13,1,0.45131530000071507,['n'],0,left,['e'],1,0.2768397999989247,0.4,0,0,FastFast,20,17,Woman,Right,
45,13,1,0.5015936999989208,['n'],0,left,['e'],1,0.22510239999974146,0.2,0,0,FastFast,20,17,Woman,Right,
46,13,1,0.583249600000272,['n'],1,right,['e'],1,0.2754174999990937,0.4,1,0,FastFast,20,17,Woman,Right,
47,13,1,0.40136030000030587,['n'],1,right,['e'],1,0.2980411999997159,0.1,1,0,FastFast,20,17,Woman,Right,
48,13,1,0.3179933000010351,['n'],1,right,['e'],1,0.31564129999969737,0.2,1,0,FastFast,20,17,Woman,Right,
49,13,1,0.4010039999993751,['n'],0,left,['e'],1,0.3212538999996468,0.1,0,0,FastFast,20,17,Woman,Right,
50,13,1,0.4016630999994959,['n'],1,right,['e'],1,0.2868703000003734,0.1,1,0,FastFast,20,17,Woman,Right,
51,13,1,0.5501420000000508,['n'],1,right,['e'],1,0.33572519999870565,0.1,1,0,FastFast,20,17,Woman,Right,
52,13,1,0.38486789999842586,['n'],0,left,['e'],1,0.28515449999940756,0.4,0,0,FastFast,20,17,Woman,Right,
53,13,1,0.5182229000001826,['n'],1,right,['e'],1,0.22329180000087945,0.1,1,0,FastFast,20,17,Woman,Right,
54,13,1,2.4664725000002363,['c'],1,left,['u'],0,0.2233669999986887,0.4,0,0,FastFast,20,17,Woman,Right,
55,13,1,0.6010119000002305,['n'],1,right,['u'],0,0.19996919999903184,0.1,0,0,FastFast,20,17,Woman,Right,
56,13,1,0.5343284999999014,['n'],1,right,['u'],0,0.18918200000007346,0.4,0,0,FastFast,20,17,Woman,Right,
57,13,1,0.7671217000006436,['n'],1,right,['e'],1,0.21781840000039665,0.4,1,0,FastFast,20,17,Woman,Right,
58,13,1,0.6181290000004083,['n'],1,right,['e'],1,0.23390519999884418,0.4,1,0,FastFast,20,17,Woman,Right,
59,13,1,1.5165281999998115,['c'],1,left,['e'],1,0.2949257000000216,0.4,1,0,FastFast,20,17,Woman,Right,
0,14,1,1.1504752000000735,['c'],1,left,['e'],1,0.13812599999982922,0.4,1,0,AccFast,20,17,Woman,Right,
1,14,1,0.4500458999991679,['c'],1,left,['e'],1,0.14165329999923415,0.4,1,0,AccFast,20,17,Woman,Right,
2,14,1,0.4510902999991231,['c'],1,left,['e'],1,0.1520885999998427,0.4,1,0,AccFast,20,17,Woman,Right,
3,14,1,0.5010975999994116,['n'],1,right,['e'],1,0.15968430000066292,0.2,1,0,AccFast,20,17,Woman,Right,
4,14,1,0.48476950000076613,['n'],1,right,['e'],1,0.16057960000034655,0.4,1,0,AccFast,20,17,Woman,Right,
5,14,1,1.134225100000549,['n'],1,right,['u'],0,0.688848899999357,0.4,0,0,AccFast,20,17,Woman,Right,
6,14,1,0.6680734000001394,['c'],1,left,['e'],1,0.25169610000011744,0.1,1,0,AccFast,20,17,Woman,Right,
7,14,1,0.4678851999997278,['c'],1,left,['e'],1,0.14548930000091786,0.1,1,0,AccFast,20,17,Woman,Right,
8,14,1,0.8507931000003737,['n'],1,right,['u'],0,0.20414549999986775,0.2,0,0,AccFast,20,17,Woman,Right,
9,14,1,0.4179102999987663,['c'],1,left,['e'],1,0.1489688000001479,0.1,1,0,AccFast,20,17,Woman,Right,
10,14,1,0.5167495000005147,['c'],0,right,['u'],0,0.24541529999987688,0.2,1,0,AccFast,20,17,Woman,Right,
11,14,1,0.4507120999987819,['c'],0,right,['u'],0,0.1807024999998248,0.2,1,0,AccFast,20,17,Woman,Right,
12,14,1,1.1852149999995163,['c'],1,left,['u'],0,0.2551752999988821,0.1,0,0,AccFast,20,17,Woman,Right,
13,14,1,0.8175797999992938,['c'],1,left,['u'],0,0.24663780000082625,0.2,0,0,AccFast,20,17,Woman,Right,
14,14,1,1.0499922999988485,['c'],1,left,['u'],0,0.13373550000142131,0.2,0,0,AccFast,20,17,Woman,Right,
15,14,1,1.4492436000000453,['c'],1,left,['e'],1,0.22530359999836946,0.2,1,0,AccFast,20,17,Woman,Right,
16,14,1,0.7848571999984415,['c'],1,left,['e'],1,0.1782839999996213,0.1,1,0,AccFast,20,17,Woman,Right,
17,14,1,0.9500889999999345,['n'],1,right,['e'],1,0.24845839999943564,0.2,1,0,AccFast,20,17,Woman,Right,
18,14,1,1.0165342000000237,['n'],0,left,['e'],1,0.1527060000007623,0.1,0,0,AccFast,20,17,Woman,Right,
19,14,1,0.6358030999999755,['n'],1,right,['e'],1,0.09892700000091281,0.2,1,0,AccFast,20,17,Woman,Right,
20,14,1,0.6007271999988006,['c'],1,left,['e'],1,0.12950389999969047,0.4,1,0,AccFast,20,17,Woman,Right,
21,14,1,0.6833828999988327,['n'],1,right,['e'],1,0.1461369000007835,0.2,1,0,AccFast,20,17,Woman,Right,
22,14,1,0.5166783000004216,['n'],1,right,['e'],1,0.34613770000032673,0.2,1,0,AccFast,20,17,Woman,Right,
23,14,1,0.5334206000006816,['n'],1,right,['e'],1,0.3125746000005165,0.2,1,0,AccFast,20,17,Woman,Right,
24,14,1,0.4348234999997658,['n'],1,right,['e'],1,0.18050510000102804,0.4,1,0,AccFast,20,17,Woman,Right,
25,14,1,0.7346992000002501,['c'],0,right,['u'],0,0.19410340000104043,0.2,1,0,AccFast,20,17,Woman,Right,
26,14,1,0.984519999999975,['n'],0,left,['u'],0,0.501713199999358,0.4,1,0,AccFast,20,17,Woman,Right,
27,14,1,0.934218399999736,['n'],0,left,['u'],0,0.11108700000113458,0.4,1,0,AccFast,20,17,Woman,Right,
28,14,1,0.5999998000006599,['n'],1,right,['e'],1,0.18189709999933257,0.1,1,0,AccFast,20,17,Woman,Right,
29,14,1,0.7840299999988929,['n'],1,right,['e'],1,0.17636899999888556,0.2,1,0,AccFast,20,17,Woman,Right,
30,14,1,0.5999286000005668,['n'],1,right,['e'],1,0.268824400000085,0.4,1,0,AccFast,20,17,Woman,Right,
31,14,1,0.8676341000009415,['n'],0,left,['e'],1,0.16888959999960207,0.4,0,0,AccFast,20,17,Woman,Right,
32,14,1,0.5683026999995491,['n'],0,left,['e'],1,0.2391310999992129,0.1,0,0,AccFast,20,17,Woman,Right,
33,14,1,0.41837280000072496,['n'],1,right,['e'],1,0.206736500000261,0.1,1,0,AccFast,20,17,Woman,Right,
34,14,1,0.48334819999945466,['n'],1,right,['e'],1,0.1895977000003768,0.1,1,0,AccFast,20,17,Woman,Right,
35,14,1,0.46841139999924053,['n'],0,left,['e'],1,0.1889723000003869,0.1,0,0,AccFast,20,17,Woman,Right,
36,14,1,0.4846913000001223,['n'],0,left,['e'],1,0.2126905999994051,0.1,0,0,AccFast,20,17,Woman,Right,
37,14,1,0.40127770000071905,['n'],1,right,['e'],1,0.22230339999987336,0.1,1,0,AccFast,20,17,Woman,Right,
38,14,1,0.3834564999997383,['n'],0,left,['e'],1,0.22445659999903,0.4,0,0,AccFast,20,17,Woman,Right,
39,14,1,0.43383629999880213,['n'],1,right,['e'],1,0.2568788999997196,0.4,1,0,AccFast,20,17,Woman,Right,
40,14,1,0.31788220000089495,['n'],0,left,['e'],1,0.36401049999949464,0.1,0,0,AccFast,20,17,Woman,Right,
41,14,1,0.6681972999995196,['n'],0,left,['e'],1,0.18109199999889825,0.4,0,0,AccFast,20,17,Woman,Right,
42,14,1,0.44993690000046627,['n'],0,left,['e'],1,0.22268609999991895,0.4,0,0,AccFast,20,17,Woman,Right,
43,14,1,0.4009229999992385,['n'],0,left,['e'],1,0.19933879999916826,0.4,0,0,AccFast,20,17,Woman,Right,
44,14,1,0.350726399999985,['n'],1,right,['e'],1,0.2438851999995677,0.4,1,0,AccFast,20,17,Woman,Right,
45,14,1,0.38512140000057116,['n'],0,left,['e'],1,0.2852763999999297,0.1,0,0,AccFast,20,17,Woman,Right,
46,14,1,0.43482379999841214,['n'],1,right,['e'],1,0.2587075999999797,0.2,1,0,AccFast,20,17,Woman,Right,
47,14,1,0.43503380000038305,['n'],1,right,['e'],1,0.2976922999987437,0.1,1,0,AccFast,20,17,Woman,Right,
48,14,1,0.3171470000015688,['n'],0,left,['e'],1,0.3555847999996331,0.2,0,0,AccFast,20,17,Woman,Right,
49,14,1,0.40135879999979807,['n'],1,right,['e'],1,0.2802984000009019,0.2,1,0,AccFast,20,17,Woman,Right,
50,14,1,0.31669309999961115,['n'],1,right,['e'],1,0.3141906000000745,0.1,1,0,AccFast,20,17,Woman,Right,
51,14,1,0.2837901000002603,['n'],1,right,['e'],1,0.22002950000023702,0.2,1,0,AccFast,20,17,Woman,Right,
52,14,1,0.28338499999881606,['n'],0,left,['e'],1,0.2185763000015868,0.4,0,0,AccFast,20,17,Woman,Right,
53,14,1,0.3684425999999803,['n'],0,left,['e'],1,0.19679879999966943,0.1,0,0,AccFast,20,17,Woman,Right,
54,14,1,0.4501135999998951,['n'],1,right,['e'],1,0.19733269999960612,0.2,1,0,AccFast,20,17,Woman,Right,
55,14,1,0.3186989000005269,['n'],0,left,['e'],1,0.2025893999998516,0.2,0,0,AccFast,20,17,Woman,Right,
56,14,1,0.366820799999914,['n'],1,right,['e'],1,0.2467916999994486,0.1,1,0,AccFast,20,17,Woman,Right,
57,14,1,0.38578810000035446,['n'],1,right,['e'],1,0.2069826999995712,0.4,1,0,AccFast,20,17,Woman,Right,
58,14,1,0.500151399999595,['n'],0,left,['e'],1,0.21330350000062026,0.4,0,0,AccFast,20,17,Woman,Right,
59,14,1,0.4503385999996681,['n'],1,right,['e'],1,0.25358979999873554,0.1,1,0,AccFast,20,17,Woman,Right,
0,15,1,0.9679678000011336,['c'],1,left,['e'],1,0.333031199999823,0.4,1,0,AccAcc,20,17,Woman,Right,
1,15,1,0.6323307000002387,['n'],1,right,['e'],1,0.3133336999999301,0.1,1,0,AccAcc,20,17,Woman,Right,
2,15,1,0.6842794000003778,['c'],1,left,['e'],1,0.274719200000618,0.4,1,0,AccAcc,20,17,Woman,Right,
3,15,1,1.1000012999993487,['n'],0,left,['u'],0,0.271555499999522,0.1,1,0,AccAcc,20,17,Woman,Right,
4,15,1,0.8844860999997763,['c'],0,right,['u'],0,0.5785704000008991,0.2,1,0,AccAcc,20,17,Woman,Right,
5,15,1,0.6344988999990164,['c'],1,left,['u'],0,0.23684230000071693,0.2,0,0,AccAcc,20,17,Woman,Right,
6,15,1,0.8160188000001654,['c'],1,left,['e'],1,0.5017533999998705,0.2,1,0,AccAcc,20,17,Woman,Right,
7,15,1,0.6175569999995787,['c'],1,left,['e'],1,0.25054850000014994,0.1,1,0,AccAcc,20,17,Woman,Right,
8,15,1,0.45164440000007744,['c'],1,left,['e'],1,0.23203819999980624,0.4,1,0,AccAcc,20,17,Woman,Right,
9,15,1,0.5347865999992791,['c'],1,left,['e'],1,0.2526179000014963,0.1,1,0,AccAcc,20,17,Woman,Right,
10,15,1,0.46773790000042936,['c'],1,left,['e'],1,0.23401620000004186,0.4,1,0,AccAcc,20,17,Woman,Right,
11,15,1,0.5503039999985049,['c'],0,right,['e'],1,0.24501609999970242,0.4,0,0,AccAcc,20,17,Woman,Right,
12,15,1,0.3679734000015742,['c'],0,right,['e'],1,0.3022352999996656,0.2,0,0,AccAcc,20,17,Woman,Right,
13,15,1,0.5010401999988972,['c'],1,left,['e'],1,0.24862580000080925,0.2,1,0,AccAcc,20,17,Woman,Right,
14,15,1,0.6174511999997776,['n'],1,right,['e'],1,0.20854320000034932,0.2,1,0,AccAcc,20,17,Woman,Right,
15,15,1,0.5499218000004475,['n'],1,right,['e'],1,0.27709350000077393,0.1,1,0,AccAcc,20,17,Woman,Right,
16,15,1,0.5846820000006119,['n'],1,right,['e'],1,0.22848010000052454,0.2,1,0,AccAcc,20,17,Woman,Right,
17,15,1,0.6014316999990115,['n'],0,left,['e'],1,0.2939175999999861,0.4,0,0,AccAcc,20,17,Woman,Right,
18,15,1,0.5494742999999289,['n'],1,right,['e'],1,0.3191170999998576,0.4,1,0,AccAcc,20,17,Woman,Right,
19,15,1,0.5166361999999936,['n'],1,right,['e'],1,0.3119385999998485,0.2,1,0,AccAcc,20,17,Woman,Right,
20,15,1,0.6517414999998437,['n'],1,right,['e'],1,0.3073827000007441,0.4,1,0,AccAcc,20,17,Woman,Right,
21,15,1,0.45056280000062543,['n'],1,right,['e'],1,0.26369900000099733,0.2,1,0,AccAcc,20,17,Woman,Right,
22,15,1,0.5344204999983049,['n'],0,left,['e'],1,0.2581505999987712,0.4,0,0,AccAcc,20,17,Woman,Right,
23,15,1,0.46737039999970875,['n'],1,right,['e'],1,0.28748170000108075,0.1,1,0,AccAcc,20,17,Woman,Right,
24,15,1,0.48348750000150176,['n'],0,left,['e'],1,0.2517853000008472,0.4,0,0,AccAcc,20,17,Woman,Right,
25,15,1,0.5174308999994537,['n'],1,right,['e'],1,0.24649420000059763,0.4,1,0,AccAcc,20,17,Woman,Right,
26,15,1,0.48498929999914253,['n'],0,left,['e'],1,0.2753118999989965,0.1,0,0,AccAcc,20,17,Woman,Right,
27,15,1,0.3335196999996697,['n'],0,left,['e'],1,0.27042980000078387,0.2,0,0,AccAcc,20,17,Woman,Right,
28,15,1,0.5014403000004677,['n'],1,right,['e'],1,0.2490562000002683,0.2,1,0,AccAcc,20,17,Woman,Right,
29,15,1,0.4675484999988839,['n'],0,left,['e'],1,0.24689930000022287,0.2,0,0,AccAcc,20,17,Woman,Right,
30,15,1,0.3671758000000409,['n'],1,right,['e'],1,0.23340149999967252,0.2,1,0,AccAcc,20,17,Woman,Right,
31,15,1,0.9187688999991224,['n'],1,right,['e'],1,0.22852810000040336,0.1,1,0,AccAcc,20,17,Woman,Right,
32,15,1,0.6181809000008798,['n'],1,right,['e'],1,0.2445568999992247,0.2,1,0,AccAcc,20,17,Woman,Right,
33,15,1,0.46738189999996393,['n'],1,right,['e'],1,0.2516258999985439,0.2,1,0,AccAcc,20,17,Woman,Right,
34,15,1,0.49959359999957087,['n'],1,right,['e'],1,0.23191769999903045,0.1,1,0,AccAcc,20,17,Woman,Right,
35,15,1,1.452299900000071,['c'],1,left,['e'],1,0.21418799999992189,0.4,1,0,AccAcc,20,17,Woman,Right,
36,15,1,0.61795549999988,['c'],1,left,['e'],1,0.21496950000073412,0.2,1,0,AccAcc,20,17,Woman,Right,
37,15,1,0.8014445000007981,['n'],1,right,['e'],1,0.2647860999986733,0.1,1,0,AccAcc,20,17,Woman,Right,
38,15,1,0.5829436000003625,['n'],1,right,['e'],1,0.2491515999990952,0.4,1,0,AccAcc,20,17,Woman,Right,
39,15,1,0.5015924999988783,['n'],0,left,['e'],1,0.2610037000013108,0.1,0,0,AccAcc,20,17,Woman,Right,
40,15,1,0.4347171999997954,['n'],1,right,['e'],1,0.23639559999901394,0.4,1,0,AccAcc,20,17,Woman,Right,
41,15,1,0.4837050999994972,['n'],0,left,['e'],1,0.2014422000011109,0.1,0,0,AccAcc,20,17,Woman,Right,
42,15,1,0.41780719999951543,['n'],1,right,['e'],1,0.23523719999866444,0.1,1,0,AccAcc,20,17,Woman,Right,
43,15,1,0.5342414000006102,['n'],1,right,['e'],1,0.2146169000006921,0.4,1,0,AccAcc,20,17,Woman,Right,
44,15,1,0.9516230999997788,['n'],0,left,['e'],1,0.24992119999842544,0.2,0,0,AccAcc,20,17,Woman,Right,
45,15,1,1.4014385999998922,['c'],1,left,['e'],1,0.17052090000106546,0.2,1,0,AccAcc,20,17,Woman,Right,
46,15,1,1.3847214999987045,['n'],0,left,['e'],1,0.23853759999838076,0.1,0,0,AccAcc,20,17,Woman,Right,
47,15,1,0.9014618000001065,['c'],0,right,['e'],1,0.5956618000000162,0.2,0,0,AccAcc,20,17,Woman,Right,
48,15,1,0.7351992999992945,['c'],1,left,['e'],1,0.273839899999075,0.1,1,0,AccAcc,20,17,Woman,Right,
49,15,1,0.583889999999883,['c'],1,left,['e'],1,0.21675619999950868,0.1,1,0,AccAcc,20,17,Woman,Right,
50,15,1,0.6344995999988896,['c'],1,left,['e'],1,0.5128921000014088,0.1,1,0,AccAcc,20,17,Woman,Right,
51,15,1,0.40103999999882944,['c'],0,right,['e'],1,0.255613600000288,0.1,0,0,AccAcc,20,17,Woman,Right,
52,15,1,0.4834672999986651,['c'],0,right,['e'],1,0.23537860000033106,0.1,0,0,AccAcc,20,17,Woman,Right,
53,15,1,0.4675647999993089,['c'],1,left,['e'],1,0.2097085999994306,0.4,1,0,AccAcc,20,17,Woman,Right,
54,15,1,0.4999811999987287,['c'],0,right,['e'],1,0.22389649999968242,0.4,0,0,AccAcc,20,17,Woman,Right,
55,15,1,0.8515166999986832,['c'],1,left,['e'],1,0.23132470000018657,0.2,1,0,AccAcc,20,17,Woman,Right,
56,15,1,0.5343721999997797,['c'],1,left,['e'],1,0.21889010000086273,0.4,1,0,AccAcc,20,17,Woman,Right,
57,15,1,0.9353599999994913,['c'],1,left,['e'],1,0.1910275999998703,0.4,1,0,AccAcc,20,17,Woman,Right,
58,15,1,0.4515867000009166,['c'],0,right,['e'],1,0.24009750000004715,0.4,0,0,AccAcc,20,17,Woman,Right,
59,15,1,0.4676411000000371,['c'],0,right,['e'],1,0.5742398999991565,0.1,0,0,AccAcc,20,17,Woman,Right,
