withinblocktrial,block,block_repetition,rt,resp,cor,cresp,conf_press,cj,rtconf,coherence,metacognition,slow_trial,manipulation,sub,age,gender,handedness,
0,1,1,2.134216300000844,['n'],1,right,none,-99,-99,0.5,-99,0,none,19,17,Woman,Right,
1,1,1,2.1164287999999942,['c'],1,left,none,-99,-99,0.5,-99,0,none,19,17,Woman,Right,
2,1,1,0.9496686000002228,['n'],1,right,none,-99,-99,0.5,-99,0,none,19,17,Woman,Right,
3,1,1,1.2509458000004088,['n'],1,right,none,-99,-99,0.5,-99,0,none,19,17,Woman,Right,
4,1,1,1.434329899999284,['n'],1,right,none,-99,-99,0.5,-99,0,none,19,17,Woman,Right,
5,1,1,0.9671362999997655,['c'],1,left,none,-99,-99,0.5,-99,0,none,19,17,Woman,Right,
6,1,1,0.7845352000003913,['c'],1,left,none,-99,-99,0.5,-99,0,none,19,17,Woman,Right,
7,1,1,0.8817723000011028,['c'],1,left,none,-99,-99,0.5,-99,0,none,19,17,Woman,Right,
8,1,1,1.3834406000005401,['n'],1,right,none,-99,-99,0.5,-99,0,none,19,17,Woman,Right,
9,1,1,0.8156404999990627,['n'],1,right,none,-99,-99,0.5,-99,0,none,19,17,Woman,Right,
10,1,1,0.9354769000001397,['c'],1,left,none,-99,-99,0.5,-99,0,none,19,17,Woman,Right,
11,1,1,1.150302100000772,['n'],1,right,none,-99,-99,0.5,-99,0,none,19,17,Woman,Right,
12,1,1,0.8673777000003611,['c'],1,left,none,-99,-99,0.5,-99,0,none,19,17,Woman,Right,
13,1,1,0.7999847999999474,['n'],1,right,none,-99,-99,0.5,-99,0,none,19,17,Woman,Right,
14,1,1,0.9158205000003363,['c'],1,left,none,-99,-99,0.5,-99,0,none,19,17,Woman,Right,
15,1,1,3.8665352999996685,['c'],1,left,none,-99,-99,0.5,-99,0,none,19,17,Woman,Right,
16,1,1,1.4996995000001334,['n'],1,right,none,-99,-99,0.5,-99,0,none,19,17,Woman,Right,
17,1,1,1.7677936000000045,['n'],1,right,none,-99,-99,0.5,-99,0,none,19,17,Woman,Right,
18,1,1,0.7670871999998781,['n'],1,right,none,-99,-99,0.5,-99,0,none,19,17,Woman,Right,
19,1,1,1.2332989999995334,['n'],1,right,none,-99,-99,0.5,-99,0,none,19,17,Woman,Right,
20,1,1,0.7177979999996751,['c'],1,left,none,-99,-99,0.5,-99,0,none,19,17,Woman,Right,
21,1,1,0.6841337999994721,['c'],1,left,none,-99,-99,0.5,-99,0,none,19,17,Woman,Right,
22,1,1,0.7171890999998141,['c'],1,left,none,-99,-99,0.5,-99,0,none,19,17,Woman,Right,
23,1,1,1.0989000000008673,['c'],1,left,none,-99,-99,0.5,-99,0,none,19,17,Woman,Right,
0,2,1,5.000147200000356,x,-99,right,none,-99,-99,0.1,-99,1,none,19,17,Woman,Right,
1,2,1,1.1166737000003195,['n'],0,left,none,-99,-99,0.1,-99,0,none,19,17,Woman,Right,
2,2,1,0.6004531000016868,['c'],1,left,none,-99,-99,0.2,-99,0,none,19,17,Woman,Right,
3,2,1,0.5669094000004407,['c'],1,left,none,-99,-99,0.4,-99,0,none,19,17,Woman,Right,
4,2,1,0.9840391999987332,['c'],1,left,none,-99,-99,0.2,-99,0,none,19,17,Woman,Right,
5,2,1,0.5673165999996854,['n'],1,right,none,-99,-99,0.4,-99,0,none,19,17,Woman,Right,
6,2,1,1.0660862999993697,['c'],1,left,none,-99,-99,0.1,-99,0,none,19,17,Woman,Right,
7,2,1,0.8678525000013906,['n'],1,right,none,-99,-99,0.1,-99,0,none,19,17,Woman,Right,
8,2,1,0.767477900000813,['n'],1,right,none,-99,-99,0.4,-99,0,none,19,17,Woman,Right,
9,2,1,1.1998733000000357,['n'],1,right,none,-99,-99,0.1,-99,0,none,19,17,Woman,Right,
10,2,1,0.6499049000012747,['c'],1,left,none,-99,-99,0.2,-99,0,none,19,17,Woman,Right,
11,2,1,0.6847046000002592,['n'],1,right,none,-99,-99,0.1,-99,0,none,19,17,Woman,Right,
12,2,1,0.634084499999517,['c'],1,left,none,-99,-99,0.2,-99,0,none,19,17,Woman,Right,
13,2,1,0.7007592999998451,['c'],1,left,none,-99,-99,0.4,-99,0,none,19,17,Woman,Right,
14,2,1,0.5835982999997213,['n'],1,right,none,-99,-99,0.2,-99,0,none,19,17,Woman,Right,
15,2,1,0.6512593000006746,['c'],1,left,none,-99,-99,0.1,-99,0,none,19,17,Woman,Right,
16,2,1,0.550384899999699,['n'],1,right,none,-99,-99,0.4,-99,0,none,19,17,Woman,Right,
17,2,1,0.7512829999996029,['n'],1,right,none,-99,-99,0.1,-99,0,none,19,17,Woman,Right,
18,2,1,0.5680544000006194,['c'],0,right,none,-99,-99,0.2,-99,0,none,19,17,Woman,Right,
19,2,1,0.7671934999998484,['c'],1,left,none,-99,-99,0.4,-99,0,none,19,17,Woman,Right,
20,2,1,0.5331613999987894,['n'],0,left,none,-99,-99,0.2,-99,0,none,19,17,Woman,Right,
21,2,1,1.4844795999997586,['n'],1,right,none,-99,-99,0.4,-99,0,none,19,17,Woman,Right,
22,2,1,0.46788310000010824,['c'],1,left,none,-99,-99,0.2,-99,0,none,19,17,Woman,Right,
23,2,1,1.91501849999986,['n'],1,right,none,-99,-99,0.4,-99,0,none,19,17,Woman,Right,
0,3,1,4.3009404000004,['c'],1,left,['e'],0,1.9585745999993378,0.1,0,0,none,19,17,Woman,Right,
1,3,1,2.984131700000944,['c'],1,left,['u'],1,1.063690700000734,0.2,1,0,none,19,17,Woman,Right,
2,3,1,3.2828262000002724,['c'],1,left,['u'],1,1.0089028000002145,0.2,1,0,none,19,17,Woman,Right,
3,3,1,1.9669578000011825,['n'],1,right,['u'],1,1.0400327000006655,0.4,1,0,none,19,17,Woman,Right,
4,3,1,4.633427999999185,['c'],0,right,['e'],0,0.8360783999996784,0.1,1,0,none,19,17,Woman,Right,
5,3,1,1.367981499999587,['c'],0,right,['e'],0,1.9704253999989305,0.2,1,0,none,19,17,Woman,Right,
6,3,1,1.050642299998799,['c'],0,right,['e'],0,1.2641438000009657,0.1,1,0,none,19,17,Woman,Right,
7,3,1,1.8841728000006697,['c'],1,left,['u'],1,0.7125845999999001,0.4,1,0,none,19,17,Woman,Right,
8,3,1,3.5345223999993323,['c'],0,right,['u'],1,0.7729326000007859,0.4,0,0,none,19,17,Woman,Right,
9,3,1,3.6522948000001634,['c'],1,left,['u'],1,0.8109728999988874,0.1,1,0,none,19,17,Woman,Right,
10,3,1,0.9172114000011788,['c'],0,right,['u'],1,0.8129513000003499,0.4,0,0,none,19,17,Woman,Right,
11,3,1,1.1180360999987897,['c'],1,left,['u'],1,0.4376025000001391,0.4,1,0,none,19,17,Woman,Right,
12,3,1,2.1344907999991847,['c'],0,right,['u'],1,0.3413314999997965,0.2,0,0,none,19,17,Woman,Right,
13,3,1,1.334490299999743,['c'],0,right,['u'],1,0.6489215000001423,0.4,0,0,none,19,17,Woman,Right,
14,3,1,1.4184263000006467,['c'],0,right,['u'],1,0.28445820000160893,0.1,0,0,none,19,17,Woman,Right,
15,3,1,0.9346779999996215,['c'],1,left,['u'],1,0.2900119000005361,0.2,1,0,none,19,17,Woman,Right,
16,3,1,2.750276100001429,['c'],0,right,['u'],1,0.3030536000005668,0.1,0,0,none,19,17,Woman,Right,
17,3,1,1.4670406999994157,['c'],1,left,['u'],1,0.28663889999916137,0.2,1,0,none,19,17,Woman,Right,
18,3,1,0.8679905000008148,['c'],1,left,['u'],1,0.31115499999941676,0.2,1,0,none,19,17,Woman,Right,
19,3,1,1.1833958000006533,['c'],0,right,['u'],1,0.24264109999967332,0.1,0,0,none,19,17,Woman,Right,
20,3,1,2.333971300000485,['c'],1,left,['u'],1,0.3856662000016513,0.4,1,0,none,19,17,Woman,Right,
21,3,1,1.0338284999997995,['c'],1,left,['u'],1,0.2873345000007248,0.4,1,0,none,19,17,Woman,Right,
22,3,1,0.701487400001497,['c'],1,left,['u'],1,0.4461066000003484,0.1,1,0,none,19,17,Woman,Right,
23,3,1,0.6679272999990644,['c'],0,right,['u'],1,0.2958775999995851,0.2,0,0,none,19,17,Woman,Right,
0,4,1,2.0325252000002365,['c'],1,left,['u'],1,1.9121020000002318,0.4,1,0,FastAcc,19,17,Woman,Right,
1,4,1,1.7495107999984612,['c'],0,right,['e'],0,0.7273571000005177,0.1,1,0,FastAcc,19,17,Woman,Right,
2,4,1,1.90139359999921,['c'],1,left,['e'],0,1.1370193000002473,0.1,0,0,FastAcc,19,17,Woman,Right,
3,4,1,2.9507641999989573,['n'],1,right,['u'],1,1.4083013999988907,0.2,1,0,FastAcc,19,17,Woman,Right,
4,4,1,2.834149999998772,['c'],0,right,['e'],0,1.1777198999989196,0.2,1,0,FastAcc,19,17,Woman,Right,
5,4,1,2.1348152000009577,['c'],0,right,['e'],0,0.8079482000011922,0.2,1,0,FastAcc,19,17,Woman,Right,
6,4,1,2.551113200001055,['n'],0,left,['e'],0,2.580594299999575,0.1,1,0,FastAcc,19,17,Woman,Right,
7,4,1,2.3675330999994912,['c'],1,left,['e'],0,2.0972629000007146,0.4,0,0,FastAcc,19,17,Woman,Right,
8,4,1,1.1839271999997436,['n'],1,right,['e'],0,1.0723077000002377,0.1,0,0,FastAcc,19,17,Woman,Right,
9,4,1,2.217486200001076,['c'],1,left,['u'],1,0.27154350000091654,0.4,1,0,FastAcc,19,17,Woman,Right,
10,4,1,2.0998202999999194,['c'],0,right,['e'],0,1.6679977000003419,0.2,1,0,FastAcc,19,17,Woman,Right,
11,4,1,1.7831588000008196,['c'],1,left,['u'],1,1.0202960999995412,0.4,1,0,FastAcc,19,17,Woman,Right,
12,4,1,1.9013897000004363,['n'],0,left,['e'],0,1.001546599998619,0.1,1,0,FastAcc,19,17,Woman,Right,
13,4,1,2.350792500001262,['c'],0,right,['u'],1,1.59019139999873,0.1,0,0,FastAcc,19,17,Woman,Right,
14,4,1,1.9502862999997888,['c'],0,right,['u'],1,0.5239942999996856,0.1,0,0,FastAcc,19,17,Woman,Right,
15,4,1,0.7659664999991946,['c'],0,right,['u'],1,0.2988681999995606,0.1,0,0,FastAcc,19,17,Woman,Right,
16,4,1,1.2171584999996412,['n'],1,right,['u'],1,0.43197280000094906,0.4,1,0,FastAcc,19,17,Woman,Right,
17,4,1,1.4331394000000728,['n'],1,right,['u'],1,0.32758909999938624,0.1,1,0,FastAcc,19,17,Woman,Right,
18,4,1,1.2016829999993206,['c'],1,left,['u'],1,0.31705480000164243,0.1,1,0,FastAcc,19,17,Woman,Right,
19,4,1,0.8176213999995525,['c'],1,left,['u'],1,0.29020180000043183,0.2,1,0,FastAcc,19,17,Woman,Right,
20,4,1,1.0335417999995116,['c'],0,right,['u'],1,0.3036829000011494,0.1,0,0,FastAcc,19,17,Woman,Right,
21,4,1,1.0844914999997854,['c'],0,right,['u'],1,0.28275050000047486,0.2,0,0,FastAcc,19,17,Woman,Right,
22,4,1,0.7512158999998064,['c'],1,left,['u'],1,0.27559739999924204,0.4,1,0,FastAcc,19,17,Woman,Right,
23,4,1,0.551288000000568,['c'],1,left,['u'],1,0.261139500000354,0.1,1,0,FastAcc,19,17,Woman,Right,
24,4,1,1.600333700000192,['n'],1,right,['u'],1,0.30150139999932435,0.2,1,0,FastAcc,19,17,Woman,Right,
25,4,1,0.851837300000625,['c'],1,left,['u'],1,0.32182079999984126,0.2,1,0,FastAcc,19,17,Woman,Right,
26,4,1,0.850262299998576,['c'],1,left,['u'],1,0.27741880000030505,0.4,1,0,FastAcc,19,17,Woman,Right,
27,4,1,0.8502998999992997,['c'],1,left,['u'],1,0.2671778000003542,0.2,1,0,FastAcc,19,17,Woman,Right,
28,4,1,0.6346736999985296,['c'],1,left,['u'],1,0.2175360000001092,0.2,1,0,FastAcc,19,17,Woman,Right,
29,4,1,0.8001564999995026,['c'],0,right,['u'],1,0.2435497000005853,0.4,0,0,FastAcc,19,17,Woman,Right,
30,4,1,0.5851815000005445,['c'],0,right,['u'],1,0.30867850000140606,0.2,0,0,FastAcc,19,17,Woman,Right,
31,4,1,0.5179057000004832,['c'],1,left,['u'],1,0.23001019999901473,0.4,1,0,FastAcc,19,17,Woman,Right,
32,4,1,0.5010940000011033,['c'],1,left,['u'],1,0.2030388999992283,0.2,1,0,FastAcc,19,17,Woman,Right,
33,4,1,0.4846835000007559,['c'],0,right,['u'],1,0.20998150000013993,0.2,0,0,FastAcc,19,17,Woman,Right,
34,4,1,0.4178129000010813,['c'],1,left,['u'],1,0.21941159999914817,0.2,1,0,FastAcc,19,17,Woman,Right,
35,4,1,0.3667359999999462,['c'],1,left,['u'],1,0.21484390000114217,0.2,1,0,FastAcc,19,17,Woman,Right,
36,4,1,0.38368310000078054,['c'],0,right,['u'],1,0.25651490000018384,0.4,0,0,FastAcc,19,17,Woman,Right,
37,4,1,0.35085199999957695,['c'],0,right,['u'],1,0.2667115999993257,0.4,0,0,FastAcc,19,17,Woman,Right,
38,4,1,0.5843213999996806,['c'],0,right,['u'],1,0.2192654999998922,0.1,0,0,FastAcc,19,17,Woman,Right,
39,4,1,0.38436469999942346,['c'],1,left,['u'],1,0.2291880000011588,0.4,1,0,FastAcc,19,17,Woman,Right,
40,4,1,0.33372290000079374,['c'],0,right,['u'],1,0.22511829999893962,0.4,0,0,FastAcc,19,17,Woman,Right,
41,4,1,0.4831663999993907,['c'],0,right,['u'],1,0.19972769999912998,0.1,0,0,FastAcc,19,17,Woman,Right,
42,4,1,0.46798299999863957,['c'],0,right,['u'],1,0.20643900000141002,0.1,0,0,FastAcc,19,17,Woman,Right,
43,4,1,0.850893000000724,['c'],0,right,['u'],1,0.16677110000091488,0.2,0,0,FastAcc,19,17,Woman,Right,
44,4,1,0.6346334000008937,['c'],1,left,['u'],1,0.18508650000148918,0.4,1,0,FastAcc,19,17,Woman,Right,
45,4,1,0.5337426999994932,['c'],1,left,['u'],1,0.15855920000103652,0.2,1,0,FastAcc,19,17,Woman,Right,
46,4,1,2.25114240000039,['c'],1,left,['u'],1,0.2089168000002246,0.1,1,0,FastAcc,19,17,Woman,Right,
47,4,1,0.7169097000005422,['c'],0,right,['e'],0,0.7027553999996599,0.4,1,0,FastAcc,19,17,Woman,Right,
48,4,1,1.0179619999998977,['c'],1,left,['u'],1,0.1402959999995801,0.4,1,0,FastAcc,19,17,Woman,Right,
49,4,1,0.5344972000002599,['c'],1,left,['u'],1,0.17990970000028028,0.2,1,0,FastAcc,19,17,Woman,Right,
50,4,1,0.4177245999999286,['c'],0,right,['u'],1,0.17412169999988691,0.2,0,0,FastAcc,19,17,Woman,Right,
51,4,1,0.6343137999992905,['c'],0,right,['u'],1,0.144366299999092,0.2,0,0,FastAcc,19,17,Woman,Right,
52,4,1,0.5161385000010341,['c'],0,right,['u'],1,0.13794720000078087,0.4,0,0,FastAcc,19,17,Woman,Right,
53,4,1,0.5996486000003642,['c'],1,left,['u'],1,0.2054415999991761,0.1,1,0,FastAcc,19,17,Woman,Right,
54,4,1,0.5346707999997307,['c'],1,left,['u'],1,0.16223689999969793,0.4,1,0,FastAcc,19,17,Woman,Right,
55,4,1,0.6016061999998783,['c'],0,right,['u'],1,0.18195539999942412,0.1,0,0,FastAcc,19,17,Woman,Right,
56,4,1,0.4664059000006091,['c'],1,left,['u'],1,0.15948430000025837,0.1,1,0,FastAcc,19,17,Woman,Right,
57,4,1,0.4853739999998652,['c'],1,left,['u'],1,0.1668546000000788,0.4,1,0,FastAcc,19,17,Woman,Right,
58,4,1,0.5167246000000887,['c'],0,right,['u'],1,0.19068899999911082,0.4,0,0,FastAcc,19,17,Woman,Right,
59,4,1,0.4011535999998159,['c'],1,left,['u'],1,0.20091990000037185,0.1,1,0,FastAcc,19,17,Woman,Right,
0,5,1,3.517852299999504,['n'],1,right,['u'],1,1.325551699999778,0.4,1,0,FastFast,19,17,Woman,Right,
1,5,1,4.017703299999994,['n'],1,right,['e'],0,1.3707819999999629,0.4,0,0,FastFast,19,17,Woman,Right,
2,5,1,1.3013439000005746,['n'],1,right,['e'],0,0.9466546000003291,0.2,0,0,FastFast,19,17,Woman,Right,
3,5,1,1.2833433000014338,['n'],1,right,['e'],0,0.4279738000004727,0.2,0,0,FastFast,19,17,Woman,Right,
4,5,1,0.8178801000012754,['n'],1,right,['e'],0,0.22062220000043453,0.4,0,0,FastFast,19,17,Woman,Right,
5,5,1,0.8846203999983118,['n'],1,right,['e'],0,0.1788061999995989,0.2,0,0,FastFast,19,17,Woman,Right,
6,5,1,0.4672877000011795,['n'],1,right,['e'],0,0.15517629999885685,0.4,0,0,FastFast,19,17,Woman,Right,
7,5,1,0.6161588999984815,['n'],1,right,['u'],1,0.1434162000005017,0.4,1,0,FastFast,19,17,Woman,Right,
8,5,1,0.8842702000001736,['n'],0,left,['u'],1,0.18439820000094187,0.1,0,0,FastFast,19,17,Woman,Right,
9,5,1,1.0670507000013458,['n'],0,left,['u'],1,0.18455429999994521,0.1,0,0,FastFast,19,17,Woman,Right,
10,5,1,0.5339000999993004,['n'],0,left,['u'],1,0.20594720000008238,0.1,0,0,FastFast,19,17,Woman,Right,
11,5,1,0.5998627000008128,['n'],0,left,['u'],1,0.17702829999871028,0.1,0,0,FastFast,19,17,Woman,Right,
12,5,1,0.5006744000002072,['n'],1,right,['u'],1,0.23198490000140737,0.2,1,0,FastFast,19,17,Woman,Right,
13,5,1,0.3347681000013836,['n'],1,right,['u'],1,0.17949210000006133,0.2,1,0,FastFast,19,17,Woman,Right,
14,5,1,0.38404929999887827,['n'],0,left,['u'],1,0.20706889999928535,0.1,0,0,FastFast,19,17,Woman,Right,
15,5,1,0.5177005999994435,['n'],0,left,['u'],1,0.19719979999899806,0.4,0,0,FastFast,19,17,Woman,Right,
16,5,1,0.3671297000000777,['n'],1,right,['u'],1,0.2086699999999837,0.4,1,0,FastFast,19,17,Woman,Right,
17,5,1,0.3164899000003061,['n'],0,left,['u'],1,0.12613010000131908,0.1,0,0,FastFast,19,17,Woman,Right,
18,5,1,0.5344426000010571,['n'],0,left,['u'],1,0.10218599999825528,0.1,0,0,FastFast,19,17,Woman,Right,
19,5,1,0.5007791000007273,['n'],0,left,['u'],1,0.1442599000001792,0.1,0,0,FastFast,19,17,Woman,Right,
20,5,1,0.45120630000019446,['n'],1,right,['u'],1,0.1713517000007414,0.2,1,0,FastFast,19,17,Woman,Right,
21,5,1,0.3844466000009561,['n'],1,right,['u'],1,0.16715380000096047,0.1,1,0,FastFast,19,17,Woman,Right,
22,5,1,0.35076699999990524,['n'],1,right,['u'],1,0.14890230000128213,0.1,1,0,FastFast,19,17,Woman,Right,
23,5,1,0.3008822000010696,['n'],0,left,['u'],1,0.197018199998638,0.4,0,0,FastFast,19,17,Woman,Right,
24,5,1,0.3179055000000517,['n'],1,right,['u'],1,0.16300170000067737,0.2,1,0,FastFast,19,17,Woman,Right,
25,5,1,0.3839932000009867,['n'],1,right,['u'],1,0.14284039999984088,0.4,1,0,FastFast,19,17,Woman,Right,
26,5,1,2.817391900000075,['c'],0,right,['e'],0,0.3154729000016232,0.4,1,0,FastFast,19,17,Woman,Right,
27,5,1,0.7670195999999123,['c'],1,left,['e'],0,0.13056009999854723,0.1,0,0,FastFast,19,17,Woman,Right,
28,5,1,0.9345917999999074,['c'],1,left,['u'],1,0.1696784999985539,0.4,1,0,FastFast,19,17,Woman,Right,
29,5,1,0.4179839999997057,['c'],1,left,['e'],0,0.1487790999999561,0.1,0,0,FastFast,19,17,Woman,Right,
30,5,1,0.8012890000009065,['c'],1,left,['e'],0,0.14480140000159736,0.2,0,0,FastFast,19,17,Woman,Right,
31,5,1,0.6514181999991706,['c'],1,left,['e'],0,0.14773980000063602,0.1,0,0,FastFast,19,17,Woman,Right,
32,5,1,0.801027299999987,['c'],0,right,['e'],0,0.12807950000023993,0.2,1,0,FastFast,19,17,Woman,Right,
33,5,1,0.6348175000002811,['c'],1,left,['e'],0,0.132190599999376,0.1,0,0,FastFast,19,17,Woman,Right,
34,5,1,0.4342353000010917,['c'],0,right,['e'],0,0.14411109999855398,0.4,1,0,FastFast,19,17,Woman,Right,
35,5,1,1.3509312999995018,['c'],1,left,['e'],0,1.6867713999999978,0.1,0,0,FastFast,19,17,Woman,Right,
36,5,1,0.517019099999743,['c'],0,right,['e'],0,0.09796240000105172,0.4,1,0,FastFast,19,17,Woman,Right,
37,5,1,0.3341346000015619,['c'],0,right,['e'],0,0.11460679999981949,0.4,1,0,FastFast,19,17,Woman,Right,
38,5,1,0.6662954999992508,['c'],0,right,['e'],0,0.13441710000006424,0.4,1,0,FastFast,19,17,Woman,Right,
39,5,1,0.752253100001326,['c'],1,left,['e'],0,0.1000304999997752,0.4,0,0,FastFast,19,17,Woman,Right,
40,5,1,0.6179505999989487,['c'],1,left,['e'],0,0.16952869999840914,0.2,0,0,FastFast,19,17,Woman,Right,
41,5,1,0.8849325999999564,['c'],0,right,['u'],1,0.46570710000014515,0.2,0,0,FastFast,19,17,Woman,Right,
42,5,1,1.018587500000649,['c'],1,left,['u'],1,0.16937940000025264,0.2,1,0,FastFast,19,17,Woman,Right,
43,5,1,0.5170780000007653,['c'],1,left,['u'],1,0.09564339999997173,0.2,1,0,FastFast,19,17,Woman,Right,
44,5,1,0.5854638999990129,['c'],1,left,['u'],1,0.10262560000046506,0.2,1,0,FastFast,19,17,Woman,Right,
45,5,1,0.618208500000037,['c'],0,right,['u'],1,0.140423799999553,0.2,0,0,FastFast,19,17,Woman,Right,
46,5,1,0.6172232999997505,['c'],0,right,['u'],1,0.14435620000040217,0.2,0,0,FastFast,19,17,Woman,Right,
47,5,1,0.4995168999994348,['c'],0,right,['u'],1,0.10653690000071947,0.2,0,0,FastFast,19,17,Woman,Right,
48,5,1,0.6005169000000024,['c'],1,left,['u'],1,0.25543369999832066,0.4,1,0,FastFast,19,17,Woman,Right,
49,5,1,0.5675711999992927,['c'],1,left,['u'],1,0.11319559999901685,0.2,1,0,FastFast,19,17,Woman,Right,
50,5,1,0.801639500001329,['c'],1,left,['u'],1,0.1432840000015858,0.4,1,0,FastFast,19,17,Woman,Right,
51,5,1,0.33411010000054375,['c'],1,left,['e'],0,0.14275999999881606,0.1,0,0,FastFast,19,17,Woman,Right,
52,5,1,0.5680800000009185,['c'],1,left,['u'],1,0.11670880000019679,0.1,1,0,FastFast,19,17,Woman,Right,
53,5,1,0.668294799999785,['c'],1,left,['u'],1,0.11928639999860025,0.4,1,0,FastFast,19,17,Woman,Right,
54,5,1,0.6341374999992695,['c'],0,right,['e'],0,0.09174820000043837,0.2,1,0,FastFast,19,17,Woman,Right,
55,5,1,2.818193600000086,['c'],0,right,['e'],0,0.28192260000105307,0.1,1,0,FastFast,19,17,Woman,Right,
56,5,1,0.4173237999984849,['c'],0,right,['u'],1,0.12819839999974647,0.2,0,0,FastFast,19,17,Woman,Right,
57,5,1,2.467142600000443,['c'],1,left,['e'],0,0.25130799999897135,0.1,0,0,FastFast,19,17,Woman,Right,
58,5,1,0.5346757999996044,['c'],1,left,['u'],1,0.15827749999880325,0.4,1,0,FastFast,19,17,Woman,Right,
59,5,1,4.484709000000294,['c'],0,right,['e'],0,0.39149299999917275,0.1,1,0,FastFast,19,17,Woman,Right,
0,6,1,5.000280000000203,x,-99,right,none,-99,-99,0.4,-99,1,AccFast,19,17,Woman,Right,
1,6,1,0.899595999999292,['c'],1,left,['e'],0,1.0000749000009819,0.4,0,0,AccFast,19,17,Woman,Right,
2,6,1,1.0016322000010405,['c'],0,right,['e'],0,0.18653839999933552,0.2,1,0,AccFast,19,17,Woman,Right,
3,6,1,0.7358233999984805,['c'],1,left,['e'],0,0.4398483999993914,0.4,0,0,AccFast,19,17,Woman,Right,
4,6,1,1.3015311999988626,['c'],1,left,['e'],0,0.13297960000090825,0.4,0,0,AccFast,19,17,Woman,Right,
5,6,1,0.7007481000000553,['c'],1,left,['e'],0,0.11787709999953222,0.2,0,0,AccFast,19,17,Woman,Right,
6,6,1,4.033997000000454,['n'],1,right,['e'],0,0.1465122000008705,0.2,0,0,AccFast,19,17,Woman,Right,
7,6,1,1.4842382999995607,['n'],1,right,['e'],0,0.08372670000062499,0.4,0,0,AccFast,19,17,Woman,Right,
8,6,1,5.016820099999677,x,-99,right,none,-99,-99,0.1,-99,1,AccFast,19,17,Woman,Right,
9,6,1,1.6013765999996394,['c'],1,left,['e'],0,0.18855210000037914,0.4,0,0,AccFast,19,17,Woman,Right,
10,6,1,1.9014540999996825,['c'],1,left,['u'],1,0.2044741999998223,0.1,1,0,AccFast,19,17,Woman,Right,
11,6,1,3.3837096999995993,['c'],1,left,['u'],1,1.0396495000004506,0.2,1,0,AccFast,19,17,Woman,Right,
12,6,1,3.5502469000002748,['n'],1,right,['e'],0,0.8267689999993308,0.1,0,0,AccFast,19,17,Woman,Right,
13,6,1,1.7339610000017274,['n'],1,right,['u'],1,0.47081149999939953,0.1,1,0,AccFast,19,17,Woman,Right,
14,6,1,2.634793699999136,['c'],1,left,['u'],1,1.2611243999999715,0.4,1,0,AccFast,19,17,Woman,Right,
15,6,1,2.150947999998607,['c'],1,left,['e'],0,0.5355333000006794,0.1,0,0,AccFast,19,17,Woman,Right,
16,6,1,3.6008342999994056,['c'],0,right,['e'],0,0.19685720000052243,0.2,1,0,AccFast,19,17,Woman,Right,
17,6,1,1.017497299999377,['n'],1,right,['u'],1,0.5023898999988887,0.4,1,0,AccFast,19,17,Woman,Right,
18,6,1,2.233399599999757,['c'],1,left,['e'],0,0.3316538999988552,0.2,0,0,AccFast,19,17,Woman,Right,
19,6,1,1.7175647000003664,['c'],0,right,['e'],0,0.5240463000009186,0.2,1,0,AccFast,19,17,Woman,Right,
20,6,1,0.9684020000004239,['c'],0,right,['e'],0,0.1468468999992183,0.2,1,0,AccFast,19,17,Woman,Right,
21,6,1,2.900164799999402,['c'],0,right,['e'],0,0.12395049999940966,0.1,1,0,AccFast,19,17,Woman,Right,
22,6,1,1.3843999999990046,['c'],1,left,['e'],0,0.08192749999943771,0.2,0,0,AccFast,19,17,Woman,Right,
23,6,1,2.4336296999990736,['c'],0,right,['e'],0,0.14335810000011406,0.1,1,0,AccFast,19,17,Woman,Right,
24,6,1,2.234966300000451,['c'],0,right,['e'],0,0.13113130000056117,0.1,1,0,AccFast,19,17,Woman,Right,
25,6,1,0.7011177999993379,['c'],0,right,['e'],0,0.13223719999950845,0.4,1,0,AccFast,19,17,Woman,Right,
26,6,1,2.0680688000011287,['c'],1,left,['e'],0,0.15864959999998973,0.4,0,0,AccFast,19,17,Woman,Right,
27,6,1,1.8345059000002948,['c'],1,left,['e'],0,0.12938220000069123,0.4,0,0,AccFast,19,17,Woman,Right,
28,6,1,2.7009324000009656,['c'],0,right,['e'],0,0.3874292999989848,0.1,1,0,AccFast,19,17,Woman,Right,
29,6,1,1.3845434999984718,['n'],1,right,['e'],0,0.22230429999945045,0.1,0,0,AccFast,19,17,Woman,Right,
30,6,1,2.449280300001192,['n'],0,left,['e'],0,0.1834500000004482,0.4,1,0,AccFast,19,17,Woman,Right,
31,6,1,1.2833963000011863,['c'],1,left,['e'],0,0.19062230000054114,0.1,0,0,AccFast,19,17,Woman,Right,
32,6,1,1.4503221999984817,['c'],0,right,['e'],0,0.14261099999930593,0.4,1,0,AccFast,19,17,Woman,Right,
33,6,1,0.7853814000009152,['c'],0,right,['e'],0,0.18915129999913916,0.2,1,0,AccFast,19,17,Woman,Right,
34,6,1,0.8831456000007165,['c'],0,right,['e'],0,0.11706219999905443,0.1,1,0,AccFast,19,17,Woman,Right,
35,6,1,2.917542200000753,['n'],1,right,['e'],0,0.12513409999883152,0.1,0,0,AccFast,19,17,Woman,Right,
36,6,1,3.6343426999992516,['n'],1,right,['e'],0,0.15359230000103707,0.1,0,0,AccFast,19,17,Woman,Right,
37,6,1,0.8840760999992199,['c'],0,right,['e'],0,0.162745100000393,0.4,1,0,AccFast,19,17,Woman,Right,
38,6,1,0.6843033999994077,['n'],0,left,['e'],0,0.1310594000005949,0.1,1,0,AccFast,19,17,Woman,Right,
39,6,1,0.8171925999995437,['n'],0,left,['e'],0,0.12706160000016098,0.2,1,0,AccFast,19,17,Woman,Right,
40,6,1,0.9343977999997151,['n'],1,right,['e'],0,0.11933289999979024,0.2,0,0,AccFast,19,17,Woman,Right,
41,6,1,0.7510817000002135,['n'],0,left,['e'],0,0.13600509999923815,0.4,1,0,AccFast,19,17,Woman,Right,
42,6,1,0.6350074000001769,['c'],1,left,['e'],0,0.2505334999987099,0.4,0,0,AccFast,19,17,Woman,Right,
43,6,1,2.4011614000010013,['c'],1,left,['u'],1,1.874848599998586,0.4,1,0,AccFast,19,17,Woman,Right,
44,6,1,2.534909300000436,['c'],1,left,['e'],0,0.21418079999966722,0.1,0,0,AccFast,19,17,Woman,Right,
45,6,1,2.4164326999998593,['c'],1,left,['u'],1,0.7506561999998667,0.4,1,0,AccFast,19,17,Woman,Right,
46,6,1,3.1341699000004155,['n'],1,right,['e'],0,0.2781721000010293,0.2,0,0,AccFast,19,17,Woman,Right,
47,6,1,1.5506936999991012,['n'],1,right,['e'],0,0.19160259999989648,0.4,0,0,AccFast,19,17,Woman,Right,
48,6,1,1.317779300001348,['n'],1,right,['e'],0,0.6137939000000188,0.2,0,0,AccFast,19,17,Woman,Right,
49,6,1,2.934628999999404,['c'],1,left,['e'],0,0.3785509999997885,0.1,0,0,AccFast,19,17,Woman,Right,
50,6,1,1.3493056999996043,['c'],0,right,['e'],0,0.18482939999921655,0.2,1,0,AccFast,19,17,Woman,Right,
51,6,1,0.8673695000015869,['c'],1,left,['e'],0,0.3676982000015414,0.1,0,0,AccFast,19,17,Woman,Right,
52,6,1,1.134514899998976,['c'],1,left,['e'],0,0.13393170000017562,0.2,0,0,AccFast,19,17,Woman,Right,
53,6,1,0.5350027999993472,['c'],1,left,['e'],0,0.14169869999932416,0.2,0,0,AccFast,19,17,Woman,Right,
54,6,1,0.8170368000010058,['c'],1,left,['e'],0,0.10571679999884509,0.2,0,0,AccFast,19,17,Woman,Right,
55,6,1,0.6845739000000322,['c'],1,left,['e'],0,0.14063440000063565,0.1,0,0,AccFast,19,17,Woman,Right,
56,6,1,0.6178508000011789,['c'],0,right,['e'],0,0.11303910000060569,0.1,1,0,AccFast,19,17,Woman,Right,
57,6,1,0.6845015999988391,['c'],1,left,['e'],0,0.11517470000035246,0.4,0,0,AccFast,19,17,Woman,Right,
58,6,1,0.5842477999995026,['c'],0,right,['e'],0,0.07347900000058871,0.2,1,0,AccFast,19,17,Woman,Right,
59,6,1,0.46739220000017667,['c'],1,left,['e'],0,0.1342396000000008,0.2,0,0,AccFast,19,17,Woman,Right,
0,7,1,1.184443400001328,['c'],1,left,['u'],1,1.2525504999994155,0.2,1,0,AccAcc,19,17,Woman,Right,
1,7,1,1.2824940999998944,['n'],1,right,['u'],1,1.762773799999195,0.2,1,0,AccAcc,19,17,Woman,Right,
2,7,1,1.402088900000308,['c'],1,left,['u'],1,0.7093832999998995,0.4,1,0,AccAcc,19,17,Woman,Right,
3,7,1,4.033799900000304,['c'],0,right,['e'],0,0.4425074999999197,0.1,1,0,AccAcc,19,17,Woman,Right,
4,7,1,2.383825299999444,['n'],1,right,['e'],0,2.0451305999995384,0.1,0,0,AccAcc,19,17,Woman,Right,
5,7,1,1.533472899998742,['c'],0,right,['u'],1,3.9207797999988543,0.1,0,0,AccAcc,19,17,Woman,Right,
6,7,1,0.9511889000004885,['c'],1,left,['u'],1,0.8805257000003621,0.1,1,0,AccAcc,19,17,Woman,Right,
7,7,1,1.6511623000005784,['n'],1,right,['u'],1,1.5972622999997839,0.1,1,0,AccAcc,19,17,Woman,Right,
8,7,1,0.8006134000006568,['n'],1,right,['u'],1,1.5197074999996403,0.4,1,0,AccAcc,19,17,Woman,Right,
9,7,1,1.001175500001409,['c'],1,left,['u'],1,0.7975011000016821,0.1,1,0,AccAcc,19,17,Woman,Right,
10,7,1,1.434308100000635,['n'],1,right,['e'],0,5.270652400000472,0.1,0,0,AccAcc,19,17,Woman,Right,
11,7,1,1.1334753000010096,['n'],1,right,['u'],1,0.9054252999994787,0.1,1,0,AccAcc,19,17,Woman,Right,
12,7,1,2.301192799999626,['c'],1,left,['e'],0,1.2598937999991904,0.2,0,0,AccAcc,19,17,Woman,Right,
13,7,1,1.1342679000008502,['c'],1,left,['u'],1,3.5189783000005264,0.4,1,0,AccAcc,19,17,Woman,Right,
14,7,1,2.334007699999347,['n'],1,right,['e'],0,0.5843836999993073,0.1,0,0,AccAcc,19,17,Woman,Right,
15,7,1,1.5678099999986443,['c'],1,left,['u'],1,0.4360156000002462,0.4,1,0,AccAcc,19,17,Woman,Right,
16,7,1,1.1346407999990333,['c'],1,left,['u'],1,0.6636051000004954,0.1,1,0,AccAcc,19,17,Woman,Right,
17,7,1,0.9181045000004815,['c'],1,left,['u'],1,0.6513856000001397,0.4,1,0,AccAcc,19,17,Woman,Right,
18,7,1,1.3176538000006985,['c'],0,right,['u'],1,0.49436680000144406,0.2,0,0,AccAcc,19,17,Woman,Right,
19,7,1,1.1831537999987631,['c'],0,right,['u'],1,0.7338911999995616,0.4,0,0,AccAcc,19,17,Woman,Right,
20,7,1,1.1012549999995827,['c'],1,left,['u'],1,0.5990426999996998,0.4,1,0,AccAcc,19,17,Woman,Right,
21,7,1,1.3175422999993316,['c'],1,left,['u'],1,0.460857500000202,0.2,1,0,AccAcc,19,17,Woman,Right,
22,7,1,0.9178038999998535,['c'],0,right,['u'],1,0.6964614999997139,0.1,0,0,AccAcc,19,17,Woman,Right,
23,7,1,1.4179311000007147,['c'],0,right,['u'],1,0.7421500000000378,0.1,0,0,AccAcc,19,17,Woman,Right,
24,7,1,0.8662758999998914,['c'],1,left,['u'],1,0.6648762999993778,0.4,1,0,AccAcc,19,17,Woman,Right,
25,7,1,0.6843533999999636,['c'],1,left,['u'],1,0.5329989999991085,0.1,1,0,AccAcc,19,17,Woman,Right,
26,7,1,0.6178876000012679,['c'],0,right,['u'],1,0.3610578000007081,0.1,0,0,AccAcc,19,17,Woman,Right,
27,7,1,0.9178668000004109,['c'],1,left,['u'],1,0.40867769999931625,0.1,1,0,AccAcc,19,17,Woman,Right,
28,7,1,0.8999189000005572,['c'],0,right,['u'],1,0.31130279999888444,0.2,0,0,AccAcc,19,17,Woman,Right,
29,7,1,0.6338495999989391,['c'],1,left,['u'],1,0.3719165000002249,0.2,1,0,AccAcc,19,17,Woman,Right,
30,7,1,0.9503251000005548,['c'],0,right,['u'],1,0.4334452999992209,0.2,0,0,AccAcc,19,17,Woman,Right,
31,7,1,0.783376399998815,['c'],0,right,['u'],1,0.38749599999937345,0.4,0,0,AccAcc,19,17,Woman,Right,
32,7,1,0.7174279999999271,['c'],1,left,['u'],1,0.24937260000115202,0.2,1,0,AccAcc,19,17,Woman,Right,
33,7,1,2.3177047000008315,['c'],1,left,['e'],0,0.22907870000017283,0.1,0,0,AccAcc,19,17,Woman,Right,
34,7,1,2.4009325000006356,['c'],0,right,['e'],0,0.7341500999991695,0.2,1,0,AccAcc,19,17,Woman,Right,
35,7,1,3.218160500000522,['n'],1,right,['e'],0,0.6427843000001303,0.4,0,0,AccAcc,19,17,Woman,Right,
36,7,1,1.0512189000000944,['c'],1,left,['u'],1,0.5617820999996184,0.4,1,0,AccAcc,19,17,Woman,Right,
37,7,1,1.2180318999999145,['c'],1,left,['u'],1,0.5735674000006838,0.2,1,0,AccAcc,19,17,Woman,Right,
38,7,1,1.0844829999987269,['c'],1,left,['u'],1,0.813409700000193,0.4,1,0,AccAcc,19,17,Woman,Right,
39,7,1,1.0181836000010662,['c'],0,right,['e'],0,1.1580584000003,0.2,1,0,AccAcc,19,17,Woman,Right,
40,7,1,4.216476899999179,['c'],1,left,['e'],0,0.8028880000001664,0.2,0,0,AccAcc,19,17,Woman,Right,
41,7,1,1.1665162999997847,['c'],1,left,['e'],0,0.742028599999685,0.4,0,0,AccAcc,19,17,Woman,Right,
42,7,1,1.550541599999633,['c'],0,right,['e'],0,0.26963050000085786,0.4,1,0,AccAcc,19,17,Woman,Right,
43,7,1,1.6344848000007914,['c'],0,right,['e'],0,1.0433217999998305,0.4,1,0,AccAcc,19,17,Woman,Right,
44,7,1,5.000321299999996,x,-99,left,none,-99,-99,0.2,-99,1,AccAcc,19,17,Woman,Right,
45,7,1,1.567108699999153,['n'],1,right,['e'],0,0.8088034000011248,0.4,0,0,AccAcc,19,17,Woman,Right,
46,7,1,1.3667163999998593,['c'],0,right,['e'],0,0.3724785000013071,0.1,1,0,AccAcc,19,17,Woman,Right,
47,7,1,0.5183132000001933,['n'],0,left,['e'],0,0.4352740000013,0.2,1,0,AccAcc,19,17,Woman,Right,
48,7,1,0.8184479999999894,['n'],1,right,['e'],0,0.4995016000011674,0.4,0,0,AccAcc,19,17,Woman,Right,
49,7,1,1.6010236000001896,['n'],1,right,['e'],0,0.6741732000009506,0.2,0,0,AccAcc,19,17,Woman,Right,
50,7,1,0.7684470000003785,['c'],1,left,['e'],0,0.4908374000006006,0.1,0,0,AccAcc,19,17,Woman,Right,
51,7,1,1.4338739999984682,['c'],0,right,['e'],0,0.8324875000016618,0.4,1,0,AccAcc,19,17,Woman,Right,
52,7,1,0.8165741000011622,['c'],1,left,['e'],0,0.6575121999994735,0.1,0,0,AccAcc,19,17,Woman,Right,
53,7,1,2.7510597000000416,['c'],1,left,['e'],0,0.5077332000000752,0.2,0,0,AccAcc,19,17,Woman,Right,
54,7,1,1.050452100000257,['c'],0,right,['u'],1,0.7517048000008799,0.2,0,0,AccAcc,19,17,Woman,Right,
55,7,1,1.101506099999824,['c'],1,left,['u'],1,0.9200541999998677,0.4,1,0,AccAcc,19,17,Woman,Right,
56,7,1,4.001219399999172,['c'],0,right,['u'],1,0.4062307999993209,0.2,0,0,AccAcc,19,17,Woman,Right,
57,7,1,0.7511637000006886,['c'],1,left,['u'],1,0.4102911000009044,0.4,1,0,AccAcc,19,17,Woman,Right,
58,7,1,0.7849987000008696,['c'],0,right,['u'],1,0.42917300000044634,0.1,0,0,AccAcc,19,17,Woman,Right,
59,7,1,0.48424640000121144,['c'],1,left,['u'],1,0.5068690000007336,0.2,1,0,AccAcc,19,17,Woman,Right,
0,8,1,1.1676098000007187,['c'],1,left,['u'],1,2.692848500000764,0.4,1,0,FastAcc,19,17,Woman,Right,
1,8,1,0.6181134999987989,['c'],0,right,['u'],1,0.5472460000000865,0.2,0,0,FastAcc,19,17,Woman,Right,
2,8,1,1.068086699999185,['c'],1,left,['e'],0,1.4291001000001415,0.4,0,0,FastAcc,19,17,Woman,Right,
3,8,1,0.567199700000856,['c'],0,right,['e'],0,0.7592587999988609,0.1,1,0,FastAcc,19,17,Woman,Right,
4,8,1,0.700447900000654,['c'],0,right,['e'],0,0.895774500000698,0.4,1,0,FastAcc,19,17,Woman,Right,
5,8,1,0.6176312000006874,['c'],1,left,['e'],0,1.2532209000000876,0.1,0,0,FastAcc,19,17,Woman,Right,
6,8,1,0.9843940999999177,['c'],1,left,['u'],1,2.0303834000005736,0.1,1,0,FastAcc,19,17,Woman,Right,
7,8,1,1.817512000001443,['n'],1,right,['e'],0,1.0788706000003003,0.4,0,0,FastAcc,19,17,Woman,Right,
8,8,1,0.51738160000059,['c'],0,right,['e'],0,1.689273800000592,0.2,1,0,FastAcc,19,17,Woman,Right,
9,8,1,0.634088700000575,['c'],0,right,['e'],0,2.2391133999990416,0.2,1,0,FastAcc,19,17,Woman,Right,
10,8,1,0.7176415000012639,['c'],1,left,['u'],1,1.0034035999997286,0.4,1,0,FastAcc,19,17,Woman,Right,
11,8,1,2.051081999999951,['c'],0,right,['u'],1,2.547930799999449,0.2,0,0,FastAcc,19,17,Woman,Right,
12,8,1,2.1011734000003344,['c'],1,left,['e'],0,0.8445532000005187,0.1,0,0,FastAcc,19,17,Woman,Right,
13,8,1,0.5684906000005867,['c'],1,left,['e'],0,0.5995796000006521,0.1,0,0,FastAcc,19,17,Woman,Right,
14,8,1,1.5009251000010408,['c'],1,left,['u'],1,0.6130826000007801,0.4,1,0,FastAcc,19,17,Woman,Right,
15,8,1,0.5510039000000688,['c'],1,left,['u'],1,1.3527641000000585,0.2,1,0,FastAcc,19,17,Woman,Right,
16,8,1,0.6680104000006395,['c'],1,left,['u'],1,1.3224898999997095,0.4,1,0,FastAcc,19,17,Woman,Right,
17,8,1,1.1342752000000473,['n'],0,left,['e'],0,1.754965899999661,0.1,1,0,FastAcc,19,17,Woman,Right,
18,8,1,1.5175775999996404,['c'],0,right,['e'],0,1.6588952000001882,0.1,1,0,FastAcc,19,17,Woman,Right,
19,8,1,0.8677021000003151,['c'],1,left,['u'],1,1.3205363000015495,0.2,1,0,FastAcc,19,17,Woman,Right,
20,8,1,0.517884499999127,['c'],1,left,['u'],1,2.193385300000955,0.2,1,0,FastAcc,19,17,Woman,Right,
21,8,1,0.9515965000009601,['c'],1,left,['u'],1,0.8068005000004632,0.1,1,0,FastAcc,19,17,Woman,Right,
22,8,1,1.1837654999999359,['n'],1,right,['e'],0,2.6657402999990154,0.4,0,0,FastAcc,19,17,Woman,Right,
23,8,1,0.9679111999994348,['c'],1,left,['u'],1,1.451673600000504,0.1,1,0,FastAcc,19,17,Woman,Right,
24,8,1,0.8835515000009764,['c'],0,right,['e'],0,1.1040861999990739,0.4,1,0,FastAcc,19,17,Woman,Right,
25,8,1,0.8010734999988927,['c'],1,left,['e'],0,1.0944245000009687,0.1,0,0,FastAcc,19,17,Woman,Right,
26,8,1,1.83320619999904,['c'],1,left,['e'],0,0.9167204999994283,0.1,0,0,FastAcc,19,17,Woman,Right,
27,8,1,0.8670089000006556,['c'],1,left,['u'],1,0.6071040999995603,0.4,1,0,FastAcc,19,17,Woman,Right,
28,8,1,2.001021399999445,['c'],0,right,['e'],0,1.2094928000005893,0.4,1,0,FastAcc,19,17,Woman,Right,
29,8,1,0.7509546999990562,['c'],0,right,['e'],0,2.1419105000004492,0.4,1,0,FastAcc,19,17,Woman,Right,
30,8,1,1.6012887000015326,['c'],0,right,['u'],1,2.667954800001098,0.4,0,0,FastAcc,19,17,Woman,Right,
31,8,1,1.234857600000396,['c'],0,right,['e'],0,1.6497271999996883,0.2,1,0,FastAcc,19,17,Woman,Right,
32,8,1,1.033069199998863,['c'],1,left,['e'],0,1.177381699999387,0.2,0,0,FastAcc,19,17,Woman,Right,
33,8,1,1.0512450999995053,['c'],0,right,['e'],0,0.946586699999898,0.2,1,0,FastAcc,19,17,Woman,Right,
34,8,1,0.6343865999988338,['c'],1,left,['e'],0,1.3655384000012418,0.2,0,0,FastAcc,19,17,Woman,Right,
35,8,1,2.5498045000003913,['n'],1,right,['e'],0,1.340158999999403,0.4,0,0,FastAcc,19,17,Woman,Right,
36,8,1,1.5177402999997867,['n'],1,right,['e'],0,1.3878611999989516,0.4,0,0,FastAcc,19,17,Woman,Right,
37,8,1,1.66774869999972,['c'],1,left,['u'],1,1.6044363000000885,0.2,1,0,FastAcc,19,17,Woman,Right,
38,8,1,5.000154800000018,x,-99,right,none,-99,-99,0.2,-99,1,FastAcc,19,17,Woman,Right,
39,8,1,1.317842300000848,['n'],1,right,['e'],0,0.8451979999990726,0.1,0,0,FastAcc,19,17,Woman,Right,
40,8,1,0.6680952000006073,['c'],0,right,['e'],0,0.6265604000000167,0.1,1,0,FastAcc,19,17,Woman,Right,
41,8,1,0.9514875000004395,['n'],1,right,['e'],0,2.1024798000016744,0.4,0,0,FastAcc,19,17,Woman,Right,
42,8,1,1.600806399999783,['n'],1,right,['u'],1,0.8368582000002789,0.1,1,0,FastAcc,19,17,Woman,Right,
43,8,1,0.6178251000001183,['n'],0,left,['e'],0,3.3251954000006663,0.2,1,0,FastAcc,19,17,Woman,Right,
44,8,1,0.7347280999983923,['n'],1,right,['e'],0,1.4060375000008207,0.2,0,0,FastAcc,19,17,Woman,Right,
45,8,1,0.7179823000005854,['n'],1,right,['e'],0,1.0036587000013242,0.4,0,0,FastAcc,19,17,Woman,Right,
46,8,1,0.7011339000000589,['n'],0,left,['e'],0,1.30578979999882,0.1,1,0,FastAcc,19,17,Woman,Right,
47,8,1,2.450962500000969,['n'],0,left,['e'],0,1.2224267000001419,0.2,1,0,FastAcc,19,17,Woman,Right,
48,8,1,1.2508940000006987,['c'],1,left,['e'],0,0.6781644000002416,0.2,0,0,FastAcc,19,17,Woman,Right,
49,8,1,1.251754400000209,['c'],0,right,['e'],0,0.12366149999979825,0.1,1,0,FastAcc,19,17,Woman,Right,
50,8,1,1.0340157999999064,['n'],1,right,['u'],1,0.8481267000006483,0.4,1,0,FastAcc,19,17,Woman,Right,
51,8,1,1.0666907000013452,['n'],1,right,['u'],1,1.09447899999941,0.2,1,0,FastAcc,19,17,Woman,Right,
52,8,1,3.4003647999998066,['n'],0,left,['e'],0,0.4857721999997011,0.1,1,0,FastAcc,19,17,Woman,Right,
53,8,1,1.90150949999952,['n'],1,right,['e'],0,0.7600469999997586,0.1,0,0,FastAcc,19,17,Woman,Right,
54,8,1,2.1679605999997875,['n'],0,left,['e'],0,1.5900564000003214,0.2,1,0,FastAcc,19,17,Woman,Right,
55,8,1,1.5507282999988092,['c'],1,left,['e'],0,0.699153200001092,0.1,0,0,FastAcc,19,17,Woman,Right,
56,8,1,0.8167694999992818,['c'],1,left,['e'],0,1.2812398999994912,0.4,0,0,FastAcc,19,17,Woman,Right,
57,8,1,0.7839530999990529,['c'],0,right,['e'],0,0.2563031999998202,0.2,1,0,FastAcc,19,17,Woman,Right,
58,8,1,0.8342298999996274,['c'],0,right,['e'],0,0.34328260000074806,0.4,1,0,FastAcc,19,17,Woman,Right,
59,8,1,0.6849803999994037,['c'],1,left,['e'],0,0.4494859999995242,0.1,0,0,FastAcc,19,17,Woman,Right,
0,9,1,1.0167228000009345,['c'],0,right,['e'],0,0.3125505999996676,0.1,1,0,FastFast,19,17,Woman,Right,
1,9,1,0.6848192999987077,['c'],0,right,['e'],0,0.17885559999922407,0.1,1,0,FastFast,19,17,Woman,Right,
2,9,1,1.2678400999993755,['c'],1,left,['e'],0,0.6989106999990327,0.4,0,0,FastFast,19,17,Woman,Right,
3,9,1,0.9676611000013509,['c'],1,left,['e'],0,0.13872479999918141,0.1,0,0,FastFast,19,17,Woman,Right,
4,9,1,0.5673708000012994,['c'],1,left,['e'],0,0.2245714999990014,0.2,0,0,FastFast,19,17,Woman,Right,
5,9,1,1.0176750000009633,['n'],1,right,['e'],0,0.5938469000011537,0.2,0,0,FastFast,19,17,Woman,Right,
6,9,1,1.1169317000003502,['n'],1,right,['e'],0,0.17635479999989911,0.1,0,0,FastFast,19,17,Woman,Right,
7,9,1,0.6839807999986078,['n'],1,right,['e'],0,0.17628709999917191,0.4,0,0,FastFast,19,17,Woman,Right,
8,9,1,0.5680818999990151,['n'],0,left,['e'],0,0.10153320000063104,0.2,1,0,FastFast,19,17,Woman,Right,
9,9,1,1.783933700000489,['c'],1,left,['u'],1,0.2041174999994837,0.4,1,0,FastFast,19,17,Woman,Right,
10,9,1,1.8015350999994553,['c'],0,right,['u'],1,0.1744393000008131,0.2,0,0,FastFast,19,17,Woman,Right,
11,9,1,0.6840480999999272,['c'],0,right,['e'],0,0.1587569999992411,0.2,1,0,FastFast,19,17,Woman,Right,
12,9,1,0.6682755000001634,['c'],1,left,['u'],1,0.43250369999987015,0.4,1,0,FastFast,19,17,Woman,Right,
13,9,1,0.8339783999999781,['c'],1,left,['u'],1,0.1599527999987913,0.2,1,0,FastFast,19,17,Woman,Right,
14,9,1,0.4515688000010414,['c'],0,right,['u'],1,0.17021310000018275,0.1,0,0,FastFast,19,17,Woman,Right,
15,9,1,0.9671603000006144,['c'],0,right,['u'],1,0.11115950000021257,0.1,0,0,FastFast,19,17,Woman,Right,
16,9,1,0.8503818999997748,['c'],1,left,['u'],1,0.1393805000006978,0.2,1,0,FastFast,19,17,Woman,Right,
17,9,1,0.4846250000009604,['c'],0,right,['u'],1,0.14932000000044354,0.1,0,0,FastFast,19,17,Woman,Right,
18,9,1,1.0832977999998548,['c'],1,left,['u'],1,0.07080110000060813,0.1,1,0,FastFast,19,17,Woman,Right,
19,9,1,0.6492230999992898,['c'],0,right,['u'],1,0.17289359999995213,0.1,0,0,FastFast,19,17,Woman,Right,
20,9,1,0.6505011999997805,['c'],1,left,['u'],1,0.1416319999989355,0.4,1,0,FastFast,19,17,Woman,Right,
21,9,1,0.6505208999988099,['c'],0,right,['u'],1,0.14404869999998482,0.4,0,0,FastFast,19,17,Woman,Right,
22,9,1,0.6175643000005948,['c'],0,right,['u'],1,0.1330123999996431,0.4,0,0,FastFast,19,17,Woman,Right,
23,9,1,0.6677428000002692,['c'],0,right,['u'],1,0.182488899999953,0.4,0,0,FastFast,19,17,Woman,Right,
24,9,1,2.2512697000001936,['n'],1,right,['e'],0,0.3115748000000167,0.4,0,0,FastFast,19,17,Woman,Right,
25,9,1,1.9169425000000047,['c'],1,left,['u'],1,0.16060389999984181,0.1,1,0,FastFast,19,17,Woman,Right,
26,9,1,1.1506068999988202,['c'],1,left,['u'],1,0.22286050000002433,0.1,1,0,FastFast,19,17,Woman,Right,
27,9,1,3.4846771999982593,['n'],1,right,['e'],0,0.2054247000014584,0.1,0,0,FastFast,19,17,Woman,Right,
28,9,1,1.5841907000012725,['c'],0,right,['e'],0,0.31263770000077784,0.1,1,0,FastFast,19,17,Woman,Right,
29,9,1,1.6150357000005897,['c'],1,left,['u'],1,0.17493669999930717,0.2,1,0,FastFast,19,17,Woman,Right,
30,9,1,2.0323909999988246,['c'],0,right,['e'],0,0.2171121999999741,0.4,1,0,FastFast,19,17,Woman,Right,
31,9,1,0.7167826999993849,['c'],0,right,['u'],1,0.14942669999982172,0.2,0,0,FastFast,19,17,Woman,Right,
32,9,1,0.9005262999999104,['c'],1,left,['u'],1,0.3506595999988349,0.4,1,0,FastFast,19,17,Woman,Right,
33,9,1,0.6842625000008411,['c'],1,left,['u'],1,0.151201000000583,0.2,1,0,FastFast,19,17,Woman,Right,
34,9,1,0.7516467000004923,['c'],1,left,['u'],1,0.06877979999990202,0.4,1,0,FastFast,19,17,Woman,Right,
35,9,1,0.5343278999989707,['c'],1,left,['u'],1,0.07874259999880451,0.4,1,0,FastFast,19,17,Woman,Right,
36,9,1,0.5674684000005072,['c'],1,left,['u'],1,0.11900429999877815,0.1,1,0,FastFast,19,17,Woman,Right,
37,9,1,0.49988130000019737,['c'],1,left,['u'],1,0.08034000000043306,0.2,1,0,FastFast,19,17,Woman,Right,
38,9,1,0.8173129000006156,['c'],1,left,['u'],1,0.11092139999891515,0.1,1,0,FastFast,19,17,Woman,Right,
39,9,1,0.7500829000000522,['c'],0,right,['u'],1,0.12715550000029907,0.2,0,0,FastFast,19,17,Woman,Right,
40,9,1,0.7007155000010243,['c'],1,left,['u'],1,0.1605849000006856,0.4,1,0,FastFast,19,17,Woman,Right,
41,9,1,0.5176387999999861,['c'],1,left,['u'],1,0.15187880000121368,0.1,1,0,FastFast,19,17,Woman,Right,
42,9,1,0.5343429000004107,['c'],0,right,['u'],1,0.1589481999999407,0.1,0,0,FastFast,19,17,Woman,Right,
43,9,1,0.6344528999998147,['c'],0,right,['u'],1,0.17762840000068536,0.4,0,0,FastFast,19,17,Woman,Right,
44,9,1,0.716707800000222,['c'],1,left,['u'],1,0.14611110000078043,0.2,1,0,FastFast,19,17,Woman,Right,
45,9,1,0.6664018999999826,['c'],1,left,['u'],1,0.11616250000042783,0.2,1,0,FastFast,19,17,Woman,Right,
46,9,1,4.383904600001188,['n'],1,right,['e'],0,0.17745410000134143,0.4,0,0,FastFast,19,17,Woman,Right,
47,9,1,1.0685381000002963,['c'],1,left,['u'],1,0.21056880000105593,0.4,1,0,FastFast,19,17,Woman,Right,
48,9,1,2.684887500001423,['c'],1,left,['e'],0,0.7055738999988534,0.4,0,0,FastFast,19,17,Woman,Right,
49,9,1,1.3342020999989472,['n'],1,right,['e'],0,0.7547257000005629,0.2,0,0,FastFast,19,17,Woman,Right,
50,9,1,1.1835009999995236,['c'],1,left,['e'],0,1.0003106999993179,0.2,0,0,FastFast,19,17,Woman,Right,
51,9,1,1.3523881000000983,['n'],1,right,['u'],1,0.2521102000009705,0.4,1,0,FastFast,19,17,Woman,Right,
52,9,1,2.300897299999633,['n'],1,right,['u'],1,0.3123353999999381,0.2,1,0,FastFast,19,17,Woman,Right,
53,9,1,1.0179418999996415,['n'],1,right,['e'],0,0.19789850000051956,0.1,0,0,FastFast,19,17,Woman,Right,
54,9,1,1.1825762000007671,['n'],0,left,['e'],0,0.08071670000026643,0.2,1,0,FastFast,19,17,Woman,Right,
55,9,1,1.4506490000003396,['c'],0,right,['u'],1,0.22953859999870474,0.1,0,0,FastFast,19,17,Woman,Right,
56,9,1,0.9517646999993303,['c'],0,right,['u'],1,0.16852320000180043,0.1,0,0,FastFast,19,17,Woman,Right,
57,9,1,1.1019845999999234,['c'],1,left,['u'],1,0.12025490000087302,0.2,1,0,FastFast,19,17,Woman,Right,
58,9,1,0.7178090999987035,['c'],1,left,['u'],1,0.13671879999856174,0.4,1,0,FastFast,19,17,Woman,Right,
59,9,1,1.8824148000003333,['c'],0,right,['e'],0,0.23604169999998703,0.2,1,0,FastFast,19,17,Woman,Right,
0,10,1,2.0842377999997552,['c'],1,left,['e'],0,0.6141731999996409,0.2,0,0,AccFast,19,17,Woman,Right,
1,10,1,1.784343600000284,['n'],1,right,['e'],0,0.24796779999996943,0.2,0,0,AccFast,19,17,Woman,Right,
2,10,1,2.900389999998879,['c'],0,right,['e'],0,0.17270759999883012,0.2,1,0,AccFast,19,17,Woman,Right,
3,10,1,2.316578899999513,['c'],0,right,['e'],0,0.1719914000004792,0.2,1,0,AccFast,19,17,Woman,Right,
4,10,1,1.4332044999991922,['c'],1,left,['e'],0,0.28550040000118315,0.2,0,0,AccFast,19,17,Woman,Right,
5,10,1,0.9508841000006214,['c'],1,left,['e'],0,0.23863119999987248,0.4,0,0,AccFast,19,17,Woman,Right,
6,10,1,3.1012449999998353,['c'],0,right,['e'],0,1.3080060000011144,0.1,1,0,AccFast,19,17,Woman,Right,
7,10,1,1.0675411000011081,['n'],1,right,['e'],0,0.89561010000034,0.4,0,0,AccFast,19,17,Woman,Right,
8,10,1,0.9838149999995949,['n'],1,right,['e'],0,0.2149370999995881,0.2,0,0,AccFast,19,17,Woman,Right,
9,10,1,1.3178640999994968,['c'],1,left,['u'],1,0.39551829999982147,0.4,1,0,AccFast,19,17,Woman,Right,
10,10,1,2.066647899999225,['n'],1,right,['e'],0,0.3478323999988788,0.2,0,0,AccFast,19,17,Woman,Right,
11,10,1,0.8664561000005051,['n'],1,right,['e'],0,0.18970090000038908,0.2,0,0,AccFast,19,17,Woman,Right,
12,10,1,2.234123099999124,['n'],0,left,['e'],0,0.17459950000011304,0.1,1,0,AccFast,19,17,Woman,Right,
13,10,1,0.9676307000008819,['n'],0,left,['e'],0,0.1331081999996968,0.1,1,0,AccFast,19,17,Woman,Right,
14,10,1,1.050256200000149,['c'],1,left,['e'],0,0.230540700000347,0.2,0,0,AccFast,19,17,Woman,Right,
15,10,1,1.249907199999143,['c'],1,left,['e'],0,0.28584269999919343,0.1,0,0,AccFast,19,17,Woman,Right,
16,10,1,1.332061099999919,['c'],0,right,['e'],0,0.288111800000479,0.1,1,0,AccFast,19,17,Woman,Right,
17,10,1,1.8679326999990735,['c'],0,right,['e'],0,0.23585309999907622,0.2,1,0,AccFast,19,17,Woman,Right,
18,10,1,1.252672500000699,['c'],1,left,['e'],0,0.22702669999853242,0.1,0,0,AccFast,19,17,Woman,Right,
19,10,1,0.8840247000007366,['c'],1,left,['e'],0,0.20155820000036329,0.4,0,0,AccFast,19,17,Woman,Right,
20,10,1,1.0833378000006633,['n'],1,right,['e'],0,0.20083729999896605,0.1,0,0,AccFast,19,17,Woman,Right,
21,10,1,1.7495624999992287,['c'],1,left,['u'],1,0.18904620000103023,0.2,1,0,AccFast,19,17,Woman,Right,
22,10,1,1.700010000000475,['c'],1,left,['u'],1,0.27539059999980964,0.2,1,0,AccFast,19,17,Woman,Right,
23,10,1,3.8331999000001815,['c'],0,right,['u'],1,0.16243290000056732,0.2,0,0,AccFast,19,17,Woman,Right,
24,10,1,1.9838348000012047,['c'],0,right,['u'],1,0.22243779999917024,0.1,0,0,AccFast,19,17,Woman,Right,
25,10,1,1.7344544999996288,['c'],0,right,['u'],1,0.17835899999954563,0.1,0,0,AccFast,19,17,Woman,Right,
26,10,1,2.4496856999994634,['c'],1,left,['u'],1,0.17298099999970873,0.4,1,0,AccFast,19,17,Woman,Right,
27,10,1,1.0335131000010733,['c'],1,left,['u'],1,0.1263130999996065,0.4,1,0,AccFast,19,17,Woman,Right,
28,10,1,0.9681903000000602,['n'],1,right,['u'],1,1.3820042999996076,0.4,1,0,AccFast,19,17,Woman,Right,
29,10,1,1.4997791000005236,['c'],0,right,['e'],0,0.22841259999950125,0.1,1,0,AccFast,19,17,Woman,Right,
30,10,1,1.5668578000004345,['c'],1,left,['u'],1,0.6389596000008169,0.4,1,0,AccFast,19,17,Woman,Right,
31,10,1,1.5676900999987993,['c'],1,left,['u'],1,0.12128949999896577,0.1,1,0,AccFast,19,17,Woman,Right,
32,10,1,2.300199400000565,['c'],1,left,['u'],1,0.17115409999860276,0.4,1,0,AccFast,19,17,Woman,Right,
33,10,1,0.9673646999999619,['c'],1,left,['u'],1,0.16018030000122963,0.4,1,0,AccFast,19,17,Woman,Right,
34,10,1,1.4327950999995664,['c'],1,left,['u'],1,0.16354759999921953,0.4,1,0,AccFast,19,17,Woman,Right,
35,10,1,3.0331591999984084,['n'],1,right,['u'],1,0.9335740000005899,0.4,1,0,AccFast,19,17,Woman,Right,
36,10,1,0.9347035000009782,['n'],1,right,['u'],1,0.20539329999883194,0.4,1,0,AccFast,19,17,Woman,Right,
37,10,1,1.7324641000013798,['n'],1,right,['u'],1,0.11498479999863775,0.1,1,0,AccFast,19,17,Woman,Right,
38,10,1,0.7675791000001482,['n'],1,right,['u'],1,0.2581938999992417,0.4,1,0,AccFast,19,17,Woman,Right,
39,10,1,1.0173657999985153,['n'],1,right,['u'],1,0.20882480000000214,0.2,1,0,AccFast,19,17,Woman,Right,
40,10,1,1.1331826000005094,['n'],1,right,['u'],1,0.23834030000034545,0.2,1,0,AccFast,19,17,Woman,Right,
41,10,1,1.0845133999991958,['c'],0,right,['e'],0,0.37932740000178455,0.1,1,0,AccFast,19,17,Woman,Right,
42,10,1,1.0001800999998522,['c'],1,left,['e'],0,0.19886899999983143,0.2,0,0,AccFast,19,17,Woman,Right,
43,10,1,1.26624670000092,['n'],0,left,['e'],0,0.14262430000053428,0.1,1,0,AccFast,19,17,Woman,Right,
44,10,1,1.700857800000449,['c'],1,left,['u'],1,0.19895439999891096,0.4,1,0,AccFast,19,17,Woman,Right,
45,10,1,1.5330401999999594,['c'],1,left,['u'],1,0.27668569999877946,0.2,1,0,AccFast,19,17,Woman,Right,
46,10,1,0.7180659999994532,['c'],1,left,['u'],1,0.15922330000103102,0.4,1,0,AccFast,19,17,Woman,Right,
47,10,1,2.266194399999222,['n'],1,right,['u'],1,0.20918720000008761,0.2,1,0,AccFast,19,17,Woman,Right,
48,10,1,1.8176504999992176,['n'],1,right,['u'],1,0.1463034999997035,0.4,1,0,AccFast,19,17,Woman,Right,
49,10,1,3.918025699998907,['n'],0,left,['e'],0,0.14716870000120252,0.2,1,0,AccFast,19,17,Woman,Right,
50,10,1,1.1005595999995421,['c'],1,left,['e'],0,0.21072000000094704,0.1,0,0,AccFast,19,17,Woman,Right,
51,10,1,0.6675190999994811,['n'],0,left,['e'],0,0.35446589999992284,0.4,1,0,AccFast,19,17,Woman,Right,
52,10,1,1.083673600000111,['n'],1,right,['e'],0,0.33238409999830765,0.2,0,0,AccFast,19,17,Woman,Right,
53,10,1,0.883991499998956,['n'],0,left,['e'],0,0.17347520000112127,0.4,1,0,AccFast,19,17,Woman,Right,
54,10,1,2.3322719000007055,['n'],1,right,['e'],0,0.2519107999996777,0.1,0,0,AccFast,19,17,Woman,Right,
55,10,1,0.8357022999989567,['n'],1,right,['e'],0,0.19400259999929403,0.1,0,0,AccFast,19,17,Woman,Right,
56,10,1,1.3660871000010957,['n'],1,right,['e'],0,0.18292029999975057,0.1,0,0,AccFast,19,17,Woman,Right,
57,10,1,1.6821495999993203,['n'],0,left,['u'],1,0.1906925000002957,0.4,0,0,AccFast,19,17,Woman,Right,
58,10,1,1.6514194999999745,['n'],0,left,['e'],0,0.23181949999889184,0.1,1,0,AccFast,19,17,Woman,Right,
59,10,1,2.083235899999636,['n'],1,right,['u'],1,0.17355630000020028,0.1,1,0,AccFast,19,17,Woman,Right,
0,11,1,2.7174377999999706,['n'],0,left,['e'],0,4.70953770000051,0.1,1,0,AccAcc,19,17,Woman,Right,
1,11,1,2.365959999999177,['n'],0,left,['e'],0,2.1898118000008253,0.4,1,0,AccAcc,19,17,Woman,Right,
2,11,1,1.2675489000012021,['c'],1,left,['e'],0,0.5654575000007753,0.2,0,0,AccAcc,19,17,Woman,Right,
3,11,1,1.4511774000002333,['c'],1,left,['e'],0,0.4404264000004332,0.2,0,0,AccAcc,19,17,Woman,Right,
4,11,1,2.0345180000003893,['c'],1,left,['e'],0,0.4709309999998368,0.1,0,0,AccAcc,19,17,Woman,Right,
5,11,1,1.8177421000000322,['n'],1,right,['e'],0,0.862713900000017,0.1,0,0,AccAcc,19,17,Woman,Right,
6,11,1,1.5175777999993443,['n'],1,right,['e'],0,0.5615868000004411,0.1,0,0,AccAcc,19,17,Woman,Right,
7,11,1,1.717228299999988,['n'],1,right,['e'],0,0.5686341000000539,0.2,0,0,AccAcc,19,17,Woman,Right,
8,11,1,2.117098700000497,['n'],1,right,['e'],0,0.47918360000039684,0.2,0,0,AccAcc,19,17,Woman,Right,
9,11,1,0.9677676999999676,['n'],0,left,['e'],0,0.471557800001392,0.1,1,0,AccAcc,19,17,Woman,Right,
10,11,1,0.816852399999334,['n'],1,right,['e'],0,0.3752276000013808,0.2,0,0,AccAcc,19,17,Woman,Right,
11,11,1,1.0670998000005056,['n'],1,right,['e'],0,0.2720626000009361,0.2,0,0,AccAcc,19,17,Woman,Right,
12,11,1,2.0013005999990128,['c'],1,left,['e'],0,1.5432025999998586,0.4,0,0,AccAcc,19,17,Woman,Right,
13,11,1,1.916769800000111,['n'],1,right,['e'],0,0.5603946999999607,0.4,0,0,AccAcc,19,17,Woman,Right,
14,11,1,1.7181286999984877,['c'],1,left,['e'],0,1.463594799999555,0.2,0,0,AccAcc,19,17,Woman,Right,
15,11,1,2.2837355000010575,['c'],0,right,['e'],0,0.7881969999998546,0.1,1,0,AccAcc,19,17,Woman,Right,
16,11,1,2.7172386000002007,['c'],1,left,['u'],1,0.7307459999992716,0.4,1,0,AccAcc,19,17,Woman,Right,
17,11,1,1.4671539000009943,['c'],1,left,['u'],1,0.3411429000007047,0.4,1,0,AccAcc,19,17,Woman,Right,
18,11,1,3.1344621000007464,['c'],1,left,['e'],0,0.41287460000057763,0.1,0,0,AccAcc,19,17,Woman,Right,
19,11,1,1.3832304999996268,['c'],0,right,['e'],0,0.6958768000004056,0.1,1,0,AccAcc,19,17,Woman,Right,
20,11,1,1.3679352999988623,['n'],1,right,['e'],0,0.45539300000018557,0.2,0,0,AccAcc,19,17,Woman,Right,
21,11,1,2.2175307999987126,['n'],1,right,['e'],0,0.28730429999995977,0.2,0,0,AccAcc,19,17,Woman,Right,
22,11,1,1.4178147000002355,['n'],1,right,['e'],0,0.460992600001191,0.4,0,0,AccAcc,19,17,Woman,Right,
23,11,1,1.7013573000003817,['n'],0,left,['e'],0,0.2814768999996886,0.1,1,0,AccAcc,19,17,Woman,Right,
24,11,1,2.117779199999859,['c'],1,left,['e'],0,0.6356079000015598,0.2,0,0,AccAcc,19,17,Woman,Right,
25,11,1,3.3163358999991033,['c'],0,right,['e'],0,0.36886169999888807,0.2,1,0,AccAcc,19,17,Woman,Right,
26,11,1,2.3675500999997894,['c'],0,right,['e'],0,0.5012819000003219,0.1,1,0,AccAcc,19,17,Woman,Right,
27,11,1,4.734011000000464,['c'],1,left,['e'],0,1.062561499998992,0.4,0,0,AccAcc,19,17,Woman,Right,
28,11,1,5.016752900000938,x,-99,left,none,-99,-99,0.2,-99,1,AccAcc,19,17,Woman,Right,
29,11,1,2.200708599999416,['c'],1,left,['e'],0,0.5608116000003065,0.4,0,0,AccAcc,19,17,Woman,Right,
30,11,1,1.200370300000941,['n'],1,right,['u'],1,1.8052320999995572,0.4,1,0,AccAcc,19,17,Woman,Right,
31,11,1,2.001072999999451,['c'],0,right,['e'],0,0.3437004000006709,0.1,1,0,AccAcc,19,17,Woman,Right,
32,11,1,2.3505826000000525,['c'],0,right,['e'],0,0.44668150000143214,0.1,1,0,AccAcc,19,17,Woman,Right,
33,11,1,1.6176229000011517,['n'],1,right,['u'],1,1.2471170000007987,0.4,1,0,AccAcc,19,17,Woman,Right,
34,11,1,0.9842201999999816,['n'],1,right,['u'],1,0.7123365000006743,0.4,1,0,AccAcc,19,17,Woman,Right,
35,11,1,1.1001908000016556,['n'],0,left,['u'],1,0.6578645999998116,0.1,0,0,AccAcc,19,17,Woman,Right,
36,11,1,1.1519996000006358,['n'],1,right,['u'],1,0.6360894000008557,0.1,1,0,AccAcc,19,17,Woman,Right,
37,11,1,1.1827610000000277,['c'],1,left,['u'],1,0.9018957000007504,0.4,1,0,AccAcc,19,17,Woman,Right,
38,11,1,1.000909500000489,['c'],1,left,['u'],1,0.7806552999991254,0.4,1,0,AccAcc,19,17,Woman,Right,
39,11,1,1.4835402999997314,['n'],1,right,['u'],1,0.8359356000000844,0.2,1,0,AccAcc,19,17,Woman,Right,
40,11,1,1.6155129999988276,['n'],1,right,['u'],1,0.4688676999994641,0.1,1,0,AccAcc,19,17,Woman,Right,
41,11,1,1.7170461999994586,['n'],1,right,['u'],1,0.5268937000000733,0.4,1,0,AccAcc,19,17,Woman,Right,
42,11,1,2.417047300001286,['c'],1,left,['e'],0,1.1806120000001101,0.2,0,0,AccAcc,19,17,Woman,Right,
43,11,1,1.2330440999994607,['n'],1,right,['u'],1,1.469843299999411,0.4,1,0,AccAcc,19,17,Woman,Right,
44,11,1,2.100027599999521,['c'],1,left,['e'],0,1.4108589999996184,0.1,0,0,AccAcc,19,17,Woman,Right,
45,11,1,0.8158493999999337,['c'],1,left,['e'],0,0.7644799999998213,0.1,0,0,AccAcc,19,17,Woman,Right,
46,11,1,1.549273799999355,['n'],1,right,['e'],0,0.6418924999998126,0.2,0,0,AccAcc,19,17,Woman,Right,
47,11,1,1.1682599000014307,['c'],1,left,['e'],0,0.668293699998685,0.2,0,0,AccAcc,19,17,Woman,Right,
48,11,1,1.134596200001397,['c'],1,left,['e'],0,1.1258108000001812,0.4,0,0,AccAcc,19,17,Woman,Right,
49,11,1,1.6348565000007511,['c'],1,left,['u'],1,0.9863260000001901,0.4,1,0,AccAcc,19,17,Woman,Right,
50,11,1,2.01660240000092,['c'],1,left,['u'],1,1.092630699999063,0.1,1,0,AccAcc,19,17,Woman,Right,
51,11,1,3.166879099999278,['n'],1,right,['u'],1,0.8292460000011488,0.2,1,0,AccAcc,19,17,Woman,Right,
52,11,1,2.6010466999996424,['n'],1,right,['e'],0,2.1504550999998173,0.4,0,0,AccAcc,19,17,Woman,Right,
53,11,1,1.9341299000006984,['c'],1,left,['e'],0,1.333784899999955,0.1,0,0,AccAcc,19,17,Woman,Right,
54,11,1,1.6007644000001164,['c'],1,left,['u'],1,1.5232406000013725,0.4,1,0,AccAcc,19,17,Woman,Right,
55,11,1,1.8512159000001702,['n'],1,right,['u'],1,4.142657299998973,0.2,1,0,AccAcc,19,17,Woman,Right,
56,11,1,1.6671685999990586,['c'],1,left,['e'],0,3.178177699999651,0.2,0,0,AccAcc,19,17,Woman,Right,
57,11,1,2.417997300000934,['n'],1,right,['e'],0,0.9247709999999643,0.4,0,0,AccAcc,19,17,Woman,Right,
58,11,1,1.4335160999999061,['c'],0,right,['u'],1,1.2338925000003655,0.2,0,0,AccAcc,19,17,Woman,Right,
59,11,1,1.0172837000009167,['c'],1,left,['u'],1,0.7295446999996784,0.1,1,0,AccAcc,19,17,Woman,Right,
0,12,1,2.083133000000089,['c'],1,left,['u'],1,1.5471438000004127,0.4,1,0,FastAcc,19,17,Woman,Right,
1,12,1,0.6671632999987196,['c'],1,left,['u'],1,0.32491469999877154,0.4,1,0,FastAcc,19,17,Woman,Right,
2,12,1,1.084724800000913,['n'],1,right,['e'],0,0.6704606000002968,0.2,0,0,FastAcc,19,17,Woman,Right,
3,12,1,0.8662514999996347,['c'],1,left,['e'],0,1.3002961999991385,0.2,0,0,FastAcc,19,17,Woman,Right,
4,12,1,0.7679380000008678,['c'],1,left,['u'],1,0.691232699999091,0.4,1,0,FastAcc,19,17,Woman,Right,
5,12,1,1.1326661000002787,['c'],0,right,['u'],1,1.966227799999615,0.2,0,0,FastAcc,19,17,Woman,Right,
6,12,1,0.7019324999982928,['c'],1,left,['u'],1,1.8455676000012318,0.4,1,0,FastAcc,19,17,Woman,Right,
7,12,1,1.7844076999990648,['n'],1,right,['e'],0,0.8547134000000369,0.2,0,0,FastAcc,19,17,Woman,Right,
8,12,1,0.6164332000007562,['c'],0,right,['e'],0,1.1183726999988721,0.2,1,0,FastAcc,19,17,Woman,Right,
9,12,1,1.1181173000004492,['n'],1,right,['e'],0,2.279419800001051,0.2,0,0,FastAcc,19,17,Woman,Right,
10,12,1,2.2344004999995377,['n'],0,left,['e'],0,0.4212048000008508,0.1,1,0,FastAcc,19,17,Woman,Right,
11,12,1,1.0171647999995912,['c'],1,left,['e'],0,1.0861445999998978,0.4,0,0,FastAcc,19,17,Woman,Right,
12,12,1,0.8177120000000286,['c'],1,left,['u'],1,0.9326669999991282,0.4,1,0,FastAcc,19,17,Woman,Right,
13,12,1,0.8998203000010108,['c'],0,right,['e'],0,0.9741625999995449,0.1,1,0,FastAcc,19,17,Woman,Right,
14,12,1,1.8831210999996983,['c'],0,right,['e'],0,0.6546498999996402,0.1,1,0,FastAcc,19,17,Woman,Right,
15,12,1,1.366005400001086,['n'],1,right,['u'],1,1.7924363000001904,0.4,1,0,FastAcc,19,17,Woman,Right,
16,12,1,0.5180161999996926,['c'],1,left,['u'],1,1.2062003999999433,0.4,1,0,FastAcc,19,17,Woman,Right,
17,12,1,1.6001558000007208,['c'],1,left,['e'],0,5.081204199999775,0.4,0,0,FastAcc,19,17,Woman,Right,
18,12,1,0.8500316999998176,['c'],0,right,['u'],1,1.9188536000001477,0.1,0,0,FastAcc,19,17,Woman,Right,
19,12,1,1.2005245000000286,['c'],1,left,['u'],1,3.0441836999998486,0.2,1,0,FastAcc,19,17,Woman,Right,
20,12,1,1.5183907999999064,['n'],1,right,['e'],0,1.2006234999989829,0.1,0,0,FastAcc,19,17,Woman,Right,
21,12,1,0.9171635000002425,['c'],0,right,['e'],0,2.79873249999946,0.1,1,0,FastAcc,19,17,Woman,Right,
22,12,1,2.334316200000103,['n'],0,left,['e'],0,2.7877281999990373,0.1,1,0,FastAcc,19,17,Woman,Right,
23,12,1,2.401076300000568,['c'],1,left,['e'],0,1.5589197000008426,0.2,0,0,FastAcc,19,17,Woman,Right,
24,12,1,0.9825039999996079,['n'],1,right,['u'],1,1.4768399999993562,0.4,1,0,FastAcc,19,17,Woman,Right,
25,12,1,1.4352561000014248,['n'],1,right,['u'],1,2.530602500000896,0.4,1,0,FastAcc,19,17,Woman,Right,
26,12,1,0.7839980000007927,['n'],1,right,['u'],1,1.4244620999998006,0.2,1,0,FastAcc,19,17,Woman,Right,
27,12,1,1.2345832999999402,['n'],0,left,['u'],1,2.6976069000011194,0.1,0,0,FastAcc,19,17,Woman,Right,
28,12,1,0.7505048000002716,['n'],1,right,['u'],1,1.169548500000019,0.4,1,0,FastAcc,19,17,Woman,Right,
29,12,1,0.8850748999993812,['n'],1,right,['e'],0,2.177649899998869,0.2,0,0,FastAcc,19,17,Woman,Right,
30,12,1,1.650984800000515,['c'],1,left,['e'],0,1.451791300001787,0.1,0,0,FastAcc,19,17,Woman,Right,
31,12,1,0.9678016000016214,['n'],1,right,['u'],1,3.022027299999536,0.1,1,0,FastAcc,19,17,Woman,Right,
32,12,1,1.5683561999994708,['n'],0,left,['u'],1,3.1292948000009346,0.2,0,0,FastAcc,19,17,Woman,Right,
33,12,1,1.0667026999999507,['c'],1,left,['e'],0,1.3321337000015774,0.2,0,0,FastAcc,19,17,Woman,Right,
34,12,1,1.3674215999999433,['n'],1,right,['e'],0,1.8657192999999097,0.2,0,0,FastAcc,19,17,Woman,Right,
35,12,1,1.2154730999991443,['n'],1,right,['e'],0,1.377688999999009,0.2,0,0,FastAcc,19,17,Woman,Right,
36,12,1,1.0194766000004165,['n'],0,left,['e'],0,1.491925900001661,0.1,1,0,FastAcc,19,17,Woman,Right,
37,12,1,1.2847719000001234,['n'],1,right,['u'],1,1.0475334000002476,0.1,1,0,FastAcc,19,17,Woman,Right,
38,12,1,1.7014254999994591,['n'],1,right,['u'],1,2.172081300001082,0.1,1,0,FastAcc,19,17,Woman,Right,
39,12,1,1.4325410000001284,['c'],1,left,['e'],0,0.9920353000015893,0.2,0,0,FastAcc,19,17,Woman,Right,
40,12,1,0.9011917999996513,['c'],1,left,['e'],0,1.9258187000014004,0.4,0,0,FastAcc,19,17,Woman,Right,
41,12,1,1.2349900000008347,['n'],1,right,['e'],0,1.0669622000004892,0.2,0,0,FastAcc,19,17,Woman,Right,
42,12,1,0.7330536999998003,['n'],1,right,['e'],0,1.1251813999988372,0.2,0,0,FastAcc,19,17,Woman,Right,
43,12,1,0.7510747999986052,['n'],1,right,['u'],1,4.188263999998526,0.2,1,0,FastAcc,19,17,Woman,Right,
44,12,1,0.6667906000002404,['n'],1,right,['e'],0,1.5334330999994563,0.2,0,0,FastAcc,19,17,Woman,Right,
45,12,1,0.8838474999993196,['c'],1,left,['u'],1,1.294494499999928,0.4,1,0,FastAcc,19,17,Woman,Right,
46,12,1,1.0011568000008992,['n'],1,right,['u'],1,1.8295906000003015,0.1,1,0,FastAcc,19,17,Woman,Right,
47,12,1,0.602064300001075,['c'],1,left,['u'],1,2.4876156999998784,0.1,1,0,FastAcc,19,17,Woman,Right,
48,12,1,1.8841302999990148,['c'],1,left,['u'],1,0.7946406000010029,0.1,1,0,FastAcc,19,17,Woman,Right,
49,12,1,1.001716299999316,['c'],1,left,['u'],1,1.5095757999988564,0.4,1,0,FastAcc,19,17,Woman,Right,
50,12,1,0.6334131000003254,['c'],1,left,['u'],1,1.4596897999999783,0.4,1,0,FastAcc,19,17,Woman,Right,
51,12,1,1.5346888000003673,['c'],0,right,['u'],1,1.0858215000007476,0.1,0,0,FastAcc,19,17,Woman,Right,
52,12,1,1.151474899999812,['c'],1,left,['u'],1,0.9188239000013709,0.1,1,0,FastAcc,19,17,Woman,Right,
53,12,1,1.1008312000012666,['c'],1,left,['u'],1,1.0485190999988845,0.4,1,0,FastAcc,19,17,Woman,Right,
54,12,1,0.883829299998979,['c'],0,right,['u'],1,1.0538563999998587,0.2,0,0,FastAcc,19,17,Woman,Right,
55,12,1,2.2510251000003336,['c'],0,right,['u'],1,0.5559704000006604,0.4,0,0,FastAcc,19,17,Woman,Right,
56,12,1,2.2843379999994795,['c'],1,left,['u'],1,0.5411095999988902,0.1,1,0,FastAcc,19,17,Woman,Right,
57,12,1,1.6177982999997766,['c'],1,left,['u'],1,0.6494918000007601,0.4,1,0,FastAcc,19,17,Woman,Right,
58,12,1,0.8181441999986419,['c'],1,left,['u'],1,0.5292009000004327,0.1,1,0,FastAcc,19,17,Woman,Right,
59,12,1,1.1507848000001104,['n'],1,right,['e'],0,0.8803132000011828,0.4,0,0,FastAcc,19,17,Woman,Right,
0,13,1,0.8009600999994291,['c'],0,right,['e'],0,0.45483920000151556,0.2,1,0,FastFast,19,17,Woman,Right,
1,13,1,0.6676392000008491,['c'],1,left,['e'],0,0.1406157000001258,0.1,0,0,FastFast,19,17,Woman,Right,
2,13,1,1.3338276999984373,['n'],1,right,['e'],0,0.27597919999971054,0.4,0,0,FastFast,19,17,Woman,Right,
3,13,1,0.8175539000003482,['c'],1,left,['u'],1,0.4748464000003878,0.4,1,0,FastFast,19,17,Woman,Right,
4,13,1,0.967775500001153,['n'],1,right,['e'],0,0.2599136999997427,0.4,0,0,FastFast,19,17,Woman,Right,
5,13,1,0.7679573999994318,['c'],1,left,['u'],1,0.1892152000000351,0.2,1,0,FastFast,19,17,Woman,Right,
6,13,1,1.1679297000009683,['c'],0,right,['e'],0,0.16979800000081013,0.2,1,0,FastFast,19,17,Woman,Right,
7,13,1,1.1517223000009835,['n'],0,left,['e'],0,0.24731969999993453,0.1,1,0,FastFast,19,17,Woman,Right,
8,13,1,0.9175866000005044,['n'],1,right,['e'],0,0.17192360000080953,0.2,0,0,FastFast,19,17,Woman,Right,
9,13,1,0.7342382999995607,['n'],1,right,['e'],0,0.20147539999925357,0.1,0,0,FastFast,19,17,Woman,Right,
10,13,1,1.300356699999611,['c'],1,left,['u'],1,0.1916889000003721,0.4,1,0,FastFast,19,17,Woman,Right,
11,13,1,0.7836177999997744,['c'],1,left,['u'],1,0.2200477000005776,0.4,1,0,FastFast,19,17,Woman,Right,
12,13,1,1.1996349999990343,['c'],1,left,['u'],1,0.21419969999988098,0.1,1,0,FastFast,19,17,Woman,Right,
13,13,1,1.2011631999994279,['n'],1,right,['e'],0,0.2225216000006185,0.4,0,0,FastFast,19,17,Woman,Right,
14,13,1,1.4167785000008735,['c'],0,right,['u'],1,0.22422369999912917,0.1,0,0,FastFast,19,17,Woman,Right,
15,13,1,0.6002325000008568,['c'],1,left,['u'],1,0.22570429999905173,0.4,1,0,FastFast,19,17,Woman,Right,
16,13,1,1.4005519000002096,['n'],1,right,['e'],0,0.29139500000019325,0.1,0,0,FastFast,19,17,Woman,Right,
17,13,1,0.8847607000006974,['c'],1,left,['e'],0,0.23103309999896737,0.1,0,0,FastFast,19,17,Woman,Right,
18,13,1,1.3177957000007154,['c'],1,left,['e'],0,0.2346242000003258,0.2,0,0,FastFast,19,17,Woman,Right,
19,13,1,0.9345656000004965,['c'],1,left,['u'],1,0.1743053999998665,0.4,1,0,FastFast,19,17,Woman,Right,
20,13,1,1.0504699000011897,['c'],0,right,['e'],0,0.22381619999941904,0.1,1,0,FastFast,19,17,Woman,Right,
21,13,1,1.4006033000005118,['n'],1,right,['e'],0,0.6740857000004326,0.4,0,0,FastFast,19,17,Woman,Right,
22,13,1,0.967573199999606,['n'],1,right,['e'],0,0.17865139999958046,0.4,0,0,FastFast,19,17,Woman,Right,
23,13,1,1.0006541000002471,['c'],1,left,['e'],0,0.18218570000135514,0.4,0,0,FastFast,19,17,Woman,Right,
24,13,1,1.068388399999094,['c'],1,left,['u'],1,0.22967109999990498,0.1,1,0,FastFast,19,17,Woman,Right,
25,13,1,1.4345610000000306,['c'],1,left,['u'],1,0.14960770000107004,0.2,1,0,FastFast,19,17,Woman,Right,
26,13,1,1.9848068000010244,['n'],1,right,['e'],0,0.14630970000143861,0.2,0,0,FastFast,19,17,Woman,Right,
27,13,1,1.8505347999998776,['c'],1,left,['e'],0,0.13318450000042503,0.2,0,0,FastFast,19,17,Woman,Right,
28,13,1,1.5834756000003836,['n'],1,right,['e'],0,0.11474890000135929,0.1,0,0,FastFast,19,17,Woman,Right,
29,13,1,1.30078820000017,['n'],0,left,['e'],0,0.17236140000022715,0.2,1,0,FastFast,19,17,Woman,Right,
30,13,1,2.9510294000010617,['c'],0,right,['e'],0,0.59396949999973,0.4,1,0,FastFast,19,17,Woman,Right,
31,13,1,1.5833131999988836,['c'],1,left,['u'],1,0.19036339999911434,0.1,1,0,FastFast,19,17,Woman,Right,
32,13,1,1.267785099998946,['n'],1,right,['e'],0,0.21397369999976945,0.1,0,0,FastFast,19,17,Woman,Right,
33,13,1,1.4333062999994581,['n'],1,right,['e'],0,0.18342049999955634,0.4,0,0,FastFast,19,17,Woman,Right,
34,13,1,1.6840601000003517,['c'],1,left,['u'],1,0.07845930000075896,0.4,1,0,FastFast,19,17,Woman,Right,
35,13,1,0.6683333999990282,['c'],1,left,['u'],1,0.08341689999906521,0.1,1,0,FastFast,19,17,Woman,Right,
36,13,1,2.283510199999,['n'],1,right,['e'],0,0.12004789999991772,0.2,0,0,FastFast,19,17,Woman,Right,
37,13,1,2.216326300000219,['c'],1,left,['e'],0,0.2204120000005787,0.2,0,0,FastFast,19,17,Woman,Right,
38,13,1,1.1846738000003825,['c'],1,left,['u'],1,0.13414219999867782,0.2,1,0,FastFast,19,17,Woman,Right,
39,13,1,1.2839426999998977,['c'],0,right,['u'],1,0.25557300000036776,0.2,0,0,FastFast,19,17,Woman,Right,
40,13,1,1.0004664000007324,['c'],1,left,['e'],0,0.3204648000009911,0.2,0,0,FastFast,19,17,Woman,Right,
41,13,1,2.0333455999989383,['c'],1,left,['e'],0,1.077033899999151,0.1,0,0,FastFast,19,17,Woman,Right,
42,13,1,0.8173319000015908,['c'],1,left,['e'],0,0.17150860000037937,0.1,0,0,FastFast,19,17,Woman,Right,
43,13,1,0.6501535999996122,['c'],0,right,['e'],0,0.20496190000085335,0.4,1,0,FastFast,19,17,Woman,Right,
44,13,1,0.7673196999985521,['c'],1,left,['e'],0,0.15306609999970533,0.2,0,0,FastFast,19,17,Woman,Right,
45,13,1,2.817474100000254,['n'],1,right,['e'],0,0.5012109999988752,0.4,0,0,FastFast,19,17,Woman,Right,
46,13,1,1.1181046000001515,['n'],1,right,['u'],1,1.397958199999266,0.2,1,0,FastFast,19,17,Woman,Right,
47,13,1,2.067354200000409,['n'],1,right,['u'],1,0.15795250000155647,0.4,1,0,FastFast,19,17,Woman,Right,
48,13,1,1.9513530000003811,['n'],1,right,['u'],1,0.444277399999919,0.1,1,0,FastFast,19,17,Woman,Right,
49,13,1,0.6186213000000862,['n'],0,left,['e'],0,0.3405670000011014,0.1,1,0,FastFast,19,17,Woman,Right,
50,13,1,0.6507400999998936,['n'],1,right,['e'],0,0.0953763000015897,0.1,0,0,FastFast,19,17,Woman,Right,
51,13,1,0.5512218000003486,['c'],0,right,['e'],0,0.24797380000018165,0.2,1,0,FastFast,19,17,Woman,Right,
52,13,1,0.8168303000002197,['c'],0,right,['e'],0,0.4158320000005915,0.2,1,0,FastFast,19,17,Woman,Right,
53,13,1,0.5333350000000792,['c'],0,right,['e'],0,0.23560700000052748,0.2,1,0,FastFast,19,17,Woman,Right,
54,13,1,0.7849683000004006,['c'],1,left,['e'],0,0.11723299999903247,0.1,0,0,FastFast,19,17,Woman,Right,
55,13,1,0.967946300001131,['c'],1,left,['u'],1,0.1721482000011747,0.4,1,0,FastFast,19,17,Woman,Right,
56,13,1,1.2326386000004277,['c'],1,left,['u'],1,0.16764680000051158,0.1,1,0,FastFast,19,17,Woman,Right,
57,13,1,1.4005448999996588,['c'],0,right,['e'],0,0.1699150999993435,0.4,1,0,FastFast,19,17,Woman,Right,
58,13,1,0.9177127999992081,['c'],1,left,['e'],0,0.1778604000010091,0.4,0,0,FastFast,19,17,Woman,Right,
59,13,1,1.1689247999984218,['c'],0,right,['e'],0,0.5578244000007544,0.2,1,0,FastFast,19,17,Woman,Right,
0,14,1,1.8668202999997447,['c'],1,left,['e'],0,0.1663819000004878,0.2,0,0,AccFast,19,17,Woman,Right,
1,14,1,2.3008731000008993,['n'],0,left,['e'],0,0.6941561000003276,0.1,1,0,AccFast,19,17,Woman,Right,
2,14,1,1.9848351000000548,['n'],1,right,['u'],1,0.7332833000000392,0.4,1,0,AccFast,19,17,Woman,Right,
3,14,1,2.166839199999231,['c'],1,left,['e'],0,0.45962520000102813,0.2,0,0,AccFast,19,17,Woman,Right,
4,14,1,1.616907399999036,['n'],1,right,['u'],1,1.355434499999319,0.1,1,0,AccFast,19,17,Woman,Right,
5,14,1,1.050345699999525,['c'],1,left,['e'],0,0.4779753000002529,0.2,0,0,AccFast,19,17,Woman,Right,
6,14,1,1.0667317999996158,['c'],1,left,['u'],1,0.2747178999998141,0.1,1,0,AccFast,19,17,Woman,Right,
7,14,1,1.1670882999987953,['c'],1,left,['u'],1,0.33240610000029847,0.2,1,0,AccFast,19,17,Woman,Right,
8,14,1,0.8504493000000366,['c'],1,left,['u'],1,0.1906665000005887,0.4,1,0,AccFast,19,17,Woman,Right,
9,14,1,0.633065500000157,['c'],1,left,['u'],1,0.19290750000072876,0.2,1,0,AccFast,19,17,Woman,Right,
10,14,1,1.6516581000014412,['c'],0,right,['u'],1,0.4092854000009538,0.1,0,0,AccFast,19,17,Woman,Right,
11,14,1,0.5511507999999594,['c'],1,left,['u'],1,0.149438000000373,0.4,1,0,AccFast,19,17,Woman,Right,
12,14,1,0.7344069000009767,['c'],1,left,['u'],1,0.18042609999974957,0.1,1,0,AccFast,19,17,Woman,Right,
13,14,1,0.5511500000011438,['c'],1,left,['u'],1,0.21733300000050804,0.4,1,0,AccFast,19,17,Woman,Right,
14,14,1,1.0842995999992127,['n'],1,right,['e'],0,0.535514700000931,0.4,0,0,AccFast,19,17,Woman,Right,
15,14,1,1.0174989999995887,['n'],1,right,['e'],0,0.15599420000035025,0.2,0,0,AccFast,19,17,Woman,Right,
16,14,1,2.6333688000013353,['c'],1,left,['e'],0,0.6710650000004534,0.1,0,0,AccFast,19,17,Woman,Right,
17,14,1,1.166647699999885,['c'],1,left,['u'],1,0.26482820000092033,0.4,1,0,AccFast,19,17,Woman,Right,
18,14,1,1.4665944000007585,['n'],1,right,['e'],0,0.35742059999938647,0.2,0,0,AccFast,19,17,Woman,Right,
19,14,1,1.0672278000001825,['n'],1,right,['u'],1,0.33470350000061444,0.2,1,0,AccFast,19,17,Woman,Right,
20,14,1,1.700559199998679,['n'],1,right,['u'],1,0.5119826999998622,0.4,1,0,AccFast,19,17,Woman,Right,
21,14,1,1.7011215000002267,['c'],1,left,['e'],0,0.48939830000017537,0.1,0,0,AccFast,19,17,Woman,Right,
22,14,1,0.8015188000008493,['c'],1,left,['e'],0,0.23253350000049977,0.4,0,0,AccFast,19,17,Woman,Right,
23,14,1,1.4176444999993691,['c'],1,left,['e'],0,0.20068840000021737,0.4,0,0,AccFast,19,17,Woman,Right,
24,14,1,0.7824749999999767,['c'],1,left,['u'],1,0.16496129999904952,0.4,1,0,AccFast,19,17,Woman,Right,
25,14,1,1.9997273000008136,['c'],1,left,['u'],1,0.1603771999998571,0.1,1,0,AccFast,19,17,Woman,Right,
26,14,1,1.1339337999997952,['n'],1,right,['e'],0,0.33428839999942284,0.2,0,0,AccFast,19,17,Woman,Right,
27,14,1,1.433507699999609,['c'],1,left,['u'],1,0.2504442999997991,0.2,1,0,AccFast,19,17,Woman,Right,
28,14,1,0.7680801000005886,['c'],1,left,['u'],1,0.1634976999994251,0.2,1,0,AccFast,19,17,Woman,Right,
29,14,1,0.6186937000002217,['c'],0,right,['u'],1,0.1824960000012652,0.1,0,0,AccFast,19,17,Woman,Right,
30,14,1,0.8672439000001759,['n'],1,right,['e'],0,0.17532530000062252,0.2,0,0,AccFast,19,17,Woman,Right,
31,14,1,2.7344646000001376,['n'],1,right,['e'],0,0.12616669999988517,0.1,0,0,AccFast,19,17,Woman,Right,
32,14,1,2.001422999999704,['n'],1,right,['u'],1,0.2352532999993855,0.4,1,0,AccFast,19,17,Woman,Right,
33,14,1,1.4336217000000033,['n'],1,right,['e'],0,0.13877040000079433,0.2,0,0,AccFast,19,17,Woman,Right,
34,14,1,2.78433109999969,['c'],1,left,['e'],0,0.13633969999864348,0.1,0,0,AccFast,19,17,Woman,Right,
35,14,1,3.6171573999999964,['c'],1,left,['e'],0,0.24547899999924994,0.2,0,0,AccFast,19,17,Woman,Right,
36,14,1,0.6850460999994539,['n'],1,right,['e'],0,0.2739971000009973,0.2,0,0,AccFast,19,17,Woman,Right,
37,14,1,0.967995000000883,['n'],1,right,['e'],0,0.09892550000040501,0.1,0,0,AccFast,19,17,Woman,Right,
38,14,1,1.6166176999995514,['n'],1,right,['e'],0,0.14462149999963003,0.4,0,0,AccFast,19,17,Woman,Right,
39,14,1,1.1669545999993716,['n'],1,right,['e'],0,0.17482970000128262,0.4,0,0,AccFast,19,17,Woman,Right,
40,14,1,0.6179041000013967,['n'],1,right,['e'],0,0.09787229999892588,0.1,0,0,AccFast,19,17,Woman,Right,
41,14,1,0.8338359000008495,['n'],0,left,['e'],0,0.0788116000003356,0.2,1,0,AccFast,19,17,Woman,Right,
42,14,1,0.7337350999987393,['n'],1,right,['e'],0,0.08050439999897208,0.4,0,0,AccFast,19,17,Woman,Right,
43,14,1,0.5848459000008006,['n'],0,left,['e'],0,0.36002710000138904,0.1,1,0,AccFast,19,17,Woman,Right,
44,14,1,0.6342475000001286,['n'],1,right,['e'],0,0.09898770000108925,0.1,0,0,AccFast,19,17,Woman,Right,
45,14,1,0.8675701000011031,['n'],1,right,['e'],0,0.14235899999948742,0.4,0,0,AccFast,19,17,Woman,Right,
46,14,1,3.016930499999944,['c'],1,left,['e'],0,0.16298950000054901,0.2,0,0,AccFast,19,17,Woman,Right,
47,14,1,2.200469700001122,['c'],1,left,['e'],0,0.19856350000009115,0.2,0,0,AccFast,19,17,Woman,Right,
48,14,1,1.3343750000003638,['n'],1,right,['e'],0,0.13964209999903687,0.4,0,0,AccFast,19,17,Woman,Right,
49,14,1,1.1515865999990638,['c'],0,right,['e'],0,0.2830377000009321,0.1,1,0,AccFast,19,17,Woman,Right,
50,14,1,3.6672820999992837,['c'],1,left,['e'],0,0.14312040000004345,0.4,0,0,AccFast,19,17,Woman,Right,
51,14,1,0.9846120000001974,['c'],0,right,['e'],0,0.26071649999903457,0.2,1,0,AccFast,19,17,Woman,Right,
52,14,1,1.0846371000006911,['c'],1,left,['e'],0,0.225633399999424,0.1,0,0,AccFast,19,17,Woman,Right,
53,14,1,2.9681175999994593,['n'],1,right,['u'],1,0.22871200000008685,0.4,1,0,AccFast,19,17,Woman,Right,
54,14,1,0.9176181999991968,['c'],0,right,['e'],0,0.20118140000158746,0.1,1,0,AccFast,19,17,Woman,Right,
55,14,1,0.7166364999993675,['c'],0,right,['e'],0,0.21592989999953716,0.1,1,0,AccFast,19,17,Woman,Right,
56,14,1,0.8671700000013516,['c'],1,left,['e'],0,0.28630379999958677,0.1,0,0,AccFast,19,17,Woman,Right,
57,14,1,0.9668612000004941,['c'],1,left,['e'],0,0.2551879000002373,0.4,0,0,AccFast,19,17,Woman,Right,
58,14,1,1.3667709000001196,['n'],1,right,['u'],1,0.8795918000014353,0.4,1,0,AccFast,19,17,Woman,Right,
59,14,1,2.9170739999990474,['n'],1,right,['e'],0,0.29865720000088913,0.2,0,0,AccFast,19,17,Woman,Right,
0,15,1,1.651430200001414,['n'],1,right,['u'],1,1.6579247999998188,0.4,1,0,AccAcc,19,17,Woman,Right,
1,15,1,1.1174011999992217,['c'],1,left,['e'],0,0.9260801000000356,0.1,0,0,AccAcc,19,17,Woman,Right,
2,15,1,3.400827200001004,['c'],1,left,['e'],0,1.0116171000008762,0.4,0,0,AccAcc,19,17,Woman,Right,
3,15,1,1.7669441999987612,['c'],1,left,['u'],1,0.4546355999991647,0.1,1,0,AccAcc,19,17,Woman,Right,
4,15,1,1.4845833999988827,['n'],1,right,['u'],1,1.1477563999997074,0.2,1,0,AccAcc,19,17,Woman,Right,
5,15,1,1.151692199999161,['c'],0,right,['e'],0,0.6902233000000706,0.1,1,0,AccAcc,19,17,Woman,Right,
6,15,1,1.2512793000005331,['n'],1,right,['u'],1,4.328336100001252,0.4,1,0,AccAcc,19,17,Woman,Right,
7,15,1,0.8170829999999114,['n'],1,right,['u'],1,1.1645965000006981,0.4,1,0,AccAcc,19,17,Woman,Right,
8,15,1,1.5509645999991335,['n'],0,left,['e'],0,1.4907400000010966,0.2,1,0,AccAcc,19,17,Woman,Right,
9,15,1,2.4013507999989088,['c'],1,left,['e'],0,1.4016676000010193,0.2,0,0,AccAcc,19,17,Woman,Right,
10,15,1,0.8344811999995727,['c'],0,right,['e'],0,1.2992723000006663,0.2,1,0,AccAcc,19,17,Woman,Right,
11,15,1,3.0009618000003684,['n'],1,right,['e'],0,3.017686199998934,0.1,0,0,AccAcc,19,17,Woman,Right,
12,15,1,1.0664613999997528,['c'],0,right,['e'],0,1.0485285000013391,0.1,1,0,AccAcc,19,17,Woman,Right,
13,15,1,0.9507866999992984,['c'],0,right,['e'],0,1.1468686000007438,0.4,1,0,AccAcc,19,17,Woman,Right,
14,15,1,1.2829495999994833,['c'],1,left,['u'],1,0.8599822000014683,0.4,1,0,AccAcc,19,17,Woman,Right,
15,15,1,0.7845428000000538,['c'],1,left,['u'],1,1.1009759000007762,0.2,1,0,AccAcc,19,17,Woman,Right,
16,15,1,1.1176726000012422,['n'],1,right,['u'],1,1.6228630999994493,0.4,1,0,AccAcc,19,17,Woman,Right,
17,15,1,1.25122459999875,['c'],1,left,['u'],1,1.0465728999988642,0.1,1,0,AccAcc,19,17,Woman,Right,
18,15,1,2.551114300000336,['c'],0,right,['u'],1,0.6168287000000419,0.1,0,0,AccAcc,19,17,Woman,Right,
19,15,1,2.001520600000731,['n'],1,right,['e'],0,1.2188740000001417,0.1,0,0,AccAcc,19,17,Woman,Right,
20,15,1,1.300092900000891,['n'],1,right,['e'],0,1.025825500000792,0.2,0,0,AccAcc,19,17,Woman,Right,
21,15,1,4.150632700000642,['n'],1,right,['u'],1,1.9405182999998942,0.4,1,0,AccAcc,19,17,Woman,Right,
22,15,1,1.6346035999995365,['n'],1,right,['u'],1,1.944309600001361,0.1,1,0,AccAcc,19,17,Woman,Right,
23,15,1,3.0517429999999877,['c'],1,left,['e'],0,0.8038042000007408,0.1,0,0,AccAcc,19,17,Woman,Right,
24,15,1,1.6842607999988104,['c'],1,left,['u'],1,1.1388777000011032,0.2,1,0,AccAcc,19,17,Woman,Right,
25,15,1,1.8007453999998688,['c'],1,left,['u'],1,1.776384799999505,0.1,1,0,AccAcc,19,17,Woman,Right,
26,15,1,1.917459799999051,['c'],1,left,['u'],1,2.4791909999985364,0.1,1,0,AccAcc,19,17,Woman,Right,
27,15,1,1.4170245999994222,['n'],1,right,['u'],1,1.269822899999781,0.4,1,0,AccAcc,19,17,Woman,Right,
28,15,1,1.7835962999997719,['c'],1,left,['e'],0,1.5981505999989167,0.1,0,0,AccAcc,19,17,Woman,Right,
29,15,1,1.6679543999998714,['c'],1,left,['u'],1,1.0381100000013248,0.2,1,0,AccAcc,19,17,Woman,Right,
30,15,1,1.3180749999992258,['n'],1,right,['e'],0,1.3145094999999856,0.4,0,0,AccAcc,19,17,Woman,Right,
31,15,1,1.8012281000010262,['c'],1,left,['u'],1,1.0963185000000522,0.2,1,0,AccAcc,19,17,Woman,Right,
32,15,1,1.5011145999997098,['n'],1,right,['e'],0,1.1226867000004859,0.1,0,0,AccAcc,19,17,Woman,Right,
33,15,1,1.3845235999997385,['c'],1,left,['u'],1,1.2009816999998293,0.4,1,0,AccAcc,19,17,Woman,Right,
34,15,1,1.0834439000009297,['c'],1,left,['u'],1,1.048853299998882,0.4,1,0,AccAcc,19,17,Woman,Right,
35,15,1,0.851023900000655,['c'],1,left,['u'],1,1.4225074000005407,0.1,1,0,AccAcc,19,17,Woman,Right,
36,15,1,2.1006796000001486,['c'],1,left,['u'],1,1.0603515999991941,0.1,1,0,AccAcc,19,17,Woman,Right,
37,15,1,1.23336240000026,['c'],1,left,['u'],1,1.4841025000005175,0.1,1,0,AccAcc,19,17,Woman,Right,
38,15,1,1.7008256999997684,['c'],0,right,['e'],0,1.7746540999996796,0.1,1,0,AccAcc,19,17,Woman,Right,
39,15,1,1.1514631999998528,['c'],1,left,['u'],1,1.164412000000084,0.2,1,0,AccAcc,19,17,Woman,Right,
40,15,1,1.3511335999992298,['c'],1,left,['u'],1,0.9540911000003689,0.4,1,0,AccAcc,19,17,Woman,Right,
41,15,1,3.1509554000003845,['c'],0,right,['e'],0,1.384606800000256,0.2,1,0,AccAcc,19,17,Woman,Right,
42,15,1,1.716996500001187,['n'],1,right,['e'],0,1.1192395000016404,0.4,0,0,AccAcc,19,17,Woman,Right,
43,15,1,1.6012777000014466,['c'],1,left,['u'],1,1.3971602999990864,0.2,1,0,AccAcc,19,17,Woman,Right,
44,15,1,1.3345334000005096,['c'],0,right,['e'],0,1.3063048999993043,0.2,1,0,AccAcc,19,17,Woman,Right,
45,15,1,1.1353764999985287,['c'],1,left,['u'],1,1.195065899999463,0.2,1,0,AccAcc,19,17,Woman,Right,
46,15,1,1.1006120999991253,['c'],0,right,['u'],1,1.1855601000006573,0.2,0,0,AccAcc,19,17,Woman,Right,
47,15,1,1.716972700000042,['n'],1,right,['e'],0,1.0242197000006854,0.2,0,0,AccAcc,19,17,Woman,Right,
48,15,1,1.5177509999994072,['n'],1,right,['e'],0,1.3413526999993337,0.4,0,0,AccAcc,19,17,Woman,Right,
49,15,1,1.766965999999229,['c'],1,left,['u'],1,2.2596365999997943,0.2,1,0,AccAcc,19,17,Woman,Right,
50,15,1,1.1659338000008574,['c'],1,left,['u'],1,1.0859825999996247,0.2,1,0,AccAcc,19,17,Woman,Right,
51,15,1,1.0509919999985868,['n'],1,right,['u'],1,1.6911069999987376,0.1,1,0,AccAcc,19,17,Woman,Right,
52,15,1,1.1678962999994837,['c'],1,left,['u'],1,1.3708299999998417,0.2,1,0,AccAcc,19,17,Woman,Right,
53,15,1,1.4014752000002773,['c'],1,left,['u'],1,1.0390318999998271,0.1,1,0,AccAcc,19,17,Woman,Right,
54,15,1,1.2675228000007337,['n'],1,right,['e'],0,1.8452691000002233,0.2,0,0,AccAcc,19,17,Woman,Right,
55,15,1,1.6179549000007682,['n'],1,right,['u'],1,1.0849065000002156,0.4,1,0,AccAcc,19,17,Woman,Right,
56,15,1,0.8837605999997322,['c'],1,left,['u'],1,1.0251060999999027,0.4,1,0,AccAcc,19,17,Woman,Right,
57,15,1,0.7680725999998685,['n'],1,right,['u'],1,1.3237939000009646,0.4,1,0,AccAcc,19,17,Woman,Right,
58,15,1,1.21652929999982,['n'],1,right,['u'],1,0.857300400000895,0.4,1,0,AccAcc,19,17,Woman,Right,
59,15,1,1.850442799999655,['c'],1,left,['u'],1,0.7359402999991289,0.4,1,0,AccAcc,19,17,Woman,Right,
