withinblocktrial,block,block_repetition,rt,resp,cor,cresp,conf_press,cj,rtconf,coherence,metacognition,slow_trial,manipulation,sub,age,gender,handedness,
0,1,1,2.2507606999997734,['c'],0,right,none,-99,-99,0.5,-99,0,none,24,18,Woman,Right,
1,1,1,1.4503923000002032,['n'],0,left,none,-99,-99,0.5,-99,0,none,24,18,Woman,Right,
2,1,1,1.216971299999841,['c'],1,left,none,-99,-99,0.5,-99,0,none,24,18,Woman,Right,
3,1,1,0.7837518999999702,['n'],1,right,none,-99,-99,0.5,-99,0,none,24,18,Woman,Right,
4,1,1,1.417052799999965,['c'],1,left,none,-99,-99,0.5,-99,0,none,24,18,Woman,Right,
5,1,1,0.6679075000001831,['n'],0,left,none,-99,-99,0.5,-99,0,none,24,18,Woman,Right,
6,1,1,1.4665617999999085,['n'],0,left,none,-99,-99,0.5,-99,0,none,24,18,Woman,Right,
7,1,1,0.984764499999983,['c'],1,left,none,-99,-99,0.5,-99,0,none,24,18,Woman,Right,
8,1,1,2.4337977999998657,['c'],0,right,none,-99,-99,0.5,-99,0,none,24,18,Woman,Right,
9,1,1,0.6168142000001353,['n'],1,right,none,-99,-99,0.5,-99,0,none,24,18,Woman,Right,
10,1,1,2.032842300000084,['c'],1,left,none,-99,-99,0.5,-99,0,none,24,18,Woman,Right,
11,1,1,0.6326022000002922,['n'],1,right,none,-99,-99,0.5,-99,0,none,24,18,Woman,Right,
12,1,1,1.0179558999998335,['c'],1,left,none,-99,-99,0.5,-99,0,none,24,18,Woman,Right,
13,1,1,0.6009022000002915,['n'],1,right,none,-99,-99,0.5,-99,0,none,24,18,Woman,Right,
14,1,1,1.3665648000001056,['n'],0,left,none,-99,-99,0.5,-99,0,none,24,18,Woman,Right,
15,1,1,2.0508019000003515,['n'],1,right,none,-99,-99,0.5,-99,0,none,24,18,Woman,Right,
16,1,1,0.8169622999998865,['c'],0,right,none,-99,-99,0.5,-99,0,none,24,18,Woman,Right,
17,1,1,0.6825449999996636,['n'],1,right,none,-99,-99,0.5,-99,0,none,24,18,Woman,Right,
18,1,1,1.915718399999605,['c'],1,left,none,-99,-99,0.5,-99,0,none,24,18,Woman,Right,
19,1,1,0.7520690999999715,['n'],0,left,none,-99,-99,0.5,-99,0,none,24,18,Woman,Right,
20,1,1,2.2025182000002133,['n'],1,right,none,-99,-99,0.5,-99,0,none,24,18,Woman,Right,
21,1,1,2.0845272999999906,['n'],1,right,none,-99,-99,0.5,-99,0,none,24,18,Woman,Right,
22,1,1,2.117889699999978,['n'],1,right,none,-99,-99,0.5,-99,0,none,24,18,Woman,Right,
23,1,1,2.5819265999998606,['c'],1,left,none,-99,-99,0.5,-99,0,none,24,18,Woman,Right,
0,1,2,1.8834922999999435,['n'],1,right,none,-99,-99,0.5,-99,0,none,24,18,Woman,Right,
1,1,2,0.7499324000000342,['c'],1,left,none,-99,-99,0.5,-99,0,none,24,18,Woman,Right,
2,1,2,1.2825102000001607,['n'],1,right,none,-99,-99,0.5,-99,0,none,24,18,Woman,Right,
3,1,2,1.44985349999979,['c'],1,left,none,-99,-99,0.5,-99,0,none,24,18,Woman,Right,
4,1,2,2.1509373000003507,['c'],1,left,none,-99,-99,0.5,-99,0,none,24,18,Woman,Right,
5,1,2,1.8672630999999456,['n'],1,right,none,-99,-99,0.5,-99,0,none,24,18,Woman,Right,
6,1,2,1.9344403000000057,['n'],1,right,none,-99,-99,0.5,-99,0,none,24,18,Woman,Right,
7,1,2,1.9331414999996923,['n'],1,right,none,-99,-99,0.5,-99,0,none,24,18,Woman,Right,
8,1,2,1.6163627999999335,['n'],1,right,none,-99,-99,0.5,-99,0,none,24,18,Woman,Right,
9,1,2,0.8681449999999131,['c'],1,left,none,-99,-99,0.5,-99,0,none,24,18,Woman,Right,
10,1,2,1.2166540999996869,['c'],1,left,none,-99,-99,0.5,-99,0,none,24,18,Woman,Right,
11,1,2,0.8357492000000093,['n'],1,right,none,-99,-99,0.5,-99,0,none,24,18,Woman,Right,
12,1,2,0.81663669999989,['c'],1,left,none,-99,-99,0.5,-99,0,none,24,18,Woman,Right,
13,1,2,2.9017486000002464,['c'],1,left,none,-99,-99,0.5,-99,0,none,24,18,Woman,Right,
14,1,2,1.2667915000001813,['c'],1,left,none,-99,-99,0.5,-99,0,none,24,18,Woman,Right,
15,1,2,0.9171798000002127,['n'],1,right,none,-99,-99,0.5,-99,0,none,24,18,Woman,Right,
16,1,2,1.767208500000379,['c'],1,left,none,-99,-99,0.5,-99,0,none,24,18,Woman,Right,
17,1,2,0.7008235999996941,['n'],1,right,none,-99,-99,0.5,-99,0,none,24,18,Woman,Right,
18,1,2,1.6995194999999512,['n'],1,right,none,-99,-99,0.5,-99,0,none,24,18,Woman,Right,
19,1,2,0.7846981999996387,['c'],1,left,none,-99,-99,0.5,-99,0,none,24,18,Woman,Right,
20,1,2,0.7345534000000953,['n'],1,right,none,-99,-99,0.5,-99,0,none,24,18,Woman,Right,
21,1,2,0.9004751999996188,['c'],1,left,none,-99,-99,0.5,-99,0,none,24,18,Woman,Right,
22,1,2,1.6842450000003737,['c'],1,left,none,-99,-99,0.5,-99,0,none,24,18,Woman,Right,
23,1,2,0.8657868000000235,['n'],1,right,none,-99,-99,0.5,-99,0,none,24,18,Woman,Right,
0,2,1,3.450366400000348,['c'],0,right,none,-99,-99,0.1,-99,0,none,24,18,Woman,Right,
1,2,1,0.73413440000013,['n'],1,right,none,-99,-99,0.4,-99,0,none,24,18,Woman,Right,
2,2,1,1.2982198999998218,['n'],1,right,none,-99,-99,0.4,-99,0,none,24,18,Woman,Right,
3,2,1,2.216848300000038,['n'],1,right,none,-99,-99,0.2,-99,0,none,24,18,Woman,Right,
4,2,1,2.1842968000000837,['c'],1,left,none,-99,-99,0.2,-99,0,none,24,18,Woman,Right,
5,2,1,0.9848746999996365,['n'],1,right,none,-99,-99,0.4,-99,0,none,24,18,Woman,Right,
6,2,1,0.9816652999998041,['c'],1,left,none,-99,-99,0.2,-99,0,none,24,18,Woman,Right,
7,2,1,0.8010040999997727,['c'],1,left,none,-99,-99,0.4,-99,0,none,24,18,Woman,Right,
8,2,1,2.7507738999997855,['c'],1,left,none,-99,-99,0.1,-99,0,none,24,18,Woman,Right,
9,2,1,0.8335265999999137,['c'],1,left,none,-99,-99,0.1,-99,0,none,24,18,Woman,Right,
10,2,1,0.9837256999999227,['n'],1,right,none,-99,-99,0.4,-99,0,none,24,18,Woman,Right,
11,2,1,2.83391279999978,['n'],0,left,none,-99,-99,0.1,-99,0,none,24,18,Woman,Right,
12,2,1,2.5336237999999867,['n'],1,right,none,-99,-99,0.2,-99,0,none,24,18,Woman,Right,
13,2,1,3.067157799999677,['n'],0,left,none,-99,-99,0.1,-99,0,none,24,18,Woman,Right,
14,2,1,0.9177285999999185,['c'],1,left,none,-99,-99,0.2,-99,0,none,24,18,Woman,Right,
15,2,1,1.7337999999999738,['n'],1,right,none,-99,-99,0.2,-99,0,none,24,18,Woman,Right,
16,2,1,2.5336412999999993,['c'],1,left,none,-99,-99,0.1,-99,0,none,24,18,Woman,Right,
17,2,1,2.8180535000001328,['n'],1,right,none,-99,-99,0.1,-99,0,none,24,18,Woman,Right,
18,2,1,3.0168313999997736,['n'],0,left,none,-99,-99,0.2,-99,0,none,24,18,Woman,Right,
19,2,1,1.9985000000001492,['c'],0,right,none,-99,-99,0.1,-99,0,none,24,18,Woman,Right,
20,2,1,3.8494924999999967,['n'],0,left,none,-99,-99,0.4,-99,0,none,24,18,Woman,Right,
21,2,1,3.766863199999989,['c'],0,right,none,-99,-99,0.4,-99,0,none,24,18,Woman,Right,
22,2,1,3.3161418000004232,['n'],0,left,none,-99,-99,0.4,-99,0,none,24,18,Woman,Right,
23,2,1,2.8679716999999982,['n'],1,right,none,-99,-99,0.2,-99,0,none,24,18,Woman,Right,
0,3,1,2.3850572999999713,['n'],1,right,['e'],1,2.559248099999877,0.4,1,0,none,24,18,Woman,Right,
1,3,1,3.051252899999781,['c'],1,left,['u'],0,0.9023080000001755,0.2,0,0,none,24,18,Woman,Right,
2,3,1,4.017440000000079,['n'],1,right,['u'],0,0.969820300000265,0.1,0,0,none,24,18,Woman,Right,
3,3,1,5.015733499999897,x,-99,left,none,-99,-99,0.4,-99,1,none,24,18,Woman,Right,
4,3,1,1.6001866000001428,['c'],1,left,['e'],1,0.7905532999998286,0.4,1,0,none,24,18,Woman,Right,
5,3,1,2.483992599999965,['n'],1,right,['u'],0,0.5543800000000374,0.2,0,0,none,24,18,Woman,Right,
6,3,1,3.6157241999999314,['n'],1,right,['u'],0,0.5230827999998837,0.4,0,0,none,24,18,Woman,Right,
7,3,1,3.584557799999857,['n'],0,left,['u'],0,0.7329779000001508,0.2,1,0,none,24,18,Woman,Right,
8,3,1,4.882370900000296,['n'],1,right,['u'],0,0.5805921999999555,0.1,0,0,none,24,18,Woman,Right,
9,3,1,4.066847900000084,['n'],0,left,['u'],0,0.4640143999999964,0.1,1,0,none,24,18,Woman,Right,
10,3,1,4.585374299999785,['c'],0,right,['u'],0,0.5084830000000693,0.4,1,0,none,24,18,Woman,Right,
11,3,1,4.984280600000147,['c'],1,left,['u'],0,0.696344400000271,0.1,0,0,none,24,18,Woman,Right,
12,3,1,3.967456100000163,['n'],1,right,['u'],0,1.4283516999998938,0.1,0,0,none,24,18,Woman,Right,
13,3,1,3.901474000000235,['n'],0,left,['u'],0,1.8003405999997995,0.1,1,0,none,24,18,Woman,Right,
14,3,1,5.015166800000316,x,-99,right,none,-99,-99,0.2,-99,1,none,24,18,Woman,Right,
15,3,1,0.8023643000001357,['c'],0,right,['u'],0,1.859104699999989,0.2,1,0,none,24,18,Woman,Right,
16,3,1,1.8508406999999352,['n'],1,right,['u'],0,0.5338379999998324,0.1,0,0,none,24,18,Woman,Right,
17,3,1,3.366224399999737,['c'],1,left,['e'],1,0.6576280999997834,0.4,1,0,none,24,18,Woman,Right,
18,3,1,2.9338566999999784,['c'],1,left,['u'],0,1.0163363000001482,0.4,0,0,none,24,18,Woman,Right,
19,3,1,1.7834733999998207,['n'],1,right,['u'],0,0.686645100000078,0.4,0,0,none,24,18,Woman,Right,
20,3,1,1.4007775000000038,['n'],1,right,['e'],1,0.4180914000003213,0.2,1,0,none,24,18,Woman,Right,
21,3,1,3.783813900000041,['c'],1,left,['u'],0,0.2876733999996759,0.2,0,0,none,24,18,Woman,Right,
22,3,1,2.751538900000014,['n'],0,left,['u'],0,0.4930261999998038,0.1,1,0,none,24,18,Woman,Right,
23,3,1,3.0840532000001986,['c'],1,left,['u'],0,0.6930730000003678,0.2,0,0,none,24,18,Woman,Right,
0,4,1,2.7512643999998545,['n'],1,right,['u'],0,5.43106970000008,0.4,0,0,AccAcc,24,18,Woman,Right,
1,4,1,5.016333299999587,x,-99,right,none,-99,-99,0.4,-99,1,AccAcc,24,18,Woman,Right,
2,4,1,1.116867899999761,['c'],1,left,['u'],0,2.8782814000001054,0.2,0,0,AccAcc,24,18,Woman,Right,
3,4,1,2.2176109000001816,['n'],1,right,['e'],1,4.293319899999915,0.1,1,0,AccAcc,24,18,Woman,Right,
4,4,1,2.8170029000002614,['n'],0,left,['u'],0,6.3165750000002845,0.4,1,0,AccAcc,24,18,Woman,Right,
5,4,1,3.100845599999957,['n'],0,left,['u'],0,0.4229473999998845,0.2,1,0,AccAcc,24,18,Woman,Right,
6,4,1,3.499337399999604,['n'],1,right,['u'],0,6.06201239999973,0.2,0,0,AccAcc,24,18,Woman,Right,
7,4,1,4.183697400000256,['c'],1,left,['u'],0,6.854379900000367,0.4,0,0,AccAcc,24,18,Woman,Right,
8,4,1,3.54866949999996,['n'],0,left,['u'],0,7.658888599999955,0.1,1,0,AccAcc,24,18,Woman,Right,
9,4,1,3.45073420000017,['c'],1,left,['e'],1,6.481427600000188,0.4,1,0,AccAcc,24,18,Woman,Right,
10,4,1,4.100617000000057,['n'],0,left,['e'],1,7.62980030000017,0.2,0,0,AccAcc,24,18,Woman,Right,
11,4,1,3.649019800000133,['n'],0,left,['u'],0,5.198815199999899,0.1,1,0,AccAcc,24,18,Woman,Right,
12,4,1,2.6514626000002863,['c'],1,left,['e'],1,6.632208100000298,0.4,1,0,AccAcc,24,18,Woman,Right,
13,4,1,2.484249699999964,['n'],1,right,['e'],1,11.071146299999782,0.4,1,0,AccAcc,24,18,Woman,Right,
14,4,1,3.1340525000000525,['n'],0,left,['u'],0,3.273819900000035,0.1,1,0,AccAcc,24,18,Woman,Right,
15,4,1,3.3341934999998557,['n'],1,right,['e'],1,6.3888560000000325,0.4,1,0,AccAcc,24,18,Woman,Right,
16,4,1,4.084036900000228,['c'],0,right,['u'],0,0.9177559999998266,0.1,1,0,AccAcc,24,18,Woman,Right,
17,4,1,5.016180499999791,x,-99,left,none,-99,-99,0.4,-99,1,AccAcc,24,18,Woman,Right,
18,4,1,0.9993848999997681,['n'],1,right,['u'],0,3.749766500000078,0.2,0,0,AccAcc,24,18,Woman,Right,
19,4,1,2.784541200000149,['c'],0,right,['u'],0,5.331454699999995,0.2,1,0,AccAcc,24,18,Woman,Right,
20,4,1,2.167938900000081,['n'],0,left,['u'],0,3.994820400000208,0.2,1,0,AccAcc,24,18,Woman,Right,
21,4,1,2.815726799999993,['n'],0,left,['u'],0,7.1498884999996335,0.1,1,0,AccAcc,24,18,Woman,Right,
22,4,1,2.584249400000317,['n'],1,right,['u'],0,5.96309280000014,0.1,0,0,AccAcc,24,18,Woman,Right,
23,4,1,3.449870899999951,['n'],0,left,['u'],0,4.470623899999737,0.2,1,0,AccAcc,24,18,Woman,Right,
24,4,1,4.433847499999956,['c'],1,left,['u'],0,7.910131999999976,0.1,0,0,AccAcc,24,18,Woman,Right,
25,4,1,1.8680257000000893,['n'],0,left,['e'],1,4.113810300000296,0.2,0,0,AccAcc,24,18,Woman,Right,
26,4,1,2.101124200000413,['n'],0,left,['e'],1,3.756294700000126,0.1,0,0,AccAcc,24,18,Woman,Right,
27,4,1,2.251062499999989,['n'],1,right,['e'],1,6.303153399999701,0.4,1,0,AccAcc,24,18,Woman,Right,
28,4,1,2.766395300000113,['n'],1,right,['e'],1,5.624516299999868,0.4,1,0,AccAcc,24,18,Woman,Right,
29,4,1,2.949085599999762,['c'],1,left,['u'],0,4.085834299999988,0.2,0,0,AccAcc,24,18,Woman,Right,
30,4,1,2.785481599999912,['n'],1,right,['e'],1,5.253108500000053,0.2,1,0,AccAcc,24,18,Woman,Right,
31,4,1,1.64945009999974,['n'],1,right,['e'],1,3.7172630000000026,0.4,1,0,AccAcc,24,18,Woman,Right,
32,4,1,4.200635800000327,['c'],0,right,['u'],0,4.57056109999985,0.1,1,0,AccAcc,24,18,Woman,Right,
33,4,1,2.3512384999999085,['n'],1,right,['e'],1,2.536788699999761,0.4,1,0,AccAcc,24,18,Woman,Right,
34,4,1,3.7000738000001547,['n'],1,right,['u'],0,3.7945483999997123,0.2,0,0,AccAcc,24,18,Woman,Right,
35,4,1,2.267649199999596,['c'],1,left,['e'],1,4.690802699999949,0.4,1,0,AccAcc,24,18,Woman,Right,
36,4,1,3.4499104999999872,['n'],1,right,['u'],0,4.865528099999665,0.1,0,0,AccAcc,24,18,Woman,Right,
37,4,1,3.384649499999796,['n'],1,right,['u'],0,5.673910799999703,0.2,0,0,AccAcc,24,18,Woman,Right,
38,4,1,2.301076799999919,['n'],1,right,['e'],1,6.766641300000174,0.4,1,0,AccAcc,24,18,Woman,Right,
39,4,1,2.466465099999823,['n'],1,right,['e'],1,4.992364499999894,0.2,1,0,AccAcc,24,18,Woman,Right,
40,4,1,2.1334094999997433,['c'],1,left,['e'],1,3.0149575999998888,0.4,1,0,AccAcc,24,18,Woman,Right,
41,4,1,3.8164950999998837,['c'],1,left,['u'],0,3.481284699999833,0.4,0,0,AccAcc,24,18,Woman,Right,
42,4,1,3.2823694000003343,['n'],1,right,['e'],1,5.83752770000001,0.1,1,0,AccAcc,24,18,Woman,Right,
43,4,1,3.182736499999919,['n'],0,left,['u'],0,5.4003004999999575,0.1,1,0,AccAcc,24,18,Woman,Right,
44,4,1,4.2170658,['n'],0,left,['u'],0,1.7225968000002467,0.2,1,0,AccAcc,24,18,Woman,Right,
45,4,1,2.6842908000003263,['n'],1,right,['e'],1,3.4050763999998708,0.4,1,0,AccAcc,24,18,Woman,Right,
46,4,1,3.3836687999996684,['c'],0,right,['u'],0,7.600839799999903,0.1,1,0,AccAcc,24,18,Woman,Right,
47,4,1,2.433025799999996,['c'],1,left,['e'],1,3.571603700000196,0.2,1,0,AccAcc,24,18,Woman,Right,
48,4,1,3.351312699999653,['n'],1,right,['e'],1,5.521298000000115,0.2,1,0,AccAcc,24,18,Woman,Right,
49,4,1,2.3841536999998425,['c'],1,left,['e'],1,5.16104439999981,0.4,1,0,AccAcc,24,18,Woman,Right,
50,4,1,3.384235500000159,['n'],0,left,['u'],0,5.830559600000015,0.2,1,0,AccAcc,24,18,Woman,Right,
51,4,1,2.8170468999996956,['n'],1,right,['e'],1,3.856451100000413,0.1,1,0,AccAcc,24,18,Woman,Right,
52,4,1,3.3008577999999034,['n'],0,left,['u'],0,1.1251142000000982,0.2,1,0,AccAcc,24,18,Woman,Right,
53,4,1,2.300858999999946,['n'],1,right,['e'],1,2.5588635000003705,0.4,1,0,AccAcc,24,18,Woman,Right,
54,4,1,3.834032599999773,['c'],0,right,['u'],0,5.090448200000083,0.1,1,0,AccAcc,24,18,Woman,Right,
55,4,1,3.1344569000002593,['c'],1,left,['u'],0,4.477284300000065,0.2,0,0,AccAcc,24,18,Woman,Right,
56,4,1,3.317152999999962,['n'],1,right,['u'],0,4.200948799999878,0.1,0,0,AccAcc,24,18,Woman,Right,
57,4,1,4.067322600000352,['n'],0,left,['u'],0,7.521333700000014,0.1,1,0,AccAcc,24,18,Woman,Right,
58,4,1,3.0003650999997262,['c'],1,left,['e'],1,5.3123459000003095,0.1,1,0,AccAcc,24,18,Woman,Right,
59,4,1,3.6180530999999974,['n'],1,right,['u'],0,5.358417500000087,0.1,0,0,AccAcc,24,18,Woman,Right,
0,5,1,1.3672679999999673,['n'],1,right,['u'],0,3.564051599999857,0.4,0,0,FastAcc,24,18,Woman,Right,
1,5,1,1.1676907000000938,['c'],1,left,['u'],0,4.800812099999803,0.4,0,0,FastAcc,24,18,Woman,Right,
2,5,1,0.8999530000000959,['n'],0,left,['u'],0,4.799877699999797,0.2,1,0,FastAcc,24,18,Woman,Right,
3,5,1,2.016488699999627,['n'],0,left,['u'],0,2.7072275999998965,0.2,1,0,FastAcc,24,18,Woman,Right,
4,5,1,1.000311000000238,['c'],0,right,['u'],0,2.656934299999648,0.2,1,0,FastAcc,24,18,Woman,Right,
5,5,1,1.2496437999998307,['n'],1,right,['u'],0,6.0567229999996925,0.2,0,0,FastAcc,24,18,Woman,Right,
6,5,1,1.300343100000191,['n'],1,right,['u'],0,4.82043160000012,0.2,0,0,FastAcc,24,18,Woman,Right,
7,5,1,1.2845706999996764,['c'],1,left,['u'],0,2.3555176999998366,0.4,0,0,FastAcc,24,18,Woman,Right,
8,5,1,0.9500351000001501,['n'],1,right,['u'],0,7.506800099999964,0.4,0,0,FastAcc,24,18,Woman,Right,
9,5,1,0.8343715000000884,['c'],0,right,['u'],0,4.6161339000000225,0.4,1,0,FastAcc,24,18,Woman,Right,
10,5,1,1.3845194999998967,['n'],0,left,['u'],0,2.9229295000000093,0.1,1,0,FastAcc,24,18,Woman,Right,
11,5,1,0.6680344000001242,['n'],1,right,['u'],0,7.214288499999839,0.1,0,0,FastAcc,24,18,Woman,Right,
12,5,1,0.7501241999998456,['n'],1,right,['e'],1,2.963001399999939,0.1,1,0,FastAcc,24,18,Woman,Right,
13,5,1,2.018304000000171,['c'],1,left,['u'],0,5.503187799999978,0.4,0,0,FastAcc,24,18,Woman,Right,
14,5,1,0.7336378999998487,['n'],1,right,['e'],1,3.8478288999999677,0.2,1,0,FastAcc,24,18,Woman,Right,
15,5,1,1.6845702999999048,['n'],1,right,['u'],0,5.661471200000051,0.4,0,0,FastAcc,24,18,Woman,Right,
16,5,1,0.8667287000002943,['n'],0,left,['u'],0,3.8359127000003355,0.4,1,0,FastAcc,24,18,Woman,Right,
17,5,1,0.9509895999999571,['c'],0,right,['u'],0,7.9668901000000005,0.4,1,0,FastAcc,24,18,Woman,Right,
18,5,1,0.7012959999997292,['n'],1,right,['u'],0,4.279353800000081,0.2,0,0,FastAcc,24,18,Woman,Right,
19,5,1,1.66791319999993,['c'],0,right,['u'],0,6.636163600000145,0.1,1,0,FastAcc,24,18,Woman,Right,
20,5,1,0.7491821000003256,['n'],0,left,['u'],0,4.184072200000173,0.4,1,0,FastAcc,24,18,Woman,Right,
21,5,1,2.5176394000000073,['n'],1,right,['u'],0,4.271071799999845,0.2,0,0,FastAcc,24,18,Woman,Right,
22,5,1,1.2829224000001886,['n'],1,right,['u'],0,3.2842343000002074,0.2,0,0,FastAcc,24,18,Woman,Right,
23,5,1,1.666497199999867,['c'],1,left,['u'],0,4.402228299999933,0.2,0,0,FastAcc,24,18,Woman,Right,
24,5,1,2.3835079999998925,['n'],0,left,['u'],0,1.861568299999817,0.2,1,0,FastAcc,24,18,Woman,Right,
25,5,1,2.500760899999932,['c'],1,left,['u'],0,8.632974900000136,0.1,0,0,FastAcc,24,18,Woman,Right,
26,5,1,1.9673336999999265,['c'],1,left,['u'],0,10.82205729999987,0.1,0,0,FastAcc,24,18,Woman,Right,
27,5,1,0.7515167999999903,['c'],1,left,['e'],1,9.01842039999974,0.4,1,0,FastAcc,24,18,Woman,Right,
28,5,1,2.3342883000000256,['c'],1,left,['u'],0,3.9753240999998525,0.4,0,0,FastAcc,24,18,Woman,Right,
29,5,1,1.5996752000000924,['n'],1,right,['u'],0,3.228938499999913,0.2,0,0,FastAcc,24,18,Woman,Right,
30,5,1,2.265943200000038,['n'],0,left,['e'],1,4.9642650999999205,0.1,0,0,FastAcc,24,18,Woman,Right,
31,5,1,1.6499800000001414,['n'],0,left,['u'],0,4.574593300000288,0.1,1,0,FastAcc,24,18,Woman,Right,
32,5,1,1.9171544999999242,['n'],0,left,['u'],0,6.302374600000348,0.4,1,0,FastAcc,24,18,Woman,Right,
33,5,1,1.5998502999996163,['c'],1,left,['u'],0,6.533766699999887,0.2,0,0,FastAcc,24,18,Woman,Right,
34,5,1,1.5997928000001593,['n'],0,left,['u'],0,7.059390500000063,0.4,1,0,FastAcc,24,18,Woman,Right,
35,5,1,0.8332353999999214,['n'],1,right,['e'],1,5.979421799999727,0.4,1,0,FastAcc,24,18,Woman,Right,
36,5,1,1.799333200000092,['c'],1,left,['e'],1,3.863296900000023,0.2,1,0,FastAcc,24,18,Woman,Right,
37,5,1,0.9323052000004282,['n'],0,left,['e'],1,3.178094500000043,0.1,0,0,FastAcc,24,18,Woman,Right,
38,5,1,1.284277000000202,['n'],1,right,['e'],1,6.217445400000088,0.1,1,0,FastAcc,24,18,Woman,Right,
39,5,1,0.9496973999998772,['n'],1,right,['e'],1,3.182577499999752,0.4,1,0,FastAcc,24,18,Woman,Right,
40,5,1,2.0997388000000683,['c'],1,left,['u'],0,4.910617099999854,0.1,0,0,FastAcc,24,18,Woman,Right,
41,5,1,1.5349310000001424,['n'],0,left,['e'],1,4.815718400000151,0.1,0,0,FastAcc,24,18,Woman,Right,
42,5,1,1.3342725000002247,['c'],1,left,['u'],0,6.140563899999961,0.4,0,0,FastAcc,24,18,Woman,Right,
43,5,1,1.6342579000001933,['n'],0,left,['u'],0,3.817134299999907,0.1,1,0,FastAcc,24,18,Woman,Right,
44,5,1,1.4679227000001447,['n'],1,right,['u'],0,2.968088699999953,0.2,0,0,FastAcc,24,18,Woman,Right,
45,5,1,1.416312100000141,['n'],1,right,['u'],0,3.996658700000353,0.1,0,0,FastAcc,24,18,Woman,Right,
46,5,1,1.3177122000001873,['c'],1,left,['e'],1,3.2903787000000193,0.4,1,0,FastAcc,24,18,Woman,Right,
47,5,1,0.6675640000003114,['n'],1,right,['e'],1,4.270304200000282,0.1,1,0,FastAcc,24,18,Woman,Right,
48,5,1,1.4676136999996743,['c'],1,left,['e'],1,5.0518732000000455,0.2,1,0,FastAcc,24,18,Woman,Right,
49,5,1,1.4179042999999183,['n'],1,right,['e'],1,6.220263499999874,0.2,1,0,FastAcc,24,18,Woman,Right,
50,5,1,0.8177482999999484,['n'],1,right,['e'],1,6.4380630999999084,0.1,1,0,FastAcc,24,18,Woman,Right,
51,5,1,1.2839733000000706,['n'],1,right,['e'],1,5.493584199999987,0.1,1,0,FastAcc,24,18,Woman,Right,
52,5,1,0.7517913000001499,['n'],1,right,['e'],1,5.422334299999875,0.1,1,0,FastAcc,24,18,Woman,Right,
53,5,1,0.8509198000001561,['c'],1,left,['e'],1,5.943081799999618,0.4,1,0,FastAcc,24,18,Woman,Right,
54,5,1,0.7001334000001407,['n'],1,right,['u'],0,6.112926700000116,0.2,0,0,FastAcc,24,18,Woman,Right,
55,5,1,1.1509726000003866,['n'],1,right,['u'],0,5.456668300000274,0.1,0,0,FastAcc,24,18,Woman,Right,
56,5,1,1.9352782000000843,['n'],0,left,['u'],0,3.4204232000001866,0.1,1,0,FastAcc,24,18,Woman,Right,
57,5,1,0.4845762999998442,['c'],1,left,['e'],1,6.164017999999942,0.2,1,0,FastAcc,24,18,Woman,Right,
58,5,1,0.5007796999998391,['n'],1,right,['e'],1,4.699458999999933,0.4,1,0,FastAcc,24,18,Woman,Right,
59,5,1,0.683497499999703,['c'],0,right,['u'],0,4.183692000000065,0.2,1,0,FastAcc,24,18,Woman,Right,
0,6,1,1.8003410000001168,['c'],1,left,['u'],0,0.9114674000002196,0.4,0,0,FastFast,24,18,Woman,Right,
1,6,1,1.052004499999839,['n'],1,right,['e'],1,0.5486461999998937,0.1,1,0,FastFast,24,18,Woman,Right,
2,6,1,0.6191593000003195,['c'],1,left,['e'],1,0.9195927000000665,0.4,1,0,FastFast,24,18,Woman,Right,
3,6,1,0.5190999999999804,['n'],1,right,['e'],1,0.400666700000329,0.2,1,0,FastFast,24,18,Woman,Right,
4,6,1,0.9518395000000055,['c'],1,left,['e'],1,0.41390439999986484,0.4,1,0,FastFast,24,18,Woman,Right,
5,6,1,0.9669479999997748,['n'],0,left,['e'],1,0.6326607000000877,0.2,0,0,FastFast,24,18,Woman,Right,
6,6,1,0.5675940999999511,['c'],1,left,['e'],1,0.45813170000019454,0.1,1,0,FastFast,24,18,Woman,Right,
7,6,1,0.5354215000002114,['n'],1,right,['e'],1,0.34141539999973247,0.1,1,0,FastFast,24,18,Woman,Right,
8,6,1,0.5020553999997901,['c'],1,left,['e'],1,0.42310919999999896,0.1,1,0,FastFast,24,18,Woman,Right,
9,6,1,0.4178584999999657,['n'],1,right,['e'],1,0.3593823999999586,0.2,1,0,FastFast,24,18,Woman,Right,
10,6,1,0.4343250000001717,['c'],1,left,['e'],1,0.6820306999998138,0.1,1,0,FastFast,24,18,Woman,Right,
11,6,1,0.5508592999999564,['n'],1,right,['e'],1,0.3314331999999922,0.4,1,0,FastFast,24,18,Woman,Right,
12,6,1,0.5837205999996513,['c'],0,right,['e'],1,0.4089389000000665,0.2,0,0,FastFast,24,18,Woman,Right,
13,6,1,0.5013331999998627,['n'],1,right,['e'],1,0.40712189999976545,0.1,1,0,FastFast,24,18,Woman,Right,
14,6,1,0.5846534000002066,['c'],0,right,['e'],1,0.43405189999975846,0.1,0,0,FastFast,24,18,Woman,Right,
15,6,1,0.5836644999999407,['n'],0,left,['e'],1,0.379909399999633,0.2,0,0,FastFast,24,18,Woman,Right,
16,6,1,0.8005739999998696,['n'],1,right,['u'],0,0.44721930000014254,0.1,0,0,FastFast,24,18,Woman,Right,
17,6,1,1.8651718000000983,['n'],1,right,['u'],0,0.3099351000000752,0.1,0,0,FastFast,24,18,Woman,Right,
18,6,1,0.6344899000000623,['c'],1,left,['e'],1,0.9777874999999767,0.2,1,0,FastFast,24,18,Woman,Right,
19,6,1,0.8010748000001513,['n'],0,left,['e'],1,0.7334372000000258,0.4,0,0,FastFast,24,18,Woman,Right,
20,6,1,1.16776260000006,['c'],1,left,['e'],1,2.3247388999998293,0.1,1,0,FastFast,24,18,Woman,Right,
21,6,1,0.6832828000001427,['n'],0,left,['e'],1,0.17501990000027945,0.4,0,0,FastFast,24,18,Woman,Right,
22,6,1,0.7352562000000944,['n'],1,right,['e'],1,0.23667889999978797,0.2,1,0,FastFast,24,18,Woman,Right,
23,6,1,0.6673233000001346,['n'],1,right,['u'],0,0.5711067000002004,0.1,0,0,FastFast,24,18,Woman,Right,
24,6,1,1.0003719000001183,['c'],1,left,['u'],0,0.3349068000002262,0.4,0,0,FastFast,24,18,Woman,Right,
25,6,1,1.3002195000003667,['n'],1,right,['u'],0,0.4003904999999577,0.2,0,0,FastFast,24,18,Woman,Right,
26,6,1,1.001119099999869,['c'],1,left,['u'],0,0.1861413999999968,0.1,0,0,FastFast,24,18,Woman,Right,
27,6,1,1.5509193000002597,['n'],0,left,['u'],0,0.1991718999997829,0.2,1,0,FastFast,24,18,Woman,Right,
28,6,1,1.6665916000001744,['n'],1,right,['u'],0,0.25527059999967605,0.4,0,0,FastFast,24,18,Woman,Right,
29,6,1,1.8332593999998608,['n'],0,left,['u'],0,0.19079599999986385,0.2,1,0,FastFast,24,18,Woman,Right,
30,6,1,0.6676873000001251,['c'],1,left,['u'],0,0.3985170000000835,0.4,0,0,FastFast,24,18,Woman,Right,
31,6,1,1.1501984999999877,['n'],1,right,['u'],0,0.275434199999836,0.4,0,0,FastFast,24,18,Woman,Right,
32,6,1,1.234344499999679,['n'],1,right,['u'],0,0.3133196999997381,0.4,0,0,FastFast,24,18,Woman,Right,
33,6,1,1.8340232999998989,['n'],1,right,['u'],0,0.3263989000001857,0.4,0,0,FastFast,24,18,Woman,Right,
34,6,1,2.384491600000274,['n'],1,right,['u'],0,0.33288770000035584,0.4,0,0,FastFast,24,18,Woman,Right,
35,6,1,0.6680956999998671,['c'],1,left,['u'],0,0.42245320000029096,0.2,0,0,FastFast,24,18,Woman,Right,
36,6,1,1.8847421999998915,['n'],1,right,['u'],0,0.5090388000003259,0.1,0,0,FastFast,24,18,Woman,Right,
37,6,1,2.6676979999997457,['c'],1,left,['u'],0,0.06526080000003276,0.2,0,0,FastFast,24,18,Woman,Right,
38,6,1,2.3340784000001804,['c'],0,right,['u'],0,0.1639260000001741,0.1,1,0,FastFast,24,18,Woman,Right,
39,6,1,2.2668203999996877,['c'],1,left,['e'],1,0.8373812999998336,0.4,1,0,FastFast,24,18,Woman,Right,
40,6,1,1.4677353000001858,['n'],0,left,['e'],1,0.3313133999999991,0.1,0,0,FastFast,24,18,Woman,Right,
41,6,1,2.134296600000198,['c'],1,left,['u'],0,0.635363999999754,0.2,0,0,FastFast,24,18,Woman,Right,
42,6,1,1.5499925000003714,['n'],1,right,['u'],0,0.42192290000002686,0.2,0,0,FastFast,24,18,Woman,Right,
43,6,1,2.0324304000000666,['n'],0,left,['u'],0,0.3919267999999647,0.1,1,0,FastFast,24,18,Woman,Right,
44,6,1,1.7686478999999053,['n'],0,left,['u'],0,0.5471830999999838,0.2,1,0,FastFast,24,18,Woman,Right,
45,6,1,1.8679293000000143,['c'],1,left,['u'],0,0.45304650000025504,0.2,0,0,FastFast,24,18,Woman,Right,
46,6,1,1.2836163000001761,['n'],0,left,['u'],0,0.4021226999998362,0.1,1,0,FastFast,24,18,Woman,Right,
47,6,1,0.8844908999999461,['n'],1,right,['e'],1,0.4650836000000709,0.2,1,0,FastFast,24,18,Woman,Right,
48,6,1,2.500959800000146,['c'],1,left,['u'],0,1.0690303999999742,0.1,0,0,FastFast,24,18,Woman,Right,
49,6,1,1.2353699000000233,['n'],1,right,['u'],0,0.3714335999998184,0.4,0,0,FastFast,24,18,Woman,Right,
50,6,1,2.1999008000002505,['c'],1,left,['u'],0,0.3195460000001731,0.4,0,0,FastFast,24,18,Woman,Right,
51,6,1,0.9997945000000072,['n'],1,right,['u'],0,0.23759220000010828,0.4,0,0,FastFast,24,18,Woman,Right,
52,6,1,1.1172483000000284,['n'],1,right,['u'],0,0.24906590000000506,0.2,0,0,FastFast,24,18,Woman,Right,
53,6,1,1.6336326000000554,['n'],1,right,['u'],0,0.2412461999997504,0.2,0,0,FastFast,24,18,Woman,Right,
54,6,1,1.7680072000002838,['n'],1,right,['u'],0,0.37096440000004804,0.1,0,0,FastFast,24,18,Woman,Right,
55,6,1,1.5676361000000725,['n'],1,right,['e'],1,0.31189650000033,0.1,1,0,FastFast,24,18,Woman,Right,
56,6,1,1.6176600000003418,['c'],1,left,['u'],0,0.6049613999998655,0.4,0,0,FastFast,24,18,Woman,Right,
57,6,1,1.0678963000000294,['n'],1,right,['e'],1,0.652879600000233,0.4,1,0,FastFast,24,18,Woman,Right,
58,6,1,1.5340867999998409,['n'],1,right,['e'],1,0.8717728999999963,0.4,1,0,FastFast,24,18,Woman,Right,
59,6,1,2.35081960000025,['n'],0,left,['u'],0,0.7939876000000368,0.2,1,0,FastFast,24,18,Woman,Right,
0,7,1,0.9342133999998623,['n'],1,right,['e'],1,1.2372166999998626,0.4,1,0,AccFast,24,18,Woman,Right,
1,7,1,2.615919400000166,['n'],0,left,['e'],1,1.3094323999998778,0.1,0,0,AccFast,24,18,Woman,Right,
2,7,1,1.5846295000001192,['n'],0,left,['u'],0,1.2449699999997392,0.1,1,0,AccFast,24,18,Woman,Right,
3,7,1,2.7334067000001596,['n'],0,left,['u'],0,1.1047476999992796,0.2,1,0,AccFast,24,18,Woman,Right,
4,7,1,0.9833435000000463,['n'],1,right,['u'],0,0.6076591000000917,0.4,0,0,AccFast,24,18,Woman,Right,
5,7,1,2.317658699999811,['n'],0,left,['u'],0,0.5251649000001635,0.1,1,0,AccFast,24,18,Woman,Right,
6,7,1,2.4174907000005987,['n'],0,left,['u'],0,2.7465376000000106,0.1,1,0,AccFast,24,18,Woman,Right,
7,7,1,1.2843751999998858,['n'],1,right,['u'],0,0.5718856000003143,0.4,0,0,AccFast,24,18,Woman,Right,
8,7,1,2.550234299999829,['c'],1,left,['u'],0,0.5463466000001063,0.2,0,0,AccFast,24,18,Woman,Right,
9,7,1,1.0676400000002104,['n'],1,right,['u'],0,1.0114211000000068,0.2,0,0,AccFast,24,18,Woman,Right,
10,7,1,2.067874800000027,['n'],1,right,['u'],0,0.7149887000005037,0.2,0,0,AccFast,24,18,Woman,Right,
11,7,1,2.517539200000101,['c'],1,left,['u'],0,1.9799904999999853,0.2,0,0,AccFast,24,18,Woman,Right,
12,7,1,1.0841888000004474,['n'],1,right,['u'],0,0.5811636999997063,0.4,0,0,AccFast,24,18,Woman,Right,
13,7,1,1.9167582000000039,['c'],0,right,['u'],0,0.6586538999999902,0.1,1,0,AccFast,24,18,Woman,Right,
14,7,1,1.7019374999999854,['n'],0,left,['u'],0,0.7107095999999729,0.1,1,0,AccFast,24,18,Woman,Right,
15,7,1,2.1330078999999387,['n'],1,right,['u'],0,0.9847391000002972,0.1,0,0,AccFast,24,18,Woman,Right,
16,7,1,2.3829704999998285,['n'],0,left,['u'],0,0.9007562999995571,0.2,1,0,AccFast,24,18,Woman,Right,
17,7,1,3.1829686999999467,['n'],1,right,['u'],0,1.3163948999999775,0.2,0,0,AccFast,24,18,Woman,Right,
18,7,1,1.1177937000002203,['c'],1,left,['u'],0,2.1645713999996588,0.4,0,0,AccFast,24,18,Woman,Right,
19,7,1,1.9669867000002341,['c'],1,left,['u'],0,0.6100323999999091,0.4,0,0,AccFast,24,18,Woman,Right,
20,7,1,2.101580499999727,['c'],1,left,['u'],0,0.32846709999921586,0.2,0,0,AccFast,24,18,Woman,Right,
21,7,1,2.383816300000035,['n'],1,right,['e'],1,0.7662859000001845,0.4,1,0,AccFast,24,18,Woman,Right,
22,7,1,1.0669130999995105,['n'],1,right,['e'],1,0.5516748999998526,0.1,1,0,AccFast,24,18,Woman,Right,
23,7,1,1.6838760999999067,['c'],1,left,['u'],0,1.1685573000004297,0.4,0,0,AccFast,24,18,Woman,Right,
24,7,1,1.1510017000000516,['n'],0,left,['u'],0,0.7909902999999758,0.2,1,0,AccFast,24,18,Woman,Right,
25,7,1,2.4010717000001023,['n'],0,left,['u'],0,0.9378800999993473,0.2,1,0,AccFast,24,18,Woman,Right,
26,7,1,1.834163499999704,['n'],1,right,['u'],0,4.286177499999212,0.4,0,0,AccFast,24,18,Woman,Right,
27,7,1,1.2343519000005472,['c'],1,left,['u'],0,0.4360620999996172,0.2,0,0,AccFast,24,18,Woman,Right,
28,7,1,1.30122080000001,['n'],0,left,['u'],0,0.49688870000045426,0.1,1,0,AccFast,24,18,Woman,Right,
29,7,1,1.6343152999997983,['n'],0,left,['u'],0,0.8144009999996342,0.4,1,0,AccFast,24,18,Woman,Right,
30,7,1,2.433638299999984,['n'],1,right,['u'],0,0.3355546000002505,0.1,0,0,AccFast,24,18,Woman,Right,
31,7,1,1.1832271000002947,['n'],1,right,['u'],0,0.3408705000001646,0.1,0,0,AccFast,24,18,Woman,Right,
32,7,1,2.3665939000002254,['n'],0,left,['u'],0,1.066945399999895,0.1,1,0,AccFast,24,18,Woman,Right,
33,7,1,2.3664622999995117,['n'],1,right,['u'],0,0.6288046999998187,0.4,0,0,AccFast,24,18,Woman,Right,
34,7,1,2.650047399999494,['c'],0,right,['u'],0,1.3318863000004058,0.4,1,0,AccFast,24,18,Woman,Right,
35,7,1,3.16665009999997,['c'],0,right,['u'],0,0.9476278000001912,0.2,1,0,AccFast,24,18,Woman,Right,
36,7,1,3.3673111999996763,['c'],1,left,['u'],0,1.704899800000021,0.2,0,0,AccFast,24,18,Woman,Right,
37,7,1,2.716993900000489,['n'],1,right,['u'],0,0.4111265999999887,0.1,0,0,AccFast,24,18,Woman,Right,
38,7,1,1.1849636000006285,['c'],1,left,['u'],0,0.8459190000003218,0.2,0,0,AccFast,24,18,Woman,Right,
39,7,1,3.75010199999997,['n'],0,left,['u'],0,1.273064500000146,0.1,1,0,AccFast,24,18,Woman,Right,
40,7,1,3.83232020000014,['c'],1,left,['u'],0,1.1210943999994925,0.1,0,0,AccFast,24,18,Woman,Right,
41,7,1,3.2840066000007937,['c'],1,left,['u'],0,1.3304291000004014,0.4,0,0,AccFast,24,18,Woman,Right,
42,7,1,3.699537099999361,['n'],1,right,['u'],0,0.9725911000004999,0.1,0,0,AccFast,24,18,Woman,Right,
43,7,1,1.9014439000002312,['n'],1,right,['e'],1,0.812105199999678,0.4,1,0,AccFast,24,18,Woman,Right,
44,7,1,1.9503280999997514,['n'],1,right,['e'],1,1.135582300000351,0.2,1,0,AccFast,24,18,Woman,Right,
45,7,1,4.050930899999912,['n'],1,right,['u'],0,0.8033840999996755,0.2,0,0,AccFast,24,18,Woman,Right,
46,7,1,3.434342900000047,['n'],1,right,['u'],0,4.077370699999847,0.1,0,0,AccFast,24,18,Woman,Right,
47,7,1,3.3502871000000596,['c'],0,right,['u'],0,0.6796155000001818,0.1,1,0,AccFast,24,18,Woman,Right,
48,7,1,1.216543399999864,['c'],1,left,['e'],1,1.0220839000003252,0.4,1,0,AccFast,24,18,Woman,Right,
49,7,1,3.5006983000002947,['n'],0,left,['u'],0,0.9875063999998019,0.1,1,0,AccFast,24,18,Woman,Right,
50,7,1,1.9509349999998449,['c'],1,left,['u'],0,0.7126567000004798,0.4,0,0,AccFast,24,18,Woman,Right,
51,7,1,3.0835071000001335,['n'],1,right,['u'],0,0.6922051999999894,0.2,0,0,AccFast,24,18,Woman,Right,
52,7,1,1.3168464999998832,['n'],1,right,['e'],1,1.030621500000052,0.4,1,0,AccFast,24,18,Woman,Right,
53,7,1,1.8173982000007527,['n'],1,right,['e'],1,1.7184128999997483,0.2,1,0,AccFast,24,18,Woman,Right,
54,7,1,1.1013932000005298,['n'],1,right,['e'],1,1.2722804000004544,0.4,1,0,AccFast,24,18,Woman,Right,
55,7,1,3.517664199999672,['c'],1,left,['u'],0,2.347694899999624,0.1,0,0,AccFast,24,18,Woman,Right,
56,7,1,3.3011851999999635,['n'],1,right,['u'],0,1.1329353000000992,0.2,0,0,AccFast,24,18,Woman,Right,
57,7,1,2.68332780000037,['c'],1,left,['u'],0,1.1591345000006186,0.4,0,0,AccFast,24,18,Woman,Right,
58,7,1,1.3509224999997969,['c'],1,left,['u'],0,0.6772412000000259,0.4,0,0,AccFast,24,18,Woman,Right,
59,7,1,2.9998771999999008,['n'],1,right,['u'],0,0.48590280000007624,0.2,0,0,AccFast,24,18,Woman,Right,
0,8,1,2.6846366000008857,['n'],1,right,['u'],0,3.2024668999993082,0.1,0,0,AccAcc,24,18,Woman,Right,
1,8,1,3.3670097000003807,['c'],1,left,['u'],0,8.622715900000003,0.2,0,0,AccAcc,24,18,Woman,Right,
2,8,1,1.1513200999997935,['n'],1,right,['u'],0,5.499897400000009,0.2,0,0,AccAcc,24,18,Woman,Right,
3,8,1,1.7175229000004038,['n'],1,right,['u'],0,3.326357700000699,0.4,0,0,AccAcc,24,18,Woman,Right,
4,8,1,1.2996337999993557,['c'],1,left,['u'],0,3.688854899999569,0.1,0,0,AccAcc,24,18,Woman,Right,
5,8,1,3.233032099999946,['n'],1,right,['e'],1,14.838780900000529,0.4,1,0,AccAcc,24,18,Woman,Right,
6,8,1,2.351156499999888,['n'],1,right,['u'],0,5.324518500000522,0.2,0,0,AccAcc,24,18,Woman,Right,
7,8,1,3.9657599000001937,['c'],1,left,['u'],0,7.131866400000035,0.1,0,0,AccAcc,24,18,Woman,Right,
8,8,1,3.649802300000374,['c'],1,left,['u'],0,4.561137800000324,0.4,0,0,AccAcc,24,18,Woman,Right,
9,8,1,2.951344699999936,['n'],0,left,['u'],0,8.662890100000368,0.2,1,0,AccAcc,24,18,Woman,Right,
10,8,1,3.6001523000004454,['n'],0,left,['u'],0,6.895725399999719,0.1,1,0,AccAcc,24,18,Woman,Right,
11,8,1,4.1000287999995635,['n'],0,left,['u'],0,9.388212800000474,0.2,1,0,AccAcc,24,18,Woman,Right,
12,8,1,3.015793300000041,['n'],0,left,['e'],1,5.8407743999996455,0.1,0,0,AccAcc,24,18,Woman,Right,
13,8,1,4.33281420000003,['n'],1,right,['e'],1,6.988790699999299,0.1,1,0,AccAcc,24,18,Woman,Right,
14,8,1,1.033952099999624,['n'],1,right,['e'],1,7.886609600000156,0.2,1,0,AccAcc,24,18,Woman,Right,
15,8,1,3.650567499999852,['n'],1,right,['e'],1,10.309064999999464,0.2,1,0,AccAcc,24,18,Woman,Right,
16,8,1,4.834220200000345,['c'],1,left,['u'],0,7.515947500000038,0.1,0,0,AccAcc,24,18,Woman,Right,
17,8,1,1.100484999999935,['c'],1,left,['e'],1,6.0223808000000645,0.4,1,0,AccAcc,24,18,Woman,Right,
18,8,1,3.3351081000000704,['n'],0,left,['u'],0,9.587904300000446,0.4,1,0,AccAcc,24,18,Woman,Right,
19,8,1,0.8499634999998307,['n'],1,right,['u'],0,3.1586918000002697,0.1,0,0,AccAcc,24,18,Woman,Right,
20,8,1,3.250084500000412,['n'],0,left,['u'],0,8.4730540999999,0.4,1,0,AccAcc,24,18,Woman,Right,
21,8,1,5.000176300000021,x,-99,left,none,-99,-99,0.4,-99,1,AccAcc,24,18,Woman,Right,
22,8,1,2.06654030000027,['n'],1,right,['u'],0,4.41809049999938,0.2,0,0,AccAcc,24,18,Woman,Right,
23,8,1,3.4659762999999657,['n'],1,right,['u'],0,0.8579265999997006,0.2,0,0,AccAcc,24,18,Woman,Right,
24,8,1,1.2847281000003932,['n'],0,left,['u'],0,3.639085900000282,0.2,1,0,AccAcc,24,18,Woman,Right,
25,8,1,0.967473599999721,['c'],1,left,['u'],0,2.40325379999922,0.4,0,0,AccAcc,24,18,Woman,Right,
26,8,1,1.451224800000091,['n'],0,left,['u'],0,2.7465517000000546,0.4,1,0,AccAcc,24,18,Woman,Right,
27,8,1,1.183901600000354,['n'],1,right,['e'],1,3.9039384000006976,0.2,1,0,AccAcc,24,18,Woman,Right,
28,8,1,2.615890799999761,['n'],1,right,['u'],0,2.766798800000288,0.1,0,0,AccAcc,24,18,Woman,Right,
29,8,1,0.8180130999999164,['c'],1,left,['u'],0,1.4255625999994663,0.4,0,0,AccAcc,24,18,Woman,Right,
30,8,1,0.7341958999995768,['n'],1,right,['u'],0,1.0699617000000217,0.4,0,0,AccAcc,24,18,Woman,Right,
31,8,1,2.5176996000000145,['c'],1,left,['u'],0,1.0895236000005752,0.1,0,0,AccAcc,24,18,Woman,Right,
32,8,1,1.0333452999993824,['n'],1,right,['u'],0,1.695817600000737,0.1,0,0,AccAcc,24,18,Woman,Right,
33,8,1,2.834100600000056,['n'],1,right,['e'],1,6.9405274999999165,0.2,1,0,AccAcc,24,18,Woman,Right,
34,8,1,4.184634399999595,['n'],1,right,['u'],0,3.251498800000263,0.1,0,0,AccAcc,24,18,Woman,Right,
35,8,1,3.517576100000042,['n'],1,right,['u'],0,1.7839626999993925,0.2,0,0,AccAcc,24,18,Woman,Right,
36,8,1,2.9675507000001744,['n'],0,left,['u'],0,2.380614200000309,0.1,1,0,AccAcc,24,18,Woman,Right,
37,8,1,3.900160700000015,['n'],1,right,['u'],0,1.1726682000007713,0.1,0,0,AccAcc,24,18,Woman,Right,
38,8,1,0.950724899999841,['c'],1,left,['u'],0,4.434446199999911,0.4,0,0,AccAcc,24,18,Woman,Right,
39,8,1,2.1341910999999527,['n'],1,right,['u'],0,2.1263920000001235,0.2,0,0,AccAcc,24,18,Woman,Right,
40,8,1,3.551274399999784,['c'],1,left,['u'],0,2.174852799999826,0.4,0,0,AccAcc,24,18,Woman,Right,
41,8,1,1.8345171000000846,['n'],0,left,['u'],0,3.6013099000001603,0.2,1,0,AccAcc,24,18,Woman,Right,
42,8,1,1.5508991999995487,['n'],1,right,['u'],0,4.598316200000227,0.2,0,0,AccAcc,24,18,Woman,Right,
43,8,1,1.5682643999998618,['n'],1,right,['e'],1,6.530620799999269,0.4,1,0,AccAcc,24,18,Woman,Right,
44,8,1,2.716199100000267,['n'],1,right,['e'],1,3.5405837000007523,0.2,1,0,AccAcc,24,18,Woman,Right,
45,8,1,1.8678626999999324,['n'],0,left,['e'],1,4.2866438999999446,0.2,0,0,AccAcc,24,18,Woman,Right,
46,8,1,0.7673788000001878,['n'],1,right,['e'],1,4.5037781999999424,0.4,1,0,AccAcc,24,18,Woman,Right,
47,8,1,1.3172781000002942,['n'],0,left,['e'],1,1.5542058999999426,0.1,0,0,AccAcc,24,18,Woman,Right,
48,8,1,1.5677279000001363,['n'],1,right,['u'],0,2.2485305999998673,0.1,0,0,AccAcc,24,18,Woman,Right,
49,8,1,2.7178446999996595,['c'],1,left,['u'],0,3.1558821999997235,0.4,0,0,AccAcc,24,18,Woman,Right,
50,8,1,0.8340398000000278,['n'],1,right,['u'],0,3.1272931000003155,0.4,0,0,AccAcc,24,18,Woman,Right,
51,8,1,1.7989494000003106,['c'],1,left,['u'],0,3.0465628000001743,0.4,0,0,AccAcc,24,18,Woman,Right,
52,8,1,1.1671920000007958,['n'],1,right,['u'],0,4.143799999999828,0.1,0,0,AccAcc,24,18,Woman,Right,
53,8,1,2.3172295999993366,['n'],1,right,['u'],0,1.6804879000001165,0.2,0,0,AccAcc,24,18,Woman,Right,
54,8,1,2.550970199999938,['n'],1,right,['u'],0,3.146130699999958,0.4,0,0,AccAcc,24,18,Woman,Right,
55,8,1,4.098587200000111,['c'],1,left,['u'],0,4.364348600000085,0.4,0,0,AccAcc,24,18,Woman,Right,
56,8,1,2.48428739999963,['n'],1,right,['u'],0,1.8839720999994825,0.1,0,0,AccAcc,24,18,Woman,Right,
57,8,1,4.4834914000002755,['n'],0,left,['u'],0,1.920417900000757,0.1,1,0,AccAcc,24,18,Woman,Right,
58,8,1,3.950661100000616,['n'],0,left,['u'],0,1.320466199999828,0.1,1,0,AccAcc,24,18,Woman,Right,
59,8,1,3.4174837999999,['c'],1,left,['u'],0,0.734121800000139,0.2,0,0,AccAcc,24,18,Woman,Right,
0,9,1,2.6838447000000087,['n'],1,right,['u'],0,1.213823400000365,0.1,0,0,FastAcc,24,18,Woman,Right,
1,9,1,2.0010447000004206,['n'],0,left,['u'],0,0.6560037999997803,0.1,1,0,FastAcc,24,18,Woman,Right,
2,9,1,4.2493834000006245,['c'],1,left,['u'],0,2.350607299999865,0.2,0,0,FastAcc,24,18,Woman,Right,
3,9,1,0.900420199999644,['n'],1,right,['u'],0,3.535049099999924,0.1,0,0,FastAcc,24,18,Woman,Right,
4,9,1,2.167257499999323,['c'],1,left,['u'],0,0.28625709999960236,0.4,0,0,FastAcc,24,18,Woman,Right,
5,9,1,0.766199300000153,['n'],1,right,['u'],0,0.27839640000001964,0.4,0,0,FastAcc,24,18,Woman,Right,
6,9,1,1.766739000000598,['n'],0,left,['u'],0,1.3836773999992147,0.2,1,0,FastAcc,24,18,Woman,Right,
7,9,1,2.1164549000004627,['c'],0,right,['u'],0,0.3821996000006038,0.1,1,0,FastAcc,24,18,Woman,Right,
8,9,1,1.1344374999998763,['n'],0,left,['u'],0,3.63565220000055,0.4,1,0,FastAcc,24,18,Woman,Right,
9,9,1,2.999905200000285,['c'],1,left,['u'],0,2.3168272000002617,0.4,0,0,FastAcc,24,18,Woman,Right,
10,9,1,1.38423579999926,['n'],1,right,['u'],0,2.0920873999994,0.4,0,0,FastAcc,24,18,Woman,Right,
11,9,1,1.350505699999303,['n'],0,left,['u'],0,3.029648599999746,0.1,1,0,FastAcc,24,18,Woman,Right,
12,9,1,0.866857699999855,['n'],1,right,['u'],0,1.1480723999993643,0.2,0,0,FastAcc,24,18,Woman,Right,
13,9,1,3.167983800000002,['n'],0,left,['u'],0,0.27363380000042525,0.2,1,0,FastAcc,24,18,Woman,Right,
14,9,1,5.016668700000082,x,-99,left,none,-99,-99,0.2,-99,1,FastAcc,24,18,Woman,Right,
15,9,1,2.5168291999998473,['n'],1,right,['u'],0,0.27183100000002014,0.4,0,0,FastAcc,24,18,Woman,Right,
16,9,1,1.4341032000002087,['n'],1,right,['u'],0,1.9495975999998336,0.4,0,0,FastAcc,24,18,Woman,Right,
17,9,1,2.351224099999854,['n'],0,left,['u'],0,1.0443326000004163,0.1,1,0,FastAcc,24,18,Woman,Right,
18,9,1,2.1348183000000063,['n'],0,left,['u'],0,3.352207300000373,0.2,1,0,FastAcc,24,18,Woman,Right,
19,9,1,0.7169716999997036,['c'],1,left,['u'],0,2.7443395000000237,0.2,0,0,FastAcc,24,18,Woman,Right,
20,9,1,0.8346263999992516,['n'],1,right,['u'],0,2.8763395999994827,0.2,0,0,FastAcc,24,18,Woman,Right,
21,9,1,1.5998983999998018,['n'],0,left,['u'],0,2.7644884999999704,0.1,1,0,FastAcc,24,18,Woman,Right,
22,9,1,2.0666103000003204,['c'],1,left,['u'],0,1.0382717999991655,0.2,0,0,FastAcc,24,18,Woman,Right,
23,9,1,1.4840346000000864,['n'],0,left,['u'],0,3.2435832999999548,0.4,1,0,FastAcc,24,18,Woman,Right,
24,9,1,1.117298699999992,['n'],1,right,['u'],0,1.8083486000004996,0.4,0,0,FastAcc,24,18,Woman,Right,
25,9,1,3.5834827999997287,['n'],1,right,['u'],0,1.4519172999998773,0.4,0,0,FastAcc,24,18,Woman,Right,
26,9,1,2.384070099999917,['n'],0,left,['u'],0,0.5178047999997943,0.1,1,0,FastAcc,24,18,Woman,Right,
27,9,1,1.7503985000003013,['c'],1,left,['u'],0,0.20500880000054167,0.4,0,0,FastAcc,24,18,Woman,Right,
28,9,1,2.152504100000442,['c'],1,left,['u'],0,0.20961409999927128,0.2,0,0,FastAcc,24,18,Woman,Right,
29,9,1,0.9328568999999334,['n'],1,right,['u'],0,0.29519970000001194,0.2,0,0,FastAcc,24,18,Woman,Right,
30,9,1,2.916659299999992,['n'],1,right,['u'],0,0.2977422999992996,0.1,0,0,FastAcc,24,18,Woman,Right,
31,9,1,0.7343063000007533,['n'],1,right,['u'],0,0.21000899999944522,0.4,0,0,FastAcc,24,18,Woman,Right,
32,9,1,1.3511932000001252,['n'],0,left,['u'],0,10.134567400000378,0.1,1,0,FastAcc,24,18,Woman,Right,
33,9,1,0.7838745000008203,['n'],1,right,['u'],0,3.605385199999546,0.2,0,0,FastAcc,24,18,Woman,Right,
34,9,1,1.2012157999997726,['n'],1,right,['u'],0,5.288257199999862,0.1,0,0,FastAcc,24,18,Woman,Right,
35,9,1,1.0499755999999252,['n'],1,right,['u'],0,3.7422280999999202,0.2,0,0,FastAcc,24,18,Woman,Right,
36,9,1,1.6180963999995583,['n'],1,right,['u'],0,4.490929000000506,0.2,0,0,FastAcc,24,18,Woman,Right,
37,9,1,1.7339795999996568,['n'],1,right,['u'],0,4.421195899999475,0.4,0,0,FastAcc,24,18,Woman,Right,
38,9,1,3.667474800000491,['n'],1,right,['u'],0,3.71714510000038,0.2,0,0,FastAcc,24,18,Woman,Right,
39,9,1,1.4666234000005716,['n'],1,right,['u'],0,5.001075799999853,0.4,0,0,FastAcc,24,18,Woman,Right,
40,9,1,4.500279400000181,['n'],1,right,['u'],0,0.9277059000005465,0.1,0,0,FastAcc,24,18,Woman,Right,
41,9,1,1.16646369999944,['n'],1,right,['u'],0,3.007115500000509,0.4,0,0,FastAcc,24,18,Woman,Right,
42,9,1,2.884971399999813,['c'],1,left,['u'],0,1.0306634999997186,0.1,0,0,FastAcc,24,18,Woman,Right,
43,9,1,1.400488100000075,['c'],1,left,['u'],0,4.1685857000002215,0.4,0,0,FastAcc,24,18,Woman,Right,
44,9,1,1.734529499999553,['n'],0,left,['u'],0,3.4065511999997398,0.1,1,0,FastAcc,24,18,Woman,Right,
45,9,1,2.4681854000000385,['n'],0,left,['u'],0,2.519617699999799,0.1,1,0,FastAcc,24,18,Woman,Right,
46,9,1,0.9825308999998015,['c'],1,left,['u'],0,1.294770399999834,0.4,0,0,FastAcc,24,18,Woman,Right,
47,9,1,0.6671922000004997,['n'],1,right,['e'],1,2.754527600000074,0.2,1,0,FastAcc,24,18,Woman,Right,
48,9,1,2.4838614999998754,['c'],1,left,['e'],1,3.235534800000096,0.2,1,0,FastAcc,24,18,Woman,Right,
49,9,1,2.98325449999993,['n'],0,left,['e'],1,4.174526400000104,0.1,0,0,FastAcc,24,18,Woman,Right,
50,9,1,2.7009673000002294,['n'],1,right,['e'],1,3.950423199999932,0.1,1,0,FastAcc,24,18,Woman,Right,
51,9,1,3.1844471000003978,['n'],0,left,['e'],1,0.8370191000003615,0.2,0,0,FastAcc,24,18,Woman,Right,
52,9,1,1.0164003999998386,['n'],1,right,['e'],1,1.3735199000002467,0.4,1,0,FastAcc,24,18,Woman,Right,
53,9,1,0.8326395000003686,['c'],0,right,['e'],1,0.8395817999999053,0.1,0,0,FastAcc,24,18,Woman,Right,
54,9,1,0.5491816999992807,['n'],1,right,['e'],1,2.8825886000004175,0.1,1,0,FastAcc,24,18,Woman,Right,
55,9,1,0.8671522000004188,['n'],0,left,['e'],1,3.134623300000385,0.2,0,0,FastAcc,24,18,Woman,Right,
56,9,1,0.7180059999991499,['c'],1,left,['e'],1,3.0313315999992483,0.4,1,0,FastAcc,24,18,Woman,Right,
57,9,1,1.6842655999998897,['n'],1,right,['e'],1,3.51730039999984,0.2,1,0,FastAcc,24,18,Woman,Right,
58,9,1,3.667491500000324,['c'],1,left,['u'],0,3.1698151000000507,0.1,0,0,FastAcc,24,18,Woman,Right,
59,9,1,1.5844768000006297,['n'],1,right,['u'],0,3.7021121999996467,0.4,0,0,FastAcc,24,18,Woman,Right,
0,10,1,2.5342870999993465,['n'],0,left,['u'],0,0.40756359999977576,0.2,1,0,FastFast,24,18,Woman,Right,
1,10,1,1.0163910999999644,['n'],1,right,['e'],1,0.4025406999999177,0.4,1,0,FastFast,24,18,Woman,Right,
2,10,1,1.016995500000121,['c'],1,left,['u'],0,0.7000361000000339,0.1,0,0,FastFast,24,18,Woman,Right,
3,10,1,0.9172852000001512,['n'],0,left,['u'],0,0.3500159999994139,0.2,1,0,FastFast,24,18,Woman,Right,
4,10,1,1.2678745000002891,['n'],1,right,['e'],1,0.22227569999995467,0.4,1,0,FastFast,24,18,Woman,Right,
5,10,1,0.6831374000003052,['n'],0,left,['e'],1,0.34890530000029685,0.1,0,0,FastFast,24,18,Woman,Right,
6,10,1,0.7852330999994592,['n'],1,right,['e'],1,0.3376695999995718,0.4,1,0,FastFast,24,18,Woman,Right,
7,10,1,0.8507082000005539,['n'],1,right,['e'],1,0.21270430000004126,0.4,1,0,FastFast,24,18,Woman,Right,
8,10,1,2.1996134000000893,['c'],1,left,['e'],1,0.5036264000000301,0.4,1,0,FastFast,24,18,Woman,Right,
9,10,1,2.0679259999997157,['c'],1,left,['e'],1,2.450716000000284,0.4,1,0,FastFast,24,18,Woman,Right,
10,10,1,0.8500982000005024,['n'],0,left,['e'],1,0.2742887000003975,0.2,0,0,FastFast,24,18,Woman,Right,
11,10,1,0.8012055999997756,['n'],1,right,['e'],1,0.28068680000069435,0.1,1,0,FastFast,24,18,Woman,Right,
12,10,1,0.6846535000004224,['n'],1,right,['e'],1,0.21244089999981952,0.2,1,0,FastFast,24,18,Woman,Right,
13,10,1,1.151704900000368,['c'],1,left,['u'],0,0.16011520000029122,0.4,0,0,FastFast,24,18,Woman,Right,
14,10,1,0.5674173000006704,['n'],1,right,['u'],0,0.2777643999997963,0.4,0,0,FastFast,24,18,Woman,Right,
15,10,1,1.9988444000000527,['n'],1,right,['u'],0,0.3021109000001161,0.1,0,0,FastFast,24,18,Woman,Right,
16,10,1,0.9330643000002965,['n'],1,right,['u'],0,0.22277130000020406,0.1,0,0,FastFast,24,18,Woman,Right,
17,10,1,0.7164074999991499,['n'],0,left,['u'],0,0.30018810000001395,0.1,1,0,FastFast,24,18,Woman,Right,
18,10,1,0.8159666999999899,['c'],1,left,['u'],0,0.27455770000051416,0.4,0,0,FastFast,24,18,Woman,Right,
19,10,1,1.2353087999999843,['n'],1,right,['u'],0,0.24750270000004093,0.2,0,0,FastFast,24,18,Woman,Right,
20,10,1,1.21734269999979,['c'],1,left,['u'],0,0.15919690000009723,0.2,0,0,FastFast,24,18,Woman,Right,
21,10,1,0.834302000000207,['n'],1,right,['u'],0,0.2180426000004445,0.4,0,0,FastFast,24,18,Woman,Right,
22,10,1,3.083784299999934,['c'],0,right,['u'],0,0.18540719999964494,0.1,1,0,FastFast,24,18,Woman,Right,
23,10,1,0.7513775000006717,['n'],0,left,['u'],0,0.29388180000023567,0.1,1,0,FastFast,24,18,Woman,Right,
24,10,1,1.3845636999994895,['n'],1,right,['u'],0,0.34147480000046926,0.4,0,0,FastFast,24,18,Woman,Right,
25,10,1,1.134811500000069,['c'],0,right,['u'],0,0.301223100000243,0.2,1,0,FastFast,24,18,Woman,Right,
26,10,1,1.018016400000306,['n'],1,right,['e'],1,0.17064469999968424,0.1,1,0,FastFast,24,18,Woman,Right,
27,10,1,1.9512433999998393,['c'],1,left,['u'],0,0.5206033999993451,0.1,0,0,FastFast,24,18,Woman,Right,
28,10,1,0.6845335999996678,['n'],1,right,['e'],1,0.6192676999999094,0.1,1,0,FastFast,24,18,Woman,Right,
29,10,1,0.8180137000008472,['n'],1,right,['e'],1,0.29206799999974464,0.2,1,0,FastFast,24,18,Woman,Right,
30,10,1,0.66642899999988,['c'],1,left,['e'],1,0.36828520000017306,0.2,1,0,FastFast,24,18,Woman,Right,
31,10,1,0.7331959000002826,['n'],0,left,['e'],1,0.29535609999948065,0.2,0,0,FastFast,24,18,Woman,Right,
32,10,1,0.5681863999998313,['c'],1,left,['e'],1,0.27892070000052627,0.4,1,0,FastFast,24,18,Woman,Right,
33,10,1,1.1505616999993435,['n'],1,right,['u'],0,0.2081253000005745,0.2,0,0,FastFast,24,18,Woman,Right,
34,10,1,1.183196100000714,['c'],1,left,['u'],0,0.2680682000000161,0.1,0,0,FastFast,24,18,Woman,Right,
35,10,1,0.46630289999939123,['n'],1,right,['u'],0,0.3692441000002873,0.4,0,0,FastFast,24,18,Woman,Right,
36,10,1,0.5347480999998879,['c'],1,left,['u'],0,0.2862691000000268,0.2,0,0,FastFast,24,18,Woman,Right,
37,10,1,0.5172124000000622,['n'],0,left,['u'],0,0.2728207999998631,0.2,1,0,FastFast,24,18,Woman,Right,
38,10,1,0.4510402999994767,['c'],0,right,['u'],0,0.27921340000011696,0.1,1,0,FastFast,24,18,Woman,Right,
39,10,1,0.35154529999999795,['n'],0,left,['u'],0,0.31912499999998545,0.4,1,0,FastFast,24,18,Woman,Right,
40,10,1,0.4181145000002289,['c'],0,right,['u'],0,0.3570696999995562,0.2,1,0,FastFast,24,18,Woman,Right,
41,10,1,0.40144280000004073,['n'],1,right,['u'],0,0.2812731000003623,0.2,0,0,FastFast,24,18,Woman,Right,
42,10,1,0.5847839999996722,['n'],1,right,['u'],0,0.26434449999942444,0.4,0,0,FastFast,24,18,Woman,Right,
43,10,1,0.8344833000001017,['c'],1,left,['u'],0,0.11050259999956324,0.4,0,0,FastFast,24,18,Woman,Right,
44,10,1,0.3511713999996573,['n'],1,right,['u'],0,0.2227947999999742,0.1,0,0,FastFast,24,18,Woman,Right,
45,10,1,0.31748460000017076,['c'],1,left,['u'],0,0.1722801999994772,0.2,0,0,FastFast,24,18,Woman,Right,
46,10,1,0.3833945999995194,['n'],1,right,['u'],0,0.2480094000002282,0.1,0,0,FastFast,24,18,Woman,Right,
47,10,1,0.4340236999996705,['c'],0,right,['u'],0,0.19070839999949385,0.1,1,0,FastFast,24,18,Woman,Right,
48,10,1,0.41788870000073075,['n'],0,left,['u'],0,0.29708970000046975,0.4,1,0,FastFast,24,18,Woman,Right,
49,10,1,0.7501451999996789,['c'],1,left,['u'],0,0.22613219999948342,0.4,0,0,FastFast,24,18,Woman,Right,
50,10,1,0.9010584999996354,['c'],0,right,['u'],0,0.21483279999938532,0.1,1,0,FastFast,24,18,Woman,Right,
51,10,1,1.2335307000003013,['n'],0,left,['u'],0,0.2873163000003842,0.1,1,0,FastFast,24,18,Woman,Right,
52,10,1,0.46734980000019277,['c'],1,left,['u'],0,0.27705520000017714,0.4,0,0,FastFast,24,18,Woman,Right,
53,10,1,0.8007211000003736,['c'],1,left,['u'],0,0.18739259999983915,0.4,0,0,FastFast,24,18,Woman,Right,
54,10,1,0.5159915000003821,['n'],0,left,['u'],0,0.2743922999998176,0.1,1,0,FastFast,24,18,Woman,Right,
55,10,1,1.1685004000000845,['n'],0,left,['u'],0,0.18674519999967742,0.2,1,0,FastFast,24,18,Woman,Right,
56,10,1,0.6001830999994127,['n'],1,right,['u'],0,0.19053729999995994,0.2,0,0,FastFast,24,18,Woman,Right,
57,10,1,1.1015803000000233,['c'],1,left,['u'],0,0.2206954000002952,0.2,0,0,FastFast,24,18,Woman,Right,
58,10,1,0.6519342000001416,['n'],1,right,['u'],0,0.2682996000003186,0.1,0,0,FastFast,24,18,Woman,Right,
59,10,1,0.5826964999996562,['c'],0,right,['u'],0,0.25392180000017106,0.2,1,0,FastFast,24,18,Woman,Right,
0,11,1,1.1666408000000956,['n'],1,right,['u'],0,2.1913665000001856,0.2,0,0,AccFast,24,18,Woman,Right,
1,11,1,1.000304799999867,['n'],1,right,['u'],0,0.6101372000002812,0.1,0,0,AccFast,24,18,Woman,Right,
2,11,1,2.0678025999995953,['n'],0,left,['u'],0,0.553957499999342,0.4,1,0,AccFast,24,18,Woman,Right,
3,11,1,1.7993862999992416,['n'],1,right,['e'],1,1.1342862999999852,0.4,1,0,AccFast,24,18,Woman,Right,
4,11,1,0.7511625999995886,['n'],0,left,['e'],1,0.9974489999995058,0.4,0,0,AccFast,24,18,Woman,Right,
5,11,1,1.6170355000003838,['n'],0,left,['e'],1,0.7029951000004075,0.2,0,0,AccFast,24,18,Woman,Right,
6,11,1,1.333730000000287,['c'],0,right,['u'],0,0.3043398999998317,0.1,1,0,AccFast,24,18,Woman,Right,
7,11,1,0.949823799999649,['n'],1,right,['u'],0,0.6572275999997146,0.2,0,0,AccFast,24,18,Woman,Right,
8,11,1,1.2508984999994937,['c'],1,left,['u'],0,0.39095590000033553,0.4,0,0,AccFast,24,18,Woman,Right,
9,11,1,0.6677467999998044,['n'],0,left,['u'],0,0.3994998999996824,0.2,1,0,AccFast,24,18,Woman,Right,
10,11,1,1.1174518999996508,['c'],1,left,['u'],0,0.2931459999999788,0.2,0,0,AccFast,24,18,Woman,Right,
11,11,1,0.5001792000002752,['n'],1,right,['u'],0,0.27996799999982613,0.2,0,0,AccFast,24,18,Woman,Right,
12,11,1,1.6498271999998906,['c'],1,left,['u'],0,0.669989799999712,0.4,0,0,AccFast,24,18,Woman,Right,
13,11,1,2.182850999999573,['c'],0,right,['u'],0,0.4142485000002125,0.1,1,0,AccFast,24,18,Woman,Right,
14,11,1,1.1008710999994946,['n'],0,left,['u'],0,1.5877473000000464,0.1,1,0,AccFast,24,18,Woman,Right,
15,11,1,1.6340040999994017,['n'],1,right,['u'],0,0.5172285999997257,0.1,0,0,AccFast,24,18,Woman,Right,
16,11,1,0.7514325000001918,['n'],1,right,['e'],1,1.1569757000006575,0.2,1,0,AccFast,24,18,Woman,Right,
17,11,1,0.5844606000000567,['n'],1,right,['e'],1,0.57834129999992,0.4,1,0,AccFast,24,18,Woman,Right,
18,11,1,0.584731599999941,['n'],0,left,['e'],1,0.5025645999994595,0.1,0,0,AccFast,24,18,Woman,Right,
19,11,1,0.9678351000002294,['n'],1,right,['e'],1,0.6381835000001956,0.2,1,0,AccFast,24,18,Woman,Right,
20,11,1,1.0504083999994691,['n'],0,left,['e'],1,0.3979221999998117,0.2,0,0,AccFast,24,18,Woman,Right,
21,11,1,0.9855183999998189,['n'],1,right,['e'],1,0.26432979999935924,0.2,1,0,AccFast,24,18,Woman,Right,
22,11,1,1.0686180000002423,['c'],1,left,['u'],0,1.0934584000005998,0.4,0,0,AccFast,24,18,Woman,Right,
23,11,1,0.7847044999998616,['n'],1,right,['u'],0,0.5890964999998687,0.4,0,0,AccFast,24,18,Woman,Right,
24,11,1,1.450881499999923,['n'],1,right,['u'],0,0.3020286999999371,0.1,0,0,AccFast,24,18,Woman,Right,
25,11,1,1.4503814999998212,['c'],1,left,['u'],0,0.2824904000008246,0.2,0,0,AccFast,24,18,Woman,Right,
26,11,1,0.8506765000001906,['n'],1,right,['u'],0,0.41548690000036004,0.1,0,0,AccFast,24,18,Woman,Right,
27,11,1,1.5662016999995103,['c'],1,left,['u'],0,0.32257060000029014,0.4,0,0,AccFast,24,18,Woman,Right,
28,11,1,1.2020621000001483,['c'],1,left,['u'],0,0.3603491000003487,0.1,0,0,AccFast,24,18,Woman,Right,
29,11,1,0.5346610999995391,['n'],1,right,['u'],0,0.343801899999562,0.4,0,0,AccFast,24,18,Woman,Right,
30,11,1,1.5169207999997525,['c'],1,left,['u'],0,0.2565207999996346,0.2,0,0,AccFast,24,18,Woman,Right,
31,11,1,1.2656437000005099,['n'],1,right,['u'],0,0.2622908000003008,0.1,0,0,AccFast,24,18,Woman,Right,
32,11,1,0.9655947999999626,['n'],1,right,['u'],0,0.19964040000013483,0.2,0,0,AccFast,24,18,Woman,Right,
33,11,1,0.8010301999993317,['n'],1,right,['u'],0,0.9136023000000932,0.2,0,0,AccFast,24,18,Woman,Right,
34,11,1,1.3824926999996023,['n'],0,left,['u'],0,4.200021599999673,0.1,1,0,AccFast,24,18,Woman,Right,
35,11,1,1.233067099999971,['n'],1,right,['u'],0,0.38580980000006093,0.2,0,0,AccFast,24,18,Woman,Right,
36,11,1,0.8177343999996083,['n'],1,right,['u'],0,1.780055000000175,0.4,0,0,AccFast,24,18,Woman,Right,
37,11,1,4.050833700000112,['n'],1,right,['u'],0,1.7250605999997788,0.1,0,0,AccFast,24,18,Woman,Right,
38,11,1,1.4839571000002252,['n'],1,right,['u'],0,0.46364079999966634,0.2,0,0,AccFast,24,18,Woman,Right,
39,11,1,2.817707199999859,['n'],0,left,['u'],0,0.9906903000000966,0.4,1,0,AccFast,24,18,Woman,Right,
40,11,1,2.2339277000000948,['n'],0,left,['u'],0,0.9451854999997522,0.1,1,0,AccFast,24,18,Woman,Right,
41,11,1,5.0159950999996,x,-99,right,none,-99,-99,0.1,-99,1,AccFast,24,18,Woman,Right,
