withinblocktrial,block,block_repetition,rt,resp,cor,cresp,conf_press,cj,rtconf,coherence,metacognition,slow_trial,manipulation,sub,age,gender,handedness,
0,1,1,3.0500293000004604,['n'],0,left,none,-99,-99,0.5,-99,0,none,13,17,Woman,Right,
1,1,1,5.0159019000002445,x,-99,left,none,-99,-99,0.5,-99,1,none,13,17,Woman,Right,
2,1,1,2.283511499999804,['n'],0,left,none,-99,-99,0.5,-99,0,none,13,17,Woman,Right,
3,1,1,2.233619999999064,['c'],0,right,none,-99,-99,0.5,-99,0,none,13,17,Woman,Right,
4,1,1,4.150365600000441,['c'],1,left,none,-99,-99,0.5,-99,0,none,13,17,Woman,Right,
5,1,1,3.150042000001122,['c'],0,right,none,-99,-99,0.5,-99,0,none,13,17,Woman,Right,
6,1,1,3.0820120999997016,['c'],0,right,none,-99,-99,0.5,-99,0,none,13,17,Woman,Right,
7,1,1,2.33408369999961,['c'],0,right,none,-99,-99,0.5,-99,0,none,13,17,Woman,Right,
8,1,1,4.716847900001085,['n'],0,left,none,-99,-99,0.5,-99,0,none,13,17,Woman,Right,
9,1,1,5.015881699999227,x,-99,left,none,-99,-99,0.5,-99,1,none,13,17,Woman,Right,
10,1,1,4.765006800000265,['c'],1,left,none,-99,-99,0.5,-99,0,none,13,17,Woman,Right,
11,1,1,2.417612299999746,['n'],1,right,none,-99,-99,0.5,-99,0,none,13,17,Woman,Right,
12,1,1,4.033483900000647,['c'],0,right,none,-99,-99,0.5,-99,0,none,13,17,Woman,Right,
13,1,1,4.350173200000427,['n'],1,right,none,-99,-99,0.5,-99,0,none,13,17,Woman,Right,
14,1,1,1.7503195000008418,['n'],1,right,none,-99,-99,0.5,-99,0,none,13,17,Woman,Right,
15,1,1,2.667038199999297,['n'],1,right,none,-99,-99,0.5,-99,0,none,13,17,Woman,Right,
16,1,1,3.083463599999959,['c'],1,left,none,-99,-99,0.5,-99,0,none,13,17,Woman,Right,
17,1,1,0.8332208000010723,['n'],1,right,none,-99,-99,0.5,-99,0,none,13,17,Woman,Right,
18,1,1,0.8336352000005718,['n'],1,right,none,-99,-99,0.5,-99,0,none,13,17,Woman,Right,
19,1,1,0.7001349000001937,['n'],1,right,none,-99,-99,0.5,-99,0,none,13,17,Woman,Right,
20,1,1,0.7832768000007491,['c'],1,left,none,-99,-99,0.5,-99,0,none,13,17,Woman,Right,
21,1,1,1.4828429000008327,['c'],1,left,none,-99,-99,0.5,-99,0,none,13,17,Woman,Right,
22,1,1,0.5840616000004957,['c'],1,left,none,-99,-99,0.5,-99,0,none,13,17,Woman,Right,
23,1,1,1.0179258999996819,['c'],1,left,none,-99,-99,0.5,-99,0,none,13,17,Woman,Right,
0,1,2,0.7673517000002903,['n'],1,right,none,-99,-99,0.5,-99,0,none,13,17,Woman,Right,
1,1,2,0.7331745999999839,['n'],1,right,none,-99,-99,0.5,-99,0,none,13,17,Woman,Right,
2,1,2,0.5845155000006343,['c'],1,left,none,-99,-99,0.5,-99,0,none,13,17,Woman,Right,
3,1,2,0.5003159000007145,['c'],1,left,none,-99,-99,0.5,-99,0,none,13,17,Woman,Right,
4,1,2,0.43268109999917215,['n'],1,right,none,-99,-99,0.5,-99,0,none,13,17,Woman,Right,
5,1,2,0.5670962000003783,['n'],1,right,none,-99,-99,0.5,-99,0,none,13,17,Woman,Right,
6,1,2,0.4503578000003472,['n'],1,right,none,-99,-99,0.5,-99,0,none,13,17,Woman,Right,
7,1,2,0.46599289999903704,['c'],1,left,none,-99,-99,0.5,-99,0,none,13,17,Woman,Right,
8,1,2,0.5674305000011373,['n'],1,right,none,-99,-99,0.5,-99,0,none,13,17,Woman,Right,
9,1,2,0.4343085999989853,['c'],1,left,none,-99,-99,0.5,-99,0,none,13,17,Woman,Right,
10,1,2,0.34891939999943133,['n'],0,left,none,-99,-99,0.5,-99,0,none,13,17,Woman,Right,
11,1,2,0.6830721000005724,['n'],1,right,none,-99,-99,0.5,-99,0,none,13,17,Woman,Right,
12,1,2,0.44996079999873473,['c'],1,left,none,-99,-99,0.5,-99,0,none,13,17,Woman,Right,
13,1,2,0.5500100999997812,['n'],1,right,none,-99,-99,0.5,-99,0,none,13,17,Woman,Right,
14,1,2,0.46710630000052333,['c'],1,left,none,-99,-99,0.5,-99,0,none,13,17,Woman,Right,
15,1,2,0.46693409999897995,['n'],1,right,none,-99,-99,0.5,-99,0,none,13,17,Woman,Right,
16,1,2,0.5005848999990121,['n'],1,right,none,-99,-99,0.5,-99,0,none,13,17,Woman,Right,
17,1,2,0.5494209000007686,['c'],1,left,none,-99,-99,0.5,-99,0,none,13,17,Woman,Right,
18,1,2,0.5333974000004673,['c'],1,left,none,-99,-99,0.5,-99,0,none,13,17,Woman,Right,
19,1,2,0.4170861000002333,['c'],1,left,none,-99,-99,0.5,-99,0,none,13,17,Woman,Right,
20,1,2,0.49953930000083346,['c'],1,left,none,-99,-99,0.5,-99,0,none,13,17,Woman,Right,
21,1,2,0.9326159000011103,['c'],1,left,none,-99,-99,0.5,-99,0,none,13,17,Woman,Right,
22,1,2,0.4489469000000099,['n'],1,right,none,-99,-99,0.5,-99,0,none,13,17,Woman,Right,
23,1,2,0.4179035999986809,['n'],1,right,none,-99,-99,0.5,-99,0,none,13,17,Woman,Right,
0,2,1,4.333126600000469,['n'],1,right,none,-99,-99,0.1,-99,0,none,13,17,Woman,Right,
1,2,1,1.2678531000001385,['n'],0,left,none,-99,-99,0.1,-99,0,none,13,17,Woman,Right,
2,2,1,2.5504191999989416,['c'],1,left,none,-99,-99,0.2,-99,0,none,13,17,Woman,Right,
3,2,1,0.6676104999987729,['n'],1,right,none,-99,-99,0.1,-99,0,none,13,17,Woman,Right,
4,2,1,0.76884710000013,['n'],1,right,none,-99,-99,0.2,-99,0,none,13,17,Woman,Right,
5,2,1,0.5673326999985875,['c'],1,left,none,-99,-99,0.4,-99,0,none,13,17,Woman,Right,
6,2,1,0.4669952000003832,['n'],1,right,none,-99,-99,0.4,-99,0,none,13,17,Woman,Right,
7,2,1,0.6009094000000914,['c'],0,right,none,-99,-99,0.2,-99,0,none,13,17,Woman,Right,
8,2,1,1.7998585000004823,['c'],0,right,none,-99,-99,0.1,-99,0,none,13,17,Woman,Right,
9,2,1,0.6003106999996817,['n'],1,right,none,-99,-99,0.1,-99,0,none,13,17,Woman,Right,
10,2,1,0.5663010000007489,['n'],1,right,none,-99,-99,0.4,-99,0,none,13,17,Woman,Right,
11,2,1,0.5671136000000843,['n'],1,right,none,-99,-99,0.1,-99,0,none,13,17,Woman,Right,
12,2,1,0.5169341000000713,['n'],0,left,none,-99,-99,0.1,-99,0,none,13,17,Woman,Right,
13,2,1,1.3172520000007353,['c'],1,left,none,-99,-99,0.2,-99,0,none,13,17,Woman,Right,
14,2,1,0.6492502000000968,['n'],1,right,none,-99,-99,0.1,-99,0,none,13,17,Woman,Right,
15,2,1,0.5503416999999899,['c'],1,left,none,-99,-99,0.2,-99,0,none,13,17,Woman,Right,
16,2,1,0.650943599999664,['c'],1,left,none,-99,-99,0.2,-99,0,none,13,17,Woman,Right,
17,2,1,0.434404400000858,['n'],1,right,none,-99,-99,0.2,-99,0,none,13,17,Woman,Right,
18,2,1,0.4336337000004278,['c'],1,left,none,-99,-99,0.4,-99,0,none,13,17,Woman,Right,
19,2,1,0.5175042000009853,['n'],1,right,none,-99,-99,0.4,-99,0,none,13,17,Woman,Right,
20,2,1,2.817431800000122,['n'],0,left,none,-99,-99,0.4,-99,0,none,13,17,Woman,Right,
21,2,1,1.4325912999993307,['n'],0,left,none,-99,-99,0.2,-99,0,none,13,17,Woman,Right,
22,2,1,0.6510691999992559,['c'],1,left,none,-99,-99,0.4,-99,0,none,13,17,Woman,Right,
23,2,1,0.5009490000011283,['c'],1,left,none,-99,-99,0.4,-99,0,none,13,17,Woman,Right,
0,3,1,1.9674617999990005,['n'],1,right,['u'],1,1.1571266999999352,0.1,1,0,none,13,17,Woman,Right,
1,3,1,2.8176860000003217,['n'],0,left,['e'],0,1.0847176999996009,0.1,1,0,none,13,17,Woman,Right,
2,3,1,1.0849412999996275,['n'],1,right,['u'],1,0.460516799999823,0.2,1,0,none,13,17,Woman,Right,
3,3,1,1.4347164000009798,['c'],1,left,['e'],0,1.0474763000001985,0.1,0,0,none,13,17,Woman,Right,
4,3,1,1.134046400000443,['c'],1,left,['u'],1,0.7105565000001661,0.4,1,0,none,13,17,Woman,Right,
5,3,1,2.750914100000955,['n'],0,left,['e'],0,0.5467731999997341,0.1,1,0,none,13,17,Woman,Right,
6,3,1,1.0846166999999696,['n'],1,right,['u'],1,0.5675818999989133,0.4,1,0,none,13,17,Woman,Right,
7,3,1,1.4667386000000988,['c'],1,left,['u'],1,0.49320609999995213,0.4,1,0,none,13,17,Woman,Right,
8,3,1,1.2171331999998074,['n'],1,right,['u'],1,0.3030818999995972,0.4,1,0,none,13,17,Woman,Right,
9,3,1,1.4506314999998722,['n'],1,right,['u'],1,0.2712489999994432,0.2,1,0,none,13,17,Woman,Right,
10,3,1,1.5004150999993726,['c'],1,left,['e'],0,0.65491320000001,0.1,0,0,none,13,17,Woman,Right,
11,3,1,3.067772700000205,['c'],0,right,['e'],0,0.30523060000086844,0.1,1,0,none,13,17,Woman,Right,
12,3,1,2.900212799999281,['c'],1,left,['u'],1,0.11929690000033588,0.4,1,0,none,13,17,Woman,Right,
13,3,1,0.8340549000004103,['c'],1,left,['u'],1,0.24719589999949676,0.4,1,0,none,13,17,Woman,Right,
14,3,1,1.1343792999996367,['n'],1,right,['u'],1,0.13419859999885375,0.2,1,0,none,13,17,Woman,Right,
15,3,1,2.4678708000010374,['c'],1,left,['u'],1,0.8057683999995788,0.1,1,0,none,13,17,Woman,Right,
16,3,1,3.6689506999991863,['n'],0,left,['e'],0,0.4884903000001941,0.2,1,0,none,13,17,Woman,Right,
17,3,1,1.001259200000277,['n'],1,right,['u'],1,0.06769669999994221,0.2,1,0,none,13,17,Woman,Right,
18,3,1,0.651241100000334,['n'],1,right,['u'],1,0.07693290000133857,0.4,1,0,none,13,17,Woman,Right,
19,3,1,2.334382499999265,['c'],1,left,['e'],0,0.14724949999981618,0.4,0,0,none,13,17,Woman,Right,
20,3,1,2.599258899999768,['c'],1,left,['e'],0,0.2198603999986517,0.2,0,0,none,13,17,Woman,Right,
21,3,1,0.9488987000004272,['n'],1,right,['u'],1,0.11640330000045651,0.2,1,0,none,13,17,Woman,Right,
22,3,1,1.8516386000010243,['n'],1,right,['e'],0,0.10730080000030284,0.1,0,0,none,13,17,Woman,Right,
23,3,1,3.500677400001223,['c'],0,right,['e'],0,0.19331330000022717,0.2,1,0,none,13,17,Woman,Right,
0,4,1,1.7008780000014667,['c'],1,left,['e'],0,1.3391861000000063,0.4,0,0,FastAcc,13,17,Woman,Right,
1,4,1,1.584016500000871,['n'],1,right,['e'],0,0.13700940000126138,0.1,0,0,FastAcc,13,17,Woman,Right,
2,4,1,1.3662218999998004,['n'],1,right,['u'],1,0.591459200000827,0.4,1,0,FastAcc,13,17,Woman,Right,
3,4,1,2.5840674999999464,['c'],1,left,['e'],0,0.8507290999987163,0.2,0,0,FastAcc,13,17,Woman,Right,
4,4,1,1.217765600000348,['c'],1,left,['e'],0,0.8023594999995112,0.4,0,0,FastAcc,13,17,Woman,Right,
5,4,1,2.4340232999984437,['c'],1,left,['e'],0,1.0441047000003891,0.4,0,0,FastAcc,13,17,Woman,Right,
6,4,1,0.6012154999989434,['n'],0,left,['u'],1,0.9805019999985234,0.2,0,0,FastAcc,13,17,Woman,Right,
7,4,1,3.8665614999990794,['n'],1,right,['e'],0,0.40523100000064005,0.2,0,0,FastAcc,13,17,Woman,Right,
8,4,1,3.9164479999999458,['c'],0,right,['e'],0,0.6355564999994385,0.2,1,0,FastAcc,13,17,Woman,Right,
9,4,1,1.7844110000005458,['c'],0,right,['e'],0,0.5888768000004347,0.2,1,0,FastAcc,13,17,Woman,Right,
10,4,1,1.0674014999985957,['n'],1,right,['e'],0,1.309077600000819,0.4,0,0,FastAcc,13,17,Woman,Right,
11,4,1,2.067416299998513,['c'],1,left,['e'],0,0.5050722000014503,0.2,0,0,FastAcc,13,17,Woman,Right,
12,4,1,2.616608100001031,['c'],1,left,['e'],0,0.38278900000113936,0.4,0,0,FastAcc,13,17,Woman,Right,
13,4,1,1.2166066999998293,['c'],1,left,['e'],0,0.30535910000071453,0.4,0,0,FastAcc,13,17,Woman,Right,
14,4,1,2.8841198999998596,['c'],1,left,['e'],0,0.27618299999994633,0.2,0,0,FastAcc,13,17,Woman,Right,
15,4,1,1.4844471000014892,['c'],1,left,['u'],1,0.24047710000013467,0.4,1,0,FastAcc,13,17,Woman,Right,
16,4,1,2.0672731999984535,['n'],1,right,['e'],0,0.4230023000000074,0.1,0,0,FastAcc,13,17,Woman,Right,
17,4,1,5.016711300000679,x,-99,left,none,-99,-99,0.1,-99,1,FastAcc,13,17,Woman,Right,
18,4,1,1.0165944000000309,['n'],1,right,['u'],1,0.7305142999994132,0.4,1,0,FastAcc,13,17,Woman,Right,
19,4,1,0.9010154999996303,['c'],1,left,['e'],0,0.44289869999920484,0.4,0,0,FastAcc,13,17,Woman,Right,
20,4,1,0.8346922000000632,['n'],1,right,['u'],1,0.3465403000009246,0.4,1,0,FastAcc,13,17,Woman,Right,
21,4,1,1.667558299999655,['n'],0,left,['u'],1,0.6363088999987667,0.1,0,0,FastAcc,13,17,Woman,Right,
22,4,1,1.3005446000006486,['c'],1,left,['e'],0,0.4813174999999319,0.4,0,0,FastAcc,13,17,Woman,Right,
23,4,1,1.1679526999996597,['n'],0,left,['u'],1,0.27361890000065614,0.1,0,0,FastAcc,13,17,Woman,Right,
24,4,1,1.534373599999526,['c'],0,right,['e'],0,0.7958576000000903,0.1,1,0,FastAcc,13,17,Woman,Right,
25,4,1,2.217442499999379,['c'],1,left,['u'],1,0.18184479999945324,0.2,1,0,FastAcc,13,17,Woman,Right,
26,4,1,2.2334288000001834,['c'],1,left,['e'],0,0.4075957000004564,0.1,0,0,FastAcc,13,17,Woman,Right,
27,4,1,1.667629699999452,['n'],1,right,['u'],1,0.23120980000021518,0.2,1,0,FastAcc,13,17,Woman,Right,
28,4,1,1.0839242000001832,['c'],1,left,['u'],1,0.43726500000047963,0.2,1,0,FastAcc,13,17,Woman,Right,
29,4,1,1.5009448000000702,['n'],0,left,['u'],1,0.4900803000000451,0.4,0,0,FastAcc,13,17,Woman,Right,
30,4,1,3.8499164000004384,['n'],1,right,['e'],0,0.6391371999998228,0.2,0,0,FastAcc,13,17,Woman,Right,
31,4,1,3.28423389999989,['n'],1,right,['e'],0,0.612815700000283,0.1,0,0,FastAcc,13,17,Woman,Right,
32,4,1,0.8330714000003354,['n'],1,right,['u'],1,0.4304775000000518,0.4,1,0,FastAcc,13,17,Woman,Right,
33,4,1,3.7496609000008903,['c'],0,right,['e'],0,0.44080360000043584,0.2,1,0,FastAcc,13,17,Woman,Right,
34,4,1,1.8839944999999716,['n'],1,right,['e'],0,0.15810890000102518,0.2,0,0,FastAcc,13,17,Woman,Right,
35,4,1,5.016678400001183,x,-99,left,none,-99,-99,0.1,-99,1,FastAcc,13,17,Woman,Right,
36,4,1,1.2670533000000432,['c'],0,right,['e'],0,0.5617569999994885,0.1,1,0,FastAcc,13,17,Woman,Right,
37,4,1,2.7168799999999464,['c'],1,left,['e'],0,0.4491453000009642,0.2,0,0,FastAcc,13,17,Woman,Right,
38,4,1,3.1499351000002207,['c'],0,right,['e'],0,0.3395407999996678,0.1,1,0,FastAcc,13,17,Woman,Right,
39,4,1,1.2345705000007001,['n'],1,right,['u'],1,0.2631904999998369,0.2,1,0,FastAcc,13,17,Woman,Right,
40,4,1,0.9678808999997273,['c'],1,left,['u'],1,0.20009080000090762,0.4,1,0,FastAcc,13,17,Woman,Right,
41,4,1,1.1172187000011036,['n'],1,right,['u'],1,0.32571789999929024,0.4,1,0,FastAcc,13,17,Woman,Right,
42,4,1,1.7178765999997267,['c'],1,left,['e'],0,0.2787820000012289,0.1,0,0,FastAcc,13,17,Woman,Right,
43,4,1,3.4506667999994534,['n'],1,right,['e'],0,0.19674339999983204,0.1,0,0,FastAcc,13,17,Woman,Right,
44,4,1,1.9339515000010579,['c'],0,right,['e'],0,0.38507639999988896,0.1,1,0,FastAcc,13,17,Woman,Right,
45,4,1,0.9347550000002229,['n'],1,right,['u'],1,0.1586578999995254,0.4,1,0,FastAcc,13,17,Woman,Right,
46,4,1,1.434829499999978,['n'],1,right,['u'],1,0.11387780000040948,0.1,1,0,FastAcc,13,17,Woman,Right,
47,4,1,3.101333499998873,['n'],1,right,['u'],1,0.17924889999994775,0.2,1,0,FastAcc,13,17,Woman,Right,
48,4,1,0.7665056000005279,['c'],1,left,['u'],1,0.43282820000058564,0.4,1,0,FastAcc,13,17,Woman,Right,
49,4,1,1.566832099999374,['c'],1,left,['u'],1,0.16230419999919832,0.2,1,0,FastAcc,13,17,Woman,Right,
50,4,1,1.73440760000085,['c'],1,left,['e'],0,0.16833320000114327,0.2,0,0,FastAcc,13,17,Woman,Right,
51,4,1,0.9172116000008828,['n'],1,right,['e'],0,0.11119409999992058,0.1,0,0,FastAcc,13,17,Woman,Right,
52,4,1,3.183453000001464,['c'],0,right,['u'],1,0.41484219999983907,0.1,0,0,FastAcc,13,17,Woman,Right,
53,4,1,1.0501461000003474,['c'],1,left,['u'],1,0.19857179999962682,0.4,1,0,FastAcc,13,17,Woman,Right,
54,4,1,3.1840876000005665,['n'],1,right,['u'],1,0.16110630000002857,0.2,1,0,FastAcc,13,17,Woman,Right,
55,4,1,1.767072399999961,['c'],0,right,['u'],1,0.3750407000006817,0.1,0,0,FastAcc,13,17,Woman,Right,
56,4,1,1.182726700000785,['n'],1,right,['u'],1,0.31645299999945564,0.4,1,0,FastAcc,13,17,Woman,Right,
57,4,1,0.8333412000010867,['c'],1,left,['u'],1,0.2719317000010051,0.1,1,0,FastAcc,13,17,Woman,Right,
58,4,1,2.2840371999991476,['c'],1,left,['e'],0,0.6041134999995847,0.2,0,0,FastAcc,13,17,Woman,Right,
59,4,1,2.900065800000448,['c'],1,left,['u'],1,0.11442859999988286,0.1,1,0,FastAcc,13,17,Woman,Right,
0,5,1,0.9508717999997316,['n'],1,right,['u'],1,0.08618390000083309,0.2,1,0,FastFast,13,17,Woman,Right,
1,5,1,0.6677837000006548,['c'],1,left,['e'],0,0.10628079999878537,0.4,0,0,FastFast,13,17,Woman,Right,
2,5,1,1.2666398999990633,['c'],1,left,['u'],1,0.214278600000398,0.2,1,0,FastFast,13,17,Woman,Right,
3,5,1,0.6672825999994529,['n'],1,right,['u'],1,0.08464219999950728,0.4,1,0,FastFast,13,17,Woman,Right,
4,5,1,1.2670448999997461,['c'],1,left,['e'],0,0.7848861999991641,0.1,0,0,FastFast,13,17,Woman,Right,
5,5,1,0.7338030999999319,['n'],1,right,['u'],1,0.07106130000101984,0.4,1,0,FastFast,13,17,Woman,Right,
6,5,1,0.8181148000003304,['c'],1,left,['u'],1,0.11786539999957313,0.4,1,0,FastFast,13,17,Woman,Right,
7,5,1,1.64967599999909,['c'],1,left,['e'],0,0.11465690000113682,0.2,0,0,FastFast,13,17,Woman,Right,
8,5,1,0.6846272999991925,['n'],0,left,['u'],1,0.08326339999985066,0.1,0,0,FastFast,13,17,Woman,Right,
9,5,1,0.7849573999992572,['n'],1,right,['u'],1,0.08325610000065353,0.1,1,0,FastFast,13,17,Woman,Right,
10,5,1,0.9510659000006854,['n'],1,right,['u'],1,0.0917343000000983,0.2,1,0,FastFast,13,17,Woman,Right,
11,5,1,2.4675062999995134,['c'],1,left,['e'],0,0.15200370000093244,0.2,0,0,FastFast,13,17,Woman,Right,
12,5,1,0.5498191000006045,['n'],1,right,['u'],1,0.09475600000041595,0.4,1,0,FastFast,13,17,Woman,Right,
13,5,1,1.2343634999997448,['n'],0,left,['u'],1,0.09216340000057244,0.1,0,0,FastFast,13,17,Woman,Right,
14,5,1,0.8173573000003671,['n'],1,right,['u'],1,0.1066398000002664,0.2,1,0,FastFast,13,17,Woman,Right,
15,5,1,0.7341233999995893,['c'],1,left,['e'],0,0.10720519999995304,0.4,0,0,FastFast,13,17,Woman,Right,
16,5,1,1.550680199999988,['c'],0,right,['e'],0,0.12361889999920095,0.1,1,0,FastFast,13,17,Woman,Right,
17,5,1,0.6011565999997401,['n'],1,right,['u'],1,0.04918480000014824,0.1,1,0,FastFast,13,17,Woman,Right,
18,5,1,1.3840972000016336,['c'],1,left,['e'],0,0.13846680000096967,0.1,0,0,FastFast,13,17,Woman,Right,
19,5,1,3.0676923999999417,['n'],0,left,['e'],0,0.07684949999929813,0.2,1,0,FastFast,13,17,Woman,Right,
20,5,1,0.5671719000001758,['n'],1,right,['u'],1,0.05326720000084606,0.4,1,0,FastFast,13,17,Woman,Right,
21,5,1,0.8181813999999576,['c'],1,left,['e'],0,0.03689230000054522,0.4,0,0,FastFast,13,17,Woman,Right,
22,5,1,1.5007002999991528,['c'],1,left,['u'],1,0.07386939999923925,0.1,1,0,FastFast,13,17,Woman,Right,
23,5,1,0.6007188000003225,['n'],1,right,['u'],1,0.03344210000068415,0.1,1,0,FastFast,13,17,Woman,Right,
24,5,1,1.8667359999999462,['c'],0,right,['u'],1,0.07268850000036764,0.2,0,0,FastFast,13,17,Woman,Right,
25,5,1,1.8170093999997334,['c'],1,left,['e'],0,0.09512399999948684,0.1,0,0,FastFast,13,17,Woman,Right,
26,5,1,0.6840473000011116,['n'],1,right,['u'],1,0.0021345999994082376,0.4,1,0,FastFast,13,17,Woman,Right,
27,5,1,1.1504349999995611,['c'],1,left,['e'],0,0.0700354000000516,0.1,0,0,FastFast,13,17,Woman,Right,
28,5,1,1.2668324000005668,['c'],1,left,['u'],1,0.034998999999515945,0.2,1,0,FastFast,13,17,Woman,Right,
29,5,1,0.6177970999997342,['n'],1,right,['u'],1,0.027281000000584754,0.4,1,0,FastFast,13,17,Woman,Right,
30,5,1,1.1011192999994819,['c'],0,right,['e'],0,0.01703270000143675,0.4,1,0,FastFast,13,17,Woman,Right,
31,5,1,2.632783600000039,['n'],1,right,['u'],1,0.02645710000069812,0.2,1,0,FastFast,13,17,Woman,Right,
32,5,1,1.635122699999556,['c'],1,left,['u'],1,0.2174457999990409,0.2,1,0,FastFast,13,17,Woman,Right,
33,5,1,0.6009751000001415,['c'],1,left,['e'],0,0.027227900000070804,0.4,0,0,FastFast,13,17,Woman,Right,
34,5,1,1.3167553999992379,['n'],0,left,['u'],1,0.0725427999987005,0.4,0,0,FastFast,13,17,Woman,Right,
35,5,1,0.851096400001552,['n'],1,right,['u'],1,0.02184269999997923,0.1,1,0,FastFast,13,17,Woman,Right,
36,5,1,0.6340635000015027,['n'],1,right,['u'],1,0.0617419999998674,0.1,1,0,FastFast,13,17,Woman,Right,
37,5,1,0.4177032000006875,['n'],0,left,['e'],0,2.5729326000000583,0.2,1,0,FastFast,13,17,Woman,Right,
38,5,1,2.7840495000000374,['n'],1,right,['e'],0,0.08970489999956044,0.1,0,0,FastFast,13,17,Woman,Right,
39,5,1,1.400620100001106,['n'],1,right,['u'],1,0.08024769999974524,0.2,1,0,FastFast,13,17,Woman,Right,
40,5,1,1.751310800000283,['c'],1,left,['e'],0,0.057388799999898765,0.1,0,0,FastFast,13,17,Woman,Right,
41,5,1,0.4172082999994018,['n'],1,right,['u'],1,0.009263300000384334,0.2,1,0,FastFast,13,17,Woman,Right,
42,5,1,1.3676159999995434,['c'],1,left,['e'],0,0.08412520000092627,0.2,0,0,FastFast,13,17,Woman,Right,
43,5,1,0.8006740000000718,['n'],1,right,['u'],1,0.03482310000072175,0.4,1,0,FastFast,13,17,Woman,Right,
44,5,1,1.0843597999992198,['c'],0,right,['u'],1,0.04040770000028715,0.1,0,0,FastFast,13,17,Woman,Right,
45,5,1,1.067786999999953,['c'],1,left,['u'],1,0.030551399999239948,0.1,1,0,FastFast,13,17,Woman,Right,
46,5,1,3.8510150000001886,['n'],1,right,['u'],1,0.06968490000144811,0.1,1,0,FastFast,13,17,Woman,Right,
47,5,1,0.9012182000005851,['c'],1,left,['u'],1,1.2813315000003058,0.4,1,0,FastFast,13,17,Woman,Right,
48,5,1,0.4676497999989806,['n'],1,right,['u'],1,0.0458944000001793,0.4,1,0,FastFast,13,17,Woman,Right,
49,5,1,2.467260899999019,['n'],1,right,['u'],1,0.09142529999917315,0.2,1,0,FastFast,13,17,Woman,Right,
50,5,1,1.3673894999992626,['c'],1,left,['e'],0,0.03657800000110001,0.1,0,0,FastFast,13,17,Woman,Right,
51,5,1,0.7509095999994315,['n'],1,right,['u'],1,0.022843099999590777,0.4,1,0,FastFast,13,17,Woman,Right,
52,5,1,1.0171704000003956,['n'],1,right,['u'],1,0.0635058999996545,0.2,1,0,FastFast,13,17,Woman,Right,
53,5,1,0.667574400000376,['n'],1,right,['u'],1,0.020798399998966488,0.2,1,0,FastFast,13,17,Woman,Right,
54,5,1,0.8009496999984549,['n'],1,right,['u'],1,1.925877199999377,0.4,1,0,FastFast,13,17,Woman,Right,
55,5,1,0.7506508000005851,['c'],1,left,['u'],1,0.189935799999148,0.4,1,0,FastFast,13,17,Woman,Right,
56,5,1,2.150917200000549,['c'],1,left,['u'],1,0.05082070000025851,0.2,1,0,FastFast,13,17,Woman,Right,
57,5,1,0.967731199998525,['n'],0,left,['u'],1,0.012903999999252846,0.1,0,0,FastFast,13,17,Woman,Right,
58,5,1,3.14996820000124,['c'],1,left,['u'],1,0.03237319999971078,0.2,1,0,FastFast,13,17,Woman,Right,
59,5,1,1.935000299999956,['c'],1,left,['u'],1,0.06769549999989977,0.4,1,0,FastFast,13,17,Woman,Right,
0,6,1,1.8681944999989355,['n'],1,right,['u'],1,0.5952605999991647,0.1,1,0,AccFast,13,17,Woman,Right,
1,6,1,1.534387899999274,['c'],1,left,['u'],1,0.03256599999986065,0.2,1,0,AccFast,13,17,Woman,Right,
2,6,1,0.8337843999997858,['n'],1,right,['u'],1,0.0643208000001323,0.1,1,0,AccFast,13,17,Woman,Right,
3,6,1,1.6843564999999217,['c'],1,left,['e'],0,0.04435860000012326,0.1,0,0,AccFast,13,17,Woman,Right,
4,6,1,1.5500986999995803,['n'],1,right,['u'],1,0.1119498999996722,0.1,1,0,AccFast,13,17,Woman,Right,
5,6,1,0.6171091999985947,['n'],1,right,['u'],1,0.0851834000004601,0.4,1,0,AccFast,13,17,Woman,Right,
6,6,1,2.266686999999365,['n'],1,right,['u'],1,0.08973680000053719,0.2,1,0,AccFast,13,17,Woman,Right,
7,6,1,1.3333614000002854,['c'],1,left,['u'],1,0.03493929999967804,0.4,1,0,AccFast,13,17,Woman,Right,
8,6,1,1.516624599998977,['n'],0,left,['u'],1,0.0878673000006529,0.4,0,0,AccFast,13,17,Woman,Right,
9,6,1,1.834475100000418,['c'],1,left,['e'],0,0.09285510000154318,0.2,0,0,AccFast,13,17,Woman,Right,
10,6,1,3.0001589999992575,['c'],0,right,['e'],0,0.1168560999994952,0.2,1,0,AccFast,13,17,Woman,Right,
11,6,1,1.3843186000012793,['n'],0,left,['u'],1,0.09074820000023465,0.1,0,0,AccFast,13,17,Woman,Right,
12,6,1,2.5352960000000166,['c'],0,right,['e'],0,0.0684397999993962,0.2,1,0,AccFast,13,17,Woman,Right,
13,6,1,2.2009558000008838,['c'],1,left,['e'],0,0.04379060000064783,0.2,0,0,AccFast,13,17,Woman,Right,
14,6,1,0.8342951000013272,['n'],1,right,['u'],1,0.011687099999107886,0.2,1,0,AccFast,13,17,Woman,Right,
15,6,1,1.0509342000004835,['n'],1,right,['u'],1,0.018976499999553198,0.2,1,0,AccFast,13,17,Woman,Right,
16,6,1,0.8846892999990814,['n'],1,right,['u'],1,0.001595199999428587,0.4,1,0,AccFast,13,17,Woman,Right,
17,6,1,0.9674706999994669,['n'],1,right,['u'],1,0.10861710000062885,0.4,1,0,AccFast,13,17,Woman,Right,
18,6,1,0.5676065000006929,['n'],1,right,['u'],1,1.2202938000009453,0.4,1,0,AccFast,13,17,Woman,Right,
19,6,1,1.5510611999998218,['c'],0,right,['e'],0,0.6000475999990158,0.2,1,0,AccFast,13,17,Woman,Right,
20,6,1,1.5010098999991897,['c'],1,left,['u'],1,0.038405200000852346,0.1,1,0,AccFast,13,17,Woman,Right,
21,6,1,2.084323700000823,['n'],1,right,['u'],1,0.06809100000100443,0.1,1,0,AccFast,13,17,Woman,Right,
22,6,1,2.7674263999997493,['c'],0,right,['e'],0,0.005580799999734154,0.1,1,0,AccFast,13,17,Woman,Right,
23,6,1,1.2169989999983954,['n'],1,right,['u'],1,0.05473069999970903,0.4,1,0,AccFast,13,17,Woman,Right,
24,6,1,0.7835821999997279,['c'],1,left,['e'],0,0.08813109999937296,0.1,0,0,AccFast,13,17,Woman,Right,
25,6,1,2.1010074999994686,['c'],1,left,['e'],0,0.0189183000002231,0.1,0,0,AccFast,13,17,Woman,Right,
26,6,1,0.9503427999989071,['n'],1,right,['u'],1,0.8464435999994748,0.2,1,0,AccFast,13,17,Woman,Right,
27,6,1,0.5676980999996886,['n'],1,right,['u'],1,0.04000150000138092,0.4,1,0,AccFast,13,17,Woman,Right,
28,6,1,1.2506601999994018,['c'],1,left,['e'],0,0.054867900000317604,0.4,0,0,AccFast,13,17,Woman,Right,
29,6,1,1.0836698999992223,['c'],1,left,['u'],1,0.0597687000008591,0.2,1,0,AccFast,13,17,Woman,Right,
30,6,1,2.7835383000001457,['c'],1,left,['e'],0,0.09335040000041772,0.1,0,0,AccFast,13,17,Woman,Right,
31,6,1,1.2346424999996088,['n'],1,right,['u'],1,0.026513699998758966,0.2,1,0,AccFast,13,17,Woman,Right,
32,6,1,0.9003439999996772,['n'],1,right,['u'],1,0.04070969999884255,0.2,1,0,AccFast,13,17,Woman,Right,
33,6,1,0.9510205999995378,['c'],0,right,['e'],0,0.019083700000919634,0.2,1,0,AccFast,13,17,Woman,Right,
34,6,1,1.0006637999995291,['c'],1,left,['u'],1,0.044701299999360344,0.2,1,0,AccFast,13,17,Woman,Right,
35,6,1,0.7686754999995173,['n'],0,left,['u'],1,0.06275800000003073,0.1,0,0,AccFast,13,17,Woman,Right,
36,6,1,1.4343907000002218,['c'],1,left,['u'],1,0.037019200000941055,0.4,1,0,AccFast,13,17,Woman,Right,
37,6,1,1.9677464999986114,['c'],1,left,['e'],0,0.05557509999925969,0.1,0,0,AccFast,13,17,Woman,Right,
38,6,1,0.8343471999996837,['c'],1,left,['e'],0,0.10242939999989176,0.4,0,0,AccFast,13,17,Woman,Right,
39,6,1,0.884382899999764,['n'],1,right,['u'],1,0.033288000000538887,0.2,1,0,AccFast,13,17,Woman,Right,
40,6,1,2.2509698000012577,['c'],1,left,['u'],1,0.056365599999480764,0.2,1,0,AccFast,13,17,Woman,Right,
41,6,1,1.784317599998758,['c'],1,left,['u'],1,0.04955040000095323,0.2,1,0,AccFast,13,17,Woman,Right,
42,6,1,2.099530400000731,['n'],1,right,['u'],1,0.7662809999983438,0.4,1,0,AccFast,13,17,Woman,Right,
43,6,1,1.9008032999990974,['c'],1,left,['e'],0,0.10137769999892043,0.4,0,0,AccFast,13,17,Woman,Right,
44,6,1,1.0005315999987943,['n'],0,left,['u'],1,0.07576979999976174,0.1,0,0,AccFast,13,17,Woman,Right,
45,6,1,2.983728000001065,['c'],1,left,['u'],1,0.036148099999991246,0.1,1,0,AccFast,13,17,Woman,Right,
46,6,1,1.1010919000000285,['n'],1,right,['u'],1,0.42509640000025684,0.2,1,0,AccFast,13,17,Woman,Right,
47,6,1,0.5677828000007139,['n'],1,right,['u'],1,0.9639477000000625,0.4,1,0,AccFast,13,17,Woman,Right,
48,6,1,1.6163532000009582,['c'],1,left,['e'],0,0.031505400000241934,0.1,0,0,AccFast,13,17,Woman,Right,
49,6,1,1.9506658000009338,['n'],0,left,['u'],1,0.05012110000097891,0.4,0,0,AccFast,13,17,Woman,Right,
50,6,1,0.6842550999990635,['n'],1,right,['u'],1,0.023618299999725423,0.1,1,0,AccFast,13,17,Woman,Right,
51,6,1,0.7674606000000495,['c'],1,left,['e'],0,0.041773700000703684,0.4,0,0,AccFast,13,17,Woman,Right,
52,6,1,0.8010298999997758,['n'],1,right,['u'],1,0.634944399998858,0.1,1,0,AccFast,13,17,Woman,Right,
53,6,1,1.5845515999990312,['c'],1,left,['u'],1,0.03731019999941054,0.4,1,0,AccFast,13,17,Woman,Right,
54,6,1,1.3666229999998905,['c'],1,left,['e'],0,0.046849700000166195,0.4,0,0,AccFast,13,17,Woman,Right,
55,6,1,2.9007829999991372,['c'],0,right,['e'],0,0.011715799999365117,0.2,1,0,AccFast,13,17,Woman,Right,
56,6,1,0.6348042999998142,['n'],1,right,['u'],1,0.707446100001107,0.4,1,0,AccFast,13,17,Woman,Right,
57,6,1,2.2670184999988123,['c'],0,right,['e'],0,0.0312885000003007,0.1,1,0,AccFast,13,17,Woman,Right,
58,6,1,2.5342995999999403,['c'],1,left,['e'],0,0.04297000000042317,0.1,0,0,AccFast,13,17,Woman,Right,
59,6,1,1.534466799999791,['c'],1,left,['u'],1,0.04670870000154537,0.4,1,0,AccFast,13,17,Woman,Right,
0,7,1,2.78349100000014,['c'],0,right,['e'],0,0.5699072999996133,0.2,1,0,AccAcc,13,17,Woman,Right,
1,7,1,1.4835072000005312,['c'],0,right,['e'],0,0.31468689999928756,0.1,1,0,AccAcc,13,17,Woman,Right,
2,7,1,1.400412700000743,['c'],1,left,['u'],1,0.03972570000041742,0.4,1,0,AccAcc,13,17,Woman,Right,
3,7,1,2.3168667999998434,['c'],1,left,['u'],1,0.04414419999920938,0.1,1,0,AccAcc,13,17,Woman,Right,
4,7,1,2.167823899999348,['c'],1,left,['e'],0,0.11897169999974722,0.2,0,0,AccAcc,13,17,Woman,Right,
5,7,1,1.7675486999996792,['c'],1,left,['u'],1,0.09365799999977753,0.4,1,0,AccAcc,13,17,Woman,Right,
6,7,1,1.3842743999994127,['n'],1,right,['u'],1,0.053159499999310356,0.2,1,0,AccAcc,13,17,Woman,Right,
7,7,1,1.200922999998511,['c'],1,left,['u'],1,0.03748249999989639,0.4,1,0,AccAcc,13,17,Woman,Right,
8,7,1,1.5172946999991836,['n'],0,left,['u'],1,0.18580839999958698,0.4,0,0,AccAcc,13,17,Woman,Right,
9,7,1,2.149648200000229,['c'],1,left,['e'],0,0.03137570000035339,0.1,0,0,AccAcc,13,17,Woman,Right,
10,7,1,0.8171688000002177,['n'],1,right,['u'],1,0.015245800001139287,0.1,1,0,AccAcc,13,17,Woman,Right,
11,7,1,3.1665862999998353,['c'],1,left,['u'],1,0.050495700001192745,0.1,1,0,AccAcc,13,17,Woman,Right,
12,7,1,3.300918899998578,['c'],1,left,['e'],0,0.22274840000136464,0.1,0,0,AccAcc,13,17,Woman,Right,
13,7,1,1.6845651999992697,['n'],1,right,['u'],1,0.05303749999984575,0.1,1,0,AccAcc,13,17,Woman,Right,
14,7,1,2.5178179000013188,['c'],1,left,['u'],1,0.4326596000009886,0.1,1,0,AccAcc,13,17,Woman,Right,
15,7,1,0.9173824999998033,['n'],1,right,['u'],1,0.029315800000404124,0.4,1,0,AccAcc,13,17,Woman,Right,
16,7,1,2.933845699999438,['c'],1,left,['u'],1,0.0728610000005574,0.1,1,0,AccAcc,13,17,Woman,Right,
17,7,1,0.9510897000000114,['n'],1,right,['u'],1,0.018737200000032317,0.4,1,0,AccAcc,13,17,Woman,Right,
18,7,1,3.5003367999997863,['n'],1,right,['e'],0,0.08842779999940831,0.1,0,0,AccAcc,13,17,Woman,Right,
19,7,1,0.6169565999989572,['n'],1,right,['u'],1,0.718506699999125,0.4,1,0,AccAcc,13,17,Woman,Right,
20,7,1,0.7180917999994563,['n'],1,right,['u'],1,0.055467899999712245,0.4,1,0,AccAcc,13,17,Woman,Right,
21,7,1,0.5683630999992602,['n'],1,right,['u'],1,0.3210540999989462,0.4,1,0,AccAcc,13,17,Woman,Right,
22,7,1,0.6840737999991688,['c'],1,left,['e'],0,0.04356770000049437,0.2,0,0,AccAcc,13,17,Woman,Right,
23,7,1,0.8846310000008089,['c'],1,left,['u'],1,0.04081000000041968,0.2,1,0,AccAcc,13,17,Woman,Right,
24,7,1,1.9001797000000806,['c'],1,left,['e'],0,0.062046500001088134,0.2,0,0,AccAcc,13,17,Woman,Right,
25,7,1,0.5677388000003702,['n'],1,right,['u'],1,0.0868337000010797,0.4,1,0,AccAcc,13,17,Woman,Right,
26,7,1,0.6338441000007151,['c'],1,left,['e'],0,0.07627369999863731,0.2,0,0,AccAcc,13,17,Woman,Right,
27,7,1,1.5336238999989291,['n'],0,left,['e'],0,0.07885570000144071,0.1,1,0,AccAcc,13,17,Woman,Right,
28,7,1,0.8843085000007704,['c'],1,left,['u'],1,0.09029870000085793,0.4,1,0,AccAcc,13,17,Woman,Right,
29,7,1,0.6169988999990892,['n'],1,right,['u'],1,0.06446280000091065,0.4,1,0,AccAcc,13,17,Woman,Right,
30,7,1,1.599598500000866,['c'],1,left,['u'],1,0.03216470000006666,0.2,1,0,AccAcc,13,17,Woman,Right,
31,7,1,1.6175473999992391,['c'],1,left,['e'],0,0.06455610000011802,0.4,0,0,AccAcc,13,17,Woman,Right,
32,7,1,1.100470100000166,['c'],1,left,['u'],1,0.036385199999131146,0.4,1,0,AccAcc,13,17,Woman,Right,
33,7,1,0.6669676000001346,['n'],1,right,['u'],1,0.0741786000016873,0.1,1,0,AccAcc,13,17,Woman,Right,
34,7,1,0.7175458999990951,['n'],1,right,['u'],1,0.07723160000023199,0.4,1,0,AccAcc,13,17,Woman,Right,
35,7,1,1.5502344999986235,['c'],1,left,['e'],0,1.1667121000009502,0.1,0,0,AccAcc,13,17,Woman,Right,
36,7,1,0.5173125000001164,['n'],1,right,['u'],1,0.06184620000021823,0.4,1,0,AccAcc,13,17,Woman,Right,
37,7,1,0.5344079999995301,['n'],1,right,['u'],1,0.03999099999964528,0.1,1,0,AccAcc,13,17,Woman,Right,
38,7,1,0.7008590000004915,['c'],1,left,['e'],0,0.09287050000057206,0.4,0,0,AccAcc,13,17,Woman,Right,
39,7,1,0.7004703000002337,['n'],0,left,['u'],1,0.0642928999986907,0.2,0,0,AccAcc,13,17,Woman,Right,
40,7,1,0.4676811000008456,['n'],1,right,['u'],1,0.07675270000072487,0.4,1,0,AccAcc,13,17,Woman,Right,
41,7,1,0.7675798000000214,['n'],1,right,['u'],1,0.09346780000123545,0.2,1,0,AccAcc,13,17,Woman,Right,
42,7,1,0.45096230000126525,['n'],1,right,['u'],1,0.09045010000045295,0.1,1,0,AccAcc,13,17,Woman,Right,
43,7,1,0.8847882999998546,['c'],1,left,['e'],0,0.037902199999734876,0.2,0,0,AccAcc,13,17,Woman,Right,
44,7,1,1.3176337999993848,['n'],1,right,['u'],1,0.06630890000087675,0.1,1,0,AccAcc,13,17,Woman,Right,
45,7,1,0.7013712999996642,['n'],1,right,['u'],1,0.07009749999997439,0.2,1,0,AccAcc,13,17,Woman,Right,
46,7,1,1.9676765999993222,['c'],1,left,['e'],0,0.48687409999911324,0.2,0,0,AccAcc,13,17,Woman,Right,
47,7,1,0.5672305000007327,['n'],1,right,['u'],1,0.06315039999935834,0.2,1,0,AccAcc,13,17,Woman,Right,
48,7,1,0.600843199999872,['n'],1,right,['u'],1,0.07071220000034373,0.1,1,0,AccAcc,13,17,Woman,Right,
49,7,1,1.8511543000004167,['n'],1,right,['e'],0,0.0602229999985866,0.2,0,0,AccAcc,13,17,Woman,Right,
50,7,1,1.3010723000006692,['c'],1,left,['u'],1,0.05692830000043614,0.4,1,0,AccAcc,13,17,Woman,Right,
51,7,1,1.134163600001557,['c'],1,left,['e'],0,0.10773670000162383,0.2,0,0,AccAcc,13,17,Woman,Right,
52,7,1,1.06680150000102,['c'],1,left,['u'],1,0.04750139999850944,0.1,1,0,AccAcc,13,17,Woman,Right,
53,7,1,0.4176788000004308,['n'],1,right,['u'],1,0.030731900000319,0.2,1,0,AccAcc,13,17,Woman,Right,
54,7,1,0.8337394000009226,['c'],1,left,['u'],1,0.09442240000134916,0.1,1,0,AccAcc,13,17,Woman,Right,
55,7,1,0.5512455999996746,['n'],1,right,['u'],1,0.03916910000043572,0.2,1,0,AccAcc,13,17,Woman,Right,
56,7,1,0.6006084000000556,['n'],1,right,['u'],1,0.5920315000003029,0.4,1,0,AccAcc,13,17,Woman,Right,
57,7,1,0.5345079999988229,['n'],1,right,['u'],1,0.06969670000034967,0.2,1,0,AccAcc,13,17,Woman,Right,
58,7,1,2.2675745999986248,['c'],1,left,['e'],0,0.10669839999900432,0.1,0,0,AccAcc,13,17,Woman,Right,
59,7,1,1.233360599999287,['c'],0,right,['u'],1,0.07223439999870607,0.2,0,0,AccAcc,13,17,Woman,Right,
0,8,1,0.8338466000004701,['c'],1,left,['u'],1,0.6397460000007413,0.2,1,0,FastAcc,13,17,Woman,Right,
1,8,1,0.485291099999813,['n'],1,right,['u'],1,0.05340109999997367,0.4,1,0,FastAcc,13,17,Woman,Right,
2,8,1,2.9670910999993794,['n'],1,right,['e'],0,0.1272917000005691,0.1,0,0,FastAcc,13,17,Woman,Right,
3,8,1,0.6006354999990435,['n'],1,right,['u'],1,0.03663270000106422,0.4,1,0,FastAcc,13,17,Woman,Right,
4,8,1,0.55008209999869,['n'],1,right,['u'],1,0.06348939999952563,0.4,1,0,FastAcc,13,17,Woman,Right,
5,8,1,0.6342844999999215,['n'],1,right,['u'],1,0.037839299999177456,0.2,1,0,FastAcc,13,17,Woman,Right,
6,8,1,0.5669660000003205,['c'],1,left,['e'],0,0.016357299999071984,0.1,0,0,FastAcc,13,17,Woman,Right,
7,8,1,1.2006294000002526,['c'],0,right,['u'],1,0.049602799999775016,0.2,0,0,FastAcc,13,17,Woman,Right,
8,8,1,0.7342571999997745,['c'],1,left,['u'],1,0.052368099999512197,0.2,1,0,FastAcc,13,17,Woman,Right,
9,8,1,0.9009894000009808,['c'],1,left,['e'],0,0.032671099999788566,0.2,0,0,FastAcc,13,17,Woman,Right,
10,8,1,1.1005093000003399,['c'],1,left,['u'],1,0.1335603000006813,0.1,1,0,FastAcc,13,17,Woman,Right,
11,8,1,0.9512558000005811,['n'],1,right,['u'],1,0.07662909999999101,0.4,1,0,FastAcc,13,17,Woman,Right,
12,8,1,1.0513340999987122,['c'],1,left,['u'],1,0.03410769999936747,0.1,1,0,FastAcc,13,17,Woman,Right,
13,8,1,0.9841943999999785,['c'],1,left,['u'],1,0.043658399999912945,0.4,1,0,FastAcc,13,17,Woman,Right,
14,8,1,0.7337545000009413,['n'],0,left,['u'],1,0.047394100000019534,0.1,0,0,FastAcc,13,17,Woman,Right,
15,8,1,0.8841508999994403,['c'],1,left,['u'],1,0.04445279999890772,0.4,1,0,FastAcc,13,17,Woman,Right,
16,8,1,0.6343390000001818,['n'],1,right,['u'],1,0.051826400000209105,0.4,1,0,FastAcc,13,17,Woman,Right,
17,8,1,1.0834897000004275,['c'],0,right,['e'],0,0.0888812000011967,0.2,1,0,FastAcc,13,17,Woman,Right,
18,8,1,0.6845559000012145,['c'],1,left,['u'],1,0.18820600000071863,0.1,1,0,FastAcc,13,17,Woman,Right,
19,8,1,0.6843504999997094,['n'],1,right,['u'],1,0.09249129999989236,0.1,1,0,FastAcc,13,17,Woman,Right,
20,8,1,0.8998030000002473,['c'],1,left,['e'],0,0.0238997999986168,0.1,0,0,FastAcc,13,17,Woman,Right,
21,8,1,0.9851037999997061,['c'],1,left,['u'],1,0.04914120000103139,0.2,1,0,FastAcc,13,17,Woman,Right,
22,8,1,0.7673042999995232,['c'],1,left,['u'],1,0.06680299999970885,0.1,1,0,FastAcc,13,17,Woman,Right,
23,8,1,0.5177716000016517,['n'],1,right,['u'],1,0.07754459999887331,0.2,1,0,FastAcc,13,17,Woman,Right,
24,8,1,0.7173076999988552,['c'],1,left,['u'],1,0.04825820000041858,0.4,1,0,FastAcc,13,17,Woman,Right,
25,8,1,2.149971999999252,['c'],0,right,['e'],0,0.011271100000158185,0.1,1,0,FastAcc,13,17,Woman,Right,
26,8,1,0.817662499999642,['n'],1,right,['u'],1,0.07621429999926477,0.2,1,0,FastAcc,13,17,Woman,Right,
27,8,1,1.817759699999442,['c'],0,right,['e'],0,0.0998992000004364,0.1,1,0,FastAcc,13,17,Woman,Right,
28,8,1,1.1674170999995113,['c'],1,left,['u'],1,0.08297250000032363,0.4,1,0,FastAcc,13,17,Woman,Right,
29,8,1,1.167782200000147,['c'],1,left,['u'],1,0.0511796000009781,0.4,1,0,FastAcc,13,17,Woman,Right,
30,8,1,0.45096490000105405,['n'],1,right,['u'],1,0.0179935000014666,0.4,1,0,FastAcc,13,17,Woman,Right,
31,8,1,0.8663934000014706,['n'],1,right,['u'],1,0.0010232000004180009,0.2,1,0,FastAcc,13,17,Woman,Right,
32,8,1,0.8507634000015969,['c'],1,left,['u'],1,0.017061599999578902,0.4,1,0,FastAcc,13,17,Woman,Right,
33,8,1,1.167448999998669,['n'],1,right,['u'],1,0.036233200000424404,0.1,1,0,FastAcc,13,17,Woman,Right,
34,8,1,0.6509420999991562,['n'],1,right,['u'],1,0.042308300000513555,0.4,1,0,FastAcc,13,17,Woman,Right,
35,8,1,0.9009194999998726,['c'],1,left,['u'],1,0.055329799999526585,0.1,1,0,FastAcc,13,17,Woman,Right,
36,8,1,0.5507880000004661,['n'],1,right,['u'],1,0.0018952000009448966,0.4,1,0,FastAcc,13,17,Woman,Right,
37,8,1,0.7172516000009637,['n'],1,right,['u'],1,0.023380900000120164,0.2,1,0,FastAcc,13,17,Woman,Right,
38,8,1,0.63389079999979,['c'],1,left,['u'],1,0.047566199998982484,0.4,1,0,FastAcc,13,17,Woman,Right,
39,8,1,2.484133899999506,['c'],1,left,['e'],0,0.07625209999969229,0.1,0,0,FastAcc,13,17,Woman,Right,
40,8,1,0.9010471000001417,['c'],1,left,['u'],1,0.07184309999865945,0.1,1,0,FastAcc,13,17,Woman,Right,
41,8,1,0.7843204000000696,['n'],1,right,['u'],1,1.8801285999998072,0.2,1,0,FastAcc,13,17,Woman,Right,
42,8,1,1.6179594000004727,['c'],1,left,['u'],1,0.06265309999980673,0.2,1,0,FastAcc,13,17,Woman,Right,
43,8,1,1.2178208000004815,['c'],1,left,['u'],1,0.045504300000175135,0.2,1,0,FastAcc,13,17,Woman,Right,
44,8,1,0.7011605000006966,['n'],1,right,['u'],1,0.06579339999916556,0.2,1,0,FastAcc,13,17,Woman,Right,
45,8,1,0.8845091000002867,['c'],1,left,['u'],1,0.045911100000012084,0.2,1,0,FastAcc,13,17,Woman,Right,
46,8,1,0.9341512999999395,['n'],1,right,['u'],1,0.08897239999896556,0.4,1,0,FastAcc,13,17,Woman,Right,
47,8,1,1.0849776999984897,['c'],1,left,['u'],1,0.10850930000015069,0.1,1,0,FastAcc,13,17,Woman,Right,
48,8,1,1.0179036999998061,['n'],1,right,['u'],1,0.0028234999990672804,0.2,1,0,FastAcc,13,17,Woman,Right,
49,8,1,0.9168587000003754,['n'],1,right,['u'],1,0.0797893999988446,0.1,1,0,FastAcc,13,17,Woman,Right,
50,8,1,0.7836439000002429,['c'],1,left,['u'],1,0.06344739999985904,0.2,1,0,FastAcc,13,17,Woman,Right,
51,8,1,1.317464400000972,['c'],1,left,['u'],1,0.3625124999998661,0.4,1,0,FastAcc,13,17,Woman,Right,
52,8,1,1.784594200000356,['n'],1,right,['e'],0,0.054826399999001296,0.1,0,0,FastAcc,13,17,Woman,Right,
53,8,1,2.600301300000865,['c'],0,right,['e'],0,0.5431537000004028,0.1,1,0,FastAcc,13,17,Woman,Right,
54,8,1,1.201402099999541,['c'],1,left,['e'],0,0.15601429999878746,0.2,0,0,FastAcc,13,17,Woman,Right,
55,8,1,0.6836815999995451,['n'],1,right,['u'],1,0.09294179999960761,0.4,1,0,FastAcc,13,17,Woman,Right,
56,8,1,0.8500216999982513,['c'],1,left,['e'],0,0.10641150000083144,0.1,0,0,FastAcc,13,17,Woman,Right,
57,8,1,1.1011309000004985,['c'],1,left,['e'],0,0.09203630000047269,0.4,0,0,FastAcc,13,17,Woman,Right,
58,8,1,0.5669046000002709,['n'],1,right,['u'],1,0.0849406999986968,0.4,1,0,FastAcc,13,17,Woman,Right,
59,8,1,2.083208199999717,['n'],1,right,['e'],0,0.06446610000057262,0.2,0,0,FastAcc,13,17,Woman,Right,
0,9,1,0.9839285999987624,['c'],1,left,['u'],1,0.05974690000039118,0.2,1,0,FastFast,13,17,Woman,Right,
1,9,1,0.8341938000012306,['n'],1,right,['u'],1,0.027100100000097882,0.1,1,0,FastFast,13,17,Woman,Right,
2,9,1,1.133494800000335,['c'],1,left,['u'],1,0.9108008000002883,0.2,1,0,FastFast,13,17,Woman,Right,
3,9,1,1.2670123000007152,['c'],1,left,['u'],1,0.04304050000064308,0.2,1,0,FastFast,13,17,Woman,Right,
4,9,1,0.96746499999972,['c'],1,left,['e'],0,0.05284380000011879,0.2,0,0,FastFast,13,17,Woman,Right,
5,9,1,0.6670971000003192,['n'],1,right,['u'],1,0.04245780000019295,0.1,1,0,FastFast,13,17,Woman,Right,
6,9,1,0.8180678999997326,['c'],1,left,['e'],0,0.0587985000001936,0.4,0,0,FastFast,13,17,Woman,Right,
7,9,1,1.7008767999996053,['c'],0,right,['e'],0,0.18294340000102238,0.1,1,0,FastFast,13,17,Woman,Right,
8,9,1,1.8346622999997635,['c'],1,left,['e'],0,0.776656300000468,0.4,0,0,FastFast,13,17,Woman,Right,
9,9,1,2.401444499999343,['c'],0,right,['e'],0,0.7804455999994389,0.1,1,0,FastFast,13,17,Woman,Right,
10,9,1,1.417839699999604,['n'],1,right,['u'],1,0.03881040000123903,0.1,1,0,FastFast,13,17,Woman,Right,
11,9,1,1.016740299999583,['c'],1,left,['e'],0,0.09508520000053977,0.4,0,0,FastFast,13,17,Woman,Right,
12,9,1,0.5681091000005836,['n'],1,right,['u'],1,0.03941090000080294,0.2,1,0,FastFast,13,17,Woman,Right,
13,9,1,0.7331383999990067,['c'],1,left,['e'],0,0.7472806000005221,0.4,0,0,FastFast,13,17,Woman,Right,
14,9,1,2.2678369999994175,['c'],1,left,['u'],1,0.06872789999943052,0.1,1,0,FastFast,13,17,Woman,Right,
15,9,1,2.217620800000077,['c'],1,left,['e'],0,0.05967249999957858,0.4,0,0,FastFast,13,17,Woman,Right,
16,9,1,2.434172799999942,['c'],1,left,['u'],1,0.05868899999950372,0.2,1,0,FastFast,13,17,Woman,Right,
17,9,1,1.5167756999999256,['n'],0,left,['u'],1,0.030470300000160933,0.1,0,0,FastFast,13,17,Woman,Right,
18,9,1,1.4500220999998419,['n'],1,right,['u'],1,0.10135319999972126,0.2,1,0,FastFast,13,17,Woman,Right,
19,9,1,1.5678865000008955,['n'],1,right,['u'],1,0.0689223999997921,0.2,1,0,FastFast,13,17,Woman,Right,
20,9,1,0.5840114000002359,['n'],1,right,['u'],1,0.029335699999137432,0.4,1,0,FastFast,13,17,Woman,Right,
21,9,1,0.5177581999996619,['n'],1,right,['u'],1,0.041459000000031665,0.4,1,0,FastFast,13,17,Woman,Right,
22,9,1,0.45088679999935266,['n'],1,right,['u'],1,0.008692199999131844,0.2,1,0,FastFast,13,17,Woman,Right,
23,9,1,0.7336175999989791,['c'],1,left,['e'],0,0.029321099998924183,0.1,0,0,FastFast,13,17,Woman,Right,
24,9,1,3.0675221999990754,['n'],1,right,['e'],0,0.052600900000470574,0.1,0,0,FastFast,13,17,Woman,Right,
25,9,1,2.4832040000001143,['c'],0,right,['e'],0,0.033237700001336634,0.1,1,0,FastFast,13,17,Woman,Right,
26,9,1,1.2175095999991754,['c'],1,left,['u'],1,0.03321390000019164,0.2,1,0,FastFast,13,17,Woman,Right,
27,9,1,0.6345696000007592,['n'],0,left,['u'],1,0.04096100000060687,0.2,0,0,FastFast,13,17,Woman,Right,
28,9,1,0.734431200000472,['n'],1,right,['u'],1,0.060152000000016415,0.1,1,0,FastFast,13,17,Woman,Right,
29,9,1,1.7334098999999696,['c'],1,left,['u'],1,0.03906230000029609,0.1,1,0,FastFast,13,17,Woman,Right,
30,9,1,2.8509890000004816,['n'],1,right,['e'],0,0.43816850000075647,0.1,0,0,FastFast,13,17,Woman,Right,
31,9,1,3.0004493999986153,['c'],1,left,['u'],1,0.0633772000001045,0.1,1,0,FastFast,13,17,Woman,Right,
32,9,1,0.7510736999993242,['c'],1,left,['u'],1,0.30516979999993055,0.4,1,0,FastFast,13,17,Woman,Right,
33,9,1,0.8497678999992786,['n'],1,right,['u'],1,0.07038709999869752,0.4,1,0,FastFast,13,17,Woman,Right,
34,9,1,2.5336301999996067,['n'],1,right,['e'],0,0.04796340000029886,0.4,0,0,FastFast,13,17,Woman,Right,
35,9,1,1.1342918999998801,['n'],1,right,['u'],1,0.034483699999327655,0.2,1,0,FastFast,13,17,Woman,Right,
36,9,1,2.3674796000013885,['n'],1,right,['u'],1,0.02112669999951322,0.2,1,0,FastFast,13,17,Woman,Right,
37,9,1,2.033329199999571,['n'],1,right,['e'],0,0.0702672999996139,0.2,0,0,FastFast,13,17,Woman,Right,
38,9,1,2.0843588999996427,['c'],0,right,['e'],0,0.04980529999920691,0.1,1,0,FastFast,13,17,Woman,Right,
39,9,1,2.0172645000002376,['c'],1,left,['e'],0,0.049629899998762994,0.1,0,0,FastFast,13,17,Woman,Right,
40,9,1,1.8509160000012344,['c'],1,left,['u'],1,0.055808600000091246,0.4,1,0,FastFast,13,17,Woman,Right,
41,9,1,3.2161403999998583,['c'],1,left,['u'],1,0.08816610000030778,0.2,1,0,FastFast,13,17,Woman,Right,
42,9,1,0.7167583999998897,['n'],1,right,['u'],1,0.041909200001100544,0.4,1,0,FastFast,13,17,Woman,Right,
43,9,1,1.0494237999992038,['c'],1,left,['u'],1,0.04926359999990382,0.2,1,0,FastFast,13,17,Woman,Right,
44,9,1,2.6841371999998955,['c'],1,left,['e'],0,0.05462179999994987,0.1,0,0,FastFast,13,17,Woman,Right,
45,9,1,0.5505008999989514,['n'],1,right,['u'],1,1.1840181999996275,0.4,1,0,FastFast,13,17,Woman,Right,
46,9,1,0.6345564000002923,['n'],1,right,['u'],1,0.07461469999907422,0.4,1,0,FastFast,13,17,Woman,Right,
47,9,1,0.46783309999955236,['n'],1,right,['u'],1,0.07057470000108879,0.4,1,0,FastFast,13,17,Woman,Right,
48,9,1,2.5665095999993355,['n'],1,right,['e'],0,0.04869160000089323,0.1,0,0,FastFast,13,17,Woman,Right,
49,9,1,0.6850374999994528,['n'],1,right,['u'],1,0.06840530000044964,0.2,1,0,FastFast,13,17,Woman,Right,
50,9,1,1.033702099999573,['c'],1,left,['e'],0,0.04330099999970116,0.4,0,0,FastFast,13,17,Woman,Right,
51,9,1,0.8993000999998912,['c'],1,left,['u'],1,0.08877399999983027,0.4,1,0,FastFast,13,17,Woman,Right,
52,9,1,2.9662497999997868,['n'],0,left,['e'],0,0.048891399999774876,0.1,1,0,FastFast,13,17,Woman,Right,
53,9,1,2.267496000000392,['n'],1,right,['u'],1,0.0865802000007534,0.2,1,0,FastFast,13,17,Woman,Right,
54,9,1,3.6342055999994045,['n'],0,left,['u'],1,0.01972879999993893,0.4,0,0,FastFast,13,17,Woman,Right,
55,9,1,0.8000633999999991,['c'],1,left,['e'],0,0.10230299999966519,0.2,0,0,FastFast,13,17,Woman,Right,
56,9,1,2.0999167999998463,['n'],0,left,['e'],0,0.096480000000156,0.1,1,0,FastFast,13,17,Woman,Right,
57,9,1,0.6329765000009502,['n'],1,right,['u'],1,0.02122889999918698,0.4,1,0,FastFast,13,17,Woman,Right,
58,9,1,2.065542899999855,['c'],1,left,['u'],1,0.004723800000647316,0.2,1,0,FastFast,13,17,Woman,Right,
59,9,1,0.7013865000008082,['n'],1,right,['u'],1,0.04178489999867452,0.4,1,0,FastFast,13,17,Woman,Right,
0,10,1,1.683823700001085,['c'],1,left,['u'],1,0.26838370000041323,0.4,1,0,AccFast,13,17,Woman,Right,
1,10,1,1.7173454000003403,['c'],0,right,['u'],1,0.7661164000001008,0.1,0,0,AccFast,13,17,Woman,Right,
2,10,1,0.4993200999997498,['n'],1,right,['u'],1,0.4464933999988716,0.2,1,0,AccFast,13,17,Woman,Right,
3,10,1,1.9339797999982693,['c'],1,left,['e'],0,0.0012421999999787658,0.1,0,0,AccFast,13,17,Woman,Right,
4,10,1,2.9652858000008564,['c'],1,left,['e'],0,0.14152920000015,0.1,0,0,AccFast,13,17,Woman,Right,
5,10,1,1.4661197999994329,['n'],0,left,['u'],1,0.015809799999260576,0.4,0,0,AccFast,13,17,Woman,Right,
6,10,1,0.5502360999998928,['n'],1,right,['u'],1,0.042813799998839386,0.4,1,0,AccFast,13,17,Woman,Right,
7,10,1,2.0009028000004037,['c'],1,left,['u'],1,0.043762400000559865,0.2,1,0,AccFast,13,17,Woman,Right,
8,10,1,0.7510572000010143,['n'],1,right,['u'],1,0.015581699999529519,0.2,1,0,AccFast,13,17,Woman,Right,
9,10,1,2.6850281999995786,['c'],1,left,['e'],0,0.4686743000002025,0.1,0,0,AccFast,13,17,Woman,Right,
10,10,1,1.8835431000006793,['n'],0,left,['u'],1,0.08995600000162085,0.1,0,0,AccFast,13,17,Woman,Right,
11,10,1,0.7178672999998525,['n'],1,right,['u'],1,0.10757829999965907,0.2,1,0,AccFast,13,17,Woman,Right,
12,10,1,0.9677119999996648,['n'],1,right,['u'],1,0.05146029999923485,0.4,1,0,AccFast,13,17,Woman,Right,
13,10,1,0.751541300000099,['n'],1,right,['u'],1,0.005896600001506158,0.4,1,0,AccFast,13,17,Woman,Right,
14,10,1,0.6491681999996217,['n'],1,right,['u'],1,0.8617214000005333,0.2,1,0,AccFast,13,17,Woman,Right,
15,10,1,0.5839366000000155,['n'],1,right,['u'],1,0.07045670000115933,0.4,1,0,AccFast,13,17,Woman,Right,
16,10,1,0.7339770999988104,['n'],1,right,['u'],1,0.05671260000053735,0.4,1,0,AccFast,13,17,Woman,Right,
17,10,1,2.183882299999823,['n'],1,right,['e'],0,0.03380680000009306,0.1,0,0,AccFast,13,17,Woman,Right,
18,10,1,0.6841853999994782,['n'],1,right,['u'],1,0.05592199999955483,0.4,1,0,AccFast,13,17,Woman,Right,
19,10,1,1.417733500000395,['c'],1,left,['u'],1,0.015063900000313879,0.4,1,0,AccFast,13,17,Woman,Right,
20,10,1,3.0660170999999536,['c'],1,left,['e'],0,0.11841199999980745,0.2,0,0,AccFast,13,17,Woman,Right,
21,10,1,0.6509361999997054,['n'],1,right,['u'],1,0.057461799999146024,0.4,1,0,AccFast,13,17,Woman,Right,
22,10,1,1.117848199999571,['c'],0,right,['u'],1,0.061271999999007676,0.1,0,0,AccFast,13,17,Woman,Right,
23,10,1,3.9837439000002632,['c'],0,right,['e'],0,0.06289140000080806,0.1,1,0,AccFast,13,17,Woman,Right,
24,10,1,1.1338242999991053,['c'],1,left,['e'],0,0.01685610000095039,0.2,0,0,AccFast,13,17,Woman,Right,
25,10,1,1.7335221000012098,['n'],1,right,['u'],1,0.06093920000057551,0.2,1,0,AccFast,13,17,Woman,Right,
26,10,1,0.6497620000009192,['n'],1,right,['u'],1,0.01989770000000135,0.4,1,0,AccFast,13,17,Woman,Right,
27,10,1,0.5837359000015567,['c'],1,left,['u'],1,0.06146769999941171,0.2,1,0,AccFast,13,17,Woman,Right,
28,10,1,0.7991120999995474,['c'],1,left,['u'],1,0.014909899999111076,0.4,1,0,AccFast,13,17,Woman,Right,
29,10,1,0.5674842999997054,['n'],1,right,['u'],1,0.04043279999859806,0.4,1,0,AccFast,13,17,Woman,Right,
30,10,1,0.5836850000014238,['n'],1,right,['u'],1,0.03430789999947592,0.4,1,0,AccFast,13,17,Woman,Right,
31,10,1,0.6493264000000636,['n'],1,right,['u'],1,0.0736432000012428,0.2,1,0,AccFast,13,17,Woman,Right,
32,10,1,1.0338463000007323,['c'],1,left,['u'],1,0.031070300001374562,0.2,1,0,AccFast,13,17,Woman,Right,
33,10,1,0.6326379000001907,['n'],1,right,['u'],1,0.07200290000037057,0.1,1,0,AccFast,13,17,Woman,Right,
34,10,1,1.6326513000003615,['c'],1,left,['u'],1,0.07065620000139461,0.1,1,0,AccFast,13,17,Woman,Right,
35,10,1,3.8829248000001826,['c'],1,left,['e'],0,0.37865010000132315,0.1,0,0,AccFast,13,17,Woman,Right,
36,10,1,1.80085870000039,['n'],0,left,['e'],0,0.0695850000010978,0.1,1,0,AccFast,13,17,Woman,Right,
37,10,1,2.168354499999623,['c'],1,left,['e'],0,0.1425796999992599,0.1,0,0,AccFast,13,17,Woman,Right,
38,10,1,1.6007550000012998,['c'],1,left,['u'],1,0.10785420000138402,0.2,1,0,AccFast,13,17,Woman,Right,
39,10,1,1.265599199999997,['c'],1,left,['e'],0,0.08811659999992116,0.1,0,0,AccFast,13,17,Woman,Right,
40,10,1,3.0002626000004966,['n'],1,right,['u'],1,0.0625568999985262,0.1,1,0,AccFast,13,17,Woman,Right,
41,10,1,0.9675892999985081,['n'],1,right,['u'],1,0.07115679999878921,0.2,1,0,AccFast,13,17,Woman,Right,
42,10,1,1.8840687000010803,['c'],1,left,['u'],1,0.09129110000139917,0.2,1,0,AccFast,13,17,Woman,Right,
43,10,1,3.551173399999243,['c'],1,left,['u'],1,0.10869569999886153,0.4,1,0,AccFast,13,17,Woman,Right,
44,10,1,3.000295300000289,['n'],1,right,['u'],1,0.13094040000032692,0.1,1,0,AccFast,13,17,Woman,Right,
45,10,1,1.249676499999623,['c'],1,left,['e'],0,0.36647679999987304,0.4,0,0,AccFast,13,17,Woman,Right,
46,10,1,1.683778099999472,['c'],1,left,['u'],1,0.04705869999997958,0.4,1,0,AccFast,13,17,Woman,Right,
47,10,1,0.8010553999993135,['n'],1,right,['u'],1,0.11156060000030266,0.1,1,0,AccFast,13,17,Woman,Right,
48,10,1,1.3335351000005176,['n'],1,right,['u'],1,0.08802040000045963,0.1,1,0,AccFast,13,17,Woman,Right,
49,10,1,1.8517301000010775,['c'],1,left,['e'],0,0.06094159999884141,0.4,0,0,AccFast,13,17,Woman,Right,
50,10,1,1.167323400000896,['n'],1,right,['u'],1,0.0622019000002183,0.2,1,0,AccFast,13,17,Woman,Right,
51,10,1,1.3177371000001585,['c'],1,left,['u'],1,0.0581586000007519,0.2,1,0,AccFast,13,17,Woman,Right,
52,10,1,0.8844181999993452,['c'],1,left,['e'],0,0.7739323999994667,0.2,0,0,AccFast,13,17,Woman,Right,
53,10,1,0.9835093000001507,['n'],0,left,['u'],1,0.018695700000534998,0.1,0,0,AccFast,13,17,Woman,Right,
54,10,1,0.5336443999985931,['n'],1,right,['u'],1,0.014868199999909848,0.4,1,0,AccFast,13,17,Woman,Right,
55,10,1,1.3675091999994038,['n'],0,left,['e'],0,0.05777500000112923,0.1,1,0,AccFast,13,17,Woman,Right,
56,10,1,1.0669663000007858,['c'],1,left,['u'],1,0.031607000000803964,0.4,1,0,AccFast,13,17,Woman,Right,
57,10,1,1.1673656000002666,['n'],1,right,['e'],0,0.04944499999874097,0.2,0,0,AccFast,13,17,Woman,Right,
58,10,1,2.2342753000011726,['c'],1,left,['e'],0,0.4884098000002268,0.2,0,0,AccFast,13,17,Woman,Right,
59,10,1,0.8339972000012494,['n'],1,right,['u'],1,0.07020139999985986,0.2,1,0,AccFast,13,17,Woman,Right,
0,11,1,3.5339212999988376,['n'],1,right,['e'],0,3.910034300000916,0.2,0,0,AccAcc,13,17,Woman,Right,
1,11,1,2.6512440999995306,['n'],0,left,['e'],0,0.8822746000005282,0.4,1,0,AccAcc,13,17,Woman,Right,
2,11,1,1.0666290000008303,['c'],1,left,['u'],1,0.5352688999992097,0.4,1,0,AccAcc,13,17,Woman,Right,
3,11,1,1.1175903999992443,['n'],1,right,['u'],1,0.15084329999990587,0.1,1,0,AccAcc,13,17,Woman,Right,
4,11,1,0.6665411000012682,['n'],1,right,['u'],1,0.08937279999918246,0.4,1,0,AccAcc,13,17,Woman,Right,
5,11,1,1.2165646000012202,['c'],1,left,['e'],0,0.08703630000127305,0.2,0,0,AccAcc,13,17,Woman,Right,
6,11,1,2.517858100000012,['c'],1,left,['u'],1,0.04924609999943641,0.1,1,0,AccAcc,13,17,Woman,Right,
7,11,1,1.6340287000002718,['c'],1,left,['e'],0,0.8323342000003322,0.2,0,0,AccAcc,13,17,Woman,Right,
8,11,1,1.8004671999988204,['n'],0,left,['e'],0,0.05786420000004,0.2,1,0,AccAcc,13,17,Woman,Right,
9,11,1,2.3841683000009652,['n'],1,right,['e'],0,0.05844529999922088,0.2,0,0,AccAcc,13,17,Woman,Right,
10,11,1,2.584108599998217,['c'],1,left,['u'],1,0.08353749999878346,0.2,1,0,AccAcc,13,17,Woman,Right,
11,11,1,0.666397599999982,['n'],1,right,['u'],1,0.0250584000004892,0.4,1,0,AccAcc,13,17,Woman,Right,
12,11,1,0.5176095000006171,['n'],1,right,['u'],1,0.02082949999930861,0.4,1,0,AccAcc,13,17,Woman,Right,
13,11,1,1.1158438999991631,['c'],1,left,['u'],1,0.05867559999933292,0.2,1,0,AccAcc,13,17,Woman,Right,
14,11,1,1.0661412999997992,['c'],1,left,['e'],0,0.03222979999918607,0.4,0,0,AccAcc,13,17,Woman,Right,
15,11,1,1.1008720999998332,['c'],1,left,['u'],1,0.03652890000012121,0.1,1,0,AccAcc,13,17,Woman,Right,
16,11,1,0.467163299999811,['n'],1,right,['u'],1,0.018991699998878175,0.2,1,0,AccAcc,13,17,Woman,Right,
17,11,1,1.7165127000007487,['c'],1,left,['u'],1,0.0320847999992111,0.2,1,0,AccAcc,13,17,Woman,Right,
18,11,1,2.317429099999572,['c'],1,left,['u'],1,0.10005360000104702,0.1,1,0,AccAcc,13,17,Woman,Right,
19,11,1,1.2504496000001382,['n'],1,right,['u'],1,0.1279424000003928,0.1,1,0,AccAcc,13,17,Woman,Right,
20,11,1,1.2344730000004347,['n'],1,right,['u'],1,0.04422110000086832,0.4,1,0,AccAcc,13,17,Woman,Right,
21,11,1,0.8170475000006263,['n'],1,right,['u'],1,0.04488839999976335,0.4,1,0,AccAcc,13,17,Woman,Right,
22,11,1,0.6843740000003891,['c'],1,left,['u'],1,0.2420085999983712,0.4,1,0,AccAcc,13,17,Woman,Right,
23,11,1,0.5172115000004851,['n'],1,right,['u'],1,0.07090689999859023,0.4,1,0,AccAcc,13,17,Woman,Right,
24,11,1,0.7165870000007999,['n'],1,right,['u'],1,0.07377460000134306,0.2,1,0,AccAcc,13,17,Woman,Right,
25,11,1,0.5677437000013015,['n'],1,right,['u'],1,0.050602100000105565,0.4,1,0,AccAcc,13,17,Woman,Right,
26,11,1,1.6665938000005553,['c'],0,right,['e'],0,0.0799654999991617,0.1,1,0,AccAcc,13,17,Woman,Right,
27,11,1,0.6341219999994792,['n'],1,right,['u'],1,0.06933469999967201,0.4,1,0,AccAcc,13,17,Woman,Right,
28,11,1,1.4009439999990718,['c'],1,left,['u'],1,0.029881599999498576,0.1,1,0,AccAcc,13,17,Woman,Right,
29,11,1,1.7326255999996647,['c'],1,left,['u'],1,0.07371459999922081,0.2,1,0,AccAcc,13,17,Woman,Right,
30,11,1,2.5495645999999397,['c'],0,right,['e'],0,0.11455910000040603,0.1,1,0,AccAcc,13,17,Woman,Right,
31,11,1,0.7005763000015577,['n'],1,right,['u'],1,0.06781000000046333,0.4,1,0,AccAcc,13,17,Woman,Right,
32,11,1,1.0491858999994292,['c'],1,left,['u'],1,0.04275480000069365,0.2,1,0,AccAcc,13,17,Woman,Right,
33,11,1,2.4847843000006833,['c'],1,left,['u'],1,1.0792360999985249,0.1,1,0,AccAcc,13,17,Woman,Right,
34,11,1,1.932259700000941,['c'],0,right,['u'],1,0.1300663000001805,0.1,0,0,AccAcc,13,17,Woman,Right,
35,11,1,2.8331488000003446,['c'],0,right,['u'],1,0.09340340000017022,0.1,0,0,AccAcc,13,17,Woman,Right,
36,11,1,3.567145299999538,['n'],0,left,['e'],0,0.07772680000016408,0.1,1,0,AccAcc,13,17,Woman,Right,
37,11,1,1.5008352999993804,['c'],1,left,['u'],1,0.09689529999923252,0.4,1,0,AccAcc,13,17,Woman,Right,
38,11,1,2.2673257999995258,['c'],1,left,['e'],0,0.10075649999998859,0.1,0,0,AccAcc,13,17,Woman,Right,
39,11,1,2.8512383999986923,['n'],1,right,['e'],0,0.03324330000032205,0.2,0,0,AccAcc,13,17,Woman,Right,
40,11,1,3.200910900000963,['c'],1,left,['u'],1,0.09844799999882525,0.2,1,0,AccAcc,13,17,Woman,Right,
41,11,1,0.7513283000007505,['n'],1,right,['u'],1,0.06645380000009027,0.4,1,0,AccAcc,13,17,Woman,Right,
42,11,1,3.63359440000022,['n'],1,right,['e'],0,0.04948089999925287,0.2,0,0,AccAcc,13,17,Woman,Right,
43,11,1,1.4507637999995495,['c'],0,right,['e'],0,0.4552289000002929,0.1,1,0,AccAcc,13,17,Woman,Right,
44,11,1,3.7175482000002376,['c'],0,right,['e'],0,0.08331290000023728,0.1,1,0,AccAcc,13,17,Woman,Right,
45,11,1,0.7839977000003273,['n'],1,right,['u'],1,0.11476980000043113,0.1,1,0,AccAcc,13,17,Woman,Right,
46,11,1,1.0011315000010654,['c'],1,left,['u'],1,0.0892585000001418,0.4,1,0,AccAcc,13,17,Woman,Right,
47,11,1,0.9176715000012337,['c'],1,left,['u'],1,0.06725370000094699,0.4,1,0,AccAcc,13,17,Woman,Right,
48,11,1,1.9674114999997983,['c'],1,left,['e'],0,0.2281855999990512,0.2,0,0,AccAcc,13,17,Woman,Right,
49,11,1,1.8506923000004463,['c'],1,left,['e'],0,0.09923320000052627,0.2,0,0,AccAcc,13,17,Woman,Right,
50,11,1,1.1675112000011723,['n'],1,right,['u'],1,0.0828523000000132,0.1,1,0,AccAcc,13,17,Woman,Right,
51,11,1,1.0668519999999262,['c'],1,left,['u'],1,0.07139210000059393,0.2,1,0,AccAcc,13,17,Woman,Right,
52,11,1,2.633751499999562,['n'],1,right,['e'],0,0.07795550000082585,0.1,0,0,AccAcc,13,17,Woman,Right,
53,11,1,0.8346438000007765,['c'],1,left,['u'],1,0.07583619999968505,0.4,1,0,AccAcc,13,17,Woman,Right,
54,11,1,0.5675795999995898,['n'],1,right,['u'],1,0.03690679999999702,0.2,1,0,AccAcc,13,17,Woman,Right,
55,11,1,0.6006142999995063,['n'],1,right,['u'],1,0.04564420000133396,0.2,1,0,AccAcc,13,17,Woman,Right,
56,11,1,0.7004591999993863,['n'],1,right,['u'],1,0.049861699999382836,0.4,1,0,AccAcc,13,17,Woman,Right,
57,11,1,0.768085699999574,['c'],1,left,['u'],1,0.05174799999986135,0.4,1,0,AccAcc,13,17,Woman,Right,
58,11,1,3.3669200999993336,['c'],1,left,['e'],0,0.04516930000136199,0.1,0,0,AccAcc,13,17,Woman,Right,
59,11,1,1.6509877999997116,['c'],1,left,['e'],0,0.07536789999903704,0.1,0,0,AccAcc,13,17,Woman,Right,
0,12,1,1.4163903999997274,['c'],1,left,['e'],0,0.004010200000266195,0.4,0,0,FastAcc,13,17,Woman,Right,
1,12,1,1.5518563000005088,['c'],1,left,['u'],1,0.08766009999999369,0.2,1,0,FastAcc,13,17,Woman,Right,
2,12,1,2.7325789999995322,['c'],0,right,['u'],1,0.07407840000087162,0.1,0,0,FastAcc,13,17,Woman,Right,
3,12,1,2.0175388999996358,['n'],1,right,['e'],0,0.04037120000066352,0.1,0,0,FastAcc,13,17,Woman,Right,
4,12,1,1.1676876000001357,['c'],1,left,['e'],0,0.5543870000001334,0.2,0,0,FastAcc,13,17,Woman,Right,
5,12,1,2.983665800000381,['n'],1,right,['u'],1,0.04850339999939024,0.2,1,0,FastAcc,13,17,Woman,Right,
6,12,1,1.4162424999994982,['c'],1,left,['e'],0,0.007756300001346972,0.2,0,0,FastAcc,13,17,Woman,Right,
7,12,1,2.151337600000261,['c'],1,left,['e'],0,0.08404190000146627,0.1,0,0,FastAcc,13,17,Woman,Right,
8,12,1,1.3336343999999372,['n'],1,right,['u'],1,0.04526050000094983,0.1,1,0,FastAcc,13,17,Woman,Right,
9,12,1,1.984248300001127,['c'],1,left,['e'],0,0.11013879999882192,0.1,0,0,FastAcc,13,17,Woman,Right,
10,12,1,1.0682689999994182,['c'],1,left,['e'],0,0.11388780000015686,0.4,0,0,FastAcc,13,17,Woman,Right,
11,12,1,1.116682199999559,['c'],1,left,['u'],1,0.08336220000091998,0.4,1,0,FastAcc,13,17,Woman,Right,
12,12,1,2.634320299999672,['c'],1,left,['e'],0,0.1044380999992427,0.1,0,0,FastAcc,13,17,Woman,Right,
13,12,1,2.7170155000003433,['n'],1,right,['e'],0,0.04241150000052585,0.1,0,0,FastAcc,13,17,Woman,Right,
14,12,1,1.2837140999999974,['c'],1,left,['u'],1,0.0558074000000488,0.2,1,0,FastAcc,13,17,Woman,Right,
15,12,1,2.5995750000001863,['c'],1,left,['e'],0,0.06424839999999676,0.1,0,0,FastAcc,13,17,Woman,Right,
16,12,1,3.4164418000000296,['c'],1,left,['e'],0,0.08734910000021046,0.1,0,0,FastAcc,13,17,Woman,Right,
17,12,1,0.5669653000004473,['n'],1,right,['u'],1,0.9280620000008639,0.4,1,0,FastAcc,13,17,Woman,Right,
18,12,1,1.2347028000003775,['n'],1,right,['u'],1,0.09203200000047218,0.2,1,0,FastAcc,13,17,Woman,Right,
19,12,1,1.0673463000002812,['c'],1,left,['u'],1,0.032180299998799455,0.2,1,0,FastAcc,13,17,Woman,Right,
20,12,1,0.6344159000000218,['n'],1,right,['u'],1,0.07189250000010361,0.2,1,0,FastAcc,13,17,Woman,Right,
21,12,1,3.4840602000003855,['c'],1,left,['e'],0,0.09250059999976656,0.2,0,0,FastAcc,13,17,Woman,Right,
22,12,1,1.4508884999995644,['c'],1,left,['u'],1,0.273187599999801,0.2,1,0,FastAcc,13,17,Woman,Right,
23,12,1,2.783483900000647,['c'],1,left,['e'],0,0.08973619999960647,0.2,0,0,FastAcc,13,17,Woman,Right,
24,12,1,3.816326999998637,['n'],0,left,['e'],0,0.09715270000015153,0.2,1,0,FastAcc,13,17,Woman,Right,
25,12,1,1.8673964999998134,['c'],1,left,['u'],1,0.03608879999956116,0.4,1,0,FastAcc,13,17,Woman,Right,
26,12,1,1.2168661999985488,['n'],1,right,['u'],1,0.052591300000131014,0.2,1,0,FastAcc,13,17,Woman,Right,
27,12,1,0.6836215000002994,['n'],1,right,['u'],1,0.04115680000177235,0.4,1,0,FastAcc,13,17,Woman,Right,
28,12,1,1.167480300000534,['n'],1,right,['u'],1,0.09139189999950759,0.2,1,0,FastAcc,13,17,Woman,Right,
29,12,1,0.7511477999996714,['n'],1,right,['u'],1,0.07632580000063172,0.4,1,0,FastAcc,13,17,Woman,Right,
30,12,1,0.801305400000274,['c'],1,left,['u'],1,0.027910500000871252,0.4,1,0,FastAcc,13,17,Woman,Right,
31,12,1,0.6003990999997768,['n'],1,right,['u'],1,0.03714629999922181,0.4,1,0,FastAcc,13,17,Woman,Right,
32,12,1,1.1832000999984302,['c'],1,left,['u'],1,0.6629316999988077,0.4,1,0,FastAcc,13,17,Woman,Right,
33,12,1,1.4512841000014305,['c'],1,left,['e'],0,0.06805489999896963,0.1,0,0,FastAcc,13,17,Woman,Right,
34,12,1,0.583885599999121,['n'],1,right,['u'],1,0.060261000000537024,0.1,1,0,FastAcc,13,17,Woman,Right,
35,12,1,2.3496634000002814,['c'],1,left,['u'],1,0.04720620000080089,0.2,1,0,FastAcc,13,17,Woman,Right,
36,12,1,1.0345115000000078,['c'],1,left,['u'],1,0.021854699998584692,0.4,1,0,FastAcc,13,17,Woman,Right,
37,12,1,0.5007560000012745,['n'],1,right,['u'],1,0.05166230000031646,0.4,1,0,FastAcc,13,17,Woman,Right,
38,12,1,1.0006926999994903,['n'],1,right,['u'],1,0.07546209999964049,0.1,1,0,FastAcc,13,17,Woman,Right,
39,12,1,1.5344820999998774,['n'],0,left,['e'],0,0.07832020000023476,0.1,1,0,FastAcc,13,17,Woman,Right,
40,12,1,2.916461700000582,['c'],1,left,['e'],0,0.10613250000096741,0.4,0,0,FastAcc,13,17,Woman,Right,
41,12,1,2.650154400000247,['n'],1,right,['e'],0,0.045453599999746075,0.2,0,0,FastAcc,13,17,Woman,Right,
42,12,1,2.9007594999984576,['c'],1,left,['e'],0,0.1378643000007287,0.1,0,0,FastAcc,13,17,Woman,Right,
43,12,1,0.6335228000007191,['n'],1,right,['u'],1,0.04524959999980638,0.4,1,0,FastAcc,13,17,Woman,Right,
44,12,1,1.6004752999997436,['n'],1,right,['e'],0,0.38152179999997315,0.1,0,0,FastAcc,13,17,Woman,Right,
45,12,1,1.517778299999918,['c'],1,left,['u'],1,0.10009639999952924,0.4,1,0,FastAcc,13,17,Woman,Right,
46,12,1,2.1341456000009202,['c'],1,left,['e'],0,0.17298239999945508,0.1,0,0,FastAcc,13,17,Woman,Right,
47,12,1,0.651168599999437,['n'],1,right,['u'],1,0.030861200000799727,0.4,1,0,FastAcc,13,17,Woman,Right,
48,12,1,1.0665758000013739,['n'],1,right,['u'],1,1.0291601000008086,0.4,1,0,FastAcc,13,17,Woman,Right,
49,12,1,1.401152499998716,['c'],1,left,['e'],0,0.13431759999912174,0.1,0,0,FastAcc,13,17,Woman,Right,
50,12,1,0.5671942999997555,['n'],1,right,['u'],1,0.07674210000004678,0.2,1,0,FastAcc,13,17,Woman,Right,
51,12,1,1.2667555999996694,['n'],1,right,['u'],1,0.08906329999990703,0.2,1,0,FastAcc,13,17,Woman,Right,
52,12,1,2.2337845000001835,['c'],0,right,['e'],0,0.862818800000241,0.1,1,0,FastAcc,13,17,Woman,Right,
53,12,1,2.2340122000005067,['n'],1,right,['e'],0,0.021469799999977113,0.1,0,0,FastAcc,13,17,Woman,Right,
54,12,1,0.7165738999992755,['n'],1,right,['u'],1,0.04259900000033667,0.4,1,0,FastAcc,13,17,Woman,Right,
55,12,1,1.632904399999461,['c'],1,left,['u'],1,0.042673400001149275,0.2,1,0,FastAcc,13,17,Woman,Right,
56,12,1,0.8673767000000225,['n'],1,right,['u'],1,0.07260300000052666,0.4,1,0,FastAcc,13,17,Woman,Right,
57,12,1,0.6169129999998404,['n'],1,right,['u'],1,0.04727459999958228,0.4,1,0,FastAcc,13,17,Woman,Right,
58,12,1,3.2844069999991916,['c'],0,right,['u'],1,0.18809409999994386,0.1,0,0,FastAcc,13,17,Woman,Right,
59,12,1,0.6512593000006746,['n'],1,right,['u'],1,0.09317510000073526,0.2,1,0,FastAcc,13,17,Woman,Right,
0,13,1,0.8349622999994608,['c'],1,left,['u'],1,0.050425600000380655,0.4,1,0,FastFast,13,17,Woman,Right,
1,13,1,0.6675154000004113,['n'],1,right,['u'],1,0.008455799999865121,0.1,1,0,FastFast,13,17,Woman,Right,
2,13,1,0.5842691999987437,['n'],1,right,['u'],1,0.05074400000012247,0.4,1,0,FastFast,13,17,Woman,Right,
3,13,1,0.4835631999994803,['n'],1,right,['u'],1,0.04800059999979567,0.2,1,0,FastFast,13,17,Woman,Right,
4,13,1,0.7512430000006134,['c'],1,left,['u'],1,0.049902900000233785,0.4,1,0,FastFast,13,17,Woman,Right,
5,13,1,2.2002414999988105,['c'],0,right,['u'],1,0.042494599998462945,0.1,0,0,FastFast,13,17,Woman,Right,
6,13,1,0.7168818000009196,['c'],1,left,['u'],1,0.014634000001024106,0.4,1,0,FastFast,13,17,Woman,Right,
7,13,1,0.4161867999991955,['n'],1,right,['u'],1,0.7834113999997498,0.4,1,0,FastFast,13,17,Woman,Right,
8,13,1,1.03366509999978,['c'],1,left,['u'],1,0.009505699999863282,0.2,1,0,FastFast,13,17,Woman,Right,
9,13,1,0.5513167999997677,['n'],1,right,['u'],1,0.036431100001209415,0.1,1,0,FastFast,13,17,Woman,Right,
10,13,1,0.5177313000003778,['c'],1,left,['u'],1,0.032988599999953294,0.1,1,0,FastFast,13,17,Woman,Right,
11,13,1,0.7177773000003072,['c'],1,left,['u'],1,0.052818100000877166,0.4,1,0,FastFast,13,17,Woman,Right,
12,13,1,0.8504054000004544,['c'],1,left,['u'],1,0.03531640000073821,0.2,1,0,FastFast,13,17,Woman,Right,
13,13,1,0.5508224000004702,['n'],1,right,['u'],1,0.06306079999922076,0.4,1,0,FastFast,13,17,Woman,Right,
14,13,1,0.6497858999991877,['c'],1,left,['e'],0,0.05203550000078394,0.2,0,0,FastFast,13,17,Woman,Right,
15,13,1,4.16754199999923,['c'],1,left,['u'],1,0.07775489999949059,0.2,1,0,FastFast,13,17,Woman,Right,
16,13,1,1.516493500001161,['c'],1,left,['u'],1,0.06498909999936586,0.4,1,0,FastFast,13,17,Woman,Right,
17,13,1,2.033748600000763,['n'],1,right,['u'],1,0.03143670000099519,0.1,1,0,FastFast,13,17,Woman,Right,
18,13,1,0.6826492999989568,['c'],1,left,['u'],1,0.03676089999862597,0.4,1,0,FastFast,13,17,Woman,Right,
19,13,1,0.983984499998769,['c'],1,left,['u'],1,0.04604549999930896,0.2,1,0,FastFast,13,17,Woman,Right,
20,13,1,1.8174713000007614,['n'],0,left,['e'],0,0.06961650000084774,0.2,1,0,FastFast,13,17,Woman,Right,
21,13,1,0.5501323999997112,['n'],1,right,['u'],1,0.03131260000009206,0.4,1,0,FastFast,13,17,Woman,Right,
22,13,1,1.0842305999995006,['c'],0,right,['u'],1,0.053321700001106365,0.2,0,0,FastFast,13,17,Woman,Right,
23,13,1,0.9502486000001227,['c'],1,left,['e'],0,0.06284210000012536,0.1,0,0,FastFast,13,17,Woman,Right,
24,13,1,0.4999924000003375,['n'],1,right,['u'],1,0.042821499999263324,0.4,1,0,FastFast,13,17,Woman,Right,
25,13,1,0.6664541000009194,['n'],1,right,['u'],1,0.06563639999876614,0.4,1,0,FastFast,13,17,Woman,Right,
26,13,1,0.46748740000111866,['n'],1,right,['u'],1,0.0616504999998142,0.4,1,0,FastFast,13,17,Woman,Right,
27,13,1,0.5011305999996694,['n'],1,right,['u'],1,0.041839100000288454,0.2,1,0,FastFast,13,17,Woman,Right,
28,13,1,0.7843429999993532,['c'],1,left,['u'],1,0.04348709999976563,0.2,1,0,FastFast,13,17,Woman,Right,
29,13,1,0.484150000000227,['n'],1,right,['u'],1,0.05693280000014056,0.2,1,0,FastFast,13,17,Woman,Right,
30,13,1,0.5341100000005099,['n'],1,right,['u'],1,0.05174959999931161,0.4,1,0,FastFast,13,17,Woman,Right,
31,13,1,0.6508533999985957,['c'],1,left,['u'],1,0.04214030000002822,0.4,1,0,FastFast,13,17,Woman,Right,
32,13,1,2.034812400001101,['c'],1,left,['e'],0,0.05778930000087712,0.2,0,0,FastFast,13,17,Woman,Right,
33,13,1,0.5182843999991746,['n'],1,right,['u'],1,0.021737999999459134,0.4,1,0,FastFast,13,17,Woman,Right,
34,13,1,1.2675766000011208,['n'],1,right,['u'],1,0.03630359999988286,0.1,1,0,FastFast,13,17,Woman,Right,
35,13,1,2.1670363000012003,['c'],1,left,['e'],0,0.07915719999982684,0.1,0,0,FastFast,13,17,Woman,Right,
36,13,1,0.5839221000005637,['n'],1,right,['u'],1,0.03824019999956363,0.4,1,0,FastFast,13,17,Woman,Right,
37,13,1,1.8317272000003868,['n'],1,right,['e'],0,0.04693849999966915,0.1,0,0,FastFast,13,17,Woman,Right,
38,13,1,0.8340235999985453,['c'],1,left,['u'],1,0.0776092999985849,0.4,1,0,FastFast,13,17,Woman,Right,
39,13,1,0.9178683999998611,['c'],1,left,['u'],1,0.055653900000834255,0.2,1,0,FastFast,13,17,Woman,Right,
40,13,1,0.6511085000001913,['c'],1,left,['e'],0,0.09390539999913017,0.1,0,0,FastFast,13,17,Woman,Right,
41,13,1,1.5504202000010991,['n'],1,right,['e'],0,0.04725279999911436,0.1,0,0,FastFast,13,17,Woman,Right,
42,13,1,2.9004869000000326,['n'],1,right,['e'],0,0.13931109999975888,0.1,0,0,FastFast,13,17,Woman,Right,
43,13,1,1.2678641000002244,['c'],1,left,['u'],1,0.502092899998388,0.1,1,0,FastFast,13,17,Woman,Right,
44,13,1,0.7520512999999482,['n'],0,left,['u'],1,0.18192910000107076,0.1,0,0,FastFast,13,17,Woman,Right,
45,13,1,0.9010228000006464,['c'],1,left,['e'],0,0.07681489999959012,0.4,0,0,FastFast,13,17,Woman,Right,
46,13,1,2.733121100000062,['n'],1,right,['e'],0,0.04839940000056231,0.1,0,0,FastFast,13,17,Woman,Right,
47,13,1,3.4502207000005,['n'],1,right,['e'],0,0.053814999999303836,0.2,0,0,FastFast,13,17,Woman,Right,
48,13,1,0.8508129000001645,['c'],1,left,['u'],1,0.05248039999969478,0.2,1,0,FastFast,13,17,Woman,Right,
49,13,1,2.4180280000000494,['n'],1,right,['u'],1,0.03588569999919855,0.2,1,0,FastFast,13,17,Woman,Right,
50,13,1,0.7335397000006196,['c'],1,left,['u'],1,0.039803700001357356,0.2,1,0,FastFast,13,17,Woman,Right,
51,13,1,1.0670184999999037,['c'],1,left,['e'],0,0.030994200000350247,0.4,0,0,FastFast,13,17,Woman,Right,
52,13,1,2.2175954000013007,['c'],1,left,['e'],0,0.053950699999404605,0.1,0,0,FastFast,13,17,Woman,Right,
53,13,1,1.567855999999665,['n'],1,right,['e'],0,0.05565340000066499,0.1,0,0,FastFast,13,17,Woman,Right,
54,13,1,1.7678404999987833,['c'],1,left,['u'],1,0.0018261000004713424,0.1,1,0,FastFast,13,17,Woman,Right,
55,13,1,2.166573700000299,['n'],1,right,['u'],1,0.013330300000234274,0.1,1,0,FastFast,13,17,Woman,Right,
56,13,1,2.567529199999626,['c'],1,left,['u'],1,0.040396800000962685,0.2,1,0,FastFast,13,17,Woman,Right,
57,13,1,0.7678973999991285,['n'],1,right,['u'],1,0.042235999999320484,0.1,1,0,FastFast,13,17,Woman,Right,
58,13,1,3.3505284000002575,['c'],0,right,['u'],1,0.053418800000144984,0.2,0,0,FastFast,13,17,Woman,Right,
59,13,1,0.6675159000005806,['n'],1,right,['u'],1,0.02707419999933336,0.2,1,0,FastFast,13,17,Woman,Right,
0,14,1,1.8839029999999184,['c'],1,left,['u'],1,0.13187529999959224,0.1,1,0,AccFast,13,17,Woman,Right,
1,14,1,1.4016517000000022,['c'],1,left,['u'],1,0.08888050000132353,0.4,1,0,AccFast,13,17,Woman,Right,
2,14,1,2.417960700000549,['c'],1,left,['u'],1,0.13517490000049293,0.1,1,0,AccFast,13,17,Woman,Right,
3,14,1,1.5180710000004183,['c'],1,left,['e'],0,0.2796897000007448,0.1,0,0,AccFast,13,17,Woman,Right,
4,14,1,1.1178469999995286,['c'],1,left,['e'],0,0.11386049999964598,0.4,0,0,AccFast,13,17,Woman,Right,
5,14,1,1.3837005000004865,['c'],1,left,['u'],1,0.056694799999604584,0.2,1,0,AccFast,13,17,Woman,Right,
6,14,1,1.917413499999384,['c'],1,left,['e'],0,0.07589530000041123,0.2,0,0,AccFast,13,17,Woman,Right,
7,14,1,1.6843372999992425,['n'],0,left,['e'],0,0.05659969999942405,0.2,1,0,AccFast,13,17,Woman,Right,
8,14,1,1.9500016999991203,['n'],1,right,['e'],0,0.05853639999986626,0.1,0,0,AccFast,13,17,Woman,Right,
9,14,1,3.4176723999989918,['c'],1,left,['e'],0,0.05038269999931799,0.2,0,0,AccFast,13,17,Woman,Right,
10,14,1,0.7010829000009835,['n'],1,right,['u'],1,0.05472670000017388,0.4,1,0,AccFast,13,17,Woman,Right,
11,14,1,0.9836752000010165,['c'],1,left,['u'],1,0.016637799999443814,0.4,1,0,AccFast,13,17,Woman,Right,
12,14,1,0.6678456999998161,['n'],1,right,['u'],1,0.006894699999975273,0.2,1,0,AccFast,13,17,Woman,Right,
13,14,1,0.7675741000002745,['c'],1,left,['u'],1,0.02617170000121405,0.4,1,0,AccFast,13,17,Woman,Right,
14,14,1,0.7509004000003188,['n'],1,right,['e'],0,0.6055408000011084,0.1,0,0,AccFast,13,17,Woman,Right,
15,14,1,5.000016500000129,x,-99,left,none,-99,-99,0.1,-99,1,AccFast,13,17,Woman,Right,
16,14,1,1.5841481999996176,['c'],1,left,['e'],0,0.003867299999910756,0.2,0,0,AccFast,13,17,Woman,Right,
17,14,1,3.3996981000000233,['c'],0,right,['e'],0,0.061912999999549356,0.1,1,0,AccFast,13,17,Woman,Right,
18,14,1,0.5509910000000673,['n'],1,right,['u'],1,0.07182839999950374,0.4,1,0,AccFast,13,17,Woman,Right,
19,14,1,0.6000798000004579,['n'],1,right,['u'],1,0.031021500000861124,0.1,1,0,AccFast,13,17,Woman,Right,
20,14,1,1.6178216999996948,['c'],1,left,['u'],1,0.04742189999888069,0.1,1,0,AccFast,13,17,Woman,Right,
21,14,1,0.7990649000003032,['c'],1,left,['u'],1,0.032105300000694115,0.2,1,0,AccFast,13,17,Woman,Right,
22,14,1,1.817445000000589,['n'],1,right,['e'],0,0.024928400000135298,0.1,0,0,AccFast,13,17,Woman,Right,
23,14,1,0.9686148000000685,['c'],1,left,['u'],1,0.09905969999999797,0.4,1,0,AccFast,13,17,Woman,Right,
24,14,1,3.834159099998942,['c'],0,right,['e'],0,0.4251801999998861,0.1,1,0,AccFast,13,17,Woman,Right,
25,14,1,0.6506884999998874,['n'],1,right,['u'],1,0.031749399999171146,0.4,1,0,AccFast,13,17,Woman,Right,
26,14,1,2.017109899999923,['n'],1,right,['u'],1,0.0959549999988667,0.2,1,0,AccFast,13,17,Woman,Right,
27,14,1,0.9669309000000794,['n'],1,right,['u'],1,0.0722592000001896,0.4,1,0,AccFast,13,17,Woman,Right,
28,14,1,2.0341812999995454,['c'],1,left,['u'],1,0.054064299998572096,0.4,1,0,AccFast,13,17,Woman,Right,
29,14,1,3.9508579000012105,['c'],0,right,['e'],0,0.12057699999968463,0.1,1,0,AccFast,13,17,Woman,Right,
30,14,1,0.7998604999993404,['n'],1,right,['u'],1,0.0702928000009706,0.4,1,0,AccFast,13,17,Woman,Right,
31,14,1,0.6500808000000688,['n'],1,right,['u'],1,0.09220120000099996,0.4,1,0,AccFast,13,17,Woman,Right,
32,14,1,0.7676312000003236,['c'],1,left,['u'],1,0.04490110000006098,0.4,1,0,AccFast,13,17,Woman,Right,
33,14,1,0.7167848000008235,['n'],1,right,['u'],1,0.08030730000064068,0.2,1,0,AccFast,13,17,Woman,Right,
34,14,1,0.6670384999997623,['n'],1,right,['u'],1,0.05291399999987334,0.4,1,0,AccFast,13,17,Woman,Right,
35,14,1,1.4336677999999665,['c'],1,left,['e'],0,0.028533900000184076,0.1,0,0,AccFast,13,17,Woman,Right,
36,14,1,0.7852439999987837,['n'],1,right,['u'],1,0.14167939999970258,0.4,1,0,AccFast,13,17,Woman,Right,
37,14,1,1.6493057999996381,['c'],1,left,['u'],1,0.1061256000011781,0.2,1,0,AccFast,13,17,Woman,Right,
38,14,1,4.035102399999232,['n'],1,right,['u'],1,0.08567390000098385,0.2,1,0,AccFast,13,17,Woman,Right,
39,14,1,0.8509494999998424,['n'],1,right,['u'],1,0.051175799999327864,0.4,1,0,AccFast,13,17,Woman,Right,
40,14,1,1.434194599998591,['c'],1,left,['e'],0,0.05816929999855347,0.2,0,0,AccFast,13,17,Woman,Right,
41,14,1,2.284276600001249,['n'],0,left,['e'],0,0.047132499999861466,0.2,1,0,AccFast,13,17,Woman,Right,
42,14,1,3.067386999999144,['n'],0,left,['e'],0,0.036568900000929716,0.1,1,0,AccFast,13,17,Woman,Right,
43,14,1,1.0498138000002655,['n'],1,right,['e'],0,0.04395380000096338,0.1,0,0,AccFast,13,17,Woman,Right,
44,14,1,1.0848120999999082,['n'],1,right,['u'],1,0.08121989999926882,0.2,1,0,AccFast,13,17,Woman,Right,
45,14,1,2.4171131999992213,['n'],1,right,['e'],0,0.01600259999941045,0.2,0,0,AccFast,13,17,Woman,Right,
46,14,1,0.6343486999994639,['n'],1,right,['u'],1,0.05544949999966775,0.4,1,0,AccFast,13,17,Woman,Right,
47,14,1,3.61734400000023,['c'],1,left,['e'],0,0.00795309999921301,0.1,0,0,AccFast,13,17,Woman,Right,
48,14,1,3.9995023000010406,['n'],1,right,['e'],0,0.05833640000128071,0.1,0,0,AccFast,13,17,Woman,Right,
49,14,1,1.183885399999781,['c'],1,left,['e'],0,0.07518730000083451,0.2,0,0,AccFast,13,17,Woman,Right,
50,14,1,2.2165970999994897,['n'],1,right,['u'],1,0.03448679999928572,0.2,1,0,AccFast,13,17,Woman,Right,
51,14,1,1.0174480999994557,['c'],1,left,['u'],1,0.026431999998749234,0.4,1,0,AccFast,13,17,Woman,Right,
52,14,1,3.4170701000002737,['n'],1,right,['e'],0,0.03632850000030885,0.1,0,0,AccFast,13,17,Woman,Right,
53,14,1,0.8179734999994253,['n'],1,right,['u'],1,0.019830799999908777,0.4,1,0,AccFast,13,17,Woman,Right,
54,14,1,2.033410300000469,['c'],1,left,['e'],0,0.004631199999494129,0.2,0,0,AccFast,13,17,Woman,Right,
55,14,1,2.983420300000944,['c'],1,left,['e'],0,0.07909060000019963,0.2,0,0,AccFast,13,17,Woman,Right,
56,14,1,4.500612699999692,['c'],1,left,['e'],0,0.0902645999995002,0.1,0,0,AccFast,13,17,Woman,Right,
57,14,1,0.4666589999997086,['n'],1,right,['u'],1,0.05484210000031453,0.4,1,0,AccFast,13,17,Woman,Right,
58,14,1,0.5177072999995289,['n'],1,right,['u'],1,0.01847040000029665,0.1,1,0,AccFast,13,17,Woman,Right,
59,14,1,1.583739899999273,['c'],1,left,['u'],1,0.11666250000052969,0.2,1,0,AccFast,13,17,Woman,Right,
0,15,1,2.2344622000000527,['c'],0,right,['e'],0,0.6937915999988036,0.1,1,0,AccAcc,13,17,Woman,Right,
1,15,1,1.7848410999995394,['c'],1,left,['u'],1,0.549503399999594,0.4,1,0,AccAcc,13,17,Woman,Right,
2,15,1,4.267328500000076,['c'],0,right,['e'],0,0.3598099999999249,0.1,1,0,AccAcc,13,17,Woman,Right,
3,15,1,3.7841306000009354,['c'],0,right,['u'],1,0.08514349999859405,0.1,0,0,AccAcc,13,17,Woman,Right,
4,15,1,3.45109599999887,['c'],1,left,['e'],0,0.4578550999995059,0.2,0,0,AccAcc,13,17,Woman,Right,
5,15,1,0.867778100000578,['n'],1,right,['u'],1,0.07196269999985816,0.4,1,0,AccAcc,13,17,Woman,Right,
6,15,1,3.1173223000005237,['n'],1,right,['u'],1,0.4105541999997513,0.2,1,0,AccAcc,13,17,Woman,Right,
7,15,1,3.5502384999999776,['n'],0,left,['e'],0,0.09521059999860881,0.1,1,0,AccAcc,13,17,Woman,Right,
8,15,1,1.1495321999991575,['c'],1,left,['u'],1,0.04744159999972908,0.4,1,0,AccAcc,13,17,Woman,Right,
9,15,1,0.6664665000007517,['c'],1,left,['u'],1,0.03758850000122038,0.4,1,0,AccAcc,13,17,Woman,Right,
10,15,1,4.117311299998619,['c'],1,left,['e'],0,0.12973729999976058,0.1,0,0,AccAcc,13,17,Woman,Right,
11,15,1,5.016691000000719,x,-99,right,none,-99,-99,0.1,-99,1,AccAcc,13,17,Woman,Right,
12,15,1,1.2001944000003277,['c'],1,left,['u'],1,0.056870899999921676,0.4,1,0,AccAcc,13,17,Woman,Right,
13,15,1,3.1491382000003796,['c'],1,left,['u'],1,0.1079195999991498,0.2,1,0,AccAcc,13,17,Woman,Right,
14,15,1,1.7842044000008173,['c'],1,left,['u'],1,0.1146177999999054,0.2,1,0,AccAcc,13,17,Woman,Right,
15,15,1,1.833379599998807,['c'],1,left,['u'],1,0.10300730000017211,0.4,1,0,AccAcc,13,17,Woman,Right,
16,15,1,4.05070749999868,['c'],0,right,['e'],0,0.19508430000132648,0.1,1,0,AccAcc,13,17,Woman,Right,
17,15,1,1.483915500000876,['c'],1,left,['e'],0,0.11422140000104264,0.2,0,0,AccAcc,13,17,Woman,Right,
18,15,1,2.6507679000005737,['c'],1,left,['u'],1,0.10232920000089507,0.1,1,0,AccAcc,13,17,Woman,Right,
19,15,1,0.9499908999987383,['c'],1,left,['u'],1,0.11094330000014452,0.1,1,0,AccAcc,13,17,Woman,Right,
20,15,1,0.7502515999985917,['n'],1,right,['u'],1,0.09458529999938037,0.1,1,0,AccAcc,13,17,Woman,Right,
21,15,1,0.700576600000204,['n'],1,right,['u'],1,0.017925199999808683,0.4,1,0,AccAcc,13,17,Woman,Right,
22,15,1,0.7182014999998501,['n'],1,right,['u'],1,0.02223489999960293,0.2,1,0,AccAcc,13,17,Woman,Right,
23,15,1,0.9510121000002982,['c'],1,left,['u'],1,0.017949200000657584,0.1,1,0,AccAcc,13,17,Woman,Right,
24,15,1,3.250552499999685,['c'],1,left,['u'],1,0.04952969999976631,0.1,1,0,AccAcc,13,17,Woman,Right,
25,15,1,0.8342981999994663,['n'],1,right,['u'],1,0.2724820000003092,0.2,1,0,AccAcc,13,17,Woman,Right,
26,15,1,0.6003605999994761,['n'],1,right,['u'],1,0.0321020999999746,0.4,1,0,AccAcc,13,17,Woman,Right,
27,15,1,0.6010858999998163,['n'],1,right,['u'],1,0.025170499999148888,0.4,1,0,AccAcc,13,17,Woman,Right,
28,15,1,0.8674974000005022,['c'],1,left,['u'],1,0.05591350000031525,0.4,1,0,AccAcc,13,17,Woman,Right,
29,15,1,0.6345722999994905,['n'],1,right,['u'],1,0.030665899999803514,0.2,1,0,AccAcc,13,17,Woman,Right,
30,15,1,1.7008852999988449,['c'],1,left,['e'],0,0.20354340000085358,0.2,0,0,AccAcc,13,17,Woman,Right,
31,15,1,2.1658669999997073,['c'],1,left,['u'],1,0.06399099999907776,0.4,1,0,AccAcc,13,17,Woman,Right,
32,15,1,2.7668308000011166,['c'],1,left,['e'],0,0.1766100999993796,0.1,0,0,AccAcc,13,17,Woman,Right,
33,15,1,0.9178689999989729,['n'],1,right,['u'],1,0.07152489999862155,0.4,1,0,AccAcc,13,17,Woman,Right,
34,15,1,1.7326982000013231,['c'],1,left,['u'],1,0.6743881000002148,0.1,1,0,AccAcc,13,17,Woman,Right,
35,15,1,1.4498075999999855,['n'],1,right,['e'],0,0.09614660000079311,0.2,0,0,AccAcc,13,17,Woman,Right,
36,15,1,3.134110900000451,['n'],1,right,['e'],0,0.09653699999944365,0.1,0,0,AccAcc,13,17,Woman,Right,
37,15,1,1.9512045999999827,['c'],1,left,['u'],1,0.08105500000056054,0.2,1,0,AccAcc,13,17,Woman,Right,
38,15,1,2.000395999999455,['n'],1,right,['e'],0,0.06395059999886143,0.2,0,0,AccAcc,13,17,Woman,Right,
39,15,1,1.0343701999991026,['c'],1,left,['u'],1,0.03830240000024787,0.4,1,0,AccAcc,13,17,Woman,Right,
40,15,1,2.915817600000082,['n'],1,right,['e'],0,0.099480399998356,0.1,0,0,AccAcc,13,17,Woman,Right,
41,15,1,4.18358569999873,['n'],1,right,['e'],0,0.2818412000015087,0.1,0,0,AccAcc,13,17,Woman,Right,
42,15,1,0.8674531000015122,['c'],1,left,['u'],1,0.11049639999873762,0.2,1,0,AccAcc,13,17,Woman,Right,
43,15,1,1.5501366999997117,['c'],1,left,['e'],0,0.11053689999971539,0.2,0,0,AccAcc,13,17,Woman,Right,
44,15,1,1.1674616000000242,['c'],1,left,['u'],1,0.07829669999955513,0.4,1,0,AccAcc,13,17,Woman,Right,
45,15,1,0.7167745000006107,['n'],1,right,['u'],1,0.04956099999981234,0.4,1,0,AccAcc,13,17,Woman,Right,
46,15,1,2.0835166000015306,['c'],1,left,['e'],0,0.30207460000019637,0.1,0,0,AccAcc,13,17,Woman,Right,
47,15,1,1.5178061000005982,['c'],0,right,['e'],0,0.21571659999972326,0.1,1,0,AccAcc,13,17,Woman,Right,
48,15,1,0.9842103999999381,['c'],1,left,['e'],0,0.47411379999903147,0.2,0,0,AccAcc,13,17,Woman,Right,
49,15,1,0.5845239999998739,['n'],1,right,['u'],1,0.19432250000136264,0.4,1,0,AccAcc,13,17,Woman,Right,
50,15,1,0.9345032000001083,['n'],1,right,['u'],1,0.07198980000066513,0.4,1,0,AccAcc,13,17,Woman,Right,
51,15,1,2.7840117999985523,['c'],1,left,['u'],1,0.29653870000038296,0.2,1,0,AccAcc,13,17,Woman,Right,
52,15,1,0.7510656000013114,['c'],1,left,['u'],1,0.06467030000021623,0.4,1,0,AccAcc,13,17,Woman,Right,
53,15,1,2.3841873000001215,['n'],1,right,['e'],0,0.06535149999945133,0.2,0,0,AccAcc,13,17,Woman,Right,
54,15,1,0.5844562000002043,['n'],1,right,['u'],1,0.05707799999981944,0.4,1,0,AccAcc,13,17,Woman,Right,
55,15,1,2.383234999999331,['n'],1,right,['e'],0,0.0907948000003671,0.4,0,0,AccAcc,13,17,Woman,Right,
56,15,1,1.1659834000001865,['n'],1,right,['e'],0,0.09166960000038671,0.2,0,0,AccAcc,13,17,Woman,Right,
57,15,1,3.883465000000797,['n'],1,right,['u'],1,0.12632689999918512,0.2,1,0,AccAcc,13,17,Woman,Right,
58,15,1,1.2000972999994701,['c'],1,left,['e'],0,0.12551220000023022,0.2,0,0,AccAcc,13,17,Woman,Right,
59,15,1,2.283639299999777,['n'],1,right,['e'],0,0.158496500000183,0.1,0,0,AccAcc,13,17,Woman,Right,
