withinblocktrial,block,block_repetition,rt,resp,cor,cresp,conf_press,cj,rtconf,coherence,metacognition,slow_trial,manipulation,sub,age,gender,handedness,
0,1,1,1.5835800999998355,['c'],1,left,none,-99,-99,0.5,-99,0,none,18,18,Woman,Right,
1,1,1,0.600960700000087,['c'],1,left,none,-99,-99,0.5,-99,0,none,18,18,Woman,Right,
2,1,1,0.8164805999999771,['c'],1,left,none,-99,-99,0.5,-99,0,none,18,18,Woman,Right,
3,1,1,0.6171685999997862,['n'],1,right,none,-99,-99,0.5,-99,0,none,18,18,Woman,Right,
4,1,1,0.8340071000002354,['n'],1,right,none,-99,-99,0.5,-99,0,none,18,18,Woman,Right,
5,1,1,0.8159869999999501,['c'],0,right,none,-99,-99,0.5,-99,0,none,18,18,Woman,Right,
6,1,1,0.9180219999998371,['c'],1,left,none,-99,-99,0.5,-99,0,none,18,18,Woman,Right,
7,1,1,0.6844867999998314,['n'],1,right,none,-99,-99,0.5,-99,0,none,18,18,Woman,Right,
8,1,1,1.136522000000241,['c'],1,left,none,-99,-99,0.5,-99,0,none,18,18,Woman,Right,
9,1,1,0.8517164999998386,['n'],0,left,none,-99,-99,0.5,-99,0,none,18,18,Woman,Right,
10,1,1,0.633198700000321,['c'],0,right,none,-99,-99,0.5,-99,0,none,18,18,Woman,Right,
11,1,1,0.69984710000017,['c'],1,left,none,-99,-99,0.5,-99,0,none,18,18,Woman,Right,
12,1,1,0.6344850999998926,['n'],1,right,none,-99,-99,0.5,-99,0,none,18,18,Woman,Right,
13,1,1,0.6671529999998711,['n'],1,right,none,-99,-99,0.5,-99,0,none,18,18,Woman,Right,
14,1,1,0.9838603999996849,['c'],1,left,none,-99,-99,0.5,-99,0,none,18,18,Woman,Right,
15,1,1,0.5841353999999228,['n'],0,left,none,-99,-99,0.5,-99,0,none,18,18,Woman,Right,
16,1,1,0.9172668999999587,['c'],0,right,none,-99,-99,0.5,-99,0,none,18,18,Woman,Right,
17,1,1,1.0512588999999934,['c'],0,right,none,-99,-99,0.5,-99,0,none,18,18,Woman,Right,
18,1,1,0.5857243000000381,['n'],0,left,none,-99,-99,0.5,-99,0,none,18,18,Woman,Right,
19,1,1,1.0172019999999975,['c'],1,left,none,-99,-99,0.5,-99,0,none,18,18,Woman,Right,
20,1,1,0.8346839999999247,['n'],1,right,none,-99,-99,0.5,-99,0,none,18,18,Woman,Right,
21,1,1,0.7512500000002547,['c'],1,left,none,-99,-99,0.5,-99,0,none,18,18,Woman,Right,
22,1,1,0.6513587999997981,['c'],0,right,none,-99,-99,0.5,-99,0,none,18,18,Woman,Right,
23,1,1,0.7179941999997936,['c'],0,right,none,-99,-99,0.5,-99,0,none,18,18,Woman,Right,
0,1,2,0.7012398000001667,['c'],1,left,none,-99,-99,0.5,-99,0,none,18,18,Woman,Right,
1,1,2,0.6340446999997766,['c'],1,left,none,-99,-99,0.5,-99,0,none,18,18,Woman,Right,
2,1,2,0.6002583999998024,['n'],1,right,none,-99,-99,0.5,-99,0,none,18,18,Woman,Right,
3,1,2,0.664720600000237,['c'],1,left,none,-99,-99,0.5,-99,0,none,18,18,Woman,Right,
4,1,2,0.6176821999997628,['n'],1,right,none,-99,-99,0.5,-99,0,none,18,18,Woman,Right,
5,1,2,0.6835664000000179,['c'],0,right,none,-99,-99,0.5,-99,0,none,18,18,Woman,Right,
6,1,2,0.4507978000001458,['c'],0,right,none,-99,-99,0.5,-99,0,none,18,18,Woman,Right,
7,1,2,0.633940100000018,['c'],1,left,none,-99,-99,0.5,-99,0,none,18,18,Woman,Right,
8,1,2,0.6172018000002026,['n'],1,right,none,-99,-99,0.5,-99,0,none,18,18,Woman,Right,
9,1,2,0.49947030000021186,['c'],1,left,none,-99,-99,0.5,-99,0,none,18,18,Woman,Right,
10,1,2,0.5501264000004085,['c'],1,left,none,-99,-99,0.5,-99,0,none,18,18,Woman,Right,
11,1,2,0.5669023999998899,['n'],1,right,none,-99,-99,0.5,-99,0,none,18,18,Woman,Right,
12,1,2,0.7830731000003652,['n'],1,right,none,-99,-99,0.5,-99,0,none,18,18,Woman,Right,
13,1,2,0.550586100000146,['c'],1,left,none,-99,-99,0.5,-99,0,none,18,18,Woman,Right,
14,1,2,0.4672002000002067,['n'],1,right,none,-99,-99,0.5,-99,0,none,18,18,Woman,Right,
15,1,2,0.49858709999989514,['c'],1,left,none,-99,-99,0.5,-99,0,none,18,18,Woman,Right,
16,1,2,0.799315100000058,['n'],1,right,none,-99,-99,0.5,-99,0,none,18,18,Woman,Right,
17,1,2,0.5847615999996378,['c'],1,left,none,-99,-99,0.5,-99,0,none,18,18,Woman,Right,
18,1,2,0.5011431999996603,['n'],0,left,none,-99,-99,0.5,-99,0,none,18,18,Woman,Right,
19,1,2,0.5663846000002195,['n'],1,right,none,-99,-99,0.5,-99,0,none,18,18,Woman,Right,
20,1,2,0.5002540000000408,['c'],0,right,none,-99,-99,0.5,-99,0,none,18,18,Woman,Right,
21,1,2,0.8839656999998624,['n'],1,right,none,-99,-99,0.5,-99,0,none,18,18,Woman,Right,
22,1,2,0.4505731999997806,['c'],1,left,none,-99,-99,0.5,-99,0,none,18,18,Woman,Right,
23,1,2,0.6003762000000279,['c'],1,left,none,-99,-99,0.5,-99,0,none,18,18,Woman,Right,
0,1,3,0.701454399999875,['c'],0,right,none,-99,-99,0.5,-99,0,none,18,18,Woman,Right,
1,1,3,0.3839183999998568,['n'],1,right,none,-99,-99,0.5,-99,0,none,18,18,Woman,Right,
2,1,3,0.5006947000001674,['c'],1,left,none,-99,-99,0.5,-99,0,none,18,18,Woman,Right,
3,1,3,0.6498890000002575,['n'],1,right,none,-99,-99,0.5,-99,0,none,18,18,Woman,Right,
4,1,3,0.4026270000003933,['c'],1,left,none,-99,-99,0.5,-99,0,none,18,18,Woman,Right,
5,1,3,0.5338128000003053,['n'],1,right,none,-99,-99,0.5,-99,0,none,18,18,Woman,Right,
6,1,3,0.33382720000008703,['c'],1,left,none,-99,-99,0.5,-99,0,none,18,18,Woman,Right,
7,1,3,0.5158673999999337,['c'],1,left,none,-99,-99,0.5,-99,0,none,18,18,Woman,Right,
8,1,3,0.6170544999999947,['n'],1,right,none,-99,-99,0.5,-99,0,none,18,18,Woman,Right,
9,1,3,0.5984260999998696,['n'],1,right,none,-99,-99,0.5,-99,0,none,18,18,Woman,Right,
10,1,3,0.4344882999998845,['c'],0,right,none,-99,-99,0.5,-99,0,none,18,18,Woman,Right,
11,1,3,0.567891199999849,['c'],1,left,none,-99,-99,0.5,-99,0,none,18,18,Woman,Right,
12,1,3,0.784173500000179,['c'],1,left,none,-99,-99,0.5,-99,0,none,18,18,Woman,Right,
13,1,3,0.7181295000000318,['n'],1,right,none,-99,-99,0.5,-99,0,none,18,18,Woman,Right,
14,1,3,0.45065859999976965,['c'],1,left,none,-99,-99,0.5,-99,0,none,18,18,Woman,Right,
15,1,3,0.5012221000001773,['n'],1,right,none,-99,-99,0.5,-99,0,none,18,18,Woman,Right,
16,1,3,0.39987120000023424,['c'],1,left,none,-99,-99,0.5,-99,0,none,18,18,Woman,Right,
17,1,3,0.48404459999983374,['c'],1,left,none,-99,-99,0.5,-99,0,none,18,18,Woman,Right,
18,1,3,0.3341883999996753,['n'],1,right,none,-99,-99,0.5,-99,0,none,18,18,Woman,Right,
19,1,3,0.36761070000011387,['c'],1,left,none,-99,-99,0.5,-99,0,none,18,18,Woman,Right,
20,1,3,0.4505810999999085,['c'],1,left,none,-99,-99,0.5,-99,0,none,18,18,Woman,Right,
21,1,3,0.40018819999977495,['n'],1,right,none,-99,-99,0.5,-99,0,none,18,18,Woman,Right,
22,1,3,0.3846675999998297,['c'],0,right,none,-99,-99,0.5,-99,0,none,18,18,Woman,Right,
23,1,3,0.3682600000001912,['c'],1,left,none,-99,-99,0.5,-99,0,none,18,18,Woman,Right,
0,2,1,1.717948399999841,['c'],0,right,none,-99,-99,0.1,-99,0,none,18,18,Woman,Right,
1,2,1,0.5837464999999611,['c'],1,left,none,-99,-99,0.1,-99,0,none,18,18,Woman,Right,
2,2,1,1.0357178999997814,['n'],0,left,none,-99,-99,0.2,-99,0,none,18,18,Woman,Right,
3,2,1,0.5679940999998507,['c'],1,left,none,-99,-99,0.2,-99,0,none,18,18,Woman,Right,
4,2,1,0.4000559000000976,['n'],1,right,none,-99,-99,0.2,-99,0,none,18,18,Woman,Right,
5,2,1,0.6837154999998347,['n'],1,right,none,-99,-99,0.4,-99,0,none,18,18,Woman,Right,
6,2,1,1.1831335000001673,['c'],0,right,none,-99,-99,0.1,-99,0,none,18,18,Woman,Right,
7,2,1,1.7004535000000942,['c'],0,right,none,-99,-99,0.1,-99,0,none,18,18,Woman,Right,
8,2,1,0.717172500000288,['n'],0,left,none,-99,-99,0.1,-99,0,none,18,18,Woman,Right,
9,2,1,0.7834992000002785,['c'],0,right,none,-99,-99,0.1,-99,0,none,18,18,Woman,Right,
10,2,1,0.5848774999999478,['c'],1,left,none,-99,-99,0.1,-99,0,none,18,18,Woman,Right,
11,2,1,0.7840458000000581,['c'],0,right,none,-99,-99,0.2,-99,0,none,18,18,Woman,Right,
12,2,1,0.6006222000000889,['n'],1,right,none,-99,-99,0.4,-99,0,none,18,18,Woman,Right,
13,2,1,0.4841748999997435,['c'],0,right,none,-99,-99,0.2,-99,0,none,18,18,Woman,Right,
14,2,1,0.6012810000001991,['n'],1,right,none,-99,-99,0.4,-99,0,none,18,18,Woman,Right,
15,2,1,0.5344783000000461,['c'],1,left,none,-99,-99,0.4,-99,0,none,18,18,Woman,Right,
16,2,1,0.5673404999997729,['c'],1,left,none,-99,-99,0.1,-99,0,none,18,18,Woman,Right,
17,2,1,0.6185706000001119,['c'],1,left,none,-99,-99,0.2,-99,0,none,18,18,Woman,Right,
18,2,1,0.6014867999997477,['c'],1,left,none,-99,-99,0.4,-99,0,none,18,18,Woman,Right,
19,2,1,0.5673503000002711,['c'],1,left,none,-99,-99,0.4,-99,0,none,18,18,Woman,Right,
20,2,1,0.5840082999998231,['n'],1,right,none,-99,-99,0.4,-99,0,none,18,18,Woman,Right,
21,2,1,0.6841964000000189,['n'],1,right,none,-99,-99,0.4,-99,0,none,18,18,Woman,Right,
22,2,1,0.6005119000001287,['c'],1,left,none,-99,-99,0.2,-99,0,none,18,18,Woman,Right,
23,2,1,1.0010558999997556,['c'],1,left,none,-99,-99,0.2,-99,0,none,18,18,Woman,Right,
0,3,1,1.6509013999998388,['c'],1,left,['e'],1,1.0772667000001093,0.1,1,0,none,18,18,Woman,Right,
1,3,1,1.4017957999999453,['c'],0,right,['e'],1,0.37718779999977414,0.1,0,0,none,18,18,Woman,Right,
2,3,1,1.0511609999998655,['n'],1,right,['e'],1,0.8706265999999232,0.4,1,0,none,18,18,Woman,Right,
3,3,1,0.9670954000002894,['c'],1,left,['e'],1,0.4675486999999521,0.4,1,0,none,18,18,Woman,Right,
4,3,1,1.2013339000000087,['n'],0,left,['u'],0,0.8071454999999332,0.1,1,0,none,18,18,Woman,Right,
5,3,1,0.8845408000001953,['c'],1,left,['e'],1,0.4102861999999732,0.1,1,0,none,18,18,Woman,Right,
6,3,1,0.8344706999996561,['n'],1,right,['e'],1,0.47908959999995204,0.2,1,0,none,18,18,Woman,Right,
7,3,1,2.783320900000035,['c'],0,right,['u'],0,0.46717620000026727,0.1,1,0,none,18,18,Woman,Right,
8,3,1,1.000472599999739,['c'],1,left,['e'],1,0.28628610000032495,0.4,1,0,none,18,18,Woman,Right,
9,3,1,0.7694050999998581,['n'],1,right,['e'],1,0.33061140000017986,0.2,1,0,none,18,18,Woman,Right,
10,3,1,0.9173367000003054,['n'],1,right,['e'],1,0.33474729999988995,0.4,1,0,none,18,18,Woman,Right,
11,3,1,0.9997877000000699,['c'],1,left,['e'],1,0.2878117000000202,0.2,1,0,none,18,18,Woman,Right,
12,3,1,1.2517072000000553,['n'],1,right,['u'],0,0.5046876999999768,0.1,0,0,none,18,18,Woman,Right,
13,3,1,0.9516777000003458,['c'],1,left,['e'],1,0.693153500000335,0.2,1,0,none,18,18,Woman,Right,
14,3,1,0.9011928999998418,['c'],1,left,['e'],1,0.2839776000000711,0.1,1,0,none,18,18,Woman,Right,
15,3,1,0.9672405999999683,['n'],1,right,['e'],1,0.35175489999983256,0.2,1,0,none,18,18,Woman,Right,
16,3,1,0.9014607000003707,['c'],1,left,['e'],1,0.3100454999998874,0.4,1,0,none,18,18,Woman,Right,
17,3,1,1.5507700000002842,['n'],0,left,['u'],0,0.48087570000006963,0.2,1,0,none,18,18,Woman,Right,
18,3,1,1.4513129000001754,['c'],1,left,['u'],0,0.7780026000000362,0.2,0,0,none,18,18,Woman,Right,
19,3,1,0.9337067999999817,['c'],0,right,['u'],0,0.2682236999999077,0.1,1,0,none,18,18,Woman,Right,
20,3,1,0.8827528000001621,['n'],1,right,['e'],1,0.2609284000000116,0.4,1,0,none,18,18,Woman,Right,
21,3,1,0.851491200000055,['n'],1,right,['e'],1,0.28631350000023303,0.4,1,0,none,18,18,Woman,Right,
22,3,1,0.9180331000002298,['c'],1,left,['e'],1,0.32463640000014493,0.4,1,0,none,18,18,Woman,Right,
23,3,1,0.9836694999999054,['c'],0,right,['e'],1,0.2788615999998001,0.2,0,0,none,18,18,Woman,Right,
0,4,1,1.0179008000000067,['n'],1,right,['e'],1,2.079023100000086,0.4,1,0,FastAcc,18,18,Woman,Right,
1,4,1,1.1847118000000592,['c'],1,left,['u'],0,0.9588552999998683,0.1,0,0,FastAcc,18,18,Woman,Right,
2,4,1,1.0329332999999679,['n'],0,left,['u'],0,0.6098570999997719,0.1,1,0,FastAcc,18,18,Woman,Right,
3,4,1,0.38466829999970287,['c'],1,left,['u'],0,1.5966217999998662,0.2,0,0,FastAcc,18,18,Woman,Right,
4,4,1,0.6345971000000645,['c'],1,left,['u'],0,0.5337828000001537,0.2,0,0,FastAcc,18,18,Woman,Right,
5,4,1,0.8165373000001637,['c'],1,left,['u'],0,0.5147447999997894,0.2,0,0,FastAcc,18,18,Woman,Right,
6,4,1,0.8005696000000171,['c'],0,right,['u'],0,0.5917045999999573,0.4,1,0,FastAcc,18,18,Woman,Right,
7,4,1,0.4183376999999382,['n'],1,right,['u'],0,0.44209700000010344,0.1,0,0,FastAcc,18,18,Woman,Right,
8,4,1,0.7012148999997407,['c'],1,left,['u'],0,0.49481660000037664,0.2,0,0,FastAcc,18,18,Woman,Right,
9,4,1,0.5671621999999843,['c'],1,left,['e'],1,0.6305260999997699,0.2,1,0,FastAcc,18,18,Woman,Right,
10,4,1,0.8671914999999899,['n'],1,right,['u'],0,0.5248750999999174,0.4,0,0,FastAcc,18,18,Woman,Right,
11,4,1,0.9349384000001919,['c'],0,right,['u'],0,1.0292613999999958,0.1,1,0,FastAcc,18,18,Woman,Right,
12,4,1,0.9513762999999926,['n'],1,right,['u'],0,0.5042450999999346,0.2,0,0,FastAcc,18,18,Woman,Right,
13,4,1,0.9347021999997196,['n'],1,right,['e'],1,0.7533206999996764,0.4,1,0,FastAcc,18,18,Woman,Right,
14,4,1,1.0515493000002607,['n'],1,right,['u'],0,1.9476134999999886,0.2,0,0,FastAcc,18,18,Woman,Right,
15,4,1,0.5012229999997544,['c'],1,left,['e'],1,0.7959952999999587,0.4,1,0,FastAcc,18,18,Woman,Right,
16,4,1,0.6006370000000061,['c'],1,left,['e'],1,0.42244529999970837,0.4,1,0,FastAcc,18,18,Woman,Right,
17,4,1,1.8846392000000378,['c'],1,left,['u'],0,0.7007168000000092,0.1,0,0,FastAcc,18,18,Woman,Right,
18,4,1,0.7175692000000709,['n'],1,right,['u'],0,0.5183139999999185,0.2,0,0,FastAcc,18,18,Woman,Right,
19,4,1,1.2509064999999282,['n'],1,right,['u'],0,0.5300914999997985,0.4,0,0,FastAcc,18,18,Woman,Right,
20,4,1,0.6015716000001703,['c'],1,left,['e'],1,0.6949988999999732,0.2,1,0,FastAcc,18,18,Woman,Right,
21,4,1,0.9849396999998135,['n'],1,right,['e'],1,0.5660325000003468,0.4,1,0,FastAcc,18,18,Woman,Right,
22,4,1,0.7847077999999783,['c'],1,left,['e'],1,0.5622373000001062,0.2,1,0,FastAcc,18,18,Woman,Right,
23,4,1,0.5184448999998494,['c'],0,right,['u'],0,0.7463361000000077,0.1,1,0,FastAcc,18,18,Woman,Right,
24,4,1,0.6511832999999569,['c'],1,left,['e'],1,0.6275058000001081,0.4,1,0,FastAcc,18,18,Woman,Right,
25,4,1,0.7848496000001433,['n'],1,right,['u'],0,0.6057888000000275,0.2,0,0,FastAcc,18,18,Woman,Right,
26,4,1,0.5344733000001725,['c'],0,right,['u'],0,0.450766499999645,0.1,1,0,FastAcc,18,18,Woman,Right,
27,4,1,0.5180495000004157,['c'],1,left,['e'],1,0.4303918999999041,0.4,1,0,FastAcc,18,18,Woman,Right,
28,4,1,0.7672556999996232,['c'],1,left,['e'],1,0.4807280999998511,0.4,1,0,FastAcc,18,18,Woman,Right,
29,4,1,0.6344536999999946,['n'],0,left,['u'],0,0.5182976999999482,0.1,1,0,FastAcc,18,18,Woman,Right,
30,4,1,0.4681251000001794,['c'],0,right,['u'],0,0.9451303000000735,0.2,1,0,FastAcc,18,18,Woman,Right,
31,4,1,0.6680146000003333,['n'],1,right,['e'],1,0.5950541999995949,0.4,1,0,FastAcc,18,18,Woman,Right,
32,4,1,0.6683632999997826,['c'],1,left,['e'],1,0.5783055000001696,0.2,1,0,FastAcc,18,18,Woman,Right,
33,4,1,0.6183455000000322,['n'],1,right,['e'],1,0.5327408999996806,0.4,1,0,FastAcc,18,18,Woman,Right,
34,4,1,0.6843652000002294,['c'],0,right,['e'],1,0.7904517000001761,0.1,0,0,FastAcc,18,18,Woman,Right,
35,4,1,0.5853415999999925,['c'],1,left,['e'],1,0.48213299999997616,0.4,1,0,FastAcc,18,18,Woman,Right,
36,4,1,0.5675951999996869,['n'],0,left,['u'],0,0.5866585000003397,0.1,1,0,FastAcc,18,18,Woman,Right,
37,4,1,0.7347155000002203,['n'],1,right,['e'],1,0.4400186000002577,0.2,1,0,FastAcc,18,18,Woman,Right,
38,4,1,0.6673062999998365,['c'],1,left,['e'],1,0.38312870000027033,0.1,1,0,FastAcc,18,18,Woman,Right,
39,4,1,0.751050899999882,['c'],1,left,['u'],0,0.5632181000000855,0.1,0,0,FastAcc,18,18,Woman,Right,
40,4,1,0.8170428999997057,['n'],1,right,['e'],1,0.7506078999999772,0.4,1,0,FastAcc,18,18,Woman,Right,
41,4,1,0.7836820999996235,['c'],1,left,['u'],0,0.6112496000000647,0.4,0,0,FastAcc,18,18,Woman,Right,
42,4,1,0.8350458999998409,['n'],0,left,['u'],0,0.6522881999999299,0.1,1,0,FastAcc,18,18,Woman,Right,
43,4,1,0.6509556999999404,['n'],1,right,['u'],0,0.5225964999999633,0.4,0,0,FastAcc,18,18,Woman,Right,
44,4,1,0.6174126999999316,['c'],1,left,['u'],0,0.49545439999974406,0.2,0,0,FastAcc,18,18,Woman,Right,
45,4,1,0.6333879999997407,['n'],1,right,['e'],1,0.8691362999998091,0.2,1,0,FastAcc,18,18,Woman,Right,
46,4,1,0.4345338000002812,['c'],0,right,['u'],0,0.8986457000000883,0.1,1,0,FastAcc,18,18,Woman,Right,
47,4,1,0.4170806999995875,['c'],0,right,['u'],0,0.6724049999997987,0.1,1,0,FastAcc,18,18,Woman,Right,
48,4,1,0.6341292000001886,['n'],1,right,['e'],1,0.4945634999999129,0.2,1,0,FastAcc,18,18,Woman,Right,
49,4,1,0.7197555000002467,['c'],1,left,['e'],1,0.6730477999999493,0.4,1,0,FastAcc,18,18,Woman,Right,
50,4,1,0.6005841000001055,['n'],0,left,['e'],1,0.3525472000001173,0.1,0,0,FastAcc,18,18,Woman,Right,
51,4,1,0.8350721000001613,['n'],1,right,['u'],0,4.163538599999811,0.1,0,0,FastAcc,18,18,Woman,Right,
52,4,1,0.4679569999998421,['c'],1,left,['e'],1,0.5890254999999343,0.2,1,0,FastAcc,18,18,Woman,Right,
53,4,1,0.7178195999999843,['n'],0,left,['u'],0,0.41132219999963127,0.1,1,0,FastAcc,18,18,Woman,Right,
54,4,1,0.5517549000001054,['n'],1,right,['e'],1,0.31144429999994827,0.4,1,0,FastAcc,18,18,Woman,Right,
55,4,1,0.46747210000012274,['n'],0,left,['u'],0,0.4110974999998689,0.1,1,0,FastAcc,18,18,Woman,Right,
56,4,1,0.5006845999996585,['n'],0,left,['u'],0,0.3131583999997929,0.1,1,0,FastAcc,18,18,Woman,Right,
57,4,1,0.5012090999998691,['c'],0,right,['u'],0,0.10711300000002666,0.2,1,0,FastAcc,18,18,Woman,Right,
58,4,1,0.6173890000000029,['n'],1,right,['u'],0,0.4804529000002731,0.2,0,0,FastAcc,18,18,Woman,Right,
59,4,1,0.43273150000004534,['n'],1,right,['e'],1,0.303385800000342,0.4,1,0,FastAcc,18,18,Woman,Right,
0,5,1,0.3676471999997375,['c'],0,right,['u'],0,0.24052110000002358,0.2,1,0,FastFast,18,18,Woman,Right,
1,5,1,0.7349365000000034,['n'],0,left,['u'],0,0.22004950000018653,0.4,1,0,FastFast,18,18,Woman,Right,
2,5,1,0.10113499999988562,['c'],1,left,['u'],0,0.2575922000000901,0.4,0,0,FastFast,18,18,Woman,Right,
3,5,1,0.38468200000033903,['c'],0,right,['u'],0,0.15439280000009603,0.4,1,0,FastFast,18,18,Woman,Right,
4,5,1,0.3177541999998539,['n'],0,left,['e'],1,0.21796450000010736,0.1,0,0,FastFast,18,18,Woman,Right,
5,5,1,0.3518238999999994,['c'],0,right,['u'],0,0.35750089999964985,0.1,1,0,FastFast,18,18,Woman,Right,
6,5,1,0.3012778000002072,['n'],0,left,['e'],1,0.10974339999984295,0.2,0,0,FastFast,18,18,Woman,Right,
7,5,1,0.3007612000001245,['n'],0,left,['e'],1,0.12813939999978174,0.1,0,0,FastFast,18,18,Woman,Right,
8,5,1,0.5187184000001253,['c'],0,right,['u'],0,0.1693503999999848,0.1,1,0,FastFast,18,18,Woman,Right,
9,5,1,0.35135980000040945,['n'],0,left,['e'],1,0.246900099999948,0.4,0,0,FastFast,18,18,Woman,Right,
10,5,1,0.3501085999996576,['c'],1,left,['u'],0,0.3212908000000425,0.1,0,0,FastFast,18,18,Woman,Right,
11,5,1,0.4512561999999889,['c'],1,left,['u'],0,0.452341400000023,0.1,0,0,FastFast,18,18,Woman,Right,
12,5,1,0.6346284999999625,['n'],1,right,['e'],1,0.4762210999997478,0.4,1,0,FastFast,18,18,Woman,Right,
13,5,1,0.3161875999999211,['c'],1,left,['u'],0,0.2395676999999523,0.1,0,0,FastFast,18,18,Woman,Right,
14,5,1,0.30117769999969823,['c'],1,left,['u'],0,0.37915350000002945,0.2,0,0,FastFast,18,18,Woman,Right,
15,5,1,0.31808460000002015,['n'],0,left,['e'],1,0.32121490000008635,0.1,0,0,FastFast,18,18,Woman,Right,
16,5,1,0.31798280000020895,['c'],0,right,['u'],0,0.37808199999972203,0.4,1,0,FastFast,18,18,Woman,Right,
17,5,1,0.05171130000007906,['n'],0,left,['e'],1,0.3310625000003711,0.4,0,0,FastFast,18,18,Woman,Right,
18,5,1,0.2517702999998619,['n'],1,right,['e'],1,0.6779218000001492,0.2,1,0,FastFast,18,18,Woman,Right,
19,5,1,0.4681371000001491,['c'],1,left,['u'],0,0.29892459999973653,0.1,0,0,FastFast,18,18,Woman,Right,
20,5,1,0.41747669999995196,['c'],0,right,['u'],0,0.3845168999996531,0.2,1,0,FastFast,18,18,Woman,Right,
21,5,1,0.15132040000025881,['n'],1,right,['e'],1,0.25341549999984636,0.2,1,0,FastFast,18,18,Woman,Right,
22,5,1,0.21663929999976972,['c'],1,left,['u'],0,0.25298560000010184,0.4,0,0,FastFast,18,18,Woman,Right,
23,5,1,1.1680872000001727,['n'],1,right,['e'],1,0.15055849999998827,0.4,1,0,FastFast,18,18,Woman,Right,
24,5,1,0.5678978999999345,['c'],0,right,['u'],0,0.14010610000013912,0.2,1,0,FastFast,18,18,Woman,Right,
25,5,1,0.3347592000000077,['n'],1,right,['e'],1,0.2676561000002948,0.1,1,0,FastFast,18,18,Woman,Right,
26,5,1,0.4177188000003298,['n'],0,left,['u'],0,0.5787457000001268,0.4,1,0,FastFast,18,18,Woman,Right,
27,5,1,0.3513258000002679,['n'],1,right,['e'],1,0.38365239999984624,0.2,1,0,FastFast,18,18,Woman,Right,
28,5,1,0.2842470000000503,['n'],1,right,['u'],0,0.13530209999998988,0.2,0,0,FastFast,18,18,Woman,Right,
29,5,1,0.3183764999998857,['c'],0,right,['e'],1,0.16724260000000868,0.1,0,0,FastFast,18,18,Woman,Right,
30,5,1,0.33447819999992134,['n'],0,left,['u'],0,0.8536712999998599,0.4,1,0,FastFast,18,18,Woman,Right,
31,5,1,0.41604089999964344,['n'],0,left,['e'],1,0.43841710000015155,0.2,0,0,FastFast,18,18,Woman,Right,
32,5,1,0.8023763000001054,['n'],0,left,['u'],0,0.5821693000002597,0.1,1,0,FastFast,18,18,Woman,Right,
33,5,1,0.25135199999976976,['c'],0,right,['u'],0,0.18310410000003685,0.4,1,0,FastFast,18,18,Woman,Right,
34,5,1,0.4329574999997021,['n'],1,right,['e'],1,0.43247240000027887,0.1,1,0,FastFast,18,18,Woman,Right,
35,5,1,0.3176865000000362,['c'],1,left,['u'],0,0.14906340000015916,0.2,0,0,FastFast,18,18,Woman,Right,
36,5,1,0.06740940000008777,['c'],0,right,['u'],0,0.22229969999989407,0.1,1,0,FastFast,18,18,Woman,Right,
37,5,1,0.9351010999998834,['c'],1,left,['u'],0,1.2186608000001797,0.4,0,0,FastFast,18,18,Woman,Right,
38,5,1,0.30161909999969794,['n'],0,left,['u'],0,0.7923743999999715,0.4,1,0,FastFast,18,18,Woman,Right,
39,5,1,0.3504221999996844,['n'],0,left,['e'],1,0.4788042000000132,0.1,0,0,FastFast,18,18,Woman,Right,
40,5,1,0.3328638999996656,['c'],0,right,['u'],0,0.17632039999989502,0.2,1,0,FastFast,18,18,Woman,Right,
41,5,1,0.35109430000011344,['c'],0,right,['u'],0,0.845205199999782,0.2,1,0,FastFast,18,18,Woman,Right,
42,5,1,0.30062150000003385,['n'],1,right,['e'],1,0.25726940000004106,0.2,1,0,FastFast,18,18,Woman,Right,
43,5,1,0.35168449999991935,['c'],1,left,['u'],0,0.235664799999995,0.4,0,0,FastFast,18,18,Woman,Right,
44,5,1,0.33495010000024195,['n'],0,left,['e'],1,0.21636420000004364,0.2,0,0,FastFast,18,18,Woman,Right,
45,5,1,0.13439139999991312,['c'],0,right,['u'],0,0.20334030000003622,0.1,1,0,FastFast,18,18,Woman,Right,
46,5,1,1.2506064999997761,['c'],1,left,['u'],0,0.24358970000002955,0.4,0,0,FastFast,18,18,Woman,Right,
47,5,1,0.2986596999999165,['n'],1,right,['e'],1,0.09735030000001643,0.1,1,0,FastFast,18,18,Woman,Right,
48,5,1,0.2847366000000875,['c'],0,right,['u'],0,0.14736620000030598,0.1,1,0,FastFast,18,18,Woman,Right,
49,5,1,0.5006859999998596,['c'],0,right,['u'],0,0.7643431999999848,0.4,1,0,FastFast,18,18,Woman,Right,
50,5,1,0.40074159999994663,['c'],1,left,['e'],1,0.367203199999949,0.2,1,0,FastFast,18,18,Woman,Right,
51,5,1,0.3513068999995994,['n'],1,right,['u'],0,0.325044500000331,0.1,0,0,FastFast,18,18,Woman,Right,
52,5,1,0.3179202000001169,['c'],0,right,['e'],1,0.18963310000026468,0.2,0,0,FastFast,18,18,Woman,Right,
53,5,1,0.25068419999979596,['c'],1,left,['u'],0,0.20675299999993513,0.2,0,0,FastFast,18,18,Woman,Right,
54,5,1,0.1353676999997333,['n'],0,left,['e'],1,0.29144929999984015,0.4,0,0,FastFast,18,18,Woman,Right,
55,5,1,0.06865040000002409,['c'],1,left,['u'],0,0.3273580000000038,0.4,0,0,FastFast,18,18,Woman,Right,
56,5,1,0.3848323000001983,['c'],0,right,['u'],0,0.2377983999999742,0.1,1,0,FastFast,18,18,Woman,Right,
57,5,1,0.26814180000019405,['n'],1,right,['e'],1,0.2040873000000829,0.4,1,0,FastFast,18,18,Woman,Right,
58,5,1,0.5013217999999142,['c'],1,left,['e'],1,0.38634529999990264,0.2,1,0,FastFast,18,18,Woman,Right,
59,5,1,0.5180740000000696,['n'],1,right,['e'],1,0.16080749999991895,0.2,1,0,FastFast,18,18,Woman,Right,
0,6,1,0.6847154000001865,['c'],1,left,['e'],1,1.0105121999999938,0.2,1,0,AccFast,18,18,Woman,Right,
1,6,1,0.7172492999998212,['c'],1,left,['e'],1,0.14415889999963838,0.4,1,0,AccFast,18,18,Woman,Right,
2,6,1,0.36653160000014395,['n'],1,right,['e'],1,0.25508170000011887,0.4,1,0,AccFast,18,18,Woman,Right,
3,6,1,0.6512357999999949,['c'],1,left,['e'],1,0.26872000000003027,0.4,1,0,AccFast,18,18,Woman,Right,
4,6,1,0.5340895999997883,['n'],1,right,['e'],1,0.33471899999995003,0.4,1,0,AccFast,18,18,Woman,Right,
5,6,1,0.4831427000003714,['c'],1,left,['e'],1,0.28974749999997584,0.4,1,0,AccFast,18,18,Woman,Right,
6,6,1,0.665882899999815,['c'],1,left,['e'],1,0.25403289999985645,0.4,1,0,AccFast,18,18,Woman,Right,
7,6,1,0.43559899999991103,['n'],1,right,['e'],1,0.27548879999994824,0.2,1,0,AccFast,18,18,Woman,Right,
8,6,1,0.8009956000000784,['n'],1,right,['u'],0,0.42736109999987093,0.2,0,0,AccFast,18,18,Woman,Right,
9,6,1,0.6512031000002025,['n'],1,right,['e'],1,0.1947688999998718,0.4,1,0,AccFast,18,18,Woman,Right,
10,6,1,0.4335659999997006,['c'],0,right,['e'],1,0.23712460000024294,0.2,0,0,AccFast,18,18,Woman,Right,
11,6,1,0.4008373000001484,['c'],1,left,['e'],1,0.3251417000001311,0.1,1,0,AccFast,18,18,Woman,Right,
12,6,1,1.0345769999998993,['n'],0,left,['u'],0,0.36959520000027624,0.1,1,0,AccFast,18,18,Woman,Right,
13,6,1,0.8335268999999244,['c'],1,left,['e'],1,0.14849950000007084,0.2,1,0,AccFast,18,18,Woman,Right,
14,6,1,0.3501267999999982,['n'],1,right,['e'],1,0.06667270000025383,0.2,1,0,AccFast,18,18,Woman,Right,
15,6,1,0.3326480000000629,['c'],0,right,['u'],0,0.13379899999972622,0.2,1,0,AccFast,18,18,Woman,Right,
16,6,1,0.33381839999992735,['n'],0,left,['e'],1,0.2772173999996994,0.4,0,0,AccFast,18,18,Woman,Right,
17,6,1,0.535592799999904,['n'],1,right,['e'],1,0.19816279999986364,0.4,1,0,AccFast,18,18,Woman,Right,
18,6,1,0.46635650000007445,['n'],1,right,['e'],1,0.2538523000002897,0.1,1,0,AccFast,18,18,Woman,Right,
19,6,1,0.4844223999998576,['c'],0,right,['e'],1,0.24279589999969176,0.2,0,0,AccFast,18,18,Woman,Right,
20,6,1,0.46782189999976254,['c'],1,left,['e'],1,0.3928131999996367,0.1,1,0,AccFast,18,18,Woman,Right,
21,6,1,0.2843660000003183,['n'],0,left,['e'],1,0.2564634999998816,0.2,0,0,AccFast,18,18,Woman,Right,
22,6,1,0.8169824999999946,['n'],1,right,['e'],1,0.24806390000003375,0.1,1,0,AccFast,18,18,Woman,Right,
23,6,1,0.38429360000009183,['c'],1,left,['u'],0,0.7368913999998767,0.1,0,0,AccFast,18,18,Woman,Right,
24,6,1,0.5841438999996171,['n'],1,right,['e'],1,0.12645470000006753,0.2,1,0,AccFast,18,18,Woman,Right,
25,6,1,0.6846086000000469,['n'],1,right,['e'],1,0.2886383999998543,0.2,1,0,AccFast,18,18,Woman,Right,
26,6,1,0.8840173999997205,['n'],1,right,['e'],1,0.500281200000245,0.1,1,0,AccFast,18,18,Woman,Right,
27,6,1,0.7679548000000977,['n'],0,left,['u'],0,0.29186140000001615,0.1,1,0,AccFast,18,18,Woman,Right,
28,6,1,0.3515799000001607,['n'],1,right,['u'],0,0.3647649000004094,0.2,0,0,AccFast,18,18,Woman,Right,
29,6,1,0.43378700000039316,['n'],1,right,['u'],0,0.33508359999996173,0.4,0,0,AccFast,18,18,Woman,Right,
30,6,1,0.5678732000001219,['n'],1,right,['u'],0,0.39805770000020857,0.1,0,0,AccFast,18,18,Woman,Right,
31,6,1,0.5347717999998167,['n'],1,right,['u'],0,0.2022797999998147,0.1,0,0,AccFast,18,18,Woman,Right,
32,6,1,0.7673789000000397,['n'],0,left,['u'],0,0.3273865000001024,0.1,1,0,AccFast,18,18,Woman,Right,
33,6,1,0.5350444000000607,['c'],0,right,['u'],0,0.11906910000016069,0.2,1,0,AccFast,18,18,Woman,Right,
34,6,1,0.6846184999999423,['c'],1,left,['e'],1,0.26449090000005526,0.1,1,0,AccFast,18,18,Woman,Right,
35,6,1,0.38345829999980197,['n'],1,right,['e'],1,0.5933434000003217,0.2,1,0,AccFast,18,18,Woman,Right,
36,6,1,0.7342677999999978,['n'],0,left,['e'],1,0.17420959999981278,0.1,0,0,AccFast,18,18,Woman,Right,
37,6,1,3.4010025000002315,['n'],0,left,['u'],0,0.5462500000003274,0.4,1,0,AccFast,18,18,Woman,Right,
38,6,1,0.6675788000002285,['n'],0,left,['u'],0,0.17977790000031746,0.2,1,0,AccFast,18,18,Woman,Right,
39,6,1,1.1510064999997667,['c'],1,left,['e'],1,0.14468390000001818,0.2,1,0,AccFast,18,18,Woman,Right,
40,6,1,0.5678988999998182,['n'],0,left,['u'],0,0.518995900000391,0.4,1,0,AccFast,18,18,Woman,Right,
41,6,1,0.5167592999996486,['c'],1,left,['e'],1,0.30466389999992316,0.4,1,0,AccFast,18,18,Woman,Right,
42,6,1,0.6004424999996445,['c'],1,left,['e'],1,0.15823829999999361,0.1,1,0,AccFast,18,18,Woman,Right,
43,6,1,0.6834645000003547,['c'],0,right,['u'],0,0.38320599999997285,0.2,1,0,AccFast,18,18,Woman,Right,
44,6,1,0.43340970000008383,['n'],0,left,['u'],0,0.17688559999987774,0.2,1,0,AccFast,18,18,Woman,Right,
45,6,1,0.3339557999997851,['c'],0,right,['u'],0,0.15917010000021037,0.4,1,0,AccFast,18,18,Woman,Right,
46,6,1,0.3517832000002272,['n'],1,right,['u'],0,0.14119380000011006,0.4,0,0,AccFast,18,18,Woman,Right,
47,6,1,0.6504055000000335,['c'],1,left,['e'],1,0.4320843000000423,0.4,1,0,AccFast,18,18,Woman,Right,
48,6,1,0.4499794000003021,['n'],1,right,['e'],1,0.4789792999999918,0.1,1,0,AccFast,18,18,Woman,Right,
49,6,1,0.6337576000000809,['n'],1,right,['e'],1,0.43713800000023184,0.2,1,0,AccFast,18,18,Woman,Right,
50,6,1,0.46826310000005833,['c'],0,right,['e'],1,0.2749598000000333,0.1,0,0,AccFast,18,18,Woman,Right,
51,6,1,0.3325405000000501,['n'],1,right,['e'],1,0.1261426000000938,0.1,1,0,AccFast,18,18,Woman,Right,
52,6,1,0.7348416999998335,['c'],1,left,['e'],1,0.3172805999997763,0.4,1,0,AccFast,18,18,Woman,Right,
53,6,1,0.5179175999996914,['n'],0,left,['e'],1,0.4782652000003509,0.4,0,0,AccFast,18,18,Woman,Right,
54,6,1,0.6011257000000114,['n'],0,left,['u'],0,0.5171355000002222,0.1,1,0,AccFast,18,18,Woman,Right,
55,6,1,0.5515003000000434,['n'],1,right,['e'],1,0.49321400000008,0.4,1,0,AccFast,18,18,Woman,Right,
56,6,1,0.5846483999998782,['c'],1,left,['e'],1,0.26046560000031604,0.2,1,0,AccFast,18,18,Woman,Right,
57,6,1,0.6844448000001648,['n'],0,left,['e'],1,0.17743780000000697,0.1,0,0,AccFast,18,18,Woman,Right,
58,6,1,0.7677133000001959,['c'],1,left,['e'],1,0.15991329999997106,0.4,1,0,AccFast,18,18,Woman,Right,
59,6,1,0.4512915000000248,['n'],1,right,['e'],1,0.12086760000011054,0.1,1,0,AccFast,18,18,Woman,Right,
0,7,1,1.0343650999998317,['n'],1,right,['u'],0,0.5763817000001836,0.2,0,0,AccAcc,18,18,Woman,Right,
1,7,1,0.6343842000001132,['n'],1,right,['e'],1,0.4024905999999646,0.4,1,0,AccAcc,18,18,Woman,Right,
2,7,1,0.551547600000049,['n'],1,right,['e'],1,0.2706680999999662,0.4,1,0,AccAcc,18,18,Woman,Right,
3,7,1,0.801148000000012,['c'],1,left,['e'],1,0.1184251999998196,0.4,1,0,AccAcc,18,18,Woman,Right,
4,7,1,0.3684230000003481,['c'],1,left,['e'],1,0.1651068999999552,0.2,1,0,AccAcc,18,18,Woman,Right,
5,7,1,0.7325472000002264,['c'],0,right,['u'],0,0.2761776000002101,0.1,1,0,AccAcc,18,18,Woman,Right,
6,7,1,0.6178080999998201,['c'],1,left,['e'],1,0.25863459999982297,0.2,1,0,AccAcc,18,18,Woman,Right,
7,7,1,0.41846860000032393,['n'],1,right,['e'],1,0.2979623999999603,0.4,1,0,AccAcc,18,18,Woman,Right,
8,7,1,0.8666966000000684,['n'],1,right,['e'],1,0.34998840000025666,0.1,1,0,AccAcc,18,18,Woman,Right,
9,7,1,0.7013612999999168,['n'],0,left,['e'],1,0.23004360000004453,0.2,0,0,AccAcc,18,18,Woman,Right,
10,7,1,0.6668239999999059,['n'],0,left,['e'],1,0.26079589999972086,0.4,0,0,AccAcc,18,18,Woman,Right,
11,7,1,0.9846833000001425,['c'],1,left,['u'],0,0.14923050000015792,0.2,0,0,AccAcc,18,18,Woman,Right,
12,7,1,0.30143850000013117,['n'],0,left,['e'],1,0.1493561000002046,0.2,0,0,AccAcc,18,18,Woman,Right,
13,7,1,0.2845135000002301,['n'],0,left,['u'],0,0.21413590000020122,0.4,1,0,AccAcc,18,18,Woman,Right,
14,7,1,0.35157059999983176,['c'],0,right,['u'],0,0.09812779999992927,0.4,1,0,AccAcc,18,18,Woman,Right,
15,7,1,0.8010621999997056,['n'],1,right,['e'],1,0.5280674999999064,0.1,1,0,AccAcc,18,18,Woman,Right,
16,7,1,0.7174187000000529,['n'],0,left,['u'],0,0.3857818999999836,0.2,1,0,AccAcc,18,18,Woman,Right,
17,7,1,0.8513622000000396,['n'],1,right,['u'],0,0.4499878000001445,0.4,0,0,AccAcc,18,18,Woman,Right,
18,7,1,0.4177844999999252,['n'],0,left,['u'],0,0.25737070000013773,0.1,1,0,AccAcc,18,18,Woman,Right,
19,7,1,0.9342869000001883,['c'],1,left,['e'],1,0.26047410000001037,0.4,1,0,AccAcc,18,18,Woman,Right,
20,7,1,1.2330610999997589,['n'],1,right,['u'],0,0.5402551000001949,0.1,0,0,AccAcc,18,18,Woman,Right,
21,7,1,0.6005416000002697,['n'],1,right,['e'],1,0.41635290000021996,0.4,1,0,AccAcc,18,18,Woman,Right,
22,7,1,0.6009007999996356,['n'],0,left,['e'],1,0.31438200000002325,0.1,0,0,AccAcc,18,18,Woman,Right,
23,7,1,0.9178529000000708,['n'],1,right,['u'],0,0.666837800000394,0.4,0,0,AccAcc,18,18,Woman,Right,
24,7,1,0.5176744000000326,['n'],1,right,['u'],0,0.5898141000002397,0.1,0,0,AccAcc,18,18,Woman,Right,
25,7,1,0.6000656999999592,['c'],1,left,['e'],1,0.4654785000002448,0.4,1,0,AccAcc,18,18,Woman,Right,
26,7,1,0.8000040000001718,['c'],1,left,['e'],1,0.3692982000002303,0.4,1,0,AccAcc,18,18,Woman,Right,
27,7,1,0.7178731999997581,['c'],1,left,['e'],1,0.4078145999997105,0.2,1,0,AccAcc,18,18,Woman,Right,
28,7,1,0.6672751999999491,['c'],1,left,['e'],1,0.543003900000258,0.1,1,0,AccAcc,18,18,Woman,Right,
29,7,1,1.334627300000193,['c'],1,left,['e'],1,0.13524180000013075,0.1,1,0,AccAcc,18,18,Woman,Right,
30,7,1,0.9996996999998373,['n'],1,right,['u'],0,0.6206938000000264,0.1,0,0,AccAcc,18,18,Woman,Right,
31,7,1,0.7677447000000939,['n'],1,right,['u'],0,0.32676179999998567,0.2,0,0,AccAcc,18,18,Woman,Right,
32,7,1,0.5503481000000647,['n'],1,right,['u'],0,0.15075979999983247,0.4,0,0,AccAcc,18,18,Woman,Right,
33,7,1,0.9005956000000879,['c'],1,left,['u'],0,0.8467212999998992,0.1,0,0,AccAcc,18,18,Woman,Right,
34,7,1,0.7343093999998018,['n'],1,right,['u'],0,0.4336054000000331,0.2,0,0,AccAcc,18,18,Woman,Right,
35,7,1,0.584389199999805,['n'],0,left,['e'],1,0.39514109999981883,0.2,0,0,AccAcc,18,18,Woman,Right,
36,7,1,0.617039300000215,['n'],0,left,['u'],0,0.19725329999982932,0.1,1,0,AccAcc,18,18,Woman,Right,
37,7,1,0.6179800999998406,['n'],1,right,['e'],1,0.5823120999998537,0.4,1,0,AccAcc,18,18,Woman,Right,
38,7,1,0.7684027999998762,['c'],1,left,['e'],1,0.19528989999980695,0.1,1,0,AccAcc,18,18,Woman,Right,
39,7,1,0.618049599999722,['n'],1,right,['u'],0,0.19746919999988677,0.1,0,0,AccAcc,18,18,Woman,Right,
40,7,1,0.6847946999996566,['n'],1,right,['e'],1,0.2916976000001341,0.4,1,0,AccAcc,18,18,Woman,Right,
41,7,1,0.9174591999999393,['n'],1,right,['e'],1,0.32606110000006083,0.2,1,0,AccAcc,18,18,Woman,Right,
42,7,1,0.83457240000007,['c'],0,right,['e'],1,0.09039340000026641,0.2,0,0,AccAcc,18,18,Woman,Right,
43,7,1,0.9001438999998754,['n'],0,left,['u'],0,0.1341906000002382,0.1,1,0,AccAcc,18,18,Woman,Right,
44,7,1,0.7693275999999969,['n'],1,right,['e'],1,0.3395884000001388,0.4,1,0,AccAcc,18,18,Woman,Right,
45,7,1,0.6670930000000226,['c'],1,left,['e'],1,0.2229008999997859,0.2,1,0,AccAcc,18,18,Woman,Right,
46,7,1,0.8340426999998272,['c'],0,right,['u'],0,0.5820985000000292,0.2,1,0,AccAcc,18,18,Woman,Right,
47,7,1,0.9496968000003108,['n'],0,left,['u'],0,0.331781900000351,0.1,1,0,AccAcc,18,18,Woman,Right,
48,7,1,0.7011874999998327,['c'],1,left,['u'],0,0.18007280000028913,0.2,0,0,AccAcc,18,18,Woman,Right,
49,7,1,0.5505530999998882,['n'],1,right,['u'],0,0.15329930000007153,0.2,0,0,AccAcc,18,18,Woman,Right,
50,7,1,0.6850365999998758,['c'],0,right,['u'],0,0.1547931999998582,0.1,1,0,AccAcc,18,18,Woman,Right,
51,7,1,0.56702069999983,['n'],1,right,['u'],0,0.19214169999986552,0.1,0,0,AccAcc,18,18,Woman,Right,
52,7,1,0.40117129999998724,['n'],0,left,['u'],0,0.13836029999993116,0.2,1,0,AccAcc,18,18,Woman,Right,
53,7,1,0.6346287000001212,['c'],0,right,['u'],0,0.22192619999987073,0.1,1,0,AccAcc,18,18,Woman,Right,
54,7,1,0.4178236000002471,['c'],1,left,['u'],0,0.19889109999985521,0.2,0,0,AccAcc,18,18,Woman,Right,
55,7,1,0.4009334000002127,['c'],0,right,['u'],0,0.2251773999996658,0.4,1,0,AccAcc,18,18,Woman,Right,
56,7,1,1.0673553999999967,['c'],1,left,['u'],0,0.016301299999668117,0.2,0,0,AccAcc,18,18,Woman,Right,
57,7,1,0.6342909999998483,['c'],1,left,['e'],1,1.9923356000003878,0.4,1,0,AccAcc,18,18,Woman,Right,
58,7,1,0.5349144000001615,['c'],1,left,['u'],0,0.3900416999999834,0.1,0,0,AccAcc,18,18,Woman,Right,
59,7,1,0.6005242999999609,['n'],1,right,['e'],1,0.28938379999999597,0.4,1,0,AccAcc,18,18,Woman,Right,
0,8,1,1.0004205999998703,['n'],1,right,['e'],1,0.8123829000001024,0.2,1,0,FastAcc,18,18,Woman,Right,
1,8,1,0.6680100999997194,['c'],0,right,['e'],1,0.46760970000013913,0.1,0,0,FastAcc,18,18,Woman,Right,
2,8,1,0.8835613999999623,['n'],1,right,['u'],0,0.2556331000000682,0.1,0,0,FastAcc,18,18,Woman,Right,
3,8,1,0.6347207000003436,['c'],1,left,['e'],1,0.22243239999988873,0.2,1,0,FastAcc,18,18,Woman,Right,
4,8,1,0.9014950000000681,['n'],0,left,['u'],0,0.3240795000001526,0.1,1,0,FastAcc,18,18,Woman,Right,
5,8,1,0.801720600000408,['c'],0,right,['u'],0,0.8740017999998599,0.1,1,0,FastAcc,18,18,Woman,Right,
6,8,1,1.0821203000000423,['c'],1,left,['e'],1,0.07820619999984046,0.4,1,0,FastAcc,18,18,Woman,Right,
7,8,1,0.9509972000000744,['n'],1,right,['u'],0,0.1509352999996736,0.4,0,0,FastAcc,18,18,Woman,Right,
8,8,1,0.8671623999998701,['c'],0,right,['e'],1,0.08065440000018498,0.2,0,0,FastAcc,18,18,Woman,Right,
9,8,1,0.7348364999998012,['n'],0,left,['u'],0,1.6981541000000107,0.4,1,0,FastAcc,18,18,Woman,Right,
10,8,1,0.8011992000001555,['n'],1,right,['u'],0,0.32078950000004625,0.1,0,0,FastAcc,18,18,Woman,Right,
11,8,1,0.3514709999999468,['c'],0,right,['e'],1,0.20061840000016673,0.1,0,0,FastAcc,18,18,Woman,Right,
12,8,1,0.35096870000006675,['n'],1,right,"['u', 'e']",0,0.3410966000001281,0.1,0,0,FastAcc,18,18,Woman,Right,
13,8,1,0.5677607999996326,['n'],1,right,['u'],0,0.2588839000000007,0.4,0,0,FastAcc,18,18,Woman,Right,
14,8,1,0.3682792999998128,['c'],0,right,['u'],0,0.14044620000004215,0.4,1,0,FastAcc,18,18,Woman,Right,
15,8,1,0.4010213000001386,['n'],1,right,['e'],1,0.473159200000282,0.4,1,0,FastAcc,18,18,Woman,Right,
16,8,1,0.8511235000000852,['n'],1,right,['e'],1,0.406934099999944,0.4,1,0,FastAcc,18,18,Woman,Right,
17,8,1,0.6167387999998937,['n'],1,right,['e'],1,0.35226799999963987,0.2,1,0,FastAcc,18,18,Woman,Right,
18,8,1,0.46699679999983346,['c'],1,left,['u'],0,0.3701829000001453,0.1,0,0,FastAcc,18,18,Woman,Right,
19,8,1,0.6014832999999271,['n'],1,right,['e'],1,0.3015101999999388,0.2,1,0,FastAcc,18,18,Woman,Right,
20,8,1,0.5857690999996521,['n'],1,right,['e'],1,0.4293518999998014,0.1,1,0,FastAcc,18,18,Woman,Right,
21,8,1,0.6011098000003585,['c'],1,left,['u'],0,0.27736559999993915,0.1,0,0,FastAcc,18,18,Woman,Right,
22,8,1,0.2684297000000697,['n'],1,right,['e'],1,0.16231620000007752,0.2,1,0,FastAcc,18,18,Woman,Right,
23,8,1,0.28463090000013835,['c'],1,left,['u'],0,0.17882559999998193,0.2,0,0,FastAcc,18,18,Woman,Right,
24,8,1,0.2514461000000665,['c'],0,right,['u'],0,0.19591669999999795,0.2,1,0,FastAcc,18,18,Woman,Right,
25,8,1,0.2683841000002758,['c'],0,right,['u'],0,0.4189049999999952,0.2,1,0,FastAcc,18,18,Woman,Right,
26,8,1,0.40046510000001945,['c'],0,right,['u'],0,0.3406369999997878,0.2,1,0,FastAcc,18,18,Woman,Right,
27,8,1,0.2996805000002496,['n'],1,right,['e'],1,0.22239230000013777,0.2,1,0,FastAcc,18,18,Woman,Right,
28,8,1,0.41812830000026224,['c'],1,left,['u'],0,0.422649999999976,0.2,0,0,FastAcc,18,18,Woman,Right,
29,8,1,0.48367499999994834,['n'],1,right,['e'],1,0.3406518000001597,0.1,1,0,FastAcc,18,18,Woman,Right,
30,8,1,0.4683290000002671,['c'],1,left,['e'],1,0.3428954999999405,0.4,1,0,FastAcc,18,18,Woman,Right,
31,8,1,0.7516727999995965,['c'],1,left,['e'],1,0.15834739999991143,0.4,1,0,FastAcc,18,18,Woman,Right,
32,8,1,0.45046400000001086,['c'],1,left,['e'],1,0.08905879999974786,0.4,1,0,FastAcc,18,18,Woman,Right,
33,8,1,0.5828334000002542,['n'],1,right,['e'],1,0.20917919999965306,0.4,1,0,FastAcc,18,18,Woman,Right,
34,8,1,0.5006167999999889,['c'],1,left,['e'],1,0.13405119999970339,0.1,1,0,FastAcc,18,18,Woman,Right,
35,8,1,0.7513471000002028,['c'],1,left,['e'],1,0.10097459999997227,0.4,1,0,FastAcc,18,18,Woman,Right,
36,8,1,0.8842590000003838,['c'],1,left,['e'],1,0.11178719999998066,0.2,1,0,FastAcc,18,18,Woman,Right,
37,8,1,0.651402699999835,['c'],1,left,['e'],1,0.13131550000025527,0.4,1,0,FastAcc,18,18,Woman,Right,
38,8,1,0.8667233999999553,['c'],1,left,['e'],1,0.14239099999986138,0.4,1,0,FastAcc,18,18,Woman,Right,
39,8,1,0.7675939999999173,['c'],1,left,['e'],1,0.20379380000031233,0.2,1,0,FastAcc,18,18,Woman,Right,
40,8,1,0.9837579999998525,['n'],0,left,['e'],1,0.1591548999999759,0.4,0,0,FastAcc,18,18,Woman,Right,
41,8,1,0.7516326999998455,['n'],0,left,['u'],0,0.15737050000007002,0.1,1,0,FastAcc,18,18,Woman,Right,
42,8,1,1.0338298000001487,['c'],1,left,['u'],0,0.25584299999991345,0.4,0,0,FastAcc,18,18,Woman,Right,
43,8,1,0.7016568999997617,['n'],0,left,['e'],1,0.17219490000024962,0.1,0,0,FastAcc,18,18,Woman,Right,
44,8,1,0.5017094999998335,['c'],0,right,['e'],1,0.16391459999977087,0.2,0,0,FastAcc,18,18,Woman,Right,
45,8,1,0.30069460000004256,['n'],0,left,['u'],0,0.11532450000004246,0.1,1,0,FastAcc,18,18,Woman,Right,
46,8,1,0.3348355999996784,['c'],1,left,['u'],0,0.06760660000009011,0.2,0,0,FastAcc,18,18,Woman,Right,
47,8,1,0.3499120999999832,['n'],0,left,['u'],0,0.10183969999980036,0.2,1,0,FastAcc,18,18,Woman,Right,
48,8,1,0.551443300000301,['n'],1,right,['e'],1,0.34932849999995597,0.4,1,0,FastAcc,18,18,Woman,Right,
49,8,1,0.4837668999998641,['n'],0,left,['e'],1,0.19032609999976557,0.1,0,0,FastAcc,18,18,Woman,Right,
50,8,1,0.6505668999998306,['c'],0,right,['u'],0,0.19121300000006158,0.2,1,0,FastAcc,18,18,Woman,Right,
51,8,1,0.35139669999989565,['n'],0,left,['e'],1,0.15629879999960394,0.4,0,0,FastAcc,18,18,Woman,Right,
52,8,1,0.35114210000028834,['c'],0,right,['u'],0,0.1546067999997831,0.1,1,0,FastAcc,18,18,Woman,Right,
53,8,1,0.382347899999786,['n'],1,right,['e'],1,0.21659870000030423,0.2,1,0,FastAcc,18,18,Woman,Right,
54,8,1,0.18589799999972456,['c'],0,right,['u'],0,0.21753279999984443,0.2,1,0,FastAcc,18,18,Woman,Right,
55,8,1,0.05037690000017392,['n'],0,left,['e'],1,0.19330889999991996,0.1,0,0,FastAcc,18,18,Woman,Right,
56,8,1,0.384891400000015,['n'],0,left,['u'],0,0.18863129999999728,0.4,1,0,FastAcc,18,18,Woman,Right,
57,8,1,0.768077600000197,['c'],1,left,['u'],0,1.1288214000001062,0.4,0,0,FastAcc,18,18,Woman,Right,
58,8,1,0.7675960000001396,['n'],0,left,['u'],0,0.4951157999998941,0.1,1,0,FastAcc,18,18,Woman,Right,
59,8,1,0.6845619000000625,['n'],1,right,['u'],0,0.32214879999992263,0.1,0,0,FastAcc,18,18,Woman,Right,
0,9,1,0.434459600000082,['c'],0,right,['u'],0,0.2643035000000964,0.4,1,0,FastFast,18,18,Woman,Right,
1,9,1,0.3836599999999635,['n'],0,left,['e'],1,0.20912100000032297,0.2,0,0,FastFast,18,18,Woman,Right,
2,9,1,0.43423269999993863,['c'],1,left,['u'],0,0.1374362999999903,0.1,0,0,FastFast,18,18,Woman,Right,
3,9,1,0.13462950000030105,['n'],1,right,['e'],1,0.17690580000044065,0.4,1,0,FastFast,18,18,Woman,Right,
4,9,1,0.8521040000000539,['c'],1,left,['e'],1,0.0744076999999379,0.2,1,0,FastFast,18,18,Woman,Right,
5,9,1,0.4178200999999717,['c'],1,left,['u'],0,0.16951030000018363,0.1,0,0,FastFast,18,18,Woman,Right,
6,9,1,0.3018896000003224,['n'],1,right,['e'],1,0.18478249999998297,0.2,1,0,FastFast,18,18,Woman,Right,
7,9,1,0.33292789999995875,['c'],1,left,['e'],1,0.08781870000029812,0.4,1,0,FastFast,18,18,Woman,Right,
8,9,1,0.5676809999999932,['n'],0,left,"['u', 'e']",0,0.09541639999997642,0.2,1,0,FastFast,18,18,Woman,Right,
9,9,1,0.11605680000002394,['c'],0,right,['e'],1,0.10432829999990645,0.4,0,0,FastFast,18,18,Woman,Right,
10,9,1,0.6847848000002159,['n'],1,right,['u'],0,1.0511359000001903,0.1,0,0,FastFast,18,18,Woman,Right,
11,9,1,0.2512446999999156,['c'],0,right,['e'],1,0.20142149999992398,0.1,0,0,FastFast,18,18,Woman,Right,
12,9,1,0.100059599999895,['n'],0,left,['u'],0,0.19237079999993512,0.2,1,0,FastFast,18,18,Woman,Right,
13,9,1,0.3168127999997523,['n'],0,left,['e'],1,0.15895560000035402,0.1,0,0,FastFast,18,18,Woman,Right,
14,9,1,0.06846580000001268,['n'],0,left,['u'],0,0.21534090000022843,0.4,1,0,FastFast,18,18,Woman,Right,
15,9,1,0.13339730000006966,['c'],1,left,['e'],1,0.1882805999998709,0.4,1,0,FastFast,18,18,Woman,Right,
16,9,1,0.08442239999976664,['n'],0,left,['u'],0,0.8673373000001448,0.2,1,0,FastFast,18,18,Woman,Right,
17,9,1,0.1168152000000191,['c'],0,right,"['u', 'e']",0,0.25432279999995444,0.4,1,0,FastFast,18,18,Woman,Right,
18,9,1,0.3178270000003067,['n'],1,right,['e'],1,0.1535493999999744,0.2,1,0,FastFast,18,18,Woman,Right,
19,9,1,0.03364959999998973,['n'],0,left,['u'],0,0.14877069999965897,0.4,1,0,FastFast,18,18,Woman,Right,
20,9,1,0.6350502999998753,['c'],0,right,['e'],1,0.37532950000013443,0.2,0,0,FastFast,18,18,Woman,Right,
21,9,1,0.01678670000001148,['n'],1,right,['u'],0,0.20287770000004457,0.1,0,0,FastFast,18,18,Woman,Right,
22,9,1,0.4680984999999964,['c'],1,left,['u'],0,0.4018097999996826,0.1,0,0,FastFast,18,18,Woman,Right,
23,9,1,0.7516819000002215,['c'],1,left,['u'],0,0.23029640000004292,0.2,0,0,FastFast,18,18,Woman,Right,
24,9,1,0.25150110000004133,['n'],1,right,['u'],0,0.14924000000019078,0.2,0,0,FastFast,18,18,Woman,Right,
25,9,1,0.9178345000000263,['n'],1,right,['e'],1,0.06065489999991769,0.1,1,0,FastFast,18,18,Woman,Right,
26,9,1,0.7840278999997281,['n'],1,right,['e'],1,0.1740551000002597,0.4,1,0,FastFast,18,18,Woman,Right,
27,9,1,0.6176310999999259,['n'],1,right,['e'],1,0.09717999999975291,0.2,1,0,FastFast,18,18,Woman,Right,
28,9,1,0.23463289999972403,['c'],1,left,['u'],0,0.10156139999980951,0.1,0,0,FastFast,18,18,Woman,Right,
29,9,1,0.2514338000000862,['n'],1,right,['u'],0,0.10573870000007446,0.4,0,0,FastFast,18,18,Woman,Right,
30,9,1,0.3346134999997048,['n'],0,left,['u'],0,0.2183626999999433,0.2,1,0,FastFast,18,18,Woman,Right,
31,9,1,0.11771130000033736,['c'],1,left,['u'],0,0.15913199999977223,0.1,0,0,FastFast,18,18,Woman,Right,
32,9,1,0.13503569999966203,['n'],0,left,['e'],1,0.13493549999975585,0.2,0,0,FastFast,18,18,Woman,Right,
33,9,1,0.4500537999997505,['n'],0,left,['e'],1,0.16113159999986237,0.2,0,0,FastFast,18,18,Woman,Right,
34,9,1,0.48532840000007127,['n'],1,right,['e'],1,0.441777799999727,0.4,1,0,FastFast,18,18,Woman,Right,
35,9,1,0.18470339999976204,['c'],1,left,['u'],0,0.17959659999996802,0.1,0,0,FastFast,18,18,Woman,Right,
36,9,1,0.08454359999996086,['n'],1,right,['u'],0,0.18694959999993443,0.1,0,0,FastFast,18,18,Woman,Right,
37,9,1,0.3687715000000935,['c'],0,right,['u'],0,0.16703159999997297,0.2,1,0,FastFast,18,18,Woman,Right,
38,9,1,0.06787309999981517,['c'],1,left,['e'],1,0.16004860000020926,0.2,1,0,FastFast,18,18,Woman,Right,
39,9,1,0.5851195999998708,['n'],0,left,['u'],0,0.7740153999998256,0.2,1,0,FastFast,18,18,Woman,Right,
40,9,1,0.06860379999989163,['n'],1,right,['u'],0,0.10187100000030114,0.4,0,0,FastFast,18,18,Woman,Right,
41,9,1,0.4832120000000941,['n'],0,left,['u'],0,0.20876739999994243,0.4,1,0,FastFast,18,18,Woman,Right,
42,9,1,0.15174030000025596,['n'],1,right,['u'],0,0.29283540000005814,0.1,0,0,FastFast,18,18,Woman,Right,
43,9,1,0.3508271999999124,['c'],0,right,['u'],0,0.12563890000001265,0.1,1,0,FastFast,18,18,Woman,Right,
44,9,1,1.1170694000002186,['n'],1,right,['u'],0,0.2077248000000509,0.4,0,0,FastFast,18,18,Woman,Right,
45,9,1,1.5833290999999008,['n'],0,left,['u'],0,0.29901879999988523,0.4,1,0,FastFast,18,18,Woman,Right,
46,9,1,0.867810400000053,['n'],1,right,['u'],0,0.09429210000007515,0.1,0,0,FastFast,18,18,Woman,Right,
47,9,1,0.7517387999996572,['c'],1,left,['u'],0,0.1583800000003066,0.1,0,0,FastFast,18,18,Woman,Right,
48,9,1,0.3512252999998964,['c'],0,right,['u'],0,0.14025870000023133,0.2,1,0,FastFast,18,18,Woman,Right,
49,9,1,0.2671454999999696,['c'],0,right,['u'],0,0.22289189999992232,0.4,1,0,FastFast,18,18,Woman,Right,
50,9,1,0.3830753999995977,['n'],0,left,['u'],0,0.2016884999998183,0.4,1,0,FastFast,18,18,Woman,Right,
51,9,1,0.4011398999996345,['c'],1,left,['u'],0,0.37108370000032664,0.4,0,0,FastFast,18,18,Woman,Right,
52,9,1,0.38483050000013463,['c'],0,right,['e'],1,0.2474566999999297,0.1,0,0,FastFast,18,18,Woman,Right,
53,9,1,0.5679347999998754,['n'],1,right,['e'],1,0.3130293999997775,0.2,1,0,FastFast,18,18,Woman,Right,
54,9,1,0.40174460000025647,['n'],1,right,['e'],1,0.31882739999991827,0.4,1,0,FastFast,18,18,Woman,Right,
55,9,1,0.434670499999811,['n'],0,left,['u'],0,0.3069126000000324,0.4,1,0,FastFast,18,18,Woman,Right,
56,9,1,0.599641100000099,['n'],1,right,['e'],1,0.3707119999999122,0.1,1,0,FastFast,18,18,Woman,Right,
57,9,1,1.350599400000192,['c'],1,left,['e'],1,0.2870980000002419,0.2,1,0,FastFast,18,18,Woman,Right,
58,9,1,0.9510893000001488,['n'],0,left,['e'],1,0.2399838000001182,0.1,0,0,FastFast,18,18,Woman,Right,
59,9,1,0.7509212999998454,['n'],1,right,['e'],1,0.17082759999993868,0.1,1,0,FastFast,18,18,Woman,Right,
0,10,1,0.9015681999999288,['n'],1,right,['e'],1,0.6763894000000619,0.2,1,0,AccFast,18,18,Woman,Right,
1,10,1,0.33484150000003865,['c'],0,right,['e'],1,0.27070439999988594,0.2,0,0,AccFast,18,18,Woman,Right,
2,10,1,0.9835468000001129,['c'],0,right,['e'],1,0.14252480000004653,0.2,0,0,AccFast,18,18,Woman,Right,
3,10,1,0.38483129999985977,['n'],0,left,['u'],0,0.12413939999987633,0.2,1,0,AccFast,18,18,Woman,Right,
4,10,1,0.9500518999998349,['n'],0,left,"['u', 'e']",0,0.5004039999998895,0.4,1,0,AccFast,18,18,Woman,Right,
5,10,1,0.9343526000002385,['c'],1,left,['u'],0,0.41274020000037126,0.2,0,0,AccFast,18,18,Woman,Right,
6,10,1,0.6672825000000557,['n'],0,left,['u'],0,0.09958439999991242,0.1,1,0,AccFast,18,18,Woman,Right,
7,10,1,0.10171199999967939,['c'],0,right,['u'],0,0.3172225999996954,0.1,1,0,AccFast,18,18,Woman,Right,
8,10,1,0.4343705000001137,['n'],0,left,['e'],1,0.3382731000001513,0.1,0,0,AccFast,18,18,Woman,Right,
9,10,1,0.7331913000002714,['n'],0,left,['u'],0,0.41036979999989853,0.1,1,0,AccFast,18,18,Woman,Right,
10,10,1,0.6350869999996576,['n'],0,left,['e'],1,0.5314501000002565,0.1,0,0,AccFast,18,18,Woman,Right,
11,10,1,0.834010699999908,['n'],0,left,['u'],0,0.09420490000002246,0.1,1,0,AccFast,18,18,Woman,Right,
12,10,1,0.6005147999999281,['n'],1,right,['e'],1,0.37299709999979314,0.2,1,0,AccFast,18,18,Woman,Right,
13,10,1,0.7507031999998617,['c'],0,right,['u'],0,0.18690579999974943,0.2,1,0,AccFast,18,18,Woman,Right,
14,10,1,0.43507499999986976,['n'],1,right,['e'],1,0.27647790000037276,0.1,1,0,AccFast,18,18,Woman,Right,
15,10,1,0.6841493000001719,['n'],1,right,['u'],0,0.14450459999989107,0.2,0,0,AccFast,18,18,Woman,Right,
16,10,1,0.384795099999792,['c'],1,left,['u'],0,0.17449309999983598,0.4,0,0,AccFast,18,18,Woman,Right,
17,10,1,0.46841530000028797,['c'],0,right,['e'],1,0.19921620000013718,0.1,0,0,AccFast,18,18,Woman,Right,
18,10,1,0.3349044999999933,['n'],0,left,['e'],1,0.33979950000002646,0.4,0,0,AccFast,18,18,Woman,Right,
19,10,1,0.4164154999998573,['c'],1,left,['e'],1,0.12171170000010534,0.4,1,0,AccFast,18,18,Woman,Right,
20,10,1,0.532716199999868,['n'],0,left,['e'],1,0.20949049999990166,0.4,0,0,AccFast,18,18,Woman,Right,
21,10,1,0.5676898000001529,['n'],1,right,['e'],1,0.2599041000003126,0.1,1,0,AccFast,18,18,Woman,Right,
22,10,1,0.6346481999999014,['n'],1,right,['e'],1,0.1311740999999529,0.1,1,0,AccFast,18,18,Woman,Right,
23,10,1,0.31882679999989705,['c'],1,left,['u'],0,0.09940069999993284,0.2,0,0,AccFast,18,18,Woman,Right,
24,10,1,0.3003172999997332,['n'],1,right,['e'],1,0.11812469999995301,0.1,1,0,AccFast,18,18,Woman,Right,
25,10,1,0.3844193999998424,['c'],0,right,['u'],0,0.08378470000025118,0.4,1,0,AccFast,18,18,Woman,Right,
26,10,1,0.20082210000009582,['n'],0,left,['e'],1,0.5706052999998974,0.1,0,0,AccFast,18,18,Woman,Right,
27,10,1,1.3344821000000593,['n'],1,right,['u'],0,0.19282050000037998,0.1,0,0,AccFast,18,18,Woman,Right,
28,10,1,0.8680606000002626,['c'],1,left,['e'],1,0.09021679999978005,0.4,1,0,AccFast,18,18,Woman,Right,
29,10,1,0.4666314000000966,['n'],1,right,['e'],1,0.1824290999998084,0.4,1,0,AccFast,18,18,Woman,Right,
30,10,1,0.7182963999998719,['n'],1,right,['e'],1,0.09971450000011828,0.4,1,0,AccFast,18,18,Woman,Right,
31,10,1,0.6185030000001461,['c'],1,left,['e'],1,0.08921929999996792,0.2,1,0,AccFast,18,18,Woman,Right,
32,10,1,0.3516352999999981,['n'],0,left,['e'],1,0.13804049999998824,0.2,0,0,AccFast,18,18,Woman,Right,
33,10,1,0.9512535999997453,['n'],0,left,['e'],1,0.08175919999985126,0.1,0,0,AccFast,18,18,Woman,Right,
34,10,1,0.4512417999999343,['c'],1,left,['e'],1,0.09374150000030568,0.2,1,0,AccFast,18,18,Woman,Right,
35,10,1,0.7505329000000529,['n'],1,right,['e'],1,0.11076339999999618,0.1,1,0,AccFast,18,18,Woman,Right,
36,10,1,0.5661822000001848,['c'],1,left,['e'],1,0.08689000000003944,0.4,1,0,AccFast,18,18,Woman,Right,
37,10,1,0.48378009999987626,['n'],1,right,['e'],1,0.13008200000012948,0.4,1,0,AccFast,18,18,Woman,Right,
38,10,1,0.7179330000003574,['c'],1,left,['e'],1,0.08223090000001321,0.2,1,0,AccFast,18,18,Woman,Right,
39,10,1,0.5680672000003142,['n'],1,right,['e'],1,0.10643019999997705,0.2,1,0,AccFast,18,18,Woman,Right,
40,10,1,0.7003443000003244,['c'],1,left,['e'],1,0.06083709999984421,0.4,1,0,AccFast,18,18,Woman,Right,
41,10,1,0.5015177000000222,['n'],1,right,['e'],1,0.08875990000024103,0.4,1,0,AccFast,18,18,Woman,Right,
42,10,1,0.9838312000001679,['c'],0,right,['e'],1,0.08039629999984754,0.2,0,0,AccFast,18,18,Woman,Right,
43,10,1,0.8182756999999583,['n'],1,right,['e'],1,0.15867470000011963,0.1,1,0,AccFast,18,18,Woman,Right,
44,10,1,0.7005638999999064,['n'],1,right,['e'],1,0.1270540999998957,0.4,1,0,AccFast,18,18,Woman,Right,
45,10,1,0.9166886000002705,['n'],0,left,['e'],1,0.13726229999974748,0.1,0,0,AccFast,18,18,Woman,Right,
46,10,1,0.7161501000000499,['c'],0,right,['e'],1,0.12163590000000113,0.1,0,0,AccFast,18,18,Woman,Right,
47,10,1,0.5502720999998019,['n'],0,left,['e'],1,0.22464120000040566,0.4,0,0,AccFast,18,18,Woman,Right,
48,10,1,1.0163185999999769,['n'],1,right,['e'],1,0.1614785000001575,0.4,1,0,AccFast,18,18,Woman,Right,
49,10,1,0.7014186000001246,['n'],1,right,['e'],1,0.30501109999977416,0.4,1,0,AccFast,18,18,Woman,Right,
50,10,1,0.35078680000015083,['c'],1,left,['e'],1,0.041118699999969976,0.2,1,0,AccFast,18,18,Woman,Right,
51,10,1,0.5674561999999241,['c'],1,left,['e'],1,0.06755120000025272,0.1,1,0,AccFast,18,18,Woman,Right,
52,10,1,0.5174329999999827,['n'],0,left,['e'],1,0.12638680000009117,0.2,0,0,AccFast,18,18,Woman,Right,
53,10,1,0.43494920000011916,['c'],1,left,['e'],1,0.10646200000019235,0.4,1,0,AccFast,18,18,Woman,Right,
54,10,1,0.6669121999998424,['n'],0,left,['e'],1,0.11035149999997884,0.2,0,0,AccFast,18,18,Woman,Right,
55,10,1,0.3840191999997842,['c'],0,right,['e'],1,0.06136610000021392,0.4,0,0,AccFast,18,18,Woman,Right,
56,10,1,0.3997649999996611,['n'],1,right,['u'],0,0.11078289999977642,0.2,0,0,AccFast,18,18,Woman,Right,
57,10,1,0.43520119999993767,['n'],0,left,['u'],0,2.0905751000000237,0.1,1,0,AccFast,18,18,Woman,Right,
58,10,1,0.8336903999997958,['n'],1,right,['e'],1,0.16840129999991404,0.4,1,0,AccFast,18,18,Woman,Right,
59,10,1,0.684963699999571,['c'],0,right,['u'],0,0.13606810000010228,0.2,1,0,AccFast,18,18,Woman,Right,
0,11,1,0.784041100000195,['n'],1,right,['e'],1,0.29425469999978304,0.2,1,0,AccAcc,18,18,Woman,Right,
1,11,1,0.7341175999999905,['c'],1,left,['e'],1,0.27128259999972215,0.1,1,0,AccAcc,18,18,Woman,Right,
2,11,1,0.5506587999998374,['n'],1,right,['u'],0,0.33669640000016443,0.2,0,0,AccAcc,18,18,Woman,Right,
3,11,1,0.5015220000000227,['c'],1,left,['u'],0,0.32167260000005626,0.4,0,0,AccAcc,18,18,Woman,Right,
4,11,1,0.7163777000000664,['n'],0,left,['e'],1,0.347385900000063,0.2,0,0,AccAcc,18,18,Woman,Right,
5,11,1,0.58385700000008,['c'],1,left,['e'],1,0.32744400000001406,0.2,1,0,AccAcc,18,18,Woman,Right,
6,11,1,0.3005671999999322,['c'],0,right,['u'],0,0.28993420000006154,0.2,1,0,AccAcc,18,18,Woman,Right,
7,11,1,0.35013700000035897,['c'],0,right,['u'],0,0.33128480000004856,0.4,1,0,AccAcc,18,18,Woman,Right,
8,11,1,0.03483020000021497,['c'],0,right,['e'],1,0.3179408999999396,0.4,0,0,AccAcc,18,18,Woman,Right,
9,11,1,0.350925400000051,['c'],1,left,['u'],0,0.10099100000024919,0.4,0,0,AccAcc,18,18,Woman,Right,
10,11,1,0.45141100000000733,['n'],1,right,['u'],0,0.16133170000011887,0.2,0,0,AccAcc,18,18,Woman,Right,
11,11,1,0.683534900000268,"['n', 'c']",1,right,['u'],0,0.13087550000000192,0.1,0,0,AccAcc,18,18,Woman,Right,
12,11,1,0.23311459999968065,['c'],0,right,['u'],0,0.08709330000010596,0.1,1,0,AccAcc,18,18,Woman,Right,
13,11,1,0.5830673000000388,['c'],1,left,['e'],1,0.15816820000009102,0.4,1,0,AccAcc,18,18,Woman,Right,
14,11,1,0.5166839999997137,['c'],1,left,['e'],1,0.1175508000001173,0.4,1,0,AccAcc,18,18,Woman,Right,
15,11,1,0.5831548999999541,['n'],1,right,"['u', 'e']",0,0.17170450000003257,0.1,0,0,AccAcc,18,18,Woman,Right,
16,11,1,0.25156339999966804,['n'],0,left,['u'],0,0.1405985999999757,0.4,1,0,AccAcc,18,18,Woman,Right,
17,11,1,0.7834258999996564,['n'],1,right,['e'],1,0.283031899999969,0.2,1,0,AccAcc,18,18,Woman,Right,
18,11,1,0.38360259999990376,"['n', 'c']",0,left,['u'],0,0.14661859999978333,0.1,1,0,AccAcc,18,18,Woman,Right,
19,11,1,0.06856029999971724,['n'],0,left,['u'],0,0.23531820000016523,0.4,1,0,AccAcc,18,18,Woman,Right,
20,11,1,0.4512174999999843,['n'],0,left,['u'],0,0.1948526999999558,0.2,1,0,AccAcc,18,18,Woman,Right,
21,11,1,0.016926100000091537,['n'],1,right,"['u', 'e']",0,0.2376340999999229,0.2,0,0,AccAcc,18,18,Woman,Right,
22,11,1,0.6011267999997472,['n'],1,right,['e'],1,0.26949400000012247,0.1,1,0,AccAcc,18,18,Woman,Right,
23,11,1,0.4348426000001382,['c'],0,right,['u'],0,0.17963449999979275,0.2,1,0,AccAcc,18,18,Woman,Right,
24,11,1,0.2846455999997488,['n'],0,left,['e'],1,0.19519190000028175,0.4,0,0,AccAcc,18,18,Woman,Right,
25,11,1,0.3507413999996061,['c'],1,left,['u'],0,0.09535409999989497,0.4,0,0,AccAcc,18,18,Woman,Right,
26,11,1,0.1993894000002001,['n'],1,right,['e'],1,0.2153430000003027,0.1,1,0,AccAcc,18,18,Woman,Right,
27,11,1,0.11725690000002942,['c'],1,left,['u'],0,0.28363320000016756,0.4,0,0,AccAcc,18,18,Woman,Right,
28,11,1,0.11913199999980861,['n'],0,left,['e'],1,2.2527217000001656,0.4,0,0,AccAcc,18,18,Woman,Right,
29,11,1,0.5668115000003127,['n'],1,right,['e'],1,0.12673469999981535,0.1,1,0,AccAcc,18,18,Woman,Right,
30,11,1,0.3345809000002191,['n'],1,right,['e'],1,0.07886039999993955,0.1,1,0,AccAcc,18,18,Woman,Right,
31,11,1,0.31652379999968616,['c'],0,right,['u'],0,0.06495610000001761,0.1,1,0,AccAcc,18,18,Woman,Right,
32,11,1,0.2681300999997802,['n'],1,right,['e'],1,0.16612649999979112,0.2,1,0,AccAcc,18,18,Woman,Right,
33,11,1,0.35168049999992945,['n'],1,right,['e'],1,0.11611040000025241,0.1,1,0,AccAcc,18,18,Woman,Right,
34,11,1,0.28425259999994523,['c'],0,right,['u'],0,0.08553870000014285,0.2,1,0,AccAcc,18,18,Woman,Right,
35,11,1,0.3657823000003191,['c'],1,left,"['u', 'e']",0,0.16790670000000318,0.4,0,0,AccAcc,18,18,Woman,Right,
36,11,1,0.43431749999990643,['c'],1,left,['e'],1,0.12885919999962425,0.2,1,0,AccAcc,18,18,Woman,Right,
37,11,1,0.684747199999947,['c'],1,left,['e'],1,0.09819599999991624,0.4,1,0,AccAcc,18,18,Woman,Right,
38,11,1,0.46814439999980095,['n'],1,right,['e'],1,0.17389270000012402,0.4,1,0,AccAcc,18,18,Woman,Right,
39,11,1,0.4163770000000113,['c'],0,right,['e'],1,0.12217379999992772,0.1,0,0,AccAcc,18,18,Woman,Right,
40,11,1,0.59888809999984,['n'],0,left,['e'],1,0.30287479999969946,0.1,0,0,AccAcc,18,18,Woman,Right,
41,11,1,0.25153420000015103,['c'],0,right,['e'],1,0.058496800000284566,0.4,0,0,AccAcc,18,18,Woman,Right,
42,11,1,0.48426329999983864,['n'],0,left,['e'],1,0.1356018999999833,0.2,0,0,AccAcc,18,18,Woman,Right,
43,11,1,0.650072899999941,['c'],1,left,['e'],1,0.09121450000020559,0.1,1,0,AccAcc,18,18,Woman,Right,
44,11,1,0.36650179999969623,['n'],0,left,['e'],1,0.10734279999996943,0.1,0,0,AccAcc,18,18,Woman,Right,
45,11,1,0.550479500000165,['n'],0,left,['e'],1,0.21232789999976376,0.2,0,0,AccAcc,18,18,Woman,Right,
46,11,1,0.46709710000004634,['n'],0,left,['e'],1,0.21896639999977197,0.4,0,0,AccAcc,18,18,Woman,Right,
47,11,1,0.43401589999984935,['c'],0,right,['e'],1,0.17983920000006037,0.2,0,0,AccAcc,18,18,Woman,Right,
48,11,1,0.3012729000001855,['n'],0,left,['e'],1,0.08240750000004482,0.1,0,0,AccAcc,18,18,Woman,Right,
49,11,1,0.46809490000032383,['c'],1,left,['e'],1,0.06159639999987121,0.2,1,0,AccAcc,18,18,Woman,Right,
50,11,1,0.33376810000027035,['n'],0,left,['e'],1,0.1600020000000768,0.4,0,0,AccAcc,18,18,Woman,Right,
51,11,1,0.6181210999998257,['n'],1,right,['e'],1,0.1313617000000704,0.2,1,0,AccAcc,18,18,Woman,Right,
52,11,1,0.6180193000000145,['c'],1,left,['e'],1,0.16755519999969692,0.4,1,0,AccAcc,18,18,Woman,Right,
53,11,1,0.9998306000002231,['c'],1,left,['e'],1,0.1403947000003427,0.1,1,0,AccAcc,18,18,Woman,Right,
54,11,1,0.7167721000000711,['c'],0,right,['u'],0,0.8117726000000403,0.4,1,0,AccAcc,18,18,Woman,Right,
55,11,1,1.051058699999885,['n'],1,right,['e'],1,0.09910339999987627,0.1,1,0,AccAcc,18,18,Woman,Right,
56,11,1,1.4349158999998508,['n'],1,right,['e'],1,0.05628530000012688,0.2,1,0,AccAcc,18,18,Woman,Right,
57,11,1,0.8673007999996116,['n'],1,right,['e'],1,0.1505483999999342,0.2,1,0,AccAcc,18,18,Woman,Right,
58,11,1,0.9158707999999933,['c'],0,right,['e'],1,0.04627170000003389,0.1,0,0,AccAcc,18,18,Woman,Right,
59,11,1,0.7330067999996572,['n'],0,left,['u'],0,0.14561899999989691,0.1,1,0,AccAcc,18,18,Woman,Right,
0,12,1,0.7838670999999522,['c'],0,right,['u'],0,0.27100839999957316,0.1,1,0,FastAcc,18,18,Woman,Right,
1,12,1,0.5506851000000097,['c'],1,left,['u'],0,0.048484800000096584,0.4,0,0,FastAcc,18,18,Woman,Right,
2,12,1,0.18458510000027673,['c'],0,right,['u'],0,1.2419270000000324,0.2,1,0,FastAcc,18,18,Woman,Right,
3,12,1,0.13472390000015366,['n'],0,left,['u'],0,0.19697760000008202,0.2,1,0,FastAcc,18,18,Woman,Right,
4,12,1,0.39895860000024186,['n'],0,left,['u'],0,0.09645249999994121,0.2,1,0,FastAcc,18,18,Woman,Right,
5,12,1,0.3173833000000741,['c'],0,right,['u'],0,0.12884200000007695,0.2,1,0,FastAcc,18,18,Woman,Right,
6,12,1,0.033572800000001735,['n'],1,right,['e'],1,0.10913359999995009,0.2,1,0,FastAcc,18,18,Woman,Right,
7,12,1,0.3014441000000261,['c'],1,left,['u'],0,0.07839580000018032,0.1,0,0,FastAcc,18,18,Woman,Right,
8,12,1,0.23253359999989698,['n'],1,right,['e'],1,0.5807776999999987,0.2,1,0,FastAcc,18,18,Woman,Right,
9,12,1,0.2670562000002974,['n'],1,right,['u'],0,0.19782859999986613,0.2,0,0,FastAcc,18,18,Woman,Right,
10,12,1,0.3000845000001391,['c'],1,left,['u'],0,0.1791345999999976,0.4,0,0,FastAcc,18,18,Woman,Right,
11,12,1,0.3006778000003578,['n'],1,right,['e'],1,0.3215109000002485,0.4,1,0,FastAcc,18,18,Woman,Right,
12,12,1,0.3164377000002787,['c'],1,left,['u'],0,0.20356260000016846,0.1,0,0,FastAcc,18,18,Woman,Right,
13,12,1,0.9857735999999022,['n'],0,left,['u'],0,0.6052263999999923,0.1,1,0,FastAcc,18,18,Woman,Right,
14,12,1,1.0653476000002229,['n'],0,left,['u'],0,0.062036900000293826,0.1,1,0,FastAcc,18,18,Woman,Right,
15,12,1,0.5331633000000693,['c'],0,right,['u'],0,0.1692855999999665,0.2,1,0,FastAcc,18,18,Woman,Right,
16,12,1,0.5005492000000231,['n'],1,right,['u'],0,0.14331089999996038,0.2,0,0,FastAcc,18,18,Woman,Right,
17,12,1,0.6343984999998611,['c'],0,right,['u'],0,0.4033186999999998,0.4,1,0,FastAcc,18,18,Woman,Right,
18,12,1,0.5173181999998633,['n'],0,left,['u'],0,0.08075509999980568,0.1,1,0,FastAcc,18,18,Woman,Right,
19,12,1,0.5828560999998444,['n'],1,right,['u'],0,0.16812460000028295,0.2,0,0,FastAcc,18,18,Woman,Right,
20,12,1,0.3856572999998207,['n'],0,left,['e'],1,0.29233609999982946,0.2,0,0,FastAcc,18,18,Woman,Right,
21,12,1,0.4665362000000641,['n'],0,left,['u'],0,0.23251180000033855,0.4,1,0,FastAcc,18,18,Woman,Right,
22,12,1,0.499025999999958,['c'],0,right,['u'],0,0.0942707999997765,0.2,1,0,FastAcc,18,18,Woman,Right,
23,12,1,0.3513695000001462,['n'],1,right,['e'],1,0.15834309999991092,0.1,1,0,FastAcc,18,18,Woman,Right,
24,12,1,0.3169102000001658,['c'],1,left,['u'],0,0.19030049999992116,0.4,0,0,FastAcc,18,18,Woman,Right,
25,12,1,0.6505405000002611,"['n', 'c']",0,left,['u'],0,0.44752310000012585,0.4,1,0,FastAcc,18,18,Woman,Right,
26,12,1,0.5001233000002685,['n'],0,left,['u'],0,0.22000030000026527,0.4,1,0,FastAcc,18,18,Woman,Right,
27,12,1,0.38406650000024456,['n'],0,left,['u'],0,0.0692573999999695,0.1,1,0,FastAcc,18,18,Woman,Right,
28,12,1,0.28390889999991487,['c'],0,right,['u'],0,0.07370469999978013,0.4,1,0,FastAcc,18,18,Woman,Right,
29,12,1,0.03512399999999616,['n'],0,left,['e'],1,0.4717972999997073,0.4,0,0,FastAcc,18,18,Woman,Right,
30,12,1,0.8350596000000223,['c'],1,left,['u'],0,0.038071299999955954,0.2,0,0,FastAcc,18,18,Woman,Right,
31,12,1,0.883914200000163,['c'],1,left,['u'],0,0.19543930000008913,0.1,0,0,FastAcc,18,18,Woman,Right,
32,12,1,0.3337978999998086,['n'],1,right,['e'],1,0.016920399999889923,0.2,1,0,FastAcc,18,18,Woman,Right,
33,12,1,0.9177733999999873,['n'],1,right,['u'],0,0.18989520000013727,0.4,0,0,FastAcc,18,18,Woman,Right,
34,12,1,0.4506344999999783,['c'],0,right,['u'],0,0.1668362000000343,0.1,1,0,FastAcc,18,18,Woman,Right,
35,12,1,0.4498337999998512,['n'],1,right,['u'],0,0.06521849999990081,0.2,0,0,FastAcc,18,18,Woman,Right,
36,12,1,0.49935629999981757,['n'],1,right,['e'],1,0.07675200000039695,0.4,1,0,FastAcc,18,18,Woman,Right,
37,12,1,0.4171459999997751,['c'],1,left,['e'],1,0.15564500000027692,0.4,1,0,FastAcc,18,18,Woman,Right,
38,12,1,0.9653121000001192,['n'],0,left,['e'],1,0.09684480000032636,0.1,0,0,FastAcc,18,18,Woman,Right,
39,12,1,0.4162670999999136,['c'],1,left,['u'],0,0.17486920000010286,0.1,0,0,FastAcc,18,18,Woman,Right,
40,12,1,0.3828958000003695,['n'],1,right,['e'],1,0.31532140000035724,0.4,1,0,FastAcc,18,18,Woman,Right,
41,12,1,0.601848699999664,['c'],1,left,['e'],1,0.1209552000000258,0.1,1,0,FastAcc,18,18,Woman,Right,
42,12,1,0.5666352000002917,['c'],1,left,['e'],1,0.12703620000002047,0.4,1,0,FastAcc,18,18,Woman,Right,
43,12,1,0.666670300000078,['n'],1,right,['e'],1,0.09786869999970804,0.2,1,0,FastAcc,18,18,Woman,Right,
44,12,1,0.5674620999998297,['n'],1,right,['e'],1,0.152630400000362,0.4,1,0,FastAcc,18,18,Woman,Right,
45,12,1,0.46833490000017264,['c'],0,right,['e'],1,0.11429309999994075,0.2,0,0,FastAcc,18,18,Woman,Right,
46,12,1,0.4323466999999255,['n'],0,left,['e'],1,0.27202959999976883,0.1,0,0,FastAcc,18,18,Woman,Right,
47,12,1,0.3834330000004229,['n'],0,left,['e'],1,0.2320466999999553,0.4,0,0,FastAcc,18,18,Woman,Right,
48,12,1,0.43319130000008954,['c'],0,right,['e'],1,0.07826219999969908,0.1,0,0,FastAcc,18,18,Woman,Right,
49,12,1,0.6677843000002213,['n'],0,left,['e'],1,0.40260229999967123,0.1,0,0,FastAcc,18,18,Woman,Right,
50,12,1,0.45013680000010936,['n'],0,left,['e'],1,0.11522250000007261,0.2,0,0,FastAcc,18,18,Woman,Right,
51,12,1,0.4344607999996697,['c'],0,right,['u'],0,0.9110401999996611,0.4,1,0,FastAcc,18,18,Woman,Right,
52,12,1,0.5844911999997748,['n'],1,right,['e'],1,0.27810319999980493,0.4,1,0,FastAcc,18,18,Woman,Right,
53,12,1,0.5836801999998897,['n'],1,right,['e'],1,0.19905169999992722,0.1,1,0,FastAcc,18,18,Woman,Right,
54,12,1,0.4518907000001491,['c'],1,left,['e'],1,0.1594582000002447,0.1,1,0,FastAcc,18,18,Woman,Right,
55,12,1,0.6658033000003343,['n'],1,right,['e'],1,0.14547879999963698,0.4,1,0,FastAcc,18,18,Woman,Right,
56,12,1,0.5675762000000759,['c'],1,left,['e'],1,0.10305280000011408,0.2,1,0,FastAcc,18,18,Woman,Right,
57,12,1,0.6174003999999513,['n'],1,right,['e'],1,0.12388320000036401,0.1,1,0,FastAcc,18,18,Woman,Right,
58,12,1,0.6515934999997626,['n'],1,right,['e'],1,0.11143630000015037,0.1,1,0,FastAcc,18,18,Woman,Right,
59,12,1,0.6177725000002283,['c'],1,left,['u'],0,0.06897729999991498,0.2,0,0,FastAcc,18,18,Woman,Right,
0,13,1,0.6333158000002186,['c'],1,left,['e'],1,0.19355469999982233,0.2,1,0,FastFast,18,18,Woman,Right,
1,13,1,0.3487600999997085,['c'],0,right,['u'],0,0.17507679999971515,0.2,1,0,FastFast,18,18,Woman,Right,
2,13,1,0.16640360000019427,['n'],1,right,['e'],1,0.2755638000003273,0.4,1,0,FastFast,18,18,Woman,Right,
3,13,1,0.4191328000001704,['c'],0,right,['u'],0,0.1379917999997815,0.4,1,0,FastFast,18,18,Woman,Right,
4,13,1,0.3344154000001254,['n'],0,left,['u'],0,0.1368470000002162,0.2,1,0,FastFast,18,18,Woman,Right,
5,13,1,1.5337546000000657,['c'],1,left,['u'],0,0.1537256999999954,0.4,0,0,FastFast,18,18,Woman,Right,
6,13,1,0.8683857000000899,['c'],1,left,['u'],0,0.06676120000020092,0.1,0,0,FastFast,18,18,Woman,Right,
7,13,1,0.866482200000064,['n'],1,right,['u'],0,0.07974579999972775,0.2,0,0,FastFast,18,18,Woman,Right,
8,13,1,0.6681822999998985,['c'],0,right,['u'],0,0.01964189999989685,0.1,1,0,FastFast,18,18,Woman,Right,
9,13,1,0.8999162000000069,['c'],1,left,['u'],0,0.0975628000001052,0.4,0,0,FastFast,18,18,Woman,Right,
10,13,1,0.8670245999996951,['n'],0,left,['u'],0,0.28511939999998503,0.4,1,0,FastFast,18,18,Woman,Right,
11,13,1,0.801781299999675,['n'],1,right,['e'],1,0.17931069999985993,0.1,1,0,FastFast,18,18,Woman,Right,
12,13,1,0.5680064000002858,['c'],1,left,['e'],1,0.1354215999999724,0.4,1,0,FastFast,18,18,Woman,Right,
13,13,1,0.8169370000000526,['c'],0,right,['e'],1,0.11577230000011696,0.1,0,0,FastFast,18,18,Woman,Right,
14,13,1,0.6842380000002777,['c'],1,left,['e'],1,0.2459748999999647,0.2,1,0,FastFast,18,18,Woman,Right,
15,13,1,0.5009807000001274,['c'],0,right,['u'],0,0.28211540000029345,0.2,1,0,FastFast,18,18,Woman,Right,
16,13,1,0.8174199999998564,['c'],0,right,['e'],1,0.30452070000001186,0.2,0,0,FastFast,18,18,Woman,Right,
17,13,1,2.5838449000002583,['n'],0,left,['u'],0,0.7038708000000042,0.4,1,0,FastFast,18,18,Woman,Right,
18,13,1,0.8845151999998961,['c'],1,left,['u'],0,0.3227679999999964,0.4,0,0,FastFast,18,18,Woman,Right,
19,13,1,0.6504347000000053,['n'],1,right,['u'],0,0.04670949999990626,0.2,0,0,FastFast,18,18,Woman,Right,
20,13,1,0.3667489999997997,['c'],0,right,['u'],0,0.3050373999999465,0.2,1,0,FastFast,18,18,Woman,Right,
21,13,1,1.1855599000000439,['n'],1,right,['e'],1,0.29474830000026486,0.4,1,0,FastFast,18,18,Woman,Right,
22,13,1,1.1670121000001927,['c'],1,left,['e'],1,0.15930539999999382,0.1,1,0,FastFast,18,18,Woman,Right,
23,13,1,0.9346307000000706,['n'],1,right,['e'],1,0.32617759999993723,0.2,1,0,FastFast,18,18,Woman,Right,
24,13,1,0.8000806999998531,['n'],1,right,['e'],1,0.3164558000003126,0.2,1,0,FastFast,18,18,Woman,Right,
25,13,1,0.6007089999998243,['n'],0,left,['e'],1,0.23377010000012888,0.4,0,0,FastFast,18,18,Woman,Right,
26,13,1,0.3677766000000702,['n'],0,left,['e'],1,0.3077496000000792,0.1,0,0,FastFast,18,18,Woman,Right,
27,13,1,0.8839572000001681,['n'],0,left,['e'],1,0.05487219999986337,0.4,0,0,FastFast,18,18,Woman,Right,
28,13,1,0.851094799999828,['n'],1,right,['e'],1,0.134486299999935,0.1,1,0,FastFast,18,18,Woman,Right,
29,13,1,0.41676260000031107,['c'],1,left,['e'],1,0.1293375999998716,0.2,1,0,FastFast,18,18,Woman,Right,
30,13,1,0.7996843000000808,['c'],1,left,['e'],1,0.1578921000000264,0.2,1,0,FastFast,18,18,Woman,Right,
31,13,1,0.7996419999999489,['n'],1,right,['u'],0,0.13943460000018604,0.2,0,0,FastFast,18,18,Woman,Right,
32,13,1,1.2175827999999456,['n'],0,left,['u'],0,0.13439870000001974,0.4,1,0,FastFast,18,18,Woman,Right,
33,13,1,0.7849221000001307,['c'],0,right,['e'],1,0.16453550000005635,0.1,0,0,FastFast,18,18,Woman,Right,
34,13,1,0.6187882999997782,['n'],1,right,['u'],0,0.08705660000032367,0.4,0,0,FastFast,18,18,Woman,Right,
35,13,1,0.5847825000000739,['c'],1,left,['e'],1,0.14251430000012988,0.4,1,0,FastFast,18,18,Woman,Right,
36,13,1,0.6521922000001723,['n'],1,right,['e'],1,0.11354609999989407,0.1,1,0,FastFast,18,18,Woman,Right,
37,13,1,0.599670099999912,['n'],0,left,['e'],1,0.10383180000007997,0.1,0,0,FastFast,18,18,Woman,Right,
38,13,1,0.8844259000002239,['c'],0,right,['e'],1,0.16206849999980477,0.1,0,0,FastFast,18,18,Woman,Right,
39,13,1,0.5176406999999017,['n'],0,left,['e'],1,0.20123210000019753,0.1,0,0,FastFast,18,18,Woman,Right,
40,13,1,0.6177394999999706,['n'],1,right,['e'],1,0.3787720000000263,0.2,1,0,FastFast,18,18,Woman,Right,
41,13,1,0.4172654999997576,['c'],1,left,['u'],0,0.12468970000008994,0.1,0,0,FastFast,18,18,Woman,Right,
42,13,1,0.38477110000030734,['n'],1,right,['e'],1,0.15501979999999094,0.4,1,0,FastFast,18,18,Woman,Right,
43,13,1,0.384573900000305,['c'],1,left,['e'],1,0.2958110999998098,0.4,1,0,FastFast,18,18,Woman,Right,
44,13,1,0.5667048999998769,['n'],1,right,['e'],1,0.1515110000000277,0.1,1,0,FastFast,18,18,Woman,Right,
45,13,1,0.668184100000417,['n'],1,right,['e'],1,0.1851314000000457,0.1,1,0,FastFast,18,18,Woman,Right,
46,13,1,0.4507163000002947,['c'],1,left,['e'],1,0.24221959999977116,0.2,1,0,FastFast,18,18,Woman,Right,
47,13,1,0.46824999999989814,['n'],1,right,['e'],1,0.32892109999966124,0.2,1,0,FastFast,18,18,Woman,Right,
48,13,1,1.0513197000000218,['c'],1,left,['e'],1,0.03526149999970585,0.4,1,0,FastFast,18,18,Woman,Right,
49,13,1,1.1178243999997903,['n'],0,left,['e'],1,0.16859519999979966,0.4,0,0,FastFast,18,18,Woman,Right,
50,13,1,0.7673402999998871,['n'],1,right,['e'],1,0.16467469999997775,0.2,1,0,FastFast,18,18,Woman,Right,
51,13,1,0.9332957999999962,['n'],1,right,['e'],1,0.15564230000018142,0.2,1,0,FastFast,18,18,Woman,Right,
52,13,1,0.7337339999999131,['n'],1,right,['e'],1,0.1215370999998413,0.2,1,0,FastFast,18,18,Woman,Right,
53,13,1,0.9996020000003227,['c'],0,right,['e'],1,0.22457780000013372,0.1,0,0,FastFast,18,18,Woman,Right,
54,13,1,0.6018687999999202,['n'],1,right,['e'],1,0.03281399999968926,0.1,1,0,FastFast,18,18,Woman,Right,
55,13,1,0.6847256999999445,['c'],1,left,['e'],1,0.05434060000015961,0.1,1,0,FastFast,18,18,Woman,Right,
56,13,1,0.6681523000002016,['c'],1,left,['e'],1,0.09197069999981977,0.4,1,0,FastFast,18,18,Woman,Right,
57,13,1,0.818358100000296,['n'],0,left,['e'],1,0.17010519999985263,0.4,0,0,FastFast,18,18,Woman,Right,
58,13,1,0.6012982000002012,['c'],1,left,['e'],1,0.07777050000004238,0.1,1,0,FastFast,18,18,Woman,Right,
59,13,1,1.2845585000004576,['c'],1,left,['u'],0,0.2989469000003737,0.1,0,0,FastFast,18,18,Woman,Right,
0,14,1,1.0003623000002335,['n'],1,right,['u'],0,0.7826904000003196,0.4,0,0,AccFast,18,18,Woman,Right,
1,14,1,0.4845666999999594,['c'],0,right,['e'],1,0.2859951999998884,0.2,0,0,AccFast,18,18,Woman,Right,
2,14,1,0.6171143999999913,['c'],1,left,['e'],1,0.3010960999999952,0.4,1,0,AccFast,18,18,Woman,Right,
3,14,1,0.850413799999842,['c'],1,left,['e'],1,0.4014348999999129,0.2,1,0,AccFast,18,18,Woman,Right,
4,14,1,0.7684151000003112,['n'],0,left,['u'],0,0.10020369999983814,0.1,1,0,AccFast,18,18,Woman,Right,
5,14,1,0.7349026000001686,['n'],1,right,['e'],1,0.19712220000019443,0.4,1,0,AccFast,18,18,Woman,Right,
6,14,1,0.8485045000006721,['c'],1,left,['e'],1,0.09483670000008715,0.2,1,0,AccFast,18,18,Woman,Right,
7,14,1,0.9335713000000396,['n'],1,right,['e'],1,0.2470578000002206,0.1,1,0,AccFast,18,18,Woman,Right,
8,14,1,1.2000381999996534,['c'],1,left,['e'],1,0.06377379999958066,0.1,1,0,AccFast,18,18,Woman,Right,
9,14,1,2.1341010000005554,['c'],1,left,['e'],1,0.1384701999995741,0.2,1,0,AccFast,18,18,Woman,Right,
10,14,1,0.785282200000438,['n'],1,right,['e'],1,0.19946560000062163,0.2,1,0,AccFast,18,18,Woman,Right,
11,14,1,0.7000326999996105,['c'],0,right,['e'],1,0.0701457000004666,0.1,0,0,AccFast,18,18,Woman,Right,
12,14,1,0.9670059000000037,['n'],1,right,['e'],1,0.11065600000074483,0.4,1,0,AccFast,18,18,Woman,Right,
13,14,1,0.5847479000003659,['c'],0,right,['u'],0,0.0693836000000374,0.1,1,0,AccFast,18,18,Woman,Right,
14,14,1,0.40058370000042487,['n'],1,right,['e'],1,0.10148039999967295,0.1,1,0,AccFast,18,18,Woman,Right,
15,14,1,0.8673806999995577,['n'],1,right,['e'],1,0.12869570000020758,0.4,1,0,AccFast,18,18,Woman,Right,
16,14,1,0.6020562000003338,['c'],1,left,['e'],1,0.1336396999995486,0.2,1,0,AccFast,18,18,Woman,Right,
17,14,1,0.9177835000000414,['c'],1,left,['e'],1,0.1417435999992449,0.1,1,0,AccFast,18,18,Woman,Right,
18,14,1,1.0673440000000483,['c'],1,left,['e'],1,0.32009109999944485,0.4,1,0,AccFast,18,18,Woman,Right,
19,14,1,0.550347000000329,['n'],1,right,['e'],1,0.2727188999997452,0.1,1,0,AccFast,18,18,Woman,Right,
20,14,1,1.150955499999327,['c'],1,left,['e'],1,0.20211749999998574,0.2,1,0,AccFast,18,18,Woman,Right,
21,14,1,0.3180036999992808,['n'],0,left,['e'],1,0.3427310999995825,0.4,0,0,AccFast,18,18,Woman,Right,
22,14,1,1.083259299999554,['n'],0,left,['e'],1,0.11243540000032226,0.2,0,0,AccFast,18,18,Woman,Right,
23,14,1,0.802093799999966,['n'],0,left,['e'],1,0.09430169999995996,0.2,0,0,AccFast,18,18,Woman,Right,
24,14,1,0.43478830000003654,['c'],0,right,['u'],0,0.1396706000004997,0.2,1,0,AccFast,18,18,Woman,Right,
25,14,1,0.46915029999945546,['n'],1,right,['u'],0,0.10286689999975351,0.4,0,0,AccFast,18,18,Woman,Right,
26,14,1,0.9004291999999623,['c'],0,right,['u'],0,0.27216760000010254,0.1,1,0,AccFast,18,18,Woman,Right,
27,14,1,0.7853242000001046,['n'],1,right,['e'],1,0.08826589999989665,0.4,1,0,AccFast,18,18,Woman,Right,
28,14,1,0.7177111000000878,['c'],1,left,['e'],1,0.2350643999998283,0.1,1,0,AccFast,18,18,Woman,Right,
29,14,1,0.7519961999996667,['c'],1,left,['u'],0,0.3094418999999107,0.2,0,0,AccFast,18,18,Woman,Right,
30,14,1,0.9327568999997311,['n'],1,right,['e'],1,0.5197942000004332,0.4,1,0,AccFast,18,18,Woman,Right,
31,14,1,0.9000800000003437,['n'],1,right,['u'],0,0.2569401000000653,0.1,0,0,AccFast,18,18,Woman,Right,
32,14,1,0.44941930000004504,['c'],1,left,['e'],1,0.08730340000056458,0.2,1,0,AccFast,18,18,Woman,Right,
33,14,1,0.6331614999999147,['c'],1,left,['e'],1,0.09293780000007246,0.2,1,0,AccFast,18,18,Woman,Right,
34,14,1,0.7850933999998233,['n'],1,right,['u'],0,0.36356439999963186,0.1,0,0,AccFast,18,18,Woman,Right,
35,14,1,0.6517355999994834,['n'],1,right,['e'],1,0.1971902000004775,0.4,1,0,AccFast,18,18,Woman,Right,
36,14,1,1.1170406999999614,['n'],1,right,['u'],0,0.08355279999977938,0.2,0,0,AccFast,18,18,Woman,Right,
37,14,1,2.8853329000003214,['n'],1,right,['u'],0,0.8147834999999759,0.1,0,0,AccFast,18,18,Woman,Right,
38,14,1,0.851257500000429,['c'],1,left,['e'],1,0.20779940000011266,0.4,1,0,AccFast,18,18,Woman,Right,
39,14,1,0.7331661999996868,['n'],0,left,['e'],1,0.2847701999999117,0.1,0,0,AccFast,18,18,Woman,Right,
40,14,1,0.5354147999996712,['c'],1,left,['e'],1,0.23682759999974223,0.1,1,0,AccFast,18,18,Woman,Right,
41,14,1,0.5673298000001523,['c'],1,left,['e'],1,0.12858400000004622,0.4,1,0,AccFast,18,18,Woman,Right,
42,14,1,0.6680404999997336,['n'],1,right,['e'],1,0.19480340000063734,0.2,1,0,AccFast,18,18,Woman,Right,
43,14,1,0.7339990999998918,['c'],1,left,['e'],1,0.11186859999997978,0.1,1,0,AccFast,18,18,Woman,Right,
44,14,1,0.7507155000002967,['n'],1,right,['u'],0,0.17558699999972305,0.1,0,0,AccFast,18,18,Woman,Right,
45,14,1,0.9019102000002022,['n'],1,right,['u'],0,0.23078220000024885,0.1,0,0,AccFast,18,18,Woman,Right,
46,14,1,0.5840040000002773,['c'],1,left,['u'],0,0.3284208999994007,0.2,0,0,AccFast,18,18,Woman,Right,
47,14,1,1.0848702000002959,['n'],1,right,['e'],1,0.16229919999932463,0.4,1,0,AccFast,18,18,Woman,Right,
48,14,1,0.8851220999995348,['n'],1,right,['u'],0,0.12300669999967795,0.1,0,0,AccFast,18,18,Woman,Right,
49,14,1,0.96780470000067,['n'],1,right,['e'],1,0.06534039999951347,0.4,1,0,AccFast,18,18,Woman,Right,
50,14,1,0.7017569999998159,['c'],1,left,['e'],1,0.11715490000005957,0.4,1,0,AccFast,18,18,Woman,Right,
51,14,1,1.0168690999998944,['n'],1,right,['e'],1,0.26597749999928055,0.4,1,0,AccFast,18,18,Woman,Right,
52,14,1,1.084429900000032,['c'],1,left,['e'],1,0.0540740000005826,0.4,1,0,AccFast,18,18,Woman,Right,
53,14,1,0.6668549999994866,['c'],1,left,['e'],1,0.060183499999766354,0.4,1,0,AccFast,18,18,Woman,Right,
54,14,1,0.6842306000007738,['n'],1,right,['e'],1,0.12859170000047015,0.2,1,0,AccFast,18,18,Woman,Right,
55,14,1,0.7016338000003088,['n'],1,right,['e'],1,0.11355860000003304,0.4,1,0,AccFast,18,18,Woman,Right,
56,14,1,0.636311599999317,['c'],1,left,['e'],1,0.13372500000059517,0.2,1,0,AccFast,18,18,Woman,Right,
57,14,1,0.9670606999998199,['n'],0,left,['e'],1,0.1570953999998892,0.2,0,0,AccFast,18,18,Woman,Right,
58,14,1,1.1687472000003254,['n'],0,left,['u'],0,0.10573740000018006,0.2,1,0,AccFast,18,18,Woman,Right,
59,14,1,0.9509231000001819,['n'],0,left,['u'],0,0.08200239999951009,0.1,1,0,AccFast,18,18,Woman,Right,
0,15,1,1.3345317999992403,['n'],0,left,['u'],0,0.3000640000000203,0.4,1,0,AccAcc,18,18,Woman,Right,
1,15,1,0.916545899999619,['n'],1,right,['e'],1,0.494100900000376,0.4,1,0,AccAcc,18,18,Woman,Right,
2,15,1,1.3683176000004096,['c'],1,left,['u'],0,0.549486999999317,0.2,0,0,AccAcc,18,18,Woman,Right,
3,15,1,1.618328499999734,['n'],0,left,['u'],0,0.36913649999951303,0.1,1,0,AccAcc,18,18,Woman,Right,
4,15,1,0.8339954000002763,['c'],1,left,['e'],1,0.803641599999537,0.4,1,0,AccAcc,18,18,Woman,Right,
5,15,1,0.6833648000001631,['n'],0,left,['e'],1,0.41054740000072343,0.4,0,0,AccAcc,18,18,Woman,Right,
6,15,1,2.317226899999696,['n'],1,right,['u'],0,0.5451441000004706,0.2,0,0,AccAcc,18,18,Woman,Right,
7,15,1,1.1676022000001467,['c'],0,right,['e'],1,0.15826899999956368,0.1,0,0,AccAcc,18,18,Woman,Right,
8,15,1,0.8846860000003289,['c'],1,left,['e'],1,0.08730210000067018,0.2,1,0,AccAcc,18,18,Woman,Right,
9,15,1,0.884746499999892,['c'],1,left,['e'],1,0.17897230000016862,0.1,1,0,AccAcc,18,18,Woman,Right,
10,15,1,0.7991649999994479,['c'],1,left,['u'],0,0.33456680000017514,0.2,0,0,AccAcc,18,18,Woman,Right,
11,15,1,0.9165030000003753,['n'],1,right,['e'],1,0.1901700999997047,0.4,1,0,AccAcc,18,18,Woman,Right,
12,15,1,0.5169036999996024,['c'],1,left,['e'],1,0.1174247999997533,0.2,1,0,AccAcc,18,18,Woman,Right,
13,15,1,0.7846618000003218,['c'],0,right,['u'],0,0.27477010000075097,0.2,1,0,AccAcc,18,18,Woman,Right,
14,15,1,0.9168752999994467,['n'],1,right,['u'],0,0.24571670000023005,0.4,0,0,AccAcc,18,18,Woman,Right,
15,15,1,0.468247099999644,['c'],1,left,['e'],1,0.6994064000000435,0.4,1,0,AccAcc,18,18,Woman,Right,
16,15,1,0.8848253999994995,['n'],0,left,['u'],0,0.15885809999963385,0.2,1,0,AccAcc,18,18,Woman,Right,
17,15,1,0.9179220000005444,['n'],1,right,['e'],1,0.13404289999925822,0.2,1,0,AccAcc,18,18,Woman,Right,
18,15,1,0.9176618000001326,['c'],1,left,['e'],1,0.12601299999914772,0.1,1,0,AccAcc,18,18,Woman,Right,
19,15,1,0.7679435999998532,['n'],1,right,['e'],1,0.2688373999999385,0.1,1,0,AccAcc,18,18,Woman,Right,
20,15,1,0.6678356000002168,['c'],1,left,['e'],1,0.21777860000020155,0.4,1,0,AccAcc,18,18,Woman,Right,
21,15,1,0.6679721000000427,['c'],1,left,['u'],0,0.6329223999991882,0.4,0,0,AccAcc,18,18,Woman,Right,
22,15,1,0.7837635000005321,['n'],0,left,['u'],0,0.5145141000002695,0.1,1,0,AccAcc,18,18,Woman,Right,
23,15,1,0.8501937999999427,['c'],1,left,['e'],1,0.3352519999998549,0.1,1,0,AccAcc,18,18,Woman,Right,
24,15,1,0.8674215000000913,['n'],1,right,['u'],0,0.28846230000090145,0.2,0,0,AccAcc,18,18,Woman,Right,
25,15,1,0.6512378999996145,['n'],1,right,['e'],1,0.4294583999999304,0.4,1,0,AccAcc,18,18,Woman,Right,
26,15,1,1.3343619999996008,['n'],1,right,['e'],1,0.3451735999997254,0.4,1,0,AccAcc,18,18,Woman,Right,
27,15,1,0.633511200000612,['c'],1,left,['e'],1,0.32395589999941876,0.2,1,0,AccAcc,18,18,Woman,Right,
28,15,1,0.701130600000397,['c'],1,left,['e'],1,0.3336861999996472,0.2,1,0,AccAcc,18,18,Woman,Right,
29,15,1,0.6340137999995932,['c'],1,left,['e'],1,0.36119030000008934,0.4,1,0,AccAcc,18,18,Woman,Right,
30,15,1,0.5668255999999019,['n'],1,right,['e'],1,0.32770720000007714,0.4,1,0,AccAcc,18,18,Woman,Right,
31,15,1,0.7508397000001423,['c'],1,left,['e'],1,0.06349000000045635,0.1,1,0,AccAcc,18,18,Woman,Right,
32,15,1,0.6680207999997947,['c'],0,right,['u'],0,0.38749149999966903,0.4,1,0,AccAcc,18,18,Woman,Right,
33,15,1,0.5993876000002274,['n'],1,right,['e'],1,0.30301330000020243,0.2,1,0,AccAcc,18,18,Woman,Right,
34,15,1,0.7344971999991685,['n'],1,right,['e'],1,0.2793010999994294,0.4,1,0,AccAcc,18,18,Woman,Right,
35,15,1,0.6837374999995518,['n'],1,right,['e'],1,0.3549425000001065,0.1,1,0,AccAcc,18,18,Woman,Right,
36,15,1,0.434639099999913,['c'],0,right,['u'],0,0.32585410000046977,0.4,1,0,AccAcc,18,18,Woman,Right,
37,15,1,0.7993619999997463,['c'],1,left,['u'],0,0.8927053999996133,0.2,0,0,AccAcc,18,18,Woman,Right,
38,15,1,1.0178623000001608,['c'],1,left,['u'],0,0.4018226999996841,0.1,0,0,AccAcc,18,18,Woman,Right,
39,15,1,0.7673180000001594,['n'],1,right,['u'],0,0.8216607000003933,0.1,0,0,AccAcc,18,18,Woman,Right,
40,15,1,0.8184231999994154,['c'],1,left,['u'],0,0.2785206000007747,0.2,0,0,AccAcc,18,18,Woman,Right,
41,15,1,0.799821399999928,['c'],1,left,['e'],1,0.3021753999992143,0.1,1,0,AccAcc,18,18,Woman,Right,
42,15,1,0.6174418000000514,['n'],1,right,['e'],1,0.4916526999995767,0.4,1,0,AccAcc,18,18,Woman,Right,
43,15,1,0.8509906999997838,['n'],1,right,['u'],0,0.2797956999993403,0.1,0,0,AccAcc,18,18,Woman,Right,
44,15,1,1.0343361000004734,['c'],0,right,['e'],1,0.18186530000002676,0.1,0,0,AccAcc,18,18,Woman,Right,
45,15,1,1.0331757000003563,['n'],1,right,['e'],1,0.279960700000629,0.2,1,0,AccAcc,18,18,Woman,Right,
46,15,1,0.8842107000000397,['c'],1,left,['e'],1,0.2833098000000973,0.4,1,0,AccAcc,18,18,Woman,Right,
47,15,1,0.70110989999921,['n'],0,left,['u'],0,0.18232739999984915,0.1,1,0,AccAcc,18,18,Woman,Right,
48,15,1,0.5334590000002208,['n'],1,right,['e'],1,0.29925209999964864,0.1,1,0,AccAcc,18,18,Woman,Right,
49,15,1,1.0999996000000465,['n'],1,right,['u'],0,0.19875219999994442,0.1,0,0,AccAcc,18,18,Woman,Right,
50,15,1,0.8007785999998305,['c'],1,left,['e'],1,0.5277955999999904,0.2,1,0,AccAcc,18,18,Woman,Right,
51,15,1,1.567311900000277,['n'],0,left,['u'],0,0.5117008000006535,0.2,1,0,AccAcc,18,18,Woman,Right,
52,15,1,1.4829274000003352,['n'],1,right,['u'],0,0.21123389999956999,0.4,0,0,AccAcc,18,18,Woman,Right,
53,15,1,1.5513006000001042,['c'],0,right,['e'],1,0.09432539999943401,0.1,0,0,AccAcc,18,18,Woman,Right,
54,15,1,0.9488383999996586,['n'],1,right,['u'],0,0.28002550000019255,0.4,0,0,AccAcc,18,18,Woman,Right,
55,15,1,0.6988701999998739,['c'],1,left,['u'],0,0.19524960000035207,0.2,0,0,AccAcc,18,18,Woman,Right,
56,15,1,0.6833720999993602,['n'],0,left,['u'],0,0.1459633999993457,0.1,1,0,AccAcc,18,18,Woman,Right,
57,15,1,0.7503591000004235,['n'],1,right,['u'],0,0.14408240000011574,0.2,0,0,AccAcc,18,18,Woman,Right,
58,15,1,0.918059099999482,['n'],1,right,['u'],0,0.13638120000086928,0.1,0,0,AccAcc,18,18,Woman,Right,
59,15,1,1.0850172999998904,['c'],0,right,['u'],0,0.1221930000001521,0.2,1,0,AccAcc,18,18,Woman,Right,
