withinblocktrial,block,block_repetition,rt,resp,cor,cresp,conf_press,cj,rtconf,coherence,metacognition,slow_trial,manipulation,sub,age,gender,handedness,
0,1,1,3.9341283000003386,['n'],1,right,none,-99,-99,0.5,-99,0,none,14,18,Woman,Right,
1,1,1,1.8006376999983331,['c'],0,right,none,-99,-99,0.5,-99,0,none,14,18,Woman,Right,
2,1,1,4.317391700000371,['c'],1,left,none,-99,-99,0.5,-99,0,none,14,18,Woman,Right,
3,1,1,0.7991374000012001,['n'],1,right,none,-99,-99,0.5,-99,0,none,14,18,Woman,Right,
4,1,1,2.8504894000016066,['n'],0,left,none,-99,-99,0.5,-99,0,none,14,18,Woman,Right,
5,1,1,5.016084100001535,x,-99,left,none,-99,-99,0.5,-99,1,none,14,18,Woman,Right,
6,1,1,1.083730000000287,['n'],0,left,none,-99,-99,0.5,-99,0,none,14,18,Woman,Right,
7,1,1,3.199412099998881,['c'],0,right,none,-99,-99,0.5,-99,0,none,14,18,Woman,Right,
8,1,1,2.2343236999986402,['c'],1,left,none,-99,-99,0.5,-99,0,none,14,18,Woman,Right,
9,1,1,3.3836112999997567,['n'],0,left,none,-99,-99,0.5,-99,0,none,14,18,Woman,Right,
10,1,1,1.8838274999998248,['n'],1,right,none,-99,-99,0.5,-99,0,none,14,18,Woman,Right,
11,1,1,2.20110989999921,['c'],0,right,none,-99,-99,0.5,-99,0,none,14,18,Woman,Right,
12,1,1,1.2830794000001333,['n'],1,right,none,-99,-99,0.5,-99,0,none,14,18,Woman,Right,
13,1,1,0.6835062999998627,['c'],1,left,none,-99,-99,0.5,-99,0,none,14,18,Woman,Right,
14,1,1,0.6004099000001588,['n'],0,left,none,-99,-99,0.5,-99,0,none,14,18,Woman,Right,
15,1,1,2.068181700000423,['c'],0,right,none,-99,-99,0.5,-99,0,none,14,18,Woman,Right,
16,1,1,1.0157404999990831,['n'],0,left,none,-99,-99,0.5,-99,0,none,14,18,Woman,Right,
17,1,1,0.9509711999999126,['n'],0,left,none,-99,-99,0.5,-99,0,none,14,18,Woman,Right,
18,1,1,2.000207400000363,['n'],1,right,none,-99,-99,0.5,-99,0,none,14,18,Woman,Right,
19,1,1,3.2006313999991107,['n'],1,right,none,-99,-99,0.5,-99,0,none,14,18,Woman,Right,
20,1,1,0.8347407000001112,['c'],1,left,none,-99,-99,0.5,-99,0,none,14,18,Woman,Right,
21,1,1,0.8164723999998387,['n'],0,left,none,-99,-99,0.5,-99,0,none,14,18,Woman,Right,
22,1,1,1.0336702999993577,['n'],1,right,none,-99,-99,0.5,-99,0,none,14,18,Woman,Right,
23,1,1,1.4341504000003624,['c'],0,right,none,-99,-99,0.5,-99,0,none,14,18,Woman,Right,
0,1,2,1.2345948000001954,['n'],0,left,none,-99,-99,0.5,-99,0,none,14,18,Woman,Right,
1,1,2,0.7170224000001326,['n'],0,left,none,-99,-99,0.5,-99,0,none,14,18,Woman,Right,
2,1,2,0.6511087000017142,['n'],0,left,none,-99,-99,0.5,-99,0,none,14,18,Woman,Right,
3,1,2,0.8675158999994892,['n'],1,right,none,-99,-99,0.5,-99,0,none,14,18,Woman,Right,
4,1,2,1.8173733000003267,['n'],1,right,none,-99,-99,0.5,-99,0,none,14,18,Woman,Right,
5,1,2,2.1004090000005817,['n'],1,right,none,-99,-99,0.5,-99,0,none,14,18,Woman,Right,
6,1,2,2.8332059000003937,['c'],1,left,none,-99,-99,0.5,-99,0,none,14,18,Woman,Right,
7,1,2,1.216859199999817,['c'],1,left,none,-99,-99,0.5,-99,0,none,14,18,Woman,Right,
8,1,2,1.3514472999995633,['n'],1,right,none,-99,-99,0.5,-99,0,none,14,18,Woman,Right,
9,1,2,0.8826986000003672,['n'],0,left,none,-99,-99,0.5,-99,0,none,14,18,Woman,Right,
10,1,2,2.467720599999666,['n'],1,right,none,-99,-99,0.5,-99,0,none,14,18,Woman,Right,
11,1,2,1.5004427000003489,['c'],1,left,none,-99,-99,0.5,-99,0,none,14,18,Woman,Right,
12,1,2,1.9343518000005133,['n'],0,left,none,-99,-99,0.5,-99,0,none,14,18,Woman,Right,
13,1,2,1.2343547000000399,['n'],0,left,none,-99,-99,0.5,-99,0,none,14,18,Woman,Right,
14,1,2,1.1504586999999447,['n'],1,right,none,-99,-99,0.5,-99,0,none,14,18,Woman,Right,
15,1,2,1.2170161999983975,['c'],1,left,none,-99,-99,0.5,-99,0,none,14,18,Woman,Right,
16,1,2,1.8506328999992547,['n'],0,left,none,-99,-99,0.5,-99,0,none,14,18,Woman,Right,
17,1,2,3.3003367000001163,['n'],1,right,none,-99,-99,0.5,-99,0,none,14,18,Woman,Right,
18,1,2,2.01714979999997,['n'],1,right,none,-99,-99,0.5,-99,0,none,14,18,Woman,Right,
19,1,2,1.4827559999994264,['c'],0,right,none,-99,-99,0.5,-99,0,none,14,18,Woman,Right,
20,1,2,0.800418400000126,['c'],1,left,none,-99,-99,0.5,-99,0,none,14,18,Woman,Right,
21,1,2,2.332767200001399,['c'],0,right,none,-99,-99,0.5,-99,0,none,14,18,Woman,Right,
22,1,2,1.315738199999032,['n'],1,right,none,-99,-99,0.5,-99,0,none,14,18,Woman,Right,
23,1,2,1.4844213999986096,['n'],1,right,none,-99,-99,0.5,-99,0,none,14,18,Woman,Right,
0,1,3,1.284351999998762,['n'],0,left,none,-99,-99,0.5,-99,0,none,14,18,Woman,Right,
1,1,3,1.0674596999997448,['n'],0,left,none,-99,-99,0.5,-99,0,none,14,18,Woman,Right,
2,1,3,1.3666851999987557,['c'],0,right,none,-99,-99,0.5,-99,0,none,14,18,Woman,Right,
3,1,3,0.41632019999997283,['n'],1,right,none,-99,-99,0.5,-99,0,none,14,18,Woman,Right,
4,1,3,0.45110439999916707,['c'],1,left,none,-99,-99,0.5,-99,0,none,14,18,Woman,Right,
5,1,3,0.9006294999999227,['c'],0,right,none,-99,-99,0.5,-99,0,none,14,18,Woman,Right,
6,1,3,2.100908000000345,['n'],0,left,none,-99,-99,0.5,-99,0,none,14,18,Woman,Right,
7,1,3,1.3995281999996223,['c'],1,left,none,-99,-99,0.5,-99,0,none,14,18,Woman,Right,
8,1,3,0.9003914999993867,['n'],1,right,none,-99,-99,0.5,-99,0,none,14,18,Woman,Right,
9,1,3,1.9007849999998143,['c'],0,right,none,-99,-99,0.5,-99,0,none,14,18,Woman,Right,
10,1,3,1.250772199999119,['c'],0,right,none,-99,-99,0.5,-99,0,none,14,18,Woman,Right,
11,1,3,1.4006056999987777,['c'],1,left,none,-99,-99,0.5,-99,0,none,14,18,Woman,Right,
12,1,3,1.1331331999990653,['c'],1,left,none,-99,-99,0.5,-99,0,none,14,18,Woman,Right,
13,1,3,0.9678746999998111,['n'],1,right,none,-99,-99,0.5,-99,0,none,14,18,Woman,Right,
14,1,3,1.0508160999997926,['n'],0,left,none,-99,-99,0.5,-99,0,none,14,18,Woman,Right,
15,1,3,1.0666903000001184,['c'],0,right,none,-99,-99,0.5,-99,0,none,14,18,Woman,Right,
16,1,3,2.217509500000233,['n'],0,left,none,-99,-99,0.5,-99,0,none,14,18,Woman,Right,
17,1,3,1.3330100000002858,['n'],0,left,none,-99,-99,0.5,-99,0,none,14,18,Woman,Right,
18,1,3,0.4161858999996184,['n'],1,right,none,-99,-99,0.5,-99,0,none,14,18,Woman,Right,
19,1,3,0.9674498999993375,['n'],0,left,none,-99,-99,0.5,-99,0,none,14,18,Woman,Right,
20,1,3,0.849848199999542,['c'],0,right,none,-99,-99,0.5,-99,0,none,14,18,Woman,Right,
21,1,3,0.4176390000011452,['c'],0,right,none,-99,-99,0.5,-99,0,none,14,18,Woman,Right,
22,1,3,0.4831761000004917,['c'],1,left,none,-99,-99,0.5,-99,0,none,14,18,Woman,Right,
23,1,3,2.9830400999999256,['n'],1,right,none,-99,-99,0.5,-99,0,none,14,18,Woman,Right,
0,1,4,2.767182600000524,['c'],0,right,none,-99,-99,0.5,-99,0,none,14,18,Woman,Right,
1,1,4,1.4336335000007239,['c'],1,left,none,-99,-99,0.5,-99,0,none,14,18,Woman,Right,
2,1,4,2.4661575999998604,['n'],0,left,none,-99,-99,0.5,-99,0,none,14,18,Woman,Right,
3,1,4,2.616687699999602,['n'],1,right,none,-99,-99,0.5,-99,0,none,14,18,Woman,Right,
4,1,4,1.9836170999988099,['c'],1,left,none,-99,-99,0.5,-99,0,none,14,18,Woman,Right,
5,1,4,1.8008270999998786,['n'],1,right,none,-99,-99,0.5,-99,0,none,14,18,Woman,Right,
6,1,4,2.350179000000935,['c'],0,right,none,-99,-99,0.5,-99,0,none,14,18,Woman,Right,
7,1,4,1.5501287999995839,['c'],0,right,none,-99,-99,0.5,-99,0,none,14,18,Woman,Right,
8,1,4,0.9507417000004352,['c'],1,left,none,-99,-99,0.5,-99,0,none,14,18,Woman,Right,
9,1,4,1.7661165999998047,['n'],0,left,none,-99,-99,0.5,-99,0,none,14,18,Woman,Right,
10,1,4,0.5669749999997293,['n'],1,right,none,-99,-99,0.5,-99,0,none,14,18,Woman,Right,
11,1,4,1.6003436999999394,['n'],0,left,none,-99,-99,0.5,-99,0,none,14,18,Woman,Right,
12,1,4,1.816677400000117,['n'],1,right,none,-99,-99,0.5,-99,0,none,14,18,Woman,Right,
13,1,4,2.78358549999939,['c'],0,right,none,-99,-99,0.5,-99,0,none,14,18,Woman,Right,
14,1,4,1.9341947000011714,['n'],1,right,none,-99,-99,0.5,-99,0,none,14,18,Woman,Right,
15,1,4,2.766868100001375,['n'],0,left,none,-99,-99,0.5,-99,0,none,14,18,Woman,Right,
16,1,4,2.266873900000064,['n'],1,right,none,-99,-99,0.5,-99,0,none,14,18,Woman,Right,
17,1,4,2.2505670999998983,['c'],0,right,none,-99,-99,0.5,-99,0,none,14,18,Woman,Right,
18,1,4,1.0846330000003945,['c'],1,left,none,-99,-99,0.5,-99,0,none,14,18,Woman,Right,
19,1,4,2.8827530999988085,['c'],1,left,none,-99,-99,0.5,-99,0,none,14,18,Woman,Right,
20,1,4,1.200452099999893,['c'],1,left,none,-99,-99,0.5,-99,0,none,14,18,Woman,Right,
21,1,4,2.0172053999995114,['n'],0,left,none,-99,-99,0.5,-99,0,none,14,18,Woman,Right,
22,1,4,0.8509885000003123,['n'],0,left,none,-99,-99,0.5,-99,0,none,14,18,Woman,Right,
23,1,4,0.3498217999986082,['n'],1,right,none,-99,-99,0.5,-99,0,none,14,18,Woman,Right,
0,1,5,2.133500300000378,['c'],0,right,none,-99,-99,0.5,-99,0,none,14,18,Woman,Right,
1,1,5,1.2503444999983913,['c'],1,left,none,-99,-99,0.5,-99,0,none,14,18,Woman,Right,
2,1,5,1.8836336999993364,['c'],1,left,none,-99,-99,0.5,-99,0,none,14,18,Woman,Right,
3,1,5,1.833670500000153,['n'],0,left,none,-99,-99,0.5,-99,0,none,14,18,Woman,Right,
4,1,5,0.4173584000000119,['n'],1,right,none,-99,-99,0.5,-99,0,none,14,18,Woman,Right,
5,1,5,1.8334408000009716,['n'],1,right,none,-99,-99,0.5,-99,0,none,14,18,Woman,Right,
6,1,5,1.5836524000005738,['c'],1,left,none,-99,-99,0.5,-99,0,none,14,18,Woman,Right,
7,1,5,1.6666218999998819,['n'],1,right,none,-99,-99,0.5,-99,0,none,14,18,Woman,Right,
8,1,5,1.3012554999986605,['c'],1,left,none,-99,-99,0.5,-99,0,none,14,18,Woman,Right,
9,1,5,1.61778779999986,['c'],1,left,none,-99,-99,0.5,-99,0,none,14,18,Woman,Right,
10,1,5,2.566332099999272,['n'],0,left,none,-99,-99,0.5,-99,0,none,14,18,Woman,Right,
11,1,5,1.8005966000000626,['n'],1,right,none,-99,-99,0.5,-99,0,none,14,18,Woman,Right,
12,1,5,2.9161401000001206,['c'],0,right,none,-99,-99,0.5,-99,0,none,14,18,Woman,Right,
13,1,5,2.9669198999999935,['c'],1,left,none,-99,-99,0.5,-99,0,none,14,18,Woman,Right,
14,1,5,1.984902600001078,['c'],0,right,none,-99,-99,0.5,-99,0,none,14,18,Woman,Right,
15,1,5,2.833526200000051,['n'],1,right,none,-99,-99,0.5,-99,0,none,14,18,Woman,Right,
16,1,5,2.6015196000007563,['n'],1,right,none,-99,-99,0.5,-99,0,none,14,18,Woman,Right,
17,1,5,2.4847655999983544,['n'],0,left,none,-99,-99,0.5,-99,0,none,14,18,Woman,Right,
18,1,5,2.700482300000658,['n'],0,left,none,-99,-99,0.5,-99,0,none,14,18,Woman,Right,
19,1,5,1.6170882999995229,['n'],0,left,none,-99,-99,0.5,-99,0,none,14,18,Woman,Right,
20,1,5,1.6171720000002097,['n'],1,right,none,-99,-99,0.5,-99,0,none,14,18,Woman,Right,
21,1,5,2.783394699999917,['c'],0,right,none,-99,-99,0.5,-99,0,none,14,18,Woman,Right,
22,1,5,2.700462400000106,['n'],1,right,none,-99,-99,0.5,-99,0,none,14,18,Woman,Right,
23,1,5,2.816790299999411,['n'],0,left,none,-99,-99,0.5,-99,0,none,14,18,Woman,Right,
0,1,6,3.2845441999998,['c'],0,right,none,-99,-99,0.5,-99,0,none,14,18,Woman,Right,
1,1,6,2.0162485000000743,['c'],1,left,none,-99,-99,0.5,-99,0,none,14,18,Woman,Right,
2,1,6,1.2497204000010242,['c'],0,right,none,-99,-99,0.5,-99,0,none,14,18,Woman,Right,
3,1,6,0.7165894999998272,['c'],1,left,none,-99,-99,0.5,-99,0,none,14,18,Woman,Right,
4,1,6,1.9499801000001753,['n'],1,right,none,-99,-99,0.5,-99,0,none,14,18,Woman,Right,
5,1,6,1.61672229999931,['c'],1,left,none,-99,-99,0.5,-99,0,none,14,18,Woman,Right,
6,1,6,1.2168600999993942,['n'],0,left,none,-99,-99,0.5,-99,0,none,14,18,Woman,Right,
7,1,6,0.7841404999999213,['n'],0,left,none,-99,-99,0.5,-99,0,none,14,18,Woman,Right,
8,1,6,0.9346483000008448,['n'],1,right,none,-99,-99,0.5,-99,0,none,14,18,Woman,Right,
9,1,6,1.2339804999992339,['c'],1,left,none,-99,-99,0.5,-99,0,none,14,18,Woman,Right,
10,1,6,0.899855400000888,['c'],1,left,none,-99,-99,0.5,-99,0,none,14,18,Woman,Right,
11,1,6,0.6681487000005291,['c'],1,left,none,-99,-99,0.5,-99,0,none,14,18,Woman,Right,
12,1,6,1.5834116000005451,['n'],1,right,none,-99,-99,0.5,-99,0,none,14,18,Woman,Right,
13,1,6,2.383832199999233,['n'],1,right,none,-99,-99,0.5,-99,0,none,14,18,Woman,Right,
14,1,6,1.6497541000007914,['c'],0,right,none,-99,-99,0.5,-99,0,none,14,18,Woman,Right,
15,1,6,1.966646299999411,['c'],0,right,none,-99,-99,0.5,-99,0,none,14,18,Woman,Right,
16,1,6,0.8503692000012961,['c'],1,left,none,-99,-99,0.5,-99,0,none,14,18,Woman,Right,
17,1,6,1.4991315999996004,['c'],0,right,none,-99,-99,0.5,-99,0,none,14,18,Woman,Right,
18,1,6,1.8171094999997877,['n'],1,right,none,-99,-99,0.5,-99,0,none,14,18,Woman,Right,
19,1,6,2.466636399998606,['c'],0,right,none,-99,-99,0.5,-99,0,none,14,18,Woman,Right,
20,1,6,0.4677150999996229,['c'],1,left,none,-99,-99,0.5,-99,0,none,14,18,Woman,Right,
21,1,6,2.233181699999477,['c'],1,left,none,-99,-99,0.5,-99,0,none,14,18,Woman,Right,
22,1,6,3.617224999999962,['n'],1,right,none,-99,-99,0.5,-99,0,none,14,18,Woman,Right,
23,1,6,3.7169551000006322,['c'],1,left,none,-99,-99,0.5,-99,0,none,14,18,Woman,Right,
0,1,7,2.251422999999704,['c'],0,right,none,-99,-99,0.5,-99,0,none,14,18,Woman,Right,
1,1,7,2.5341284000005544,['c'],1,left,none,-99,-99,0.5,-99,0,none,14,18,Woman,Right,
2,1,7,1.4337027000001399,['n'],1,right,none,-99,-99,0.5,-99,0,none,14,18,Woman,Right,
3,1,7,2.017356899999868,['c'],0,right,none,-99,-99,0.5,-99,0,none,14,18,Woman,Right,
4,1,7,1.4686411000002408,['c'],0,right,none,-99,-99,0.5,-99,0,none,14,18,Woman,Right,
5,1,7,1.4840210000002116,['c'],1,left,none,-99,-99,0.5,-99,0,none,14,18,Woman,Right,
6,1,7,2.4844529000001785,['c'],0,right,none,-99,-99,0.5,-99,0,none,14,18,Woman,Right,
7,1,7,0.8169084000001021,['c'],1,left,none,-99,-99,0.5,-99,0,none,14,18,Woman,Right,
8,1,7,1.5340060999988054,['c'],1,left,none,-99,-99,0.5,-99,0,none,14,18,Woman,Right,
9,1,7,1.4823356999986572,['n'],0,left,none,-99,-99,0.5,-99,0,none,14,18,Woman,Right,
10,1,7,2.5184639999988576,['n'],0,left,none,-99,-99,0.5,-99,0,none,14,18,Woman,Right,
11,1,7,3.3508521000003384,['n'],1,right,none,-99,-99,0.5,-99,0,none,14,18,Woman,Right,
12,1,7,2.684031099999629,['n'],1,right,none,-99,-99,0.5,-99,0,none,14,18,Woman,Right,
13,1,7,1.250783200001024,['c'],0,right,none,-99,-99,0.5,-99,0,none,14,18,Woman,Right,
14,1,7,2.3005240999991656,['n'],1,right,none,-99,-99,0.5,-99,0,none,14,18,Woman,Right,
15,1,7,1.3007403000010527,['c'],1,left,none,-99,-99,0.5,-99,0,none,14,18,Woman,Right,
16,1,7,1.4336113000008481,['c'],0,right,none,-99,-99,0.5,-99,0,none,14,18,Woman,Right,
17,1,7,0.9329472999997961,['c'],1,left,none,-99,-99,0.5,-99,0,none,14,18,Woman,Right,
18,1,7,2.532707100001062,['n'],1,right,none,-99,-99,0.5,-99,0,none,14,18,Woman,Right,
19,1,7,1.53261190000012,['n'],0,left,none,-99,-99,0.5,-99,0,none,14,18,Woman,Right,
20,1,7,2.3173357999985456,['n'],0,left,none,-99,-99,0.5,-99,0,none,14,18,Woman,Right,
21,1,7,2.7341436999995494,['c'],1,left,none,-99,-99,0.5,-99,0,none,14,18,Woman,Right,
22,1,7,1.9006526000011945,['n'],1,right,none,-99,-99,0.5,-99,0,none,14,18,Woman,Right,
23,1,7,0.9341898000002402,['c'],1,left,none,-99,-99,0.5,-99,0,none,14,18,Woman,Right,
0,1,8,1.61774990000049,['c'],1,left,none,-99,-99,0.5,-99,0,none,14,18,Woman,Right,
1,1,8,1.6332740999987436,['n'],0,left,none,-99,-99,0.5,-99,0,none,14,18,Woman,Right,
2,1,8,0.8346881000015856,['n'],1,right,none,-99,-99,0.5,-99,0,none,14,18,Woman,Right,
3,1,8,1.8007219999999506,['c'],0,right,none,-99,-99,0.5,-99,0,none,14,18,Woman,Right,
4,1,8,1.8009358999988763,['c'],0,right,none,-99,-99,0.5,-99,0,none,14,18,Woman,Right,
5,1,8,0.6175299000005907,['c'],0,right,none,-99,-99,0.5,-99,0,none,14,18,Woman,Right,
6,1,8,0.533805900000516,['c'],1,left,none,-99,-99,0.5,-99,0,none,14,18,Woman,Right,
7,1,8,1.2507347999999183,['n'],0,left,none,-99,-99,0.5,-99,0,none,14,18,Woman,Right,
8,1,8,0.8665165000002162,['c'],1,left,none,-99,-99,0.5,-99,0,none,14,18,Woman,Right,
9,1,8,1.6669435999992857,['n'],1,right,none,-99,-99,0.5,-99,0,none,14,18,Woman,Right,
10,1,8,3.2676272000007884,['c'],1,left,none,-99,-99,0.5,-99,0,none,14,18,Woman,Right,
11,1,8,1.8338809999986552,['c'],1,left,none,-99,-99,0.5,-99,0,none,14,18,Woman,Right,
12,1,8,1.48279999999977,['c'],0,right,none,-99,-99,0.5,-99,0,none,14,18,Woman,Right,
13,1,8,1.8337013000000297,['n'],1,right,none,-99,-99,0.5,-99,0,none,14,18,Woman,Right,
14,1,8,2.150034099999175,['c'],1,left,none,-99,-99,0.5,-99,0,none,14,18,Woman,Right,
15,1,8,1.5665320999996766,['n'],1,right,none,-99,-99,0.5,-99,0,none,14,18,Woman,Right,
16,1,8,1.7501219999994646,['n'],0,left,none,-99,-99,0.5,-99,0,none,14,18,Woman,Right,
17,1,8,1.8835388999996212,['n'],0,left,none,-99,-99,0.5,-99,0,none,14,18,Woman,Right,
18,1,8,0.7336830000003829,['n'],0,left,none,-99,-99,0.5,-99,0,none,14,18,Woman,Right,
19,1,8,1.4665894999998272,['n'],1,right,none,-99,-99,0.5,-99,0,none,14,18,Woman,Right,
20,1,8,1.4843474999997852,['c'],0,right,none,-99,-99,0.5,-99,0,none,14,18,Woman,Right,
21,1,8,2.333070200000293,['c'],1,left,none,-99,-99,0.5,-99,0,none,14,18,Woman,Right,
22,1,8,2.4330098000009457,['c'],0,right,none,-99,-99,0.5,-99,0,none,14,18,Woman,Right,
23,1,8,2.0338589000002685,['n'],1,right,none,-99,-99,0.5,-99,0,none,14,18,Woman,Right,
0,1,9,5.016542000001209,x,-99,right,none,-99,-99,0.5,-99,1,none,14,18,Woman,Right,
1,1,9,0.8839195999989897,['c'],1,left,none,-99,-99,0.5,-99,0,none,14,18,Woman,Right,
2,1,9,1.0322617000001628,['n'],0,left,none,-99,-99,0.5,-99,0,none,14,18,Woman,Right,
3,1,9,0.41697670000030485,['n'],0,left,none,-99,-99,0.5,-99,0,none,14,18,Woman,Right,
4,1,9,0.6838017000009131,['n'],0,left,none,-99,-99,0.5,-99,0,none,14,18,Woman,Right,
5,1,9,0.8325187999998889,['n'],1,right,none,-99,-99,0.5,-99,0,none,14,18,Woman,Right,
6,1,9,0.7675817999988794,['n'],1,right,none,-99,-99,0.5,-99,0,none,14,18,Woman,Right,
7,1,9,1.6508876000007149,['c'],1,left,none,-99,-99,0.5,-99,0,none,14,18,Woman,Right,
8,1,9,1.7500187999994523,['c'],1,left,none,-99,-99,0.5,-99,0,none,14,18,Woman,Right,
9,1,9,1.5832465999992564,['n'],1,right,none,-99,-99,0.5,-99,0,none,14,18,Woman,Right,
10,1,9,1.750225199999477,['c'],0,right,none,-99,-99,0.5,-99,0,none,14,18,Woman,Right,
11,1,9,0.41756319999876723,['c'],1,left,none,-99,-99,0.5,-99,0,none,14,18,Woman,Right,
12,1,9,0.6175201000005472,['c'],1,left,none,-99,-99,0.5,-99,0,none,14,18,Woman,Right,
13,1,9,0.2671454999999696,['n'],0,left,none,-99,-99,0.5,-99,0,none,14,18,Woman,Right,
14,1,9,0.2992783000008785,['n'],1,right,none,-99,-99,0.5,-99,0,none,14,18,Woman,Right,
15,1,9,0.05065439999998489,['n'],1,right,none,-99,-99,0.5,-99,0,none,14,18,Woman,Right,
16,1,9,0.40143710000120336,['c'],0,right,none,-99,-99,0.5,-99,0,none,14,18,Woman,Right,
17,1,9,0.2993612000009307,['c'],1,left,none,-99,-99,0.5,-99,0,none,14,18,Woman,Right,
18,1,9,0.3002468000013323,['c'],0,right,none,-99,-99,0.5,-99,0,none,14,18,Woman,Right,
19,1,9,1.3152372999993531,['c'],0,right,none,-99,-99,0.5,-99,0,none,14,18,Woman,Right,
20,1,9,0.34968990000015765,['c'],0,right,none,-99,-99,0.5,-99,0,none,14,18,Woman,Right,
21,1,9,1.3835639000008086,['c'],1,left,none,-99,-99,0.5,-99,0,none,14,18,Woman,Right,
22,1,9,1.0172400999999809,['c'],0,right,none,-99,-99,0.5,-99,0,none,14,18,Woman,Right,
23,1,9,0.4331982000003336,['n'],0,left,none,-99,-99,0.5,-99,0,none,14,18,Woman,Right,
0,1,10,1.151627000001099,['n'],0,left,none,-99,-99,0.5,-99,0,none,14,18,Woman,Right,
1,1,10,1.6833670000014536,['c'],0,right,none,-99,-99,0.5,-99,0,none,14,18,Woman,Right,
2,1,10,1.400902400000632,['c'],0,right,none,-99,-99,0.5,-99,0,none,14,18,Woman,Right,
3,1,10,1.9003315000009025,['c'],1,left,none,-99,-99,0.5,-99,0,none,14,18,Woman,Right,
4,1,10,2.4176791999998386,['c'],1,left,none,-99,-99,0.5,-99,0,none,14,18,Woman,Right,
5,1,10,1.9517143000011856,['n'],1,right,none,-99,-99,0.5,-99,0,none,14,18,Woman,Right,
6,1,10,2.71725940000033,['c'],0,right,none,-99,-99,0.5,-99,0,none,14,18,Woman,Right,
7,1,10,1.834327900000062,['n'],1,right,none,-99,-99,0.5,-99,0,none,14,18,Woman,Right,
8,1,10,2.8661557999985234,['n'],0,left,none,-99,-99,0.5,-99,0,none,14,18,Woman,Right,
9,1,10,1.8336029000001872,['n'],0,left,none,-99,-99,0.5,-99,0,none,14,18,Woman,Right,
10,1,10,2.167001899999377,['n'],1,right,none,-99,-99,0.5,-99,0,none,14,18,Woman,Right,
11,1,10,1.300661500001297,['c'],1,left,none,-99,-99,0.5,-99,0,none,14,18,Woman,Right,
12,1,10,1.64951690000089,['n'],1,right,none,-99,-99,0.5,-99,0,none,14,18,Woman,Right,
13,1,10,2.5003780000006373,['c'],0,right,none,-99,-99,0.5,-99,0,none,14,18,Woman,Right,
14,1,10,2.650358500000948,['c'],1,left,none,-99,-99,0.5,-99,0,none,14,18,Woman,Right,
15,1,10,2.4007956000004924,['c'],1,left,none,-99,-99,0.5,-99,0,none,14,18,Woman,Right,
16,1,10,1.1340645999989647,['n'],0,left,none,-99,-99,0.5,-99,0,none,14,18,Woman,Right,
17,1,10,0.8167668000005506,['n'],1,right,none,-99,-99,0.5,-99,0,none,14,18,Woman,Right,
18,1,10,2.3169066999998904,['n'],0,left,none,-99,-99,0.5,-99,0,none,14,18,Woman,Right,
19,1,10,0.950319400000808,['n'],1,right,none,-99,-99,0.5,-99,0,none,14,18,Woman,Right,
20,1,10,0.5325556000007055,['c'],0,right,none,-99,-99,0.5,-99,0,none,14,18,Woman,Right,
21,1,10,0.9007026999988739,['c'],1,left,none,-99,-99,0.5,-99,0,none,14,18,Woman,Right,
22,1,10,1.8171313000002556,['n'],0,left,none,-99,-99,0.5,-99,0,none,14,18,Woman,Right,
23,1,10,1.050702700000329,['n'],1,right,none,-99,-99,0.5,-99,0,none,14,18,Woman,Right,
0,1,11,3.33382150000034,['n'],1,right,none,-99,-99,0.5,-99,0,none,14,18,Woman,Right,
1,1,11,1.6164310000003752,['c'],0,right,none,-99,-99,0.5,-99,0,none,14,18,Woman,Right,
2,1,11,0.5993651000007958,['c'],1,left,none,-99,-99,0.5,-99,0,none,14,18,Woman,Right,
3,1,11,2.417831299999307,['c'],1,left,none,-99,-99,0.5,-99,0,none,14,18,Woman,Right,
4,1,11,2.767362200000207,['n'],0,left,none,-99,-99,0.5,-99,0,none,14,18,Woman,Right,
5,1,11,1.300589200000104,['n'],0,left,none,-99,-99,0.5,-99,0,none,14,18,Woman,Right,
6,1,11,0.733244700000796,['n'],0,left,none,-99,-99,0.5,-99,0,none,14,18,Woman,Right,
7,1,11,0.43349339999986114,['n'],1,right,none,-99,-99,0.5,-99,0,none,14,18,Woman,Right,
8,1,11,2.6667975000000297,['n'],1,right,none,-99,-99,0.5,-99,0,none,14,18,Woman,Right,
9,1,11,1.9003076999997575,['c'],1,left,none,-99,-99,0.5,-99,0,none,14,18,Woman,Right,
10,1,11,2.9835815000005823,['c'],1,left,none,-99,-99,0.5,-99,0,none,14,18,Woman,Right,
11,1,11,1.8166793000000325,['c'],1,left,none,-99,-99,0.5,-99,0,none,14,18,Woman,Right,
12,1,11,1.3175898000008601,['n'],0,left,none,-99,-99,0.5,-99,0,none,14,18,Woman,Right,
13,1,11,3.101151299999401,['n'],0,left,none,-99,-99,0.5,-99,0,none,14,18,Woman,Right,
14,1,11,1.0000461999989056,['n'],1,right,none,-99,-99,0.5,-99,0,none,14,18,Woman,Right,
15,1,11,1.1172424999986106,['n'],0,left,none,-99,-99,0.5,-99,0,none,14,18,Woman,Right,
16,1,11,0.6677597999987483,['c'],1,left,none,-99,-99,0.5,-99,0,none,14,18,Woman,Right,
17,1,11,0.5667181000007986,['c'],0,right,none,-99,-99,0.5,-99,0,none,14,18,Woman,Right,
18,1,11,1.9164621999989322,['c'],0,right,none,-99,-99,0.5,-99,0,none,14,18,Woman,Right,
19,1,11,1.8993996000008337,['n'],1,right,none,-99,-99,0.5,-99,0,none,14,18,Woman,Right,
20,1,11,1.9338870999999926,['c'],0,right,none,-99,-99,0.5,-99,0,none,14,18,Woman,Right,
21,1,11,0.8830713000006654,['n'],1,right,none,-99,-99,0.5,-99,0,none,14,18,Woman,Right,
22,1,11,1.8843863000001875,['c'],0,right,none,-99,-99,0.5,-99,0,none,14,18,Woman,Right,
23,1,11,2.433763300001374,['c'],0,right,none,-99,-99,0.5,-99,0,none,14,18,Woman,Right,
0,1,12,3.0512567999994644,['n'],0,left,none,-99,-99,0.5,-99,0,none,14,18,Woman,Right,
1,1,12,0.9676567000005889,['n'],0,left,none,-99,-99,0.5,-99,0,none,14,18,Woman,Right,
2,1,12,1.8666718999993464,['n'],0,left,none,-99,-99,0.5,-99,0,none,14,18,Woman,Right,
3,1,12,2.11718269999983,['n'],1,right,none,-99,-99,0.5,-99,0,none,14,18,Woman,Right,
4,1,12,2.3999344000003475,['c'],1,left,none,-99,-99,0.5,-99,0,none,14,18,Woman,Right,
5,1,12,1.8174877999990713,['c'],0,right,none,-99,-99,0.5,-99,0,none,14,18,Woman,Right,
6,1,12,0.965608999998949,['c'],0,right,none,-99,-99,0.5,-99,0,none,14,18,Woman,Right,
7,1,12,0.36708510000062233,['c'],1,left,none,-99,-99,0.5,-99,0,none,14,18,Woman,Right,
8,1,12,1.9842691000012564,['c'],0,right,none,-99,-99,0.5,-99,0,none,14,18,Woman,Right,
9,1,12,2.134003200000734,['n'],0,left,none,-99,-99,0.5,-99,0,none,14,18,Woman,Right,
10,1,12,1.5163951000013185,['n'],1,right,none,-99,-99,0.5,-99,0,none,14,18,Woman,Right,
11,1,12,1.883049199999732,['n'],1,right,none,-99,-99,0.5,-99,0,none,14,18,Woman,Right,
12,1,12,1.7831762000005256,['n'],0,left,none,-99,-99,0.5,-99,0,none,14,18,Woman,Right,
13,1,12,1.4842080999987957,['n'],1,right,none,-99,-99,0.5,-99,0,none,14,18,Woman,Right,
14,1,12,2.951038100000005,['c'],1,left,none,-99,-99,0.5,-99,0,none,14,18,Woman,Right,
15,1,12,1.6996278000005987,['c'],0,right,none,-99,-99,0.5,-99,0,none,14,18,Woman,Right,
16,1,12,0.6341782999988936,['c'],1,left,none,-99,-99,0.5,-99,0,none,14,18,Woman,Right,
17,1,12,0.9002760000003036,['n'],1,right,none,-99,-99,0.5,-99,0,none,14,18,Woman,Right,
18,1,12,0.5828987999993842,['c'],1,left,none,-99,-99,0.5,-99,0,none,14,18,Woman,Right,
19,1,12,0.7012463999999454,['c'],1,left,none,-99,-99,0.5,-99,0,none,14,18,Woman,Right,
20,1,12,0.5837224999995669,['c'],1,left,none,-99,-99,0.5,-99,0,none,14,18,Woman,Right,
21,1,12,0.7670947999995406,['n'],1,right,none,-99,-99,0.5,-99,0,none,14,18,Woman,Right,
22,1,12,1.3342298999996274,['c'],0,right,none,-99,-99,0.5,-99,0,none,14,18,Woman,Right,
23,1,12,0.45110489999933634,['c'],0,right,none,-99,-99,0.5,-99,0,none,14,18,Woman,Right,
0,1,13,1.8676414000001387,['c'],1,left,none,-99,-99,0.5,-99,0,none,14,18,Woman,Right,
1,1,13,0.9151649999985239,['n'],0,left,none,-99,-99,0.5,-99,0,none,14,18,Woman,Right,
2,1,13,2.634004700001242,['n'],1,right,none,-99,-99,0.5,-99,0,none,14,18,Woman,Right,
3,1,13,0.9000515999996423,['c'],0,right,none,-99,-99,0.5,-99,0,none,14,18,Woman,Right,
4,1,13,0.8840049999998882,['n'],0,left,none,-99,-99,0.5,-99,0,none,14,18,Woman,Right,
5,1,13,1.017721000000165,['n'],1,right,none,-99,-99,0.5,-99,0,none,14,18,Woman,Right,
6,1,13,0.750416499999119,['c'],1,left,none,-99,-99,0.5,-99,0,none,14,18,Woman,Right,
7,1,13,1.1342682000013156,['c'],0,right,none,-99,-99,0.5,-99,0,none,14,18,Woman,Right,
8,1,13,1.216547600000922,['n'],1,right,none,-99,-99,0.5,-99,0,none,14,18,Woman,Right,
9,1,13,1.3341495000004215,['n'],0,left,none,-99,-99,0.5,-99,0,none,14,18,Woman,Right,
10,1,13,1.251106499999878,['n'],0,left,none,-99,-99,0.5,-99,0,none,14,18,Woman,Right,
11,1,13,2.299686299998939,['n'],1,right,none,-99,-99,0.5,-99,0,none,14,18,Woman,Right,
12,1,13,3.249666600000637,['n'],1,right,none,-99,-99,0.5,-99,0,none,14,18,Woman,Right,
13,1,13,2.4664890999993077,['n'],0,left,none,-99,-99,0.5,-99,0,none,14,18,Woman,Right,
14,1,13,3.383725300000151,['n'],0,left,none,-99,-99,0.5,-99,0,none,14,18,Woman,Right,
15,1,13,1.0997346000003745,['c'],0,right,none,-99,-99,0.5,-99,0,none,14,18,Woman,Right,
16,1,13,0.29938940000101866,['n'],0,left,none,-99,-99,0.5,-99,0,none,14,18,Woman,Right,
17,1,13,3.4168300999990606,['c'],1,left,none,-99,-99,0.5,-99,0,none,14,18,Woman,Right,
18,1,13,0.8336574000004475,['c'],1,left,none,-99,-99,0.5,-99,0,none,14,18,Woman,Right,
19,1,13,2.9174103000004834,['n'],1,right,none,-99,-99,0.5,-99,0,none,14,18,Woman,Right,
20,1,13,1.5671278999998322,['c'],0,right,none,-99,-99,0.5,-99,0,none,14,18,Woman,Right,
21,1,13,0.6676179999994929,['c'],0,right,none,-99,-99,0.5,-99,0,none,14,18,Woman,Right,
22,1,13,0.31748569999945175,['c'],1,left,none,-99,-99,0.5,-99,0,none,14,18,Woman,Right,
23,1,13,0.8347775000002002,['c'],0,right,none,-99,-99,0.5,-99,0,none,14,18,Woman,Right,
0,1,14,1.7508340000003955,['n'],0,left,none,-99,-99,0.5,-99,0,none,14,18,Woman,Right,
1,1,14,1.2331432999999379,['n'],1,right,none,-99,-99,0.5,-99,0,none,14,18,Woman,Right,
2,1,14,1.4502905000008468,['n'],0,left,none,-99,-99,0.5,-99,0,none,14,18,Woman,Right,
3,1,14,0.9166304999998829,['c'],0,right,none,-99,-99,0.5,-99,0,none,14,18,Woman,Right,
4,1,14,2.9006578999997146,['c'],0,right,none,-99,-99,0.5,-99,0,none,14,18,Woman,Right,
5,1,14,1.9174249999996391,['c'],0,right,none,-99,-99,0.5,-99,0,none,14,18,Woman,Right,
6,1,14,1.333030300000246,['c'],1,left,none,-99,-99,0.5,-99,0,none,14,18,Woman,Right,
7,1,14,1.4506258000001253,['n'],0,left,none,-99,-99,0.5,-99,0,none,14,18,Woman,Right,
8,1,14,4.450651799999832,['n'],1,right,none,-99,-99,0.5,-99,0,none,14,18,Woman,Right,
9,1,14,2.416992600001322,['c'],0,right,none,-99,-99,0.5,-99,0,none,14,18,Woman,Right,
10,1,14,1.0342113000006066,['c'],1,left,none,-99,-99,0.5,-99,0,none,14,18,Woman,Right,
11,1,14,2.334281400000691,['n'],1,right,none,-99,-99,0.5,-99,0,none,14,18,Woman,Right,
12,1,14,1.2490985000004002,['n'],0,left,none,-99,-99,0.5,-99,0,none,14,18,Woman,Right,
13,1,14,0.6839981000011903,['n'],0,left,none,-99,-99,0.5,-99,0,none,14,18,Woman,Right,
14,1,14,0.3839953999995487,['n'],1,right,none,-99,-99,0.5,-99,0,none,14,18,Woman,Right,
15,1,14,1.2180503999989014,['c'],1,left,none,-99,-99,0.5,-99,0,none,14,18,Woman,Right,
16,1,14,0.7502777000008791,['c'],1,left,none,-99,-99,0.5,-99,0,none,14,18,Woman,Right,
17,1,14,0.7493936000009853,['c'],0,right,none,-99,-99,0.5,-99,0,none,14,18,Woman,Right,
18,1,14,0.9171614999995654,['n'],1,right,none,-99,-99,0.5,-99,0,none,14,18,Woman,Right,
19,1,14,0.7337243999991188,['n'],0,left,none,-99,-99,0.5,-99,0,none,14,18,Woman,Right,
20,1,14,0.8659315999993851,['n'],1,right,none,-99,-99,0.5,-99,0,none,14,18,Woman,Right,
21,1,14,1.331966800000373,['c'],0,right,none,-99,-99,0.5,-99,0,none,14,18,Woman,Right,
22,1,14,0.8332031999998435,['n'],0,left,none,-99,-99,0.5,-99,0,none,14,18,Woman,Right,
23,1,14,0.41776759999993374,['n'],0,left,none,-99,-99,0.5,-99,0,none,14,18,Woman,Right,
0,1,15,3.184168800000407,['c'],1,left,none,-99,-99,0.5,-99,0,none,14,18,Woman,Right,
1,1,15,1.0004558999989968,['n'],0,left,none,-99,-99,0.5,-99,0,none,14,18,Woman,Right,
2,1,15,2.167931599999065,['c'],0,right,none,-99,-99,0.5,-99,0,none,14,18,Woman,Right,
3,1,15,1.215836200000922,['c'],1,left,none,-99,-99,0.5,-99,0,none,14,18,Woman,Right,
4,1,15,2.383548100000553,['c'],0,right,none,-99,-99,0.5,-99,0,none,14,18,Woman,Right,
5,1,15,1.6838492000006227,['n'],1,right,none,-99,-99,0.5,-99,0,none,14,18,Woman,Right,
6,1,15,2.268100499999491,['c'],0,right,none,-99,-99,0.5,-99,0,none,14,18,Woman,Right,
7,1,15,2.016580800000156,['c'],1,left,none,-99,-99,0.5,-99,0,none,14,18,Woman,Right,
8,1,15,1.6842652999985148,['c'],1,left,none,-99,-99,0.5,-99,0,none,14,18,Woman,Right,
9,1,15,1.2505091999992146,['n'],1,right,none,-99,-99,0.5,-99,0,none,14,18,Woman,Right,
10,1,15,1.6340675000010378,['n'],1,right,none,-99,-99,0.5,-99,0,none,14,18,Woman,Right,
11,1,15,2.2004096999989997,['n'],0,left,none,-99,-99,0.5,-99,0,none,14,18,Woman,Right,
12,1,15,0.5502950999998575,['c'],1,left,none,-99,-99,0.5,-99,0,none,14,18,Woman,Right,
13,1,15,1.6174518999996508,['n'],0,left,none,-99,-99,0.5,-99,0,none,14,18,Woman,Right,
14,1,15,1.3002348000009079,['n'],1,right,none,-99,-99,0.5,-99,0,none,14,18,Woman,Right,
15,1,15,1.4675002999993012,['n'],1,right,none,-99,-99,0.5,-99,0,none,14,18,Woman,Right,
16,1,15,0.4339085999999952,['c'],0,right,none,-99,-99,0.5,-99,0,none,14,18,Woman,Right,
17,1,15,0.2846188000003167,['c'],0,right,none,-99,-99,0.5,-99,0,none,14,18,Woman,Right,
18,1,15,0.6506074999997509,['c'],1,left,none,-99,-99,0.5,-99,0,none,14,18,Woman,Right,
19,1,15,1.1840697000006912,['c'],1,left,none,-99,-99,0.5,-99,0,none,14,18,Woman,Right,
20,1,15,1.567001600000367,['c'],1,left,none,-99,-99,0.5,-99,0,none,14,18,Woman,Right,
21,1,15,3.3337726999998267,['n'],1,right,none,-99,-99,0.5,-99,0,none,14,18,Woman,Right,
22,1,15,1.0842162999997527,['n'],0,left,none,-99,-99,0.5,-99,0,none,14,18,Woman,Right,
23,1,15,0.9670077000009769,['n'],1,right,none,-99,-99,0.5,-99,0,none,14,18,Woman,Right,
0,1,16,1.9846678000012616,['n'],0,left,none,-99,-99,0.5,-99,0,none,14,18,Woman,Right,
1,1,16,0.9672143999996479,['n'],0,left,none,-99,-99,0.5,-99,0,none,14,18,Woman,Right,
2,1,16,0.3331084000001283,['n'],1,right,none,-99,-99,0.5,-99,0,none,14,18,Woman,Right,
3,1,16,0.7337946000006923,['c'],1,left,none,-99,-99,0.5,-99,0,none,14,18,Woman,Right,
4,1,16,0.6837924999999814,['c'],0,right,none,-99,-99,0.5,-99,0,none,14,18,Woman,Right,
5,1,16,0.7004225999990012,['c'],0,right,none,-99,-99,0.5,-99,0,none,14,18,Woman,Right,
6,1,16,1.2673355000006268,['c'],1,left,none,-99,-99,0.5,-99,0,none,14,18,Woman,Right,
7,1,16,1.0172590000001946,['c'],1,left,none,-99,-99,0.5,-99,0,none,14,18,Woman,Right,
8,1,16,2.0338164000004326,['c'],0,right,none,-99,-99,0.5,-99,0,none,14,18,Woman,Right,
9,1,16,1.3831040999994002,['n'],1,right,none,-99,-99,0.5,-99,0,none,14,18,Woman,Right,
10,1,16,0.4837591000014072,['n'],1,right,none,-99,-99,0.5,-99,0,none,14,18,Woman,Right,
11,1,16,0.5005415999985416,['c'],0,right,none,-99,-99,0.5,-99,0,none,14,18,Woman,Right,
12,1,16,1.7007254000000103,['c'],0,right,none,-99,-99,0.5,-99,0,none,14,18,Woman,Right,
13,1,16,0.3844472000000678,['c'],1,left,none,-99,-99,0.5,-99,0,none,14,18,Woman,Right,
14,1,16,0.7676403000004939,['c'],0,right,none,-99,-99,0.5,-99,0,none,14,18,Woman,Right,
15,1,16,0.33387320000110776,['c'],1,left,none,-99,-99,0.5,-99,0,none,14,18,Woman,Right,
16,1,16,0.48283810000066296,['c'],1,left,none,-99,-99,0.5,-99,0,none,14,18,Woman,Right,
17,1,16,0.9348117999998067,['c'],1,left,none,-99,-99,0.5,-99,0,none,14,18,Woman,Right,
18,1,16,1.8668330000000424,['n'],1,right,none,-99,-99,0.5,-99,0,none,14,18,Woman,Right,
19,1,16,0.8669729000012012,['n'],0,left,none,-99,-99,0.5,-99,0,none,14,18,Woman,Right,
20,1,16,0.8664951999999175,['n'],0,left,none,-99,-99,0.5,-99,0,none,14,18,Woman,Right,
21,1,16,0.5008591000005254,['n'],0,left,none,-99,-99,0.5,-99,0,none,14,18,Woman,Right,
22,1,16,0.25044639999941865,['n'],1,right,none,-99,-99,0.5,-99,0,none,14,18,Woman,Right,
23,1,16,0.2666650999999547,['n'],1,right,none,-99,-99,0.5,-99,0,none,14,18,Woman,Right,
0,1,17,1.1166659999998956,['n'],0,left,none,-99,-99,0.5,-99,0,none,14,18,Woman,Right,
1,1,17,0.5845649000002595,['n'],1,right,none,-99,-99,0.5,-99,0,none,14,18,Woman,Right,
2,1,17,1.1171211000000767,['n'],1,right,none,-99,-99,0.5,-99,0,none,14,18,Woman,Right,
3,1,17,2.7005903999997827,['n'],0,left,none,-99,-99,0.5,-99,0,none,14,18,Woman,Right,
4,1,17,1.31778039999881,['c'],0,right,none,-99,-99,0.5,-99,0,none,14,18,Woman,Right,
5,1,17,0.4999669000007998,['c'],1,left,none,-99,-99,0.5,-99,0,none,14,18,Woman,Right,
6,1,17,0.9336547000002611,['c'],0,right,none,-99,-99,0.5,-99,0,none,14,18,Woman,Right,
7,1,17,0.6340982999990956,['c'],0,right,none,-99,-99,0.5,-99,0,none,14,18,Woman,Right,
8,1,17,0.39986229999885836,['c'],0,right,none,-99,-99,0.5,-99,0,none,14,18,Woman,Right,
9,1,17,0.30101180000019667,['c'],0,right,none,-99,-99,0.5,-99,0,none,14,18,Woman,Right,
10,1,17,0.20115290000103414,['c'],1,left,none,-99,-99,0.5,-99,0,none,14,18,Woman,Right,
11,1,17,0.3845058999995672,['c'],0,right,none,-99,-99,0.5,-99,0,none,14,18,Woman,Right,
12,1,17,0.23280610000074375,['c'],1,left,none,-99,-99,0.5,-99,0,none,14,18,Woman,Right,
13,1,17,1.349294400000872,['n'],1,right,none,-99,-99,0.5,-99,0,none,14,18,Woman,Right,
14,1,17,2.7495058000004065,['n'],1,right,none,-99,-99,0.5,-99,0,none,14,18,Woman,Right,
15,1,17,0.9837157000001753,['n'],0,left,none,-99,-99,0.5,-99,0,none,14,18,Woman,Right,
16,1,17,1.650221199999578,['c'],0,right,none,-99,-99,0.5,-99,0,none,14,18,Woman,Right,
17,1,17,1.0835667999999714,['n'],0,left,none,-99,-99,0.5,-99,0,none,14,18,Woman,Right,
18,1,17,0.5991960000010295,['n'],0,left,none,-99,-99,0.5,-99,0,none,14,18,Woman,Right,
19,1,17,0.7000190999988263,['n'],0,left,none,-99,-99,0.5,-99,0,none,14,18,Woman,Right,
20,1,17,0.3841116999992664,['n'],1,right,none,-99,-99,0.5,-99,0,none,14,18,Woman,Right,
21,1,17,2.3676990999992995,['n'],0,left,none,-99,-99,0.5,-99,0,none,14,18,Woman,Right,
22,1,17,2.9505508999991434,['c'],1,left,none,-99,-99,0.5,-99,0,none,14,18,Woman,Right,
23,1,17,1.766556099999434,['n'],0,left,none,-99,-99,0.5,-99,0,none,14,18,Woman,Right,
0,1,18,2.5008267000011983,['c'],1,left,none,-99,-99,0.5,-99,0,none,14,18,Woman,Right,
1,1,18,0.7999801999994816,['n'],0,left,none,-99,-99,0.5,-99,0,none,14,18,Woman,Right,
2,1,18,1.7505068999998912,['c'],0,right,none,-99,-99,0.5,-99,0,none,14,18,Woman,Right,
3,1,18,0.9180961000001844,['c'],0,right,none,-99,-99,0.5,-99,0,none,14,18,Woman,Right,
4,1,18,0.4494212999998126,['c'],1,left,none,-99,-99,0.5,-99,0,none,14,18,Woman,Right,
5,1,18,2.0327335000001767,['c'],1,left,none,-99,-99,0.5,-99,0,none,14,18,Woman,Right,
6,1,18,1.1327416999993147,['n'],1,right,none,-99,-99,0.5,-99,0,none,14,18,Woman,Right,
7,1,18,1.1333764000009978,['n'],1,right,none,-99,-99,0.5,-99,0,none,14,18,Woman,Right,
8,1,18,1.300242299999809,['n'],1,right,none,-99,-99,0.5,-99,0,none,14,18,Woman,Right,
9,1,18,1.5336681999997381,['c'],1,left,none,-99,-99,0.5,-99,0,none,14,18,Woman,Right,
10,1,18,1.5332027000004018,['c'],1,left,none,-99,-99,0.5,-99,0,none,14,18,Woman,Right,
11,1,18,1.2674521999997523,['n'],1,right,none,-99,-99,0.5,-99,0,none,14,18,Woman,Right,
12,1,18,1.1667471999990084,['n'],1,right,none,-99,-99,0.5,-99,0,none,14,18,Woman,Right,
13,1,18,1.4508662000007462,['n'],1,right,none,-99,-99,0.5,-99,0,none,14,18,Woman,Right,
14,1,18,1.7171023999999306,['c'],1,left,none,-99,-99,0.5,-99,0,none,14,18,Woman,Right,
15,1,18,1.550020399999994,['c'],1,left,none,-99,-99,0.5,-99,0,none,14,18,Woman,Right,
16,1,18,1.3003908999999112,['n'],1,right,none,-99,-99,0.5,-99,0,none,14,18,Woman,Right,
17,1,18,1.2185277999997197,['n'],0,left,none,-99,-99,0.5,-99,0,none,14,18,Woman,Right,
18,1,18,2.067221999999674,['c'],1,left,none,-99,-99,0.5,-99,0,none,14,18,Woman,Right,
19,1,18,2.1185074000004533,['n'],0,left,none,-99,-99,0.5,-99,0,none,14,18,Woman,Right,
20,1,18,0.46618780000062543,['n'],1,right,none,-99,-99,0.5,-99,0,none,14,18,Woman,Right,
21,1,18,1.233558300000368,['c'],1,left,none,-99,-99,0.5,-99,0,none,14,18,Woman,Right,
22,1,18,0.9834441000002698,['n'],1,right,none,-99,-99,0.5,-99,0,none,14,18,Woman,Right,
23,1,18,1.5511120999999548,['n'],1,right,none,-99,-99,0.5,-99,0,none,14,18,Woman,Right,
0,1,19,1.2173074000002089,['n'],0,left,none,-99,-99,0.5,-99,0,none,14,18,Woman,Right,
1,1,19,1.4173123000000487,['c'],0,right,none,-99,-99,0.5,-99,0,none,14,18,Woman,Right,
2,1,19,0.9668371000007028,['n'],1,right,none,-99,-99,0.5,-99,0,none,14,18,Woman,Right,
3,1,19,1.783874200000355,['c'],0,right,none,-99,-99,0.5,-99,0,none,14,18,Woman,Right,
4,1,19,1.599563499999931,['c'],0,right,none,-99,-99,0.5,-99,0,none,14,18,Woman,Right,
5,1,19,0.3655711000010342,['c'],1,left,none,-99,-99,0.5,-99,0,none,14,18,Woman,Right,
6,1,19,1.3675473999992391,['n'],0,left,none,-99,-99,0.5,-99,0,none,14,18,Woman,Right,
7,1,19,1.28392359999998,['c'],1,left,none,-99,-99,0.5,-99,0,none,14,18,Woman,Right,
8,1,19,1.2671553999989555,['n'],0,left,none,-99,-99,0.5,-99,0,none,14,18,Woman,Right,
9,1,19,1.4840674000006402,['c'],1,left,none,-99,-99,0.5,-99,0,none,14,18,Woman,Right,
10,1,19,1.332892799999172,['n'],1,right,none,-99,-99,0.5,-99,0,none,14,18,Woman,Right,
11,1,19,1.6510367000009865,['n'],1,right,none,-99,-99,0.5,-99,0,none,14,18,Woman,Right,
12,1,19,1.2664757000002282,['c'],1,left,none,-99,-99,0.5,-99,0,none,14,18,Woman,Right,
13,1,19,0.8815333999991708,['c'],0,right,none,-99,-99,0.5,-99,0,none,14,18,Woman,Right,
14,1,19,1.633564199999455,['c'],1,left,none,-99,-99,0.5,-99,0,none,14,18,Woman,Right,
15,1,19,1.833297200000743,['n'],1,right,none,-99,-99,0.5,-99,0,none,14,18,Woman,Right,
16,1,19,1.4496169000012742,['n'],0,left,none,-99,-99,0.5,-99,0,none,14,18,Woman,Right,
17,1,19,1.01532109999971,['n'],1,right,none,-99,-99,0.5,-99,0,none,14,18,Woman,Right,
18,1,19,2.183358500000395,['n'],0,left,none,-99,-99,0.5,-99,0,none,14,18,Woman,Right,
19,1,19,1.6997782999987976,['n'],0,left,none,-99,-99,0.5,-99,0,none,14,18,Woman,Right,
20,1,19,0.7321651000002021,['n'],1,right,none,-99,-99,0.5,-99,0,none,14,18,Woman,Right,
21,1,19,0.8502365999993344,['c'],0,right,none,-99,-99,0.5,-99,0,none,14,18,Woman,Right,
22,1,19,0.3493271999996068,['c'],0,right,none,-99,-99,0.5,-99,0,none,14,18,Woman,Right,
23,1,19,0.6674325999993016,['c'],1,left,none,-99,-99,0.5,-99,0,none,14,18,Woman,Right,
0,1,20,0.7514747999994142,['n'],0,left,none,-99,-99,0.5,-99,0,none,14,18,Woman,Right,
1,1,20,0.3346346000016638,['n'],1,right,none,-99,-99,0.5,-99,0,none,14,18,Woman,Right,
2,1,20,1.2012275000015507,['c'],0,right,none,-99,-99,0.5,-99,0,none,14,18,Woman,Right,
3,1,20,1.3507487000006222,['n'],0,left,none,-99,-99,0.5,-99,0,none,14,18,Woman,Right,
4,1,20,1.8831673999993654,['c'],0,right,none,-99,-99,0.5,-99,0,none,14,18,Woman,Right,
5,1,20,2.0355606000011903,['n'],0,left,none,-99,-99,0.5,-99,0,none,14,18,Woman,Right,
6,1,20,0.9357832000005146,['n'],1,right,none,-99,-99,0.5,-99,0,none,14,18,Woman,Right,
7,1,20,0.300373000000036,['n'],1,right,none,-99,-99,0.5,-99,0,none,14,18,Woman,Right,
8,1,20,1.1657716000008804,['c'],0,right,none,-99,-99,0.5,-99,0,none,14,18,Woman,Right,
9,1,20,2.817216499999631,['c'],0,right,none,-99,-99,0.5,-99,0,none,14,18,Woman,Right,
10,1,20,0.5010161999998672,['c'],1,left,none,-99,-99,0.5,-99,0,none,14,18,Woman,Right,
11,1,20,0.3826740000004065,['c'],1,left,none,-99,-99,0.5,-99,0,none,14,18,Woman,Right,
12,1,20,1.1166058999988309,['c'],0,right,none,-99,-99,0.5,-99,0,none,14,18,Woman,Right,
13,1,20,0.13316029999987222,['n'],0,left,none,-99,-99,0.5,-99,0,none,14,18,Woman,Right,
14,1,20,0.26718540000001667,['n'],0,left,none,-99,-99,0.5,-99,0,none,14,18,Woman,Right,
15,1,20,0.2840025000004971,['n'],0,left,none,-99,-99,0.5,-99,0,none,14,18,Woman,Right,
16,1,20,0.4167503000007855,['n'],0,left,none,-99,-99,0.5,-99,0,none,14,18,Woman,Right,
17,1,20,0.8497296999994433,['n'],1,right,none,-99,-99,0.5,-99,0,none,14,18,Woman,Right,
18,1,20,0.26641039999958593,['n'],1,right,none,-99,-99,0.5,-99,0,none,14,18,Woman,Right,
19,1,20,0.6668620999989798,['n'],1,right,none,-99,-99,0.5,-99,0,none,14,18,Woman,Right,
20,1,20,0.9175638999986404,['c'],1,left,none,-99,-99,0.5,-99,0,none,14,18,Woman,Right,
21,1,20,0.9828843999985111,['c'],1,left,none,-99,-99,0.5,-99,0,none,14,18,Woman,Right,
22,1,20,0.6010291000002326,['c'],0,right,none,-99,-99,0.5,-99,0,none,14,18,Woman,Right,
23,1,20,1.133738500000618,['c'],1,left,none,-99,-99,0.5,-99,0,none,14,18,Woman,Right,
0,1,21,1.882756300001347,['n'],0,left,none,-99,-99,0.5,-99,0,none,14,18,Woman,Right,
1,1,21,1.9498798000004172,['c'],1,left,none,-99,-99,0.5,-99,0,none,14,18,Woman,Right,
2,1,21,1.6165508000012778,['n'],1,right,none,-99,-99,0.5,-99,0,none,14,18,Woman,Right,
3,1,21,1.6332640999989962,['n'],0,left,none,-99,-99,0.5,-99,0,none,14,18,Woman,Right,
4,1,21,0.8505580000000919,['n'],1,right,none,-99,-99,0.5,-99,0,none,14,18,Woman,Right,
5,1,21,1.6664446999984648,['c'],0,right,none,-99,-99,0.5,-99,0,none,14,18,Woman,Right,
6,1,21,0.5333100999996532,['n'],1,right,none,-99,-99,0.5,-99,0,none,14,18,Woman,Right,
7,1,21,1.5509266999997635,['n'],1,right,none,-99,-99,0.5,-99,0,none,14,18,Woman,Right,
8,1,21,1.899915999998484,['n'],1,right,none,-99,-99,0.5,-99,0,none,14,18,Woman,Right,
9,1,21,1.7511257999994996,['n'],1,right,none,-99,-99,0.5,-99,0,none,14,18,Woman,Right,
10,1,21,1.200599499999953,['c'],0,right,none,-99,-99,0.5,-99,0,none,14,18,Woman,Right,
11,1,21,1.3483971999994537,['n'],0,left,none,-99,-99,0.5,-99,0,none,14,18,Woman,Right,
12,1,21,1.0834938000007241,['c'],1,left,none,-99,-99,0.5,-99,0,none,14,18,Woman,Right,
13,1,21,1.550318999999945,['n'],0,left,none,-99,-99,0.5,-99,0,none,14,18,Woman,Right,
14,1,21,0.7510381000010966,['n'],1,right,none,-99,-99,0.5,-99,0,none,14,18,Woman,Right,
15,1,21,1.4507515999994212,['c'],1,left,none,-99,-99,0.5,-99,0,none,14,18,Woman,Right,
16,1,21,0.949821799998972,['c'],1,left,none,-99,-99,0.5,-99,0,none,14,18,Woman,Right,
17,1,21,0.6333799000003637,['c'],1,left,none,-99,-99,0.5,-99,0,none,14,18,Woman,Right,
18,1,21,1.0496183999985078,['n'],0,left,none,-99,-99,0.5,-99,0,none,14,18,Woman,Right,
19,1,21,0.46605690000069444,['n'],0,left,none,-99,-99,0.5,-99,0,none,14,18,Woman,Right,
20,1,21,0.36688280000089435,['n'],0,left,none,-99,-99,0.5,-99,0,none,14,18,Woman,Right,
21,1,21,0.28215300000010757,['n'],1,right,none,-99,-99,0.5,-99,0,none,14,18,Woman,Right,
22,1,21,1.0494820999992953,['c'],0,right,none,-99,-99,0.5,-99,0,none,14,18,Woman,Right,
23,1,21,1.318328900000779,['c'],0,right,none,-99,-99,0.5,-99,0,none,14,18,Woman,Right,
0,1,22,0.901122100000066,['n'],1,right,none,-99,-99,0.5,-99,0,none,14,18,Woman,Right,
1,1,22,1.033293299999059,['n'],1,right,none,-99,-99,0.5,-99,0,none,14,18,Woman,Right,
2,1,22,0.8667867000003753,['c'],0,right,none,-99,-99,0.5,-99,0,none,14,18,Woman,Right,
3,1,22,1.0180990000008023,['n'],1,right,none,-99,-99,0.5,-99,0,none,14,18,Woman,Right,
4,1,22,1.8337112000008347,['c'],0,right,none,-99,-99,0.5,-99,0,none,14,18,Woman,Right,
5,1,22,1.7671028000004299,['n'],0,left,none,-99,-99,0.5,-99,0,none,14,18,Woman,Right,
6,1,22,0.7171128000009048,['c'],1,left,none,-99,-99,0.5,-99,0,none,14,18,Woman,Right,
7,1,22,0.9837912000002689,['n'],0,left,none,-99,-99,0.5,-99,0,none,14,18,Woman,Right,
8,1,22,0.2836091999997734,['n'],0,left,none,-99,-99,0.5,-99,0,none,14,18,Woman,Right,
9,1,22,0.28397919999952137,['n'],0,left,none,-99,-99,0.5,-99,0,none,14,18,Woman,Right,
10,1,22,0.4155578999998397,['c'],1,left,none,-99,-99,0.5,-99,0,none,14,18,Woman,Right,
11,1,22,1.315817300001072,['c'],0,right,none,-99,-99,0.5,-99,0,none,14,18,Woman,Right,
12,1,22,0.43345829999998386,['c'],0,right,none,-99,-99,0.5,-99,0,none,14,18,Woman,Right,
13,1,22,0.6001183000007586,['c'],1,left,none,-99,-99,0.5,-99,0,none,14,18,Woman,Right,
14,1,22,0.3672169000001304,['c'],0,right,none,-99,-99,0.5,-99,0,none,14,18,Woman,Right,
15,1,22,0.4834441000002698,['c'],0,right,none,-99,-99,0.5,-99,0,none,14,18,Woman,Right,
16,1,22,0.30013420000068436,['c'],1,left,none,-99,-99,0.5,-99,0,none,14,18,Woman,Right,
17,1,22,0.9337565999994695,['n'],1,right,none,-99,-99,0.5,-99,0,none,14,18,Woman,Right,
18,1,22,1.0822389999993902,['c'],1,left,none,-99,-99,0.5,-99,0,none,14,18,Woman,Right,
19,1,22,2.2838080000001355,['c'],1,left,none,-99,-99,0.5,-99,0,none,14,18,Woman,Right,
20,1,22,3.2988363999993453,['c'],1,left,none,-99,-99,0.5,-99,0,none,14,18,Woman,Right,
21,1,22,2.882280499999979,['n'],1,right,none,-99,-99,0.5,-99,0,none,14,18,Woman,Right,
22,1,22,2.382979100000739,['c'],0,right,none,-99,-99,0.5,-99,0,none,14,18,Woman,Right,
23,1,22,0.9829305000002933,['n'],0,left,none,-99,-99,0.5,-99,0,none,14,18,Woman,Right,
0,1,23,1.0168484000005265,['c'],1,left,none,-99,-99,0.5,-99,0,none,14,18,Woman,Right,
1,1,23,1.1176034999989497,['n'],0,left,none,-99,-99,0.5,-99,0,none,14,18,Woman,Right,
2,1,23,0.5166950999991968,['n'],0,left,none,-99,-99,0.5,-99,0,none,14,18,Woman,Right,
3,1,23,0.6176802000009047,['n'],0,left,none,-99,-99,0.5,-99,0,none,14,18,Woman,Right,
4,1,23,0.23270659999980126,['n'],1,right,none,-99,-99,0.5,-99,0,none,14,18,Woman,Right,
5,1,23,0.334233999999924,['c'],0,right,none,-99,-99,0.5,-99,0,none,14,18,Woman,Right,
6,1,23,0.2669771999990189,['c'],0,right,none,-99,-99,0.5,-99,0,none,14,18,Woman,Right,
7,1,23,0.33344620000025316,['c'],0,right,none,-99,-99,0.5,-99,0,none,14,18,Woman,Right,
8,1,23,0.3332944000012503,['c'],0,right,none,-99,-99,0.5,-99,0,none,14,18,Woman,Right,
9,1,23,0.28319919999921694,['c'],1,left,none,-99,-99,0.5,-99,0,none,14,18,Woman,Right,
10,1,23,0.8682021999993594,['c'],0,right,none,-99,-99,0.5,-99,0,none,14,18,Woman,Right,
11,1,23,0.7163512000006449,['n'],1,right,none,-99,-99,0.5,-99,0,none,14,18,Woman,Right,
12,1,23,2.515958199999659,['c'],1,left,none,-99,-99,0.5,-99,0,none,14,18,Woman,Right,
13,1,23,1.699115299999903,['n'],1,right,none,-99,-99,0.5,-99,0,none,14,18,Woman,Right,
14,1,23,0.9504847999996855,['c'],0,right,none,-99,-99,0.5,-99,0,none,14,18,Woman,Right,
15,1,23,2.1336725000001024,['n'],0,left,none,-99,-99,0.5,-99,0,none,14,18,Woman,Right,
16,1,23,1.2167030000000523,['c'],0,right,none,-99,-99,0.5,-99,0,none,14,18,Woman,Right,
17,1,23,5.0152963000000454,x,-99,right,none,-99,-99,0.5,-99,1,none,14,18,Woman,Right,
18,1,23,0.8178599999992002,['n'],0,left,none,-99,-99,0.5,-99,0,none,14,18,Woman,Right,
19,1,23,0.6342446999988169,['n'],1,right,none,-99,-99,0.5,-99,0,none,14,18,Woman,Right,
20,1,23,0.9509750999986863,['c'],1,left,none,-99,-99,0.5,-99,0,none,14,18,Woman,Right,
21,1,23,2.4335900000005495,['c'],1,left,none,-99,-99,0.5,-99,0,none,14,18,Woman,Right,
22,1,23,1.0170538000002125,['n'],0,left,none,-99,-99,0.5,-99,0,none,14,18,Woman,Right,
23,1,23,0.5167864000013651,['n'],0,left,none,-99,-99,0.5,-99,0,none,14,18,Woman,Right,
0,1,24,0.7345155000002705,['c'],1,left,none,-99,-99,0.5,-99,0,none,14,18,Woman,Right,
1,1,24,0.7160365999989153,['c'],0,right,none,-99,-99,0.5,-99,0,none,14,18,Woman,Right,
2,1,24,0.45239029999902414,['c'],1,left,none,-99,-99,0.5,-99,0,none,14,18,Woman,Right,
3,1,24,0.41739159999997355,['c'],1,left,none,-99,-99,0.5,-99,0,none,14,18,Woman,Right,
4,1,24,0.965718299999935,['n'],1,right,none,-99,-99,0.5,-99,0,none,14,18,Woman,Right,
5,1,24,0.6667577999996865,['c'],1,left,none,-99,-99,0.5,-99,0,none,14,18,Woman,Right,
6,1,24,1.5509117000001424,['c'],0,right,none,-99,-99,0.5,-99,0,none,14,18,Woman,Right,
7,1,24,0.8660879999988538,['n'],0,left,none,-99,-99,0.5,-99,0,none,14,18,Woman,Right,
8,1,24,0.6678760999984661,['n'],1,right,none,-99,-99,0.5,-99,0,none,14,18,Woman,Right,
9,1,24,1.2676680000004126,['c'],1,left,none,-99,-99,0.5,-99,0,none,14,18,Woman,Right,
10,1,24,1.4172992000003433,['n'],0,left,none,-99,-99,0.5,-99,0,none,14,18,Woman,Right,
11,1,24,0.6505431000005046,['n'],0,left,none,-99,-99,0.5,-99,0,none,14,18,Woman,Right,
12,1,24,0.8166665000007924,['n'],0,left,none,-99,-99,0.5,-99,0,none,14,18,Woman,Right,
13,1,24,0.3337391999993997,['n'],0,left,none,-99,-99,0.5,-99,0,none,14,18,Woman,Right,
14,1,24,0.367985700000645,['n'],1,right,none,-99,-99,0.5,-99,0,none,14,18,Woman,Right,
15,1,24,1.5506375999993907,['c'],0,right,none,-99,-99,0.5,-99,0,none,14,18,Woman,Right,
16,1,24,0.817300200000318,['c'],0,right,none,-99,-99,0.5,-99,0,none,14,18,Woman,Right,
17,1,24,1.2503333999993629,['c'],0,right,none,-99,-99,0.5,-99,0,none,14,18,Woman,Right,
18,1,24,0.31634849999863945,['c'],1,left,none,-99,-99,0.5,-99,0,none,14,18,Woman,Right,
19,1,24,0.6821165999990626,['n'],1,right,none,-99,-99,0.5,-99,0,none,14,18,Woman,Right,
20,1,24,1.5494335000003048,['c'],0,right,none,-99,-99,0.5,-99,0,none,14,18,Woman,Right,
21,1,24,0.9170794000001479,['n'],1,right,none,-99,-99,0.5,-99,0,none,14,18,Woman,Right,
22,1,24,1.1527961000010691,['c'],0,right,none,-99,-99,0.5,-99,0,none,14,18,Woman,Right,
23,1,24,1.1662554000013188,['c'],1,left,none,-99,-99,0.5,-99,0,none,14,18,Woman,Right,
0,1,25,0.600404000000708,['n'],1,right,none,-99,-99,0.5,-99,0,none,14,18,Woman,Right,
1,1,25,0.7842829000001075,['c'],0,right,none,-99,-99,0.5,-99,0,none,14,18,Woman,Right,
2,1,25,0.6504595000005793,['c'],0,right,none,-99,-99,0.5,-99,0,none,14,18,Woman,Right,
3,1,25,0.3006916000013007,['c'],1,left,none,-99,-99,0.5,-99,0,none,14,18,Woman,Right,
4,1,25,0.43351369999982126,['c'],1,left,none,-99,-99,0.5,-99,0,none,14,18,Woman,Right,
5,1,25,0.5504285999995773,['n'],1,right,none,-99,-99,0.5,-99,0,none,14,18,Woman,Right,
6,1,25,0.4165528000012273,['n'],1,right,none,-99,-99,0.5,-99,0,none,14,18,Woman,Right,
7,1,25,0.2996759000016027,['n'],1,right,none,-99,-99,0.5,-99,0,none,14,18,Woman,Right,
8,1,25,0.3334266999991087,['n'],0,left,none,-99,-99,0.5,-99,0,none,14,18,Woman,Right,
9,1,25,1.4666808000001765,['n'],0,left,none,-99,-99,0.5,-99,0,none,14,18,Woman,Right,
10,1,25,0.2673242000000755,['c'],1,left,none,-99,-99,0.5,-99,0,none,14,18,Woman,Right,
11,1,25,0.3002906999990955,['c'],1,left,none,-99,-99,0.5,-99,0,none,14,18,Woman,Right,
12,1,25,0.4018891999985499,['c'],0,right,none,-99,-99,0.5,-99,0,none,14,18,Woman,Right,
13,1,25,1.1336812999998074,['n'],0,left,none,-99,-99,0.5,-99,0,none,14,18,Woman,Right,
14,1,25,0.2507452000008925,['c'],1,left,none,-99,-99,0.5,-99,0,none,14,18,Woman,Right,
15,1,25,0.34805039999992005,['c'],1,left,none,-99,-99,0.5,-99,0,none,14,18,Woman,Right,
16,1,25,0.45108150000123715,['n'],1,right,none,-99,-99,0.5,-99,0,none,14,18,Woman,Right,
17,1,25,0.18420479999986128,['n'],1,right,none,-99,-99,0.5,-99,0,none,14,18,Woman,Right,
18,1,25,0.017018099999404512,['n'],0,left,none,-99,-99,0.5,-99,0,none,14,18,Woman,Right,
19,1,25,0.2664290000011533,['c'],0,right,none,-99,-99,0.5,-99,0,none,14,18,Woman,Right,
20,1,25,0.2675237000003108,['c'],0,right,none,-99,-99,0.5,-99,0,none,14,18,Woman,Right,
21,1,25,0.10164159999840194,['c'],1,left,none,-99,-99,0.5,-99,0,none,14,18,Woman,Right,
22,1,25,0.14933840000048804,['c'],1,left,none,-99,-99,0.5,-99,0,none,14,18,Woman,Right,
23,1,25,0.03427650000048743,['c'],0,right,none,-99,-99,0.5,-99,0,none,14,18,Woman,Right,
0,1,26,0.6840480999999272,['n'],1,right,none,-99,-99,0.5,-99,0,none,14,18,Woman,Right,
1,1,26,0.6505464999991091,['n'],1,right,none,-99,-99,0.5,-99,0,none,14,18,Woman,Right,
2,1,26,0.41720820000045933,['n'],0,left,none,-99,-99,0.5,-99,0,none,14,18,Woman,Right,
3,1,26,0.26729079999859096,['c'],0,right,none,-99,-99,0.5,-99,0,none,14,18,Woman,Right,
4,1,26,0.43490659999952186,['c'],1,left,none,-99,-99,0.5,-99,0,none,14,18,Woman,Right,
5,1,26,0.3004813000006834,['c'],1,left,none,-99,-99,0.5,-99,0,none,14,18,Woman,Right,
6,1,26,0.28363699999863456,['n'],0,left,none,-99,-99,0.5,-99,0,none,14,18,Woman,Right,
7,1,26,0.38388660000055097,['n'],0,left,none,-99,-99,0.5,-99,0,none,14,18,Woman,Right,
8,1,26,0.6003361000002769,['n'],1,right,none,-99,-99,0.5,-99,0,none,14,18,Woman,Right,
9,1,26,0.33386760000030336,['n'],0,left,none,-99,-99,0.5,-99,0,none,14,18,Woman,Right,
10,1,26,0.5993864000010944,['n'],0,left,none,-99,-99,0.5,-99,0,none,14,18,Woman,Right,
11,1,26,0.29870169999958307,['n'],0,left,none,-99,-99,0.5,-99,0,none,14,18,Woman,Right,
12,1,26,0.5672190000004775,['n'],1,right,none,-99,-99,0.5,-99,0,none,14,18,Woman,Right,
13,1,26,0.5490377999994962,['c'],0,right,none,-99,-99,0.5,-99,0,none,14,18,Woman,Right,
14,1,26,0.5493860000005952,['n'],1,right,none,-99,-99,0.5,-99,0,none,14,18,Woman,Right,
15,1,26,0.6822400000000926,['c'],0,right,none,-99,-99,0.5,-99,0,none,14,18,Woman,Right,
16,1,26,0.8495509000003949,['n'],1,right,none,-99,-99,0.5,-99,0,none,14,18,Woman,Right,
17,1,26,0.716564099999232,['n'],0,left,none,-99,-99,0.5,-99,0,none,14,18,Woman,Right,
18,1,26,1.1991765000002488,['c'],0,right,none,-99,-99,0.5,-99,0,none,14,18,Woman,Right,
19,1,26,0.7683907999999064,['n'],0,left,none,-99,-99,0.5,-99,0,none,14,18,Woman,Right,
20,1,26,0.4333752000002278,['c'],1,left,none,-99,-99,0.5,-99,0,none,14,18,Woman,Right,
21,1,26,0.7498888000009174,['n'],1,right,none,-99,-99,0.5,-99,0,none,14,18,Woman,Right,
22,1,26,0.7171976000008726,['c'],0,right,none,-99,-99,0.5,-99,0,none,14,18,Woman,Right,
23,1,26,1.0838948000000528,['n'],0,left,none,-99,-99,0.5,-99,0,none,14,18,Woman,Right,
0,1,27,0.551196100001107,['n'],1,right,none,-99,-99,0.5,-99,0,none,14,18,Woman,Right,
1,1,27,0.7834313999992446,['c'],0,right,none,-99,-99,0.5,-99,0,none,14,18,Woman,Right,
2,1,27,0.43445600000086415,['c'],0,right,none,-99,-99,0.5,-99,0,none,14,18,Woman,Right,
3,1,27,1.034244899999976,['n'],1,right,none,-99,-99,0.5,-99,0,none,14,18,Woman,Right,
4,1,27,1.1006631000000198,['c'],1,left,none,-99,-99,0.5,-99,0,none,14,18,Woman,Right,
5,1,27,0.8339113000001817,['n'],0,left,none,-99,-99,0.5,-99,0,none,14,18,Woman,Right,
6,1,27,2.0497479000005114,['c'],1,left,none,-99,-99,0.5,-99,0,none,14,18,Woman,Right,
7,1,27,1.2672552000003634,['n'],1,right,none,-99,-99,0.5,-99,0,none,14,18,Woman,Right,
8,1,27,1.2994931999983237,['c'],1,left,none,-99,-99,0.5,-99,0,none,14,18,Woman,Right,
9,1,27,0.7169732000002114,['c'],1,left,none,-99,-99,0.5,-99,0,none,14,18,Woman,Right,
10,1,27,0.8343045000001439,['c'],0,right,none,-99,-99,0.5,-99,0,none,14,18,Woman,Right,
11,1,27,1.1840700000011566,['n'],0,left,none,-99,-99,0.5,-99,0,none,14,18,Woman,Right,
12,1,27,0.8171633000001748,['c'],1,left,none,-99,-99,0.5,-99,0,none,14,18,Woman,Right,
13,1,27,0.3999127999995835,['c'],0,right,none,-99,-99,0.5,-99,0,none,14,18,Woman,Right,
14,1,27,1.0834458999997878,['n'],1,right,none,-99,-99,0.5,-99,0,none,14,18,Woman,Right,
15,1,27,1.2508144000003085,['n'],0,left,none,-99,-99,0.5,-99,0,none,14,18,Woman,Right,
16,1,27,0.5841645000000426,['n'],1,right,none,-99,-99,0.5,-99,0,none,14,18,Woman,Right,
17,1,27,0.43437209999865445,['n'],0,left,none,-99,-99,0.5,-99,0,none,14,18,Woman,Right,
18,1,27,0.4001100999994378,['n'],1,right,none,-99,-99,0.5,-99,0,none,14,18,Woman,Right,
19,1,27,0.5004903999997623,['n'],0,left,none,-99,-99,0.5,-99,0,none,14,18,Woman,Right,
20,1,27,0.5506848000004538,['n'],0,left,none,-99,-99,0.5,-99,0,none,14,18,Woman,Right,
21,1,27,0.36772369999926013,['n'],0,left,none,-99,-99,0.5,-99,0,none,14,18,Woman,Right,
22,1,27,0.31724060000124155,['n'],1,right,none,-99,-99,0.5,-99,0,none,14,18,Woman,Right,
23,1,27,0.70175559999916,['c'],0,right,none,-99,-99,0.5,-99,0,none,14,18,Woman,Right,
0,1,28,1.5167834000003495,['n'],0,left,none,-99,-99,0.5,-99,0,none,14,18,Woman,Right,
1,1,28,0.48381829999925685,['n'],0,left,none,-99,-99,0.5,-99,0,none,14,18,Woman,Right,
2,1,28,0.6171957999995357,['n'],0,left,none,-99,-99,0.5,-99,0,none,14,18,Woman,Right,
3,1,28,0.2671946999998909,['n'],1,right,none,-99,-99,0.5,-99,0,none,14,18,Woman,Right,
4,1,28,0.2502322999989701,['n'],1,right,none,-99,-99,0.5,-99,0,none,14,18,Woman,Right,
5,1,28,0.2673058999989735,['n'],0,left,none,-99,-99,0.5,-99,0,none,14,18,Woman,Right,
6,1,28,0.10013509999953385,['c'],0,right,none,-99,-99,0.5,-99,0,none,14,18,Woman,Right,
7,1,28,0.050914400000692694,['n'],1,right,none,-99,-99,0.5,-99,0,none,14,18,Woman,Right,
8,1,28,0.2490658999995503,['n'],1,right,none,-99,-99,0.5,-99,0,none,14,18,Woman,Right,
9,1,28,0.2656769000004715,['n'],0,left,none,-99,-99,0.5,-99,0,none,14,18,Woman,Right,
10,1,28,0.750180700000783,['n'],1,right,none,-99,-99,0.5,-99,0,none,14,18,Woman,Right,
11,1,28,0.601647999999841,['c'],1,left,none,-99,-99,0.5,-99,0,none,14,18,Woman,Right,
12,1,28,0.36730870000064897,['n'],1,right,none,-99,-99,0.5,-99,0,none,14,18,Woman,Right,
13,1,28,0.3672446000000491,['n'],0,left,none,-99,-99,0.5,-99,0,none,14,18,Woman,Right,
14,1,28,0.2989713999995729,['n'],0,left,none,-99,-99,0.5,-99,0,none,14,18,Woman,Right,
15,1,28,0.2173714000000473,['n'],1,right,none,-99,-99,0.5,-99,0,none,14,18,Woman,Right,
16,1,28,0.2664330000006885,['n'],1,right,none,-99,-99,0.5,-99,0,none,14,18,Woman,Right,
17,1,28,0.24943250000069384,['c'],0,right,none,-99,-99,0.5,-99,0,none,14,18,Woman,Right,
18,1,28,0.3169598999993468,['c'],1,left,none,-99,-99,0.5,-99,0,none,14,18,Woman,Right,
19,1,28,0.28319589999955497,['c'],0,right,none,-99,-99,0.5,-99,0,none,14,18,Woman,Right,
20,1,28,0.2669296000003669,['c'],1,left,none,-99,-99,0.5,-99,0,none,14,18,Woman,Right,
21,1,28,0.31653340000048047,['c'],1,left,none,-99,-99,0.5,-99,0,none,14,18,Woman,Right,
22,1,28,0.10080009999910544,['n'],1,right,none,-99,-99,0.5,-99,0,none,14,18,Woman,Right,
23,1,28,0.21591169999919657,['n'],0,left,none,-99,-99,0.5,-99,0,none,14,18,Woman,Right,
0,1,29,0.5847744999991846,['n'],1,right,none,-99,-99,0.5,-99,0,none,14,18,Woman,Right,
1,1,29,0.4161414000009245,['n'],0,left,none,-99,-99,0.5,-99,0,none,14,18,Woman,Right,
2,1,29,0.4002543999995396,['c'],0,right,none,-99,-99,0.5,-99,0,none,14,18,Woman,Right,
3,1,29,0.9839314000000741,['n'],0,left,none,-99,-99,0.5,-99,0,none,14,18,Woman,Right,
4,1,29,0.36721529999886116,['n'],0,left,none,-99,-99,0.5,-99,0,none,14,18,Woman,Right,
5,1,29,0.26852080000026035,['n'],0,left,none,-99,-99,0.5,-99,0,none,14,18,Woman,Right,
6,1,29,0.4504189999988739,['n'],0,left,none,-99,-99,0.5,-99,0,none,14,18,Woman,Right,
7,1,29,0.31557729999985895,['n'],1,right,none,-99,-99,0.5,-99,0,none,14,18,Woman,Right,
8,1,29,0.4003395999989152,['n'],1,right,none,-99,-99,0.5,-99,0,none,14,18,Woman,Right,
9,1,29,0.2999152000011236,['n'],1,right,none,-99,-99,0.5,-99,0,none,14,18,Woman,Right,
10,1,29,0.20135300000038114,['c'],0,right,none,-99,-99,0.5,-99,0,none,14,18,Woman,Right,
11,1,29,0.24915529999998398,['c'],1,left,none,-99,-99,0.5,-99,0,none,14,18,Woman,Right,
12,1,29,0.36612609999974666,['c'],0,right,none,-99,-99,0.5,-99,0,none,14,18,Woman,Right,
13,1,29,0.23219280000012077,['c'],0,right,none,-99,-99,0.5,-99,0,none,14,18,Woman,Right,
14,1,29,0.11710129999846686,['c'],0,right,none,-99,-99,0.5,-99,0,none,14,18,Woman,Right,
15,1,29,0.3170544999993581,['c'],1,left,none,-99,-99,0.5,-99,0,none,14,18,Woman,Right,
16,1,29,0.26680990000022575,['c'],1,left,none,-99,-99,0.5,-99,0,none,14,18,Woman,Right,
17,1,29,0.3498392999990756,['c'],1,left,none,-99,-99,0.5,-99,0,none,14,18,Woman,Right,
18,1,29,0.3494326000000001,['n'],1,right,none,-99,-99,0.5,-99,0,none,14,18,Woman,Right,
19,1,29,0.4518102000001818,['n'],0,left,none,-99,-99,0.5,-99,0,none,14,18,Woman,Right,
20,1,29,0.41624489999958314,['n'],0,left,none,-99,-99,0.5,-99,0,none,14,18,Woman,Right,
21,1,29,0.2849337999996351,['n'],1,right,none,-99,-99,0.5,-99,0,none,14,18,Woman,Right,
22,1,29,0.3166149000007863,['n'],0,left,none,-99,-99,0.5,-99,0,none,14,18,Woman,Right,
23,1,29,0.08332979999977397,['c'],0,right,none,-99,-99,0.5,-99,0,none,14,18,Woman,Right,
0,1,30,0.3010730000005424,['c'],0,right,none,-99,-99,0.5,-99,0,none,14,18,Woman,Right,
1,1,30,0.28393730000061623,['c'],0,right,none,-99,-99,0.5,-99,0,none,14,18,Woman,Right,
2,1,30,0.433924200000547,['c'],0,right,none,-99,-99,0.5,-99,0,none,14,18,Woman,Right,
3,1,30,0.23426370000015595,['c'],1,left,none,-99,-99,0.5,-99,0,none,14,18,Woman,Right,
4,1,30,0.31812840000020515,['c'],1,left,none,-99,-99,0.5,-99,0,none,14,18,Woman,Right,
5,1,30,0.29905909999979485,['c'],0,right,none,-99,-99,0.5,-99,0,none,14,18,Woman,Right,
6,1,30,0.3492108999998891,['n'],1,right,none,-99,-99,0.5,-99,0,none,14,18,Woman,Right,
7,1,30,0.28434850000121514,['n'],0,left,none,-99,-99,0.5,-99,0,none,14,18,Woman,Right,
8,1,30,0.3664676000007603,['n'],1,right,none,-99,-99,0.5,-99,0,none,14,18,Woman,Right,
9,1,30,0.3004447000002983,['n'],1,right,none,-99,-99,0.5,-99,0,none,14,18,Woman,Right,
10,1,30,0.26648109999950975,['n'],0,left,none,-99,-99,0.5,-99,0,none,14,18,Woman,Right,
11,1,30,1.149326499999006,['c'],1,left,none,-99,-99,0.5,-99,0,none,14,18,Woman,Right,
12,1,30,0.5016022999989218,['n'],0,left,none,-99,-99,0.5,-99,0,none,14,18,Woman,Right,
13,1,30,0.7506060000014259,['n'],1,right,none,-99,-99,0.5,-99,0,none,14,18,Woman,Right,
14,1,30,1.0181069000009302,['n'],1,right,none,-99,-99,0.5,-99,0,none,14,18,Woman,Right,
15,1,30,1.0998995999998442,['c'],1,left,none,-99,-99,0.5,-99,0,none,14,18,Woman,Right,
16,1,30,0.7844670000013139,['c'],1,left,none,-99,-99,0.5,-99,0,none,14,18,Woman,Right,
17,1,30,0.7345530999991752,['c'],0,right,none,-99,-99,0.5,-99,0,none,14,18,Woman,Right,
18,1,30,0.5678764000003866,['c'],0,right,none,-99,-99,0.5,-99,0,none,14,18,Woman,Right,
19,1,30,0.6010586000011244,['c'],1,left,none,-99,-99,0.5,-99,0,none,14,18,Woman,Right,
20,1,30,0.5670685000004596,['c'],0,right,none,-99,-99,0.5,-99,0,none,14,18,Woman,Right,
21,1,30,0.516191799999433,['c'],1,left,none,-99,-99,0.5,-99,0,none,14,18,Woman,Right,
22,1,30,0.23433139999906416,['c'],1,left,none,-99,-99,0.5,-99,0,none,14,18,Woman,Right,
23,1,30,0.28325459999905434,['n'],0,left,none,-99,-99,0.5,-99,0,none,14,18,Woman,Right,
0,1,31,0.5340106999992713,['n'],1,right,none,-99,-99,0.5,-99,0,none,14,18,Woman,Right,
1,1,31,0.3336632999998983,['n'],0,left,none,-99,-99,0.5,-99,0,none,14,18,Woman,Right,
2,1,31,0.34983809999903315,['n'],1,right,none,-99,-99,0.5,-99,0,none,14,18,Woman,Right,
3,1,31,0.6166078000005655,['n'],1,right,none,-99,-99,0.5,-99,0,none,14,18,Woman,Right,
4,1,31,0.30036029999973834,['c'],1,left,none,-99,-99,0.5,-99,0,none,14,18,Woman,Right,
5,1,31,0.2834160999991582,['c'],1,left,none,-99,-99,0.5,-99,0,none,14,18,Woman,Right,
6,1,31,0.33346009999877424,['n'],1,right,none,-99,-99,0.5,-99,0,none,14,18,Woman,Right,
7,1,31,0.21849119999933464,['n'],0,left,none,-99,-99,0.5,-99,0,none,14,18,Woman,Right,
8,1,31,0.7660632000006444,['n'],0,left,none,-99,-99,0.5,-99,0,none,14,18,Woman,Right,
9,1,31,0.35001009999905364,['n'],0,left,none,-99,-99,0.5,-99,0,none,14,18,Woman,Right,
10,1,31,0.3339144000001397,['n'],1,right,none,-99,-99,0.5,-99,0,none,14,18,Woman,Right,
11,1,31,0.6664641999996093,['n'],0,left,none,-99,-99,0.5,-99,0,none,14,18,Woman,Right,
12,1,31,0.35064600000077917,['n'],0,left,none,-99,-99,0.5,-99,0,none,14,18,Woman,Right,
13,1,31,0.5497524000002159,['n'],0,left,none,-99,-99,0.5,-99,0,none,14,18,Woman,Right,
14,1,31,0.40045939999981783,['n'],1,right,none,-99,-99,0.5,-99,0,none,14,18,Woman,Right,
15,1,31,0.7329085000001214,['n'],1,right,none,-99,-99,0.5,-99,0,none,14,18,Woman,Right,
16,1,31,2.4506122000002506,['n'],1,right,none,-99,-99,0.5,-99,0,none,14,18,Woman,Right,
17,1,31,0.48411319999831903,['c'],0,right,none,-99,-99,0.5,-99,0,none,14,18,Woman,Right,
18,1,31,0.3349058999992849,['n'],0,left,none,-99,-99,0.5,-99,0,none,14,18,Woman,Right,
19,1,31,0.30128119999972114,['n'],1,right,none,-99,-99,0.5,-99,0,none,14,18,Woman,Right,
20,1,31,0.2176433000004181,['c'],0,right,none,-99,-99,0.5,-99,0,none,14,18,Woman,Right,
21,1,31,0.2344374999993306,['n'],1,right,none,-99,-99,0.5,-99,0,none,14,18,Woman,Right,
22,1,31,0.33499639999899955,['c'],1,left,none,-99,-99,0.5,-99,0,none,14,18,Woman,Right,
23,1,31,0.4155417000001762,['c'],1,left,none,-99,-99,0.5,-99,0,none,14,18,Woman,Right,
0,1,32,0.7513089000003674,['c'],0,right,none,-99,-99,0.5,-99,0,none,14,18,Woman,Right,
1,1,32,0.45040489999882993,['c'],1,left,none,-99,-99,0.5,-99,0,none,14,18,Woman,Right,
2,1,32,0.3340381999987585,['c'],1,left,none,-99,-99,0.5,-99,0,none,14,18,Woman,Right,
3,1,32,0.6346987999986595,['n'],0,left,none,-99,-99,0.5,-99,0,none,14,18,Woman,Right,
4,1,32,0.617346400000315,['n'],0,left,none,-99,-99,0.5,-99,0,none,14,18,Woman,Right,
5,1,32,0.6517886999990878,['n'],0,left,none,-99,-99,0.5,-99,0,none,14,18,Woman,Right,
6,1,32,0.5660681999997905,['n'],1,right,none,-99,-99,0.5,-99,0,none,14,18,Woman,Right,
7,1,32,0.315866000000824,['n'],1,right,none,-99,-99,0.5,-99,0,none,14,18,Woman,Right,
8,1,32,0.2348632000012003,['c'],0,right,none,-99,-99,0.5,-99,0,none,14,18,Woman,Right,
9,1,32,0.900903499999913,['c'],1,left,none,-99,-99,0.5,-99,0,none,14,18,Woman,Right,
10,1,32,0.31581370000094466,['c'],1,left,none,-99,-99,0.5,-99,0,none,14,18,Woman,Right,
11,1,32,0.4502707999999984,['n'],1,right,none,-99,-99,0.5,-99,0,none,14,18,Woman,Right,
12,1,32,0.251673299999311,['n'],1,right,none,-99,-99,0.5,-99,0,none,14,18,Woman,Right,
13,1,32,1.1827771000007488,['n'],1,right,none,-99,-99,0.5,-99,0,none,14,18,Woman,Right,
14,1,32,0.5344224000000395,['c'],1,left,none,-99,-99,0.5,-99,0,none,14,18,Woman,Right,
15,1,32,0.2332224000001588,['c'],0,right,none,-99,-99,0.5,-99,0,none,14,18,Woman,Right,
16,1,32,0.7659558000013931,['c'],0,right,none,-99,-99,0.5,-99,0,none,14,18,Woman,Right,
17,1,32,0.3343776000001526,['c'],1,left,none,-99,-99,0.5,-99,0,none,14,18,Woman,Right,
18,1,32,0.5322802999999112,['c'],1,left,none,-99,-99,0.5,-99,0,none,14,18,Woman,Right,
19,1,32,0.23416189999989,['c'],0,right,none,-99,-99,0.5,-99,0,none,14,18,Woman,Right,
20,1,32,0.26576049999857787,['c'],1,left,none,-99,-99,0.5,-99,0,none,14,18,Woman,Right,
21,1,32,1.5164464000008593,['c'],0,right,none,-99,-99,0.5,-99,0,none,14,18,Woman,Right,
22,1,32,0.4346042999986821,['n'],1,right,none,-99,-99,0.5,-99,0,none,14,18,Woman,Right,
23,1,32,0.36697319999984757,['c'],1,left,none,-99,-99,0.5,-99,0,none,14,18,Woman,Right,
0,1,33,0.43314939999982016,['n'],0,left,none,-99,-99,0.5,-99,0,none,14,18,Woman,Right,
1,1,33,0.41727650000029826,['n'],0,left,none,-99,-99,0.5,-99,0,none,14,18,Woman,Right,
2,1,33,0.38439309999921534,['n'],0,left,none,-99,-99,0.5,-99,0,none,14,18,Woman,Right,
3,1,33,0.315769700000601,['n'],0,left,none,-99,-99,0.5,-99,0,none,14,18,Woman,Right,
4,1,33,0.30174329999863403,['n'],0,left,none,-99,-99,0.5,-99,0,none,14,18,Woman,Right,
5,1,33,0.2987489999995887,['n'],0,left,none,-99,-99,0.5,-99,0,none,14,18,Woman,Right,
6,1,33,0.6177160000006552,['n'],1,right,none,-99,-99,0.5,-99,0,none,14,18,Woman,Right,
7,1,33,0.3823672999988048,['n'],0,left,none,-99,-99,0.5,-99,0,none,14,18,Woman,Right,
8,1,33,0.14919240000017453,['n'],1,right,none,-99,-99,0.5,-99,0,none,14,18,Woman,Right,
9,1,33,0.25023180000061984,['n'],1,right,none,-99,-99,0.5,-99,0,none,14,18,Woman,Right,
10,1,33,0.14939679999952205,['n'],1,right,none,-99,-99,0.5,-99,0,none,14,18,Woman,Right,
11,1,33,0.2319234000005963,['n'],1,right,none,-99,-99,0.5,-99,0,none,14,18,Woman,Right,
12,1,33,0.11721159999979136,['n'],0,left,none,-99,-99,0.5,-99,0,none,14,18,Woman,Right,
13,1,33,0.20132210000156192,['c'],0,right,none,-99,-99,0.5,-99,0,none,14,18,Woman,Right,
14,1,33,0.13300539999909233,['c'],0,right,none,-99,-99,0.5,-99,0,none,14,18,Woman,Right,
15,1,33,0.2997519000000466,['c'],0,right,none,-99,-99,0.5,-99,0,none,14,18,Woman,Right,
16,1,33,0.28336359999957494,['c'],1,left,none,-99,-99,0.5,-99,0,none,14,18,Woman,Right,
17,1,33,0.06672330000037618,['c'],1,left,none,-99,-99,0.5,-99,0,none,14,18,Woman,Right,
18,1,33,0.4010075999995024,['c'],0,right,none,-99,-99,0.5,-99,0,none,14,18,Woman,Right,
19,1,33,0.10058660000140662,['c'],1,left,none,-99,-99,0.5,-99,0,none,14,18,Woman,Right,
20,1,33,0.2504951999999321,['c'],1,left,none,-99,-99,0.5,-99,0,none,14,18,Woman,Right,
21,1,33,0.250330999999278,['c'],0,right,none,-99,-99,0.5,-99,0,none,14,18,Woman,Right,
22,1,33,0.167946600000505,['c'],0,right,none,-99,-99,0.5,-99,0,none,14,18,Woman,Right,
23,1,33,0.10010340000008,['c'],0,right,none,-99,-99,0.5,-99,0,none,14,18,Woman,Right,
0,1,34,0.4341788000001543,['n'],1,right,none,-99,-99,0.5,-99,0,none,14,18,Woman,Right,
1,1,34,0.2668284000010317,['n'],0,left,none,-99,-99,0.5,-99,0,none,14,18,Woman,Right,
2,1,34,0.2996087000010448,['n'],0,left,none,-99,-99,0.5,-99,0,none,14,18,Woman,Right,
3,1,34,0.3494321999987733,['n'],1,right,none,-99,-99,0.5,-99,0,none,14,18,Woman,Right,
4,1,34,1.1003860000000714,['n'],0,left,none,-99,-99,0.5,-99,0,none,14,18,Woman,Right,
5,1,34,1.0164999999997235,['c'],1,left,none,-99,-99,0.5,-99,0,none,14,18,Woman,Right,
6,1,34,0.7506666999997833,['n'],0,left,none,-99,-99,0.5,-99,0,none,14,18,Woman,Right,
7,1,34,0.28462299999955576,['n'],1,right,none,-99,-99,0.5,-99,0,none,14,18,Woman,Right,
8,1,34,0.29909609999958775,['c'],0,right,none,-99,-99,0.5,-99,0,none,14,18,Woman,Right,
9,1,34,0.4502799000001687,['n'],0,left,none,-99,-99,0.5,-99,0,none,14,18,Woman,Right,
10,1,34,0.3343633000004047,['c'],1,left,none,-99,-99,0.5,-99,0,none,14,18,Woman,Right,
11,1,34,0.7007845999996789,['n'],0,left,none,-99,-99,0.5,-99,0,none,14,18,Woman,Right,
12,1,34,0.33488130000114325,"['n', 'c']",1,right,none,-99,-99,0.5,-99,0,none,14,18,Woman,Right,
13,1,34,0.26755709999997634,"['n', 'c']",1,right,none,-99,-99,0.5,-99,0,none,14,18,Woman,Right,
14,1,34,0.26568479999878036,['n'],0,left,none,-99,-99,0.5,-99,0,none,14,18,Woman,Right,
15,1,34,0.26654840000082913,"['n', 'c']",0,left,none,-99,-99,0.5,-99,0,none,14,18,Woman,Right,
16,1,34,0.1837175999989995,['c'],0,right,none,-99,-99,0.5,-99,0,none,14,18,Woman,Right,
17,1,34,0.8332228999988729,"['n', 'c']",1,right,none,-99,-99,0.5,-99,0,none,14,18,Woman,Right,
18,1,34,0.06643009999970673,['c'],0,right,none,-99,-99,0.5,-99,0,none,14,18,Woman,Right,
19,1,34,0.28411120000055234,"['n', 'c']",1,right,none,-99,-99,0.5,-99,0,none,14,18,Woman,Right,
20,1,34,0.2496618999994098,['c'],0,right,none,-99,-99,0.5,-99,0,none,14,18,Woman,Right,
21,1,34,0.35131730000102834,['n'],0,left,none,-99,-99,0.5,-99,0,none,14,18,Woman,Right,
22,1,34,0.6157168999998248,['n'],0,left,none,-99,-99,0.5,-99,0,none,14,18,Woman,Right,
23,1,34,0.401296199999706,['c'],0,right,none,-99,-99,0.5,-99,0,none,14,18,Woman,Right,
0,1,35,0.3003951999999117,['c'],1,left,none,-99,-99,0.5,-99,0,none,14,18,Woman,Right,
1,1,35,0.05037809999885212,['c'],1,left,none,-99,-99,0.5,-99,0,none,14,18,Woman,Right,
2,1,35,0.13399170000047889,['n'],0,left,none,-99,-99,0.5,-99,0,none,14,18,Woman,Right,
3,1,35,0.1854096999995818,['n'],1,right,none,-99,-99,0.5,-99,0,none,14,18,Woman,Right,
4,1,35,0.4001683000005869,['n'],0,left,none,-99,-99,0.5,-99,0,none,14,18,Woman,Right,
5,1,35,0.21751810000023397,['n'],1,right,none,-99,-99,0.5,-99,0,none,14,18,Woman,Right,
6,1,35,0.4337851000000228,['n'],1,right,none,-99,-99,0.5,-99,0,none,14,18,Woman,Right,
7,1,35,0.2663520000005519,['c'],0,right,none,-99,-99,0.5,-99,0,none,14,18,Woman,Right,
8,1,35,0.23371749999932945,['c'],0,right,none,-99,-99,0.5,-99,0,none,14,18,Woman,Right,
9,1,35,0.2993771999990713,['c'],0,right,none,-99,-99,0.5,-99,0,none,14,18,Woman,Right,
10,1,35,0.24908649999997579,['c'],1,left,none,-99,-99,0.5,-99,0,none,14,18,Woman,Right,
11,1,35,0.35121389999949315,['c'],1,left,none,-99,-99,0.5,-99,0,none,14,18,Woman,Right,
12,1,35,0.2341892000004009,['c'],1,left,none,-99,-99,0.5,-99,0,none,14,18,Woman,Right,
13,1,35,0.2839259000011225,['n'],0,left,none,-99,-99,0.5,-99,0,none,14,18,Woman,Right,
14,1,35,0.30079509999995935,['n'],1,right,none,-99,-99,0.5,-99,0,none,14,18,Woman,Right,
15,1,35,0.31620529999963765,['n'],1,right,none,-99,-99,0.5,-99,0,none,14,18,Woman,Right,
16,1,35,0.3347243999996863,['n'],1,right,none,-99,-99,0.5,-99,0,none,14,18,Woman,Right,
17,1,35,0.7510505000009289,['c'],1,left,none,-99,-99,0.5,-99,0,none,14,18,Woman,Right,
18,1,35,0.30005419999906735,['c'],0,right,none,-99,-99,0.5,-99,0,none,14,18,Woman,Right,
19,1,35,0.33398770000167133,['c'],1,left,none,-99,-99,0.5,-99,0,none,14,18,Woman,Right,
20,1,35,0.3836891999999352,['c'],1,left,none,-99,-99,0.5,-99,0,none,14,18,Woman,Right,
21,1,35,0.28413780000119004,['c'],0,right,none,-99,-99,0.5,-99,0,none,14,18,Woman,Right,
22,1,35,0.7176775000007183,['c'],0,right,none,-99,-99,0.5,-99,0,none,14,18,Woman,Right,
23,1,35,0.3847862999991776,['c'],1,left,none,-99,-99,0.5,-99,0,none,14,18,Woman,Right,
0,1,36,0.6003535999989253,['n'],1,right,none,-99,-99,0.5,-99,0,none,14,18,Woman,Right,
1,1,36,0.36637729999893054,['n'],1,right,none,-99,-99,0.5,-99,0,none,14,18,Woman,Right,
2,1,36,0.2169259999991482,['n'],1,right,none,-99,-99,0.5,-99,0,none,14,18,Woman,Right,
3,1,36,0.1504745999991428,['c'],0,right,none,-99,-99,0.5,-99,0,none,14,18,Woman,Right,
4,1,36,0.23435280000012426,['c'],0,right,none,-99,-99,0.5,-99,0,none,14,18,Woman,Right,
5,1,36,0.11646830000063346,['c'],1,left,none,-99,-99,0.5,-99,0,none,14,18,Woman,Right,
6,1,36,0.3665755000001809,['c'],1,left,none,-99,-99,0.5,-99,0,none,14,18,Woman,Right,
7,1,36,0.5673983999986376,['n'],0,left,none,-99,-99,0.5,-99,0,none,14,18,Woman,Right,
8,1,36,0.4008530000010069,['c'],0,right,none,-99,-99,0.5,-99,0,none,14,18,Woman,Right,
9,1,36,0.7004944999989675,['c'],0,right,none,-99,-99,0.5,-99,0,none,14,18,Woman,Right,
10,1,36,0.20032639999953972,['c'],0,right,none,-99,-99,0.5,-99,0,none,14,18,Woman,Right,
11,1,36,0.3855050999991363,['n'],1,right,none,-99,-99,0.5,-99,0,none,14,18,Woman,Right,
12,1,36,0.049455599999419064,['c'],1,left,none,-99,-99,0.5,-99,0,none,14,18,Woman,Right,
13,1,36,0.3678397000003315,['n'],0,left,none,-99,-99,0.5,-99,0,none,14,18,Woman,Right,
14,1,36,0.3007863000002544,['n'],0,left,none,-99,-99,0.5,-99,0,none,14,18,Woman,Right,
15,1,36,0.600555400000303,['n'],0,left,none,-99,-99,0.5,-99,0,none,14,18,Woman,Right,
16,1,36,0.21713420000014594,['n'],0,left,none,-99,-99,0.5,-99,0,none,14,18,Woman,Right,
17,1,36,0.06668589999935648,['n'],1,right,none,-99,-99,0.5,-99,0,none,14,18,Woman,Right,
18,1,36,0.16759450000063225,['n'],0,left,none,-99,-99,0.5,-99,0,none,14,18,Woman,Right,
19,1,36,0.18341250000048603,['n'],0,left,none,-99,-99,0.5,-99,0,none,14,18,Woman,Right,
20,1,36,0.049975799998719594,['c'],1,left,none,-99,-99,0.5,-99,0,none,14,18,Woman,Right,
21,1,36,0.31713349999881757,['c'],0,right,none,-99,-99,0.5,-99,0,none,14,18,Woman,Right,
22,1,36,0.5508864999992511,['n'],1,right,none,-99,-99,0.5,-99,0,none,14,18,Woman,Right,
23,1,36,0.2673706999994465,['c'],1,left,none,-99,-99,0.5,-99,0,none,14,18,Woman,Right,
0,1,37,0.8347388999991381,['c'],1,left,none,-99,-99,0.5,-99,0,none,14,18,Woman,Right,
1,1,37,0.6177188999990904,['n'],0,left,none,-99,-99,0.5,-99,0,none,14,18,Woman,Right,
2,1,37,0.4493151000006037,['c'],0,right,none,-99,-99,0.5,-99,0,none,14,18,Woman,Right,
3,1,37,1.6174044999988837,['c'],1,left,none,-99,-99,0.5,-99,0,none,14,18,Woman,Right,
4,1,37,0.6502241999987746,['c'],1,left,none,-99,-99,0.5,-99,0,none,14,18,Woman,Right,
5,1,37,0.3675383999998303,['n'],0,left,none,-99,-99,0.5,-99,0,none,14,18,Woman,Right,
6,1,37,0.5497551999997086,['n'],1,right,none,-99,-99,0.5,-99,0,none,14,18,Woman,Right,
7,1,37,0.650473099998635,['n'],1,right,none,-99,-99,0.5,-99,0,none,14,18,Woman,Right,
8,1,37,0.6175720999999612,['c'],1,left,none,-99,-99,0.5,-99,0,none,14,18,Woman,Right,
9,1,37,0.3673199000004388,['c'],0,right,none,-99,-99,0.5,-99,0,none,14,18,Woman,Right,
10,1,37,0.6997646999989229,['n'],1,right,none,-99,-99,0.5,-99,0,none,14,18,Woman,Right,
11,1,37,0.8174682999997458,['n'],1,right,none,-99,-99,0.5,-99,0,none,14,18,Woman,Right,
12,1,37,0.7181041000003461,['n'],0,left,none,-99,-99,0.5,-99,0,none,14,18,Woman,Right,
13,1,37,0.7160894000007829,['n'],1,right,none,-99,-99,0.5,-99,0,none,14,18,Woman,Right,
14,1,37,0.6838958999996976,['c'],1,left,none,-99,-99,0.5,-99,0,none,14,18,Woman,Right,
15,1,37,0.7836152999989281,['c'],1,left,none,-99,-99,0.5,-99,0,none,14,18,Woman,Right,
16,1,37,0.48253530000147293,['n'],1,right,none,-99,-99,0.5,-99,0,none,14,18,Woman,Right,
17,1,37,0.8843230000002222,['c'],0,right,none,-99,-99,0.5,-99,0,none,14,18,Woman,Right,
18,1,37,0.38301590000082797,['c'],1,left,none,-99,-99,0.5,-99,0,none,14,18,Woman,Right,
19,1,37,0.8168338000014046,['n'],1,right,none,-99,-99,0.5,-99,0,none,14,18,Woman,Right,
20,1,37,0.684519000000364,['n'],0,left,none,-99,-99,0.5,-99,0,none,14,18,Woman,Right,
21,1,37,0.5002622000010888,['n'],1,right,none,-99,-99,0.5,-99,0,none,14,18,Woman,Right,
22,1,37,0.6162113000009413,['c'],0,right,none,-99,-99,0.5,-99,0,none,14,18,Woman,Right,
23,1,37,0.44889990000046964,['c'],1,left,none,-99,-99,0.5,-99,0,none,14,18,Woman,Right,
0,1,38,1.7348445000006905,['n'],1,right,none,-99,-99,0.5,-99,0,none,14,18,Woman,Right,
1,1,38,0.7173217999988992,['c'],0,right,none,-99,-99,0.5,-99,0,none,14,18,Woman,Right,
2,1,38,0.33395820000077947,['c'],1,left,none,-99,-99,0.5,-99,0,none,14,18,Woman,Right,
3,1,38,0.38225929999862274,['c'],1,left,none,-99,-99,0.5,-99,0,none,14,18,Woman,Right,
4,1,38,0.4998987999988458,['c'],0,right,none,-99,-99,0.5,-99,0,none,14,18,Woman,Right,
5,1,38,0.26712159999988216,['c'],0,right,none,-99,-99,0.5,-99,0,none,14,18,Woman,Right,
6,1,38,0.6000660999998217,['c'],0,right,none,-99,-99,0.5,-99,0,none,14,18,Woman,Right,
7,1,38,0.2167952999989211,['c'],0,right,none,-99,-99,0.5,-99,0,none,14,18,Woman,Right,
8,1,38,0.3669668000002275,['c'],0,right,none,-99,-99,0.5,-99,0,none,14,18,Woman,Right,
9,1,38,0.833580600001369,['n'],0,left,none,-99,-99,0.5,-99,0,none,14,18,Woman,Right,
10,1,38,0.29930740000054357,['c'],0,right,none,-99,-99,0.5,-99,0,none,14,18,Woman,Right,
11,1,38,0.09945320000042557,['c'],1,left,none,-99,-99,0.5,-99,0,none,14,18,Woman,Right,
12,1,38,0.2839174999990064,['c'],1,left,none,-99,-99,0.5,-99,0,none,14,18,Woman,Right,
13,1,38,0.23356360000070708,['c'],1,left,none,-99,-99,0.5,-99,0,none,14,18,Woman,Right,
14,1,38,0.26750799999899755,['c'],1,left,none,-99,-99,0.5,-99,0,none,14,18,Woman,Right,
15,1,38,0.24988540000049397,['n'],0,left,none,-99,-99,0.5,-99,0,none,14,18,Woman,Right,
16,1,38,0.03381649999937508,['n'],0,left,none,-99,-99,0.5,-99,0,none,14,18,Woman,Right,
17,1,38,0.283653399999821,['n'],0,left,none,-99,-99,0.5,-99,0,none,14,18,Woman,Right,
18,1,38,0.7339535000010073,['c'],1,left,none,-99,-99,0.5,-99,0,none,14,18,Woman,Right,
19,1,38,0.26637620000110473,['n'],1,right,none,-99,-99,0.5,-99,0,none,14,18,Woman,Right,
20,1,38,0.2506078999995225,['n'],0,left,none,-99,-99,0.5,-99,0,none,14,18,Woman,Right,
21,1,38,0.2668355999994674,['n'],1,right,none,-99,-99,0.5,-99,0,none,14,18,Woman,Right,
22,1,38,0.417029399999592,['n'],1,right,none,-99,-99,0.5,-99,0,none,14,18,Woman,Right,
23,1,38,0.2656091999997443,['n'],1,right,none,-99,-99,0.5,-99,0,none,14,18,Woman,Right,
0,1,39,0.6179727999988245,['n'],1,right,none,-99,-99,0.5,-99,0,none,14,18,Woman,Right,
1,1,39,0.5502694000006159,['n'],1,right,none,-99,-99,0.5,-99,0,none,14,18,Woman,Right,
2,1,39,0.5004628999995475,['c'],0,right,none,-99,-99,0.5,-99,0,none,14,18,Woman,Right,
3,1,39,1.3150955999990401,['c'],1,left,none,-99,-99,0.5,-99,0,none,14,18,Woman,Right,
4,1,39,0.44966179999937594,['c'],1,left,none,-99,-99,0.5,-99,0,none,14,18,Woman,Right,
5,1,39,0.5014974000005168,['c'],1,left,none,-99,-99,0.5,-99,0,none,14,18,Woman,Right,
6,1,39,0.28382590000001073,['n'],1,right,none,-99,-99,0.5,-99,0,none,14,18,Woman,Right,
7,1,39,0.06598350000058417,['n'],0,left,none,-99,-99,0.5,-99,0,none,14,18,Woman,Right,
8,1,39,0.3013590999998996,['n'],1,right,none,-99,-99,0.5,-99,0,none,14,18,Woman,Right,
9,1,39,0.3168946000005235,['n'],0,left,none,-99,-99,0.5,-99,0,none,14,18,Woman,Right,
10,1,39,0.28475580000122136,['n'],0,left,none,-99,-99,0.5,-99,0,none,14,18,Woman,Right,
11,1,39,0.5504386000011436,['n'],0,left,none,-99,-99,0.5,-99,0,none,14,18,Woman,Right,
12,1,39,1.683921800000462,['n'],1,right,none,-99,-99,0.5,-99,0,none,14,18,Woman,Right,
13,1,39,0.517395700000634,['c'],1,left,none,-99,-99,0.5,-99,0,none,14,18,Woman,Right,
14,1,39,0.38469740000073216,['c'],0,right,none,-99,-99,0.5,-99,0,none,14,18,Woman,Right,
15,1,39,0.5173117000013008,['c'],1,left,none,-99,-99,0.5,-99,0,none,14,18,Woman,Right,
16,1,39,0.41681229999994684,['c'],0,right,none,-99,-99,0.5,-99,0,none,14,18,Woman,Right,
17,1,39,0.66663139999946,['n'],1,right,none,-99,-99,0.5,-99,0,none,14,18,Woman,Right,
18,1,39,0.5177805000002991,['n'],0,left,none,-99,-99,0.5,-99,0,none,14,18,Woman,Right,
19,1,39,0.36731979999967734,['n'],1,right,none,-99,-99,0.5,-99,0,none,14,18,Woman,Right,
20,1,39,0.35045780000109517,['n'],0,left,none,-99,-99,0.5,-99,0,none,14,18,Woman,Right,
21,1,39,0.28536259999964386,['n'],0,left,none,-99,-99,0.5,-99,0,none,14,18,Woman,Right,
22,1,39,0.25112609999996494,['n'],1,right,none,-99,-99,0.5,-99,0,none,14,18,Woman,Right,
23,1,39,0.5676628999990498,['c'],0,right,none,-99,-99,0.5,-99,0,none,14,18,Woman,Right,
0,1,40,0.6504306999995606,['n'],0,left,none,-99,-99,0.5,-99,0,none,14,18,Woman,Right,
1,1,40,0.26755080000111775,['n'],1,right,none,-99,-99,0.5,-99,0,none,14,18,Woman,Right,
2,1,40,0.3485239999990881,['n'],1,right,none,-99,-99,0.5,-99,0,none,14,18,Woman,Right,
3,1,40,0.4325453000001289,['c'],0,right,none,-99,-99,0.5,-99,0,none,14,18,Woman,Right,
4,1,40,0.34975289999965753,['c'],0,right,none,-99,-99,0.5,-99,0,none,14,18,Woman,Right,
5,1,40,0.3175459000012779,['n'],1,right,none,-99,-99,0.5,-99,0,none,14,18,Woman,Right,
6,1,40,0.38380420000066806,['n'],1,right,none,-99,-99,0.5,-99,0,none,14,18,Woman,Right,
7,1,40,0.2679595999998128,['n'],0,left,none,-99,-99,0.5,-99,0,none,14,18,Woman,Right,
8,1,40,0.13448810000045341,['n'],1,right,none,-99,-99,0.5,-99,0,none,14,18,Woman,Right,
9,1,40,0.3683151999994152,['c'],1,left,none,-99,-99,0.5,-99,0,none,14,18,Woman,Right,
10,1,40,0.2338240000008227,['c'],1,left,none,-99,-99,0.5,-99,0,none,14,18,Woman,Right,
11,1,40,0.10000530000070285,['c'],1,left,none,-99,-99,0.5,-99,0,none,14,18,Woman,Right,
12,1,40,0.24988400000074762,['c'],1,left,none,-99,-99,0.5,-99,0,none,14,18,Woman,Right,
13,1,40,0.46592210000017076,['c'],0,right,none,-99,-99,0.5,-99,0,none,14,18,Woman,Right,
14,1,40,0.38226050000048417,['c'],0,right,none,-99,-99,0.5,-99,0,none,14,18,Woman,Right,
15,1,40,0.08351799999945797,['n'],1,right,none,-99,-99,0.5,-99,0,none,14,18,Woman,Right,
16,1,40,0.31737129999964964,['n'],0,left,none,-99,-99,0.5,-99,0,none,14,18,Woman,Right,
17,1,40,0.3506303000012849,['n'],0,left,none,-99,-99,0.5,-99,0,none,14,18,Woman,Right,
18,1,40,0.28446290000101726,['c'],1,left,none,-99,-99,0.5,-99,0,none,14,18,Woman,Right,
19,1,40,0.13400670000009995,['n'],1,right,none,-99,-99,0.5,-99,0,none,14,18,Woman,Right,
20,1,40,0.28220540000074834,['n'],1,right,none,-99,-99,0.5,-99,0,none,14,18,Woman,Right,
21,1,40,0.25171969999973953,['c'],1,left,none,-99,-99,0.5,-99,0,none,14,18,Woman,Right,
22,1,40,0.36743510000087554,['c'],1,left,none,-99,-99,0.5,-99,0,none,14,18,Woman,Right,
23,1,40,0.2671981000003143,['n'],0,left,none,-99,-99,0.5,-99,0,none,14,18,Woman,Right,
0,1,41,0.767629300000408,['n'],0,left,none,-99,-99,0.5,-99,0,none,14,18,Woman,Right,
1,1,41,0.4828969000009238,['n'],0,left,none,-99,-99,0.5,-99,0,none,14,18,Woman,Right,
2,1,41,1.0340481999992335,['n'],1,right,none,-99,-99,0.5,-99,0,none,14,18,Woman,Right,
3,1,41,0.43390759999965667,['n'],1,right,none,-99,-99,0.5,-99,0,none,14,18,Woman,Right,
4,1,41,0.8172394000011991,['c'],1,left,none,-99,-99,0.5,-99,0,none,14,18,Woman,Right,
5,1,41,0.43392909999965923,['c'],1,left,none,-99,-99,0.5,-99,0,none,14,18,Woman,Right,
6,1,41,0.3833468000011635,['c'],1,left,none,-99,-99,0.5,-99,0,none,14,18,Woman,Right,
7,1,41,0.39984950000143726,['n'],1,right,none,-99,-99,0.5,-99,0,none,14,18,Woman,Right,
8,1,41,0.26818570000068576,['n'],0,left,none,-99,-99,0.5,-99,0,none,14,18,Woman,Right,
9,1,41,0.750748399999793,['c'],0,right,none,-99,-99,0.5,-99,0,none,14,18,Woman,Right,
10,1,41,0.2835188000008202,['c'],0,right,none,-99,-99,0.5,-99,0,none,14,18,Woman,Right,
11,1,41,0.4996506000006775,['c'],1,left,none,-99,-99,0.5,-99,0,none,14,18,Woman,Right,
12,1,41,0.28255519999947865,['n'],0,left,none,-99,-99,0.5,-99,0,none,14,18,Woman,Right,
13,1,41,0.3171172000002116,['n'],0,left,none,-99,-99,0.5,-99,0,none,14,18,Woman,Right,
14,1,41,0.2832350000007864,['n'],0,left,none,-99,-99,0.5,-99,0,none,14,18,Woman,Right,
15,1,41,0.5004329000003054,['n'],1,right,none,-99,-99,0.5,-99,0,none,14,18,Woman,Right,
16,1,41,0.39985150000029535,['n'],0,left,none,-99,-99,0.5,-99,0,none,14,18,Woman,Right,
17,1,41,0.3839181000003009,['c'],0,right,none,-99,-99,0.5,-99,0,none,14,18,Woman,Right,
18,1,41,0.7840133000008791,['n'],1,right,none,-99,-99,0.5,-99,0,none,14,18,Woman,Right,
19,1,41,0.45039749999887135,['n'],1,right,none,-99,-99,0.5,-99,0,none,14,18,Woman,Right,
20,1,41,0.5505151000015758,['n'],1,right,none,-99,-99,0.5,-99,0,none,14,18,Woman,Right,
21,1,41,0.7991588999993837,['c'],0,right,none,-99,-99,0.5,-99,0,none,14,18,Woman,Right,
22,1,41,0.6172243999990314,['c'],0,right,none,-99,-99,0.5,-99,0,none,14,18,Woman,Right,
23,1,41,0.3009956999994756,['c'],1,left,none,-99,-99,0.5,-99,0,none,14,18,Woman,Right,
0,1,42,0.9503313999994134,['c'],0,right,none,-99,-99,0.5,-99,0,none,14,18,Woman,Right,
1,1,42,0.33296599999994214,['n'],0,left,none,-99,-99,0.5,-99,0,none,14,18,Woman,Right,
2,1,42,0.2839847999985068,['c'],0,right,none,-99,-99,0.5,-99,0,none,14,18,Woman,Right,
3,1,42,0.4009669000006397,['c'],1,left,none,-99,-99,0.5,-99,0,none,14,18,Woman,Right,
4,1,42,0.03383129999929224,['n'],0,left,none,-99,-99,0.5,-99,0,none,14,18,Woman,Right,
5,1,42,0.45069540000076813,['n'],1,right,none,-99,-99,0.5,-99,0,none,14,18,Woman,Right,
6,1,42,0.4664826999996876,['n'],1,right,none,-99,-99,0.5,-99,0,none,14,18,Woman,Right,
7,1,42,0.3498163000003842,['c'],0,right,none,-99,-99,0.5,-99,0,none,14,18,Woman,Right,
8,1,42,0.38282210000033956,['c'],0,right,none,-99,-99,0.5,-99,0,none,14,18,Woman,Right,
9,1,42,0.2834194999995816,['n'],0,left,none,-99,-99,0.5,-99,0,none,14,18,Woman,Right,
10,1,42,0.28417570000056,['n'],1,right,none,-99,-99,0.5,-99,0,none,14,18,Woman,Right,
11,1,42,0.29863730000033684,['n'],0,left,none,-99,-99,0.5,-99,0,none,14,18,Woman,Right,
12,1,42,0.2838606000004802,['n'],1,right,none,-99,-99,0.5,-99,0,none,14,18,Woman,Right,
13,1,42,0.46761809999952675,['n'],0,left,none,-99,-99,0.5,-99,0,none,14,18,Woman,Right,
14,1,42,0.21724449999965145,['n'],1,right,none,-99,-99,0.5,-99,0,none,14,18,Woman,Right,
15,1,42,0.3342116999992868,['n'],1,right,none,-99,-99,0.5,-99,0,none,14,18,Woman,Right,
16,1,42,0.29922980000083044,['n'],0,left,none,-99,-99,0.5,-99,0,none,14,18,Woman,Right,
17,1,42,0.3507193000004918,['c'],0,right,none,-99,-99,0.5,-99,0,none,14,18,Woman,Right,
18,1,42,0.23435870000139403,['c'],1,left,none,-99,-99,0.5,-99,0,none,14,18,Woman,Right,
19,1,42,0.18427499999961583,['c'],1,left,none,-99,-99,0.5,-99,0,none,14,18,Woman,Right,
20,1,42,0.2511505999991641,['n'],0,left,none,-99,-99,0.5,-99,0,none,14,18,Woman,Right,
21,1,42,0.33382820000042557,['n'],0,left,none,-99,-99,0.5,-99,0,none,14,18,Woman,Right,
22,1,42,0.3506511999985378,['n'],0,left,none,-99,-99,0.5,-99,0,none,14,18,Woman,Right,
23,1,42,0.3829356000005646,['c'],0,right,none,-99,-99,0.5,-99,0,none,14,18,Woman,Right,
0,1,43,0.5851936999988538,['n'],1,right,none,-99,-99,0.5,-99,0,none,14,18,Woman,Right,
1,1,43,0.5178739000002679,['c'],0,right,none,-99,-99,0.5,-99,0,none,14,18,Woman,Right,
2,1,43,0.4823276999995869,['n'],0,left,none,-99,-99,0.5,-99,0,none,14,18,Woman,Right,
3,1,43,0.4344782000007399,['c'],1,left,none,-99,-99,0.5,-99,0,none,14,18,Woman,Right,
4,1,43,0.3666830999991362,['c'],1,left,none,-99,-99,0.5,-99,0,none,14,18,Woman,Right,
5,1,43,0.5007836000004318,['n'],0,left,none,-99,-99,0.5,-99,0,none,14,18,Woman,Right,
6,1,43,0.5842565999992075,['c'],1,left,none,-99,-99,0.5,-99,0,none,14,18,Woman,Right,
7,1,43,0.41647509999893373,['c'],1,left,none,-99,-99,0.5,-99,0,none,14,18,Woman,Right,
8,1,43,0.2673751000002085,['c'],0,right,none,-99,-99,0.5,-99,0,none,14,18,Woman,Right,
9,1,43,0.21655839999948512,['c'],0,right,none,-99,-99,0.5,-99,0,none,14,18,Woman,Right,
10,1,43,0.35138909999841417,['c'],0,right,none,-99,-99,0.5,-99,0,none,14,18,Woman,Right,
11,1,43,0.4166844999999739,['n'],0,left,none,-99,-99,0.5,-99,0,none,14,18,Woman,Right,
12,1,43,0.2162306999998691,['n'],1,right,none,-99,-99,0.5,-99,0,none,14,18,Woman,Right,
13,1,43,0.3841933000003337,['n'],0,left,none,-99,-99,0.5,-99,0,none,14,18,Woman,Right,
14,1,43,0.31653449999976147,['c'],0,right,none,-99,-99,0.5,-99,0,none,14,18,Woman,Right,
15,1,43,0.18217430000004242,['c'],0,right,none,-99,-99,0.5,-99,0,none,14,18,Woman,Right,
16,1,43,0.166108899999017,['c'],1,left,none,-99,-99,0.5,-99,0,none,14,18,Woman,Right,
17,1,43,0.0677053999988857,['c'],1,left,none,-99,-99,0.5,-99,0,none,14,18,Woman,Right,
18,1,43,0.3842927999994572,['c'],0,right,none,-99,-99,0.5,-99,0,none,14,18,Woman,Right,
19,1,43,0.6673821000003954,['n'],1,right,none,-99,-99,0.5,-99,0,none,14,18,Woman,Right,
20,1,43,0.5019183999993402,['c'],1,left,none,-99,-99,0.5,-99,0,none,14,18,Woman,Right,
21,1,43,0.46686250000129803,['c'],1,left,none,-99,-99,0.5,-99,0,none,14,18,Woman,Right,
22,1,43,0.4331281000013405,['c'],0,right,none,-99,-99,0.5,-99,0,none,14,18,Woman,Right,
23,1,43,0.43456010000045353,['c'],0,right,none,-99,-99,0.5,-99,0,none,14,18,Woman,Right,
0,1,44,0.4179022000007535,['n'],0,left,none,-99,-99,0.5,-99,0,none,14,18,Woman,Right,
1,1,44,0.3835724000000482,['n'],0,left,none,-99,-99,0.5,-99,0,none,14,18,Woman,Right,
2,1,44,0.41724320000139414,['n'],0,left,none,-99,-99,0.5,-99,0,none,14,18,Woman,Right,
3,1,44,0.2843663000003289,['c'],0,right,none,-99,-99,0.5,-99,0,none,14,18,Woman,Right,
4,1,44,0.4326954999996815,['n'],1,right,none,-99,-99,0.5,-99,0,none,14,18,Woman,Right,
5,1,44,0.4171154000014212,['n'],1,right,none,-99,-99,0.5,-99,0,none,14,18,Woman,Right,
6,1,44,0.46655460000147286,['n'],0,left,none,-99,-99,0.5,-99,0,none,14,18,Woman,Right,
7,1,44,0.3836530999997194,['c'],1,left,none,-99,-99,0.5,-99,0,none,14,18,Woman,Right,
8,1,44,0.30072850000033213,['c'],0,right,none,-99,-99,0.5,-99,0,none,14,18,Woman,Right,
9,1,44,0.2831026000003476,['n'],1,right,none,-99,-99,0.5,-99,0,none,14,18,Woman,Right,
10,1,44,0.28376589999970747,['n'],0,left,none,-99,-99,0.5,-99,0,none,14,18,Woman,Right,
11,1,44,0.317101200000252,['c'],1,left,none,-99,-99,0.5,-99,0,none,14,18,Woman,Right,
12,1,44,0.3839258999996673,['c'],0,right,none,-99,-99,0.5,-99,0,none,14,18,Woman,Right,
13,1,44,0.5498566000005667,['c'],0,right,none,-99,-99,0.5,-99,0,none,14,18,Woman,Right,
14,1,44,0.3662808999997651,['c'],1,left,none,-99,-99,0.5,-99,0,none,14,18,Woman,Right,
15,1,44,0.8345006999988982,['n'],1,right,none,-99,-99,0.5,-99,0,none,14,18,Woman,Right,
16,1,44,0.35077149999960966,['c'],1,left,none,-99,-99,0.5,-99,0,none,14,18,Woman,Right,
17,1,44,0.4004399999994348,['n'],1,right,none,-99,-99,0.5,-99,0,none,14,18,Woman,Right,
18,1,44,0.2678897000005236,['c'],0,right,none,-99,-99,0.5,-99,0,none,14,18,Woman,Right,
19,1,44,0.2827030999997078,['c'],0,right,none,-99,-99,0.5,-99,0,none,14,18,Woman,Right,
20,1,44,0.6176002000011067,['c'],1,left,none,-99,-99,0.5,-99,0,none,14,18,Woman,Right,
21,1,44,0.3845005000002857,['c'],0,right,none,-99,-99,0.5,-99,0,none,14,18,Woman,Right,
22,1,44,0.24997110000003886,['n'],0,left,none,-99,-99,0.5,-99,0,none,14,18,Woman,Right,
23,1,44,0.26629420000062964,['n'],0,left,none,-99,-99,0.5,-99,0,none,14,18,Woman,Right,
0,1,45,0.8009211000007781,['c'],1,left,none,-99,-99,0.5,-99,0,none,14,18,Woman,Right,
1,1,45,0.6345035000013013,['c'],0,right,none,-99,-99,0.5,-99,0,none,14,18,Woman,Right,
2,1,45,0.3175486000000092,['c'],1,left,none,-99,-99,0.5,-99,0,none,14,18,Woman,Right,
3,1,45,0.43357560000004014,['n'],0,left,none,-99,-99,0.5,-99,0,none,14,18,Woman,Right,
4,1,45,0.3331543000003876,['c'],0,right,none,-99,-99,0.5,-99,0,none,14,18,Woman,Right,
5,1,45,0.850085099998978,['c'],0,right,none,-99,-99,0.5,-99,0,none,14,18,Woman,Right,
6,1,45,0.3843262999998842,['c'],0,right,none,-99,-99,0.5,-99,0,none,14,18,Woman,Right,
7,1,45,0.5344292999998288,['c'],0,right,none,-99,-99,0.5,-99,0,none,14,18,Woman,Right,
8,1,45,0.4671278000005259,['c'],0,right,none,-99,-99,0.5,-99,0,none,14,18,Woman,Right,
9,1,45,0.30043429999932414,['c'],0,right,none,-99,-99,0.5,-99,0,none,14,18,Woman,Right,
10,1,45,0.23374059999878227,['c'],1,left,none,-99,-99,0.5,-99,0,none,14,18,Woman,Right,
11,1,45,0.2505094000007375,['c'],1,left,none,-99,-99,0.5,-99,0,none,14,18,Woman,Right,
12,1,45,0.08370739999918442,['c'],1,left,none,-99,-99,0.5,-99,0,none,14,18,Woman,Right,
13,1,45,0.2670252999996592,['c'],1,left,none,-99,-99,0.5,-99,0,none,14,18,Woman,Right,
14,1,45,0.46744290000060573,['n'],0,left,none,-99,-99,0.5,-99,0,none,14,18,Woman,Right,
15,1,45,0.2834509000003891,['n'],0,left,none,-99,-99,0.5,-99,0,none,14,18,Woman,Right,
16,1,45,0.3837975999995251,['c'],0,right,none,-99,-99,0.5,-99,0,none,14,18,Woman,Right,
17,1,45,0.1335889000001771,['c'],0,right,none,-99,-99,0.5,-99,0,none,14,18,Woman,Right,
18,1,45,0.40002800000002026,['n'],1,right,none,-99,-99,0.5,-99,0,none,14,18,Woman,Right,
19,1,45,0.3003236000004108,['n'],0,left,none,-99,-99,0.5,-99,0,none,14,18,Woman,Right,
20,1,45,0.6669144999996206,['c'],0,right,none,-99,-99,0.5,-99,0,none,14,18,Woman,Right,
21,1,45,0.3667803999996977,['c'],1,left,none,-99,-99,0.5,-99,0,none,14,18,Woman,Right,
22,1,45,0.5671318999993673,['c'],0,right,none,-99,-99,0.5,-99,0,none,14,18,Woman,Right,
23,1,45,0.6996807999985322,['c'],1,left,none,-99,-99,0.5,-99,0,none,14,18,Woman,Right,
0,1,46,0.5513179999998101,['n'],1,right,none,-99,-99,0.5,-99,0,none,14,18,Woman,Right,
1,1,46,0.467469399998663,['n'],1,right,none,-99,-99,0.5,-99,0,none,14,18,Woman,Right,
2,1,46,0.2502872999993997,['n'],0,left,none,-99,-99,0.5,-99,0,none,14,18,Woman,Right,
3,1,46,0.3337560999989364,['c'],1,left,none,-99,-99,0.5,-99,0,none,14,18,Woman,Right,
4,1,46,0.016872199999852455,['c'],1,left,none,-99,-99,0.5,-99,0,none,14,18,Woman,Right,
5,1,46,0.03466099999968719,['c'],1,left,none,-99,-99,0.5,-99,0,none,14,18,Woman,Right,
6,1,46,0.167428500000824,['c'],0,right,none,-99,-99,0.5,-99,0,none,14,18,Woman,Right,
7,1,46,0.25126450000061595,['n'],1,right,none,-99,-99,0.5,-99,0,none,14,18,Woman,Right,
8,1,46,0.0321881999989273,['n'],1,right,none,-99,-99,0.5,-99,0,none,14,18,Woman,Right,
9,1,46,0.10209009999925911,['c'],0,right,none,-99,-99,0.5,-99,0,none,14,18,Woman,Right,
10,1,46,0.06723199999942153,['c'],0,right,none,-99,-99,0.5,-99,0,none,14,18,Woman,Right,
11,1,46,0.2157835999987583,['n'],0,left,none,-99,-99,0.5,-99,0,none,14,18,Woman,Right,
12,1,46,0.08453050000025542,['c'],1,left,none,-99,-99,0.5,-99,0,none,14,18,Woman,Right,
13,1,46,0.03342429999975138,['c'],1,left,none,-99,-99,0.5,-99,0,none,14,18,Woman,Right,
14,1,46,0.4668632000011712,['c'],0,right,none,-99,-99,0.5,-99,0,none,14,18,Woman,Right,
