withinblocktrial,block,block_repetition,rt,resp,cor,cresp,conf_press,cj,rtconf,coherence,slow_trial,manipulation,sub,age,gender,handedness,
0,1,1,2.0671011000013095,['n'],1,right,none,-99,-99,0.5,0,none,14,18,Woman,Right,
1,1,1,0.8014034000007086,['c'],1,left,none,-99,-99,0.5,0,none,14,18,Woman,Right,
2,1,1,0.6328448000003846,['n'],1,right,none,-99,-99,0.5,0,none,14,18,Woman,Right,
3,1,1,0.9675759999990987,['c'],1,left,none,-99,-99,0.5,0,none,14,18,Woman,Right,
4,1,1,0.7500423999990744,['n'],1,right,none,-99,-99,0.5,0,none,14,18,Woman,Right,
5,1,1,0.867558600000848,['c'],1,left,none,-99,-99,0.5,0,none,14,18,Woman,Right,
6,1,1,0.9685793000007834,['c'],1,left,none,-99,-99,0.5,0,none,14,18,Woman,Right,
7,1,1,0.6846946000005119,['n'],1,right,none,-99,-99,0.5,0,none,14,18,Woman,Right,
8,1,1,1.1823067999994237,['n'],1,right,none,-99,-99,0.5,0,none,14,18,Woman,Right,
9,1,1,0.8179550999993808,['n'],1,right,none,-99,-99,0.5,0,none,14,18,Woman,Right,
10,1,1,0.5658155999990413,['c'],1,left,none,-99,-99,0.5,0,none,14,18,Woman,Right,
11,1,1,0.6013428000005661,['n'],1,right,none,-99,-99,0.5,0,none,14,18,Woman,Right,
12,1,1,0.5672465000006923,['c'],1,left,none,-99,-99,0.5,0,none,14,18,Woman,Right,
13,1,1,0.6833776000003127,['n'],0,left,none,-99,-99,0.5,0,none,14,18,Woman,Right,
14,1,1,0.801066300000457,['c'],1,left,none,-99,-99,0.5,0,none,14,18,Woman,Right,
15,1,1,0.83383909999975,['n'],1,right,none,-99,-99,0.5,0,none,14,18,Woman,Right,
16,1,1,0.767194500000187,['n'],0,left,none,-99,-99,0.5,0,none,14,18,Woman,Right,
17,1,1,0.6819157999998424,['c'],1,left,none,-99,-99,0.5,0,none,14,18,Woman,Right,
18,1,1,0.6332882000006066,['n'],1,right,none,-99,-99,0.5,0,none,14,18,Woman,Right,
19,1,1,0.650269699999626,['c'],1,left,none,-99,-99,0.5,0,none,14,18,Woman,Right,
20,1,1,0.6325666000011552,['n'],1,right,none,-99,-99,0.5,0,none,14,18,Woman,Right,
21,1,1,0.8166266999996878,['c'],1,left,none,-99,-99,0.5,0,none,14,18,Woman,Right,
22,1,1,0.5343107999997301,['n'],1,right,none,-99,-99,0.5,0,none,14,18,Woman,Right,
23,1,1,0.6326268999982858,['n'],1,right,none,-99,-99,0.5,0,none,14,18,Woman,Right,
0,2,1,1.1013384999987466,['n'],1,right,none,-99,-99,0.2,0,none,14,18,Woman,Right,
1,2,1,0.817260300000271,['n'],1,right,none,-99,-99,0.1,0,none,14,18,Woman,Right,
2,2,1,1.0512121000010666,['n'],0,left,none,-99,-99,0.4,0,none,14,18,Woman,Right,
3,2,1,0.7000454000008176,['n'],1,right,none,-99,-99,0.4,0,none,14,18,Woman,Right,
4,2,1,1.133665800000017,['c'],0,right,none,-99,-99,0.1,0,none,14,18,Woman,Right,
5,2,1,0.7508926000009524,['n'],1,right,none,-99,-99,0.4,0,none,14,18,Woman,Right,
6,2,1,2.200462199998583,['n'],1,right,none,-99,-99,0.1,0,none,14,18,Woman,Right,
7,2,1,0.7005205000004935,['n'],1,right,none,-99,-99,0.4,0,none,14,18,Woman,Right,
8,2,1,2.317646200001036,['n'],1,right,none,-99,-99,0.1,0,none,14,18,Woman,Right,
9,2,1,0.850379299999986,['c'],1,left,none,-99,-99,0.4,0,none,14,18,Woman,Right,
10,2,1,0.6831635999988066,['n'],1,right,none,-99,-99,0.1,0,none,14,18,Woman,Right,
11,2,1,0.700653500000044,['n'],0,left,none,-99,-99,0.4,0,none,14,18,Woman,Right,
12,2,1,0.9499035999997432,['c'],1,left,none,-99,-99,0.2,0,none,14,18,Woman,Right,
13,2,1,1.1995294000007561,['c'],0,right,none,-99,-99,0.1,0,none,14,18,Woman,Right,
14,2,1,1.0844893000012235,['c'],1,left,none,-99,-99,0.4,0,none,14,18,Woman,Right,
15,2,1,0.766958700000032,['n'],0,left,none,-99,-99,0.2,0,none,14,18,Woman,Right,
16,2,1,1.1505502999989403,['c'],1,left,none,-99,-99,0.4,0,none,14,18,Woman,Right,
17,2,1,2.267077699998481,['n'],0,left,none,-99,-99,0.1,0,none,14,18,Woman,Right,
18,2,1,0.9004270999994333,['c'],0,right,none,-99,-99,0.1,0,none,14,18,Woman,Right,
19,2,1,2.4339813999995386,['n'],0,left,none,-99,-99,0.2,0,none,14,18,Woman,Right,
20,2,1,3.550372299998344,['n'],0,left,none,-99,-99,0.2,0,none,14,18,Woman,Right,
21,2,1,4.001061499999196,['c'],1,left,none,-99,-99,0.2,0,none,14,18,Woman,Right,
22,2,1,1.049891700000444,['n'],1,right,none,-99,-99,0.2,0,none,14,18,Woman,Right,
23,2,1,1.0002815999996528,['c'],1,left,none,-99,-99,0.2,0,none,14,18,Woman,Right,
0,3,1,0.9007306999992579,['n'],1,right,['2'],5,2.467959300000075,0.4,0,none,14,18,Woman,Right,
1,3,1,4.933359399999972,['n'],0,left,['8'],3,3.067605600001116,0.2,0,none,14,18,Woman,Right,
2,3,1,2.415796799999953,['n'],1,right,['2'],5,2.1016541000008147,0.2,0,none,14,18,Woman,Right,
3,3,1,1.7335059999986697,['n'],1,right,['3'],4,1.2168179999989661,0.2,0,none,14,18,Woman,Right,
4,3,1,1.9326507999994647,['n'],0,left,['8'],3,1.7510925000005955,0.4,0,none,14,18,Woman,Right,
5,3,1,1.1672201000001223,['n'],1,right,['2'],5,2.1835955000005924,0.2,0,none,14,18,Woman,Right,
6,3,1,0.6674851999996463,['n'],1,right,['2'],5,1.4010890000008658,0.2,0,none,14,18,Woman,Right,
7,3,1,5.016503599999851,x,-99,left,none,-99,-99,0.1,1,none,14,18,Woman,Right,
8,3,1,1.035713900000701,['n'],0,left,['0'],1,1.6350510999982362,0.2,0,none,14,18,Woman,Right,
9,3,1,0.833651999999347,['n'],0,left,['9'],2,1.1513348999997106,0.4,0,none,14,18,Woman,Right,
10,3,1,1.4512239000014233,['n'],1,right,['9'],2,1.6847280000001774,0.1,0,none,14,18,Woman,Right,
11,3,1,1.114999200000966,['c'],1,left,['3'],4,0.9523582000001625,0.2,0,none,14,18,Woman,Right,
12,3,1,2.6668666000005032,['n'],0,left,['8'],3,1.3662297999999282,0.1,0,none,14,18,Woman,Right,
13,3,1,1.5672223000001395,['c'],1,left,['3'],4,1.5518160999999964,0.4,0,none,14,18,Woman,Right,
14,3,1,1.2504332999997132,['c'],1,left,['3'],4,0.7175569999999425,0.2,0,none,14,18,Woman,Right,
15,3,1,1.0660177000008844,['c'],1,left,['3'],4,0.7520469999999477,0.1,0,none,14,18,Woman,Right,
16,3,1,0.8007938999999169,['n'],1,right,['3'],4,0.5683263000009902,0.4,0,none,14,18,Woman,Right,
17,3,1,2.2324910999996064,['n'],1,right,['3'],4,0.9355491000005713,0.1,0,none,14,18,Woman,Right,
18,3,1,2.3501164999997854,['n'],1,right,['3'],4,0.9834580999995524,0.1,0,none,14,18,Woman,Right,
19,3,1,2.1336506999996345,['c'],1,left,['3'],4,0.8348428000008425,0.4,0,none,14,18,Woman,Right,
20,3,1,0.6993736000003992,['n'],1,right,['3'],4,0.6521883000004891,0.1,0,none,14,18,Woman,Right,
21,3,1,1.850783700001557,['n'],1,right,['3'],4,1.867940100000851,0.1,0,none,14,18,Woman,Right,
22,3,1,0.8005270000012388,['n'],1,right,['3'],4,0.7677472999985184,0.4,0,none,14,18,Woman,Right,
23,3,1,1.2171141999988322,['n'],0,left,['2'],5,0.7680483000003733,0.4,0,none,14,18,Woman,Right,
0,4,1,1.166845599998851,['n'],1,right,['0'],1,3.1350117000001774,0.1,0,FastAcc,14,18,Woman,Right,
1,4,1,0.5173045999999886,['c'],1,left,['9'],2,1.684960200000205,0.2,0,FastAcc,14,18,Woman,Right,
2,4,1,1.2337521000008564,['n'],0,left,['9'],2,2.3009413999989192,0.1,0,FastAcc,14,18,Woman,Right,
3,4,1,0.383226800000557,['c'],1,left,['3'],4,2.5675936000006914,0.4,0,FastAcc,14,18,Woman,Right,
4,4,1,0.6675618000008399,['n'],0,left,['9'],2,2.8179777999994258,0.1,0,FastAcc,14,18,Woman,Right,
5,4,1,0.8327465000002121,['n'],1,right,['3'],4,2.451256000000285,0.4,0,FastAcc,14,18,Woman,Right,
6,4,1,0.8336070000004838,['n'],0,left,['3'],4,1.4009604000002582,0.2,0,FastAcc,14,18,Woman,Right,
7,4,1,0.5673408999991807,['c'],1,left,['8'],3,2.634517099999357,0.1,0,FastAcc,14,18,Woman,Right,
8,4,1,0.5339278999999806,['n'],1,right,['3'],4,1.968078500000047,0.4,0,FastAcc,14,18,Woman,Right,
9,4,1,0.5827349999999569,['n'],0,left,['8'],3,1.0343037000002369,0.2,0,FastAcc,14,18,Woman,Right,
10,4,1,1.433051300000443,['n'],0,left,['8'],3,1.1337205999989237,0.4,0,FastAcc,14,18,Woman,Right,
11,4,1,0.46710370000073453,['c'],0,right,['9'],2,1.7841907999991236,0.4,0,FastAcc,14,18,Woman,Right,
12,4,1,0.550935399998707,['n'],1,right,['3'],4,3.051430100000289,0.4,0,FastAcc,14,18,Woman,Right,
13,4,1,0.40050110000083805,['n'],1,right,['8'],3,1.0178690000011557,0.2,0,FastAcc,14,18,Woman,Right,
14,4,1,0.3669246999997995,['n'],0,left,['9'],2,0.8181982999994943,0.2,0,FastAcc,14,18,Woman,Right,
15,4,1,0.5337034000003769,['n'],0,left,['9'],2,1.3844236000004457,0.1,0,FastAcc,14,18,Woman,Right,
16,4,1,1.116860899999665,['n'],0,left,['8'],3,3.0844755999987683,0.2,0,FastAcc,14,18,Woman,Right,
17,4,1,0.36687419999907434,['n'],1,right,['9'],2,2.9181133000001864,0.2,0,FastAcc,14,18,Woman,Right,
18,4,1,0.6336998999995558,['n'],0,left,['8'],3,1.284673500000281,0.2,0,FastAcc,14,18,Woman,Right,
19,4,1,0.3827165000002424,['c'],1,left,['8'],3,4.3175533000012365,0.1,0,FastAcc,14,18,Woman,Right,
20,4,1,0.8666192999990017,['n'],1,right,['8'],3,0.8683584000009432,0.2,0,FastAcc,14,18,Woman,Right,
21,4,1,3.800535200000013,['c'],1,left,['3'],4,2.4177583000000595,0.1,0,FastAcc,14,18,Woman,Right,
22,4,1,0.6338337999986834,['n'],1,right,['8'],3,1.234606400001212,0.4,0,FastAcc,14,18,Woman,Right,
23,4,1,1.4006524000014906,['n'],0,left,['9'],2,0.9014676999995572,0.4,0,FastAcc,14,18,Woman,Right,
24,4,1,0.4834692000003997,['c'],1,left,['9'],2,1.0510070999989694,0.1,0,FastAcc,14,18,Woman,Right,
25,4,1,0.4828216000005341,['n'],0,left,['8'],3,0.8180953999999474,0.1,0,FastAcc,14,18,Woman,Right,
26,4,1,0.6491292999999132,['n'],1,right,['9'],2,0.6354795000006561,0.1,0,FastAcc,14,18,Woman,Right,
27,4,1,1.1669173999998748,['n'],0,left,['9'],2,2.8337162000007083,0.4,0,FastAcc,14,18,Woman,Right,
28,4,1,1.3005627000002278,['n'],0,left,['8'],3,1.0679982000001473,0.4,0,FastAcc,14,18,Woman,Right,
29,4,1,0.5168506999998499,['n'],1,right,['9'],2,1.2334475000006933,0.2,0,FastAcc,14,18,Woman,Right,
30,4,1,0.40002370000001974,['n'],0,left,['9'],2,0.8348846000008052,0.2,0,FastAcc,14,18,Woman,Right,
31,4,1,0.5003529000005074,['c'],1,left,['8'],3,0.984729799998604,0.4,0,FastAcc,14,18,Woman,Right,
32,4,1,1.082794500000091,['c'],1,left,['9'],2,2.0679413999987446,0.1,0,FastAcc,14,18,Woman,Right,
33,4,1,0.6166763000001083,['n'],1,right,['8'],3,1.1850844000000507,0.4,0,FastAcc,14,18,Woman,Right,
34,4,1,0.48377399999844783,['n'],1,right,['9'],2,0.7847340000007534,0.1,0,FastAcc,14,18,Woman,Right,
35,4,1,0.8006468000003224,['n'],1,right,['9'],2,0.8518774000003759,0.4,0,FastAcc,14,18,Woman,Right,
36,4,1,0.6167819000002055,['c'],0,right,['8'],3,3.101234599998861,0.2,0,FastAcc,14,18,Woman,Right,
37,4,1,0.4340811999991274,['n'],1,right,['9'],2,2.367710399999851,0.2,0,FastAcc,14,18,Woman,Right,
38,4,1,0.3991609000004246,['c'],1,left,['8'],3,3.7521785000008094,0.1,0,FastAcc,14,18,Woman,Right,
39,4,1,0.698859000000084,['n'],1,right,['3'],4,1.7852653000009013,0.2,0,FastAcc,14,18,Woman,Right,
40,4,1,0.5004191000007268,['n'],0,left,['0'],1,1.2844373999996606,0.4,0,FastAcc,14,18,Woman,Right,
41,4,1,0.9494776999999885,['n'],0,left,['9'],2,2.167952300000252,0.2,0,FastAcc,14,18,Woman,Right,
42,4,1,0.38378869999905874,['n'],0,left,['0'],1,1.5335033999999723,0.1,0,FastAcc,14,18,Woman,Right,
43,4,1,0.6680339000013191,['n'],1,right,['9'],2,2.1509035999988555,0.2,0,FastAcc,14,18,Woman,Right,
44,4,1,0.5170827000001736,['c'],0,right,['8'],3,1.9843674000003375,0.1,0,FastAcc,14,18,Woman,Right,
45,4,1,0.5003152000008413,['c'],0,right,['9'],2,1.0518236000007164,0.2,0,FastAcc,14,18,Woman,Right,
46,4,1,0.4509252000007109,['c'],0,right,['9'],2,0.9846632999997382,0.1,0,FastAcc,14,18,Woman,Right,
47,4,1,1.9669052999997803,['n'],1,right,['3'],4,3.2677815000006376,0.2,0,FastAcc,14,18,Woman,Right,
48,4,1,0.41682419999960985,['n'],1,right,['9'],2,1.23351619999994,0.1,0,FastAcc,14,18,Woman,Right,
49,4,1,1.5337261000004219,['n'],0,left,['9'],2,1.1672887000004266,0.1,0,FastAcc,14,18,Woman,Right,
50,4,1,0.5841101000005438,['n'],1,right,['3'],4,1.168687499999578,0.4,0,FastAcc,14,18,Woman,Right,
51,4,1,0.5676743000003626,['c'],1,left,['3'],4,1.1346862000009423,0.1,0,FastAcc,14,18,Woman,Right,
52,4,1,0.5003183000007994,['n'],1,right,['3'],4,1.4012411999992764,0.4,0,FastAcc,14,18,Woman,Right,
53,4,1,0.49958090000109223,['c'],1,left,['3'],4,1.000002000000677,0.4,0,FastAcc,14,18,Woman,Right,
54,4,1,0.5017982999997912,['n'],1,right,['3'],4,1.3515124999994441,0.2,0,FastAcc,14,18,Woman,Right,
55,4,1,0.8652781999990111,['n'],1,right,['8'],3,1.3344716999999946,0.2,0,FastAcc,14,18,Woman,Right,
56,4,1,0.6838643999999476,['n'],1,right,['3'],4,0.9512174999999843,0.4,0,FastAcc,14,18,Woman,Right,
57,4,1,0.5508252999989054,['n'],1,right,['3'],4,1.2180385999999999,0.4,0,FastAcc,14,18,Woman,Right,
58,4,1,1.534086900001057,['n'],1,right,['3'],4,4.233884100000068,0.4,0,FastAcc,14,18,Woman,Right,
59,4,1,1.0339501999987988,['n'],0,left,['8'],3,0.8015968999989127,0.1,0,FastAcc,14,18,Woman,Right,
0,5,1,1.4677087000000029,['c'],1,left,['3'],4,0.5681996000002982,0.2,0,FastFast,14,18,Woman,Right,
1,5,1,0.6339485000007699,['n'],0,left,['8'],3,0.46797499999956926,0.1,0,FastFast,14,18,Woman,Right,
2,5,1,0.46567549999963376,['n'],1,right,['3'],4,0.817530699998315,0.4,0,FastFast,14,18,Woman,Right,
3,5,1,0.517733099999532,['n'],1,right,['2'],5,0.48414450000018405,0.4,0,FastFast,14,18,Woman,Right,
4,5,1,0.933418000000529,['n'],1,right,['1'],6,0.9676332999988517,0.4,0,FastFast,14,18,Woman,Right,
5,5,1,0.44993780000004335,['n'],1,right,['1'],6,0.3021269000000757,0.1,0,FastFast,14,18,Woman,Right,
6,5,1,0.5337266000005911,['n'],0,left,['8'],3,0.9014523000005283,0.2,0,FastFast,14,18,Woman,Right,
7,5,1,0.7826440000008006,['n'],0,left,['8'],3,0.3514768999993976,0.1,0,FastFast,14,18,Woman,Right,
8,5,1,0.5993651000007958,['n'],1,right,['3'],4,0.3355620000002091,0.2,0,FastFast,14,18,Woman,Right,
9,5,1,0.6333780999993905,['c'],1,left,['3'],4,0.266891500001293,0.4,0,FastFast,14,18,Woman,Right,
10,5,1,0.7006781000000046,['n'],1,right,['1'],6,0.3515402000011818,0.1,0,FastFast,14,18,Woman,Right,
11,5,1,0.6337978999999905,['c'],1,left,['1'],6,0.3352952000004734,0.4,0,FastFast,14,18,Woman,Right,
12,5,1,0.5171179000008124,['n'],1,right,['1'],6,0.3679885000001377,0.1,0,FastFast,14,18,Woman,Right,
13,5,1,0.5004712999998446,['c'],1,left,['1'],6,0.3179989000000205,0.2,0,FastFast,14,18,Woman,Right,
14,5,1,0.6671069000003627,['c'],1,left,['2'],5,0.33495810000022175,0.1,0,FastFast,14,18,Woman,Right,
15,5,1,0.5333300999991479,['n'],0,left,['3'],4,0.4345391999995627,0.4,0,FastFast,14,18,Woman,Right,
16,5,1,0.48200249999899825,['n'],0,left,['8'],3,0.4186079000010068,0.1,0,FastFast,14,18,Woman,Right,
17,5,1,0.7662255999985064,['n'],1,right,['8'],3,0.35109279999960563,0.4,0,FastFast,14,18,Woman,Right,
18,5,1,0.5998027000005095,['c'],1,left,['2'],5,0.334856999999829,0.2,0,FastFast,14,18,Woman,Right,
19,5,1,0.44990519999919343,['c'],0,right,['8'],3,0.752037800000835,0.2,0,FastFast,14,18,Woman,Right,
20,5,1,0.5164387999993778,['n'],0,left,['9'],2,0.3681197999994765,0.2,0,FastFast,14,18,Woman,Right,
21,5,1,0.65084620000016,['n'],0,left,['9'],2,0.335586000001058,0.1,0,FastFast,14,18,Woman,Right,
22,5,1,0.6339713999986998,['n'],0,left,['8'],3,0.4013637000007293,0.4,0,FastFast,14,18,Woman,Right,
23,5,1,0.46699489999991783,['n'],0,left,['8'],3,0.517334000000119,0.2,0,FastFast,14,18,Woman,Right,
24,5,1,0.49939269999958924,['c'],1,left,['8'],3,0.35067960000014864,0.2,0,FastFast,14,18,Woman,Right,
25,5,1,0.4320740000002843,['n'],1,right,['1'],6,1.4691606000014872,0.2,0,FastFast,14,18,Woman,Right,
26,5,1,0.5009546000001137,['n'],1,right,['9'],2,0.2849126000000979,0.4,0,FastFast,14,18,Woman,Right,
27,5,1,0.4338339999994787,['n'],1,right,['8'],3,0.3512567999987368,0.4,0,FastFast,14,18,Woman,Right,
28,5,1,0.534847400000217,['c'],1,left,['3'],4,0.3514824000012595,0.4,0,FastFast,14,18,Woman,Right,
29,5,1,0.617003699999259,['c'],1,left,['3'],4,0.36799989999963145,0.2,0,FastFast,14,18,Woman,Right,
30,5,1,0.5330823999993299,['n'],0,left,['3'],4,0.38446509999994305,0.2,0,FastFast,14,18,Woman,Right,
31,5,1,0.7675142000007327,['n'],1,right,['8'],3,0.4184535999993386,0.4,0,FastFast,14,18,Woman,Right,
32,5,1,0.5008053999990807,['n'],1,right,['3'],4,0.36803360000158136,0.4,0,FastFast,14,18,Woman,Right,
33,5,1,0.4836321999991924,['n'],1,right,['8'],3,0.38481810000121186,0.1,0,FastFast,14,18,Woman,Right,
34,5,1,0.9834833000004437,['c'],0,right,['9'],2,1.1352995999986888,0.2,0,FastFast,14,18,Woman,Right,
35,5,1,0.6662613000007696,['n'],0,left,['9'],2,0.46892320000006293,0.4,0,FastFast,14,18,Woman,Right,
36,5,1,0.5176007000009122,['n'],0,left,['0'],1,0.6000905999990209,0.2,0,FastFast,14,18,Woman,Right,
37,5,1,0.5012108000009903,['n'],0,left,['8'],3,0.33534189999954833,0.2,0,FastFast,14,18,Woman,Right,
38,5,1,0.48397079999995185,['c'],0,right,['3'],4,0.8840058999994653,0.2,0,FastFast,14,18,Woman,Right,
39,5,1,0.5675400000000081,['n'],1,right,['9'],2,1.268050000000585,0.1,0,FastFast,14,18,Woman,Right,
40,5,1,1.1496633000006113,['n'],0,left,['9'],2,0.6830000999998447,0.1,0,FastFast,14,18,Woman,Right,
41,5,1,0.6998782999999094,['c'],0,right,['0'],1,1.3012870000002295,0.1,0,FastFast,14,18,Woman,Right,
42,5,1,0.7504229999995005,['n'],1,right,['3'],4,1.21802100000059,0.4,0,FastFast,14,18,Woman,Right,
43,5,1,0.5174058000011428,['n'],1,right,['3'],4,0.8348150000001624,0.4,0,FastFast,14,18,Woman,Right,
44,5,1,0.9514390999993338,['n'],1,right,['9'],2,0.601427199999307,0.2,0,FastFast,14,18,Woman,Right,
45,5,1,0.5997802000001684,['n'],0,left,['0'],1,1.567247099999804,0.4,0,FastFast,14,18,Woman,Right,
46,5,1,1.351292100000137,['c'],0,right,['8'],3,1.118133800000578,0.1,0,FastFast,14,18,Woman,Right,
47,5,1,0.6001484999997047,['c'],1,left,['3'],4,0.5167087000008905,0.4,0,FastFast,14,18,Woman,Right,
48,5,1,0.7344233999992866,['n'],1,right,['8'],3,0.7013466999997036,0.1,0,FastFast,14,18,Woman,Right,
49,5,1,0.5660769999994955,['c'],1,left,['3'],4,0.43560989999969024,0.2,0,FastFast,14,18,Woman,Right,
50,5,1,0.5177674000005936,['c'],0,right,['3'],4,0.3846517000001768,0.1,0,FastFast,14,18,Woman,Right,
51,5,1,0.3994623999988107,['n'],1,right,['8'],3,0.31897919999937585,0.1,0,FastFast,14,18,Woman,Right,
52,5,1,0.583615200001077,['n'],1,right,['8'],3,0.46725119999973685,0.1,0,FastFast,14,18,Woman,Right,
53,5,1,0.46712139999908686,['c'],1,left,['3'],4,0.8013855000008334,0.4,0,FastFast,14,18,Woman,Right,
54,5,1,1.117332300000271,['n'],1,right,['3'],4,0.6178271000007953,0.2,0,FastFast,14,18,Woman,Right,
55,5,1,0.8662048000005598,['n'],0,left,['9'],2,1.1177516000007017,0.1,0,FastFast,14,18,Woman,Right,
56,5,1,0.600460399999065,['c'],0,right,['9'],2,1.351478300000963,0.2,0,FastFast,14,18,Woman,Right,
57,5,1,1.016024100001232,['c'],1,left,['9'],2,0.851102799999353,0.4,0,FastFast,14,18,Woman,Right,
58,5,1,0.500325500001054,['n'],1,right,['3'],4,0.8517913999985467,0.1,0,FastFast,14,18,Woman,Right,
59,5,1,0.48402790000000095,['n'],0,left,['8'],3,0.5332343000009132,0.1,0,FastFast,14,18,Woman,Right,
0,6,1,4.53306209999937,['c'],1,left,['2'],5,1.0679951000001893,0.2,0,AccFast,14,18,Woman,Right,
1,6,1,5.016078999999081,x,-99,left,none,-99,-99,0.1,1,AccFast,14,18,Woman,Right,
2,6,1,0.9845525999990059,['c'],1,left,['3'],4,1.6344200000003184,0.4,0,AccFast,14,18,Woman,Right,
3,6,1,0.850287199999002,['n'],1,right,['1'],6,2.234482100000605,0.2,0,AccFast,14,18,Woman,Right,
4,6,1,1.417580799999996,['n'],1,right,['2'],5,1.7512478999997256,0.2,0,AccFast,14,18,Woman,Right,
5,6,1,0.7493754000006447,['n'],1,right,['2'],5,0.6520043999989866,0.1,0,AccFast,14,18,Woman,Right,
6,6,1,1.6997716000005312,['c'],1,left,['3'],4,1.2679362000017136,0.4,0,AccFast,14,18,Woman,Right,
7,6,1,1.3316738000012265,['n'],1,right,['2'],5,1.2684173999987252,0.4,0,AccFast,14,18,Woman,Right,
8,6,1,0.7682487999991281,['n'],1,right,['3'],4,3.3173898000004556,0.4,0,AccFast,14,18,Woman,Right,
9,6,1,0.96605129999989,['c'],1,left,['2'],5,1.050622700000531,0.2,0,AccFast,14,18,Woman,Right,
10,6,1,1.4842207000001508,['c'],1,left,['2'],5,0.7167614000009053,0.4,0,AccFast,14,18,Woman,Right,
11,6,1,1.4671127999990858,['n'],0,left,['8'],3,1.4515365000006568,0.1,0,AccFast,14,18,Woman,Right,
12,6,1,1.2671355999991647,['c'],1,left,['2'],5,1.401180700000623,0.4,0,AccFast,14,18,Woman,Right,
13,6,1,0.9825175999994826,['n'],1,right,['3'],4,0.6691006000000925,0.2,0,AccFast,14,18,Woman,Right,
14,6,1,0.732165299999906,['n'],1,right,['2'],5,0.6012507000014011,0.2,0,AccFast,14,18,Woman,Right,
15,6,1,0.6838468999994802,['n'],1,right,['2'],5,0.5513505999988411,0.2,0,AccFast,14,18,Woman,Right,
16,6,1,0.6013418000002275,['n'],1,right,['2'],5,0.45087190000049304,0.2,0,AccFast,14,18,Woman,Right,
17,6,1,0.583749399998851,['c'],1,left,['3'],4,0.7178702000001067,0.4,0,AccFast,14,18,Woman,Right,
18,6,1,1.9649132000013196,['n'],0,left,['8'],3,1.3342494000007719,0.2,0,AccFast,14,18,Woman,Right,
19,6,1,1.2670041999990644,['n'],1,right,['8'],3,0.617660199999591,0.2,0,AccFast,14,18,Woman,Right,
20,6,1,1.6335395999994944,['n'],0,left,['3'],4,0.7178493999999773,0.1,0,AccFast,14,18,Woman,Right,
21,6,1,0.7171212000012019,['n'],0,left,['3'],4,0.4183228000001691,0.1,0,AccFast,14,18,Woman,Right,
22,6,1,1.8162510999991355,['n'],1,right,['3'],4,0.301679599999261,0.4,0,AccFast,14,18,Woman,Right,
23,6,1,1.200188299999354,['c'],1,left,['2'],5,0.28350240000145277,0.4,0,AccFast,14,18,Woman,Right,
24,6,1,0.9678741999996419,['n'],1,right,['3'],4,0.36748919999990903,0.1,0,AccFast,14,18,Woman,Right,
25,6,1,1.3503784999993513,['n'],1,right,['3'],4,0.5667205000008835,0.2,0,AccFast,14,18,Woman,Right,
26,6,1,1.217243499999313,['c'],1,left,['8'],3,0.48462219999964873,0.1,0,AccFast,14,18,Woman,Right,
27,6,1,0.8510580000001937,['c'],1,left,['8'],3,0.31818119999843475,0.4,0,AccFast,14,18,Woman,Right,
28,6,1,0.7834962999986601,['c'],1,left,['3'],4,0.31824430000051507,0.4,0,AccFast,14,18,Woman,Right,
29,6,1,0.7005387999997765,['n'],1,right,['3'],4,0.28485790000013367,0.2,0,AccFast,14,18,Woman,Right,
30,6,1,0.9819714000004751,['c'],1,left,['3'],4,0.3190756000003603,0.2,0,AccFast,14,18,Woman,Right,
31,6,1,0.6665460999993229,['n'],1,right,['3'],4,0.3673766000010801,0.4,0,AccFast,14,18,Woman,Right,
32,6,1,1.2996131999989302,['n'],1,right,['8'],3,0.9008928999992349,0.2,0,AccFast,14,18,Woman,Right,
33,6,1,0.7859263999998802,['n'],1,right,['3'],4,0.4345506999998179,0.1,0,AccFast,14,18,Woman,Right,
34,6,1,0.6509520999989036,['n'],1,right,['8'],3,0.43451530000129424,0.1,0,AccFast,14,18,Woman,Right,
35,6,1,1.3840989999989688,['c'],1,left,['3'],4,0.3505000999994081,0.4,0,AccFast,14,18,Woman,Right,
36,6,1,0.5337142000007589,['n'],0,left,['8'],3,0.5834221000004618,0.1,0,AccFast,14,18,Woman,Right,
37,6,1,0.8165110999998433,['c'],0,right,['3'],4,0.31714669999928446,0.1,0,AccFast,14,18,Woman,Right,
38,6,1,0.5845387999997911,['n'],0,left,['3'],4,0.5680140999993455,0.1,0,AccFast,14,18,Woman,Right,
39,6,1,0.6674488999997266,['n'],1,right,['3'],4,0.3346595000002708,0.4,0,AccFast,14,18,Woman,Right,
40,6,1,2.199820300000283,['n'],0,left,['3'],4,1.2680191999988892,0.1,0,AccFast,14,18,Woman,Right,
41,6,1,0.850268899999719,['n'],1,right,['3'],4,0.2514188000004651,0.1,0,AccFast,14,18,Woman,Right,
42,6,1,1.2497721999989153,['n'],1,right,['3'],4,0.2514194999985193,0.4,0,AccFast,14,18,Woman,Right,
43,6,1,2.617158199998812,['c'],1,left,['3'],4,0.6014826000009634,0.1,0,AccFast,14,18,Woman,Right,
44,6,1,0.8829181000000972,['n'],1,right,['2'],5,0.3497198000004573,0.2,0,AccFast,14,18,Woman,Right,
45,6,1,1.3181530000001658,['n'],1,right,['3'],4,0.3180750000010448,0.1,0,AccFast,14,18,Woman,Right,
46,6,1,0.8831528999999136,['n'],1,right,['2'],5,0.9511598000008235,0.4,0,AccFast,14,18,Woman,Right,
47,6,1,1.01722559999871,['c'],1,left,['2'],5,0.3348495999998704,0.2,0,AccFast,14,18,Woman,Right,
48,6,1,0.7170633000005182,['c'],1,left,['2'],5,0.8182563000009395,0.4,0,AccFast,14,18,Woman,Right,
49,6,1,0.7501685999995971,['n'],1,right,['2'],5,0.38488349999897764,0.4,0,AccFast,14,18,Woman,Right,
50,6,1,3.8000097000003734,['n'],0,left,['8'],3,0.9681182999993325,0.2,0,AccFast,14,18,Woman,Right,
51,6,1,1.1333468000011635,['n'],0,left,['8'],3,0.5182666000000609,0.1,0,AccFast,14,18,Woman,Right,
52,6,1,0.9998840000007476,['n'],1,right,['8'],3,0.4180237999989913,0.2,0,AccFast,14,18,Woman,Right,
53,6,1,0.9506939999992028,['n'],1,right,['3'],4,0.2839423999994324,0.1,0,AccFast,14,18,Woman,Right,
54,6,1,1.633936399999584,['n'],0,left,['8'],3,1.1681019000006927,0.4,0,AccFast,14,18,Woman,Right,
55,6,1,1.38350360000004,['n'],0,left,['3'],4,0.4014468000004854,0.1,0,AccFast,14,18,Woman,Right,
56,6,1,0.9839047000004939,['n'],1,right,['3'],4,0.5679431000007753,0.1,0,AccFast,14,18,Woman,Right,
57,6,1,1.667072399999597,['n'],0,left,['8'],3,0.7333393999997497,0.2,0,AccFast,14,18,Woman,Right,
58,6,1,1.334305399999721,['n'],0,left,['8'],3,0.4856168999995134,0.2,0,AccFast,14,18,Woman,Right,
59,6,1,1.0003252999995311,['n'],1,right,['3'],4,0.5845926000001782,0.4,0,AccFast,14,18,Woman,Right,
0,7,1,1.8168024999995396,['n'],1,right,['2'],5,1.418068699998912,0.1,0,AccAcc,14,18,Woman,Right,
1,7,1,1.4836167999983445,['c'],1,left,['3'],4,0.9848624000005657,0.2,0,AccAcc,14,18,Woman,Right,
2,7,1,2.3997421999993094,['n'],1,right,['3'],4,2.7011082000008173,0.2,0,AccAcc,14,18,Woman,Right,
3,7,1,1.1676937000011094,['n'],1,right,['3'],4,1.2679216000015003,0.2,0,AccAcc,14,18,Woman,Right,
4,7,1,0.833534100000179,['n'],0,left,['3'],4,0.38470500000039465,0.1,0,AccAcc,14,18,Woman,Right,
5,7,1,0.7836991000003763,['n'],1,right,['3'],4,0.5507608000007167,0.1,0,AccAcc,14,18,Woman,Right,
6,7,1,1.117562800000087,['c'],1,left,['2'],5,0.8162873999990552,0.4,0,AccAcc,14,18,Woman,Right,
7,7,1,1.5002154000012524,['n'],0,left,['2'],5,0.6015108999999939,0.2,0,AccAcc,14,18,Woman,Right,
8,7,1,3.8830436000007467,['n'],1,right,['8'],3,1.1021237000004476,0.1,0,AccAcc,14,18,Woman,Right,
9,7,1,1.5167946000001393,['c'],1,left,['3'],4,2.6682262000012997,0.2,0,AccAcc,14,18,Woman,Right,
10,7,1,1.3339261999990413,['n'],1,right,['2'],5,1.801003699998546,0.4,0,AccAcc,14,18,Woman,Right,
11,7,1,2.4499005999987276,['c'],0,right,['9'],2,2.8845211999996536,0.1,0,AccAcc,14,18,Woman,Right,
12,7,1,4.848836499999379,['n'],0,left,['9'],2,1.5015721999989182,0.2,0,AccAcc,14,18,Woman,Right,
13,7,1,4.233508299999812,['n'],0,left,['3'],4,2.3677960999993957,0.4,0,AccAcc,14,18,Woman,Right,
14,7,1,1.0668490000007296,['n'],1,right,['3'],4,0.6999565000005532,0.4,0,AccAcc,14,18,Woman,Right,
15,7,1,4.28378899999916,['n'],1,right,['8'],3,4.634421799999473,0.1,0,AccAcc,14,18,Woman,Right,
16,7,1,1.2668869000008272,['n'],1,right,['3'],4,1.9179944000006799,0.2,0,AccAcc,14,18,Woman,Right,
17,7,1,1.1163559000015084,['n'],0,left,['3'],4,1.0352490000004764,0.4,0,AccAcc,14,18,Woman,Right,
18,7,1,4.832918600000994,['n'],0,left,['8'],3,1.0013952999997855,0.2,0,AccAcc,14,18,Woman,Right,
19,7,1,2.1992253999997047,['n'],1,right,['3'],4,0.8684554999999818,0.1,0,AccAcc,14,18,Woman,Right,
20,7,1,4.599628799998754,['n'],0,left,['0'],1,1.417867499998465,0.1,0,AccAcc,14,18,Woman,Right,
21,7,1,2.466769900000145,['n'],1,right,['9'],2,0.7349782000001142,0.1,0,AccAcc,14,18,Woman,Right,
22,7,1,1.9503400000012334,['n'],0,left,['8'],3,1.4683313999994425,0.2,0,AccAcc,14,18,Woman,Right,
23,7,1,1.1835513999994873,['n'],1,right,['2'],5,1.0827181999993627,0.4,0,AccAcc,14,18,Woman,Right,
24,7,1,0.7682315000001836,['n'],1,right,['3'],4,0.5000118000007205,0.1,0,AccAcc,14,18,Woman,Right,
25,7,1,1.5497611999999208,['n'],1,right,['3'],4,0.7014343999999255,0.2,0,AccAcc,14,18,Woman,Right,
26,7,1,1.2669580000001588,['c'],1,left,['3'],4,2.335789200000363,0.2,0,AccAcc,14,18,Woman,Right,
27,7,1,1.0167051999997057,['n'],1,right,['3'],4,1.2677168999998685,0.4,0,AccAcc,14,18,Woman,Right,
28,7,1,1.8821876999991218,['n'],0,left,['8'],3,0.9854842000004282,0.1,0,AccAcc,14,18,Woman,Right,
29,7,1,2.5829978999991,['n'],0,left,['8'],3,1.0013319000008778,0.2,0,AccAcc,14,18,Woman,Right,
30,7,1,0.9500733999993827,['n'],0,left,['9'],2,0.6524030000000494,0.4,0,AccAcc,14,18,Woman,Right,
31,7,1,1.0845227999998315,['n'],1,right,['9'],2,0.6678728999995656,0.4,0,AccAcc,14,18,Woman,Right,
32,7,1,1.0332775000006222,['n'],1,right,['9'],2,0.7016869999988558,0.2,0,AccAcc,14,18,Woman,Right,
33,7,1,0.8003930999984732,['c'],1,left,['3'],4,0.6186668999998801,0.2,0,AccAcc,14,18,Woman,Right,
34,7,1,0.7832732999995642,['c'],1,left,['3'],4,0.5851686000005429,0.4,0,AccAcc,14,18,Woman,Right,
35,7,1,0.5836180000005697,['n'],1,right,['3'],4,0.4682383999988815,0.2,0,AccAcc,14,18,Woman,Right,
36,7,1,0.5177253000001656,['n'],0,left,['1'],6,0.33380249999936495,0.2,0,AccAcc,14,18,Woman,Right,
37,7,1,1.5163754999994126,['c'],1,left,['2'],5,0.6180003999998007,0.4,0,AccAcc,14,18,Woman,Right,
38,7,1,1.2329737000000023,['c'],1,left,['2'],5,0.40149190000011004,0.4,0,AccAcc,14,18,Woman,Right,
39,7,1,0.7009291000013036,['c'],1,left,['2'],5,0.36828799999966577,0.4,0,AccAcc,14,18,Woman,Right,
40,7,1,2.0669717000000674,['n'],1,right,['3'],4,1.0678017999998701,0.2,0,AccAcc,14,18,Woman,Right,
41,7,1,2.9163974999992206,['n'],1,right,['3'],4,1.5173561000010523,0.2,0,AccAcc,14,18,Woman,Right,
42,7,1,1.216385400000945,['n'],0,left,['3'],4,0.7346555000003718,0.1,0,AccAcc,14,18,Woman,Right,
43,7,1,0.9170115999986592,['n'],1,right,['3'],4,0.6348223999993934,0.4,0,AccAcc,14,18,Woman,Right,
44,7,1,2.2326634000000922,['n'],1,right,['3'],4,0.45034060000034515,0.1,0,AccAcc,14,18,Woman,Right,
45,7,1,3.9503729000007297,['c'],1,left,['2'],5,0.8348050999993575,0.1,0,AccAcc,14,18,Woman,Right,
46,7,1,2.8661913000014465,['c'],0,right,['3'],4,0.584649200000058,0.1,0,AccAcc,14,18,Woman,Right,
47,7,1,1.2498489999998128,['c'],1,left,['3'],4,0.8510334000002331,0.4,0,AccAcc,14,18,Woman,Right,
48,7,1,2.350205000000642,['c'],0,right,['2'],5,0.7015527000003203,0.4,0,AccAcc,14,18,Woman,Right,
49,7,1,2.133636300000944,['c'],1,left,['2'],5,0.40153209999880346,0.1,0,AccAcc,14,18,Woman,Right,
50,7,1,2.683233099998688,['c'],0,right,['8'],3,1.667889299998933,0.1,0,AccAcc,14,18,Woman,Right,
51,7,1,1.7503950999998779,['n'],1,right,['3'],4,1.1015080000015587,0.2,0,AccAcc,14,18,Woman,Right,
52,7,1,1.3999375000003056,['n'],1,right,['3'],4,0.7006106999997428,0.2,0,AccAcc,14,18,Woman,Right,
53,7,1,2.0835014000003866,['n'],0,left,['3'],4,1.051229800001238,0.1,0,AccAcc,14,18,Woman,Right,
54,7,1,0.7999842999997782,['n'],1,right,['2'],5,0.684695300000385,0.4,0,AccAcc,14,18,Woman,Right,
55,7,1,1.150298799999291,['c'],1,left,['2'],5,2.967954699999609,0.4,0,AccAcc,14,18,Woman,Right,
56,7,1,1.5681248999990203,['c'],1,left,['2'],5,1.2845658000005642,0.4,0,AccAcc,14,18,Woman,Right,
57,7,1,3.333307800001421,['n'],0,left,['8'],3,0.9515888000005361,0.1,0,AccAcc,14,18,Woman,Right,
58,7,1,3.765948299998854,['c'],1,left,['3'],4,1.518108199999915,0.1,0,AccAcc,14,18,Woman,Right,
59,7,1,1.050350299999991,['n'],1,right,['3'],4,1.735009899999568,0.4,0,AccAcc,14,18,Woman,Right,
0,8,1,1.0345018999996682,['n'],1,right,none,-99,-99,0.4,1,FastAcc,14,18,Woman,Right,
1,8,1,1.0510682000003726,['c'],1,left,['3'],4,1.0015120999996725,0.1,0,FastAcc,14,18,Woman,Right,
2,8,1,0.6168928999995842,['n'],0,left,['3'],4,0.7347771000004286,0.1,0,FastAcc,14,18,Woman,Right,
3,8,1,0.783730099999957,['n'],1,right,['9'],2,1.0845413000006374,0.1,0,FastAcc,14,18,Woman,Right,
4,8,1,0.599673000000621,['n'],1,right,['8'],3,2.167934299999615,0.2,0,FastAcc,14,18,Woman,Right,
5,8,1,0.5008278000004793,['n'],1,right,['3'],4,1.5520613999997295,0.4,0,FastAcc,14,18,Woman,Right,
6,8,1,0.4838973999994778,['n'],1,right,['9'],2,1.1680868999992526,0.2,0,FastAcc,14,18,Woman,Right,
7,8,1,0.5838782000009815,['n'],1,right,['8'],3,1.2337158999998792,0.4,0,FastAcc,14,18,Woman,Right,
8,8,1,0.7166407000004256,['c'],1,left,['3'],4,1.6681351000006543,0.4,0,FastAcc,14,18,Woman,Right,
9,8,1,0.4168503000000783,['n'],0,left,['8'],3,1.651361000000179,0.1,0,FastAcc,14,18,Woman,Right,
10,8,1,0.36776650000138034,['c'],0,right,['3'],4,1.8344225000000733,0.1,0,FastAcc,14,18,Woman,Right,
11,8,1,0.46730589999970107,['n'],1,right,['8'],3,0.8335580999992089,0.1,0,FastAcc,14,18,Woman,Right,
12,8,1,0.4337513000009494,['n'],1,right,['3'],4,1.0344900000000052,0.4,0,FastAcc,14,18,Woman,Right,
13,8,1,0.5158737000001565,['n'],0,left,['9'],2,2.4684595000017,0.2,0,FastAcc,14,18,Woman,Right,
14,8,1,1.0496014000000287,['c'],1,left,['8'],3,1.5355954999995447,0.1,0,FastAcc,14,18,Woman,Right,
15,8,1,0.3510334000002331,['n'],1,right,['2'],5,3.5511238999988564,0.4,0,FastAcc,14,18,Woman,Right,
16,8,1,0.6501788000005035,['c'],1,left,['3'],4,1.1174186999996891,0.2,0,FastAcc,14,18,Woman,Right,
17,8,1,0.6837295000004815,['c'],1,left,['3'],4,0.6012511999997514,0.2,0,FastAcc,14,18,Woman,Right,
18,8,1,0.5332082999993872,['n'],0,left,['8'],3,0.5187884999995731,0.1,0,FastAcc,14,18,Woman,Right,
19,8,1,0.5006944999986445,['c'],1,left,['3'],4,0.584606000000349,0.2,0,FastAcc,14,18,Woman,Right,
20,8,1,0.48373069999979634,['n'],1,right,['8'],3,0.43455810000159545,0.2,0,FastAcc,14,18,Woman,Right,
21,8,1,0.6001503999996203,['n'],0,left,['8'],3,0.3502158999999665,0.2,0,FastAcc,14,18,Woman,Right,
22,8,1,0.4829640999996627,['n'],1,right,['8'],3,0.3853289999988192,0.1,0,FastAcc,14,18,Woman,Right,
23,8,1,0.5668646000012814,['n'],1,right,['8'],3,0.35146509999867703,0.4,0,FastAcc,14,18,Woman,Right,
24,8,1,0.9993952000004356,['c'],1,left,['3'],4,0.7178463999989617,0.2,0,FastAcc,14,18,Woman,Right,
25,8,1,0.3353456000004371,['n'],1,right,['9'],2,1.8014330999994854,0.1,0,FastAcc,14,18,Woman,Right,
26,8,1,0.40033030000086,['c'],0,right,['9'],2,1.6679997999999614,0.2,0,FastAcc,14,18,Woman,Right,
27,8,1,0.533738899999662,['n'],1,right,['8'],3,0.6499186000000918,0.4,0,FastAcc,14,18,Woman,Right,
28,8,1,0.6843341999992845,['n'],1,right,['3'],4,0.6012949999985722,0.4,0,FastAcc,14,18,Woman,Right,
29,8,1,0.7000527000000147,['c'],1,left,['9'],2,1.2354443999993237,0.2,0,FastAcc,14,18,Woman,Right,
30,8,1,0.6178399000000354,['n'],1,right,['9'],2,0.9667917000006128,0.1,0,FastAcc,14,18,Woman,Right,
31,8,1,0.4177175000004354,['n'],1,right,['8'],3,0.6839276000009704,0.1,0,FastAcc,14,18,Woman,Right,
32,8,1,0.567658300000403,['c'],1,left,['3'],4,1.5179613000000245,0.4,0,FastAcc,14,18,Woman,Right,
33,8,1,0.5177853999994113,['c'],1,left,['9'],2,2.7011340000008204,0.2,0,FastAcc,14,18,Woman,Right,
34,8,1,0.4503612999997131,['n'],1,right,['3'],4,0.667892399998891,0.4,0,FastAcc,14,18,Woman,Right,
35,8,1,0.4005188999999518,['c'],0,right,['0'],1,2.4168212999993557,0.4,0,FastAcc,14,18,Woman,Right,
36,8,1,1.0009122000010393,['c'],1,left,['9'],2,1.8177271999993536,0.1,0,FastAcc,14,18,Woman,Right,
37,8,1,0.5338012000011076,['n'],1,right,['2'],5,1.000591699999859,0.1,0,FastAcc,14,18,Woman,Right,
38,8,1,0.5668093999993289,['n'],1,right,['2'],5,0.3514310000009573,0.4,0,FastAcc,14,18,Woman,Right,
39,8,1,0.5666818000008789,['n'],0,left,['9'],2,1.351864199999909,0.4,0,FastAcc,14,18,Woman,Right,
40,8,1,0.6164069999995263,['n'],0,left,['8'],3,0.6513771000009001,0.2,0,FastAcc,14,18,Woman,Right,
41,8,1,0.6002243999992061,['n'],0,left,['9'],2,0.9681199999995442,0.1,0,FastAcc,14,18,Woman,Right,
42,8,1,0.8003998000003776,['n'],0,left,['8'],3,0.6336347999986174,0.1,0,FastAcc,14,18,Woman,Right,
43,8,1,0.6839582000011433,['n'],1,right,['3'],4,0.550117799999498,0.4,0,FastAcc,14,18,Woman,Right,
44,8,1,0.6346422999995411,['n'],1,right,['3'],4,0.9844268999986525,0.1,0,FastAcc,14,18,Woman,Right,
45,8,1,0.5498932999998942,['n'],1,right,['2'],5,0.53498689999833,0.2,0,FastAcc,14,18,Woman,Right,
46,8,1,1.9832175000010466,['n'],0,left,['9'],2,0.6850551000006817,0.2,0,FastAcc,14,18,Woman,Right,
47,8,1,0.4827758999999787,['c'],1,left,['9'],2,0.9024649000002682,0.2,0,FastAcc,14,18,Woman,Right,
48,8,1,0.4835283000011259,['n'],1,right,['2'],5,0.734842199999548,0.4,0,FastAcc,14,18,Woman,Right,
49,8,1,0.4653472999998485,['n'],0,left,['3'],4,0.7674122000007628,0.2,0,FastAcc,14,18,Woman,Right,
50,8,1,0.501270900000236,['n'],0,left,['9'],2,1.051262900000438,0.4,0,FastAcc,14,18,Woman,Right,
51,8,1,0.6003714999988006,['c'],1,left,['2'],5,0.9180457000002207,0.4,0,FastAcc,14,18,Woman,Right,
52,8,1,0.3677834999998595,['n'],0,left,['0'],1,0.9845806999983324,0.4,0,FastAcc,14,18,Woman,Right,
53,8,1,0.5171319000000949,['n'],1,right,['2'],5,1.5015449000002263,0.2,0,FastAcc,14,18,Woman,Right,
54,8,1,0.5338433999986592,['n'],0,left,['2'],5,0.9015574000004563,0.1,0,FastAcc,14,18,Woman,Right,
55,8,1,0.4324976999996579,['n'],0,left,['9'],2,0.5854667000003246,0.2,0,FastAcc,14,18,Woman,Right,
56,8,1,0.416920100000425,['n'],0,left,['8'],3,0.5511120999999548,0.1,0,FastAcc,14,18,Woman,Right,
57,8,1,0.516642700000375,['c'],0,right,['3'],4,0.4677274999994552,0.1,0,FastAcc,14,18,Woman,Right,
58,8,1,0.4830153999992035,['n'],0,left,['8'],3,0.43458100000134436,0.2,0,FastAcc,14,18,Woman,Right,
59,8,1,0.35045370000079856,['n'],1,right,['8'],3,0.4679783999999927,0.4,0,FastAcc,14,18,Woman,Right,
0,9,1,0.4844957000004797,['n'],1,right,['8'],3,0.40112070000031963,0.2,0,FastFast,14,18,Woman,Right,
1,9,1,0.3172682000003988,['n'],1,right,['3'],4,0.9674211000001378,0.2,0,FastFast,14,18,Woman,Right,
2,9,1,0.43316090000007534,['n'],0,left,['8'],3,0.4511422000014136,0.1,0,FastFast,14,18,Woman,Right,
3,9,1,0.5343147999992652,['n'],1,right,['3'],4,0.41789710000011837,0.4,0,FastFast,14,18,Woman,Right,
4,9,1,0.4004400000012538,['n'],0,left,['9'],2,0.7679599999992206,0.4,0,FastFast,14,18,Woman,Right,
5,9,1,0.46626000000105705,['n'],0,left,['8'],3,0.31805999999960477,0.2,0,FastFast,14,18,Woman,Right,
6,9,1,0.4005378000001656,['n'],1,right,['2'],5,0.6011467999996967,0.4,0,FastFast,14,18,Woman,Right,
7,9,1,1.0834997999991174,['c'],0,right,['8'],3,0.41801549999945564,0.1,0,FastFast,14,18,Woman,Right,
8,9,1,0.4336063999999169,['n'],0,left,['3'],4,0.45129850000012084,0.2,0,FastFast,14,18,Woman,Right,
9,9,1,0.4512709000009636,['n'],0,left,['3'],4,0.584236200000305,0.2,0,FastFast,14,18,Woman,Right,
10,9,1,0.46734810000089055,['n'],0,left,['2'],5,0.8514512999990984,0.1,0,FastFast,14,18,Woman,Right,
11,9,1,0.5328358999995544,['n'],0,left,['3'],4,0.6180947000011656,0.1,0,FastFast,14,18,Woman,Right,
12,9,1,0.6670279999998456,['c'],1,left,['8'],3,0.3840273999994679,0.1,0,FastFast,14,18,Woman,Right,
13,9,1,0.4676222999987658,['n'],0,left,['3'],4,0.6345531999995728,0.4,0,FastFast,14,18,Woman,Right,
14,9,1,0.3839315000004717,['n'],0,left,['8'],3,0.35149660000024596,0.1,0,FastFast,14,18,Woman,Right,
15,9,1,0.40051710000079765,['c'],1,left,['8'],3,0.4679287999988446,0.4,0,FastFast,14,18,Woman,Right,
16,9,1,0.4168950000002951,['c'],0,right,['8'],3,0.8682687000000442,0.2,0,FastFast,14,18,Woman,Right,
17,9,1,0.4498879000002489,['n'],0,left,['8'],3,0.3015965000013239,0.2,0,FastFast,14,18,Woman,Right,
18,9,1,0.43399939999835624,['n'],1,right,['9'],2,0.3681349999988015,0.4,0,FastFast,14,18,Woman,Right,
19,9,1,0.43375379999997676,['n'],1,right,['3'],4,0.4513280000010127,0.1,0,FastFast,14,18,Woman,Right,
20,9,1,0.3499359999987064,['n'],0,left,['9'],2,0.518006600001172,0.1,0,FastFast,14,18,Woman,Right,
21,9,1,0.5670153999999457,['n'],1,right,['8'],3,0.38443869999900926,0.1,0,FastFast,14,18,Woman,Right,
22,9,1,0.39947029999893857,['n'],0,left,['9'],2,0.30136790000142355,0.4,0,FastFast,14,18,Woman,Right,
23,9,1,0.450313900000765,['n'],1,right,['8'],3,0.2680665999996563,0.1,0,FastFast,14,18,Woman,Right,
24,9,1,0.43391540000084206,['n'],0,left,['9'],2,0.28559599999971397,0.4,0,FastFast,14,18,Woman,Right,
25,9,1,0.5824484000004304,['n'],1,right,['3'],4,0.7851942999986932,0.4,0,FastFast,14,18,Woman,Right,
26,9,1,0.6828282000005856,['n'],0,left,['2'],5,0.3022598999996262,0.4,0,FastFast,14,18,Woman,Right,
27,9,1,0.44977100000141945,['n'],1,right,['9'],2,0.3185520000006363,0.2,0,FastFast,14,18,Woman,Right,
28,9,1,0.5996386000006169,['n'],1,right,['2'],5,0.41800489999877755,0.2,0,FastFast,14,18,Woman,Right,
29,9,1,0.5005187000006117,['n'],1,right,['2'],5,0.28476380000029167,0.2,0,FastFast,14,18,Woman,Right,
30,9,1,0.45028699999966193,['n'],0,left,['9'],2,0.4013894999989134,0.2,0,FastFast,14,18,Woman,Right,
31,9,1,0.3837760000005801,['n'],1,right,['8'],3,0.316615499999898,0.2,0,FastFast,14,18,Woman,Right,
32,9,1,0.41655879999962053,['n'],1,right,['3'],4,0.41799340000034135,0.4,0,FastFast,14,18,Woman,Right,
33,9,1,0.5675460999991628,['n'],0,left,['9'],2,0.43496179999965534,0.1,0,FastFast,14,18,Woman,Right,
34,9,1,0.4006890000000567,['n'],0,left,['8'],3,0.30184149999877263,0.2,0,FastFast,14,18,Woman,Right,
35,9,1,0.4832299999998213,['n'],0,left,['8'],3,0.28452870000000985,0.4,0,FastFast,14,18,Woman,Right,
36,9,1,0.5331421999999293,['n'],1,right,['2'],5,0.75158890000057,0.1,0,FastFast,14,18,Woman,Right,
37,9,1,0.36703119999947376,['n'],1,right,['3'],4,0.9679988999996567,0.4,0,FastFast,14,18,Woman,Right,
38,9,1,0.4333031000005576,['n'],0,left,['8'],3,0.6688390999988769,0.2,0,FastFast,14,18,Woman,Right,
39,9,1,0.3840162999986205,['c'],0,right,['3'],4,0.4344992000005732,0.1,0,FastFast,14,18,Woman,Right,
40,9,1,0.33448109999881126,['n'],1,right,['8'],3,0.34973840000020573,0.4,0,FastFast,14,18,Woman,Right,
41,9,1,0.40012100000058126,['n'],0,left,['3'],4,0.3679062999999587,0.1,0,FastFast,14,18,Woman,Right,
42,9,1,0.4501239000001078,['n'],1,right,['3'],4,0.766573500000959,0.4,0,FastFast,14,18,Woman,Right,
43,9,1,0.5340472000007139,['n'],1,right,['2'],5,0.5518064000007143,0.4,0,FastFast,14,18,Woman,Right,
44,9,1,0.4173505999988265,['n'],1,right,['2'],5,0.5347805999990669,0.1,0,FastFast,14,18,Woman,Right,
45,9,1,0.5838664999992034,['n'],1,right,['2'],5,0.45138109999970766,0.2,0,FastFast,14,18,Woman,Right,
46,9,1,0.498868599999696,['n'],0,left,['8'],3,0.46729509999931906,0.1,0,FastFast,14,18,Woman,Right,
47,9,1,0.5179611000003206,['c'],0,right,['3'],4,0.5174453999989055,0.1,0,FastFast,14,18,Woman,Right,
48,9,1,0.4837801000012405,['c'],1,left,['8'],3,0.5007605999999214,0.2,0,FastFast,14,18,Woman,Right,
49,9,1,0.4668091000003187,['c'],1,left,['8'],3,0.2833755999999994,0.4,0,FastFast,14,18,Woman,Right,
50,9,1,0.5514694999983476,['n'],1,right,['3'],4,0.5177660000008473,0.4,0,FastFast,14,18,Woman,Right,
51,9,1,0.3836204999988695,['c'],1,left,['8'],3,0.2511445999989519,0.1,0,FastFast,14,18,Woman,Right,
52,9,1,0.40042929999981425,['n'],0,left,['8'],3,0.8173274000000674,0.4,0,FastFast,14,18,Woman,Right,
53,9,1,0.6003013999998075,['n'],1,right,['3'],4,0.33361499999955413,0.2,0,FastFast,14,18,Woman,Right,
54,9,1,0.4168053000012151,['n'],1,right,['8'],3,0.2846532000003208,0.2,0,FastFast,14,18,Woman,Right,
55,9,1,0.4844209000002593,['n'],0,left,['8'],3,0.2338166999998066,0.1,0,FastFast,14,18,Woman,Right,
56,9,1,0.5175908000001073,['c'],0,right,['8'],3,0.9169098000002123,0.1,0,FastFast,14,18,Woman,Right,
57,9,1,0.41815520000091055,['n'],0,left,['8'],3,0.3012041000001773,0.2,0,FastFast,14,18,Woman,Right,
58,9,1,0.4505102999992232,['n'],0,left,['8'],3,0.3505622000011499,0.2,0,FastFast,14,18,Woman,Right,
59,9,1,0.4004206999998132,['n'],1,right,['2'],5,1.2679502000009961,0.4,0,FastFast,14,18,Woman,Right,
0,10,1,2.001058899999407,['n'],1,right,['3'],4,0.7019999999993161,0.4,0,AccFast,14,18,Woman,Right,
1,10,1,1.1503283999991254,['n'],1,right,['2'],5,0.30014760000085516,0.4,0,AccFast,14,18,Woman,Right,
2,10,1,0.7511095000008936,['n'],1,right,['2'],5,0.21798310000122,0.4,0,AccFast,14,18,Woman,Right,
3,10,1,0.7504642999992939,['c'],1,left,['3'],4,0.584613500001069,0.2,0,AccFast,14,18,Woman,Right,
4,10,1,0.6169525000004796,['n'],0,left,['1'],6,0.20193040000049223,0.4,0,AccFast,14,18,Woman,Right,
5,10,1,0.5833271000010427,['n'],1,right,['1'],6,0.5180507999994006,0.4,0,AccFast,14,18,Woman,Right,
6,10,1,0.5173751000002085,['n'],1,right,['1'],6,0.2012881999999081,0.4,0,AccFast,14,18,Woman,Right,
7,10,1,0.48250179999922693,['n'],1,right,['2'],5,0.18492650000007416,0.4,0,AccFast,14,18,Woman,Right,
8,10,1,0.650513200000205,['n'],0,left,['3'],4,0.15146249999997963,0.1,0,AccFast,14,18,Woman,Right,
9,10,1,0.5167786999991222,['n'],1,right,['2'],5,0.1350044999999227,0.1,0,AccFast,14,18,Woman,Right,
10,10,1,0.45019719999982044,['n'],1,right,['3'],4,0.2514322999995784,0.1,0,AccFast,14,18,Woman,Right,
11,10,1,0.48393659999965166,['c'],1,left,['8'],3,0.23490549999951327,0.2,0,AccFast,14,18,Woman,Right,
12,10,1,0.5167765999995027,['c'],1,left,['8'],3,0.1997326000000612,0.1,0,AccFast,14,18,Woman,Right,
13,10,1,0.366860899999665,['c'],0,right,['8'],3,0.2179869999999937,0.4,0,AccFast,14,18,Woman,Right,
14,10,1,1.250113699999929,['c'],0,right,['8'],3,0.31792899999891233,0.1,0,AccFast,14,18,Woman,Right,
15,10,1,1.3679257000003417,['n'],1,right,['8'],3,0.4015753000003315,0.1,0,AccFast,14,18,Woman,Right,
16,10,1,1.0322589999996126,['c'],1,left,['3'],4,0.8354873000007501,0.4,0,AccFast,14,18,Woman,Right,
17,10,1,0.6669394000000466,['n'],1,right,['2'],5,0.20136009999987436,0.4,0,AccFast,14,18,Woman,Right,
18,10,1,0.5846044999998412,['n'],1,right,['9'],2,0.4001472999989346,0.1,0,AccFast,14,18,Woman,Right,
19,10,1,0.6176218000000517,['n'],1,right,['9'],2,0.2676666000006662,0.2,0,AccFast,14,18,Woman,Right,
20,10,1,0.7820363999999245,['n'],1,right,['2'],5,0.2191923999998835,0.2,0,AccFast,14,18,Woman,Right,
21,10,1,0.9831738000011683,['c'],1,left,['3'],4,0.4680337000008876,0.2,0,AccFast,14,18,Woman,Right,
22,10,1,1.3167878000003839,['n'],0,left,['2'],5,0.20141340000009222,0.1,0,AccFast,14,18,Woman,Right,
23,10,1,0.6824288000007073,['n'],1,right,['3'],4,0.16874140000072657,0.4,0,AccFast,14,18,Woman,Right,
24,10,1,0.6836046000007627,['n'],1,right,['2'],5,0.28454539999984263,0.2,0,AccFast,14,18,Woman,Right,
25,10,1,0.6329871999987517,['n'],1,right,['2'],5,0.1501155000005383,0.4,0,AccFast,14,18,Woman,Right,
26,10,1,0.8507157000003644,['n'],0,left,['1'],6,0.23416499999984808,0.2,0,AccFast,14,18,Woman,Right,
27,10,1,1.1182566999996197,['n'],0,left,['2'],5,0.13483679999990272,0.1,0,AccFast,14,18,Woman,Right,
28,10,1,0.6997191999998904,['n'],1,right,['3'],4,0.351280200000474,0.2,0,AccFast,14,18,Woman,Right,
29,10,1,0.6170918000007077,['n'],1,right,['3'],4,0.4349738000000798,0.2,0,AccFast,14,18,Woman,Right,
30,10,1,0.7166423000016948,['n'],0,left,['3'],4,0.44989259999965725,0.2,0,AccFast,14,18,Woman,Right,
31,10,1,0.717688900000212,['n'],1,right,['8'],3,0.3345837999986543,0.1,0,AccFast,14,18,Woman,Right,
32,10,1,0.5168956999987131,['n'],1,right,['3'],4,0.968149699998321,0.1,0,AccFast,14,18,Woman,Right,
33,10,1,0.5835930000012013,['n'],1,right,['3'],4,0.21734429999924032,0.1,0,AccFast,14,18,Woman,Right,
34,10,1,0.7337018999987777,['n'],0,left,['8'],3,0.30164390000027197,0.4,0,AccFast,14,18,Woman,Right,
35,10,1,0.9501684000006207,['n'],0,left,['9'],2,0.3514476000000286,0.1,0,AccFast,14,18,Woman,Right,
36,10,1,0.8504111000002013,['n'],0,left,['3'],4,0.23493349999989732,0.2,0,AccFast,14,18,Woman,Right,
37,10,1,0.8162685999996029,['n'],1,right,['8'],3,0.3678033999985928,0.4,0,AccFast,14,18,Woman,Right,
38,10,1,0.9497642000005726,['n'],0,left,['8'],3,0.3174056000007113,0.4,0,AccFast,14,18,Woman,Right,
39,10,1,0.6507356000001892,['n'],1,right,['3'],4,0.2513036000000284,0.4,0,AccFast,14,18,Woman,Right,
40,10,1,0.6653569000009156,['n'],0,left,['3'],4,0.20088440000108676,0.2,0,AccFast,14,18,Woman,Right,
41,10,1,0.6685689999994793,['n'],0,left,['3'],4,0.2512246000005689,0.4,0,AccFast,14,18,Woman,Right,
42,10,1,0.43405410000013944,['n'],1,right,['9'],2,0.30143799999859766,0.2,0,AccFast,14,18,Woman,Right,
43,10,1,0.6157639000011841,['n'],0,left,['8'],3,0.28540480000083335,0.1,0,AccFast,14,18,Woman,Right,
44,10,1,0.5502438000003167,['n'],1,right,['8'],3,0.3348654000001261,0.4,0,AccFast,14,18,Woman,Right,
45,10,1,0.6326498000016727,['n'],0,left,['9'],2,0.28441270000075747,0.1,0,AccFast,14,18,Woman,Right,
46,10,1,0.6337065999996412,['n'],1,right,['8'],3,0.28489840000111144,0.2,0,AccFast,14,18,Woman,Right,
47,10,1,0.5495857000005344,['n'],0,left,['8'],3,0.2512211999983265,0.2,0,AccFast,14,18,Woman,Right,
48,10,1,0.5336416999998619,['n'],0,left,['9'],2,0.2849284000003536,0.4,0,AccFast,14,18,Woman,Right,
49,10,1,0.41728169999987585,['n'],1,right,['9'],2,0.3013633000009577,0.2,0,AccFast,14,18,Woman,Right,
50,10,1,0.5497754000007262,['c'],1,left,['2'],5,0.8178800999994564,0.4,0,AccFast,14,18,Woman,Right,
51,10,1,0.5834889999987354,['n'],0,left,['3'],4,0.26781040000059875,0.1,0,AccFast,14,18,Woman,Right,
52,10,1,0.3837235999999393,['c'],1,left,['8'],3,0.28466889999981504,0.2,0,AccFast,14,18,Woman,Right,
53,10,1,0.4503811000013229,['c'],1,left,['9'],2,0.25150530000064464,0.2,0,AccFast,14,18,Woman,Right,
54,10,1,0.6835537999995722,['n'],0,left,['9'],2,0.31822570000076666,0.1,0,AccFast,14,18,Woman,Right,
55,10,1,0.6163236000011239,['n'],0,left,['9'],2,0.25124270000014803,0.1,0,AccFast,14,18,Woman,Right,
56,10,1,0.5158410000003641,['n'],0,left,['9'],2,0.25219209999886516,0.2,0,AccFast,14,18,Woman,Right,
57,10,1,0.4651960000010149,['n'],0,left,['9'],2,0.30100149999998393,0.2,0,AccFast,14,18,Woman,Right,
58,10,1,1.9489842000002682,['n'],1,right,['9'],2,0.38532870000017283,0.1,0,AccFast,14,18,Woman,Right,
59,10,1,2.2495668999999907,['c'],1,left,['8'],3,0.7177274000005127,0.1,0,AccFast,14,18,Woman,Right,
0,11,1,1.0173718000005465,['c'],1,left,['3'],4,1.2511526999987836,0.4,0,AccAcc,14,18,Woman,Right,
1,11,1,2.500762499999837,['n'],1,right,['8'],3,0.8178221999987727,0.1,0,AccAcc,14,18,Woman,Right,
2,11,1,1.8335073999987799,['c'],1,left,['3'],4,0.6846456000002945,0.2,0,AccAcc,14,18,Woman,Right,
3,11,1,0.9006160999997519,['n'],1,right,['3'],4,1.1844083999985742,0.2,0,AccAcc,14,18,Woman,Right,
4,11,1,2.550333999999566,['n'],0,left,['3'],4,0.5345930000003136,0.1,0,AccAcc,14,18,Woman,Right,
5,11,1,1.1669810999992478,['n'],1,right,['3'],4,0.5679025999997975,0.1,0,AccAcc,14,18,Woman,Right,
6,11,1,0.8508863000006386,['n'],1,right,['2'],5,0.6514588999998523,0.4,0,AccAcc,14,18,Woman,Right,
7,11,1,0.9002815000003466,['c'],1,left,['2'],5,0.566982199999984,0.4,0,AccAcc,14,18,Woman,Right,
8,11,1,0.7497813000009046,['n'],1,right,['2'],5,0.751747800000885,0.2,0,AccAcc,14,18,Woman,Right,
9,11,1,0.7837926000011066,['c'],1,left,['2'],5,0.5005903999990551,0.2,0,AccAcc,14,18,Woman,Right,
10,11,1,2.550381200000629,['n'],0,left,['3'],4,1.0015593000007357,0.2,0,AccAcc,14,18,Woman,Right,
11,11,1,0.6162940000012895,['c'],1,left,['2'],5,0.6182121000001644,0.4,0,AccAcc,14,18,Woman,Right,
12,11,1,0.631935400000657,['n'],1,right,['2'],5,0.7675761000009516,0.4,0,AccAcc,14,18,Woman,Right,
13,11,1,0.7338337999990472,['n'],1,right,['8'],3,2.0014308000008896,0.1,0,AccAcc,14,18,Woman,Right,
14,11,1,0.6334762999995291,['n'],1,right,['2'],5,1.1507594000013341,0.4,0,AccAcc,14,18,Woman,Right,
15,11,1,0.6670739000001049,['n'],1,right,['2'],5,0.9345443000001978,0.4,0,AccAcc,14,18,Woman,Right,
16,11,1,0.6336791999983689,['n'],1,right,['3'],4,0.9678841999993892,0.2,0,AccAcc,14,18,Woman,Right,
17,11,1,0.6994320999983756,['c'],1,left,['3'],4,0.9681603000008181,0.1,0,AccAcc,14,18,Woman,Right,
18,11,1,0.7184158000000025,['c'],1,left,['3'],4,0.7012804000005417,0.4,0,AccAcc,14,18,Woman,Right,
19,11,1,0.8159736999987217,['n'],0,left,['8'],3,0.4179576000005909,0.1,0,AccAcc,14,18,Woman,Right,
20,11,1,0.9163575000002311,['c'],1,left,['3'],4,0.8514690000010887,0.4,0,AccAcc,14,18,Woman,Right,
21,11,1,0.6323976000003313,['n'],0,left,['8'],3,0.6188626999992266,0.1,0,AccAcc,14,18,Woman,Right,
22,11,1,0.9672630000004574,['c'],1,left,['8'],3,0.8682354000011401,0.4,0,AccAcc,14,18,Woman,Right,
23,11,1,1.0004594000001816,['n'],0,left,['8'],3,0.634702000001198,0.2,0,AccAcc,14,18,Woman,Right,
24,11,1,0.8170664999997825,['n'],1,right,['3'],4,0.7512967999991815,0.4,0,AccAcc,14,18,Woman,Right,
25,11,1,1.0335520999997243,['n'],1,right,['3'],4,0.40144689999942784,0.4,0,AccAcc,14,18,Woman,Right,
26,11,1,0.8672753999999259,['n'],0,left,['8'],3,0.6014541000004101,0.4,0,AccAcc,14,18,Woman,Right,
27,11,1,0.9997035000014876,['n'],0,left,['8'],3,0.6024345999994694,0.2,0,AccAcc,14,18,Woman,Right,
28,11,1,2.665954599999168,['c'],1,left,['8'],3,0.7514019999998709,0.1,0,AccAcc,14,18,Woman,Right,
29,11,1,0.7504788999995071,['n'],1,right,['3'],4,0.518066299999191,0.4,0,AccAcc,14,18,Woman,Right,
30,11,1,0.6844576000003144,['n'],1,right,['3'],4,0.5682601999997132,0.2,0,AccAcc,14,18,Woman,Right,
31,11,1,0.9666316000002553,['n'],0,left,['3'],4,0.5346231999992597,0.2,0,AccAcc,14,18,Woman,Right,
32,11,1,0.6176171000006434,['n'],1,right,['8'],3,0.4347218000002613,0.2,0,AccAcc,14,18,Woman,Right,
33,11,1,0.6508718000004592,['n'],1,right,['8'],3,1.9012382999990223,0.1,0,AccAcc,14,18,Woman,Right,
34,11,1,1.5666331000011269,['n'],1,right,['3'],4,0.9514791000001424,0.2,0,AccAcc,14,18,Woman,Right,
35,11,1,1.2664952999984962,['c'],1,left,['2'],5,0.7354362999994919,0.2,0,AccAcc,14,18,Woman,Right,
36,11,1,1.5838705000005575,['n'],0,left,['3'],4,0.9173568999995041,0.1,0,AccAcc,14,18,Woman,Right,
37,11,1,1.8175288999991608,['c'],1,left,['8'],3,0.7511375000012777,0.1,0,AccAcc,14,18,Woman,Right,
38,11,1,1.182762599999478,['n'],1,right,['3'],4,0.7185262000002695,0.1,0,AccAcc,14,18,Woman,Right,
39,11,1,0.8343088000001444,['c'],1,left,['3'],4,1.0666078999984165,0.1,0,AccAcc,14,18,Woman,Right,
40,11,1,1.117747900001632,['n'],1,right,['2'],5,1.3177603000003728,0.4,0,AccAcc,14,18,Woman,Right,
41,11,1,2.367869800000335,['n'],0,left,['8'],3,1.3513535000001866,0.1,0,AccAcc,14,18,Woman,Right,
42,11,1,1.500232500000493,['n'],1,right,['2'],5,1.3512437999997928,0.4,0,AccAcc,14,18,Woman,Right,
43,11,1,1.3489865999999893,['c'],1,left,['2'],5,0.9014377999992575,0.2,0,AccAcc,14,18,Woman,Right,
44,11,1,1.7321034999986296,['c'],1,left,['3'],4,0.652282600000035,0.1,0,AccAcc,14,18,Woman,Right,
45,11,1,1.1172791999997571,['n'],1,right,['3'],4,0.8350417999990896,0.2,0,AccAcc,14,18,Woman,Right,
46,11,1,0.717631600000459,['n'],1,right,['3'],4,0.45117500000014843,0.1,0,AccAcc,14,18,Woman,Right,
47,11,1,0.9013939000014943,['n'],0,left,['3'],4,1.067809699999998,0.2,0,AccAcc,14,18,Woman,Right,
48,11,1,1.050458499999877,['n'],0,left,['8'],3,1.8021083000003273,0.2,0,AccAcc,14,18,Woman,Right,
49,11,1,2.3503688000000693,['c'],1,left,['8'],3,2.1179391000005126,0.2,0,AccAcc,14,18,Woman,Right,
50,11,1,0.9506411000002117,['n'],1,right,['2'],5,1.1179886000008992,0.4,0,AccAcc,14,18,Woman,Right,
51,11,1,1.567066399999021,['n'],1,right,['3'],4,2.216350299999249,0.1,0,AccAcc,14,18,Woman,Right,
52,11,1,0.8507738000007521,['n'],1,right,['3'],4,1.134481200000664,0.2,0,AccAcc,14,18,Woman,Right,
53,11,1,1.1833200999990368,['n'],1,right,['3'],4,1.7509205999995174,0.1,0,AccAcc,14,18,Woman,Right,
54,11,1,0.9009237999998732,['c'],1,left,['2'],5,0.7190069999996922,0.4,0,AccAcc,14,18,Woman,Right,
55,11,1,0.8336780999998155,['n'],1,right,['3'],4,0.6014885999993567,0.1,0,AccAcc,14,18,Woman,Right,
56,11,1,0.6501916999986861,['n'],1,right,['3'],4,1.001232800001162,0.4,0,AccAcc,14,18,Woman,Right,
57,11,1,0.633287399999972,['n'],1,right,['2'],5,0.701568500000576,0.2,0,AccAcc,14,18,Woman,Right,
58,11,1,0.7504391000002215,['n'],1,right,['3'],4,0.7680669000001217,0.4,0,AccAcc,14,18,Woman,Right,
59,11,1,0.7160454999993817,['n'],0,left,['3'],4,0.8846775000001799,0.1,0,AccAcc,14,18,Woman,Right,
0,12,1,0.5338589000002685,['n'],1,right,['2'],5,1.5012831000003644,0.4,0,FastAcc,14,18,Woman,Right,
1,12,1,0.4671014000014111,['n'],0,left,['9'],2,1.3181675000014366,0.2,0,FastAcc,14,18,Woman,Right,
2,12,1,0.4503910999992513,['c'],0,right,['0'],1,1.0179717999999411,0.4,0,FastAcc,14,18,Woman,Right,
3,12,1,0.5006295000002865,['n'],0,left,['9'],2,1.9831181000008655,0.2,0,FastAcc,14,18,Woman,Right,
4,12,1,0.6156025000000227,['c'],1,left,['3'],4,1.3686288999997487,0.1,0,FastAcc,14,18,Woman,Right,
5,12,1,0.5339058000008663,['c'],1,left,['3'],4,0.6513314000003447,0.2,0,FastAcc,14,18,Woman,Right,
6,12,1,0.650467800000115,['n'],0,left,['8'],3,0.5335056000003533,0.1,0,FastAcc,14,18,Woman,Right,
7,12,1,0.6321000000007189,['n'],0,left,['8'],3,0.7839860999993107,0.1,0,FastAcc,14,18,Woman,Right,
8,12,1,0.6344408000004478,['n'],1,right,['8'],3,0.5846652000000176,0.4,0,FastAcc,14,18,Woman,Right,
9,12,1,0.7688705000000482,['n'],1,right,['8'],3,0.9002089000005071,0.1,0,FastAcc,14,18,Woman,Right,
10,12,1,0.7994732999995904,['c'],1,left,['3'],4,1.5520888999999443,0.2,0,FastAcc,14,18,Woman,Right,
11,12,1,0.7162420999993628,['n'],0,left,['9'],2,0.5677907999997842,0.1,0,FastAcc,14,18,Woman,Right,
12,12,1,0.6002174999994168,['c'],1,left,['3'],4,1.0514427999987674,0.4,0,FastAcc,14,18,Woman,Right,
13,12,1,0.5160097999996651,['n'],1,right,['3'],4,0.6522731999993994,0.4,0,FastAcc,14,18,Woman,Right,
14,12,1,0.5666772999993555,['n'],1,right,['3'],4,0.43465459999970335,0.1,0,FastAcc,14,18,Woman,Right,
15,12,1,0.5823700000000827,['n'],1,right,['2'],5,0.4524957000012364,0.4,0,FastAcc,14,18,Woman,Right,
16,12,1,0.9992837999998301,['c'],1,left,['3'],4,0.5178704999998445,0.2,0,FastAcc,14,18,Woman,Right,
17,12,1,0.6843350999988616,['n'],0,left,['8'],3,0.4856944000002841,0.1,0,FastAcc,14,18,Woman,Right,
18,12,1,0.5171808000013698,['n'],1,right,['3'],4,0.6013345999999729,0.2,0,FastAcc,14,18,Woman,Right,
19,12,1,0.8010494999998627,['c'],0,right,['8'],3,0.6180033000000549,0.1,0,FastAcc,14,18,Woman,Right,
20,12,1,0.6340824999988399,['c'],1,left,['3'],4,0.5175526000002719,0.4,0,FastAcc,14,18,Woman,Right,
21,12,1,0.5832970999999816,['n'],0,left,['9'],2,2.98455020000074,0.2,0,FastAcc,14,18,Woman,Right,
22,12,1,0.6166883000005328,['n'],1,right,['8'],3,0.41759280000042054,0.2,0,FastAcc,14,18,Woman,Right,
23,12,1,1.7669158999997308,['c'],1,left,['3'],4,0.3345149000015226,0.4,0,FastAcc,14,18,Woman,Right,
24,12,1,0.7498157999998512,['n'],1,right,['2'],5,1.5345758000003116,0.4,0,FastAcc,14,18,Woman,Right,
25,12,1,0.6834886999986338,['n'],1,right,['3'],4,0.5346752000004926,0.4,0,FastAcc,14,18,Woman,Right,
26,12,1,0.6012082999986887,['n'],1,right,['2'],5,1.7345094999982393,0.2,0,FastAcc,14,18,Woman,Right,
27,12,1,0.4844842000002245,['n'],1,right,['3'],4,1.2843787000001612,0.4,0,FastAcc,14,18,Woman,Right,
28,12,1,0.5668912000001001,['n'],1,right,['3'],4,1.6997685999995156,0.4,0,FastAcc,14,18,Woman,Right,
29,12,1,0.6672120000002906,['n'],1,right,['3'],4,0.284887499999968,0.1,0,FastAcc,14,18,Woman,Right,
30,12,1,0.7162912000003416,['n'],1,right,['3'],4,1.5176322000006621,0.2,0,FastAcc,14,18,Woman,Right,
31,12,1,0.916654099999505,['n'],0,left,['8'],3,1.684886600000027,0.1,0,FastAcc,14,18,Woman,Right,
32,12,1,0.5508317999992869,['n'],0,left,['8'],3,0.4013801999990392,0.1,0,FastAcc,14,18,Woman,Right,
33,12,1,0.4674363000012818,['n'],1,right,['2'],5,0.8680758999998943,0.4,0,FastAcc,14,18,Woman,Right,
34,12,1,0.5003433000001678,['n'],1,right,['3'],4,0.5347223999997368,0.1,0,FastAcc,14,18,Woman,Right,
35,12,1,0.5335830000003625,['n'],1,right,['3'],4,0.35142399999858753,0.2,0,FastAcc,14,18,Woman,Right,
36,12,1,0.6677388999996765,['n'],0,left,['3'],4,0.3514512999990984,0.1,0,FastAcc,14,18,Woman,Right,
37,12,1,0.5171802000004391,['n'],1,right,['3'],4,0.45123940000121365,0.4,0,FastAcc,14,18,Woman,Right,
38,12,1,0.9333069000003889,['c'],1,left,['3'],4,0.43445169999904465,0.2,0,FastAcc,14,18,Woman,Right,
39,12,1,0.6005155999991985,['n'],0,left,['8'],3,0.6680173999993713,0.2,0,FastAcc,14,18,Woman,Right,
40,12,1,0.5999121999993804,['n'],0,left,['8'],3,0.4681780000009894,0.2,0,FastAcc,14,18,Woman,Right,
41,12,1,0.5989151999983733,['n'],0,left,['8'],3,0.5019838999996864,0.1,0,FastAcc,14,18,Woman,Right,
42,12,1,0.6835222999998223,['c'],1,left,['8'],3,0.4515283000000636,0.1,0,FastAcc,14,18,Woman,Right,
43,12,1,0.6838559000007081,['c'],0,right,['8'],3,0.41806590000123833,0.1,0,FastAcc,14,18,Woman,Right,
44,12,1,0.7157688999996026,['n'],1,right,['8'],3,0.5188534999997501,0.4,0,FastAcc,14,18,Woman,Right,
45,12,1,0.4827320000003965,['n'],1,right,['8'],3,0.4189992000010534,0.1,0,FastAcc,14,18,Woman,Right,
46,12,1,0.8493416000001162,['c'],1,left,['3'],4,0.8013785999992251,0.4,0,FastAcc,14,18,Woman,Right,
47,12,1,0.750325499999235,['n'],1,right,['3'],4,0.4854899000001751,0.2,0,FastAcc,14,18,Woman,Right,
48,12,1,0.71552679999877,['n'],0,left,['3'],4,2.0005028000014136,0.2,0,FastAcc,14,18,Woman,Right,
49,12,1,0.550639000000956,['n'],0,left,['8'],3,0.634529000000839,0.1,0,FastAcc,14,18,Woman,Right,
50,12,1,0.7496547000009741,['n'],1,right,['3'],4,0.5021617999991577,0.2,0,FastAcc,14,18,Woman,Right,
51,12,1,0.9336671000000933,['n'],0,left,['8'],3,0.7672844000007899,0.1,0,FastAcc,14,18,Woman,Right,
52,12,1,0.967051800000263,['n'],1,right,['9'],2,3.584799300000668,0.2,0,FastAcc,14,18,Woman,Right,
53,12,1,0.68415559999994,['c'],1,left,['3'],4,1.3018503000002966,0.4,0,FastAcc,14,18,Woman,Right,
54,12,1,0.4173339999997552,['n'],0,left,['8'],3,0.8668785999998363,0.1,0,FastAcc,14,18,Woman,Right,
55,12,1,0.3680384999988746,['c'],1,left,['8'],3,0.7664473999993788,0.4,0,FastAcc,14,18,Woman,Right,
56,12,1,0.5024218999988079,['n'],0,left,['8'],3,1.9355296000012459,0.2,0,FastAcc,14,18,Woman,Right,
57,12,1,0.41725679999944987,['n'],1,right,['8'],3,0.901314499998989,0.2,0,FastAcc,14,18,Woman,Right,
58,12,1,0.5495196000010765,['n'],1,right,['3'],4,1.0352462999999261,0.4,0,FastAcc,14,18,Woman,Right,
59,12,1,0.4503459000006842,['n'],1,right,['3'],4,1.4680306000009296,0.4,0,FastAcc,14,18,Woman,Right,
0,13,1,0.40090049999889743,['n'],1,right,['8'],3,0.3505657000005158,0.1,0,FastFast,14,18,Woman,Right,
1,13,1,0.5164612000007764,['c'],0,right,['9'],2,0.76879419999932,0.2,0,FastFast,14,18,Woman,Right,
2,13,1,0.46828129999994417,['n'],1,right,['2'],5,0.6502352000006795,0.2,0,FastFast,14,18,Woman,Right,
3,13,1,0.46741169999950216,['n'],1,right,['2'],5,0.351407800000743,0.4,0,FastFast,14,18,Woman,Right,
4,13,1,0.4156766999985848,['n'],0,left,['9'],2,0.5833134000004065,0.4,0,FastFast,14,18,Woman,Right,
5,13,1,0.5168754999995144,['n'],0,left,['2'],5,0.3180536999989272,0.2,0,FastFast,14,18,Woman,Right,
6,13,1,0.33345029999873077,['n'],1,right,['9'],2,0.46823570000015025,0.1,0,FastFast,14,18,Woman,Right,
7,13,1,0.41654170000037993,['n'],1,right,['2'],5,0.43458579999969515,0.4,0,FastFast,14,18,Woman,Right,
8,13,1,0.4505203000007896,['n'],1,right,['2'],5,0.2514119000006758,0.4,0,FastFast,14,18,Woman,Right,
9,13,1,0.5004472000000533,['n'],0,left,['2'],5,0.25156539999989036,0.4,0,FastFast,14,18,Woman,Right,
10,13,1,0.4838744000007864,['n'],0,left,['9'],2,0.26794690000133414,0.1,0,FastFast,14,18,Woman,Right,
11,13,1,0.43424920000143175,['c'],1,left,['2'],5,0.5354776999993192,0.1,0,FastFast,14,18,Woman,Right,
12,13,1,0.5171004999992874,['n'],0,left,['2'],5,0.2521366000000853,0.2,0,FastFast,14,18,Woman,Right,
13,13,1,1.1665158999985579,['n'],1,right,['2'],5,0.9347622000004776,0.4,0,FastFast,14,18,Woman,Right,
14,13,1,0.4675153999996837,['n'],1,right,['2'],5,0.3013126000005286,0.2,0,FastFast,14,18,Woman,Right,
15,13,1,0.5831345999995392,['c'],0,right,['9'],2,0.35138999999981024,0.2,0,FastFast,14,18,Woman,Right,
16,13,1,0.5674263000000792,['c'],1,left,['2'],5,0.251491499999247,0.2,0,FastFast,14,18,Woman,Right,
17,13,1,0.6013210999990406,['c'],1,left,['2'],5,0.23410900000089896,0.1,0,FastFast,14,18,Woman,Right,
18,13,1,0.5004648999984056,['n'],1,right,['3'],4,0.26795510000010836,0.4,0,FastFast,14,18,Woman,Right,
19,13,1,0.44973709999976563,['n'],0,left,['2'],5,0.3998455999990256,0.2,0,FastFast,14,18,Woman,Right,
20,13,1,0.5676039999998466,['n'],1,right,['9'],2,0.4175405999994837,0.2,0,FastFast,14,18,Woman,Right,
21,13,1,0.45076920000065,['n'],0,left,['8'],3,0.4010585000014544,0.1,0,FastFast,14,18,Woman,Right,
22,13,1,0.4002333999997063,['n'],0,left,['8'],3,0.41801610000038636,0.1,0,FastFast,14,18,Woman,Right,
23,13,1,0.40048769999884826,['n'],0,left,['8'],3,0.35117819999868516,0.2,0,FastFast,14,18,Woman,Right,
24,13,1,0.3502379000001383,['n'],0,left,['3'],4,0.21789440000065952,0.4,0,FastFast,14,18,Woman,Right,
25,13,1,0.5011824000011984,['n'],0,left,['3'],4,0.2014363999987836,0.2,0,FastFast,14,18,Woman,Right,
26,13,1,0.3843544999999722,['n'],1,right,['2'],5,0.2016488000008394,0.1,0,FastFast,14,18,Woman,Right,
27,13,1,1.0836889000001975,['c'],1,left,['2'],5,0.31798239999989164,0.4,0,FastFast,14,18,Woman,Right,
28,13,1,0.4837850999992952,['n'],1,right,['8'],3,0.3681703000002017,0.2,0,FastFast,14,18,Woman,Right,
29,13,1,0.4503655999997136,['n'],0,left,['8'],3,0.3345664000007673,0.1,0,FastFast,14,18,Woman,Right,
30,13,1,0.5339987000006658,['n'],0,left,['8'],3,0.28464960000019346,0.1,0,FastFast,14,18,Woman,Right,
31,13,1,0.5336747000001196,['n'],1,right,['8'],3,0.3513165000003937,0.2,0,FastFast,14,18,Woman,Right,
32,13,1,0.6505405999996583,['n'],1,right,['8'],3,0.3845989000001282,0.1,0,FastFast,14,18,Woman,Right,
33,13,1,0.6509542000003421,['n'],1,right,['8'],3,0.30065429999922344,0.4,0,FastFast,14,18,Woman,Right,
34,13,1,0.45003039999937755,['n'],1,right,['8'],3,0.25148239999907673,0.2,0,FastFast,14,18,Woman,Right,
35,13,1,0.3333170000005339,['n'],0,left,['8'],3,0.2841539000000921,0.1,0,FastFast,14,18,Woman,Right,
36,13,1,0.4339561999986472,['n'],1,right,['8'],3,0.30133569999998144,0.4,0,FastFast,14,18,Woman,Right,
37,13,1,0.5343652999999904,['c'],1,left,['3'],4,0.5180104000010033,0.1,0,FastFast,14,18,Woman,Right,
38,13,1,0.4331144999996468,['n'],0,left,['8'],3,0.2686267000008229,0.2,0,FastFast,14,18,Woman,Right,
39,13,1,0.3831945000001724,['n'],0,left,['2'],5,0.45078620000094816,0.4,0,FastFast,14,18,Woman,Right,
40,13,1,0.4828655000001163,['n'],0,left,['8'],3,0.20189810000010766,0.1,0,FastFast,14,18,Woman,Right,
41,13,1,0.43418190000011236,['c'],1,left,['3'],4,0.2515079999993759,0.1,0,FastFast,14,18,Woman,Right,
42,13,1,0.36689599999954225,['c'],0,right,['3'],4,0.18452740000066115,0.1,0,FastFast,14,18,Woman,Right,
43,13,1,0.48395669999990787,['c'],1,left,['3'],4,0.5513829000010446,0.4,0,FastFast,14,18,Woman,Right,
44,13,1,0.5345047999999224,['c'],1,left,['3'],4,0.30142239999986487,0.1,0,FastFast,14,18,Woman,Right,
45,13,1,0.48321860000032757,['n'],0,left,['8'],3,0.2512502999998105,0.1,0,FastFast,14,18,Woman,Right,
46,13,1,0.4670846999997593,['n'],1,right,['2'],5,0.40023629999996047,0.2,0,FastFast,14,18,Woman,Right,
47,13,1,0.45026139999936277,['n'],0,left,['3'],4,0.30063519999930577,0.2,0,FastFast,14,18,Woman,Right,
48,13,1,0.517407600000297,['c'],0,right,['8'],3,0.5526211999986117,0.1,0,FastFast,14,18,Woman,Right,
49,13,1,0.4008345999991434,['n'],1,right,['9'],2,0.283965900000112,0.2,0,FastFast,14,18,Woman,Right,
50,13,1,0.3491630000007717,['n'],1,right,['9'],2,0.318984300000011,0.4,0,FastFast,14,18,Woman,Right,
51,13,1,0.4508401999992202,['n'],0,left,['9'],2,0.23506909999923664,0.1,0,FastFast,14,18,Woman,Right,
52,13,1,0.4003125999988697,['n'],1,right,['8'],3,0.2515137999998842,0.2,0,FastFast,14,18,Woman,Right,
53,13,1,0.7831607999996777,['n'],1,right,['2'],5,1.7348447000003944,0.4,0,FastFast,14,18,Woman,Right,
54,13,1,0.5319290999996156,['n'],1,right,['9'],2,0.23398550000092655,0.2,0,FastFast,14,18,Woman,Right,
55,13,1,0.33295560000078694,['n'],0,left,['8'],3,0.18407289999959175,0.4,0,FastFast,14,18,Woman,Right,
56,13,1,0.568247600000177,['n'],0,left,['9'],2,1.0334517999999662,0.4,0,FastFast,14,18,Woman,Right,
57,13,1,0.4998111999993853,['n'],1,right,['2'],5,0.9852599999994709,0.4,0,FastFast,14,18,Woman,Right,
58,13,1,0.4835317000015493,['n'],1,right,['2'],5,0.3013746999986324,0.4,0,FastFast,14,18,Woman,Right,
59,13,1,0.550356699999611,['n'],1,right,['2'],5,0.41811000000052445,0.4,0,FastFast,14,18,Woman,Right,
0,14,1,0.9345759999996517,['n'],1,right,['2'],5,0.5674311999991914,0.4,0,AccFast,14,18,Woman,Right,
1,14,1,2.033689800000502,['n'],0,left,['3'],4,0.7513720999995712,0.2,0,AccFast,14,18,Woman,Right,
2,14,1,1.1004395999989356,['n'],0,left,['3'],4,0.968398499999239,0.1,0,AccFast,14,18,Woman,Right,
3,14,1,0.6846328999999969,['c'],1,left,['3'],4,0.30141229999935604,0.2,0,AccFast,14,18,Woman,Right,
4,14,1,0.6169749000000593,['n'],1,right,['2'],5,0.21641789999921457,0.2,0,AccFast,14,18,Woman,Right,
5,14,1,0.6006908999988809,['n'],0,left,['3'],4,0.23419909999938682,0.1,0,AccFast,14,18,Woman,Right,
6,14,1,0.7341790999998921,['c'],1,left,['2'],5,0.41814069999963976,0.4,0,AccFast,14,18,Woman,Right,
7,14,1,0.566943399999218,['n'],1,right,['2'],5,0.16816190000099596,0.1,0,AccFast,14,18,Woman,Right,
8,14,1,0.650361799998791,['n'],1,right,['2'],5,0.18463639999936277,0.4,0,AccFast,14,18,Woman,Right,
9,14,1,0.6831741999994847,['n'],1,right,['2'],5,0.1680660000001808,0.2,0,AccFast,14,18,Woman,Right,
10,14,1,1.149948599999334,['c'],1,left,['3'],4,0.5333587999994052,0.2,0,AccFast,14,18,Woman,Right,
11,14,1,0.5330436000003829,['n'],1,right,['2'],5,0.1853804999991553,0.2,0,AccFast,14,18,Woman,Right,
12,14,1,0.7159922999999253,['n'],0,left,['3'],4,0.235420900000463,0.1,0,AccFast,14,18,Woman,Right,
13,14,1,0.516272900000331,['n'],0,left,['2'],5,0.2515306999994209,0.2,0,AccFast,14,18,Woman,Right,
14,14,1,0.4518694999987929,['n'],0,left,['3'],4,0.2681405999992421,0.1,0,AccFast,14,18,Woman,Right,
15,14,1,0.4836028999998234,['c'],1,left,['3'],4,0.318138500000714,0.2,0,AccFast,14,18,Woman,Right,
16,14,1,2.133815200000754,['n'],0,left,['3'],4,0.5498607000008633,0.2,0,AccFast,14,18,Woman,Right,
17,14,1,0.5163348999994923,['n'],0,left,['3'],4,0.3166565999999875,0.2,0,AccFast,14,18,Woman,Right,
18,14,1,0.6182836999996653,['n'],1,right,['3'],4,0.5835243000001356,0.2,0,AccFast,14,18,Woman,Right,
19,14,1,0.4831688000012946,['n'],1,right,['8'],3,0.3343213000007381,0.2,0,AccFast,14,18,Woman,Right,
20,14,1,0.38378779999948165,['n'],1,right,['2'],5,0.2679664999996021,0.1,0,AccFast,14,18,Woman,Right,
21,14,1,0.41765140000097745,['n'],0,left,['8'],3,0.6014419000002817,0.4,0,AccFast,14,18,Woman,Right,
22,14,1,0.4503146999995806,['n'],1,right,['2'],5,0.5170206000002509,0.4,0,AccFast,14,18,Woman,Right,
23,14,1,0.4497764999996434,['n'],1,right,['2'],5,0.31812429999990854,0.4,0,AccFast,14,18,Woman,Right,
24,14,1,0.4985973999991984,['n'],1,right,['3'],4,0.30230679999840504,0.1,0,AccFast,14,18,Woman,Right,
25,14,1,0.6838306999998167,['c'],1,left,['3'],4,0.3341835000010178,0.4,0,AccFast,14,18,Woman,Right,
26,14,1,0.4338045000004058,['n'],0,left,['3'],4,0.40050410000003467,0.4,0,AccFast,14,18,Woman,Right,
27,14,1,0.4500578000006499,['n'],0,left,['3'],4,0.2174654999998893,0.1,0,AccFast,14,18,Woman,Right,
28,14,1,0.4347408000012365,['n'],1,right,['3'],4,0.2326543999988644,0.1,0,AccFast,14,18,Woman,Right,
29,14,1,0.41715540000041074,['n'],1,right,['8'],3,0.302489700001388,0.1,0,AccFast,14,18,Woman,Right,
30,14,1,0.4340455000001384,['n'],1,right,['3'],4,0.9179862999990291,0.4,0,AccFast,14,18,Woman,Right,
31,14,1,0.41610709999986284,['n'],0,left,['8'],3,0.2517587000002095,0.2,0,AccFast,14,18,Woman,Right,
32,14,1,0.8009858000004897,['n'],0,left,['9'],2,2.2329548000016075,0.1,0,AccFast,14,18,Woman,Right,
33,14,1,0.5334299999994982,['n'],0,left,['8'],3,0.2516305999997712,0.2,0,AccFast,14,18,Woman,Right,
34,14,1,1.4334825000005367,['n'],0,left,['8'],3,0.28481359999932465,0.1,0,AccFast,14,18,Woman,Right,
35,14,1,0.7673698999988119,['n'],1,right,['3'],4,0.1835014999996929,0.4,0,AccFast,14,18,Woman,Right,
36,14,1,0.5842443000001367,['c'],1,left,['2'],5,0.26751270000022487,0.4,0,AccFast,14,18,Woman,Right,
37,14,1,0.465762599998925,['n'],1,right,['3'],4,0.23473920000105863,0.1,0,AccFast,14,18,Woman,Right,
38,14,1,0.40076419999968493,['c'],0,right,['8'],3,1.3509111999992456,0.1,0,AccFast,14,18,Woman,Right,
39,14,1,0.6165791000003082,['c'],0,right,['3'],4,0.23529010000129347,0.1,0,AccFast,14,18,Woman,Right,
40,14,1,0.383931999998822,['n'],0,left,['9'],2,0.2180702999994537,0.1,0,AccFast,14,18,Woman,Right,
41,14,1,0.4499867999984417,['n'],1,right,['2'],5,0.8017626000000746,0.2,0,AccFast,14,18,Woman,Right,
42,14,1,0.4826498000002175,['n'],0,left,['8'],3,0.68565899999885,0.4,0,AccFast,14,18,Woman,Right,
43,14,1,0.6336652000009053,['c'],1,left,['3'],4,0.2677601000013965,0.4,0,AccFast,14,18,Woman,Right,
44,14,1,0.43340729999908945,['n'],1,right,['2'],5,0.33454119999987597,0.4,0,AccFast,14,18,Woman,Right,
45,14,1,1.3832094999997935,['n'],1,right,['3'],4,0.4679469999991852,0.1,0,AccFast,14,18,Woman,Right,
46,14,1,0.6326024999998481,['n'],1,right,['2'],5,0.25206640000033076,0.4,0,AccFast,14,18,Woman,Right,
47,14,1,1.5668753999998444,['n'],1,right,['9'],2,0.23424939999858907,0.1,0,AccFast,14,18,Woman,Right,
48,14,1,1.4170830999992177,['c'],1,left,['3'],4,0.23473209999974642,0.4,0,AccFast,14,18,Woman,Right,
49,14,1,1.0495705000012094,['n'],0,left,['8'],3,0.2512611000001925,0.2,0,AccFast,14,18,Woman,Right,
50,14,1,0.5675062999998772,['n'],1,right,['2'],5,0.251130300001023,0.4,0,AccFast,14,18,Woman,Right,
51,14,1,1.5337226999999984,['n'],0,left,['3'],4,0.23409360000005108,0.2,0,AccFast,14,18,Woman,Right,
52,14,1,0.751587800001289,['n'],1,right,['1'],6,0.3681330999988859,0.4,0,AccFast,14,18,Woman,Right,
53,14,1,0.5669006000007357,['n'],1,right,['1'],6,0.1681578999996418,0.4,0,AccFast,14,18,Woman,Right,
54,14,1,2.1500030999995943,['n'],1,right,['3'],4,0.26812210000025516,0.1,0,AccFast,14,18,Woman,Right,
55,14,1,0.7012050000012096,['n'],1,right,['8'],3,0.1845618999996077,0.1,0,AccFast,14,18,Woman,Right,
56,14,1,2.033628700000918,['n'],0,left,['8'],3,0.21816620000026887,0.4,0,AccFast,14,18,Woman,Right,
57,14,1,1.0003169999999955,['n'],0,left,['1'],6,0.2504538000011962,0.2,0,AccFast,14,18,Woman,Right,
58,14,1,0.9007492999990063,['n'],0,left,['8'],3,0.2348390000006475,0.2,0,AccFast,14,18,Woman,Right,
59,14,1,0.5508466999999655,['n'],1,right,['8'],3,0.23474999999962165,0.2,0,AccFast,14,18,Woman,Right,
0,15,1,2.2845689999994647,['c'],1,left,['3'],4,1.5507080999996106,0.2,0,AccAcc,14,18,Woman,Right,
1,15,1,0.5676937000007456,['n'],1,right,['8'],3,0.48491269999976794,0.1,0,AccAcc,14,18,Woman,Right,
2,15,1,1.0660828000000038,['n'],0,left,['8'],3,0.5015508999986196,0.1,0,AccAcc,14,18,Woman,Right,
3,15,1,0.833268099999259,['n'],1,right,['8'],3,0.368271299999833,0.1,0,AccAcc,14,18,Woman,Right,
4,15,1,0.6837918999990507,['n'],1,right,['8'],3,0.3847931999989669,0.4,0,AccAcc,14,18,Woman,Right,
5,15,1,0.6170032999998512,['n'],1,right,['2'],5,0.5849453000009817,0.4,0,AccAcc,14,18,Woman,Right,
6,15,1,0.5491753999995126,['n'],1,right,['2'],5,0.3690950000000157,0.4,0,AccAcc,14,18,Woman,Right,
7,15,1,0.6338180000002467,['n'],0,left,['0'],1,1.7845715999992535,0.4,0,AccAcc,14,18,Woman,Right,
8,15,1,0.7008552999996027,['c'],1,left,['2'],5,1.9844224999997095,0.4,0,AccAcc,14,18,Woman,Right,
9,15,1,0.5992186999992555,['n'],1,right,['1'],6,0.4188685999997688,0.4,0,AccAcc,14,18,Woman,Right,
10,15,1,1.6668454999999085,['n'],1,right,['2'],5,0.6848150000005262,0.1,0,AccAcc,14,18,Woman,Right,
11,15,1,0.666582700001527,['n'],1,right,['3'],4,0.3845272999988083,0.1,0,AccAcc,14,18,Woman,Right,
12,15,1,0.6662691999990784,['n'],1,right,['3'],4,0.5517359999994369,0.4,0,AccAcc,14,18,Woman,Right,
13,15,1,0.7004304000001866,['n'],1,right,['3'],4,0.33462320000035106,0.4,0,AccAcc,14,18,Woman,Right,
14,15,1,0.9839355000003707,['n'],0,left,['8'],3,0.6674347999996826,0.4,0,AccAcc,14,18,Woman,Right,
15,15,1,0.5842278999989503,['n'],1,right,['8'],3,0.5679683999987901,0.1,0,AccAcc,14,18,Woman,Right,
16,15,1,0.7172545000012178,['c'],1,left,['3'],4,0.41819269999905373,0.4,0,AccAcc,14,18,Woman,Right,
17,15,1,0.8168712999995478,['c'],1,left,['8'],3,0.5511867999994138,0.4,0,AccAcc,14,18,Woman,Right,
18,15,1,0.5011955999998463,['n'],1,right,['2'],5,0.5515871000006882,0.4,0,AccAcc,14,18,Woman,Right,
19,15,1,0.7827385000000504,['n'],1,right,['3'],4,0.45165629999974044,0.2,0,AccAcc,14,18,Woman,Right,
20,15,1,0.6333758000000671,['n'],1,right,['8'],3,0.4513177999997424,0.2,0,AccAcc,14,18,Woman,Right,
21,15,1,0.817159600001105,['n'],0,left,['8'],3,0.43454620000011346,0.2,0,AccAcc,14,18,Woman,Right,
22,15,1,0.6337746000008337,['n'],1,right,['8'],3,0.4847748000011052,0.1,0,AccAcc,14,18,Woman,Right,
23,15,1,0.7673134000015125,['n'],0,left,['8'],3,0.4182588999992731,0.2,0,AccAcc,14,18,Woman,Right,
24,15,1,0.4668091000003187,['n'],1,right,['9'],2,0.46776860000136367,0.1,0,AccAcc,14,18,Woman,Right,
25,15,1,0.6504408000000694,['n'],0,left,['9'],2,0.38548290000107954,0.2,0,AccAcc,14,18,Woman,Right,
26,15,1,0.832886199999848,['n'],1,right,['1'],6,1.216874600000665,0.4,0,AccAcc,14,18,Woman,Right,
27,15,1,0.7005312999990565,['n'],1,right,['8'],3,0.5348248000009335,0.1,0,AccAcc,14,18,Woman,Right,
28,15,1,1.8840620999999373,['n'],0,left,['3'],4,0.8013002999996388,0.2,0,AccAcc,14,18,Woman,Right,
29,15,1,1.633519700000761,['c'],1,left,['3'],4,0.8680388999982824,0.2,0,AccAcc,14,18,Woman,Right,
30,15,1,2.283534199999849,['n'],0,left,['8'],3,0.6851174000003084,0.1,0,AccAcc,14,18,Woman,Right,
31,15,1,0.8669133999992482,['n'],0,left,['8'],3,0.5675095999995392,0.2,0,AccAcc,14,18,Woman,Right,
32,15,1,0.7002627999991091,['n'],0,left,['8'],3,0.834649200000058,0.4,0,AccAcc,14,18,Woman,Right,
33,15,1,0.8155877999997756,['n'],1,right,['2'],5,1.0523816000004445,0.4,0,AccAcc,14,18,Woman,Right,
34,15,1,1.2482075999996596,['n'],1,right,['8'],3,0.33410279999952763,0.1,0,AccAcc,14,18,Woman,Right,
35,15,1,1.1351424000004045,['c'],1,left,['8'],3,0.46651229999952193,0.1,0,AccAcc,14,18,Woman,Right,
36,15,1,0.6673553000000538,['n'],1,right,['8'],3,0.5176922999999078,0.1,0,AccAcc,14,18,Woman,Right,
37,15,1,0.7501788000008673,['n'],1,right,['9'],2,0.5681270999994013,0.1,0,AccAcc,14,18,Woman,Right,
38,15,1,1.133965499999249,['n'],0,left,['8'],3,0.5842510000002221,0.2,0,AccAcc,14,18,Woman,Right,
39,15,1,0.9995679999992717,['n'],0,left,['8'],3,0.7683707999985927,0.1,0,AccAcc,14,18,Woman,Right,
40,15,1,1.2008979000002,['n'],1,right,['3'],4,1.017956099998628,0.1,0,AccAcc,14,18,Woman,Right,
41,15,1,0.7156276000005164,['n'],0,left,['8'],3,0.7353308000001562,0.2,0,AccAcc,14,18,Woman,Right,
42,15,1,0.9670035999988613,['n'],0,left,['8'],3,0.48462859999926877,0.2,0,AccAcc,14,18,Woman,Right,
43,15,1,0.6502912000014476,['n'],0,left,['8'],3,0.38472940000065137,0.2,0,AccAcc,14,18,Woman,Right,
44,15,1,0.9167925999990985,['c'],1,left,['3'],4,0.6348065000001952,0.4,0,AccAcc,14,18,Woman,Right,
45,15,1,0.6671370999993087,['n'],1,right,['3'],4,0.6012651000000915,0.2,0,AccAcc,14,18,Woman,Right,
46,15,1,0.9338270999996894,['n'],1,right,['8'],3,0.46731200000067474,0.1,0,AccAcc,14,18,Woman,Right,
47,15,1,0.6505263999988529,['n'],1,right,['2'],5,0.4679011000007449,0.4,0,AccAcc,14,18,Woman,Right,
48,15,1,0.5497648000000481,['n'],1,right,['3'],4,0.41789840000092227,0.2,0,AccAcc,14,18,Woman,Right,
49,15,1,1.8510513999990508,['n'],1,right,['8'],3,0.5680123000001913,0.1,0,AccAcc,14,18,Woman,Right,
50,15,1,2.0502658000004885,['n'],0,left,['8'],3,0.5013684000005014,0.2,0,AccAcc,14,18,Woman,Right,
51,15,1,0.6672128999998677,['n'],0,left,['8'],3,0.4012317999986408,0.1,0,AccAcc,14,18,Woman,Right,
52,15,1,0.6178676999988966,['n'],1,right,['2'],5,0.8348105999994004,0.4,0,AccAcc,14,18,Woman,Right,
53,15,1,0.6001118000003771,['n'],0,left,['9'],2,0.40123400000084075,0.2,0,AccAcc,14,18,Woman,Right,
54,15,1,0.6002855000006093,['n'],0,left,['8'],3,0.33450249999987136,0.1,0,AccAcc,14,18,Woman,Right,
55,15,1,0.7335294000004069,['n'],1,right,['2'],5,0.8678913000003377,0.2,0,AccAcc,14,18,Woman,Right,
56,15,1,1.1169802999993408,['c'],1,left,['3'],4,1.3345794000015303,0.4,0,AccAcc,14,18,Woman,Right,
57,15,1,0.7835389000010764,['n'],0,left,['3'],4,0.7678362000006018,0.2,0,AccAcc,14,18,Woman,Right,
58,15,1,1.0005098000001453,['c'],1,left,['3'],4,1.3180704999995214,0.2,0,AccAcc,14,18,Woman,Right,
59,15,1,0.717894499999602,['c'],1,left,['3'],4,0.5841497000001254,0.4,0,AccAcc,14,18,Woman,Right,
