withinblocktrial,block,block_repetition,rt,resp,cor,cresp,conf_press,cj,rtconf,coherence,slow_trial,manipulation,sub,age,gender,handedness,
0,1,1,2.1505200000001423,['n'],1,right,none,-99,-99,0.5,0,none,37,18,Woman,Right,
1,1,1,0.7171821000001728,['c'],1,left,none,-99,-99,0.5,0,none,37,18,Woman,Right,
2,1,1,0.5329459000004135,['c'],1,left,none,-99,-99,0.5,0,none,37,18,Woman,Right,
3,1,1,0.5183761999996932,['n'],1,right,none,-99,-99,0.5,0,none,37,18,Woman,Right,
4,1,1,0.5345583000007537,['c'],1,left,none,-99,-99,0.5,0,none,37,18,Woman,Right,
5,1,1,0.4825590000000375,['n'],1,right,none,-99,-99,0.5,0,none,37,18,Woman,Right,
6,1,1,0.4676884999998947,['n'],1,right,none,-99,-99,0.5,0,none,37,18,Woman,Right,
7,1,1,0.6177413999994315,['c'],1,left,none,-99,-99,0.5,0,none,37,18,Woman,Right,
8,1,1,0.6012431000008291,['c'],1,left,none,-99,-99,0.5,0,none,37,18,Woman,Right,
9,1,1,0.41822859999956563,['c'],1,left,none,-99,-99,0.5,0,none,37,18,Woman,Right,
10,1,1,0.4998667999998361,['c'],1,left,none,-99,-99,0.5,0,none,37,18,Woman,Right,
11,1,1,0.584556299999349,['n'],1,right,none,-99,-99,0.5,0,none,37,18,Woman,Right,
12,1,1,0.48346549999951094,['n'],1,right,none,-99,-99,0.5,0,none,37,18,Woman,Right,
13,1,1,0.5993089000003238,['c'],1,left,none,-99,-99,0.5,0,none,37,18,Woman,Right,
14,1,1,0.4503335999997944,['n'],1,right,none,-99,-99,0.5,0,none,37,18,Woman,Right,
15,1,1,0.5343698999995468,['n'],1,right,none,-99,-99,0.5,0,none,37,18,Woman,Right,
16,1,1,0.5999359999996159,['n'],1,right,none,-99,-99,0.5,0,none,37,18,Woman,Right,
17,1,1,0.4684688000006645,['n'],1,right,none,-99,-99,0.5,0,none,37,18,Woman,Right,
18,1,1,0.4173006000000896,['c'],1,left,none,-99,-99,0.5,0,none,37,18,Woman,Right,
19,1,1,0.5183371000002808,['c'],1,left,none,-99,-99,0.5,0,none,37,18,Woman,Right,
20,1,1,0.4839676999999938,['n'],1,right,none,-99,-99,0.5,0,none,37,18,Woman,Right,
21,1,1,0.4671591999995144,['c'],1,left,none,-99,-99,0.5,0,none,37,18,Woman,Right,
22,1,1,0.46605040000031295,['n'],1,right,none,-99,-99,0.5,0,none,37,18,Woman,Right,
23,1,1,0.4834666999995534,['c'],1,left,none,-99,-99,0.5,0,none,37,18,Woman,Right,
0,2,1,0.9671768000007432,['n'],1,right,none,-99,-99,0.1,0,none,37,18,Woman,Right,
1,2,1,0.5675683999998,['c'],0,right,none,-99,-99,0.1,0,none,37,18,Woman,Right,
2,2,1,0.5833830999999918,['c'],1,left,none,-99,-99,0.2,0,none,37,18,Woman,Right,
3,2,1,0.517207399999279,['c'],1,left,none,-99,-99,0.1,0,none,37,18,Woman,Right,
4,2,1,0.4843161999997392,['c'],1,left,none,-99,-99,0.2,0,none,37,18,Woman,Right,
5,2,1,0.45132139999986975,['c'],1,left,none,-99,-99,0.4,0,none,37,18,Woman,Right,
6,2,1,0.6501526000001832,['n'],1,right,none,-99,-99,0.1,0,none,37,18,Woman,Right,
7,2,1,0.44965310000043246,['n'],1,right,none,-99,-99,0.1,0,none,37,18,Woman,Right,
8,2,1,0.517414099999769,['c'],1,left,none,-99,-99,0.2,0,none,37,18,Woman,Right,
9,2,1,0.4663394999997763,['n'],1,right,none,-99,-99,0.2,0,none,37,18,Woman,Right,
10,2,1,0.4003111000001809,['c'],1,left,none,-99,-99,0.2,0,none,37,18,Woman,Right,
11,2,1,0.384465199999795,['c'],1,left,none,-99,-99,0.2,0,none,37,18,Woman,Right,
12,2,1,0.4831547000003411,['c'],1,left,none,-99,-99,0.1,0,none,37,18,Woman,Right,
13,2,1,0.5185997999997198,['c'],1,left,none,-99,-99,0.4,0,none,37,18,Woman,Right,
14,2,1,0.5165664000005563,['c'],1,left,none,-99,-99,0.4,0,none,37,18,Woman,Right,
15,2,1,1.1339312999998583,['n'],1,right,none,-99,-99,0.2,0,none,37,18,Woman,Right,
16,2,1,0.6519669999997859,['n'],1,right,none,-99,-99,0.4,0,none,37,18,Woman,Right,
17,2,1,0.4690627999998469,['n'],1,right,none,-99,-99,0.4,0,none,37,18,Woman,Right,
18,2,1,0.5006349000004775,['n'],1,right,none,-99,-99,0.4,0,none,37,18,Woman,Right,
19,2,1,0.5173988999995345,['n'],1,right,none,-99,-99,0.4,0,none,37,18,Woman,Right,
20,2,1,0.4833683999995628,['c'],1,left,none,-99,-99,0.1,0,none,37,18,Woman,Right,
21,2,1,0.5166468999996141,['c'],1,left,none,-99,-99,0.4,0,none,37,18,Woman,Right,
22,2,1,0.6170479999991585,['n'],1,right,none,-99,-99,0.2,0,none,37,18,Woman,Right,
23,2,1,0.6832782999999836,['c'],0,right,none,-99,-99,0.1,0,none,37,18,Woman,Right,
0,3,1,0.9351935000004232,['n'],1,right,['9'],5,2.0677177999996275,0.4,0,none,37,18,Woman,Right,
1,3,1,2.7004904999994324,['c'],1,left,['0'],6,1.966093600000022,0.2,0,none,37,18,Woman,Right,
2,3,1,1.4165563999995356,['n'],1,right,['3'],3,3.1848277999997663,0.1,0,none,37,18,Woman,Right,
3,3,1,0.8507829999998648,['c'],1,left,['0'],6,1.0175008000005619,0.4,0,none,37,18,Woman,Right,
4,3,1,1.0839304000000993,['c'],1,left,['0'],6,0.8182153999996444,0.2,0,none,37,18,Woman,Right,
5,3,1,0.5992117000005237,['n'],1,right,['0'],6,0.45197229999939736,0.2,0,none,37,18,Woman,Right,
6,3,1,0.71613139999954,['n'],1,right,['0'],6,0.4855097999998179,0.4,0,none,37,18,Woman,Right,
7,3,1,0.9012554999999338,['c'],1,left,['1'],1,1.3011489999998958,0.1,0,none,37,18,Woman,Right,
8,3,1,3.0502692000000025,['n'],0,left,['2'],2,2.018229300000712,0.1,0,none,37,18,Woman,Right,
9,3,1,1.966295799999898,['c'],0,right,['3'],3,1.8832720000000336,0.1,0,none,37,18,Woman,Right,
10,3,1,0.5832731999998941,['n'],1,right,['0'],6,1.334961000000476,0.4,0,none,37,18,Woman,Right,
11,3,1,0.7505565000001297,['c'],1,left,['0'],6,0.8513474000001224,0.1,0,none,37,18,Woman,Right,
12,3,1,2.0004345999996076,['n'],1,right,['0'],6,0.3844210999995994,0.1,0,none,37,18,Woman,Right,
13,3,1,0.9671739999994315,['n'],1,right,['0'],6,0.40152969999962806,0.2,0,none,37,18,Woman,Right,
14,3,1,0.5674350999997841,['c'],1,left,['0'],6,0.8846751999999469,0.2,0,none,37,18,Woman,Right,
15,3,1,0.8506251999997403,['c'],1,left,['0'],6,0.36666650000006484,0.4,0,none,37,18,Woman,Right,
16,3,1,1.5015867999991315,['n'],1,right,['8'],4,2.4343372000003,0.2,0,none,37,18,Woman,Right,
17,3,1,1.0174892000004547,['n'],1,right,['8'],4,0.45201949999955104,0.4,0,none,37,18,Woman,Right,
18,3,1,1.6004437999999936,['c'],1,left,['8'],4,1.784623499999725,0.1,0,none,37,18,Woman,Right,
19,3,1,0.8506234999995286,['n'],1,right,['8'],4,0.5181093000001056,0.2,0,none,37,18,Woman,Right,
20,3,1,0.6675404999996317,['c'],1,left,['0'],6,0.6346299999995608,0.4,0,none,37,18,Woman,Right,
21,3,1,2.300271499999326,['c'],1,left,['2'],2,1.5347695000000385,0.2,0,none,37,18,Woman,Right,
22,3,1,0.7658757999997761,['n'],0,left,['3'],3,1.0180821000003561,0.1,0,none,37,18,Woman,Right,
23,3,1,0.7485599999999977,['n'],1,right,['0'],6,0.3862033000004885,0.4,0,none,37,18,Woman,Right,
0,4,1,1.0831432000004497,['n'],0,left,['0'],6,0.7355015999992247,0.1,0,AccFast,37,18,Woman,Right,
1,4,1,1.1503144999996948,['c'],1,left,['3'],3,0.6515557000002445,0.1,0,AccFast,37,18,Woman,Right,
2,4,1,1.3670972999998412,['c'],1,left,['9'],5,0.7345900000000256,0.2,0,AccFast,37,18,Woman,Right,
3,4,1,0.8826161000006323,['n'],1,right,['0'],6,0.43504679999932705,0.1,0,AccFast,37,18,Woman,Right,
4,4,1,1.2832209999996849,['c'],1,left,['8'],4,0.6667965000006006,0.2,0,AccFast,37,18,Woman,Right,
5,4,1,1.1326223999994909,['c'],1,left,['0'],6,0.5163693000004059,0.1,0,AccFast,37,18,Woman,Right,
6,4,1,1.1512447000004613,['c'],1,left,['3'],3,1.0013362999998208,0.1,0,AccFast,37,18,Woman,Right,
7,4,1,0.6831612000005407,['c'],0,right,['3'],3,0.334040400000049,0.2,0,AccFast,37,18,Woman,Right,
8,4,1,1.1836069999999381,['n'],0,left,['8'],4,0.7847703000006732,0.1,0,AccFast,37,18,Woman,Right,
9,4,1,1.4338549000003695,['n'],0,left,['9'],5,0.9180126999999629,0.4,0,AccFast,37,18,Woman,Right,
10,4,1,1.0846016000004965,['n'],1,right,['0'],6,0.7164683999999397,0.2,0,AccFast,37,18,Woman,Right,
11,4,1,0.9674660999999105,['n'],1,right,['0'],6,0.3180635999997321,0.2,0,AccFast,37,18,Woman,Right,
12,4,1,0.8838213999997606,['n'],1,right,['0'],6,0.251277399999708,0.2,0,AccFast,37,18,Woman,Right,
13,4,1,0.4839223999997557,['c'],1,left,['0'],6,0.3843426000003092,0.4,0,AccFast,37,18,Woman,Right,
14,4,1,0.9161364000001413,['c'],1,left,['0'],6,0.2694549999996525,0.2,0,AccFast,37,18,Woman,Right,
15,4,1,1.8339277000004586,['c'],1,left,['9'],5,0.335393500000464,0.4,0,AccFast,37,18,Woman,Right,
16,4,1,1.9311046000002534,['n'],0,left,['0'],6,0.33588529999997263,0.1,0,AccFast,37,18,Woman,Right,
17,4,1,1.1675223000002006,['n'],1,right,['0'],6,0.25139930000023014,0.2,0,AccFast,37,18,Woman,Right,
18,4,1,1.533828800000265,['c'],1,left,['2'],2,0.2846986000004108,0.1,0,AccFast,37,18,Woman,Right,
19,4,1,1.3006611000000703,['n'],1,right,['0'],6,0.25157900000067457,0.4,0,AccFast,37,18,Woman,Right,
20,4,1,0.9163747000002331,['n'],1,right,['0'],6,0.25168550000034884,0.4,0,AccFast,37,18,Woman,Right,
21,4,1,1.1652822000005472,['c'],1,left,['2'],2,0.5175136999996539,0.1,0,AccFast,37,18,Woman,Right,
22,4,1,1.852035399999295,['c'],1,left,['0'],6,0.2181732999997621,0.4,0,AccFast,37,18,Woman,Right,
23,4,1,2.348806300000433,['n'],0,left,['0'],6,0.2688514999999825,0.4,0,AccFast,37,18,Woman,Right,
24,4,1,1.6837734999999157,['n'],1,right,['9'],5,0.18579899999986083,0.1,0,AccFast,37,18,Woman,Right,
25,4,1,2.214248000000225,['c'],0,right,['9'],5,0.5354366999999911,0.4,0,AccFast,37,18,Woman,Right,
26,4,1,0.9838695999997071,['n'],1,right,['9'],5,0.20143240000015794,0.1,0,AccFast,37,18,Woman,Right,
27,4,1,1.3002255999999761,['c'],1,left,['9'],5,0.28529580000031274,0.1,0,AccFast,37,18,Woman,Right,
28,4,1,1.2820134000003236,['c'],1,left,['9'],5,0.3021968000002744,0.4,0,AccFast,37,18,Woman,Right,
29,4,1,1.398939199999404,['n'],1,right,['0'],6,0.28553959999953804,0.2,0,AccFast,37,18,Woman,Right,
30,4,1,0.917322599999352,['n'],0,left,['0'],6,0.20127860000047804,0.4,0,AccFast,37,18,Woman,Right,
31,4,1,1.0659755999995468,['n'],1,right,['0'],6,0.200864399999773,0.4,0,AccFast,37,18,Woman,Right,
32,4,1,0.8845233000001826,['c'],0,right,['2'],2,0.4679685999999492,0.1,0,AccFast,37,18,Woman,Right,
33,4,1,1.3331135000007635,['n'],1,right,['0'],6,0.20138569999926403,0.2,0,AccFast,37,18,Woman,Right,
34,4,1,1.5006549999998242,['c'],0,right,['1'],1,0.20125700000062352,0.1,0,AccFast,37,18,Woman,Right,
35,4,1,1.3005238000005193,['n'],1,right,['0'],6,0.2346663999996963,0.4,0,AccFast,37,18,Woman,Right,
36,4,1,1.0339585000001534,['n'],1,right,['0'],6,0.18421440000020084,0.1,0,AccFast,37,18,Woman,Right,
37,4,1,1.0679743999999118,['c'],1,left,['1'],1,0.28499159999955737,0.1,0,AccFast,37,18,Woman,Right,
38,4,1,1.1005550999998377,['n'],0,left,['0'],6,0.2180564999998751,0.2,0,AccFast,37,18,Woman,Right,
39,4,1,1.8313877999999022,['n'],0,left,['9'],5,0.2519046999996135,0.2,0,AccFast,37,18,Woman,Right,
40,4,1,0.8669780999998693,['c'],0,right,['2'],2,0.3010817999993378,0.2,0,AccFast,37,18,Woman,Right,
41,4,1,2.517166499999803,['n'],0,left,['2'],2,0.30127010000069276,0.2,0,AccFast,37,18,Woman,Right,
42,4,1,3.2339525999996113,['c'],0,right,['9'],5,0.20008529999995517,0.1,0,AccFast,37,18,Woman,Right,
43,4,1,1.0341931999992084,['n'],0,left,['9'],5,0.2513213000001997,0.1,0,AccFast,37,18,Woman,Right,
44,4,1,0.5506634999992457,['n'],1,right,['9'],5,0.2680486999997811,0.4,0,AccFast,37,18,Woman,Right,
45,4,1,1.0164834000006522,['n'],1,right,['0'],6,0.20121959999960382,0.4,0,AccFast,37,18,Woman,Right,
46,4,1,1.665032699999756,['c'],1,left,['0'],6,0.18629929999951855,0.4,0,AccFast,37,18,Woman,Right,
47,4,1,1.2653056999997716,['c'],1,left,['0'],6,0.185594200000196,0.2,0,AccFast,37,18,Woman,Right,
48,4,1,1.0178307999995013,['c'],1,left,['0'],6,0.20123069999954168,0.4,0,AccFast,37,18,Woman,Right,
49,4,1,0.8510561000002781,['c'],1,left,['0'],6,0.2516927000006035,0.2,0,AccFast,37,18,Woman,Right,
50,4,1,0.6499804000004588,['n'],1,right,['0'],6,0.2180876000002172,0.4,0,AccFast,37,18,Woman,Right,
51,4,1,1.6346709999997984,['c'],0,right,['2'],2,0.38479890000053274,0.2,0,AccFast,37,18,Woman,Right,
52,4,1,0.8681790000000547,['n'],1,right,['0'],6,0.21725010000045586,0.4,0,AccFast,37,18,Woman,Right,
53,4,1,0.6005371999999625,['n'],1,right,['0'],6,0.21804720000000088,0.4,0,AccFast,37,18,Woman,Right,
54,4,1,0.6171178000004147,['n'],1,right,['0'],6,0.1851185000004989,0.2,0,AccFast,37,18,Woman,Right,
55,4,1,0.9838500999994721,['n'],1,right,['0'],6,0.21809029999985796,0.2,0,AccFast,37,18,Woman,Right,
56,4,1,0.7670923999994557,['c'],0,right,['9'],5,0.2500358999996024,0.1,0,AccFast,37,18,Woman,Right,
57,4,1,1.733783300000141,['c'],0,right,['0'],6,0.18479009999919072,0.2,0,AccFast,37,18,Woman,Right,
58,4,1,1.09992930000044,['c'],1,left,['0'],6,0.1846981999997297,0.4,0,AccFast,37,18,Woman,Right,
59,4,1,0.8331398999998783,['n'],0,left,['0'],6,0.16793549999965762,0.1,0,AccFast,37,18,Woman,Right,
0,5,1,1.5340585999992982,['n'],1,right,['8'],4,1.7679697000003216,0.1,0,AccAcc,37,18,Woman,Right,
1,5,1,1.2311218999993798,['c'],0,right,['3'],3,0.9017081000001781,0.2,0,AccAcc,37,18,Woman,Right,
2,5,1,1.5329933000002711,['n'],1,right,['9'],5,0.2522312000000966,0.1,0,AccAcc,37,18,Woman,Right,
3,5,1,1.850230900000497,['n'],1,right,['9'],5,1.0179433000002973,0.2,0,AccAcc,37,18,Woman,Right,
4,5,1,1.3171062000001257,['c'],1,left,['0'],6,0.30136899999979505,0.4,0,AccAcc,37,18,Woman,Right,
5,5,1,1.1005040000000008,['c'],1,left,['0'],6,0.26813640000000305,0.4,0,AccAcc,37,18,Woman,Right,
6,5,1,0.8334099000003334,['n'],0,left,['0'],6,0.26821079999990616,0.1,0,AccAcc,37,18,Woman,Right,
7,5,1,1.2831323000000339,['c'],1,left,['0'],6,0.35137250000025233,0.2,0,AccAcc,37,18,Woman,Right,
8,5,1,2.183675100000073,['n'],1,right,['8'],4,0.23508339999989403,0.2,0,AccAcc,37,18,Woman,Right,
9,5,1,1.2165525000000343,['c'],1,left,['2'],2,0.5686907999997857,0.2,0,AccAcc,37,18,Woman,Right,
10,5,1,1.0167029000003822,['n'],1,right,['0'],6,0.30128960000001825,0.4,0,AccAcc,37,18,Woman,Right,
11,5,1,2.450335399999858,['c'],0,right,['1'],1,2.017732600000272,0.1,0,AccAcc,37,18,Woman,Right,
12,5,1,2.0155260000001363,['n'],0,left,['0'],6,0.518912100000307,0.1,0,AccAcc,37,18,Woman,Right,
13,5,1,1.0997710999999981,['c'],1,left,['0'],6,0.26805870000043797,0.1,0,AccAcc,37,18,Woman,Right,
14,5,1,1.1655400999998164,['n'],1,right,['0'],6,0.25103519999993296,0.4,0,AccAcc,37,18,Woman,Right,
15,5,1,0.8500475000000733,['n'],1,right,['0'],6,0.2519234999999753,0.4,0,AccAcc,37,18,Woman,Right,
16,5,1,1.882572600000458,['c'],1,left,['9'],5,0.2182303999998112,0.2,0,AccAcc,37,18,Woman,Right,
17,5,1,2.500426800000241,['n'],0,left,['8'],4,0.2848055000004024,0.1,0,AccAcc,37,18,Woman,Right,
18,5,1,1.249974000000293,['n'],1,right,['0'],6,0.25128049999966606,0.4,0,AccAcc,37,18,Woman,Right,
19,5,1,0.917226199999277,['n'],1,right,['0'],6,0.2514848000000711,0.4,0,AccAcc,37,18,Woman,Right,
20,5,1,2.000404499999604,['n'],1,right,['3'],3,0.2839850000000297,0.2,0,AccAcc,37,18,Woman,Right,
21,5,1,1.832974799999647,['c'],1,left,['9'],5,0.4002714999996897,0.1,0,AccAcc,37,18,Woman,Right,
22,5,1,1.0340636000000814,['c'],1,left,['0'],6,0.18472430000019813,0.2,0,AccAcc,37,18,Woman,Right,
23,5,1,1.0181608000002598,['n'],1,right,['0'],6,0.23495610000009037,0.2,0,AccAcc,37,18,Woman,Right,
24,5,1,2.533753099999558,['c'],1,left,['0'],6,0.3348057000002882,0.1,0,AccAcc,37,18,Woman,Right,
25,5,1,2.082971099999668,['n'],0,left,['1'],1,0.4018999999998414,0.1,0,AccAcc,37,18,Woman,Right,
26,5,1,1.3163866999993843,['c'],1,left,['0'],6,0.21831900000051974,0.4,0,AccAcc,37,18,Woman,Right,
27,5,1,2.800319199999649,['n'],1,right,['9'],5,0.46829299999990326,0.2,0,AccAcc,37,18,Woman,Right,
28,5,1,0.899097200000142,['n'],1,right,['0'],6,0.285609999999906,0.2,0,AccAcc,37,18,Woman,Right,
29,5,1,0.7846934999997757,['n'],1,right,['0'],6,0.2182394999999815,0.4,0,AccAcc,37,18,Woman,Right,
30,5,1,1.6826293000003716,['c'],0,right,['8'],4,0.2690766000005169,0.1,0,AccAcc,37,18,Woman,Right,
31,5,1,1.6829943000002459,['n'],1,right,['9'],5,0.23478979999981675,0.4,0,AccAcc,37,18,Woman,Right,
32,5,1,3.381572199999937,['n'],0,left,['0'],6,0.25208720000046014,0.4,0,AccAcc,37,18,Woman,Right,
33,5,1,3.4169952000002013,['n'],1,right,['8'],4,0.40127129999928,0.2,0,AccAcc,37,18,Woman,Right,
34,5,1,1.2663900999996258,['n'],0,left,['9'],5,0.3179835999999341,0.4,0,AccAcc,37,18,Woman,Right,
35,5,1,2.382770100000016,['c'],1,left,['8'],4,0.48499529999935476,0.1,0,AccAcc,37,18,Woman,Right,
36,5,1,1.5835379000000103,['c'],1,left,['0'],6,0.28477509999993345,0.4,0,AccAcc,37,18,Woman,Right,
37,5,1,2.0991520999996283,['c'],0,right,['3'],3,0.6665958000003229,0.1,0,AccAcc,37,18,Woman,Right,
38,5,1,1.4670166999994763,['c'],1,left,['8'],4,0.9179377000000386,0.4,0,AccAcc,37,18,Woman,Right,
39,5,1,1.2319076000003406,['n'],0,left,['0'],6,0.3184382999997979,0.4,0,AccAcc,37,18,Woman,Right,
40,5,1,1.867224499999793,['n'],1,right,['0'],6,0.3004414999995788,0.1,0,AccAcc,37,18,Woman,Right,
41,5,1,1.633538399999452,['n'],0,left,['2'],2,0.40169719999994413,0.2,0,AccAcc,37,18,Woman,Right,
42,5,1,1.350181099999645,['n'],1,right,['2'],2,0.30162689999997383,0.1,0,AccAcc,37,18,Woman,Right,
43,5,1,2.732887699999992,['c'],1,left,['3'],3,0.5176480999998603,0.2,0,AccAcc,37,18,Woman,Right,
44,5,1,1.7482401000006575,['n'],0,left,['8'],4,0.31924609999987297,0.2,0,AccAcc,37,18,Woman,Right,
45,5,1,1.3830677999994805,['n'],1,right,['0'],6,0.3013296999997692,0.1,0,AccAcc,37,18,Woman,Right,
46,5,1,4.533295899999757,['n'],1,right,['0'],6,0.401037699999506,0.2,0,AccAcc,37,18,Woman,Right,
47,5,1,1.8651802999993379,['c'],1,left,['8'],4,0.6681778000001941,0.2,0,AccAcc,37,18,Woman,Right,
48,5,1,0.8674046999994971,['n'],1,right,['0'],6,0.2680126000004748,0.1,0,AccAcc,37,18,Woman,Right,
49,5,1,2.550009399999908,['c'],1,left,['2'],2,1.3010662999995475,0.4,0,AccAcc,37,18,Woman,Right,
50,5,1,3.048830099999577,['n'],0,left,['2'],2,0.618992800000342,0.2,0,AccAcc,37,18,Woman,Right,
51,5,1,2.749274400000104,['n'],1,right,['3'],3,1.2006493999997474,0.1,0,AccAcc,37,18,Woman,Right,
52,5,1,1.167174100000011,['n'],1,right,['0'],6,0.45145210000009683,0.1,0,AccAcc,37,18,Woman,Right,
53,5,1,4.200084000000061,['n'],0,left,['9'],5,1.1507731000001513,0.4,0,AccAcc,37,18,Woman,Right,
54,5,1,2.066951099999642,['c'],0,right,['2'],2,1.0003255000001445,0.4,0,AccAcc,37,18,Woman,Right,
55,5,1,2.367119999999886,['c'],1,left,['9'],5,0.40101599999979953,0.4,0,AccAcc,37,18,Woman,Right,
56,5,1,0.9831574999998338,['n'],1,right,['9'],5,0.4353166999999303,0.2,0,AccAcc,37,18,Woman,Right,
57,5,1,1.567485200000192,['c'],1,left,['9'],5,1.6178684999995312,0.4,0,AccAcc,37,18,Woman,Right,
58,5,1,2.6000768999992943,['n'],0,left,['9'],5,0.2845638999997391,0.2,0,AccAcc,37,18,Woman,Right,
59,5,1,1.7502805000003718,['c'],0,right,['8'],4,0.8014228000001822,0.1,0,AccAcc,37,18,Woman,Right,
0,6,1,0.7505456999997477,['n'],1,right,['0'],6,0.2683628000004319,0.1,0,FastAcc,37,18,Woman,Right,
1,6,1,0.9004635999999664,['c'],0,right,['3'],3,2.4337070000001404,0.1,0,FastAcc,37,18,Woman,Right,
2,6,1,0.68329040000026,['c'],1,left,['0'],6,1.018551899999693,0.4,0,FastAcc,37,18,Woman,Right,
3,6,1,1.149177299999792,['n'],1,right,['9'],5,1.5692979000004925,0.1,0,FastAcc,37,18,Woman,Right,
4,6,1,0.5670755000001009,['c'],1,left,['9'],5,1.7013681999997061,0.2,0,FastAcc,37,18,Woman,Right,
5,6,1,0.7169813000000431,['c'],1,left,['2'],2,1.234618500000579,0.1,0,FastAcc,37,18,Woman,Right,
6,6,1,0.7502672999999049,['n'],0,left,['1'],1,1.6673445999995238,0.4,0,FastAcc,37,18,Woman,Right,
7,6,1,0.8989513999995324,['n'],1,right,['9'],5,1.1359308999999485,0.2,0,FastAcc,37,18,Woman,Right,
8,6,1,0.9009107000001677,['c'],1,left,['9'],5,1.850564200000008,0.2,0,FastAcc,37,18,Woman,Right,
9,6,1,0.5842054000004282,['n'],1,right,['0'],6,0.8346977000001061,0.4,0,FastAcc,37,18,Woman,Right,
10,6,1,0.8837922999991861,['n'],1,right,['8'],4,0.9679945999996562,0.2,0,FastAcc,37,18,Woman,Right,
11,6,1,1.23319839999931,['n'],1,right,['3'],3,0.9691468000000896,0.1,0,FastAcc,37,18,Woman,Right,
12,6,1,0.8671205999999074,['n'],1,right,['3'],3,0.8180290000000241,0.1,0,FastAcc,37,18,Woman,Right,
13,6,1,0.8335973999992348,['c'],0,right,['9'],5,1.151363500000116,0.1,0,FastAcc,37,18,Woman,Right,
14,6,1,0.883753600000091,['n'],1,right,['9'],5,0.5672994999995353,0.1,0,FastAcc,37,18,Woman,Right,
15,6,1,1.5855007000000114,['n'],1,right,['8'],4,1.3179502000002685,0.2,0,FastAcc,37,18,Woman,Right,
16,6,1,0.4510811999998623,['n'],1,right,['0'],6,0.9846545999998852,0.4,0,FastAcc,37,18,Woman,Right,
17,6,1,0.6163002000002962,['n'],0,left,['1'],1,1.3682158000001436,0.2,0,FastAcc,37,18,Woman,Right,
18,6,1,0.5165559999995821,['n'],1,right,['0'],6,0.7679682999996658,0.4,0,FastAcc,37,18,Woman,Right,
19,6,1,0.5828928999999334,['n'],1,right,['9'],5,1.1686547999997856,0.4,0,FastAcc,37,18,Woman,Right,
20,6,1,0.6834263000000647,['c'],1,left,['0'],6,1.5023922000000312,0.1,0,FastAcc,37,18,Woman,Right,
21,6,1,0.5171311999993122,['c'],1,left,['0'],6,0.5346044999996593,0.1,0,FastAcc,37,18,Woman,Right,
22,6,1,0.6995037999995475,['n'],1,right,['0'],6,0.6679612999996607,0.1,0,FastAcc,37,18,Woman,Right,
23,6,1,0.7003564999995433,['c'],1,left,['9'],5,0.8159292999998797,0.4,0,FastAcc,37,18,Woman,Right,
24,6,1,0.6176275999996506,['n'],1,right,['9'],5,0.6181169000001319,0.2,0,FastAcc,37,18,Woman,Right,
25,6,1,0.9498236999997971,['n'],1,right,['2'],2,1.3847390000000814,0.1,0,FastAcc,37,18,Woman,Right,
26,6,1,0.7508682999996381,['n'],1,right,['0'],6,0.5680680000004941,0.4,0,FastAcc,37,18,Woman,Right,
27,6,1,0.5673149000003832,['n'],1,right,['9'],5,0.5180615999997826,0.2,0,FastAcc,37,18,Woman,Right,
28,6,1,0.583169700000326,['c'],1,left,['9'],5,0.851326599999993,0.4,0,FastAcc,37,18,Woman,Right,
29,6,1,0.5506351000003633,['c'],1,left,['0'],6,0.5512548999995488,0.2,0,FastAcc,37,18,Woman,Right,
30,6,1,0.5999455000001035,['c'],1,left,['0'],6,0.40156780000052095,0.4,0,FastAcc,37,18,Woman,Right,
31,6,1,0.6658862000003865,['n'],1,right,['9'],5,0.5853312999997797,0.1,0,FastAcc,37,18,Woman,Right,
32,6,1,0.967853400000422,['c'],1,left,['8'],4,1.4678734000008262,0.2,0,FastAcc,37,18,Woman,Right,
33,6,1,1.0015597000001435,['n'],0,left,['1'],1,1.1331731000000218,0.1,0,FastAcc,37,18,Woman,Right,
34,6,1,0.6179238000004261,['n'],1,right,['0'],6,0.6677652000007583,0.4,0,FastAcc,37,18,Woman,Right,
35,6,1,0.5510135000004084,['n'],1,right,['8'],4,1.3166150999995807,0.4,0,FastAcc,37,18,Woman,Right,
36,6,1,0.684306099999958,['c'],1,left,['0'],6,0.7515334999998231,0.1,0,FastAcc,37,18,Woman,Right,
37,6,1,1.0665775999996185,['n'],1,right,['2'],2,0.9005114000001413,0.2,0,FastAcc,37,18,Woman,Right,
38,6,1,0.9338056999995388,['c'],0,right,['8'],4,1.7673936999999569,0.1,0,FastAcc,37,18,Woman,Right,
39,6,1,0.7676860000001398,['c'],1,left,['0'],6,0.8179239000000962,0.2,0,FastAcc,37,18,Woman,Right,
40,6,1,1.8994767000003776,['c'],1,left,['3'],3,2.1010894999999437,0.2,0,FastAcc,37,18,Woman,Right,
41,6,1,0.6165804000002026,['c'],1,left,['0'],6,0.6681042999998681,0.4,0,FastAcc,37,18,Woman,Right,
42,6,1,0.45038819999990665,['n'],1,right,['0'],6,0.3335508000000118,0.4,0,FastAcc,37,18,Woman,Right,
43,6,1,0.7511617000000115,['n'],1,right,['0'],6,0.3187003000002733,0.4,0,FastAcc,37,18,Woman,Right,
44,6,1,0.6673577000001387,['c'],1,left,['0'],6,0.7016571000003751,0.4,0,FastAcc,37,18,Woman,Right,
45,6,1,1.4664567999998326,['n'],1,right,['2'],2,0.7512717999998131,0.2,0,FastAcc,37,18,Woman,Right,
46,6,1,0.8006567000002178,['c'],1,left,['8'],4,1.149310300000252,0.2,0,FastAcc,37,18,Woman,Right,
47,6,1,0.7519409999995332,['c'],1,left,['3'],3,1.8012386000000333,0.2,0,FastAcc,37,18,Woman,Right,
48,6,1,0.8324952000002668,['n'],1,right,['3'],3,1.7353040999996665,0.2,0,FastAcc,37,18,Woman,Right,
49,6,1,0.7005646999996316,['n'],1,right,['9'],5,0.6848555999995369,0.1,0,FastAcc,37,18,Woman,Right,
50,6,1,1.6506119000005128,['c'],1,left,['2'],2,0.9005694999996194,0.1,0,FastAcc,37,18,Woman,Right,
51,6,1,1.1679052000008596,['n'],0,left,['8'],4,0.9844003000007433,0.2,0,FastAcc,37,18,Woman,Right,
52,6,1,1.2327065999998013,['c'],1,left,['0'],6,1.3022140000002764,0.4,0,FastAcc,37,18,Woman,Right,
53,6,1,0.8808649000002333,['n'],1,right,['9'],5,0.8524555000003602,0.1,0,FastAcc,37,18,Woman,Right,
54,6,1,0.765011699999377,['n'],0,left,['9'],5,0.4175412000004144,0.2,0,FastAcc,37,18,Woman,Right,
55,6,1,0.8663618000000497,['n'],0,left,['9'],5,0.251389900000504,0.1,0,FastAcc,37,18,Woman,Right,
56,6,1,0.9339346999995541,['c'],1,left,['3'],3,1.134811500000069,0.4,0,FastAcc,37,18,Woman,Right,
57,6,1,0.6487368999996761,['n'],0,left,['3'],3,3.7182996000001367,0.2,0,FastAcc,37,18,Woman,Right,
58,6,1,0.49996180000016466,['c'],1,left,['0'],6,0.8835694999997941,0.4,0,FastAcc,37,18,Woman,Right,
59,6,1,0.6511917000007088,['c'],1,left,['9'],5,2.4844733999998425,0.4,0,FastAcc,37,18,Woman,Right,
0,7,1,1.4663914000002478,['n'],1,right,['9'],5,0.2675478999999541,0.4,0,FastFast,37,18,Woman,Right,
1,7,1,0.6680807999991885,['c'],1,left,['2'],2,0.28379039999981615,0.4,0,FastFast,37,18,Woman,Right,
2,7,1,1.1668082999995022,['n'],1,right,['9'],5,0.251422299999831,0.1,0,FastFast,37,18,Woman,Right,
3,7,1,0.7334209000000556,['n'],1,right,['0'],6,0.30109950000041863,0.2,0,FastFast,37,18,Woman,Right,
4,7,1,0.7512895999998364,['n'],1,right,['0'],6,0.23485639999944397,0.1,0,FastFast,37,18,Woman,Right,
5,7,1,0.49922570000035194,['c'],1,left,['0'],6,0.31693819999964035,0.2,0,FastFast,37,18,Woman,Right,
6,7,1,0.45160329999998794,['c'],1,left,['0'],6,0.21815849999984493,0.4,0,FastFast,37,18,Woman,Right,
7,7,1,0.5004654999993363,['c'],1,left,['0'],6,0.20140599999922415,0.2,0,FastFast,37,18,Woman,Right,
8,7,1,0.48386310000023514,['c'],1,left,['0'],6,0.20140739999988,0.4,0,FastFast,37,18,Woman,Right,
9,7,1,0.5336254000003464,['c'],1,left,['0'],6,0.1844727999996394,0.1,0,FastFast,37,18,Woman,Right,
10,7,1,0.4497491000001901,['n'],1,right,['9'],5,0.16788249999990512,0.2,0,FastFast,37,18,Woman,Right,
11,7,1,0.4839392999992924,['n'],0,left,['0'],6,0.21820089999982883,0.1,0,FastFast,37,18,Woman,Right,
12,7,1,1.0491631000004418,['c'],0,right,['0'],6,0.25225289999980305,0.1,0,FastFast,37,18,Woman,Right,
13,7,1,0.9168924000005063,['n'],0,left,['2'],2,0.26790190000065195,0.2,0,FastFast,37,18,Woman,Right,
14,7,1,0.7350074999994831,['c'],1,left,['2'],2,0.21668229999977484,0.4,0,FastFast,37,18,Woman,Right,
15,7,1,0.6008665999997902,['c'],0,right,['0'],6,0.13533520000055432,0.1,0,FastFast,37,18,Woman,Right,
16,7,1,0.7663682000002154,['c'],1,left,['9'],5,0.16828929999974207,0.4,0,FastFast,37,18,Woman,Right,
17,7,1,0.5001954999997906,['n'],1,right,['9'],5,0.21805010000025504,0.2,0,FastFast,37,18,Woman,Right,
18,7,1,0.5826569999999265,['c'],0,right,['0'],6,0.21875989999989542,0.2,0,FastFast,37,18,Woman,Right,
19,7,1,0.5838274000007004,['c'],1,left,['9'],5,0.2850913000002038,0.4,0,FastFast,37,18,Woman,Right,
20,7,1,0.7000412999996115,['n'],1,right,['0'],6,0.18467770000006567,0.4,0,FastFast,37,18,Woman,Right,
21,7,1,0.8004539000003206,['n'],1,right,['0'],6,0.21683169999960228,0.2,0,FastFast,37,18,Woman,Right,
22,7,1,0.5509142999999312,['c'],1,left,['0'],6,0.28468679999969027,0.4,0,FastFast,37,18,Woman,Right,
23,7,1,0.850215799999205,['c'],1,left,['0'],6,0.20154550000006566,0.1,0,FastFast,37,18,Woman,Right,
24,7,1,0.5661613000002035,['n'],1,right,['9'],5,0.152434099999482,0.1,0,FastFast,37,18,Woman,Right,
25,7,1,0.8662523000002693,['n'],1,right,['2'],2,0.1515030000000479,0.1,0,FastFast,37,18,Woman,Right,
26,7,1,1.0003936000002795,['n'],1,right,['0'],6,0.20085629999994126,0.4,0,FastFast,37,18,Woman,Right,
27,7,1,1.1165538000004744,['c'],1,left,['0'],6,0.16873370000030263,0.1,0,FastFast,37,18,Woman,Right,
28,7,1,0.7503848000005746,['c'],0,right,['0'],6,0.18406690000028902,0.1,0,FastFast,37,18,Woman,Right,
29,7,1,0.983694700000342,['c'],1,left,['2'],2,0.1846441000006962,0.2,0,FastFast,37,18,Woman,Right,
30,7,1,1.1502141000000847,['c'],1,left,['9'],5,0.13490189999993163,0.4,0,FastFast,37,18,Woman,Right,
31,7,1,0.8174063999995269,['c'],0,right,['9'],5,0.18430460000035964,0.2,0,FastFast,37,18,Woman,Right,
32,7,1,0.7344087999999829,['n'],1,right,['9'],5,0.18426450000060868,0.1,0,FastFast,37,18,Woman,Right,
33,7,1,0.8177503000006254,['n'],1,right,['9'],5,0.21825100000023667,0.1,0,FastFast,37,18,Woman,Right,
34,7,1,0.9999737999996796,['n'],1,right,['1'],1,0.15078600000015285,0.2,0,FastFast,37,18,Woman,Right,
35,7,1,1.2671549000006053,['n'],1,right,['0'],6,0.28388820000054693,0.4,0,FastFast,37,18,Woman,Right,
36,7,1,1.0674641999994492,['c'],1,left,['0'],6,0.18458820000068954,0.4,0,FastFast,37,18,Woman,Right,
37,7,1,0.6836080000002767,['n'],1,right,['9'],5,0.23477199999979348,0.2,0,FastFast,37,18,Woman,Right,
38,7,1,1.3170832000005248,['c'],1,left,['9'],5,0.20196759999998903,0.4,0,FastFast,37,18,Woman,Right,
39,7,1,1.1661821999996391,['c'],0,right,['2'],2,0.20117719999961992,0.2,0,FastFast,37,18,Woman,Right,
40,7,1,1.283126600000287,['c'],1,left,['0'],6,0.2027631000000838,0.2,0,FastFast,37,18,Woman,Right,
41,7,1,0.6485973999997441,['c'],0,right,['0'],6,0.16889480000008916,0.2,0,FastFast,37,18,Woman,Right,
42,7,1,0.9511378999995941,['n'],0,left,['0'],6,0.21802089999982854,0.1,0,FastFast,37,18,Woman,Right,
43,7,1,2.2492731000002095,['n'],1,right,['2'],2,0.16673739999987447,0.4,0,FastFast,37,18,Woman,Right,
44,7,1,0.8831383000006099,['c'],1,left,['0'],6,0.15228360000037355,0.4,0,FastFast,37,18,Woman,Right,
45,7,1,1.8171372999995583,['n'],0,left,['2'],2,0.20154959999945277,0.1,0,FastFast,37,18,Woman,Right,
46,7,1,2.083769499999107,['c'],1,left,['9'],5,0.18344270000034157,0.1,0,FastFast,37,18,Woman,Right,
47,7,1,1.1176951000006738,['c'],1,left,['8'],4,0.201353299999937,0.2,0,FastFast,37,18,Woman,Right,
48,7,1,0.733293300000696,['c'],1,left,['9'],5,0.16787769999973534,0.2,0,FastFast,37,18,Woman,Right,
49,7,1,0.9006800000006479,['c'],1,left,['9'],5,0.18418060000021796,0.4,0,FastFast,37,18,Woman,Right,
50,7,1,0.683196200000566,['c'],1,left,['8'],4,0.3680967000000237,0.4,0,FastFast,37,18,Woman,Right,
51,7,1,0.6991925000002084,['n'],1,right,['9'],5,0.1688776000000871,0.4,0,FastFast,37,18,Woman,Right,
52,7,1,0.5675639000000956,['n'],1,right,['9'],5,0.2347395000006145,0.1,0,FastFast,37,18,Woman,Right,
53,7,1,1.3162376000000222,['c'],1,left,['9'],5,0.15132639999956154,0.2,0,FastFast,37,18,Woman,Right,
54,7,1,1.43347840000024,['n'],0,left,['2'],2,0.21802459999980783,0.1,0,FastFast,37,18,Woman,Right,
55,7,1,0.7338034000003972,['c'],0,right,['0'],6,0.16820540000026085,0.1,0,FastFast,37,18,Woman,Right,
56,7,1,1.3162380000003395,['n'],1,right,['0'],6,0.15125440000065282,0.2,0,FastFast,37,18,Woman,Right,
57,7,1,0.5992415999999139,['n'],1,right,['0'],6,0.13539789999958884,0.2,0,FastFast,37,18,Woman,Right,
58,7,1,0.5006538000006913,['n'],0,left,['0'],6,0.25135599999975966,0.4,0,FastFast,37,18,Woman,Right,
59,7,1,1.0662038000000393,['n'],1,right,['9'],5,0.16917760000069393,0.1,0,FastFast,37,18,Woman,Right,
0,8,1,0.8846189000005324,['n'],1,right,['0'],6,0.23402579999947193,0.4,0,AccFast,37,18,Woman,Right,
1,8,1,1.0825180000001637,['n'],1,right,['9'],5,0.2348855000000185,0.2,0,AccFast,37,18,Woman,Right,
2,8,1,1.1344462000006388,['c'],1,left,['9'],5,0.23490180000044347,0.2,0,AccFast,37,18,Woman,Right,
3,8,1,1.0845540999998775,['c'],1,left,['9'],5,0.21690550000039366,0.4,0,AccFast,37,18,Woman,Right,
4,8,1,0.6676814000002196,['n'],1,right,['9'],5,0.1840663000002678,0.4,0,AccFast,37,18,Woman,Right,
5,8,1,0.9842275999999401,['c'],1,left,['0'],6,0.25145900000006804,0.1,0,AccFast,37,18,Woman,Right,
6,8,1,0.9174030999993192,['c'],1,left,['0'],6,0.2182035999994696,0.4,0,AccFast,37,18,Woman,Right,
7,8,1,2.649850100000549,['n'],0,left,['2'],2,0.3345950000002631,0.2,0,AccFast,37,18,Woman,Right,
8,8,1,1.417129099999329,['n'],1,right,['2'],2,0.4017487999999503,0.2,0,AccFast,37,18,Woman,Right,
9,8,1,2.5833701000001383,['c'],1,left,['3'],3,0.4338287999999011,0.2,0,AccFast,37,18,Woman,Right,
10,8,1,1.4831306999994922,['c'],0,right,['0'],6,0.21863769999981741,0.2,0,AccFast,37,18,Woman,Right,
11,8,1,0.9329155000004903,['n'],1,right,['0'],6,0.31828070000028674,0.2,0,AccFast,37,18,Woman,Right,
12,8,1,1.53308350000043,['n'],1,right,['0'],6,0.15107850000003964,0.2,0,AccFast,37,18,Woman,Right,
13,8,1,1.4337896999995792,['n'],0,left,['0'],6,0.23453610000069602,0.1,0,AccFast,37,18,Woman,Right,
14,8,1,2.6000349999994796,['n'],0,left,['9'],5,1.2346201000000292,0.2,0,AccFast,37,18,Woman,Right,
15,8,1,0.8168958999995084,['n'],1,right,['9'],5,0.15191479999975854,0.1,0,AccFast,37,18,Woman,Right,
16,8,1,1.0330980999997337,['n'],1,right,['9'],5,0.2014113000004727,0.4,0,AccFast,37,18,Woman,Right,
17,8,1,2.099708300000202,['c'],1,left,['3'],3,0.3180526000005557,0.1,0,AccFast,37,18,Woman,Right,
18,8,1,2.467008700000406,['c'],1,left,['3'],3,0.21805829999993875,0.1,0,AccFast,37,18,Woman,Right,
19,8,1,1.9994472999997015,['n'],1,right,['9'],5,0.20008099999995466,0.4,0,AccFast,37,18,Woman,Right,
20,8,1,1.0679466999999931,['c'],1,left,['9'],5,0.2513106999995216,0.4,0,AccFast,37,18,Woman,Right,
21,8,1,1.2010122000001502,['n'],0,left,['0'],6,0.2177322000006825,0.2,0,AccFast,37,18,Woman,Right,
22,8,1,1.1178030999999464,['c'],1,left,['0'],6,0.16838970000026166,0.4,0,AccFast,37,18,Woman,Right,
23,8,1,0.9163716000002751,['n'],1,right,['0'],6,0.1682677999997395,0.1,0,AccFast,37,18,Woman,Right,
24,8,1,1.1170609000000695,['c'],0,right,['0'],6,0.18510490000062418,0.1,0,AccFast,37,18,Woman,Right,
25,8,1,1.3667740000000776,['n'],1,right,['9'],5,0.18474440000045433,0.4,0,AccFast,37,18,Woman,Right,
26,8,1,0.9835407999999006,['c'],1,left,['9'],5,0.26805160000003525,0.4,0,AccFast,37,18,Woman,Right,
27,8,1,1.482579700000315,['n'],1,right,['2'],2,0.1518779000007271,0.1,0,AccFast,37,18,Woman,Right,
28,8,1,0.9991251000001284,['c'],1,left,['0'],6,0.184809999999743,0.4,0,AccFast,37,18,Woman,Right,
29,8,1,1.417583299999933,['c'],1,left,['9'],5,0.2013981000000058,0.1,0,AccFast,37,18,Woman,Right,
30,8,1,0.7502457999999024,['c'],1,left,['2'],2,0.46803339999951277,0.2,0,AccFast,37,18,Woman,Right,
31,8,1,1.250269500000286,['n'],1,right,['9'],5,0.1846363000004203,0.2,0,AccFast,37,18,Woman,Right,
32,8,1,1.067564200000561,['c'],1,left,['8'],4,0.18487129999994067,0.1,0,AccFast,37,18,Woman,Right,
33,8,1,0.9498554000001604,['n'],1,right,['9'],5,0.16811340000003838,0.4,0,AccFast,37,18,Woman,Right,
34,8,1,1.067062399999486,['c'],1,left,['0'],6,0.250665200000185,0.4,0,AccFast,37,18,Woman,Right,
35,8,1,0.6498783999995794,['n'],1,right,['0'],6,0.21797329999935755,0.4,0,AccFast,37,18,Woman,Right,
36,8,1,0.7838197999999466,['c'],1,left,['0'],6,0.21604180000031192,0.4,0,AccFast,37,18,Woman,Right,
37,8,1,1.102410399999826,['n'],1,right,['9'],5,0.2848684000000503,0.1,0,AccFast,37,18,Woman,Right,
38,8,1,1.0833363000001555,['n'],1,right,['0'],6,0.23467780000009952,0.4,0,AccFast,37,18,Woman,Right,
39,8,1,0.7984802000000855,['c'],1,left,['0'],6,0.4855881999992562,0.2,0,AccFast,37,18,Woman,Right,
40,8,1,0.899924800000008,['c'],0,right,['0'],6,0.11792069999955856,0.1,0,AccFast,37,18,Woman,Right,
41,8,1,2.598559999999452,['n'],0,left,['2'],2,0.1841976000005161,0.1,0,AccFast,37,18,Woman,Right,
42,8,1,1.0351628000007622,['c'],1,left,['0'],6,0.16687259999980597,0.4,0,AccFast,37,18,Woman,Right,
43,8,1,0.7513850999994247,['n'],1,right,['0'],6,0.15158820000033302,0.4,0,AccFast,37,18,Woman,Right,
44,8,1,0.7670198000005257,['n'],1,right,['0'],6,0.1515453999991223,0.2,0,AccFast,37,18,Woman,Right,
45,8,1,0.900908999999956,['n'],1,right,['0'],6,0.40229009999984555,0.1,0,AccFast,37,18,Woman,Right,
46,8,1,1.3672213999998348,['c'],0,right,['2'],2,0.28480279999985214,0.1,0,AccFast,37,18,Woman,Right,
47,8,1,2.083582000000206,['n'],1,right,['2'],2,0.15193679999993037,0.2,0,AccFast,37,18,Woman,Right,
48,8,1,0.9505385000002207,['n'],1,right,['0'],6,0.26662649999980204,0.2,0,AccFast,37,18,Woman,Right,
49,8,1,1.2673454999994647,['c'],1,left,['2'],2,0.21860730000025796,0.2,0,AccFast,37,18,Woman,Right,
50,8,1,1.1164616999994905,['c'],1,left,['0'],6,0.18460890000005747,0.4,0,AccFast,37,18,Woman,Right,
51,8,1,0.617083599999205,['c'],1,left,['0'],6,0.15117749999990338,0.4,0,AccFast,37,18,Woman,Right,
52,8,1,1.3344283000005817,['c'],1,left,['9'],5,0.18473510000058013,0.2,0,AccFast,37,18,Woman,Right,
53,8,1,1.3003148000007059,['c'],0,right,['9'],5,0.13500380000004952,0.1,0,AccFast,37,18,Woman,Right,
54,8,1,0.7003684000001158,['c'],0,right,['8'],4,0.15015630000016245,0.1,0,AccFast,37,18,Woman,Right,
55,8,1,2.4159499999996115,['n'],0,left,['2'],2,0.3658804999995482,0.1,0,AccFast,37,18,Woman,Right,
56,8,1,1.4674520999997185,['c'],0,right,['9'],5,0.15220719999979337,0.2,0,AccFast,37,18,Woman,Right,
57,8,1,0.9823699999997189,['c'],1,left,['8'],4,0.16887059999953635,0.2,0,AccFast,37,18,Woman,Right,
58,8,1,0.8654003999999986,['c'],1,left,['8'],4,0.16814119999980903,0.1,0,AccFast,37,18,Woman,Right,
59,8,1,1.482956099999683,['c'],0,right,['8'],4,0.1848533000002135,0.1,0,AccFast,37,18,Woman,Right,
0,9,1,1.7678177000007054,['c'],1,left,['8'],4,1.1688669000004666,0.1,0,AccAcc,37,18,Woman,Right,
1,9,1,1.4342452000000776,['n'],1,right,['3'],3,0.5006267999997362,0.1,0,AccAcc,37,18,Woman,Right,
2,9,1,2.2825112000000445,['c'],1,left,['9'],5,1.3019374000004973,0.2,0,AccAcc,37,18,Woman,Right,
3,9,1,1.1663707999996404,['c'],1,left,['8'],4,0.8516662000001816,0.1,0,AccAcc,37,18,Woman,Right,
4,9,1,0.834370200000194,['n'],1,right,['0'],6,0.3844584999997096,0.2,0,AccAcc,37,18,Woman,Right,
5,9,1,0.8838658000004216,['n'],0,left,['0'],6,0.28499439999995957,0.1,0,AccAcc,37,18,Woman,Right,
6,9,1,2.4840862999999445,['c'],0,right,['2'],2,0.7179771000000983,0.1,0,AccAcc,37,18,Woman,Right,
7,9,1,0.7832452000002377,['c'],1,left,['0'],6,0.40138049999950454,0.4,0,AccAcc,37,18,Woman,Right,
8,9,1,1.6673180999996475,['n'],1,right,['0'],6,0.21819430000050488,0.2,0,AccAcc,37,18,Woman,Right,
9,9,1,0.8671322999998665,['n'],1,right,['0'],6,0.20133939999959694,0.4,0,AccAcc,37,18,Woman,Right,
10,9,1,0.9996830999998565,['c'],0,right,['0'],6,0.3179854999998497,0.1,0,AccAcc,37,18,Woman,Right,
11,9,1,2.200083099999574,['c'],1,left,['2'],2,0.3514341999998578,0.4,0,AccAcc,37,18,Woman,Right,
12,9,1,0.9331861999999091,['n'],1,right,['0'],6,0.1680261999999857,0.4,0,AccAcc,37,18,Woman,Right,
13,9,1,0.7172110999999859,['n'],1,right,['0'],6,0.2680566999997609,0.4,0,AccAcc,37,18,Woman,Right,
14,9,1,1.1669713999999658,['c'],1,left,['0'],6,0.3835393999997905,0.4,0,AccAcc,37,18,Woman,Right,
15,9,1,0.8847003000000768,['n'],1,right,['0'],6,0.2512378000001263,0.4,0,AccAcc,37,18,Woman,Right,
16,9,1,1.0335974999998143,['n'],1,right,['9'],5,0.25208370000018476,0.1,0,AccAcc,37,18,Woman,Right,
17,9,1,0.8007648000002519,['n'],1,right,['8'],4,0.2348178000002008,0.2,0,AccAcc,37,18,Woman,Right,
18,9,1,0.633088300000054,['n'],1,right,['9'],5,0.25135930000033113,0.1,0,AccAcc,37,18,Woman,Right,
19,9,1,1.2170083999999406,['c'],1,left,['9'],5,0.4187876999994842,0.1,0,AccAcc,37,18,Woman,Right,
20,9,1,3.0002825999999914,['n'],1,right,['8'],4,0.3014923999999155,0.2,0,AccAcc,37,18,Woman,Right,
21,9,1,1.2502706000004764,['c'],1,left,['9'],5,0.7180281999999352,0.4,0,AccAcc,37,18,Woman,Right,
22,9,1,1.0998060000001715,['n'],1,right,['9'],5,0.3006806000003053,0.4,0,AccAcc,37,18,Woman,Right,
23,9,1,2.249633999999787,['c'],0,right,['3'],3,0.3681289999994988,0.1,0,AccAcc,37,18,Woman,Right,
24,9,1,2.1496706999996604,['c'],1,left,['8'],4,0.3008498999997755,0.2,0,AccAcc,37,18,Woman,Right,
25,9,1,0.9336187000008067,['n'],1,right,['8'],4,0.2506599999996979,0.2,0,AccAcc,37,18,Woman,Right,
26,9,1,1.0510352000001149,['n'],1,right,['0'],6,0.2335032000000865,0.2,0,AccAcc,37,18,Woman,Right,
27,9,1,1.2512916999994559,['n'],1,right,['0'],6,0.7343943999994735,0.4,0,AccAcc,37,18,Woman,Right,
28,9,1,1.6163593999999648,['c'],0,right,['9'],5,0.4171237000000474,0.1,0,AccAcc,37,18,Woman,Right,
29,9,1,0.8007076000003508,['c'],1,left,['9'],5,0.2847838999996384,0.2,0,AccAcc,37,18,Woman,Right,
30,9,1,0.8159560000003694,['c'],1,left,['0'],6,0.20150730000023032,0.2,0,AccAcc,37,18,Woman,Right,
31,9,1,1.5507811999996193,['n'],1,right,['0'],6,0.2181454000001395,0.1,0,AccAcc,37,18,Woman,Right,
32,9,1,1.0162591999996948,['c'],1,left,['0'],6,0.20013360000029934,0.2,0,AccAcc,37,18,Woman,Right,
33,9,1,0.9676292000003741,['c'],1,left,['0'],6,0.2671617000005426,0.2,0,AccAcc,37,18,Woman,Right,
34,9,1,1.084307300000546,['n'],1,right,['0'],6,0.26807579999967857,0.4,0,AccAcc,37,18,Woman,Right,
35,9,1,1.0171660999994856,['c'],1,left,['0'],6,0.25184840000019904,0.4,0,AccAcc,37,18,Woman,Right,
36,9,1,0.7672792000003028,['n'],1,right,['0'],6,0.20141400000011345,0.2,0,AccAcc,37,18,Woman,Right,
37,9,1,3.0658196000003954,['c'],1,left,['1'],1,1.73459449999973,0.4,0,AccAcc,37,18,Woman,Right,
38,9,1,2.148673100000451,['c'],1,left,['8'],4,0.7680138000005172,0.1,0,AccAcc,37,18,Woman,Right,
39,9,1,1.649430299999949,['c'],1,left,['3'],3,0.7350355999997191,0.1,0,AccAcc,37,18,Woman,Right,
40,9,1,4.050450600000659,['c'],1,left,['8'],4,0.8513566000001447,0.1,0,AccAcc,37,18,Woman,Right,
41,9,1,1.5664222999994308,['n'],0,left,['9'],5,0.5340065000000322,0.4,0,AccAcc,37,18,Woman,Right,
42,9,1,0.8328424000001178,['n'],1,right,['9'],5,0.25126109999928303,0.2,0,AccAcc,37,18,Woman,Right,
43,9,1,1.0848426000002291,['n'],0,left,['9'],5,0.2680233999999473,0.2,0,AccAcc,37,18,Woman,Right,
44,9,1,2.2174791000006735,['n'],0,left,['8'],4,0.13478009999926144,0.2,0,AccAcc,37,18,Woman,Right,
45,9,1,2.2492073000003074,['n'],0,left,['8'],4,1.3678271000007953,0.4,0,AccAcc,37,18,Woman,Right,
46,9,1,1.634271400000216,['n'],1,right,['9'],5,0.25155720000020665,0.4,0,AccAcc,37,18,Woman,Right,
47,9,1,0.7510211000007985,['n'],1,right,['9'],5,0.15153800000007323,0.2,0,AccAcc,37,18,Woman,Right,
48,9,1,0.9501547999998365,['c'],1,left,['9'],5,0.1680413000003682,0.4,0,AccAcc,37,18,Woman,Right,
49,9,1,1.217234899999312,['c'],0,right,['3'],3,0.8678552000001218,0.1,0,AccAcc,37,18,Woman,Right,
50,9,1,3.599895899999865,['c'],0,right,['8'],4,1.4180120999999417,0.2,0,AccAcc,37,18,Woman,Right,
51,9,1,1.0837151999994603,['n'],0,left,['9'],5,0.2513413999995464,0.1,0,AccAcc,37,18,Woman,Right,
52,9,1,1.5003630999999586,['n'],0,left,['9'],5,0.2175030999997034,0.4,0,AccAcc,37,18,Woman,Right,
53,9,1,1.1336049000001367,['c'],1,left,['9'],5,0.28489749999971536,0.2,0,AccAcc,37,18,Woman,Right,
54,9,1,0.9494520999996894,['c'],1,left,['8'],4,0.5684628000008161,0.4,0,AccAcc,37,18,Woman,Right,
55,9,1,0.867301100000077,['c'],1,left,['8'],4,0.18493870000020252,0.1,0,AccAcc,37,18,Woman,Right,
56,9,1,0.8157781999998406,['c'],0,right,['8'],4,0.20249780000085593,0.1,0,AccAcc,37,18,Woman,Right,
57,9,1,1.2339634999998452,['c'],0,right,['8'],4,1.683853700000327,0.4,0,AccAcc,37,18,Woman,Right,
58,9,1,1.0168422999995528,['c'],0,right,['0'],6,0.23462150000068505,0.2,0,AccAcc,37,18,Woman,Right,
59,9,1,0.8004028000004837,['n'],0,left,['8'],4,0.9345811000002868,0.1,0,AccAcc,37,18,Woman,Right,
0,10,1,0.5683059000002686,['c'],1,left,['2'],2,1.1341474000000744,0.1,0,FastAcc,37,18,Woman,Right,
1,10,1,0.7514756999999008,['n'],1,right,['9'],5,1.051310900000317,0.2,0,FastAcc,37,18,Woman,Right,
2,10,1,0.6501471000001402,['c'],1,left,['8'],4,2.101215400000001,0.4,0,FastAcc,37,18,Woman,Right,
3,10,1,0.5831664999996065,['n'],0,left,['0'],6,0.7683098999996218,0.1,0,FastAcc,37,18,Woman,Right,
4,10,1,0.8008816999999908,['n'],0,left,['9'],5,1.1848461999998108,0.2,0,FastAcc,37,18,Woman,Right,
5,10,1,0.4841083000001163,['c'],1,left,['2'],2,0.901514700000007,0.2,0,FastAcc,37,18,Woman,Right,
6,10,1,0.5822731999996904,['c'],1,left,['8'],4,1.1176337000006242,0.1,0,FastAcc,37,18,Woman,Right,
7,10,1,0.5850014000006922,['n'],0,left,['9'],5,0.9513206999999966,0.4,0,FastAcc,37,18,Woman,Right,
8,10,1,1.200539899999967,['c'],0,right,['9'],5,1.367323800000122,0.1,0,FastAcc,37,18,Woman,Right,
9,10,1,0.8004940000000715,['n'],1,right,['9'],5,0.685270699999819,0.2,0,FastAcc,37,18,Woman,Right,
10,10,1,0.7838959000000614,['c'],0,right,['8'],4,1.3346052999995663,0.2,0,FastAcc,37,18,Woman,Right,
11,10,1,0.9825835999999981,['n'],0,left,['0'],6,0.7022140999997646,0.1,0,FastAcc,37,18,Woman,Right,
12,10,1,0.583975399999872,['n'],1,right,['9'],5,0.9673230999997031,0.4,0,FastAcc,37,18,Woman,Right,
13,10,1,0.8180644000003667,['n'],1,right,['8'],4,0.8840993000003436,0.4,0,FastAcc,37,18,Woman,Right,
14,10,1,0.4839068999999654,['c'],1,left,['9'],5,1.8345245999998951,0.4,0,FastAcc,37,18,Woman,Right,
15,10,1,0.682381699999496,['c'],0,right,['1'],1,1.618658499999583,0.2,0,FastAcc,37,18,Woman,Right,
16,10,1,1.2999910999997155,['c'],1,left,['8'],4,1.0679973999995127,0.4,0,FastAcc,37,18,Woman,Right,
17,10,1,0.6836588000005577,['n'],1,right,['8'],4,0.4511404000004404,0.1,0,FastAcc,37,18,Woman,Right,
18,10,1,1.4821756999999707,['c'],1,left,['3'],3,1.2353821000006064,0.1,0,FastAcc,37,18,Woman,Right,
19,10,1,0.8831308999997418,['n'],1,right,['9'],5,0.601427299999159,0.4,0,FastAcc,37,18,Woman,Right,
20,10,1,0.9175145999997767,['n'],0,left,['9'],5,0.484519900000123,0.4,0,FastAcc,37,18,Woman,Right,
21,10,1,1.384300599999733,['n'],0,left,['3'],3,2.1672168000004604,0.2,0,FastAcc,37,18,Woman,Right,
22,10,1,1.0673580000002403,['c'],1,left,['8'],4,1.1848602999998548,0.1,0,FastAcc,37,18,Woman,Right,
23,10,1,0.7003929000002245,['n'],1,right,['0'],6,0.7505868999996892,0.4,0,FastAcc,37,18,Woman,Right,
24,10,1,1.217009599999983,['c'],0,right,['9'],5,0.6015393999996377,0.1,0,FastAcc,37,18,Woman,Right,
25,10,1,0.7002898999999161,['n'],1,right,['3'],3,0.817065399999592,0.2,0,FastAcc,37,18,Woman,Right,
26,10,1,1.0854034999993019,['n'],1,right,['2'],2,0.6008703999996214,0.2,0,FastAcc,37,18,Woman,Right,
27,10,1,0.5171217999995861,['n'],0,left,['2'],2,1.7346841999997196,0.4,0,FastAcc,37,18,Woman,Right,
28,10,1,0.5830592000002071,['c'],1,left,['0'],6,0.8018676000001506,0.4,0,FastAcc,37,18,Woman,Right,
29,10,1,0.5661345000007714,['n'],1,right,['9'],5,0.600813900000503,0.1,0,FastAcc,37,18,Woman,Right,
30,10,1,0.8162289000001692,['n'],1,right,['8'],4,0.4853717999994842,0.2,0,FastAcc,37,18,Woman,Right,
31,10,1,1.4670707000004768,['n'],1,right,['9'],5,0.5003919000000678,0.1,0,FastAcc,37,18,Woman,Right,
32,10,1,0.5839991000002556,['n'],1,right,['3'],3,1.0841159000001426,0.4,0,FastAcc,37,18,Woman,Right,
33,10,1,0.8838674999997238,['n'],1,right,['9'],5,0.21806949999972858,0.1,0,FastAcc,37,18,Woman,Right,
34,10,1,0.9668934999999692,['c'],1,left,['9'],5,0.30130449999978737,0.4,0,FastAcc,37,18,Woman,Right,
35,10,1,0.6667162000003373,['n'],1,right,['0'],6,1.3674120999994557,0.2,0,FastAcc,37,18,Woman,Right,
36,10,1,0.5162129000000277,['n'],1,right,['0'],6,0.9353629999995974,0.4,0,FastAcc,37,18,Woman,Right,
37,10,1,0.8838632000006328,['n'],1,right,['3'],3,0.8680073000004995,0.2,0,FastAcc,37,18,Woman,Right,
38,10,1,0.9003982000003816,['n'],1,right,['9'],5,0.4017273999997997,0.4,0,FastAcc,37,18,Woman,Right,
39,10,1,0.7670454999997673,['n'],1,right,['9'],5,0.23455970000031812,0.1,0,FastAcc,37,18,Woman,Right,
40,10,1,0.6172670999994807,['c'],0,right,['9'],5,1.1346604999998817,0.2,0,FastAcc,37,18,Woman,Right,
41,10,1,0.7329601999999795,['n'],0,left,['2'],2,0.7342948999994405,0.1,0,FastAcc,37,18,Woman,Right,
42,10,1,0.6494342999994842,['n'],0,left,['1'],1,1.3509280999996918,0.2,0,FastAcc,37,18,Woman,Right,
43,10,1,1.8836935999997877,['n'],1,right,['3'],3,1.784421199999997,0.4,0,FastAcc,37,18,Woman,Right,
44,10,1,0.4842367999999624,['c'],1,left,['0'],6,0.751600800000233,0.4,0,FastAcc,37,18,Woman,Right,
45,10,1,0.8503495000004477,['c'],1,left,['0'],6,0.5014884000001985,0.4,0,FastAcc,37,18,Woman,Right,
46,10,1,0.6844914000002973,['n'],1,right,['8'],4,1.401242199999615,0.1,0,FastAcc,37,18,Woman,Right,
47,10,1,0.6845120999996652,['c'],1,left,['0'],6,0.41807729999982257,0.4,0,FastAcc,37,18,Woman,Right,
48,10,1,0.7335314000001745,['c'],1,left,['0'],6,0.3180544999995618,0.4,0,FastAcc,37,18,Woman,Right,
49,10,1,1.8004471000003832,['n'],0,left,['1'],1,0.9847415000003821,0.1,0,FastAcc,37,18,Woman,Right,
50,10,1,0.9510018999999375,['c'],1,left,['9'],5,0.9347193999992669,0.2,0,FastAcc,37,18,Woman,Right,
51,10,1,0.8336872999998377,['c'],1,left,['3'],3,1.0013413999995464,0.2,0,FastAcc,37,18,Woman,Right,
52,10,1,0.8010322000000087,['n'],1,right,['3'],3,0.7515815000006114,0.2,0,FastAcc,37,18,Woman,Right,
53,10,1,0.7174565999994229,['n'],0,left,['9'],5,0.46695180000006076,0.1,0,FastAcc,37,18,Woman,Right,
54,10,1,0.9014531000002535,['c'],1,left,['9'],5,0.33475110000017594,0.2,0,FastAcc,37,18,Woman,Right,
55,10,1,0.8339652000004207,['n'],1,right,['9'],5,0.3013832000006005,0.1,0,FastAcc,37,18,Woman,Right,
56,10,1,0.7996999000006326,['c'],1,left,['9'],5,0.25143870000010793,0.2,0,FastAcc,37,18,Woman,Right,
57,10,1,0.9837069999994128,['n'],1,right,['9'],5,0.18462510000063048,0.2,0,FastAcc,37,18,Woman,Right,
58,10,1,0.8169828000000052,['c'],1,left,['0'],6,1.3845401999997193,0.1,0,FastAcc,37,18,Woman,Right,
59,10,1,0.9002457999995386,['n'],1,right,['1'],1,1.2844736999995803,0.1,0,FastAcc,37,18,Woman,Right,
0,11,1,0.8501622000003408,['n'],1,right,['0'],6,0.1858449000001201,0.4,0,FastFast,37,18,Woman,Right,
1,11,1,0.5833908000004158,['n'],0,left,['0'],6,0.1847551000000749,0.2,0,FastFast,37,18,Woman,Right,
2,11,1,0.5833705000004556,['c'],1,left,['2'],2,0.3355470999995305,0.2,0,FastFast,37,18,Woman,Right,
3,11,1,0.8336890999999014,['c'],0,right,['9'],5,0.15135670000017853,0.2,0,FastFast,37,18,Woman,Right,
4,11,1,0.700684999999794,['n'],1,right,['9'],5,0.21799160000045958,0.1,0,FastFast,37,18,Woman,Right,
5,11,1,0.5671547000001738,['c'],1,left,['9'],5,0.2013928999995187,0.2,0,FastFast,37,18,Woman,Right,
6,11,1,0.6839690999995582,['n'],1,right,['9'],5,0.23517989999982092,0.4,0,FastFast,37,18,Woman,Right,
7,11,1,0.9005192999993596,['c'],1,left,['9'],5,0.183588900000359,0.1,0,FastFast,37,18,Woman,Right,
8,11,1,0.7006153000002087,['n'],1,right,['0'],6,0.2182764999997744,0.4,0,FastFast,37,18,Woman,Right,
9,11,1,0.6669701000000714,['c'],1,left,['9'],5,0.1836769000001368,0.4,0,FastFast,37,18,Woman,Right,
10,11,1,0.8827225000004546,['n'],1,right,['0'],6,0.18544399999973393,0.2,0,FastFast,37,18,Woman,Right,
11,11,1,0.8172703000000183,['c'],0,right,['9'],5,0.25133050000022195,0.2,0,FastFast,37,18,Woman,Right,
12,11,1,0.7842037999998865,['n'],0,left,['2'],2,0.3345651999998154,0.4,0,FastFast,37,18,Woman,Right,
13,11,1,1.3006021999999575,['n'],1,right,['2'],2,0.1846636000000217,0.1,0,FastFast,37,18,Woman,Right,
14,11,1,1.566913900000145,['c'],0,right,['0'],6,0.19958059999953548,0.2,0,FastFast,37,18,Woman,Right,
15,11,1,0.9517313999995167,['n'],1,right,['9'],5,0.16795809999985067,0.2,0,FastFast,37,18,Woman,Right,
16,11,1,0.9505566999996518,['c'],1,left,['8'],4,0.2512698000000455,0.2,0,FastFast,37,18,Woman,Right,
17,11,1,0.6008475999997245,['n'],1,right,['9'],5,0.2510621999999785,0.4,0,FastFast,37,18,Woman,Right,
18,11,1,1.4672406999998202,['c'],1,left,['8'],4,0.2502804000005199,0.1,0,FastFast,37,18,Woman,Right,
19,11,1,0.8828365999997914,['c'],1,left,"['0', '9']",6,0.23597520000021177,0.4,0,FastFast,37,18,Woman,Right,
20,11,1,0.6172132000001511,['c'],1,left,['0'],6,0.20010939999974653,0.1,0,FastFast,37,18,Woman,Right,
21,11,1,0.6684508000007554,['c'],1,left,['0'],6,0.21812370000043302,0.4,0,FastFast,37,18,Woman,Right,
22,11,1,0.7170089999999618,['n'],1,right,['0'],6,0.20116759999928036,0.4,0,FastFast,37,18,Woman,Right,
23,11,1,0.584480600000461,['c'],1,left,['0'],6,0.21728339999935997,0.4,0,FastFast,37,18,Woman,Right,
24,11,1,0.5517386000001352,['c'],1,left,['0'],6,0.18467510000027687,0.1,0,FastFast,37,18,Woman,Right,
25,11,1,1.2175403000001097,['c'],1,left,['9'],5,0.23467490000075486,0.4,0,FastFast,37,18,Woman,Right,
26,11,1,0.8492104999995718,['n'],1,right,['0'],6,0.23485189999973954,0.4,0,FastFast,37,18,Woman,Right,
27,11,1,0.6838053999999829,['c'],0,right,['9'],5,0.2673408999999083,0.1,0,FastFast,37,18,Woman,Right,
28,11,1,0.7506882999996378,['c'],1,left,['0'],6,0.21876439999959985,0.4,0,FastFast,37,18,Woman,Right,
29,11,1,0.6503978000000643,['c'],1,left,['0'],6,0.2013755999996647,0.4,0,FastFast,37,18,Woman,Right,
30,11,1,0.7840083000000959,['c'],1,left,['0'],6,0.15126089999921533,0.2,0,FastFast,37,18,Woman,Right,
31,11,1,1.1325828999997611,['c'],0,right,['9'],5,0.16883280000001832,0.1,0,FastFast,37,18,Woman,Right,
32,11,1,1.1668682999998055,['c'],1,left,['9'],5,0.1680036999996446,0.1,0,FastFast,37,18,Woman,Right,
33,11,1,0.5832110999999713,['c'],1,left,['8'],4,0.1684704999997848,0.4,0,FastFast,37,18,Woman,Right,
34,11,1,0.7663391000005504,['n'],1,right,['0'],6,0.20172089999960008,0.2,0,FastFast,37,18,Woman,Right,
35,11,1,0.5506380999995599,['n'],1,right,['0'],6,0.21791339999981574,0.1,0,FastFast,37,18,Woman,Right,
36,11,1,1.2175421000001734,['n'],0,left,['2'],2,0.2513152999999875,0.1,0,FastFast,37,18,Woman,Right,
37,11,1,0.7337146999998367,['n'],0,left,['1'],1,0.16694569999981468,0.1,0,FastFast,37,18,Woman,Right,
38,11,1,0.618216100000609,['c'],1,left,['0'],6,0.21834380000018427,0.2,0,FastFast,37,18,Woman,Right,
39,11,1,0.8671413000001849,['n'],1,right,['0'],6,0.218197300000611,0.1,0,FastFast,37,18,Woman,Right,
40,11,1,1.134388200000103,['n'],0,left,['2'],2,0.2347146000001885,0.1,0,FastFast,37,18,Woman,Right,
41,11,1,1.0340279000001829,['c'],1,left,['0'],6,0.1683775000001333,0.4,0,FastFast,37,18,Woman,Right,
42,11,1,0.5829547000003004,['c'],1,left,['0'],6,0.16812669999944774,0.4,0,FastFast,37,18,Woman,Right,
43,11,1,0.6836730999993961,['n'],1,right,['0'],6,0.16678150000007008,0.4,0,FastFast,37,18,Woman,Right,
44,11,1,0.600815099999636,['c'],1,left,['0'],6,0.20170710000002146,0.2,0,FastFast,37,18,Woman,Right,
45,11,1,0.5674781999996412,['n'],1,right,['0'],6,0.20143049999933282,0.2,0,FastFast,37,18,Woman,Right,
46,11,1,1.2820561999997153,['c'],0,right,['0'],6,0.18440609999925073,0.1,0,FastFast,37,18,Woman,Right,
47,11,1,0.9518941000005725,['c'],0,right,['3'],3,0.4509728000002724,0.2,0,FastFast,37,18,Woman,Right,
48,11,1,1.0510021000000052,['c'],1,left,['0'],6,0.15076379999936762,0.2,0,FastFast,37,18,Woman,Right,
49,11,1,1.4172556999992594,['n'],1,right,['3'],3,0.2508014999993975,0.2,0,FastFast,37,18,Woman,Right,
50,11,1,1.0678057000004628,['n'],1,right,['8'],4,0.20146740000018326,0.1,0,FastFast,37,18,Woman,Right,
51,11,1,1.1672379999999976,['c'],1,left,['9'],5,0.18496780000168656,0.4,0,FastFast,37,18,Woman,Right,
52,11,1,1.0502856000002794,['n'],1,right,['9'],5,0.16798589999962132,0.1,0,FastFast,37,18,Woman,Right,
53,11,1,0.7997025000004214,['c'],1,left,['9'],5,0.13461290000122972,0.2,0,FastFast,37,18,Woman,Right,
54,11,1,0.700149499998588,['n'],1,right,['8'],4,0.16830450000088604,0.1,0,FastFast,37,18,Woman,Right,
55,11,1,1.1836208000004262,['c'],1,left,['0'],6,0.20116869999947085,0.4,0,FastFast,37,18,Woman,Right,
56,11,1,1.4833196999989013,['n'],1,right,['3'],3,0.2001419000007445,0.1,0,FastFast,37,18,Woman,Right,
57,11,1,0.7004888999999821,['c'],0,right,['0'],6,0.11656779999975697,0.2,0,FastFast,37,18,Woman,Right,
58,11,1,1.384307300000728,['n'],1,right,['9'],5,0.18498249999902328,0.1,0,FastFast,37,18,Woman,Right,
59,11,1,0.6333036999985779,['c'],0,right,['9'],5,0.21809089999987918,0.2,0,FastFast,37,18,Woman,Right,
0,12,1,1.0522215999990294,['n'],1,right,['9'],5,0.4173166999989917,0.1,0,AccFast,37,18,Woman,Right,
1,12,1,3.0664231999999174,['n'],0,left,['8'],4,0.06853059999957622,0.2,0,AccFast,37,18,Woman,Right,
2,12,1,1.1847350000007282,['c'],1,left,['8'],4,0.2512970999996469,0.2,0,AccFast,37,18,Woman,Right,
3,12,1,0.7503876000009768,['n'],1,right,['0'],6,0.30013510000026145,0.4,0,AccFast,37,18,Woman,Right,
4,12,1,3.483725800000684,['n'],1,right,['0'],6,0.23501450000003388,0.2,0,AccFast,37,18,Woman,Right,
5,12,1,0.7829962999985582,['n'],1,right,['9'],5,0.1840831999998045,0.1,0,AccFast,37,18,Woman,Right,
6,12,1,1.2665121999998519,['n'],1,right,['9'],5,0.25126170000112324,0.4,0,AccFast,37,18,Woman,Right,
7,12,1,2.100660899999639,['c'],0,right,['9'],5,0.11837269999887212,0.2,0,AccFast,37,18,Woman,Right,
8,12,1,0.9836622000002535,['c'],1,left,['9'],5,0.15253609999854234,0.2,0,AccFast,37,18,Woman,Right,
9,12,1,0.8999069000001327,['c'],1,left,['0'],6,0.21816320000107225,0.4,0,AccFast,37,18,Woman,Right,
10,12,1,0.6503106000000116,['c'],1,left,['9'],5,0.2181684999995923,0.2,0,AccFast,37,18,Woman,Right,
11,12,1,1.267038899999534,['n'],1,right,['9'],5,0.2014467999997578,0.1,0,AccFast,37,18,Woman,Right,
12,12,1,0.8005438999989565,['c'],1,left,['0'],6,0.31764379999913217,0.2,0,AccFast,37,18,Woman,Right,
13,12,1,1.8323356000000786,['c'],1,left,['3'],3,0.1852854999997362,0.1,0,AccFast,37,18,Woman,Right,
14,12,1,1.215931400000045,['c'],0,right,['2'],2,0.2851346999996167,0.1,0,AccFast,37,18,Woman,Right,
15,12,1,0.8671850999999151,['n'],1,right,['0'],6,0.20155680000061693,0.4,0,AccFast,37,18,Woman,Right,
16,12,1,0.6324704999988171,['n'],1,right,['0'],6,0.21825560000070254,0.4,0,AccFast,37,18,Woman,Right,
17,12,1,1.5006193999997777,['n'],1,right,['9'],5,0.2017517999993288,0.4,0,AccFast,37,18,Woman,Right,
18,12,1,1.667167800000243,['n'],1,right,['2'],2,0.8510143000003154,0.1,0,AccFast,37,18,Woman,Right,
19,12,1,1.3830111000006582,['n'],0,left,['2'],2,0.06786399999873538,0.1,0,AccFast,37,18,Woman,Right,
20,12,1,1.8504838000008021,['c'],1,left,['9'],5,0.20034670000131882,0.1,0,AccFast,37,18,Woman,Right,
21,12,1,0.8013217000006989,['c'],1,left,['0'],6,0.2183428999996977,0.4,0,AccFast,37,18,Woman,Right,
22,12,1,0.6672319999997853,['c'],1,left,['0'],6,0.13460400000076334,0.2,0,AccFast,37,18,Woman,Right,
23,12,1,0.8338201000005938,['c'],1,left,['0'],6,0.15168630000152916,0.1,0,AccFast,37,18,Woman,Right,
24,12,1,4.099869300000137,['n'],0,left,['8'],4,0.16691220000029716,0.2,0,AccFast,37,18,Woman,Right,
25,12,1,0.767623799998546,['n'],1,right,['8'],4,0.15142529999866383,0.2,0,AccFast,37,18,Woman,Right,
26,12,1,0.6326066999990871,['n'],1,right,['9'],5,0.2181414999995468,0.2,0,AccFast,37,18,Woman,Right,
27,12,1,1.0004625999990822,['c'],1,left,['9'],5,0.16802279999865277,0.1,0,AccFast,37,18,Woman,Right,
28,12,1,0.8507556000004115,['n'],1,right,['9'],5,0.23471280000012484,0.4,0,AccFast,37,18,Woman,Right,
29,12,1,0.8172665000001871,['c'],1,left,['0'],6,0.2014908999990439,0.2,0,AccFast,37,18,Woman,Right,
30,12,1,0.7002704999995331,['n'],1,right,['0'],6,0.21778359999916574,0.2,0,AccFast,37,18,Woman,Right,
31,12,1,0.7330012000002171,['n'],1,right,['0'],6,0.16812410000056843,0.2,0,AccFast,37,18,Woman,Right,
32,12,1,0.8665448000010656,['c'],1,left,['0'],6,0.18493709999893326,0.4,0,AccFast,37,18,Woman,Right,
33,12,1,0.5839108000000124,['c'],1,left,['0'],6,0.13499849999971048,0.4,0,AccFast,37,18,Woman,Right,
34,12,1,0.8159186000011687,['c'],1,left,['9'],5,0.13549539999985427,0.2,0,AccFast,37,18,Woman,Right,
35,12,1,1.4670193000001746,['c'],1,left,['9'],5,0.13450340000053984,0.4,0,AccFast,37,18,Woman,Right,
36,12,1,0.7178726000001916,['n'],1,right,['0'],6,0.1846127000007982,0.4,0,AccFast,37,18,Woman,Right,
37,12,1,0.7007321999990381,['c'],1,left,['0'],6,0.15142459999879065,0.4,0,AccFast,37,18,Woman,Right,
38,12,1,1.9170937999988382,['n'],1,right,['0'],6,0.21795639999982086,0.1,0,AccFast,37,18,Woman,Right,
39,12,1,2.5170522000007622,['c'],1,left,['0'],6,0.28467620000083116,0.1,0,AccFast,37,18,Woman,Right,
40,12,1,1.217119900000398,['n'],1,right,['0'],6,0.8669272000006458,0.4,0,AccFast,37,18,Woman,Right,
41,12,1,0.9493208000003506,['c'],1,left,['0'],6,0.43472769999971206,0.4,0,AccFast,37,18,Woman,Right,
42,12,1,2.067806000000928,['n'],0,left,['2'],2,0.1347643999997672,0.1,0,AccFast,37,18,Woman,Right,
43,12,1,1.29932910000025,['c'],1,left,['0'],6,0.1349651000000449,0.1,0,AccFast,37,18,Woman,Right,
44,12,1,0.7001987000003282,['n'],1,right,['9'],5,0.13503429999946093,0.4,0,AccFast,37,18,Woman,Right,
45,12,1,1.1836628000000928,['c'],1,left,['0'],6,0.10139959999833081,0.1,0,AccFast,37,18,Woman,Right,
46,12,1,0.8847582999987935,['c'],0,right,['0'],6,0.2182276000003185,0.4,0,AccFast,37,18,Woman,Right,
47,12,1,1.5508081000007223,['n'],1,right,['0'],6,0.16801490000034391,0.2,0,AccFast,37,18,Woman,Right,
48,12,1,0.7837257999999565,['c'],1,left,['0'],6,0.20026959999995597,0.2,0,AccFast,37,18,Woman,Right,
49,12,1,2.9507036000013613,['n'],0,left,['2'],2,0.2179350999995222,0.2,0,AccFast,37,18,Woman,Right,
50,12,1,1.4336124000001291,['c'],0,right,['9'],5,0.21764230000007956,0.1,0,AccFast,37,18,Woman,Right,
51,12,1,0.9511082000008173,['c'],1,left,['0'],6,0.16803989999971236,0.4,0,AccFast,37,18,Woman,Right,
52,12,1,0.96720649999952,['n'],1,right,['9'],5,0.23376270000153454,0.1,0,AccFast,37,18,Woman,Right,
53,12,1,0.7507864999988669,['n'],1,right,['0'],6,0.20134580000012647,0.4,0,AccFast,37,18,Woman,Right,
54,12,1,0.6674395000009099,['n'],1,right,['0'],6,0.2184142999994947,0.2,0,AccFast,37,18,Woman,Right,
55,12,1,0.6660142000000633,['n'],1,right,['0'],6,0.18486029999985476,0.1,0,AccFast,37,18,Woman,Right,
56,12,1,0.7508218000002671,['n'],1,right,['0'],6,0.20175620000009076,0.2,0,AccFast,37,18,Woman,Right,
57,12,1,1.8670390999996016,['c'],1,left,['1'],1,0.3354027000004862,0.1,0,AccFast,37,18,Woman,Right,
58,12,1,1.0163424000002124,['n'],1,right,['9'],5,0.20030790000055276,0.4,0,AccFast,37,18,Woman,Right,
59,12,1,0.9020189999991999,['n'],0,left,['9'],5,0.2024548000008508,0.1,0,AccFast,37,18,Woman,Right,
0,13,1,1.3170002000006207,['n'],1,right,['9'],5,0.6352578999994876,0.4,0,AccAcc,37,18,Woman,Right,
1,13,1,1.6013391000014963,['c'],1,left,['8'],4,0.46666559999903257,0.2,0,AccAcc,37,18,Woman,Right,
2,13,1,1.6669390999995812,['c'],0,right,['8'],4,0.5013665999995283,0.1,0,AccAcc,37,18,Woman,Right,
3,13,1,0.916436599998633,['n'],1,right,['0'],6,0.28448650000063935,0.4,0,AccAcc,37,18,Woman,Right,
4,13,1,0.7831890999987081,['n'],1,right,['0'],6,0.23475120000148308,0.4,0,AccAcc,37,18,Woman,Right,
5,13,1,0.6673031999998784,['n'],1,right,['0'],6,0.19944159999977273,0.2,0,AccAcc,37,18,Woman,Right,
6,13,1,0.6504563999988022,['n'],1,right,['0'],6,0.16873780000059924,0.2,0,AccAcc,37,18,Woman,Right,
7,13,1,1.200324699999328,['n'],1,right,['0'],6,0.20108520000030694,0.1,0,AccAcc,37,18,Woman,Right,
8,13,1,0.8659714000004897,['n'],1,right,['9'],5,0.15227429999868036,0.4,0,AccAcc,37,18,Woman,Right,
9,13,1,1.7328598000003694,['c'],1,left,['8'],4,0.20146959999874525,0.2,0,AccAcc,37,18,Woman,Right,
10,13,1,1.1164511999995739,['n'],1,right,['9'],5,0.2023535999996966,0.1,0,AccAcc,37,18,Woman,Right,
11,13,1,1.3841118999989703,['c'],0,right,['8'],4,0.18442419999882986,0.1,0,AccAcc,37,18,Woman,Right,
12,13,1,1.2171508999999787,['c'],1,left,['9'],5,0.33352650000051653,0.2,0,AccAcc,37,18,Woman,Right,
13,13,1,0.9507159000004322,['c'],1,left,['0'],6,0.28445020000071963,0.4,0,AccAcc,37,18,Woman,Right,
14,13,1,0.8174859999999171,['n'],1,right,['0'],6,0.2512635999992199,0.4,0,AccAcc,37,18,Woman,Right,
15,13,1,0.9503079999994952,['c'],1,left,['0'],6,0.20150459999968007,0.4,0,AccAcc,37,18,Woman,Right,
16,13,1,0.8002330999988772,['n'],1,right,['0'],6,0.2516955000010057,0.2,0,AccAcc,37,18,Woman,Right,
17,13,1,0.6341207999994367,['c'],1,left,['0'],6,0.2179813999991893,0.4,0,AccAcc,37,18,Woman,Right,
18,13,1,0.7848824000011518,['c'],1,left,['9'],5,0.184924699999101,0.4,0,AccAcc,37,18,Woman,Right,
19,13,1,0.8318244999991293,['c'],1,left,['9'],5,0.16800830000101996,0.2,0,AccAcc,37,18,Woman,Right,
20,13,1,3.632327499999519,['n'],0,left,['2'],2,1.217985299999782,0.4,0,AccAcc,37,18,Woman,Right,
21,13,1,2.117155100000673,['n'],0,left,['3'],3,0.4670548999984021,0.1,0,AccAcc,37,18,Woman,Right,
22,13,1,0.8170343000001594,['n'],0,left,['9'],5,0.3179356000000553,0.4,0,AccAcc,37,18,Woman,Right,
23,13,1,4.266389000000345,['c'],0,right,['3'],3,1.1833980999999767,0.1,0,AccAcc,37,18,Woman,Right,
24,13,1,0.8178269,['n'],1,right,['9'],5,0.21807210000042687,0.2,0,AccAcc,37,18,Woman,Right,
25,13,1,0.7993666000002122,['n'],0,left,['9'],5,0.20091520000096352,0.2,0,AccAcc,37,18,Woman,Right,
26,13,1,1.4166312999986985,['c'],1,left,['9'],5,0.2007343999994191,0.1,0,AccAcc,37,18,Woman,Right,
27,13,1,1.6671109999988403,['n'],0,left,['2'],2,1.0014012999999977,0.4,0,AccAcc,37,18,Woman,Right,
28,13,1,1.3337814000005892,['n'],1,right,['9'],5,0.25143409999873256,0.2,0,AccAcc,37,18,Woman,Right,
29,13,1,1.900258899999244,['n'],1,right,['0'],6,0.28340229999957955,0.4,0,AccAcc,37,18,Woman,Right,
30,13,1,0.7842094999996334,['n'],1,right,['0'],6,0.26789629999984754,0.2,0,AccAcc,37,18,Woman,Right,
31,13,1,1.783598100000745,['c'],1,left,['9'],5,0.25244779999957245,0.4,0,AccAcc,37,18,Woman,Right,
32,13,1,0.6664137000007031,['n'],1,right,['0'],6,0.1835661999994045,0.4,0,AccAcc,37,18,Woman,Right,
33,13,1,0.7008462000012514,['n'],1,right,['0'],6,0.18321070000092732,0.2,0,AccAcc,37,18,Woman,Right,
34,13,1,0.8342213999985688,['c'],1,left,['9'],5,0.7679129000007379,0.1,0,AccAcc,37,18,Woman,Right,
35,13,1,1.0668650000006892,['c'],1,left,['9'],5,0.2178406000002724,0.2,0,AccAcc,37,18,Woman,Right,
36,13,1,1.6158067999986088,['n'],0,left,['3'],3,0.3021816000000399,0.1,0,AccAcc,37,18,Woman,Right,
37,13,1,0.900550000000294,['c'],1,left,['9'],5,0.2668554000010772,0.2,0,AccAcc,37,18,Woman,Right,
38,13,1,0.7497039000008954,['c'],1,left,['9'],5,0.1691315999996732,0.2,0,AccAcc,37,18,Woman,Right,
39,13,1,2.7674447999997938,['c'],0,right,['8'],4,0.168122900000526,0.2,0,AccAcc,37,18,Woman,Right,
40,13,1,1.767067799999495,['c'],1,left,['3'],3,1.234393499998987,0.1,0,AccAcc,37,18,Woman,Right,
41,13,1,2.083695200000875,['n'],1,right,['8'],4,0.9183872000012343,0.1,0,AccAcc,37,18,Woman,Right,
42,13,1,0.8506319000007352,['c'],1,left,['0'],6,0.2505226000012044,0.4,0,AccAcc,37,18,Woman,Right,
43,13,1,2.3506816000008257,['n'],1,right,['9'],5,0.31748220000008587,0.1,0,AccAcc,37,18,Woman,Right,
44,13,1,1.2484829000004538,['n'],1,right,['2'],2,0.38611970000056317,0.1,0,AccAcc,37,18,Woman,Right,
45,13,1,2.5337533999991138,['n'],1,right,['9'],5,0.30003190000024915,0.1,0,AccAcc,37,18,Woman,Right,
46,13,1,2.5489662999989378,['c'],0,right,['9'],5,0.2189894999992248,0.1,0,AccAcc,37,18,Woman,Right,
47,13,1,5.0000107000014395,x,-99,right,none,-99,-99,0.1,1,AccAcc,37,18,Woman,Right,
48,13,1,1.0513410000003205,['c'],1,left,['9'],5,0.3016004000000976,0.2,0,AccAcc,37,18,Woman,Right,
49,13,1,1.0168799999992189,['c'],0,right,['9'],5,0.4668959000009636,0.1,0,AccAcc,37,18,Woman,Right,
50,13,1,0.9164946999990207,['c'],1,left,['0'],6,0.20175519999975222,0.4,0,AccAcc,37,18,Woman,Right,
51,13,1,0.8845798000002105,['n'],0,left,['9'],5,0.28484560000106285,0.1,0,AccAcc,37,18,Woman,Right,
52,13,1,0.701355400000466,['n'],1,right,['0'],6,0.2511575000007724,0.2,0,AccAcc,37,18,Woman,Right,
53,13,1,1.1505246999986412,['c'],0,right,['0'],6,0.25145919999886246,0.4,0,AccAcc,37,18,Woman,Right,
54,13,1,0.7171620999997685,['c'],1,left,['0'],6,0.28409759999885864,0.1,0,AccAcc,37,18,Woman,Right,
55,13,1,0.667483600000196,['c'],1,left,['0'],6,0.23488989999896148,0.4,0,AccAcc,37,18,Woman,Right,
56,13,1,0.6176125000001775,['c'],1,left,['0'],6,0.20149669999955222,0.4,0,AccAcc,37,18,Woman,Right,
57,13,1,0.7505364999997255,['c'],1,left,['0'],6,0.18402270000115095,0.2,0,AccAcc,37,18,Woman,Right,
58,13,1,0.9497057999997196,['c'],0,right,['0'],6,0.13464190000013332,0.1,0,AccAcc,37,18,Woman,Right,
59,13,1,1.5169743000005838,['n'],0,left,['8'],4,0.28494320000027074,0.2,0,AccAcc,37,18,Woman,Right,
0,14,1,0.6337698999996064,['n'],1,right,['0'],6,0.33467079999900307,0.4,0,FastAcc,37,18,Woman,Right,
1,14,1,0.7335657000003266,['n'],1,right,['0'],6,0.20148629999857803,0.4,0,FastAcc,37,18,Woman,Right,
2,14,1,0.7336315000011382,['c'],1,left,['9'],5,0.250790699999925,0.1,0,FastAcc,37,18,Woman,Right,
3,14,1,0.8003783999993175,['n'],1,right,['0'],6,0.18343850000019302,0.4,0,FastAcc,37,18,Woman,Right,
4,14,1,0.46811329999945883,['c'],1,left,['9'],5,0.3175523999998404,0.2,0,FastAcc,37,18,Woman,Right,
5,14,1,0.6671446000000287,['c'],1,left,['0'],6,0.134555000000546,0.1,0,FastAcc,37,18,Woman,Right,
6,14,1,0.48229879999962577,['n'],1,right,['9'],5,0.16830040000058943,0.4,0,FastAcc,37,18,Woman,Right,
7,14,1,0.6176410000007309,['n'],1,right,['9'],5,0.2671769000007771,0.4,0,FastAcc,37,18,Woman,Right,
8,14,1,0.7834186000000045,['n'],1,right,['2'],2,1.2847732999998698,0.4,0,FastAcc,37,18,Woman,Right,
9,14,1,0.8004899999996269,['c'],0,right,['2'],2,0.5680432000008295,0.2,0,FastAcc,37,18,Woman,Right,
10,14,1,1.5832104000000982,['c'],0,right,['8'],4,0.4351227999995899,0.1,0,FastAcc,37,18,Woman,Right,
11,14,1,0.6163929999984248,['n'],1,right,['9'],5,0.5013536999995267,0.2,0,FastAcc,37,18,Woman,Right,
12,14,1,0.6504848000004131,['c'],1,left,['9'],5,1.7178788999990502,0.1,0,FastAcc,37,18,Woman,Right,
13,14,1,0.8513813000008668,['n'],0,left,['2'],2,1.767870600000606,0.2,0,FastAcc,37,18,Woman,Right,
14,14,1,0.8171285000007629,['c'],1,left,['0'],6,0.2846726999996463,0.4,0,FastAcc,37,18,Woman,Right,
15,14,1,1.0011830000003101,['c'],1,left,['0'],6,0.8998021999996126,0.4,0,FastAcc,37,18,Woman,Right,
16,14,1,0.684548299999733,['n'],1,right,['0'],6,0.2164984999999433,0.4,0,FastAcc,37,18,Woman,Right,
17,14,1,0.6346693999985291,['c'],1,left,['0'],6,0.15174979999937932,0.2,0,FastAcc,37,18,Woman,Right,
18,14,1,1.0670147000000725,['n'],0,left,['0'],6,0.20128610000028857,0.1,0,FastAcc,37,18,Woman,Right,
19,14,1,0.8668972999985272,['c'],0,right,['9'],5,0.251188700000057,0.4,0,FastAcc,37,18,Woman,Right,
20,14,1,0.8497641000012663,['n'],1,right,['3'],3,0.6177590999996028,0.2,0,FastAcc,37,18,Woman,Right,
21,14,1,0.7995699000002787,['c'],1,left,['9'],5,0.18514369999866176,0.2,0,FastAcc,37,18,Woman,Right,
22,14,1,0.5501650000005611,['n'],1,right,['8'],4,1.418606599998384,0.2,0,FastAcc,37,18,Woman,Right,
23,14,1,0.5655616000003647,['c'],1,left,['0'],6,0.3852437999994436,0.4,0,FastAcc,37,18,Woman,Right,
24,14,1,0.5505547999982809,['n'],1,right,['0'],6,0.21778980000090087,0.4,0,FastAcc,37,18,Woman,Right,
25,14,1,0.58401319999939,['c'],1,left,['0'],6,0.1849160000001575,0.4,0,FastAcc,37,18,Woman,Right,
26,14,1,0.5504839999994147,['n'],1,right,['0'],6,0.2179801000002044,0.2,0,FastAcc,37,18,Woman,Right,
27,14,1,0.6504985999999917,['c'],0,right,['0'],6,0.18487669999922218,0.2,0,FastAcc,37,18,Woman,Right,
28,14,1,0.6172294000007241,['c'],1,left,['0'],6,0.2017357999993692,0.4,0,FastAcc,37,18,Woman,Right,
29,14,1,0.9003806000000623,['n'],0,left,['2'],2,1.183065400000487,0.1,0,FastAcc,37,18,Woman,Right,
30,14,1,0.46689379999952507,['c'],1,left,['0'],6,0.3691552000000229,0.2,0,FastAcc,37,18,Woman,Right,
31,14,1,0.5996407000002364,['c'],1,left,['0'],6,0.20139089999975113,0.1,0,FastAcc,37,18,Woman,Right,
32,14,1,0.8495628000000579,['n'],1,right,['0'],6,0.25125069999921834,0.1,0,FastAcc,37,18,Woman,Right,
33,14,1,0.7663353999996616,['c'],1,left,['0'],6,0.20178709999890998,0.1,0,FastAcc,37,18,Woman,Right,
34,14,1,1.0172160000001895,['n'],0,left,['3'],3,0.7002050999999483,0.1,0,FastAcc,37,18,Woman,Right,
35,14,1,0.9348167000007379,['c'],1,left,['0'],6,0.18495810000058555,0.2,0,FastAcc,37,18,Woman,Right,
36,14,1,0.6005501999989065,['c'],1,left,['9'],5,0.1684940999984974,0.1,0,FastAcc,37,18,Woman,Right,
37,14,1,0.933596500000931,['c'],0,right,['0'],6,0.1684025999984442,0.2,0,FastAcc,37,18,Woman,Right,
38,14,1,0.6839661000012711,['c'],0,right,['8'],4,0.13455810000050406,0.1,0,FastAcc,37,18,Woman,Right,
39,14,1,0.5502653000003193,['c'],1,left,['9'],5,0.1514939000007871,0.1,0,FastAcc,37,18,Woman,Right,
40,14,1,0.683740200000102,['c'],0,right,['9'],5,0.21876870000050985,0.2,0,FastAcc,37,18,Woman,Right,
41,14,1,0.8835195000010572,['n'],1,right,['9'],5,0.3665553999999247,0.4,0,FastAcc,37,18,Woman,Right,
42,14,1,0.6177146999998513,['n'],1,right,['9'],5,0.3848151999991387,0.4,0,FastAcc,37,18,Woman,Right,
43,14,1,0.5826511999985087,['n'],1,right,['9'],5,0.30212720000054105,0.4,0,FastAcc,37,18,Woman,Right,
44,14,1,0.7171969999999419,['c'],1,left,['0'],6,0.2347939999999653,0.4,0,FastAcc,37,18,Woman,Right,
45,14,1,1.3503516000000673,['n'],0,left,['8'],4,1.134687000001577,0.2,0,FastAcc,37,18,Woman,Right,
46,14,1,0.6830263000010746,['c'],0,right,['2'],2,1.0179377999993449,0.1,0,FastAcc,37,18,Woman,Right,
47,14,1,0.5159655000006751,['c'],1,left,['0'],6,0.4346303000002081,0.4,0,FastAcc,37,18,Woman,Right,
48,14,1,0.5498779000008653,['n'],1,right,['9'],5,0.334757399999944,0.4,0,FastAcc,37,18,Woman,Right,
49,14,1,0.4998408000010386,['c'],1,left,['9'],5,1.2006336000013107,0.1,0,FastAcc,37,18,Woman,Right,
50,14,1,0.6669833999985713,['n'],1,right,['0'],6,1.4334651999997732,0.2,0,FastAcc,37,18,Woman,Right,
51,14,1,0.6003383999996004,['c'],1,left,['9'],5,1.033984399999099,0.1,0,FastAcc,37,18,Woman,Right,
52,14,1,1.1328754000005574,['c'],0,right,['3'],3,0.5682023999997909,0.1,0,FastAcc,37,18,Woman,Right,
53,14,1,1.0164464999998017,['c'],1,left,['8'],4,0.9346490999996604,0.1,0,FastAcc,37,18,Woman,Right,
54,14,1,0.9844735999995464,['c'],1,left,['8'],4,0.4333848999995098,0.2,0,FastAcc,37,18,Woman,Right,
55,14,1,0.5677942000002076,['n'],1,right,['9'],5,0.534626799999387,0.1,0,FastAcc,37,18,Woman,Right,
56,14,1,0.7496140000002924,['c'],1,left,['8'],4,0.3683593000005203,0.2,0,FastAcc,37,18,Woman,Right,
57,14,1,0.9681333000007726,['n'],1,right,['9'],5,0.2350643999998283,0.2,0,FastAcc,37,18,Woman,Right,
58,14,1,0.7505467999999382,['c'],1,left,['0'],6,0.25137739999991027,0.1,0,FastAcc,37,18,Woman,Right,
59,14,1,1.0824898999999277,['c'],0,right,['9'],5,0.20197270000062417,0.2,0,FastAcc,37,18,Woman,Right,
0,15,1,2.016477600000144,['c'],1,left,['8'],4,1.2193193000002793,0.4,0,FastFast,37,18,Woman,Right,
1,15,1,1.0995957000013732,['c'],0,right,['8'],4,0.10130410000056145,0.2,0,FastFast,37,18,Woman,Right,
2,15,1,0.8507235999986733,['c'],0,right,['8'],4,0.08352940000077069,0.4,0,FastFast,37,18,Woman,Right,
3,15,1,0.7510117000001628,['c'],1,left,['8'],4,0.1664029000003211,0.2,0,FastFast,37,18,Woman,Right,
4,15,1,0.8344840999998269,['c'],0,right,['9'],5,0.20130179999978282,0.1,0,FastFast,37,18,Woman,Right,
5,15,1,1.1994257000005746,['n'],1,right,['0'],6,0.2512621999994735,0.1,0,FastFast,37,18,Woman,Right,
6,15,1,0.8502497999998013,['c'],1,left,['0'],6,0.21781670000018494,0.1,0,FastFast,37,18,Woman,Right,
7,15,1,0.7504994000009901,['c'],1,left,['0'],6,0.3348237000009249,0.1,0,FastFast,37,18,Woman,Right,
8,15,1,0.9337584000004426,['n'],1,right,['0'],6,0.251444999999876,0.1,0,FastFast,37,18,Woman,Right,
9,15,1,0.583475700001145,['c'],0,right,['0'],6,0.21788240000023507,0.4,0,FastFast,37,18,Woman,Right,
10,15,1,0.8165741000011622,['c'],0,right,['2'],2,0.4013822999986587,0.1,0,FastFast,37,18,Woman,Right,
11,15,1,1.300482299999203,['c'],0,right,['8'],4,0.33483000000160246,0.2,0,FastFast,37,18,Woman,Right,
12,15,1,0.7513908999990235,['c'],0,right,['9'],5,0.20158599999922444,0.1,0,FastFast,37,18,Woman,Right,
13,15,1,0.6175839999996242,['n'],1,right,['9'],5,0.1680631999988691,0.2,0,FastFast,37,18,Woman,Right,
14,15,1,0.8343581000008271,['c'],1,left,['0'],6,0.31819070000165084,0.1,0,FastFast,37,18,Woman,Right,
15,15,1,0.5670659999996133,['c'],1,left,['0'],6,0.20152309999866702,0.4,0,FastFast,37,18,Woman,Right,
16,15,1,0.5168573999999353,['c'],1,left,['0'],6,0.2023963999999978,0.4,0,FastFast,37,18,Woman,Right,
17,15,1,0.8503487999987556,['c'],0,right,['9'],5,0.20197689999986324,0.2,0,FastFast,37,18,Woman,Right,
18,15,1,0.6337886000001163,['c'],1,left,['0'],6,0.20165780000024824,0.4,0,FastFast,37,18,Woman,Right,
19,15,1,0.6321401999994123,['c'],1,left,['0'],6,0.2190989000009722,0.2,0,FastFast,37,18,Woman,Right,
20,15,1,1.3162938999994367,['n'],1,right,['2'],2,0.13458210000135296,0.1,0,FastFast,37,18,Woman,Right,
21,15,1,0.7164491000003181,['n'],1,right,['9'],5,0.2013498999986041,0.1,0,FastFast,37,18,Woman,Right,
22,15,1,0.6668895000002522,['c'],1,left,['0'],6,0.16823350000049686,0.4,0,FastFast,37,18,Woman,Right,
23,15,1,1.0845033999994484,['n'],0,left,['3'],3,0.18473809999886726,0.1,0,FastFast,37,18,Woman,Right,
24,15,1,1.0169198000003234,['c'],1,left,['0'],6,0.26864000000023225,0.1,0,FastFast,37,18,Woman,Right,
25,15,1,0.6998782999999094,['n'],1,right,['0'],6,0.3188604999995732,0.4,0,FastFast,37,18,Woman,Right,
26,15,1,1.0342292000004818,['c'],1,left,['9'],5,0.18498629999885452,0.2,0,FastFast,37,18,Woman,Right,
27,15,1,0.583862900000895,['n'],1,right,['0'],6,0.21834370000033232,0.1,0,FastFast,37,18,Woman,Right,
28,15,1,0.6669488999996247,['c'],1,left,['0'],6,0.18477990000064892,0.4,0,FastFast,37,18,Woman,Right,
29,15,1,0.5007829000005586,['n'],1,right,['0'],6,0.18492779999905906,0.4,0,FastFast,37,18,Woman,Right,
30,15,1,0.7339148999999452,['n'],1,right,['0'],6,0.16740170000048238,0.4,0,FastFast,37,18,Woman,Right,
31,15,1,0.8004616999987775,['n'],0,left,['0'],6,0.15175089999866032,0.2,0,FastFast,37,18,Woman,Right,
32,15,1,0.8500586999998632,['c'],1,left,['0'],6,0.13465940000060073,0.2,0,FastFast,37,18,Woman,Right,
33,15,1,1.1664629999995668,['c'],0,right,['9'],5,0.1679813999999169,0.1,0,FastFast,37,18,Woman,Right,
34,15,1,1.3330855000003794,['n'],1,right,['3'],3,0.1503536999989592,0.2,0,FastFast,37,18,Woman,Right,
35,15,1,1.1989799999992101,['c'],0,right,['0'],6,0.11935240000093472,0.1,0,FastFast,37,18,Woman,Right,
36,15,1,1.1007237000012537,['n'],0,left,['2'],2,0.1522807000001194,0.2,0,FastFast,37,18,Woman,Right,
37,15,1,0.9501614999990124,['n'],1,right,['9'],5,0.18494749999990745,0.2,0,FastFast,37,18,Woman,Right,
38,15,1,1.8838128999996115,['c'],1,left,['3'],3,0.23480299999937415,0.2,0,FastFast,37,18,Woman,Right,
39,15,1,0.8676376000003074,['c'],1,left,['9'],5,0.16748360000019602,0.2,0,FastFast,37,18,Woman,Right,
40,15,1,0.6171298000008392,['c'],1,left,['0'],6,0.1683640999999625,0.1,0,FastFast,37,18,Woman,Right,
41,15,1,0.6672495999991952,['n'],1,right,['0'],6,0.18467059999966295,0.4,0,FastFast,37,18,Woman,Right,
42,15,1,0.9171815999998216,['c'],1,left,['9'],5,0.18488300000171876,0.1,0,FastFast,37,18,Woman,Right,
43,15,1,0.6664439000014681,['c'],1,left,['0'],6,0.18484410000019125,0.4,0,FastFast,37,18,Woman,Right,
44,15,1,0.6838915999996971,['c'],1,left,['0'],6,0.11854359999961162,0.1,0,FastFast,37,18,Woman,Right,
45,15,1,0.6337301000003208,['c'],1,left,['0'],6,0.1345854999999574,0.1,0,FastFast,37,18,Woman,Right,
46,15,1,0.7673756999993202,['n'],1,right,['0'],6,0.18475240000043414,0.4,0,FastFast,37,18,Woman,Right,
47,15,1,0.7831289000005199,['c'],0,right,['9'],5,0.21798409999973956,0.4,0,FastFast,37,18,Woman,Right,
48,15,1,0.867174499999237,['c'],1,left,['0'],6,0.3180644999993092,0.4,0,FastFast,37,18,Woman,Right,
49,15,1,0.7504102000002604,['n'],1,right,['9'],5,0.33524729999953706,0.2,0,FastFast,37,18,Woman,Right,
50,15,1,0.7506413999999495,['c'],1,left,['0'],6,0.15138609999848995,0.4,0,FastFast,37,18,Woman,Right,
51,15,1,1.0825404000006529,['c'],1,left,['9'],5,0.11716870000054769,0.4,0,FastFast,37,18,Woman,Right,
52,15,1,0.6672562000003381,['c'],0,right,['0'],6,0.3678139999992709,0.4,0,FastFast,37,18,Woman,Right,
53,15,1,2.1502330000002985,['c'],0,right,['9'],5,0.15083460000096238,0.1,0,FastFast,37,18,Woman,Right,
54,15,1,0.5845449999997072,['c'],1,left,['0'],6,0.11820399999851361,0.2,0,FastFast,37,18,Woman,Right,
55,15,1,1.1157516000002943,['n'],1,right,['0'],6,0.16858099999990372,0.2,0,FastFast,37,18,Woman,Right,
56,15,1,0.8672384999990754,['c'],0,right,['3'],3,0.3846860000012384,0.4,0,FastFast,37,18,Woman,Right,
57,15,1,1.1835411000010936,['c'],0,right,['3'],3,0.151285399999324,0.2,0,FastFast,37,18,Woman,Right,
58,15,1,0.7681849000000511,['c'],1,left,['9'],5,0.13474529999984952,0.2,0,FastFast,37,18,Woman,Right,
59,15,1,0.6506406999997125,['c'],1,left,['9'],5,0.2014119000014034,0.2,0,FastFast,37,18,Woman,Right,
