withinblocktrial,block,block_repetition,rt,resp,cor,cresp,conf_press,cj,rtconf,coherence,slow_trial,manipulation,sub,age,gender,handedness,
0,1,1,3.700070799999594,['n'],0,left,none,-99,-99,0.5,0,none,38,18,Woman,Right,
1,1,1,1.6828991000002134,['c'],1,left,none,-99,-99,0.5,0,none,38,18,Woman,Right,
2,1,1,1.4003738999999769,['n'],0,left,none,-99,-99,0.5,0,none,38,18,Woman,Right,
3,1,1,0.8168443000004117,['c'],1,left,none,-99,-99,0.5,0,none,38,18,Woman,Right,
4,1,1,1.7167641999994885,['c'],1,left,none,-99,-99,0.5,0,none,38,18,Woman,Right,
5,1,1,4.183014299999741,['c'],1,left,none,-99,-99,0.5,0,none,38,18,Woman,Right,
6,1,1,1.8837650000004942,['c'],1,left,none,-99,-99,0.5,0,none,38,18,Woman,Right,
7,1,1,1.4674739000001864,['c'],1,left,none,-99,-99,0.5,0,none,38,18,Woman,Right,
8,1,1,0.7663262999994913,['c'],1,left,none,-99,-99,0.5,0,none,38,18,Woman,Right,
9,1,1,0.6992373000002772,['n'],1,right,none,-99,-99,0.5,0,none,38,18,Woman,Right,
10,1,1,0.6494003999996494,['n'],1,right,none,-99,-99,0.5,0,none,38,18,Woman,Right,
11,1,1,0.6005160000004253,['n'],1,right,none,-99,-99,0.5,0,none,38,18,Woman,Right,
12,1,1,0.9164374000001771,['c'],1,left,none,-99,-99,0.5,0,none,38,18,Woman,Right,
13,1,1,0.7171605000003183,['c'],1,left,none,-99,-99,0.5,0,none,38,18,Woman,Right,
14,1,1,0.6676428999999189,['n'],1,right,none,-99,-99,0.5,0,none,38,18,Woman,Right,
15,1,1,0.616671500000848,['n'],1,right,none,-99,-99,0.5,0,none,38,18,Woman,Right,
16,1,1,0.6833990000004633,['n'],1,right,none,-99,-99,0.5,0,none,38,18,Woman,Right,
17,1,1,0.6336848999999347,['n'],1,right,none,-99,-99,0.5,0,none,38,18,Woman,Right,
18,1,1,0.6164373999999953,['n'],1,right,none,-99,-99,0.5,0,none,38,18,Woman,Right,
19,1,1,0.5509475999997449,['n'],1,right,none,-99,-99,0.5,0,none,38,18,Woman,Right,
20,1,1,0.5675266000007468,['n'],0,left,none,-99,-99,0.5,0,none,38,18,Woman,Right,
21,1,1,2.9499899000002188,['n'],1,right,none,-99,-99,0.5,0,none,38,18,Woman,Right,
22,1,1,1.0831053000001702,['c'],0,right,none,-99,-99,0.5,0,none,38,18,Woman,Right,
23,1,1,1.967403500000728,['c'],0,right,none,-99,-99,0.5,0,none,38,18,Woman,Right,
0,1,2,1.1338124000003518,['c'],0,right,none,-99,-99,0.5,0,none,38,18,Woman,Right,
1,1,2,1.3662098000004335,['n'],1,right,none,-99,-99,0.5,0,none,38,18,Woman,Right,
2,1,2,1.0832666999995126,['c'],0,right,none,-99,-99,0.5,0,none,38,18,Woman,Right,
3,1,2,0.783496500000183,['c'],1,left,none,-99,-99,0.5,0,none,38,18,Woman,Right,
4,1,2,2.066988699999456,['n'],1,right,none,-99,-99,0.5,0,none,38,18,Woman,Right,
5,1,2,0.8502630000002682,['c'],1,left,none,-99,-99,0.5,0,none,38,18,Woman,Right,
6,1,2,0.667418699999871,['c'],1,left,none,-99,-99,0.5,0,none,38,18,Woman,Right,
7,1,2,1.1669830999999249,['c'],0,right,none,-99,-99,0.5,0,none,38,18,Woman,Right,
8,1,2,0.8170220000001791,['c'],1,left,none,-99,-99,0.5,0,none,38,18,Woman,Right,
9,1,2,0.6669741999994585,['c'],1,left,none,-99,-99,0.5,0,none,38,18,Woman,Right,
10,1,2,1.2496861999998146,['c'],1,left,none,-99,-99,0.5,0,none,38,18,Woman,Right,
11,1,2,1.8157933999991656,['n'],1,right,none,-99,-99,0.5,0,none,38,18,Woman,Right,
12,1,2,0.7167492000007769,['c'],1,left,none,-99,-99,0.5,0,none,38,18,Woman,Right,
13,1,2,0.6172365000002173,['c'],1,left,none,-99,-99,0.5,0,none,38,18,Woman,Right,
14,1,2,0.5007070000001477,['c'],1,left,none,-99,-99,0.5,0,none,38,18,Woman,Right,
15,1,2,1.8669647999995505,['n'],1,right,none,-99,-99,0.5,0,none,38,18,Woman,Right,
16,1,2,0.5668330999997124,['c'],1,left,none,-99,-99,0.5,0,none,38,18,Woman,Right,
17,1,2,0.650270900000578,['c'],0,right,none,-99,-99,0.5,0,none,38,18,Woman,Right,
18,1,2,2.2668665999999575,['n'],1,right,none,-99,-99,0.5,0,none,38,18,Woman,Right,
19,1,2,0.7001110000001063,['c'],0,right,none,-99,-99,0.5,0,none,38,18,Woman,Right,
20,1,2,1.8834630000001198,['c'],1,left,none,-99,-99,0.5,0,none,38,18,Woman,Right,
21,1,2,1.467247600000519,['n'],1,right,none,-99,-99,0.5,0,none,38,18,Woman,Right,
22,1,2,1.5010253000000375,['c'],1,left,none,-99,-99,0.5,0,none,38,18,Woman,Right,
23,1,2,0.7331524000001082,['n'],1,right,none,-99,-99,0.5,0,none,38,18,Woman,Right,
0,1,3,1.6843585999995412,['n'],1,right,none,-99,-99,0.5,0,none,38,18,Woman,Right,
1,1,3,0.7493930999999066,['c'],1,left,none,-99,-99,0.5,0,none,38,18,Woman,Right,
2,1,3,1.0005070000006526,['c'],1,left,none,-99,-99,0.5,0,none,38,18,Woman,Right,
3,1,3,2.08421620000081,['n'],1,right,none,-99,-99,0.5,0,none,38,18,Woman,Right,
4,1,3,0.6330983999996533,['c'],1,left,none,-99,-99,0.5,0,none,38,18,Woman,Right,
5,1,3,0.7167116999999052,['n'],1,right,none,-99,-99,0.5,0,none,38,18,Woman,Right,
6,1,3,0.7499237000001813,['n'],1,right,none,-99,-99,0.5,0,none,38,18,Woman,Right,
7,1,3,1.0670283999997991,['n'],1,right,none,-99,-99,0.5,0,none,38,18,Woman,Right,
8,1,3,0.6671054000007643,['n'],1,right,none,-99,-99,0.5,0,none,38,18,Woman,Right,
9,1,3,0.6493184000000838,['n'],1,right,none,-99,-99,0.5,0,none,38,18,Woman,Right,
10,1,3,1.3504800000000614,['c'],1,left,none,-99,-99,0.5,0,none,38,18,Woman,Right,
11,1,3,0.8003293000001577,['c'],1,left,none,-99,-99,0.5,0,none,38,18,Woman,Right,
12,1,3,0.5007863999999245,['c'],0,right,none,-99,-99,0.5,0,none,38,18,Woman,Right,
13,1,3,1.7994977000007566,['c'],1,left,none,-99,-99,0.5,0,none,38,18,Woman,Right,
14,1,3,2.1161588000004485,['n'],1,right,none,-99,-99,0.5,0,none,38,18,Woman,Right,
15,1,3,2.733981700000186,['c'],1,left,none,-99,-99,0.5,0,none,38,18,Woman,Right,
16,1,3,1.3497975999998744,['c'],1,left,none,-99,-99,0.5,0,none,38,18,Woman,Right,
17,1,3,0.7835707999993247,['n'],1,right,none,-99,-99,0.5,0,none,38,18,Woman,Right,
18,1,3,0.6840025000001333,['c'],1,left,none,-99,-99,0.5,0,none,38,18,Woman,Right,
19,1,3,0.6169847000001027,['n'],1,right,none,-99,-99,0.5,0,none,38,18,Woman,Right,
20,1,3,0.8829415999998673,['n'],1,right,none,-99,-99,0.5,0,none,38,18,Woman,Right,
21,1,3,0.7658961999995881,['c'],1,left,none,-99,-99,0.5,0,none,38,18,Woman,Right,
22,1,3,0.5504038000008222,['c'],1,left,none,-99,-99,0.5,0,none,38,18,Woman,Right,
23,1,3,0.6002667000002475,['c'],1,left,none,-99,-99,0.5,0,none,38,18,Woman,Right,
0,2,1,1.833342900000389,['c'],1,left,none,-99,-99,0.2,0,none,38,18,Woman,Right,
1,2,1,2.233195299999352,['c'],1,left,none,-99,-99,0.2,0,none,38,18,Woman,Right,
2,2,1,0.9663822000002256,['n'],1,right,none,-99,-99,0.4,0,none,38,18,Woman,Right,
3,2,1,1.8658018999994965,['c'],1,left,none,-99,-99,0.4,0,none,38,18,Woman,Right,
4,2,1,1.8486024000003454,['c'],1,left,none,-99,-99,0.2,0,none,38,18,Woman,Right,
5,2,1,1.115753200000654,['n'],0,left,none,-99,-99,0.1,0,none,38,18,Woman,Right,
6,2,1,0.8007800999994288,['c'],1,left,none,-99,-99,0.4,0,none,38,18,Woman,Right,
7,2,1,1.050529899999674,['n'],1,right,none,-99,-99,0.2,0,none,38,18,Woman,Right,
8,2,1,2.066616299999623,['n'],1,right,none,-99,-99,0.4,0,none,38,18,Woman,Right,
9,2,1,0.734113200000138,['n'],1,right,none,-99,-99,0.1,0,none,38,18,Woman,Right,
10,2,1,0.8154089999998178,['c'],1,left,none,-99,-99,0.4,0,none,38,18,Woman,Right,
11,2,1,2.4493467000002056,['c'],1,left,none,-99,-99,0.4,0,none,38,18,Woman,Right,
12,2,1,1.0005450999997265,['n'],1,right,none,-99,-99,0.4,0,none,38,18,Woman,Right,
13,2,1,0.8500272999999652,['c'],1,left,none,-99,-99,0.4,0,none,38,18,Woman,Right,
14,2,1,0.8830462000005355,['c'],1,left,none,-99,-99,0.2,0,none,38,18,Woman,Right,
15,2,1,0.6504184999994322,['c'],1,left,none,-99,-99,0.1,0,none,38,18,Woman,Right,
16,2,1,0.7833477000003768,['n'],1,right,none,-99,-99,0.2,0,none,38,18,Woman,Right,
17,2,1,0.9324026000003869,['c'],0,right,none,-99,-99,0.1,0,none,38,18,Woman,Right,
18,2,1,1.46672960000069,['c'],0,right,none,-99,-99,0.1,0,none,38,18,Woman,Right,
19,2,1,0.7834008999998332,['n'],1,right,none,-99,-99,0.1,0,none,38,18,Woman,Right,
20,2,1,0.7661123000007137,['n'],1,right,none,-99,-99,0.1,0,none,38,18,Woman,Right,
21,2,1,3.099511000000348,['c'],1,left,none,-99,-99,0.2,0,none,38,18,Woman,Right,
22,2,1,0.9669911999999385,['n'],1,right,none,-99,-99,0.1,0,none,38,18,Woman,Right,
23,2,1,0.7172123000000283,['n'],1,right,none,-99,-99,0.2,0,none,38,18,Woman,Right,
0,3,1,3.0502240999994683,['c'],1,left,['3'],4,2.433250400000361,0.2,0,none,38,18,Woman,Right,
1,3,1,3.5173162000000957,['c'],1,left,['3'],4,0.7336086999994222,0.2,0,none,38,18,Woman,Right,
2,3,1,1.6186068999995769,['n'],1,right,['3'],4,0.7508127000000968,0.1,0,none,38,18,Woman,Right,
3,3,1,2.500795300000391,['c'],0,right,['1'],6,0.38399850000041624,0.4,0,none,38,18,Woman,Right,
4,3,1,0.8004807999996046,['n'],1,right,['9'],2,0.35110879999956524,0.1,0,none,38,18,Woman,Right,
5,3,1,5.016088999999738,x,-99,right,none,-99,-99,0.2,1,none,38,18,Woman,Right,
6,3,1,0.7502592999999251,['c'],0,right,['3'],4,0.6012490999992224,0.1,0,none,38,18,Woman,Right,
7,3,1,1.0171744000008403,['c'],0,right,['8'],3,1.6674627000002147,0.4,0,none,38,18,Woman,Right,
8,3,1,1.5670564999991257,['n'],0,left,['3'],4,2.1675500999999713,0.4,0,none,38,18,Woman,Right,
9,3,1,2.266837199999827,['n'],0,left,['2'],5,0.7507924999999886,0.4,0,none,38,18,Woman,Right,
10,3,1,1.9011812000007922,['n'],0,left,['2'],5,0.7012450000001991,0.2,0,none,38,18,Woman,Right,
11,3,1,2.233482200000253,['c'],0,right,['3'],4,1.5832957000002352,0.1,0,none,38,18,Woman,Right,
12,3,1,2.184238599999844,['c'],1,left,['8'],3,1.1511153000001286,0.1,0,none,38,18,Woman,Right,
13,3,1,2.1001384999999573,['c'],1,left,['1'],6,0.6847275000000081,0.4,0,none,38,18,Woman,Right,
14,3,1,1.5669465000000855,['c'],1,left,['1'],6,0.38441299999976764,0.4,0,none,38,18,Woman,Right,
15,3,1,1.399851000000126,['n'],1,right,['1'],6,0.48480800000015734,0.1,0,none,38,18,Woman,Right,
16,3,1,1.848911600000065,['c'],0,right,['3'],4,0.8175694000001386,0.4,0,none,38,18,Woman,Right,
17,3,1,1.2000710000002073,['n'],1,right,['1'],6,0.8512021000005916,0.2,0,none,38,18,Woman,Right,
18,3,1,2.4504522000006546,['n'],1,right,['2'],5,0.8845731000001251,0.2,0,none,38,18,Woman,Right,
19,3,1,1.5166950999991968,['c'],0,right,['2'],5,0.5512980999992578,0.1,0,none,38,18,Woman,Right,
20,3,1,0.9155567000007068,['c'],1,left,['2'],5,0.8182290999993711,0.1,0,none,38,18,Woman,Right,
21,3,1,1.1665947999999844,['c'],1,left,['1'],6,0.5506771999998819,0.2,0,none,38,18,Woman,Right,
22,3,1,1.0169812999993155,['c'],1,left,['1'],6,0.4180333000003884,0.2,0,none,38,18,Woman,Right,
23,3,1,0.8168470000000525,['c'],1,left,['1'],6,0.4016927000002397,0.4,0,none,38,18,Woman,Right,
0,4,1,3.533616599999732,['n'],1,right,['2'],5,0.8168691999999282,0.2,0,AccFast,38,18,Woman,Right,
1,4,1,2.4170485999993616,['c'],1,left,['2'],5,0.43465459999970335,0.1,0,AccFast,38,18,Woman,Right,
2,4,1,1.8996528000006947,['c'],1,left,['2'],5,0.6836911000000327,0.1,0,AccFast,38,18,Woman,Right,
3,4,1,1.617412300000069,['n'],1,right,['8'],3,0.7014229999995223,0.4,0,AccFast,38,18,Woman,Right,
4,4,1,0.9337893000001714,['c'],1,left,['2'],5,0.4175909999994474,0.1,0,AccFast,38,18,Woman,Right,
5,4,1,1.7168241999997917,['n'],1,right,['8'],3,0.4509336999999505,0.2,0,AccFast,38,18,Woman,Right,
6,4,1,1.017223799999556,['c'],1,left,['1'],6,0.2837539000001925,0.4,0,AccFast,38,18,Woman,Right,
7,4,1,1.366669400000319,['c'],1,left,['2'],5,0.48408130000007077,0.4,0,AccFast,38,18,Woman,Right,
8,4,1,1.8496550999998362,['c'],0,right,['9'],2,1.2511189999995622,0.1,0,AccFast,38,18,Woman,Right,
9,4,1,0.9822488999998313,['c'],1,left,['1'],6,0.2675052999993568,0.4,0,AccFast,38,18,Woman,Right,
10,4,1,2.166766700000153,['n'],1,right,['3'],4,1.050612099999853,0.1,0,AccFast,38,18,Woman,Right,
11,4,1,0.7666235999995479,['c'],1,left,['1'],6,0.30091580000043905,0.1,0,AccFast,38,18,Woman,Right,
12,4,1,2.482805200000257,['c'],0,right,['8'],3,1.0682779999997365,0.1,0,AccFast,38,18,Woman,Right,
13,4,1,2.7159136000000217,['c'],1,left,['8'],3,0.9341422999996212,0.1,0,AccFast,38,18,Woman,Right,
14,4,1,0.9333705999997619,['c'],0,right,['1'],6,0.48424400000021706,0.1,0,AccFast,38,18,Woman,Right,
15,4,1,0.7665117999995346,['c'],1,left,['2'],5,0.6513334999999643,0.4,0,AccFast,38,18,Woman,Right,
16,4,1,2.3164143000003605,['c'],0,right,['3'],4,0.4339698000003409,0.1,0,AccFast,38,18,Woman,Right,
17,4,1,1.1176207999997132,['n'],1,right,['2'],5,0.8337302999998428,0.2,0,AccFast,38,18,Woman,Right,
18,4,1,1.1837690999991537,['c'],0,right,['2'],5,0.6342039999999542,0.1,0,AccFast,38,18,Woman,Right,
19,4,1,1.0497955999999249,['c'],1,left,['1'],6,0.2841718999998193,0.4,0,AccFast,38,18,Woman,Right,
20,4,1,0.6830497000000832,['c'],1,left,['1'],6,0.30109559999982594,0.4,0,AccFast,38,18,Woman,Right,
21,4,1,0.8656132999994952,['c'],1,left,['2'],5,0.5680720000000292,0.2,0,AccFast,38,18,Woman,Right,
22,4,1,1.6836911999998847,['n'],1,right,['8'],3,0.7009994999998526,0.1,0,AccFast,38,18,Woman,Right,
23,4,1,1.3992779999998675,['c'],0,right,['9'],2,1.1675813000001654,0.2,0,AccFast,38,18,Woman,Right,
24,4,1,3.132946300000185,['n'],1,right,['8'],3,0.4847122000001036,0.4,0,AccFast,38,18,Woman,Right,
25,4,1,1.1835540000001856,['c'],1,left,['2'],5,0.9347367999998824,0.4,0,AccFast,38,18,Woman,Right,
26,4,1,0.9669311999996353,['c'],0,right,['2'],5,0.23396490000050107,0.1,0,AccFast,38,18,Woman,Right,
27,4,1,1.7498838000001342,['n'],1,right,['3'],4,0.65113939999992,0.4,0,AccFast,38,18,Woman,Right,
28,4,1,1.1504589999995005,['c'],1,left,['3'],4,0.46781369999916933,0.2,0,AccFast,38,18,Woman,Right,
29,4,1,2.4162575999998808,['n'],1,right,['2'],5,0.7516038000003391,0.2,0,AccFast,38,18,Woman,Right,
30,4,1,0.950394999999844,['n'],0,left,['2'],5,0.43380809999962366,0.1,0,AccFast,38,18,Woman,Right,
31,4,1,2.9011836999998195,['c'],1,left,['1'],6,0.5011888000008184,0.4,0,AccFast,38,18,Woman,Right,
32,4,1,0.916135899999972,['n'],1,right,['1'],6,0.4343161999995573,0.4,0,AccFast,38,18,Woman,Right,
33,4,1,1.0334207000005335,['n'],0,left,['1'],6,0.4004520999997112,0.2,0,AccFast,38,18,Woman,Right,
34,4,1,0.9512708000002021,['n'],0,left,['1'],6,0.30108889999974053,0.2,0,AccFast,38,18,Woman,Right,
35,4,1,1.7836608999996315,['c'],1,left,['1'],6,0.6006824000005508,0.1,0,AccFast,38,18,Woman,Right,
36,4,1,1.633898400000362,['c'],1,left,['2'],5,0.5176479000001564,0.2,0,AccFast,38,18,Woman,Right,
37,4,1,1.6330931000002238,['c'],0,right,['3'],4,1.0341234999996232,0.2,0,AccFast,38,18,Woman,Right,
38,4,1,1.6340438999995968,['c'],1,left,['8'],3,0.4018540999995821,0.4,0,AccFast,38,18,Woman,Right,
39,4,1,1.1837593999998717,['c'],1,left,['2'],5,0.6333882999997513,0.4,0,AccFast,38,18,Woman,Right,
40,4,1,0.9678167000001849,['n'],1,right,['9'],2,0.41793760000018665,0.1,0,AccFast,38,18,Woman,Right,
41,4,1,1.283857999999782,['n'],1,right,['8'],3,0.46798089999992953,0.4,0,AccFast,38,18,Woman,Right,
42,4,1,1.0170660999992833,['c'],1,left,['2'],5,0.6676461999995809,0.2,0,AccFast,38,18,Woman,Right,
43,4,1,1.033754900000531,['c'],0,right,['2'],5,0.6510277999996106,0.1,0,AccFast,38,18,Woman,Right,
44,4,1,3.9831137999999555,['c'],0,right,['3'],4,0.5511489000000438,0.2,0,AccFast,38,18,Woman,Right,
45,4,1,1.5663779999995313,['c'],1,left,['3'],4,0.5668693000006897,0.2,0,AccFast,38,18,Woman,Right,
46,4,1,0.7340381999993042,['c'],1,left,['3'],4,0.25119180000001506,0.2,0,AccFast,38,18,Woman,Right,
47,4,1,1.416472099999737,['n'],1,right,['2'],5,0.4011883000002854,0.4,0,AccFast,38,18,Woman,Right,
48,4,1,1.1169243000003917,['c'],0,right,['2'],5,0.5009575999993103,0.2,0,AccFast,38,18,Woman,Right,
49,4,1,1.2169467999992776,['c'],1,left,['2'],5,0.31767459999991843,0.4,0,AccFast,38,18,Woman,Right,
50,4,1,1.698952100000497,['n'],1,right,['2'],5,0.5674782999994932,0.1,0,AccFast,38,18,Woman,Right,
51,4,1,1.6849681999992754,['c'],1,left,['3'],4,0.4842201000001296,0.1,0,AccFast,38,18,Woman,Right,
52,4,1,1.083687500000451,['c'],1,left,['3'],4,0.501199500000439,0.4,0,AccFast,38,18,Woman,Right,
53,4,1,1.1998329999996713,['c'],1,left,['1'],6,0.3847823999994944,0.2,0,AccFast,38,18,Woman,Right,
54,4,1,1.333517699999902,['n'],1,right,['1'],6,0.5179638999998133,0.1,0,AccFast,38,18,Woman,Right,
55,4,1,3.7169533000005686,['n'],1,right,['8'],3,0.9005472999997437,0.2,0,AccFast,38,18,Woman,Right,
56,4,1,3.1831591999998636,['n'],1,right,['1'],6,0.7010700999999244,0.2,0,AccFast,38,18,Woman,Right,
57,4,1,1.3836767999991935,['c'],1,left,['1'],6,0.28472880000026635,0.4,0,AccFast,38,18,Woman,Right,
58,4,1,0.8341394999997647,['n'],1,right,['1'],6,0.30172680000032415,0.4,0,AccFast,38,18,Woman,Right,
59,4,1,1.6336959999998726,['c'],0,right,['1'],6,0.5011386000005587,0.2,0,AccFast,38,18,Woman,Right,
0,5,1,3.000571399999899,['c'],1,left,['2'],5,1.3842811000004076,0.1,0,AccAcc,38,18,Woman,Right,
1,5,1,1.1502762000000075,['c'],1,left,['2'],5,0.7507978999992702,0.4,0,AccAcc,38,18,Woman,Right,
2,5,1,1.8170718999999735,['c'],1,left,['3'],4,0.40146440000080474,0.1,0,AccAcc,38,18,Woman,Right,
3,5,1,1.0674491999998281,['c'],1,left,['3'],4,0.30081849999987753,0.4,0,AccAcc,38,18,Woman,Right,
4,5,1,1.7335603999999876,['c'],1,left,['3'],4,0.7344395000000077,0.2,0,AccAcc,38,18,Woman,Right,
5,5,1,1.982529599999907,['n'],0,left,['3'],4,0.6847459999999046,0.4,0,AccAcc,38,18,Woman,Right,
6,5,1,1.4840140999995128,['n'],0,left,['2'],5,0.5008788999994067,0.2,0,AccAcc,38,18,Woman,Right,
7,5,1,1.1000819000000774,['c'],1,left,['2'],5,0.6342551999996431,0.4,0,AccAcc,38,18,Woman,Right,
8,5,1,1.2834499999999025,['c'],1,left,['2'],5,0.45115769999938493,0.1,0,AccAcc,38,18,Woman,Right,
9,5,1,0.8171729999994568,['n'],1,right,['1'],6,0.4176612000001114,0.1,0,AccAcc,38,18,Woman,Right,
10,5,1,2.1004297999998016,['c'],0,right,['1'],6,0.8177479000005405,0.2,0,AccAcc,38,18,Woman,Right,
11,5,1,2.4167457000003196,['c'],0,right,['2'],5,0.7508732999995118,0.2,0,AccAcc,38,18,Woman,Right,
12,5,1,0.7663596000002144,['c'],1,left,['1'],6,0.3677396000002773,0.4,0,AccAcc,38,18,Woman,Right,
13,5,1,0.9665893000001233,['c'],1,left,['1'],6,0.4514432999994824,0.2,0,AccAcc,38,18,Woman,Right,
14,5,1,1.5169945999996344,['n'],1,right,['1'],6,0.5179532000001927,0.1,0,AccAcc,38,18,Woman,Right,
15,5,1,0.9662146999999095,['c'],1,left,['2'],5,0.4851143999994747,0.4,0,AccAcc,38,18,Woman,Right,
16,5,1,0.9320968000001812,['c'],0,right,['2'],5,0.4683914999995977,0.2,0,AccAcc,38,18,Woman,Right,
17,5,1,1.3836253999998007,['n'],1,right,['2'],5,0.667970299999979,0.2,0,AccAcc,38,18,Woman,Right,
18,5,1,0.933831100000134,['c'],1,left,['1'],6,0.501346700000795,0.4,0,AccAcc,38,18,Woman,Right,
19,5,1,1.2835903000004691,['c'],0,right,['2'],5,0.484299299999293,0.4,0,AccAcc,38,18,Woman,Right,
20,5,1,1.2839271000002555,['n'],1,right,['9'],2,0.36779589999969176,0.4,0,AccAcc,38,18,Woman,Right,
21,5,1,3.766531600000235,['n'],1,right,['2'],5,0.7511480999992273,0.1,0,AccAcc,38,18,Woman,Right,
22,5,1,1.0827604000005522,['n'],1,right,['2'],5,0.4680182000001878,0.4,0,AccAcc,38,18,Woman,Right,
23,5,1,1.0344108999997843,['n'],1,right,['3'],4,0.43441880000045785,0.4,0,AccAcc,38,18,Woman,Right,
24,5,1,1.0834914999995817,['c'],1,left,['2'],5,0.5016688000005161,0.2,0,AccAcc,38,18,Woman,Right,
25,5,1,1.7177065000005314,['n'],1,right,['3'],4,0.4510583000001134,0.4,0,AccAcc,38,18,Woman,Right,
26,5,1,0.8334565000004659,['c'],1,left,['2'],5,0.35116909999942436,0.2,0,AccAcc,38,18,Woman,Right,
27,5,1,0.8837054999994507,['c'],0,right,['2'],5,0.43424360000062734,0.2,0,AccAcc,38,18,Woman,Right,
28,5,1,2.0670862999995734,['n'],1,right,['8'],3,0.3176653999998962,0.1,0,AccAcc,38,18,Woman,Right,
29,5,1,1.4502876000005926,['n'],1,right,['2'],5,0.5511478999997053,0.4,0,AccAcc,38,18,Woman,Right,
30,5,1,0.9331283000001349,['c'],1,left,['2'],5,0.4010143000004973,0.2,0,AccAcc,38,18,Woman,Right,
31,5,1,2.1166340999998283,['n'],1,right,['2'],5,0.5176881999996112,0.2,0,AccAcc,38,18,Woman,Right,
32,5,1,1.2003339999992022,['n'],1,right,['1'],6,0.6507033999996565,0.4,0,AccAcc,38,18,Woman,Right,
33,5,1,0.7828777000004266,['n'],1,right,['1'],6,0.36892939999961527,0.4,0,AccAcc,38,18,Woman,Right,
34,5,1,1.0669485000007626,['c'],1,left,['1'],6,0.6015784999999596,0.2,0,AccAcc,38,18,Woman,Right,
35,5,1,2.500532000000021,['n'],1,right,['3'],4,0.967761299999438,0.4,0,AccAcc,38,18,Woman,Right,
36,5,1,1.1664814999994633,['n'],1,right,['8'],3,1.9510580000005575,0.1,0,AccAcc,38,18,Woman,Right,
37,5,1,3.1830135000000155,['c'],1,left,['8'],3,0.6681109000001015,0.4,0,AccAcc,38,18,Woman,Right,
38,5,1,1.6832186999999976,['c'],1,left,['2'],5,0.7346870999999737,0.2,0,AccAcc,38,18,Woman,Right,
39,5,1,1.8162708999998358,['n'],1,right,['3'],4,1.0347039999996923,0.1,0,AccAcc,38,18,Woman,Right,
40,5,1,2.416678900000079,['c'],0,right,['2'],5,0.5346023000001878,0.1,0,AccAcc,38,18,Woman,Right,
41,5,1,2.882875299999796,['c'],1,left,['8'],3,1.2014226999999664,0.1,0,AccAcc,38,18,Woman,Right,
42,5,1,1.4833604000004925,['n'],1,right,['2'],5,0.6182213000001866,0.1,0,AccAcc,38,18,Woman,Right,
43,5,1,1.7673814999998285,['n'],1,right,['3'],4,0.28482220000023517,0.1,0,AccAcc,38,18,Woman,Right,
44,5,1,3.0833886999998867,['n'],0,left,['9'],2,0.7507183999996414,0.1,0,AccAcc,38,18,Woman,Right,
45,5,1,1.7838930000007167,['n'],1,right,['1'],6,0.6674144999997225,0.4,0,AccAcc,38,18,Woman,Right,
46,5,1,1.00041229999988,['c'],1,left,['1'],6,0.6843257000000449,0.2,0,AccAcc,38,18,Woman,Right,
47,5,1,1.98354130000007,['c'],1,left,['2'],5,0.6505508000000191,0.1,0,AccAcc,38,18,Woman,Right,
48,5,1,2.416365300000507,['c'],1,left,['1'],6,0.8007186000004367,0.2,0,AccAcc,38,18,Woman,Right,
49,5,1,4.316462200000387,['c'],0,right,['8'],3,1.0687168000004021,0.1,0,AccAcc,38,18,Woman,Right,
50,5,1,4.283547699999872,['c'],1,left,['3'],4,1.4344069000007948,0.2,0,AccAcc,38,18,Woman,Right,
51,5,1,1.4337647000002107,['c'],1,left,['3'],4,1.5341665000005378,0.2,0,AccAcc,38,18,Woman,Right,
52,5,1,3.38252299999931,['n'],1,right,['8'],3,0.8516336999991836,0.1,0,AccAcc,38,18,Woman,Right,
53,5,1,1.5170881000003646,['c'],0,right,['3'],4,1.801019699999415,0.1,0,AccAcc,38,18,Woman,Right,
54,5,1,2.7503798999996434,['n'],1,right,['3'],4,0.7174997000001895,0.4,0,AccAcc,38,18,Woman,Right,
55,5,1,3.3169168000003992,['n'],1,right,['3'],4,0.8335056999994777,0.1,0,AccAcc,38,18,Woman,Right,
56,5,1,2.233942200000456,['c'],1,left,['3'],4,0.5347388999998657,0.1,0,AccAcc,38,18,Woman,Right,
57,5,1,2.7332383000002665,['n'],0,left,['3'],4,0.8852912000002107,0.2,0,AccAcc,38,18,Woman,Right,
58,5,1,1.8005527000004804,['c'],1,left,['1'],6,0.35126519999994343,0.4,0,AccAcc,38,18,Woman,Right,
59,5,1,3.0168551999995543,['n'],0,left,['8'],3,0.7343398000002708,0.2,0,AccAcc,38,18,Woman,Right,
0,6,1,1.617599600000176,['c'],0,right,['8'],3,2.001131799999712,0.1,0,FastAcc,38,18,Woman,Right,
1,6,1,1.1670758000000205,['c'],0,right,['8'],3,1.2013298000001669,0.4,0,FastAcc,38,18,Woman,Right,
2,6,1,1.883987000000161,['n'],1,right,['3'],4,0.8843748999997842,0.1,0,FastAcc,38,18,Woman,Right,
3,6,1,1.1493455999998332,['n'],1,right,['3'],4,0.9679609000004348,0.1,0,FastAcc,38,18,Woman,Right,
4,6,1,1.2168919999994614,['c'],0,right,['8'],3,0.8848962000001848,0.2,0,FastAcc,38,18,Woman,Right,
5,6,1,1.6831639000001815,['c'],0,right,['3'],4,0.48461200000019744,0.1,0,FastAcc,38,18,Woman,Right,
6,6,1,1.0665761999998722,['c'],0,right,['3'],4,0.5680678999997326,0.1,0,FastAcc,38,18,Woman,Right,
7,6,1,1.9492762999998376,['c'],0,right,['3'],4,0.3350405999999566,0.2,0,FastAcc,38,18,Woman,Right,
8,6,1,0.6505746000002546,['c'],1,left,['1'],6,0.5506494000001112,0.4,0,FastAcc,38,18,Woman,Right,
9,6,1,2.633690800000295,['n'],1,right,['2'],5,0.9513267000002088,0.2,0,FastAcc,38,18,Woman,Right,
10,6,1,0.933211399999891,['n'],1,right,['1'],6,0.45138739999947575,0.4,0,FastAcc,38,18,Woman,Right,
11,6,1,0.8494765000004918,['c'],1,left,['2'],5,0.601548499999808,0.4,0,FastAcc,38,18,Woman,Right,
12,6,1,1.099589399999786,['n'],0,left,['8'],3,1.0181776999997965,0.1,0,FastAcc,38,18,Woman,Right,
13,6,1,0.7333089000003383,['c'],1,left,['2'],5,0.6843519000003653,0.1,0,FastAcc,38,18,Woman,Right,
14,6,1,0.8502347999992708,['c'],0,right,['3'],4,0.7513558999999077,0.2,0,FastAcc,38,18,Woman,Right,
15,6,1,0.6673783999995067,['c'],1,left,['1'],6,0.5346623999994335,0.4,0,FastAcc,38,18,Woman,Right,
16,6,1,1.2171809000001304,['n'],1,right,['2'],5,1.0012065000000803,0.4,0,FastAcc,38,18,Woman,Right,
17,6,1,1.1002872999997635,['c'],1,left,['3'],4,0.5511239999996178,0.1,0,FastAcc,38,18,Woman,Right,
18,6,1,0.7664244999996299,['c'],0,right,['2'],5,0.551226300000053,0.4,0,FastAcc,38,18,Woman,Right,
19,6,1,1.2508035999999265,['c'],0,right,['3'],4,0.41828309999982594,0.2,0,FastAcc,38,18,Woman,Right,
20,6,1,1.0989567999995415,['n'],1,right,['2'],5,0.8840705000002345,0.4,0,FastAcc,38,18,Woman,Right,
21,6,1,0.732659500000409,['c'],0,right,['3'],4,0.6682037000000491,0.1,0,FastAcc,38,18,Woman,Right,
22,6,1,0.8333510000002207,['n'],1,right,['8'],3,1.1503523999999743,0.1,0,FastAcc,38,18,Woman,Right,
23,6,1,0.6843683000006422,['c'],1,left,['3'],4,1.1681563000001915,0.4,0,FastAcc,38,18,Woman,Right,
24,6,1,0.7999818999996933,['n'],1,right,['1'],6,0.6011523999995916,0.4,0,FastAcc,38,18,Woman,Right,
25,6,1,0.7657220999999481,['c'],1,left,['2'],5,0.4342553999995289,0.1,0,FastAcc,38,18,Woman,Right,
26,6,1,0.8664773999998943,['c'],1,left,['3'],4,0.5840097000000242,0.1,0,FastAcc,38,18,Woman,Right,
27,6,1,0.6331896000001507,['c'],1,left,['2'],5,0.4677913000004992,0.4,0,FastAcc,38,18,Woman,Right,
28,6,1,0.7173264000002746,['c'],1,left,['2'],5,0.40070030000060797,0.2,0,FastAcc,38,18,Woman,Right,
29,6,1,0.6175143000000389,['n'],0,left,['2'],5,0.6504575000008117,0.1,0,FastAcc,38,18,Woman,Right,
30,6,1,0.683020999999826,['c'],0,right,['8'],3,0.9347649999999703,0.4,0,FastAcc,38,18,Woman,Right,
31,6,1,0.7343798000001698,['c'],1,left,['1'],6,0.45107479999933275,0.4,0,FastAcc,38,18,Woman,Right,
32,6,1,0.6836845999996513,['c'],1,left,['1'],6,0.5178965999994034,0.2,0,FastAcc,38,18,Woman,Right,
33,6,1,1.3661629999996876,['c'],1,left,['3'],4,1.0336803000000145,0.2,0,FastAcc,38,18,Woman,Right,
34,6,1,0.7350836000005074,['c'],0,right,['1'],6,0.834083499999906,0.2,0,FastAcc,38,18,Woman,Right,
35,6,1,0.5999408999996376,['c'],1,left,['2'],5,0.5007764000001771,0.4,0,FastAcc,38,18,Woman,Right,
36,6,1,0.6166775000001508,['c'],1,left,['2'],5,0.7503319000006741,0.2,0,FastAcc,38,18,Woman,Right,
37,6,1,0.7829033000007257,['c'],1,left,['3'],4,0.750847000000249,0.2,0,FastAcc,38,18,Woman,Right,
38,6,1,0.6352247999993779,['n'],1,right,['9'],2,1.4008912999997847,0.1,0,FastAcc,38,18,Woman,Right,
39,6,1,0.7829497000002448,['c'],0,right,['3'],4,0.683828000000176,0.1,0,FastAcc,38,18,Woman,Right,
40,6,1,0.7503364000003785,['c'],1,left,['3'],4,0.5011743000004572,0.1,0,FastAcc,38,18,Woman,Right,
41,6,1,0.9507860000003348,['c'],1,left,['3'],4,0.8343027000000802,0.2,0,FastAcc,38,18,Woman,Right,
42,6,1,0.7173422000005303,['n'],1,right,['2'],5,0.7845680999998876,0.4,0,FastAcc,38,18,Woman,Right,
43,6,1,1.683259100000214,['c'],0,right,['8'],3,2.1510480999995707,0.2,0,FastAcc,38,18,Woman,Right,
44,6,1,0.9510101999994731,['c'],1,left,['2'],5,0.5513188000004448,0.4,0,FastAcc,38,18,Woman,Right,
45,6,1,0.8001201999995828,['n'],0,left,['3'],4,0.7511217999999644,0.1,0,FastAcc,38,18,Woman,Right,
46,6,1,1.1829452000001766,['n'],1,right,['3'],4,0.4842737999997553,0.1,0,FastAcc,38,18,Woman,Right,
47,6,1,1.800457400000596,['n'],0,left,['2'],5,0.41792590000022756,0.1,0,FastAcc,38,18,Woman,Right,
48,6,1,1.53300229999968,['c'],1,left,['3'],4,1.4677302000000054,0.2,0,FastAcc,38,18,Woman,Right,
49,6,1,0.9336305999995602,['c'],1,left,['3'],4,0.43459770000026765,0.2,0,FastAcc,38,18,Woman,Right,
50,6,1,1.7826871999996001,['n'],1,right,['2'],5,0.6849054000003889,0.2,0,FastAcc,38,18,Woman,Right,
51,6,1,1.1500379999997676,['c'],0,right,['9'],2,0.4681812999997419,0.4,0,FastAcc,38,18,Woman,Right,
52,6,1,1.26596359999985,['n'],0,left,['1'],6,0.7010097000002133,0.4,0,FastAcc,38,18,Woman,Right,
53,6,1,2.150271900000007,['n'],1,right,['2'],5,1.0510229000001345,0.2,0,FastAcc,38,18,Woman,Right,
54,6,1,2.1834615000007034,['c'],1,left,['8'],3,1.0177099999991697,0.2,0,FastAcc,38,18,Woman,Right,
55,6,1,1.733504200000425,['n'],1,right,['3'],4,0.901246500000525,0.4,0,FastAcc,38,18,Woman,Right,
56,6,1,0.9669590000003154,['n'],0,left,['2'],5,0.45025129999976343,0.4,0,FastAcc,38,18,Woman,Right,
57,6,1,0.7162691000003178,['n'],0,left,['2'],5,0.68457860000035,0.2,0,FastAcc,38,18,Woman,Right,
58,6,1,0.965889199999765,['n'],0,left,['3'],4,1.0181716999995842,0.2,0,FastAcc,38,18,Woman,Right,
59,6,1,1.6334779999997409,['c'],0,right,['3'],4,0.717627299999549,0.1,0,FastAcc,38,18,Woman,Right,
0,7,1,1.0676781000001938,['n'],0,left,['3'],4,0.38440189999982977,0.1,0,FastFast,38,18,Woman,Right,
1,7,1,0.8169517000005726,['n'],1,right,['8'],3,0.6838661000001593,0.4,0,FastFast,38,18,Woman,Right,
2,7,1,0.7173632000003636,['c'],1,left,['1'],6,0.48436519999995653,0.4,0,FastFast,38,18,Woman,Right,
3,7,1,0.7669194000000061,['n'],1,right,['3'],4,0.7340776999999434,0.2,0,FastFast,38,18,Woman,Right,
4,7,1,0.6497128000000885,['c'],0,right,['3'],4,0.5682660000002215,0.4,0,FastFast,38,18,Woman,Right,
5,7,1,0.7832195999999385,['c'],1,left,['3'],4,0.4350540000004912,0.1,0,FastFast,38,18,Woman,Right,
6,7,1,0.6507140999992771,['c'],1,left,['3'],4,0.4346587999998519,0.2,0,FastFast,38,18,Woman,Right,
7,7,1,0.7339705999993384,['n'],1,right,['3'],4,0.6346049999992829,0.2,0,FastFast,38,18,Woman,Right,
8,7,1,1.550529899999674,['c'],0,right,['2'],5,0.4847754000002169,0.1,0,FastFast,38,18,Woman,Right,
9,7,1,1.8334768999993685,['c'],1,left,['8'],3,0.7846392999999807,0.1,0,FastFast,38,18,Woman,Right,
10,7,1,0.716844300000048,['c'],1,left,['3'],4,0.4333234000005177,0.2,0,FastFast,38,18,Woman,Right,
11,7,1,0.800145799999882,['c'],1,left,['2'],5,0.6514047000000573,0.4,0,FastFast,38,18,Woman,Right,
12,7,1,1.7830286000007618,['n'],1,right,['3'],4,0.6843185999996422,0.2,0,FastFast,38,18,Woman,Right,
13,7,1,0.8336776999994981,['c'],1,left,['2'],5,0.41801009999926464,0.4,0,FastFast,38,18,Woman,Right,
14,7,1,0.7168349000003218,['c'],0,right,['1'],6,0.5511513999999806,0.1,0,FastFast,38,18,Woman,Right,
15,7,1,1.4167391999999381,['n'],0,left,['2'],5,1.117757299999539,0.2,0,FastFast,38,18,Woman,Right,
16,7,1,1.6844224999995276,['c'],0,right,['8'],3,1.5012033999992127,0.1,0,FastFast,38,18,Woman,Right,
17,7,1,1.6663709000004019,['n'],0,left,['2'],5,0.6007040999993478,0.1,0,FastFast,38,18,Woman,Right,
18,7,1,2.2499531000003117,['c'],1,left,['3'],4,1.4009936000002199,0.1,0,FastFast,38,18,Woman,Right,
19,7,1,1.1836198000000877,['c'],0,right,['8'],3,1.1174926000003325,0.2,0,FastFast,38,18,Woman,Right,
20,7,1,0.7990135000000009,['c'],0,right,['3'],4,0.5522573999996894,0.4,0,FastFast,38,18,Woman,Right,
21,7,1,0.9325173000006544,['c'],0,right,['3'],4,0.8342867000001206,0.2,0,FastFast,38,18,Woman,Right,
22,7,1,1.032365099999879,['c'],1,left,['3'],4,0.5676465000005919,0.2,0,FastFast,38,18,Woman,Right,
23,7,1,1.234158600000228,['n'],0,left,['8'],3,1.0507870000001276,0.2,0,FastFast,38,18,Woman,Right,
24,7,1,1.4670005999996647,['n'],1,right,['3'],4,0.6517235999999684,0.4,0,FastFast,38,18,Woman,Right,
25,7,1,0.984128399999463,['c'],0,right,['3'],4,0.45143170000028476,0.1,0,FastFast,38,18,Woman,Right,
26,7,1,1.483780200000183,['n'],0,left,['8'],3,0.7343854000000647,0.4,0,FastFast,38,18,Woman,Right,
27,7,1,0.767536299999847,['c'],1,left,['1'],6,0.5511866000006194,0.4,0,FastFast,38,18,Woman,Right,
28,7,1,1.217244300000857,['n'],1,right,['3'],4,0.9839436000002024,0.2,0,FastFast,38,18,Woman,Right,
29,7,1,1.4987246999999115,['c'],0,right,['2'],5,0.43485189999955765,0.2,0,FastFast,38,18,Woman,Right,
30,7,1,0.9668767000002845,['c'],0,right,['8'],3,0.8007434999999532,0.2,0,FastFast,38,18,Woman,Right,
31,7,1,0.8498121000002357,['c'],1,left,['2'],5,0.5678711999998995,0.4,0,FastFast,38,18,Woman,Right,
32,7,1,2.483649100000548,['c'],0,right,['3'],4,0.6179055000002336,0.2,0,FastFast,38,18,Woman,Right,
33,7,1,0.7170045000002574,['c'],1,left,['2'],5,0.9012017000004562,0.4,0,FastFast,38,18,Woman,Right,
34,7,1,0.750088699999651,['c'],1,left,['8'],3,0.6846425000003364,0.1,0,FastFast,38,18,Woman,Right,
35,7,1,0.6340744999997696,['c'],1,left,['3'],4,0.5007551999997304,0.1,0,FastFast,38,18,Woman,Right,
36,7,1,0.9008197000002838,['c'],1,left,['8'],3,0.6844510999999329,0.1,0,FastFast,38,18,Woman,Right,
37,7,1,0.7338048999999955,['c'],0,right,['2'],5,0.46783179999965796,0.1,0,FastFast,38,18,Woman,Right,
38,7,1,0.7832250000001295,['c'],0,right,['2'],5,0.4842963000000964,0.1,0,FastFast,38,18,Woman,Right,
39,7,1,1.1337374000004274,['c'],1,left,['3'],4,0.6011367000000973,0.4,0,FastFast,38,18,Woman,Right,
40,7,1,1.0662658999999621,['c'],1,left,['2'],5,0.6182651999997688,0.1,0,FastFast,38,18,Woman,Right,
41,7,1,0.7502973999999085,['n'],1,right,['8'],3,0.5517340000005788,0.1,0,FastFast,38,18,Woman,Right,
42,7,1,1.266321699999935,['n'],1,right,['3'],4,0.7676810000002661,0.4,0,FastFast,38,18,Woman,Right,
43,7,1,1.8829728000000614,['c'],1,left,['2'],5,0.43464489999951184,0.1,0,FastFast,38,18,Woman,Right,
44,7,1,1.0848941999993258,['c'],0,right,['9'],2,1.3005215000002863,0.4,0,FastFast,38,18,Woman,Right,
45,7,1,1.4996249000005264,['c'],1,left,['2'],5,0.5852420000001075,0.2,0,FastFast,38,18,Woman,Right,
46,7,1,0.7340782000001127,['c'],1,left,['2'],5,0.3844733999994787,0.1,0,FastFast,38,18,Woman,Right,
47,7,1,0.6836644000004526,['n'],1,right,['2'],5,0.5345483999999487,0.2,0,FastFast,38,18,Woman,Right,
48,7,1,0.8333087999999407,['c'],0,right,['8'],3,0.751086000000214,0.4,0,FastFast,38,18,Woman,Right,
49,7,1,1.4166746000000785,['n'],1,right,['2'],5,0.60199509999984,0.4,0,FastFast,38,18,Woman,Right,
50,7,1,1.483600800000204,['c'],1,left,['1'],6,1.0346402999994098,0.2,0,FastFast,38,18,Woman,Right,
51,7,1,0.7168567999997322,['c'],0,right,['2'],5,0.5336959000005663,0.2,0,FastFast,38,18,Woman,Right,
52,7,1,0.6839929999996457,['c'],0,right,['1'],6,0.5344790999997713,0.1,0,FastFast,38,18,Woman,Right,
53,7,1,0.6671014000003197,['c'],0,right,['2'],5,0.5012043000006088,0.2,0,FastFast,38,18,Woman,Right,
54,7,1,2.6839766000002783,['n'],1,right,['8'],3,0.8177905000002283,0.4,0,FastFast,38,18,Woman,Right,
55,7,1,0.6676732000005359,['c'],1,left,['3'],4,0.4342339999993783,0.4,0,FastFast,38,18,Woman,Right,
56,7,1,1.567307900000742,['c'],1,left,['3'],4,0.8175430000001143,0.2,0,FastFast,38,18,Woman,Right,
57,7,1,1.6158433999999033,['c'],1,left,['3'],4,0.2504109999999855,0.4,0,FastFast,38,18,Woman,Right,
58,7,1,1.0504869999995208,['c'],1,left,['2'],5,0.7345749000005526,0.4,0,FastFast,38,18,Woman,Right,
59,7,1,1.516667600000801,['n'],1,right,['8'],3,0.9177859000001263,0.1,0,FastFast,38,18,Woman,Right,
0,8,1,1.0506451999999626,['c'],1,left,['3'],4,0.8344661000000997,0.2,0,AccFast,38,18,Woman,Right,
1,8,1,2.93328240000028,['n'],1,right,['9'],2,0.8180462000000261,0.1,0,AccFast,38,18,Woman,Right,
2,8,1,2.2172975000003134,['n'],1,right,['3'],4,0.6179047000005085,0.2,0,AccFast,38,18,Woman,Right,
3,8,1,2.615282899999329,['c'],0,right,['3'],4,0.6182784000002357,0.2,0,AccFast,38,18,Woman,Right,
4,8,1,1.6164668999999776,['c'],1,left,['1'],6,0.7177253999998356,0.4,0,AccFast,38,18,Woman,Right,
5,8,1,1.900315199999568,['c'],1,left,['2'],5,0.40150069999981497,0.1,0,AccFast,38,18,Woman,Right,
6,8,1,3.0337821000002805,['n'],1,right,['8'],3,0.8846825000000536,0.1,0,AccFast,38,18,Woman,Right,
7,8,1,0.8666962999996031,['c'],1,left,['2'],5,0.7179057000003013,0.2,0,AccFast,38,18,Woman,Right,
8,8,1,2.5336826000002475,['n'],1,right,['8'],3,1.2011135000002469,0.1,0,AccFast,38,18,Woman,Right,
9,8,1,0.783502000000226,['c'],1,left,['2'],5,0.5181212999996205,0.1,0,AccFast,38,18,Woman,Right,
10,8,1,1.133363200000531,['c'],0,right,['2'],5,0.5345074000006207,0.1,0,AccFast,38,18,Woman,Right,
11,8,1,1.5671235999998316,['n'],1,right,['2'],5,0.9341495999997278,0.4,0,AccFast,38,18,Woman,Right,
12,8,1,1.6494787999999971,['c'],1,left,['2'],5,0.4178648000006433,0.4,0,AccFast,38,18,Woman,Right,
13,8,1,0.7502310999998372,['c'],1,left,['2'],5,0.3346272000007957,0.4,0,AccFast,38,18,Woman,Right,
14,8,1,5.016017599999941,x,-99,left,none,-99,-99,0.1,1,AccFast,38,18,Woman,Right,
15,8,1,1.3323891999998523,['c'],0,right,['2'],5,0.3013525000005757,0.1,0,AccFast,38,18,Woman,Right,
16,8,1,0.8004589000001943,['c'],1,left,['2'],5,0.35149189999992814,0.4,0,AccFast,38,18,Woman,Right,
17,8,1,0.6839922999997725,['c'],0,right,['2'],5,0.5514521999994031,0.1,0,AccFast,38,18,Woman,Right,
18,8,1,0.7666869000004226,['c'],0,right,['0'],1,1.535037999999986,0.2,0,AccFast,38,18,Woman,Right,
19,8,1,1.5330663999993703,['c'],1,left,['3'],4,0.8014413999999306,0.1,0,AccFast,38,18,Woman,Right,
20,8,1,0.7339167999998608,['c'],0,right,['3'],4,0.4843322000006083,0.4,0,AccFast,38,18,Woman,Right,
21,8,1,0.750376399999368,['c'],1,left,['2'],5,0.6006671000004644,0.4,0,AccFast,38,18,Woman,Right,
22,8,1,1.3655936000004658,['c'],1,left,['3'],4,0.5847643000006428,0.2,0,AccFast,38,18,Woman,Right,
23,8,1,0.8341787999997905,['c'],0,right,['3'],4,0.43474370000058116,0.1,0,AccFast,38,18,Woman,Right,
24,8,1,1.417034699999931,['n'],1,right,['2'],5,0.7344929999999295,0.4,0,AccFast,38,18,Woman,Right,
25,8,1,2.2169495999996798,['c'],0,right,['2'],5,0.5679989000000205,0.2,0,AccFast,38,18,Woman,Right,
26,8,1,2.2169622999999774,['n'],0,left,['9'],2,0.9514775000006921,0.1,0,AccFast,38,18,Woman,Right,
27,8,1,1.0487370999999257,['c'],1,left,['3'],4,0.5181634000000486,0.2,0,AccFast,38,18,Woman,Right,
28,8,1,0.7994235999994999,['n'],1,right,['2'],5,0.6690781999996034,0.4,0,AccFast,38,18,Woman,Right,
29,8,1,2.4169507999995403,['n'],0,left,['8'],3,0.6008555000007618,0.1,0,AccFast,38,18,Woman,Right,
30,8,1,1.1166996000001745,['c'],0,right,['3'],4,0.43467770000006567,0.2,0,AccFast,38,18,Woman,Right,
31,8,1,1.650650499999756,['n'],0,left,['3'],4,0.6177919000001566,0.4,0,AccFast,38,18,Woman,Right,
32,8,1,1.3157217999996647,['c'],1,left,['3'],4,0.8354386999999406,0.1,0,AccFast,38,18,Woman,Right,
33,8,1,2.550583899999765,['c'],1,left,['3'],4,1.0840547000007064,0.4,0,AccFast,38,18,Woman,Right,
34,8,1,1.616897599999902,['c'],1,left,['2'],5,1.0679866000000402,0.1,0,AccFast,38,18,Woman,Right,
35,8,1,1.7322089000008418,['n'],1,right,['2'],5,0.5341921999997794,0.4,0,AccFast,38,18,Woman,Right,
36,8,1,2.5994896000001972,['c'],0,right,['3'],4,0.5682894000001397,0.2,0,AccFast,38,18,Woman,Right,
37,8,1,2.6504422999996677,['n'],0,left,['9'],2,0.9177219000002879,0.1,0,AccFast,38,18,Woman,Right,
38,8,1,0.7840533999997206,['c'],1,left,['8'],3,1.1004883000005066,0.4,0,AccFast,38,18,Woman,Right,
39,8,1,0.8669286000003922,['n'],0,left,['3'],4,0.3674905999996554,0.2,0,AccFast,38,18,Woman,Right,
40,8,1,3.2338306999999986,['c'],1,left,['8'],3,0.8510547000005317,0.1,0,AccFast,38,18,Woman,Right,
41,8,1,2.083424599999489,['c'],1,left,['3'],4,0.5343689000001177,0.2,0,AccFast,38,18,Woman,Right,
42,8,1,0.8004934999999023,['c'],1,left,['1'],6,0.43441149999944173,0.4,0,AccFast,38,18,Woman,Right,
43,8,1,1.732429300000149,['n'],1,right,['3'],4,1.0849191999996037,0.1,0,AccFast,38,18,Woman,Right,
44,8,1,0.7171133000001646,['c'],1,left,['2'],5,0.33484059999955207,0.4,0,AccFast,38,18,Woman,Right,
45,8,1,1.1669074000001274,['n'],1,right,['2'],5,0.384376500000144,0.2,0,AccFast,38,18,Woman,Right,
46,8,1,0.7171048000000155,['c'],0,right,['2'],5,0.4510946000000331,0.4,0,AccFast,38,18,Woman,Right,
47,8,1,0.917250000000422,['c'],1,left,['1'],6,0.41825450000033015,0.2,0,AccFast,38,18,Woman,Right,
48,8,1,0.6835329999994428,['c'],0,right,['1'],6,0.31791709999924933,0.2,0,AccFast,38,18,Woman,Right,
49,8,1,0.550151299999925,['c'],1,left,['1'],6,0.30112499999995634,0.1,0,AccFast,38,18,Woman,Right,
50,8,1,1.699866199999633,['n'],1,right,['3'],4,1.1677765000004001,0.2,0,AccFast,38,18,Woman,Right,
51,8,1,0.6488877000001594,['c'],1,left,['2'],5,0.7354715999999826,0.4,0,AccFast,38,18,Woman,Right,
52,8,1,1.1663378000002922,['n'],1,right,['2'],5,0.5681485000004614,0.4,0,AccFast,38,18,Woman,Right,
53,8,1,1.066799600000195,['c'],0,right,['2'],5,0.3510798999996041,0.4,0,AccFast,38,18,Woman,Right,
54,8,1,0.6825297000004866,['c'],1,left,['2'],5,0.3013898999997764,0.4,0,AccFast,38,18,Woman,Right,
55,8,1,0.6170213000004878,['c'],0,right,['2'],5,0.267826100000093,0.1,0,AccFast,38,18,Woman,Right,
56,8,1,1.4339051999995718,['c'],0,right,['2'],5,0.21790799999962474,0.2,0,AccFast,38,18,Woman,Right,
57,8,1,0.8007346000003963,['c'],0,right,['1'],6,0.43444259999978385,0.2,0,AccFast,38,18,Woman,Right,
58,8,1,0.6836702000000514,['c'],0,right,['1'],6,0.36810549999972864,0.2,0,AccFast,38,18,Woman,Right,
59,8,1,1.6007225000003018,['n'],1,right,['9'],2,0.6675642999998672,0.2,0,AccFast,38,18,Woman,Right,
0,9,1,1.8668264999996609,['n'],1,right,['3'],4,1.1011338999996951,0.4,0,AccAcc,38,18,Woman,Right,
1,9,1,1.2329880999996021,['c'],1,left,['3'],4,0.6009220999994795,0.2,0,AccAcc,38,18,Woman,Right,
2,9,1,1.4990999999999985,['c'],1,left,['2'],5,0.7506432999998651,0.2,0,AccAcc,38,18,Woman,Right,
3,9,1,1.384107399999266,['c'],1,left,['1'],6,0.5513669000001755,0.2,0,AccAcc,38,18,Woman,Right,
4,9,1,2.601004600000124,['c'],1,left,['3'],4,1.0173757000002297,0.2,0,AccAcc,38,18,Woman,Right,
5,9,1,1.000759200000175,['n'],1,right,['3'],4,0.7178740999997899,0.4,0,AccAcc,38,18,Woman,Right,
6,9,1,1.0829168000000209,['c'],1,left,['3'],4,0.5007341999998971,0.1,0,AccAcc,38,18,Woman,Right,
7,9,1,2.61681309999949,['c'],0,right,['8'],3,0.7844963999996253,0.2,0,AccAcc,38,18,Woman,Right,
8,9,1,0.7495212000003448,['n'],0,left,['3'],4,0.6512738999999783,0.1,0,AccAcc,38,18,Woman,Right,
9,9,1,2.2164668000004895,['n'],1,right,['8'],3,0.7344730999993772,0.4,0,AccAcc,38,18,Woman,Right,
10,9,1,3.099660399999266,['c'],0,right,['8'],3,1.1346481000000495,0.4,0,AccAcc,38,18,Woman,Right,
11,9,1,0.8337486000000354,['c'],0,right,['3'],4,0.5010792000002766,0.1,0,AccAcc,38,18,Woman,Right,
12,9,1,1.0005113999995956,['c'],1,left,['3'],4,0.6336839000005057,0.2,0,AccAcc,38,18,Woman,Right,
13,9,1,2.783762399999432,['c'],0,right,['8'],3,0.6006488000002719,0.1,0,AccAcc,38,18,Woman,Right,
14,9,1,0.7837897999997949,['c'],0,right,['2'],5,0.5176580999996077,0.4,0,AccAcc,38,18,Woman,Right,
15,9,1,2.4832159999996293,['c'],0,right,['3'],4,0.5349808000000849,0.2,0,AccAcc,38,18,Woman,Right,
16,9,1,0.73355520000041,['n'],1,right,['9'],2,0.4677937999995265,0.1,0,AccAcc,38,18,Woman,Right,
17,9,1,0.7176405000000159,['c'],1,left,['1'],6,0.8344477000000552,0.4,0,AccAcc,38,18,Woman,Right,
18,9,1,3.1660800999998173,['c'],0,right,['8'],3,0.9672332000000097,0.2,0,AccAcc,38,18,Woman,Right,
19,9,1,3.2169880999999805,['c'],1,left,['3'],4,0.6178690999995524,0.2,0,AccAcc,38,18,Woman,Right,
20,9,1,2.132107899999937,['n'],1,right,['2'],5,0.8186311999997997,0.2,0,AccAcc,38,18,Woman,Right,
21,9,1,1.300984100000278,['c'],1,left,['2'],5,0.6678473000001759,0.4,0,AccAcc,38,18,Woman,Right,
22,9,1,1.616842600000382,['n'],1,right,['2'],5,0.7345359000000826,0.4,0,AccAcc,38,18,Woman,Right,
23,9,1,1.7167929000006552,['c'],1,left,['0'],1,1.8010407000001578,0.2,0,AccAcc,38,18,Woman,Right,
24,9,1,2.150182600000335,['c'],0,right,['2'],5,1.7509931999993569,0.1,0,AccAcc,38,18,Woman,Right,
25,9,1,1.2837186000006113,['n'],1,right,['1'],6,0.8344526999999289,0.4,0,AccAcc,38,18,Woman,Right,
26,9,1,1.5328876999992644,['c'],0,right,['2'],5,0.8012445000003936,0.2,0,AccAcc,38,18,Woman,Right,
27,9,1,2.0000532999993084,['c'],0,right,['3'],4,0.8678342000002885,0.4,0,AccAcc,38,18,Woman,Right,
28,9,1,1.0335949000000255,['c'],1,left,['3'],4,0.5345275999998194,0.1,0,AccAcc,38,18,Woman,Right,
29,9,1,1.2671810000001642,['c'],0,right,['3'],4,0.5010812999998961,0.1,0,AccAcc,38,18,Woman,Right,
30,9,1,2.184112799999639,['n'],1,right,['3'],4,1.0011506000000736,0.4,0,AccAcc,38,18,Woman,Right,
31,9,1,1.3337068999999246,['c'],1,left,['2'],5,0.517072300000109,0.4,0,AccAcc,38,18,Woman,Right,
32,9,1,3.38331879999987,['n'],0,left,['9'],2,1.1835612000004403,0.1,0,AccAcc,38,18,Woman,Right,
33,9,1,1.9171345000004294,['c'],1,left,['8'],3,0.9342994999997245,0.1,0,AccAcc,38,18,Woman,Right,
34,9,1,1.516802799999823,['c'],1,left,['1'],6,0.45114100000046164,0.4,0,AccAcc,38,18,Woman,Right,
35,9,1,1.5331372000000556,['c'],1,left,['1'],6,0.4845151999998052,0.4,0,AccAcc,38,18,Woman,Right,
36,9,1,1.3985993000005692,['n'],1,right,['3'],4,1.084265100000266,0.1,0,AccAcc,38,18,Woman,Right,
37,9,1,2.316897099999551,['c'],0,right,['3'],4,0.4679444000003059,0.2,0,AccAcc,38,18,Woman,Right,
38,9,1,1.1162071999997352,['c'],1,left,['3'],4,0.3852554000004602,0.4,0,AccAcc,38,18,Woman,Right,
39,9,1,2.217114500000207,['c'],1,left,['9'],2,1.1842703000002075,0.2,0,AccAcc,38,18,Woman,Right,
40,9,1,1.966343400000369,['n'],1,right,['2'],5,0.6342359000000215,0.4,0,AccAcc,38,18,Woman,Right,
41,9,1,1.6500089000001026,['c'],1,left,['2'],5,0.5679830999997648,0.4,0,AccAcc,38,18,Woman,Right,
42,9,1,1.9503228999992643,['c'],1,left,['3'],4,0.48431690000052185,0.2,0,AccAcc,38,18,Woman,Right,
43,9,1,0.8339566000004197,['c'],1,left,['3'],4,0.3179293000002872,0.1,0,AccAcc,38,18,Woman,Right,
44,9,1,1.399908699999287,['c'],1,left,['2'],5,0.7510302999999112,0.4,0,AccAcc,38,18,Woman,Right,
45,9,1,1.1329884999995556,['n'],1,right,['3'],4,0.9011568000005354,0.1,0,AccAcc,38,18,Woman,Right,
46,9,1,2.5668381000004956,['n'],1,right,['3'],4,0.451652899999317,0.2,0,AccAcc,38,18,Woman,Right,
47,9,1,1.8002911000003223,['n'],1,right,['2'],5,0.5178464000000531,0.2,0,AccAcc,38,18,Woman,Right,
48,9,1,2.2833949000005305,['n'],0,left,['0'],1,1.5677092999994784,0.1,0,AccAcc,38,18,Woman,Right,
49,9,1,0.916380300000128,['c'],1,left,['2'],5,0.6175982999993721,0.2,0,AccAcc,38,18,Woman,Right,
50,9,1,1.2667286999994758,['n'],0,left,['8'],3,1.0676026000001002,0.1,0,AccAcc,38,18,Woman,Right,
51,9,1,3.1669616999997743,['n'],1,right,['3'],4,0.7011768000002121,0.1,0,AccAcc,38,18,Woman,Right,
52,9,1,1.2496005000002697,['n'],1,right,['1'],6,0.3178986000002624,0.4,0,AccAcc,38,18,Woman,Right,
53,9,1,0.8497829999996611,['c'],1,left,['3'],4,0.5682538999999451,0.2,0,AccAcc,38,18,Woman,Right,
54,9,1,2.8494893000006414,['c'],0,right,['0'],1,1.1679959000002782,0.1,0,AccAcc,38,18,Woman,Right,
55,9,1,1.5169719999994413,['n'],0,left,['3'],4,1.15132420000009,0.1,0,AccAcc,38,18,Woman,Right,
56,9,1,2.516795500000626,['c'],0,right,['0'],1,2.0179292000002533,0.1,0,AccAcc,38,18,Woman,Right,
57,9,1,1.3672623000002204,['n'],1,right,['2'],5,0.8512275999992198,0.2,0,AccAcc,38,18,Woman,Right,
58,9,1,1.5500263000003542,['c'],1,left,['3'],4,0.6332817000002251,0.1,0,AccAcc,38,18,Woman,Right,
59,9,1,1.0515777000000526,['c'],1,left,['3'],4,0.3344632999996975,0.4,0,AccAcc,38,18,Woman,Right,
0,10,1,1.3839106000004904,['n'],1,right,['2'],5,0.7842246999998679,0.4,0,FastAcc,38,18,Woman,Right,
1,10,1,1.1340742000002138,['n'],1,right,['2'],5,0.6339556999992055,0.1,0,FastAcc,38,18,Woman,Right,
2,10,1,1.0682234000005337,['c'],1,left,['2'],5,0.5844405999996525,0.1,0,FastAcc,38,18,Woman,Right,
3,10,1,2.349341299999651,['n'],1,right,['8'],3,0.9841406999994433,0.2,0,FastAcc,38,18,Woman,Right,
4,10,1,0.6660853000003044,['c'],1,left,['3'],4,0.4348128000001452,0.2,0,FastAcc,38,18,Woman,Right,
5,10,1,0.6342788000001747,['c'],1,left,['2'],5,0.5513338999999178,0.4,0,FastAcc,38,18,Woman,Right,
6,10,1,0.8837596000003032,['c'],1,left,['8'],3,1.2679740000003221,0.2,0,FastAcc,38,18,Woman,Right,
7,10,1,0.8675647999998546,['c'],1,left,['3'],4,0.48425720000068395,0.2,0,FastAcc,38,18,Woman,Right,
8,10,1,0.8503673999994135,['n'],1,right,['2'],5,0.617733699999917,0.2,0,FastAcc,38,18,Woman,Right,
9,10,1,0.6340282000001025,['c'],1,left,['1'],6,0.5509371999996802,0.4,0,FastAcc,38,18,Woman,Right,
10,10,1,0.633711299999959,['c'],1,left,['2'],5,0.6011882000002515,0.4,0,FastAcc,38,18,Woman,Right,
11,10,1,0.6165982000002259,['c'],1,left,['1'],6,0.3846217999998771,0.4,0,FastAcc,38,18,Woman,Right,
12,10,1,1.399927999999818,['n'],0,left,['3'],4,1.2841570000000502,0.1,0,FastAcc,38,18,Woman,Right,
13,10,1,1.183210400000462,['n'],1,right,['1'],6,0.3677168000003803,0.4,0,FastAcc,38,18,Woman,Right,
14,10,1,1.0337337999999363,['n'],1,right,['1'],6,0.33452849999957834,0.2,0,FastAcc,38,18,Woman,Right,
15,10,1,0.8503372999994099,['c'],0,right,['1'],6,0.4176108999999997,0.4,0,FastAcc,38,18,Woman,Right,
16,10,1,1.2324694999997519,['c'],1,left,['1'],6,0.3016258999996353,0.4,0,FastAcc,38,18,Woman,Right,
17,10,1,2.266479099999742,['n'],1,right,['3'],4,0.9011135999999169,0.1,0,FastAcc,38,18,Woman,Right,
18,10,1,1.8498304999993707,['c'],0,right,['8'],3,0.5672578000003341,0.1,0,FastAcc,38,18,Woman,Right,
19,10,1,2.0671119999997245,['n'],1,right,['3'],4,1.0511904000004506,0.1,0,FastAcc,38,18,Woman,Right,
20,10,1,2.599933299999975,['n'],0,left,['3'],4,0.6680618000000322,0.1,0,FastAcc,38,18,Woman,Right,
21,10,1,2.2833991999996215,['c'],1,left,['8'],3,0.7676513000005798,0.4,0,FastAcc,38,18,Woman,Right,
22,10,1,0.8668875000003027,['c'],1,left,['2'],5,0.7012660999998843,0.4,0,FastAcc,38,18,Woman,Right,
23,10,1,2.1828359000001,['n'],1,right,['2'],5,0.5850540999999794,0.2,0,FastAcc,38,18,Woman,Right,
24,10,1,2.3834544000001188,['c'],1,left,['3'],4,1.1511313999999402,0.1,0,FastAcc,38,18,Woman,Right,
25,10,1,0.8670042000003377,['c'],0,right,['0'],1,0.9511476999996376,0.4,0,FastAcc,38,18,Woman,Right,
26,10,1,1.617070700000113,['n'],1,right,['3'],4,0.5180665999996563,0.2,0,FastAcc,38,18,Woman,Right,
27,10,1,0.8500135000003866,['n'],1,right,['2'],5,0.6848084000002927,0.4,0,FastAcc,38,18,Woman,Right,
28,10,1,0.8825925999999527,['c'],1,left,['3'],4,0.518152700000428,0.1,0,FastAcc,38,18,Woman,Right,
29,10,1,1.8831497999999556,['n'],1,right,['8'],3,0.8177116000006208,0.2,0,FastAcc,38,18,Woman,Right,
30,10,1,2.4002051999996183,['n'],1,right,['3'],4,0.5177443000002313,0.2,0,FastAcc,38,18,Woman,Right,
31,10,1,0.7002983000002132,['c'],0,right,['3'],4,0.7512821999998778,0.2,0,FastAcc,38,18,Woman,Right,
32,10,1,1.4321942000005947,['c'],1,left,['3'],4,0.5182904000002964,0.1,0,FastAcc,38,18,Woman,Right,
33,10,1,0.8169453000000431,['n'],1,right,['3'],4,0.8507343999999648,0.1,0,FastAcc,38,18,Woman,Right,
34,10,1,1.7331712999994124,['c'],0,right,['3'],4,0.7341506000002482,0.2,0,FastAcc,38,18,Woman,Right,
35,10,1,2.250744599999962,['n'],1,right,['3'],4,0.533638200000496,0.1,0,FastAcc,38,18,Woman,Right,
36,10,1,1.0502848000005542,['c'],1,left,['1'],6,0.3178465999999389,0.4,0,FastAcc,38,18,Woman,Right,
37,10,1,0.933773800000381,['c'],1,left,['1'],6,0.35084269999970275,0.2,0,FastAcc,38,18,Woman,Right,
38,10,1,0.5835933999996996,['c'],1,left,['1'],6,0.33468140000059066,0.2,0,FastAcc,38,18,Woman,Right,
39,10,1,0.6174256000003879,['c'],1,left,['1'],6,0.38447420000011334,0.4,0,FastAcc,38,18,Woman,Right,
40,10,1,0.6498519999995551,['c'],1,left,['1'],6,0.3164575999999215,0.4,0,FastAcc,38,18,Woman,Right,
41,10,1,0.8507374000000709,['n'],1,right,['3'],4,1.201375999999982,0.2,0,FastAcc,38,18,Woman,Right,
42,10,1,0.7676336000004085,['c'],1,left,['2'],5,0.3345620999998573,0.1,0,FastAcc,38,18,Woman,Right,
43,10,1,0.5169058999999834,['c'],1,left,['2'],5,0.40121220000037283,0.4,0,FastAcc,38,18,Woman,Right,
44,10,1,3.0168156999998246,['n'],0,left,['8'],3,0.8173360999999204,0.2,0,FastAcc,38,18,Woman,Right,
45,10,1,1.100419200000033,['c'],1,left,['2'],5,0.4349065000005794,0.2,0,FastAcc,38,18,Woman,Right,
46,10,1,2.2161653000002843,['c'],0,right,['8'],3,0.9506660999995802,0.1,0,FastAcc,38,18,Woman,Right,
47,10,1,1.2662637000003087,['n'],1,right,['2'],5,0.551070499999696,0.4,0,FastAcc,38,18,Woman,Right,
48,10,1,1.3338996000002226,['c'],0,right,['3'],4,0.5345778000000792,0.2,0,FastAcc,38,18,Woman,Right,
49,10,1,2.7505275000003166,['c'],1,left,['8'],3,0.7344492000001992,0.1,0,FastAcc,38,18,Woman,Right,
50,10,1,1.9170773999994708,['n'],1,right,['3'],4,0.8015401000002385,0.1,0,FastAcc,38,18,Woman,Right,
51,10,1,1.6339601999998195,['c'],0,right,['3'],4,0.40123620000031224,0.2,0,FastAcc,38,18,Woman,Right,
52,10,1,1.4334588000001531,['c'],0,right,['3'],4,0.46817750000082015,0.1,0,FastAcc,38,18,Woman,Right,
53,10,1,1.0498487999993813,['c'],0,right,['3'],4,0.28457350000007864,0.1,0,FastAcc,38,18,Woman,Right,
54,10,1,1.233190700000705,['c'],1,left,['9'],2,1.0682268999998996,0.4,0,FastAcc,38,18,Woman,Right,
55,10,1,1.0671177000003809,['c'],1,left,['2'],5,0.41744110000036017,0.2,0,FastAcc,38,18,Woman,Right,
56,10,1,2.199893500000144,['c'],0,right,['3'],4,1.6665028999996139,0.1,0,FastAcc,38,18,Woman,Right,
57,10,1,2.318222599999899,['n'],0,left,['3'],4,0.7506192000000738,0.1,0,FastAcc,38,18,Woman,Right,
58,10,1,0.9501118000007409,['c'],0,right,['0'],1,1.0176172999999835,0.4,0,FastAcc,38,18,Woman,Right,
59,10,1,1.0500357999999324,['c'],1,left,['1'],6,0.5015091000004759,0.4,0,FastAcc,38,18,Woman,Right,
0,11,1,0.6999604000002364,['c'],1,left,['1'],6,0.3677689999994982,0.4,0,FastFast,38,18,Woman,Right,
1,11,1,1.5677136000003884,['n'],1,right,['2'],5,0.7344361000004938,0.2,0,FastFast,38,18,Woman,Right,
2,11,1,0.633158700000422,['c'],1,left,['1'],6,0.4342127999998411,0.4,0,FastFast,38,18,Woman,Right,
3,11,1,0.7838019000000713,['n'],1,right,['3'],4,0.5512074999996912,0.4,0,FastFast,38,18,Woman,Right,
4,11,1,0.8173895999998422,['c'],0,right,['2'],5,0.4180624999999054,0.2,0,FastFast,38,18,Woman,Right,
5,11,1,0.7498425000003408,['c'],0,right,['3'],4,0.40086220000011963,0.2,0,FastFast,38,18,Woman,Right,
6,11,1,0.5836549999994531,['c'],1,left,['2'],5,0.4683197000003929,0.1,0,FastFast,38,18,Woman,Right,
7,11,1,1.3327923000006194,['c'],1,left,['2'],5,0.4849954000001162,0.2,0,FastFast,38,18,Woman,Right,
8,11,1,1.2007015999997748,['n'],1,right,['2'],5,0.683881900000415,0.1,0,FastFast,38,18,Woman,Right,
9,11,1,0.8010021000000052,['c'],0,right,['3'],4,0.43468699999993987,0.4,0,FastFast,38,18,Woman,Right,
10,11,1,0.8836443000000145,['c'],1,left,['3'],4,0.7009746999992785,0.1,0,FastFast,38,18,Woman,Right,
11,11,1,1.4831000999993194,['c'],1,left,['2'],5,0.5177402999997867,0.4,0,FastFast,38,18,Woman,Right,
12,11,1,0.9005360999999539,['c'],1,left,['2'],5,0.6345805000000837,0.1,0,FastFast,38,18,Woman,Right,
13,11,1,2.23357599999963,['c'],0,right,['3'],4,0.3849520999992819,0.1,0,FastFast,38,18,Woman,Right,
14,11,1,1.184056299999611,['n'],0,left,['3'],4,0.7510554999998931,0.1,0,FastFast,38,18,Woman,Right,
15,11,1,0.9338417999997546,['c'],0,right,['3'],4,0.46782380000058765,0.1,0,FastFast,38,18,Woman,Right,
16,11,1,3.100066899999547,['n'],0,left,['8'],3,0.784236299999975,0.2,0,FastFast,38,18,Woman,Right,
17,11,1,0.7000435999998444,['c'],0,right,['3'],4,0.4178548999998384,0.2,0,FastFast,38,18,Woman,Right,
18,11,1,1.5670154000008552,['c'],0,right,['3'],4,0.41773839999950724,0.4,0,FastFast,38,18,Woman,Right,
19,11,1,0.9655161000000589,['c'],1,left,['3'],4,0.6509310000001278,0.2,0,FastFast,38,18,Woman,Right,
20,11,1,0.8183643000002121,['n'],1,right,['8'],3,0.4007141000001866,0.1,0,FastFast,38,18,Woman,Right,
21,11,1,2.3483773000007204,['n'],0,left,['3'],4,0.71879220000028,0.1,0,FastFast,38,18,Woman,Right,
22,11,1,0.6838378000002194,['c'],1,left,['3'],4,0.45123530000000756,0.4,0,FastFast,38,18,Woman,Right,
23,11,1,0.8500842000003104,['n'],1,right,['8'],3,0.43460899999990943,0.4,0,FastFast,38,18,Woman,Right,
24,11,1,1.2169905999999173,['c'],1,left,['2'],5,0.7179624000000331,0.2,0,FastFast,38,18,Woman,Right,
25,11,1,1.8331686000001355,['n'],1,right,['2'],5,0.6178479000009247,0.2,0,FastFast,38,18,Woman,Right,
26,11,1,1.8168382000003476,['n'],1,right,['1'],6,0.5677591999992728,0.1,0,FastFast,38,18,Woman,Right,
27,11,1,1.8996783999991749,['c'],0,right,['3'],4,0.36749070000041684,0.2,0,FastFast,38,18,Woman,Right,
28,11,1,1.9999021000003268,['n'],1,right,['1'],6,0.6514212000001862,0.4,0,FastFast,38,18,Woman,Right,
29,11,1,2.366364199999225,['c'],1,left,['3'],4,1.4012603999999556,0.1,0,FastFast,38,18,Woman,Right,
30,11,1,0.7338603999996849,['c'],1,left,['3'],4,0.4168714999996155,0.2,0,FastFast,38,18,Woman,Right,
31,11,1,0.7332346000002872,['c'],0,right,['3'],4,0.3672569000009389,0.2,0,FastFast,38,18,Woman,Right,
32,11,1,0.8506777999991755,['c'],0,right,['8'],3,0.6677694000009069,0.1,0,FastFast,38,18,Woman,Right,
33,11,1,0.7668799000002764,['c'],1,left,['2'],5,0.3012627000007342,0.4,0,FastFast,38,18,Woman,Right,
34,11,1,2.9668579999997746,['n'],0,left,['3'],4,0.7340803999995842,0.1,0,FastFast,38,18,Woman,Right,
35,11,1,1.0502885000005335,['n'],1,right,['3'],4,0.651510399999097,0.1,0,FastFast,38,18,Woman,Right,
36,11,1,0.6006364000004396,['c'],1,left,['2'],5,0.4010895999999775,0.4,0,FastFast,38,18,Woman,Right,
37,11,1,0.649642500000482,['c'],1,left,['1'],6,0.3680764000000636,0.4,0,FastFast,38,18,Woman,Right,
38,11,1,0.6001668999997491,['c'],1,left,['2'],5,0.3179550000004383,0.1,0,FastFast,38,18,Woman,Right,
39,11,1,0.5837250999993557,['c'],1,left,['1'],6,0.3510521999996854,0.4,0,FastFast,38,18,Woman,Right,
40,11,1,0.5003304000001663,['c'],1,left,['1'],6,0.3846595000013622,0.4,0,FastFast,38,18,Woman,Right,
41,11,1,0.46703010000055656,['c'],0,right,['2'],5,0.3843065999990358,0.2,0,FastFast,38,18,Woman,Right,
42,11,1,1.2500775000007707,['n'],1,right,['9'],2,0.45073210000009567,0.4,0,FastFast,38,18,Woman,Right,
43,11,1,2.749632400000337,['n'],1,right,['3'],4,0.7345920000007027,0.2,0,FastFast,38,18,Woman,Right,
44,11,1,2.3668930000003456,['n'],0,left,['8'],3,0.7514196000010998,0.1,0,FastFast,38,18,Woman,Right,
45,11,1,0.6508362000004126,['c'],1,left,['2'],5,0.41837130000021716,0.4,0,FastFast,38,18,Woman,Right,
46,11,1,1.5997846000009304,['n'],1,right,['2'],5,0.5670647999995708,0.2,0,FastFast,38,18,Woman,Right,
47,11,1,1.2998263000008592,['c'],0,right,['3'],4,0.5514531000007992,0.1,0,FastFast,38,18,Woman,Right,
48,11,1,0.7159916000000521,['n'],1,right,['2'],5,0.5188678000013169,0.2,0,FastFast,38,18,Woman,Right,
49,11,1,0.999494900001082,['n'],1,right,['2'],5,0.41805740000017977,0.1,0,FastFast,38,18,Woman,Right,
50,11,1,2.7171779000000242,['c'],1,left,['3'],4,0.45089980000011565,0.1,0,FastFast,38,18,Woman,Right,
51,11,1,0.8667791000007128,['n'],1,right,['3'],4,0.7342994999999064,0.4,0,FastFast,38,18,Woman,Right,
52,11,1,1.2338509000001068,['c'],1,left,['2'],5,0.36693129999912344,0.2,0,FastFast,38,18,Woman,Right,
53,11,1,1.8671937999988586,['n'],0,left,['8'],3,0.7512621999994735,0.1,0,FastFast,38,18,Woman,Right,
54,11,1,0.9333915000006527,['n'],1,right,['1'],6,0.5348388999991585,0.2,0,FastFast,38,18,Woman,Right,
55,11,1,0.8174996999987343,['c'],1,left,['1'],6,0.43430649999936577,0.4,0,FastFast,38,18,Woman,Right,
56,11,1,0.8175138999995397,['c'],1,left,['1'],6,0.4843985999996221,0.2,0,FastFast,38,18,Woman,Right,
57,11,1,0.716779200000019,['n'],1,right,['2'],5,0.4680244999999559,0.4,0,FastFast,38,18,Woman,Right,
58,11,1,2.0001076000007743,['n'],1,right,['2'],5,0.30132140000023355,0.2,0,FastFast,38,18,Woman,Right,
59,11,1,0.8671803999986878,['c'],1,left,['2'],5,0.35055110000030254,0.4,0,FastFast,38,18,Woman,Right,
0,12,1,1.6170700999991823,['c'],1,left,['3'],4,0.3845662000003358,0.2,0,AccFast,38,18,Woman,Right,
1,12,1,1.817139099999622,['n'],1,right,['2'],5,0.5677773999996134,0.2,0,AccFast,38,18,Woman,Right,
2,12,1,2.8001980999997613,['c'],1,left,['2'],5,0.4680943000003026,0.4,0,AccFast,38,18,Woman,Right,
3,12,1,0.8504190999992716,['n'],1,right,['2'],5,0.5844706999996561,0.4,0,AccFast,38,18,Woman,Right,
4,12,1,1.199835899999016,['n'],1,right,['3'],4,0.6013896000004024,0.4,0,AccFast,38,18,Woman,Right,
5,12,1,2.167710599998827,['c'],0,right,['8'],3,1.0178127999988646,0.1,0,AccFast,38,18,Woman,Right,
6,12,1,1.5830502999997407,['n'],1,right,['2'],5,0.5511145999989822,0.4,0,AccFast,38,18,Woman,Right,
7,12,1,0.8839083999991999,['c'],1,left,['2'],5,0.45117520000167133,0.4,0,AccFast,38,18,Woman,Right,
8,12,1,1.6500553000005311,['n'],1,right,['3'],4,0.48496829999930924,0.2,0,AccFast,38,18,Woman,Right,
9,12,1,0.9503159999985655,['c'],0,right,['2'],5,0.4178814999995666,0.2,0,AccFast,38,18,Woman,Right,
10,12,1,1.8663691000001563,['c'],1,left,['3'],4,0.45106590000068536,0.1,0,AccFast,38,18,Woman,Right,
11,12,1,1.6826752000015404,['c'],1,left,['3'],4,0.41719840000041586,0.2,0,AccFast,38,18,Woman,Right,
12,12,1,1.4504970000016328,['c'],1,left,['3'],4,0.35130170000047656,0.2,0,AccFast,38,18,Woman,Right,
13,12,1,2.8672086000005947,['c'],1,left,['3'],4,0.21712200000001758,0.2,0,AccFast,38,18,Woman,Right,
14,12,1,2.5673188000000664,['n'],1,right,['3'],4,0.41797959999894374,0.1,0,AccFast,38,18,Woman,Right,
15,12,1,2.616872799999328,['c'],0,right,['8'],3,0.5502625000008265,0.1,0,AccFast,38,18,Woman,Right,
16,12,1,1.483848099998795,['n'],1,right,['1'],6,0.6680699000007735,0.4,0,AccFast,38,18,Woman,Right,
17,12,1,2.8833995000004506,['c'],0,right,['9'],2,0.617942499999117,0.1,0,AccFast,38,18,Woman,Right,
18,12,1,1.9838060999991285,['c'],1,left,['3'],4,0.6845952000003308,0.4,0,AccFast,38,18,Woman,Right,
19,12,1,1.3334448999994493,['n'],1,right,['2'],5,0.18499580000025162,0.2,0,AccFast,38,18,Woman,Right,
20,12,1,1.3494487000007211,['c'],1,left,['3'],4,0.2178315000001021,0.4,0,AccFast,38,18,Woman,Right,
21,12,1,0.883995899999718,['n'],1,right,['2'],5,0.15122619999965536,0.2,0,AccFast,38,18,Woman,Right,
22,12,1,1.9506197000009706,['n'],0,left,['3'],4,0.7679058999983681,0.1,0,AccFast,38,18,Woman,Right,
23,12,1,1.1840961999987485,['c'],1,left,['2'],5,0.3844403000002785,0.1,0,AccFast,38,18,Woman,Right,
24,12,1,1.5325571000012133,['n'],1,right,['3'],4,0.20157259999905364,0.1,0,AccFast,38,18,Woman,Right,
25,12,1,1.1006507000001875,['c'],1,left,['3'],4,0.21758080000108748,0.1,0,AccFast,38,18,Woman,Right,
26,12,1,2.0504643999993277,['n'],1,right,['3'],4,0.2846675000000687,0.2,0,AccFast,38,18,Woman,Right,
27,12,1,1.9672602000009647,['c'],0,right,['8'],3,0.9349713999999949,0.1,0,AccFast,38,18,Woman,Right,
28,12,1,2.2338297000005696,['c'],1,left,['3'],4,0.36686769999869284,0.4,0,AccFast,38,18,Woman,Right,
29,12,1,3.3504649000005884,['c'],1,left,['3'],4,0.3180826999996498,0.1,0,AccFast,38,18,Woman,Right,
30,12,1,1.2831805999994685,['c'],1,left,['8'],3,0.9183063000000402,0.2,0,AccFast,38,18,Woman,Right,
31,12,1,1.4506889000003866,['c'],1,left,['2'],5,0.3178358000004664,0.4,0,AccFast,38,18,Woman,Right,
32,12,1,1.9335883000003378,['n'],1,right,['2'],5,0.7343065999993996,0.2,0,AccFast,38,18,Woman,Right,
33,12,1,0.8669131999995443,['c'],1,left,['2'],5,0.5010234000001219,0.4,0,AccFast,38,18,Woman,Right,
34,12,1,2.983024500001193,['n'],1,right,['8'],3,1.0677649999997811,0.2,0,AccFast,38,18,Woman,Right,
35,12,1,0.8501759999999194,['c'],1,left,['2'],5,0.4677425999998377,0.1,0,AccFast,38,18,Woman,Right,
36,12,1,1.1335352000005514,['c'],1,left,['2'],5,0.40133760000026086,0.2,0,AccFast,38,18,Woman,Right,
37,12,1,2.1821913000003406,['n'],1,right,['2'],5,0.9844379999994999,0.4,0,AccFast,38,18,Woman,Right,
38,12,1,1.0671094999997877,['c'],0,right,['3'],4,0.5011271999992459,0.4,0,AccFast,38,18,Woman,Right,
39,12,1,2.433025099999213,['c'],0,right,['3'],4,0.4844456999999238,0.4,0,AccFast,38,18,Woman,Right,
40,12,1,0.7673338999993575,['c'],1,left,['2'],5,0.38459470000088913,0.2,0,AccFast,38,18,Woman,Right,
41,12,1,2.367222299999412,['c'],1,left,['3'],4,0.7842467999998917,0.2,0,AccFast,38,18,Woman,Right,
42,12,1,2.8333782000008796,['n'],1,right,"['3', '8', '9', '2']",4,0.6685546000007889,0.1,0,AccFast,38,18,Woman,Right,
43,12,1,1.4670111000014003,['c'],0,right,['3'],4,0.41776910000044154,0.1,0,AccFast,38,18,Woman,Right,
44,12,1,0.7668616000009933,['c'],0,right,['2'],5,0.48466259999986505,0.2,0,AccFast,38,18,Woman,Right,
45,12,1,0.9498299999995652,['c'],1,left,['3'],4,0.2843526999986352,0.2,0,AccFast,38,18,Woman,Right,
46,12,1,0.9333549000002677,['c'],0,right,['3'],4,0.23460010000053444,0.1,0,AccFast,38,18,Woman,Right,
47,12,1,1.0835817999995925,['n'],1,right,['8'],3,0.651334099999076,0.4,0,AccFast,38,18,Woman,Right,
48,12,1,0.8332267000005231,['c'],0,right,['3'],4,0.25136969999948633,0.2,0,AccFast,38,18,Woman,Right,
49,12,1,0.8341627999998309,['c'],1,left,['3'],4,0.25118600000132574,0.4,0,AccFast,38,18,Woman,Right,
50,12,1,2.2672544000015478,['c'],1,left,['3'],4,0.20139650000055553,0.1,0,AccFast,38,18,Woman,Right,
51,12,1,1.3175023999992845,['c'],0,right,['3'],4,0.15122539999902074,0.4,0,AccFast,38,18,Woman,Right,
52,12,1,1.0506424000013794,['c'],1,left,['3'],4,0.21711409999988973,0.1,0,AccFast,38,18,Woman,Right,
53,12,1,0.9338220999998157,['c'],1,left,['1'],6,0.2343671999988146,0.4,0,AccFast,38,18,Woman,Right,
54,12,1,0.7005128000000695,['c'],1,left,['1'],6,0.23361300000033225,0.4,0,AccFast,38,18,Woman,Right,
55,12,1,1.8168550999998843,['n'],0,left,['9'],2,0.2012164000007033,0.1,0,AccFast,38,18,Woman,Right,
56,12,1,0.7831304999999702,['c'],0,right,['2'],5,0.46838430000025255,0.1,0,AccFast,38,18,Woman,Right,
57,12,1,1.0168508999995538,['c'],0,right,['2'],5,0.2176091000001179,0.1,0,AccFast,38,18,Woman,Right,
58,12,1,0.8504205000008369,['c'],1,left,['3'],4,0.26791009999942617,0.4,0,AccFast,38,18,Woman,Right,
59,12,1,0.7506317999996099,['c'],1,left,['3'],4,0.2678875000001426,0.2,0,AccFast,38,18,Woman,Right,
0,13,1,2.0832105000008596,['c'],0,right,['3'],4,0.5512564999989991,0.2,0,AccAcc,38,18,Woman,Right,
1,13,1,1.0999991000007867,['c'],1,left,['2'],5,0.5513585999997304,0.2,0,AccAcc,38,18,Woman,Right,
2,13,1,0.8501306999987719,['n'],1,right,['2'],5,0.5346497000009549,0.4,0,AccAcc,38,18,Woman,Right,
3,13,1,2.283918999999514,['c'],1,left,['3'],4,1.1843444000005547,0.1,0,AccAcc,38,18,Woman,Right,
4,13,1,1.0338615000000573,['c'],0,right,['3'],4,0.6841549999990093,0.1,0,AccAcc,38,18,Woman,Right,
5,13,1,1.617349500000273,['n'],1,right,['3'],4,0.6178400999997393,0.1,0,AccAcc,38,18,Woman,Right,
6,13,1,1.0664570999997522,['c'],1,left,['2'],5,0.5847135999993043,0.1,0,AccAcc,38,18,Woman,Right,
7,13,1,2.533631599999353,['n'],1,right,['3'],4,0.6509454999995796,0.2,0,AccAcc,38,18,Woman,Right,
8,13,1,3.467160400001376,['n'],1,right,['3'],4,1.450443699999596,0.4,0,AccAcc,38,18,Woman,Right,
9,13,1,0.7837889000002178,['c'],1,left,['2'],5,0.5844328999992285,0.2,0,AccAcc,38,18,Woman,Right,
10,13,1,2.533888799998749,['n'],1,right,['3'],4,0.6508921999993618,0.1,0,AccAcc,38,18,Woman,Right,
11,13,1,1.2335173999999824,['c'],0,right,['3'],4,0.5345257999997557,0.4,0,AccAcc,38,18,Woman,Right,
12,13,1,0.8171121000013954,['c'],1,left,['2'],5,0.4510334000005969,0.4,0,AccAcc,38,18,Woman,Right,
13,13,1,1.1007978999987245,['c'],1,left,['2'],5,0.4344402999995509,0.2,0,AccAcc,38,18,Woman,Right,
14,13,1,1.7669201999997313,['c'],1,left,['2'],5,0.33450140000059037,0.1,0,AccAcc,38,18,Woman,Right,
15,13,1,0.8335950999990018,['c'],1,left,['2'],5,0.5678607999998349,0.4,0,AccAcc,38,18,Woman,Right,
16,13,1,0.733500099999219,['c'],1,left,['1'],6,0.3848426999993535,0.4,0,AccAcc,38,18,Woman,Right,
17,13,1,0.750187099998584,['n'],1,right,['2'],5,0.45068129999890516,0.4,0,AccAcc,38,18,Woman,Right,
18,13,1,0.7006070999996155,['c'],1,left,['2'],5,0.5179011000000173,0.2,0,AccAcc,38,18,Woman,Right,
19,13,1,0.7664580000000569,['c'],1,left,['2'],5,0.3852931000001263,0.2,0,AccAcc,38,18,Woman,Right,
20,13,1,2.565817099999549,['n'],1,right,['3'],4,0.4184878000014578,0.1,0,AccAcc,38,18,Woman,Right,
21,13,1,1.8003017000010004,['c'],0,right,['2'],5,0.3345530000005965,0.2,0,AccAcc,38,18,Woman,Right,
22,13,1,0.8996869000002334,['c'],1,left,['2'],5,0.3009812000000238,0.4,0,AccAcc,38,18,Woman,Right,
23,13,1,0.8505121000016516,['c'],1,left,['1'],6,0.5183463000012125,0.4,0,AccAcc,38,18,Woman,Right,
24,13,1,0.7330079000003025,['n'],1,right,['2'],5,0.5180318000002444,0.4,0,AccAcc,38,18,Woman,Right,
25,13,1,0.6998046999997314,['c'],1,left,['2'],5,0.4344234000000142,0.4,0,AccAcc,38,18,Woman,Right,
26,13,1,1.4996971000000485,['c'],1,left,['1'],6,0.5678539000000455,0.1,0,AccAcc,38,18,Woman,Right,
27,13,1,0.7672383999997692,['c'],1,left,['1'],6,0.5336750999995274,0.4,0,AccAcc,38,18,Woman,Right,
28,13,1,1.8837628000001132,['n'],1,right,['3'],4,0.9011513999994349,0.2,0,AccAcc,38,18,Woman,Right,
29,13,1,0.8837075000010373,['c'],1,left,['2'],5,0.4847003000013501,0.1,0,AccAcc,38,18,Woman,Right,
30,13,1,0.8336170000002312,['n'],1,right,['3'],4,0.8010195999995631,0.2,0,AccAcc,38,18,Woman,Right,
31,13,1,1.0668951000006928,['c'],1,left,['2'],5,0.40055630000097153,0.2,0,AccAcc,38,18,Woman,Right,
32,13,1,1.5337999000003038,['c'],1,left,['2'],5,0.3178604999993695,0.1,0,AccAcc,38,18,Woman,Right,
33,13,1,1.8666267000007792,['n'],1,right,['8'],3,1.0174525999991602,0.1,0,AccAcc,38,18,Woman,Right,
34,13,1,0.8161502000002656,['c'],0,right,['8'],3,0.6180556999988767,0.2,0,AccAcc,38,18,Woman,Right,
35,13,1,2.2490971999995963,['n'],1,right,['2'],5,0.5513234000009106,0.2,0,AccAcc,38,18,Woman,Right,
36,13,1,3.43341799999871,['n'],1,right,['3'],4,0.767778499999622,0.4,0,AccAcc,38,18,Woman,Right,
37,13,1,3.100111099998685,['n'],0,left,['3'],4,1.0345071000010648,0.1,0,AccAcc,38,18,Woman,Right,
38,13,1,2.3171844000007695,['c'],0,right,['0'],1,1.5677457000001596,0.2,0,AccAcc,38,18,Woman,Right,
39,13,1,1.9334467000007862,['n'],1,right,['2'],5,0.5681894999997894,0.2,0,AccAcc,38,18,Woman,Right,
40,13,1,1.2003586999999243,['n'],1,right,['2'],5,0.517713499999445,0.2,0,AccAcc,38,18,Woman,Right,
41,13,1,1.1669953999989957,['c'],0,right,['2'],5,0.5011745000010706,0.1,0,AccAcc,38,18,Woman,Right,
42,13,1,1.0491734000006545,['c'],0,right,['2'],5,0.4513956999999209,0.4,0,AccAcc,38,18,Woman,Right,
43,13,1,0.7005071000003227,['c'],1,left,['2'],5,0.4671641000004456,0.2,0,AccAcc,38,18,Woman,Right,
44,13,1,0.6335041000002093,['c'],1,left,['2'],5,0.35138000000006286,0.4,0,AccAcc,38,18,Woman,Right,
45,13,1,1.6172277000005124,['n'],1,right,['2'],5,0.5679227999989962,0.4,0,AccAcc,38,18,Woman,Right,
46,13,1,0.7836708999984694,['c'],1,left,['2'],5,0.3846019000011438,0.2,0,AccAcc,38,18,Woman,Right,
47,13,1,0.8501013999994029,['c'],1,left,['2'],5,0.40140579999933834,0.2,0,AccAcc,38,18,Woman,Right,
48,13,1,1.9002367999983107,['n'],1,right,['3'],4,0.8008226000001741,0.1,0,AccAcc,38,18,Woman,Right,
49,13,1,2.2836644999988494,['n'],1,right,['3'],4,0.4682615000001533,0.4,0,AccAcc,38,18,Woman,Right,
50,13,1,0.9329942000003939,['c'],1,left,['2'],5,0.4681364999996731,0.4,0,AccAcc,38,18,Woman,Right,
51,13,1,1.4007146000003559,['c'],1,left,['1'],6,0.4179493999999977,0.1,0,AccAcc,38,18,Woman,Right,
52,13,1,0.8992213000001357,['c'],0,right,['1'],6,0.5853583000007347,0.1,0,AccAcc,38,18,Woman,Right,
53,13,1,2.700109199999133,['n'],0,left,['2'],5,0.28418779999992694,0.1,0,AccAcc,38,18,Woman,Right,
54,13,1,2.0337990000007267,['n'],1,right,['2'],5,0.4009126999990258,0.1,0,AccAcc,38,18,Woman,Right,
55,13,1,1.1504380000005767,['n'],1,right,['2'],5,0.6173866999997699,0.4,0,AccAcc,38,18,Woman,Right,
56,13,1,2.0172481999998126,['n'],0,left,['2'],5,0.4011196999999811,0.1,0,AccAcc,38,18,Woman,Right,
57,13,1,1.8346050000000105,['c'],1,left,['2'],5,0.40105529999891587,0.2,0,AccAcc,38,18,Woman,Right,
58,13,1,0.7993729999998322,['n'],1,right,['2'],5,0.7682762999993429,0.4,0,AccAcc,38,18,Woman,Right,
59,13,1,2.8003152000001137,['n'],0,left,['2'],5,0.5179258000007394,0.1,0,AccAcc,38,18,Woman,Right,
0,14,1,1.1675946000013937,['n'],0,left,['8'],3,0.8837306000004901,0.1,0,FastAcc,38,18,Woman,Right,
1,14,1,1.6830000999998447,['n'],1,right,['3'],4,0.5182259999983216,0.1,0,FastAcc,38,18,Woman,Right,
2,14,1,1.6001182999989396,['n'],1,right,['3'],4,0.31817079999927955,0.2,0,FastAcc,38,18,Woman,Right,
3,14,1,1.3676326999993762,['n'],1,right,['3'],4,0.3344399000015983,0.4,0,FastAcc,38,18,Woman,Right,
4,14,1,1.1341124000009586,['c'],1,left,['3'],4,0.3680895999987115,0.1,0,FastAcc,38,18,Woman,Right,
5,14,1,1.5500405000002502,['c'],1,left,['3'],4,0.3498605000004318,0.1,0,FastAcc,38,18,Woman,Right,
6,14,1,1.6838888999991468,['n'],1,right,['8'],3,0.7843198000009579,0.2,0,FastAcc,38,18,Woman,Right,
7,14,1,0.9159192000006442,['n'],0,left,['2'],5,0.31837590000031923,0.2,0,FastAcc,38,18,Woman,Right,
8,14,1,0.7172776999996131,['n'],1,right,['3'],4,0.48428919999969366,0.2,0,FastAcc,38,18,Woman,Right,
9,14,1,1.8171421000006376,['n'],0,left,['3'],4,0.3010739999990619,0.1,0,FastAcc,38,18,Woman,Right,
10,14,1,0.6002125000013621,['n'],1,right,['3'],4,0.28448150000076566,0.2,0,FastAcc,38,18,Woman,Right,
11,14,1,1.0995823000012024,['c'],1,left,['3'],4,0.3178224000002956,0.4,0,FastAcc,38,18,Woman,Right,
12,14,1,0.8835742999999638,['c'],0,right,['3'],4,0.267835799999375,0.2,0,FastAcc,38,18,Woman,Right,
13,14,1,1.0666172999990522,['n'],1,right,['1'],6,0.5844147999996494,0.4,0,FastAcc,38,18,Woman,Right,
14,14,1,2.3514649999997346,['c'],1,left,['8'],3,0.6678125999987969,0.1,0,FastAcc,38,18,Woman,Right,
15,14,1,1.1340430000000197,['n'],0,left,['2'],5,0.38456980000046315,0.1,0,FastAcc,38,18,Woman,Right,
16,14,1,1.7834060000004683,['n'],0,left,['2'],5,0.4346898000003421,0.4,0,FastAcc,38,18,Woman,Right,
17,14,1,1.7171088000013697,['n'],1,right,['2'],5,0.8676329999998416,0.2,0,FastAcc,38,18,Woman,Right,
18,14,1,1.9994157000000996,['n'],0,left,['3'],4,0.48462190000100236,0.1,0,FastAcc,38,18,Woman,Right,
19,14,1,1.0834977999984403,['n'],1,right,['1'],6,0.3344953000014357,0.2,0,FastAcc,38,18,Woman,Right,
20,14,1,1.650494899999103,['c'],0,right,['1'],6,0.6680524999992485,0.2,0,FastAcc,38,18,Woman,Right,
21,14,1,2.5000660000005155,['n'],0,left,['9'],2,0.9178683999998611,0.1,0,FastAcc,38,18,Woman,Right,
22,14,1,1.9169918999996298,['n'],0,left,['3'],4,0.7014598999994632,0.1,0,FastAcc,38,18,Woman,Right,
23,14,1,1.1834801999993942,['n'],1,right,['2'],5,0.6170647000017198,0.4,0,FastAcc,38,18,Woman,Right,
24,14,1,0.9336941000001389,['n'],0,left,['3'],4,0.5345636999991257,0.4,0,FastAcc,38,18,Woman,Right,
25,14,1,1.4002570000011474,['n'],0,left,['2'],5,0.3845707999989827,0.4,0,FastAcc,38,18,Woman,Right,
26,14,1,0.783100700000432,['n'],0,left,['2'],5,0.28467210000053456,0.4,0,FastAcc,38,18,Woman,Right,
27,14,1,0.9169056999999157,['c'],0,right,['0'],1,1.117698999998538,0.4,0,FastAcc,38,18,Woman,Right,
28,14,1,1.1829854999996314,['n'],0,left,['2'],5,0.3847743000005721,0.4,0,FastAcc,38,18,Woman,Right,
29,14,1,1.2500657000000501,['n'],1,right,['1'],6,0.4843972999988182,0.2,0,FastAcc,38,18,Woman,Right,
30,14,1,1.7833606999993208,['c'],1,left,['1'],6,0.6679452000007586,0.2,0,FastAcc,38,18,Woman,Right,
31,14,1,1.5327324999998382,['n'],0,left,['3'],4,0.7516914999996516,0.1,0,FastAcc,38,18,Woman,Right,
32,14,1,0.8173005999997258,['n'],1,right,['3'],4,0.4678776000000653,0.1,0,FastAcc,38,18,Woman,Right,
33,14,1,2.4666488000002573,['c'],0,right,"['3', '8']",4,0.10198179999861168,0.1,0,FastAcc,38,18,Woman,Right,
34,14,1,1.3835243999983504,['n'],0,left,['8'],3,0.9850904000013543,0.2,0,FastAcc,38,18,Woman,Right,
35,14,1,1.5334474999999657,['c'],1,left,['3'],4,0.45126299999901676,0.1,0,FastAcc,38,18,Woman,Right,
36,14,1,1.783988799999861,['n'],1,right,['3'],4,0.4345723000005819,0.2,0,FastAcc,38,18,Woman,Right,
37,14,1,1.2835403000008228,['n'],0,left,['8'],3,0.6177896000008332,0.2,0,FastAcc,38,18,Woman,Right,
38,14,1,0.5670121000002837,['c'],1,left,['2'],5,0.6173548999995546,0.4,0,FastAcc,38,18,Woman,Right,
39,14,1,0.6170584999999846,['n'],1,right,['2'],5,0.5996360999997705,0.4,0,FastAcc,38,18,Woman,Right,
40,14,1,0.715697799998452,['c'],1,left,['3'],4,0.6849796999995306,0.2,0,FastAcc,38,18,Woman,Right,
41,14,1,0.7989182000001165,['c'],1,left,['3'],4,0.5505780000003142,0.4,0,FastAcc,38,18,Woman,Right,
42,14,1,1.3004651999999624,['n'],1,right,['3'],4,0.617795499998465,0.2,0,FastAcc,38,18,Woman,Right,
43,14,1,1.7662374999999884,['n'],1,right,['9'],2,0.8182343999997101,0.1,0,FastAcc,38,18,Woman,Right,
44,14,1,0.9998445000001084,['c'],1,left,['2'],5,0.5676426000009087,0.2,0,FastAcc,38,18,Woman,Right,
45,14,1,0.8171918000007281,['c'],1,left,['1'],6,0.3679685999995854,0.4,0,FastAcc,38,18,Woman,Right,
46,14,1,0.7665907000009611,['n'],1,right,['1'],6,0.5003084999989369,0.4,0,FastAcc,38,18,Woman,Right,
47,14,1,1.6004978000000847,['c'],1,left,['3'],4,0.40133009999954083,0.2,0,FastAcc,38,18,Woman,Right,
48,14,1,2.0008461000015814,['n'],1,right,['3'],4,1.0844551000009233,0.1,0,FastAcc,38,18,Woman,Right,
49,14,1,0.7838429000003089,['n'],1,right,['3'],4,0.4512589999994816,0.4,0,FastAcc,38,18,Woman,Right,
50,14,1,1.1325548000004346,['n'],0,left,['2'],5,0.3676186000011512,0.2,0,FastAcc,38,18,Woman,Right,
51,14,1,0.7348412000010285,['n'],0,left,['2'],5,0.3680524000010337,0.4,0,FastAcc,38,18,Woman,Right,
52,14,1,1.5010430000002088,['c'],0,right,['0'],1,0.9170620000004419,0.1,0,FastAcc,38,18,Woman,Right,
53,14,1,2.166866300000038,['n'],1,right,['3'],4,0.9013175000000047,0.2,0,FastAcc,38,18,Woman,Right,
54,14,1,1.9503055999994103,['n'],1,right,['3'],4,0.28463729999930365,0.1,0,FastAcc,38,18,Woman,Right,
55,14,1,0.9168845000003785,['n'],1,right,['3'],4,0.31820650000008754,0.1,0,FastAcc,38,18,Woman,Right,
56,14,1,1.0834558000005927,['c'],1,left,['1'],6,0.38456309999855876,0.4,0,FastAcc,38,18,Woman,Right,
57,14,1,1.1836540999993304,['n'],1,right,['2'],5,0.5173856000001251,0.1,0,FastAcc,38,18,Woman,Right,
58,14,1,0.683620300000257,['c'],0,right,['3'],4,0.7020246000010957,0.4,0,FastAcc,38,18,Woman,Right,
59,14,1,1.1839951000001747,['n'],1,right,['3'],4,0.6178471000002901,0.4,0,FastAcc,38,18,Woman,Right,
0,15,1,0.8501239999986865,['c'],1,left,['3'],4,0.3681829999986803,0.2,0,FastFast,38,18,Woman,Right,
1,15,1,0.7000273000012385,['n'],1,right,['3'],4,0.43408760000056645,0.4,0,FastFast,38,18,Woman,Right,
2,15,1,0.917179699999906,['c'],1,left,['2'],5,0.5169197999985045,0.2,0,FastFast,38,18,Woman,Right,
3,15,1,0.9009573000003002,['n'],1,right,['3'],4,0.6170080000010785,0.2,0,FastFast,38,18,Woman,Right,
4,15,1,1.0172601000012946,['n'],0,left,['2'],5,0.3837652000001981,0.2,0,FastFast,38,18,Woman,Right,
5,15,1,1.4334771000012552,['c'],1,left,['1'],6,0.5516661000001477,0.1,0,FastFast,38,18,Woman,Right,
6,15,1,0.71708530000069,['c'],1,left,['3'],4,0.36644429999978456,0.2,0,FastFast,38,18,Woman,Right,
7,15,1,0.7005926000001637,['n'],1,right,['2'],5,0.5512978999995539,0.1,0,FastFast,38,18,Woman,Right,
8,15,1,0.784056899999996,['n'],1,right,['3'],4,0.4345707000011316,0.4,0,FastFast,38,18,Woman,Right,
9,15,1,0.6494366999995691,['n'],1,right,['2'],5,0.43492850000075123,0.4,0,FastFast,38,18,Woman,Right,
10,15,1,1.1833444999992935,['c'],1,left,['8'],3,0.9183573999998771,0.2,0,FastFast,38,18,Woman,Right,
11,15,1,1.1169282999999268,['n'],0,left,['0'],1,1.3342195000004722,0.1,0,FastFast,38,18,Woman,Right,
12,15,1,1.2162859000000026,['n'],1,right,['3'],4,0.5009706000000733,0.4,0,FastFast,38,18,Woman,Right,
13,15,1,1.8162549999997282,['c'],0,right,['3'],4,0.2670923000005132,0.1,0,FastFast,38,18,Woman,Right,
14,15,1,0.9008899999989808,['c'],1,left,['2'],5,0.5176326000000699,0.4,0,FastFast,38,18,Woman,Right,
15,15,1,1.8003960000005463,['n'],1,right,['3'],4,0.8680504000003566,0.1,0,FastFast,38,18,Woman,Right,
16,15,1,1.8496003999989625,['n'],1,right,['3'],4,0.6178670000008424,0.1,0,FastFast,38,18,Woman,Right,
17,15,1,0.7837911000005988,['c'],0,right,['2'],5,0.5674374000009266,0.2,0,FastFast,38,18,Woman,Right,
18,15,1,2.4995037999997294,['n'],1,right,['3'],4,0.35136249999959546,0.1,0,FastFast,38,18,Woman,Right,
19,15,1,0.9991869000004954,['c'],0,right,['8'],3,0.7849334999991697,0.2,0,FastFast,38,18,Woman,Right,
20,15,1,0.9830246000001353,['c'],1,left,['8'],3,0.6178884000000835,0.1,0,FastFast,38,18,Woman,Right,
21,15,1,1.8833582999995997,['c'],0,right,['3'],4,0.5177564999994502,0.2,0,FastFast,38,18,Woman,Right,
22,15,1,1.5157454000000143,['n'],1,right,['3'],4,0.6016342000002624,0.2,0,FastFast,38,18,Woman,Right,
23,15,1,1.0009778999992704,['c'],1,left,['8'],3,0.8006291000001511,0.1,0,FastFast,38,18,Woman,Right,
24,15,1,0.7675665999995545,['c'],1,left,['3'],4,0.43443159999878844,0.1,0,FastFast,38,18,Woman,Right,
25,15,1,1.7489608000014414,['n'],1,right,['3'],4,0.6019156000002113,0.1,0,FastFast,38,18,Woman,Right,
26,15,1,0.5672505000002275,['c'],1,left,['3'],4,0.5345101000002614,0.2,0,FastFast,38,18,Woman,Right,
27,15,1,0.8668567000004259,['c'],0,right,['8'],3,0.7511848000012833,0.1,0,FastFast,38,18,Woman,Right,
28,15,1,1.7666680000002088,['n'],1,right,['8'],3,0.6675274999997782,0.1,0,FastFast,38,18,Woman,Right,
29,15,1,0.6669701000009809,['n'],1,right,['2'],5,0.6011544000011781,0.4,0,FastFast,38,18,Woman,Right,
30,15,1,0.733563800000411,['c'],1,left,['2'],5,0.5507428999990225,0.1,0,FastFast,38,18,Woman,Right,
31,15,1,1.699743999999555,"['n', 'c']",1,right,"['3', '8']",4,0.4847664999997505,0.1,0,FastFast,38,18,Woman,Right,
32,15,1,1.9497327000008227,['n'],1,right,['2'],5,0.7672512000008282,0.4,0,FastFast,38,18,Woman,Right,
33,15,1,0.8512092999990273,['c'],0,right,['3'],4,0.4173623000006046,0.2,0,FastFast,38,18,Woman,Right,
34,15,1,0.8007256999990204,['c'],1,left,['2'],5,0.41755299999931594,0.4,0,FastFast,38,18,Woman,Right,
35,15,1,0.5995367999985319,['c'],1,left,['1'],6,0.40081089999875985,0.4,0,FastFast,38,18,Woman,Right,
36,15,1,1.2012395000001561,['n'],1,right,['3'],4,0.5010750000001281,0.1,0,FastFast,38,18,Woman,Right,
37,15,1,0.6833884000006947,['c'],1,left,['2'],5,0.45128139999906125,0.2,0,FastFast,38,18,Woman,Right,
38,15,1,0.6833755999996356,['c'],1,left,['2'],5,0.4847174999995332,0.4,0,FastFast,38,18,Woman,Right,
39,15,1,0.5335366999988764,['c'],1,left,['1'],6,0.43463340000016615,0.2,0,FastFast,38,18,Woman,Right,
40,15,1,1.2998597999994672,['n'],0,left,['3'],4,0.7512782999983756,0.2,0,FastFast,38,18,Woman,Right,
41,15,1,0.5840183000000252,['c'],1,left,['2'],5,0.4336352000009356,0.4,0,FastFast,38,18,Woman,Right,
42,15,1,0.882772400000249,['n'],1,right,['2'],5,0.5849538000002212,0.2,0,FastFast,38,18,Woman,Right,
43,15,1,2.0843927999994776,"['n', 'c']",1,right,"['3', '9']",4,0.48492330000044603,0.2,0,FastFast,38,18,Woman,Right,
44,15,1,0.8334964999994554,['c'],0,right,['3'],4,0.7511749000004784,0.2,0,FastFast,38,18,Woman,Right,
45,15,1,0.6838639999987208,['c'],1,left,['3'],4,0.46815479999895615,0.4,0,FastFast,38,18,Woman,Right,
46,15,1,0.6997813999987557,['c'],1,left,['3'],4,0.434933299999102,0.1,0,FastFast,38,18,Woman,Right,
47,15,1,0.5835982000007789,['c'],1,left,['3'],4,0.400307599998996,0.4,0,FastFast,38,18,Woman,Right,
48,15,1,1.25085240000044,['n'],1,right,['3'],4,0.5347256000004563,0.4,0,FastFast,38,18,Woman,Right,
49,15,1,0.5836995000008756,['c'],1,left,['3'],4,0.46784630000001926,0.4,0,FastFast,38,18,Woman,Right,
50,15,1,0.6836891999992076,['c'],1,left,['2'],5,0.33493079999971087,0.4,0,FastFast,38,18,Woman,Right,
51,15,1,0.5336686999999074,['c'],1,left,['3'],4,0.9173472000002221,0.1,0,FastFast,38,18,Woman,Right,
52,15,1,0.7336539999996603,['n'],1,right,['3'],4,0.4503652000003058,0.4,0,FastFast,38,18,Woman,Right,
53,15,1,1.5839890000006562,['c'],0,right,['2'],5,0.4013995999994222,0.4,0,FastFast,38,18,Woman,Right,
54,15,1,0.6664276000010432,['c'],1,left,['3'],4,0.3171720999998797,0.1,0,FastFast,38,18,Woman,Right,
55,15,1,0.6506033999994543,['c'],1,left,['3'],4,0.3011629999982688,0.2,0,FastFast,38,18,Woman,Right,
56,15,1,0.7341854000005696,['c'],1,left,['2'],5,0.3513077000006888,0.2,0,FastFast,38,18,Woman,Right,
57,15,1,0.6670687999994698,['c'],1,left,['2'],5,0.28452850000030594,0.1,0,FastFast,38,18,Woman,Right,
58,15,1,1.250233599999774,['n'],1,right,"['3', '8']",4,0.6171240000003309,0.4,0,FastFast,38,18,Woman,Right,
59,15,1,1.6166290999990451,['c'],0,right,"['3', '8']",4,0.46829860000070767,0.4,0,FastFast,38,18,Woman,Right,
