withinblocktrial,block,block_repetition,rt,resp,cor,cresp,conf_press,cj,rtconf,coherence,slow_trial,manipulation,sub,age,gender,handedness,
0,1,1,3.2334539999997105,['c'],1,left,none,-99,-99,0.5,0,none,40,18,Man,Right,
1,1,1,2.6503490000000056,['c'],1,left,none,-99,-99,0.5,0,none,40,18,Man,Right,
2,1,1,0.6505983000001834,['n'],1,right,none,-99,-99,0.5,0,none,40,18,Man,Right,
3,1,1,0.8166455999999016,['c'],1,left,none,-99,-99,0.5,0,none,40,18,Man,Right,
4,1,1,0.5665990000002239,['n'],1,right,none,-99,-99,0.5,0,none,40,18,Man,Right,
5,1,1,0.7847440000000461,['c'],1,left,none,-99,-99,0.5,0,none,40,18,Man,Right,
6,1,1,0.5178918999999951,['n'],0,left,none,-99,-99,0.5,0,none,40,18,Man,Right,
7,1,1,0.7505507000000762,['n'],1,right,none,-99,-99,0.5,0,none,40,18,Man,Right,
8,1,1,0.6679710999997042,['n'],1,right,none,-99,-99,0.5,0,none,40,18,Man,Right,
9,1,1,1.0334398999998484,['c'],0,right,none,-99,-99,0.5,0,none,40,18,Man,Right,
10,1,1,1.0177248999998483,['c'],0,right,none,-99,-99,0.5,0,none,40,18,Man,Right,
11,1,1,0.5503843000001325,['n'],1,right,none,-99,-99,0.5,0,none,40,18,Man,Right,
12,1,1,0.7172479999999268,['c'],1,left,none,-99,-99,0.5,0,none,40,18,Man,Right,
13,1,1,0.5993819000000258,['c'],1,left,none,-99,-99,0.5,0,none,40,18,Man,Right,
14,1,1,0.583882899999935,['n'],1,right,none,-99,-99,0.5,0,none,40,18,Man,Right,
15,1,1,0.5683561000000736,['n'],0,left,none,-99,-99,0.5,0,none,40,18,Man,Right,
16,1,1,0.6003694000000905,['n'],1,right,none,-99,-99,0.5,0,none,40,18,Man,Right,
17,1,1,0.5170060000000376,['n'],1,right,none,-99,-99,0.5,0,none,40,18,Man,Right,
18,1,1,0.5672537999998895,['n'],0,left,none,-99,-99,0.5,0,none,40,18,Man,Right,
19,1,1,0.7014499000001706,['c'],1,left,none,-99,-99,0.5,0,none,40,18,Man,Right,
20,1,1,0.6344859999999244,['n'],0,left,none,-99,-99,0.5,0,none,40,18,Man,Right,
21,1,1,0.6831314999999449,['n'],1,right,none,-99,-99,0.5,0,none,40,18,Man,Right,
22,1,1,0.5490123000004132,['n'],1,right,none,-99,-99,0.5,0,none,40,18,Man,Right,
23,1,1,0.6999411000001601,['c'],1,left,none,-99,-99,0.5,0,none,40,18,Man,Right,
0,1,2,0.8341564000002109,['c'],1,left,none,-99,-99,0.5,0,none,40,18,Man,Right,
1,1,2,0.5674415000003137,['n'],1,right,none,-99,-99,0.5,0,none,40,18,Man,Right,
2,1,2,0.5671683000000485,['n'],1,right,none,-99,-99,0.5,0,none,40,18,Man,Right,
3,1,2,0.5004724000000351,['n'],1,right,none,-99,-99,0.5,0,none,40,18,Man,Right,
4,1,2,0.5171817000000374,['n'],1,right,none,-99,-99,0.5,0,none,40,18,Man,Right,
5,1,2,0.5171602999998868,['n'],1,right,none,-99,-99,0.5,0,none,40,18,Man,Right,
6,1,2,0.5175238000001627,['n'],0,left,none,-99,-99,0.5,0,none,40,18,Man,Right,
7,1,2,0.6321230000003197,['n'],1,right,none,-99,-99,0.5,0,none,40,18,Man,Right,
8,1,2,0.8333729999999377,['c'],1,left,none,-99,-99,0.5,0,none,40,18,Man,Right,
9,1,2,0.5341137000000344,['n'],1,right,none,-99,-99,0.5,0,none,40,18,Man,Right,
10,1,2,0.8157667999998921,['n'],1,right,none,-99,-99,0.5,0,none,40,18,Man,Right,
11,1,2,0.5169671000003291,['n'],1,right,none,-99,-99,0.5,0,none,40,18,Man,Right,
12,1,2,0.6494646999999532,['c'],1,left,none,-99,-99,0.5,0,none,40,18,Man,Right,
13,1,2,0.6673514999997678,['c'],1,left,none,-99,-99,0.5,0,none,40,18,Man,Right,
14,1,2,0.8160955000003014,['c'],1,left,none,-99,-99,0.5,0,none,40,18,Man,Right,
15,1,2,0.5159112999999707,['n'],1,right,none,-99,-99,0.5,0,none,40,18,Man,Right,
16,1,2,0.5324706999999762,['c'],1,left,none,-99,-99,0.5,0,none,40,18,Man,Right,
17,1,2,0.6172686999998405,['c'],1,left,none,-99,-99,0.5,0,none,40,18,Man,Right,
18,1,2,0.5159134000000449,['n'],1,right,none,-99,-99,0.5,0,none,40,18,Man,Right,
19,1,2,0.5012624999999389,['n'],1,right,none,-99,-99,0.5,0,none,40,18,Man,Right,
20,1,2,0.48399220000010246,['c'],1,left,none,-99,-99,0.5,0,none,40,18,Man,Right,
21,1,2,0.784491700000217,['c'],1,left,none,-99,-99,0.5,0,none,40,18,Man,Right,
22,1,2,0.5004816999999093,['c'],1,left,none,-99,-99,0.5,0,none,40,18,Man,Right,
23,1,2,0.5664507999999842,['c'],1,left,none,-99,-99,0.5,0,none,40,18,Man,Right,
0,2,1,1.1168461000002026,['c'],0,right,none,-99,-99,0.2,0,none,40,18,Man,Right,
1,2,1,0.650413700000172,['c'],1,left,none,-99,-99,0.2,0,none,40,18,Man,Right,
2,2,1,0.48350180000034015,['n'],1,right,none,-99,-99,0.2,0,none,40,18,Man,Right,
3,2,1,0.7167414000000463,['n'],0,left,none,-99,-99,0.1,0,none,40,18,Man,Right,
4,2,1,0.8832821999999396,['n'],1,right,none,-99,-99,0.1,0,none,40,18,Man,Right,
5,2,1,0.5168981000001622,['c'],0,right,none,-99,-99,0.2,0,none,40,18,Man,Right,
6,2,1,0.5341825000000426,['c'],1,left,none,-99,-99,0.4,0,none,40,18,Man,Right,
7,2,1,0.6508453999999801,['c'],1,left,none,-99,-99,0.4,0,none,40,18,Man,Right,
8,2,1,0.7682058000000325,['n'],1,right,none,-99,-99,0.2,0,none,40,18,Man,Right,
9,2,1,0.6186209000002236,['c'],1,left,none,-99,-99,0.4,0,none,40,18,Man,Right,
10,2,1,0.8494885000000068,['n'],1,right,none,-99,-99,0.1,0,none,40,18,Man,Right,
11,2,1,0.7166861000000608,['c'],1,left,none,-99,-99,0.1,0,none,40,18,Man,Right,
12,2,1,0.5503180000000611,['n'],0,left,none,-99,-99,0.1,0,none,40,18,Man,Right,
13,2,1,0.5836211000000731,['n'],1,right,none,-99,-99,0.4,0,none,40,18,Man,Right,
14,2,1,0.5510253000002194,['n'],1,right,none,-99,-99,0.2,0,none,40,18,Man,Right,
15,2,1,0.5001352000003862,['n'],1,right,none,-99,-99,0.4,0,none,40,18,Man,Right,
16,2,1,0.5670683999996982,['n'],0,left,none,-99,-99,0.1,0,none,40,18,Man,Right,
17,2,1,0.583052200000111,['c'],1,left,none,-99,-99,0.4,0,none,40,18,Man,Right,
18,2,1,0.6172096999998757,['n'],0,left,none,-99,-99,0.2,0,none,40,18,Man,Right,
19,2,1,0.6846068999998352,['n'],1,right,none,-99,-99,0.2,0,none,40,18,Man,Right,
20,2,1,0.6170330999998441,['n'],0,left,none,-99,-99,0.1,0,none,40,18,Man,Right,
21,2,1,0.5832064999999602,['n'],1,right,none,-99,-99,0.4,0,none,40,18,Man,Right,
22,2,1,0.5010522999996283,['n'],1,right,none,-99,-99,0.4,0,none,40,18,Man,Right,
23,2,1,0.5840268000001743,['c'],1,left,none,-99,-99,0.1,0,none,40,18,Man,Right,
0,3,1,0.7179549999996198,['c'],1,left,['0'],1,3.6178790999997545,0.1,0,none,40,18,Man,Right,
1,3,1,0.9827801999999792,['c'],1,left,['0'],1,1.7183840999996391,0.1,0,none,40,18,Man,Right,
2,3,1,0.8836641000002601,['n'],1,right,['2'],5,1.4501683999997113,0.4,0,none,40,18,Man,Right,
3,3,1,1.96581389999983,['c'],0,right,['2'],5,0.851393299999927,0.4,0,none,40,18,Man,Right,
4,3,1,0.8832807000003413,['c'],1,left,['2'],5,0.7841043000003083,0.4,0,none,40,18,Man,Right,
5,3,1,1.1986619999997856,['c'],1,left,['2'],5,0.4342287999998007,0.2,0,none,40,18,Man,Right,
6,3,1,0.6333031999997729,['n'],1,right,['2'],5,0.7018146000000343,0.2,0,none,40,18,Man,Right,
7,3,1,1.0837007999998605,['c'],1,left,['2'],5,0.6180003999998007,0.4,0,none,40,18,Man,Right,
8,3,1,1.0505294999998114,['n'],1,right,['1'],6,0.9848120999999992,0.4,0,none,40,18,Man,Right,
9,3,1,1.1336788000003253,['c'],1,left,['2'],5,0.8012214000000313,0.1,0,none,40,18,Man,Right,
10,3,1,0.6171698999996806,['n'],1,right,['1'],6,1.3346844999996392,0.1,0,none,40,18,Man,Right,
11,3,1,0.6161903000001985,['n'],1,right,['2'],5,1.051481800000147,0.1,0,none,40,18,Man,Right,
12,3,1,0.7156522999998742,['n'],1,right,['2'],5,0.6348060999998779,0.1,0,none,40,18,Man,Right,
13,3,1,1.4658230000000003,['n'],1,right,['2'],5,0.6505192999998144,0.2,0,none,40,18,Man,Right,
14,3,1,0.6344014000001152,['c'],1,left,['2'],5,0.46814109999968423,0.4,0,none,40,18,Man,Right,
15,3,1,0.6516692000000148,['c'],0,right,['2'],5,0.5679745000002185,0.2,0,none,40,18,Man,Right,
16,3,1,0.6836945000000014,['c'],1,left,['2'],5,0.4342775999998594,0.1,0,none,40,18,Man,Right,
17,3,1,0.6843605999997635,['c'],1,left,['2'],5,0.51642800000036,0.1,0,none,40,18,Man,Right,
18,3,1,0.73382010000023,['c'],1,left,['2'],5,0.5505515999998352,0.4,0,none,40,18,Man,Right,
19,3,1,0.5679681999999957,['n'],1,right,['2'],5,0.5836626000000251,0.2,0,none,40,18,Man,Right,
20,3,1,0.6656393000002936,['n'],1,right,['2'],5,0.4853971000002275,0.4,0,none,40,18,Man,Right,
21,3,1,0.6670902999999271,['c'],1,left,['2'],5,0.4009031999999024,0.2,0,none,40,18,Man,Right,
22,3,1,0.6342011000001548,['c'],1,left,['2'],5,0.416677300000174,0.2,0,none,40,18,Man,Right,
23,3,1,0.5175488999998379,['n'],1,right,['2'],5,0.45132839999996577,0.2,0,none,40,18,Man,Right,
0,4,1,2.2833998999999494,['n'],0,left,['1'],6,2.033851400000003,0.4,0,AccFast,40,18,Man,Right,
1,4,1,2.8507189000001745,['n'],0,left,['2'],5,2.2844060000002173,0.1,0,AccFast,40,18,Man,Right,
2,4,1,0.9502999999999702,['n'],1,right,['2'],5,0.6006932999998753,0.4,0,AccFast,40,18,Man,Right,
3,4,1,2.2837736999999834,['n'],1,right,['2'],5,0.6681410000001051,0.1,0,AccFast,40,18,Man,Right,
4,4,1,2.1002618000002258,['n'],1,right,['1'],6,0.43492890000015905,0.2,0,AccFast,40,18,Man,Right,
5,4,1,1.1155786999997872,['n'],1,right,['2'],5,0.3020973000002414,0.2,0,AccFast,40,18,Man,Right,
6,4,1,0.850234200000159,['n'],1,right,['2'],5,0.31831999999985783,0.1,0,AccFast,40,18,Man,Right,
7,4,1,1.6998513999997158,['n'],0,left,['2'],5,0.7672053000001142,0.1,0,AccFast,40,18,Man,Right,
8,4,1,1.433077400000002,['n'],1,right,['2'],5,0.3855398000000605,0.2,0,AccFast,40,18,Man,Right,
9,4,1,1.6840721999997186,['n'],1,right,['2'],5,0.3994838000003256,0.2,0,AccFast,40,18,Man,Right,
10,4,1,1.3521461000000272,['n'],1,right,['2'],5,0.28481020000026547,0.1,0,AccFast,40,18,Man,Right,
11,4,1,1.8520813999998609,['n'],1,right,['2'],5,0.3516017000001739,0.1,0,AccFast,40,18,Man,Right,
12,4,1,2.4833247000001393,['n'],1,right,['2'],5,0.3679913000000852,0.1,0,AccFast,40,18,Man,Right,
13,4,1,0.8834925000001022,['c'],1,left,['2'],5,0.43421299999999974,0.4,0,AccFast,40,18,Man,Right,
14,4,1,0.7505637999997816,['n'],1,right,['2'],5,0.31595130000005156,0.4,0,AccFast,40,18,Man,Right,
15,4,1,1.3845495000000483,['n'],0,left,['2'],5,0.3502258999997139,0.1,0,AccFast,40,18,Man,Right,
16,4,1,0.8330430000000888,['c'],1,left,['2'],5,0.3357887000001938,0.4,0,AccFast,40,18,Man,Right,
17,4,1,0.9162522000001445,['c'],1,left,['2'],5,0.2671714000002794,0.1,0,AccFast,40,18,Man,Right,
18,4,1,0.950952099999995,['n'],1,right,['2'],5,0.33474040000010064,0.4,0,AccFast,40,18,Man,Right,
19,4,1,0.7014347999997881,['n'],0,left,['2'],5,0.3014955999997255,0.4,0,AccFast,40,18,Man,Right,
20,4,1,3.4668156000002455,['n'],0,left,['2'],5,0.5668943000000581,0.2,0,AccFast,40,18,Man,Right,
21,4,1,2.033281200000147,['n'],0,left,['2'],5,0.45038860000022396,0.4,0,AccFast,40,18,Man,Right,
22,4,1,1.5001807999997254,['n'],0,left,['3'],4,0.38492109999970126,0.2,0,AccFast,40,18,Man,Right,
23,4,1,1.9506940000001123,['n'],1,right,['2'],5,0.41803509999999733,0.1,0,AccFast,40,18,Man,Right,
24,4,1,1.6671845000000758,['n'],1,right,['3'],4,0.3853583999998591,0.2,0,AccFast,40,18,Man,Right,
25,4,1,2.767338799999834,['n'],1,right,['3'],4,0.46791450000000623,0.2,0,AccFast,40,18,Man,Right,
26,4,1,1.6345196000002034,['c'],1,left,['3'],4,0.5846432000003006,0.2,0,AccFast,40,18,Man,Right,
27,4,1,1.8000796999999693,['c'],0,right,['3'],4,0.4179497000000083,0.2,0,AccFast,40,18,Man,Right,
28,4,1,1.0818454000000202,['c'],1,left,['3'],4,0.35086619999992763,0.2,0,AccFast,40,18,Man,Right,
29,4,1,0.9514549000000443,['n'],1,right,['3'],4,0.7017257000002246,0.4,0,AccFast,40,18,Man,Right,
30,4,1,0.9672255000000405,['c'],1,left,['2'],5,0.4338944999999512,0.1,0,AccFast,40,18,Man,Right,
31,4,1,0.750267200000053,['n'],0,left,['3'],4,0.5513326000000234,0.4,0,AccFast,40,18,Man,Right,
32,4,1,0.6830167000002803,['c'],0,right,['2'],5,0.3842419000002337,0.1,0,AccFast,40,18,Man,Right,
33,4,1,0.9160657000002175,['c'],1,left,['3'],4,0.5027292999998281,0.2,0,AccFast,40,18,Man,Right,
34,4,1,0.9171364999997422,['c'],0,right,['3'],4,0.5505205999997997,0.1,0,AccFast,40,18,Man,Right,
35,4,1,1.0008660000003147,['c'],1,left,['3'],4,0.5682285999996566,0.4,0,AccFast,40,18,Man,Right,
36,4,1,0.6508327000001373,['c'],1,left,['2'],5,0.31664249999994354,0.1,0,AccFast,40,18,Man,Right,
37,4,1,0.9997315999999046,['c'],1,left,['2'],5,0.45056819999990694,0.2,0,AccFast,40,18,Man,Right,
38,4,1,1.4831051999999545,['n'],1,right,['2'],5,0.7507047999997667,0.1,0,AccFast,40,18,Man,Right,
39,4,1,2.8009938000000147,['n'],0,left,['2'],5,0.7183181999998851,0.1,0,AccFast,40,18,Man,Right,
40,4,1,0.8496430999998665,['n'],1,right,['2'],5,0.39952149999999165,0.4,0,AccFast,40,18,Man,Right,
41,4,1,0.7831158000003597,['n'],1,right,['2'],5,0.2853393000000324,0.4,0,AccFast,40,18,Man,Right,
42,4,1,1.4167187000002741,['n'],1,right,['2'],5,0.368740699999762,0.4,0,AccFast,40,18,Man,Right,
43,4,1,1.1487836000001153,['n'],0,left,['2'],5,0.41863389999980427,0.2,0,AccFast,40,18,Man,Right,
44,4,1,1.1495427999998356,['n'],1,right,['2'],5,0.38560980000011114,0.2,0,AccFast,40,18,Man,Right,
45,4,1,2.8334360999997443,['n'],1,right,['2'],5,0.41819299999997384,0.2,0,AccFast,40,18,Man,Right,
46,4,1,2.0832822000002125,['c'],1,left,['2'],5,0.5334207000000788,0.1,0,AccFast,40,18,Man,Right,
47,4,1,1.2504973999998583,['c'],0,right,['2'],5,0.634718299999804,0.1,0,AccFast,40,18,Man,Right,
48,4,1,1.0487747000001946,['c'],1,left,['3'],4,0.30087790000015957,0.1,0,AccFast,40,18,Man,Right,
49,4,1,0.9183130000001256,['c'],1,left,['2'],5,0.2328458000001774,0.2,0,AccFast,40,18,Man,Right,
50,4,1,0.8339994000002662,['c'],1,left,['2'],5,0.2525289000000157,0.4,0,AccFast,40,18,Man,Right,
51,4,1,0.6830079000001206,['c'],1,left,['3'],4,0.36692189999985203,0.1,0,AccFast,40,18,Man,Right,
52,4,1,0.78406700000005,['n'],1,right,['2'],5,0.7011020999998436,0.4,0,AccFast,40,18,Man,Right,
53,4,1,2.399017300000196,['c'],0,right,['2'],5,0.4018977000000632,0.4,0,AccFast,40,18,Man,Right,
54,4,1,1.0334742999998525,['c'],0,right,['2'],5,0.40198819999977786,0.2,0,AccFast,40,18,Man,Right,
55,4,1,0.9507764999998471,['c'],0,right,['3'],4,0.5012813999996979,0.4,0,AccFast,40,18,Man,Right,
56,4,1,0.7171864000001733,['c'],1,left,['2'],5,0.616452499999923,0.4,0,AccFast,40,18,Man,Right,
57,4,1,0.7998250999999073,['c'],1,left,['2'],5,0.3510056000000077,0.2,0,AccFast,40,18,Man,Right,
58,4,1,0.8005224999997154,['c'],1,left,['2'],5,0.3346366000000671,0.2,0,AccFast,40,18,Man,Right,
59,4,1,0.6341327000000092,['c'],1,left,['2'],5,0.35099310000032347,0.4,0,AccFast,40,18,Man,Right,
0,5,1,4.150529299999562,['n'],1,right,['2'],5,2.834347600000001,0.1,0,AccAcc,40,18,Man,Right,
1,5,1,2.283217700000023,['n'],1,right,['3'],4,3.2858918000001722,0.4,0,AccAcc,40,18,Man,Right,
2,5,1,3.233496500000001,['n'],0,left,['3'],4,1.2837119000000712,0.1,0,AccAcc,40,18,Man,Right,
3,5,1,2.134558599999764,['c'],1,left,['2'],5,1.4850289999999404,0.2,0,AccAcc,40,18,Man,Right,
4,5,1,1.9335338999999294,['c'],1,left,['3'],4,0.8511809000001449,0.2,0,AccAcc,40,18,Man,Right,
5,5,1,1.1680567999997038,['n'],1,right,['2'],5,0.8501722000000882,0.4,0,AccAcc,40,18,Man,Right,
6,5,1,1.715541999999914,['c'],1,left,['2'],5,1.2188802000000578,0.2,0,AccAcc,40,18,Man,Right,
7,5,1,3.284219699999994,['n'],0,left,['2'],5,0.5833757999998852,0.1,0,AccAcc,40,18,Man,Right,
8,5,1,1.2831363999998757,['n'],1,right,['2'],5,1.984708899999987,0.4,0,AccAcc,40,18,Man,Right,
9,5,1,1.7168619999997645,['n'],1,right,['2'],5,0.6520757999996931,0.4,0,AccAcc,40,18,Man,Right,
10,5,1,1.7335432000004403,['n'],1,right,['2'],5,0.6835653000002821,0.1,0,AccAcc,40,18,Man,Right,
11,5,1,1.8492921000001843,['n'],0,left,['1'],6,0.38462029999982406,0.2,0,AccAcc,40,18,Man,Right,
12,5,1,0.7664386000001286,['c'],1,left,['1'],6,1.401903299999958,0.4,0,AccAcc,40,18,Man,Right,
13,5,1,1.715501199999835,['n'],0,left,['2'],5,1.7507974000000104,0.2,0,AccAcc,40,18,Man,Right,
14,5,1,1.4015879999997196,['n'],1,right,['1'],6,0.8166651999999885,0.4,0,AccAcc,40,18,Man,Right,
15,5,1,2.5003191000000697,['n'],0,left,['2'],5,0.6496015000002444,0.1,0,AccAcc,40,18,Man,Right,
16,5,1,1.2342749999997977,['c'],1,left,['2'],5,1.1522353000000294,0.2,0,AccAcc,40,18,Man,Right,
17,5,1,0.8503167000003486,['n'],1,right,['2'],5,2.750833099999909,0.4,0,AccAcc,40,18,Man,Right,
18,5,1,0.9681217000002107,['n'],1,right,['2'],5,0.7676018000001932,0.4,0,AccAcc,40,18,Man,Right,
19,5,1,3.233564000000115,['n'],1,right,['9'],2,1.4168267000000014,0.2,0,AccAcc,40,18,Man,Right,
20,5,1,1.0341244000001097,['n'],1,right,['2'],5,1.4671078999999736,0.2,0,AccAcc,40,18,Man,Right,
21,5,1,4.701003000000128,['c'],0,right,['3'],4,2.7177019999999175,0.4,0,AccAcc,40,18,Man,Right,
22,5,1,3.716303599999719,['c'],1,left,['2'],5,0.8340034999996533,0.2,0,AccAcc,40,18,Man,Right,
23,5,1,4.115346600000066,['c'],1,left,['2'],5,1.0350846999999703,0.4,0,AccAcc,40,18,Man,Right,
24,5,1,3.7833856000002015,['c'],1,left,['2'],5,0.734730899999704,0.4,0,AccAcc,40,18,Man,Right,
25,5,1,1.9326905999996598,['c'],1,left,['2'],5,0.4834502999997312,0.2,0,AccAcc,40,18,Man,Right,
26,5,1,1.9677692000000206,['n'],1,right,['3'],4,1.417724100000214,0.4,0,AccAcc,40,18,Man,Right,
27,5,1,5.015414400000282,x,-99,right,none,-99,-99,0.2,1,AccAcc,40,18,Man,Right,
28,5,1,1.4337028999998438,['c'],0,right,['2'],5,1.001298499999848,0.1,0,AccAcc,40,18,Man,Right,
29,5,1,1.4670392999996693,['c'],1,left,['2'],5,0.701393900000312,0.4,0,AccAcc,40,18,Man,Right,
30,5,1,1.0003214999996999,['c'],1,left,['2'],5,0.5178458999998838,0.2,0,AccAcc,40,18,Man,Right,
31,5,1,2.5505401000000347,['c'],0,right,['2'],5,0.7683074000001398,0.2,0,AccAcc,40,18,Man,Right,
32,5,1,1.0996133000003283,['c'],0,right,['3'],4,1.302002000000357,0.1,0,AccAcc,40,18,Man,Right,
33,5,1,1.333596999999827,['c'],1,left,['2'],5,0.3516842999997607,0.2,0,AccAcc,40,18,Man,Right,
34,5,1,1.798659300000054,['c'],1,left,['2'],5,0.5693497000002026,0.2,0,AccAcc,40,18,Man,Right,
35,5,1,1.965972800000145,['c'],1,left,['3'],4,0.485302000000047,0.1,0,AccAcc,40,18,Man,Right,
36,5,1,1.6511195999996744,['c'],1,left,['3'],4,0.485010400000192,0.4,0,AccAcc,40,18,Man,Right,
37,5,1,1.6498153000002276,['c'],0,right,['2'],5,0.39979140000014013,0.1,0,AccAcc,40,18,Man,Right,
38,5,1,1.4006641999999374,['c'],0,right,['2'],5,0.4012876000001597,0.1,0,AccAcc,40,18,Man,Right,
39,5,1,1.8838580999999976,['c'],0,right,['2'],5,0.40142939999986993,0.1,0,AccAcc,40,18,Man,Right,
40,5,1,3.083564800000204,['c'],1,left,['2'],5,0.33346239999991667,0.1,0,AccAcc,40,18,Man,Right,
41,5,1,0.9334696999999323,['n'],1,right,['2'],5,0.43335579999984475,0.1,0,AccAcc,40,18,Man,Right,
42,5,1,2.033602400000291,['n'],1,right,['2'],5,1.0354299000000537,0.2,0,AccAcc,40,18,Man,Right,
43,5,1,1.96688260000019,['n'],0,left,['3'],4,1.067780099999709,0.1,0,AccAcc,40,18,Man,Right,
44,5,1,3.264933100000235,['c'],0,right,['2'],5,0.7026989000000867,0.2,0,AccAcc,40,18,Man,Right,
45,5,1,4.382090999999946,['n'],1,right,['2'],5,1.202347799999643,0.1,0,AccAcc,40,18,Man,Right,
46,5,1,3.0334531000003153,['n'],0,left,['3'],4,0.7682682999998178,0.4,0,AccAcc,40,18,Man,Right,
47,5,1,2.550047800000357,['c'],1,left,['8'],3,1.0517710000003717,0.2,0,AccAcc,40,18,Man,Right,
48,5,1,1.883427600000232,['c'],1,left,['2'],5,1.3179998999999043,0.4,0,AccAcc,40,18,Man,Right,
49,5,1,1.3840777000000344,['n'],1,right,['2'],5,0.6014867000003505,0.1,0,AccAcc,40,18,Man,Right,
50,5,1,1.5506521000002067,['n'],1,right,['2'],5,0.4514776000000893,0.4,0,AccAcc,40,18,Man,Right,
51,5,1,3.167436600000201,['n'],1,right,['2'],5,0.4016965999999229,0.2,0,AccAcc,40,18,Man,Right,
52,5,1,1.8169881999997415,['c'],1,left,['2'],5,0.38352779999968334,0.2,0,AccAcc,40,18,Man,Right,
53,5,1,1.533656399999927,['n'],0,left,['2'],5,0.58514520000017,0.1,0,AccAcc,40,18,Man,Right,
54,5,1,2.9831741999996666,['c'],0,right,['2'],5,0.46823730000005526,0.4,0,AccAcc,40,18,Man,Right,
55,5,1,2.933208299999933,['n'],0,left,['2'],5,0.6525350000001708,0.1,0,AccAcc,40,18,Man,Right,
56,5,1,2.7334901999997783,['c'],1,left,['2'],5,0.7678034999998999,0.1,0,AccAcc,40,18,Man,Right,
57,5,1,1.3666551999999683,['c'],0,right,['2'],5,0.40024240000002465,0.4,0,AccAcc,40,18,Man,Right,
58,5,1,2.116819000000305,['c'],1,left,['2'],5,0.5176053000000138,0.1,0,AccAcc,40,18,Man,Right,
59,5,1,1.3672084999998333,['c'],0,right,['2'],5,0.4998507000000245,0.4,0,AccAcc,40,18,Man,Right,
0,6,1,1.2682859999999891,['c'],1,left,['2'],5,2.101309399999991,0.2,0,FastAcc,40,18,Man,Right,
1,6,1,0.6837747999998101,['n'],0,left,['3'],4,2.2349639000003663,0.2,0,FastAcc,40,18,Man,Right,
2,6,1,0.6836902000000009,['n'],1,right,['2'],5,1.150142599999981,0.4,0,FastAcc,40,18,Man,Right,
3,6,1,0.6175419000001057,['c'],1,left,['2'],5,1.7343535999998494,0.1,0,FastAcc,40,18,Man,Right,
4,6,1,1.0164512999999715,['c'],1,left,['2'],5,0.951674599999933,0.2,0,FastAcc,40,18,Man,Right,
5,6,1,0.566645399999743,['n'],1,right,['1'],6,1.7012265999996998,0.4,0,FastAcc,40,18,Man,Right,
6,6,1,0.8669995000000199,['n'],1,right,['1'],6,0.6346459000001232,0.4,0,FastAcc,40,18,Man,Right,
7,6,1,1.2174227999998948,['n'],1,right,['1'],6,0.5844712999996773,0.1,0,FastAcc,40,18,Man,Right,
8,6,1,1.0991767999998956,['c'],1,left,['1'],6,0.8689900999997917,0.2,0,FastAcc,40,18,Man,Right,
9,6,1,0.881915900000422,['c'],1,left,['2'],5,1.335506599999917,0.4,0,FastAcc,40,18,Man,Right,
10,6,1,1.633928300000207,['c'],0,right,['2'],5,1.2847218000001703,0.1,0,FastAcc,40,18,Man,Right,
11,6,1,0.9015102999996998,['c'],1,left,['3'],4,1.2011843999998746,0.2,0,FastAcc,40,18,Man,Right,
12,6,1,1.1502606999997624,['c'],1,left,['2'],5,1.5682200999999623,0.2,0,FastAcc,40,18,Man,Right,
13,6,1,0.7835301000000072,['c'],0,right,['2'],5,1.2352728000000752,0.2,0,FastAcc,40,18,Man,Right,
14,6,1,0.616454099999828,['c'],1,left,['2'],5,1.0835697000002256,0.4,0,FastAcc,40,18,Man,Right,
15,6,1,0.8162532000001193,['c'],0,right,['2'],5,1.7681265000001076,0.1,0,FastAcc,40,18,Man,Right,
16,6,1,1.1493282999999792,['c'],0,right,['2'],5,1.101675299999897,0.4,0,FastAcc,40,18,Man,Right,
17,6,1,1.149170099999992,['c'],0,right,['2'],5,0.4856659000001855,0.1,0,FastAcc,40,18,Man,Right,
18,6,1,1.1495890999999574,['c'],0,right,['2'],5,0.5341998999997486,0.1,0,FastAcc,40,18,Man,Right,
19,6,1,0.6662068000000545,['c'],1,left,['2'],5,0.41908809999995356,0.4,0,FastAcc,40,18,Man,Right,
20,6,1,0.7651237999998557,['n'],1,right,['3'],4,1.3173412000001008,0.2,0,FastAcc,40,18,Man,Right,
21,6,1,0.6669071000001168,['c'],0,right,['3'],4,1.2022400000000744,0.2,0,FastAcc,40,18,Man,Right,
22,6,1,0.7999811999998201,['c'],0,right,['2'],5,0.5352861999999732,0.1,0,FastAcc,40,18,Man,Right,
23,6,1,0.7328879000001507,['c'],1,left,['2'],5,0.3348747000000003,0.2,0,FastAcc,40,18,Man,Right,
24,6,1,1.134878800000024,['c'],0,right,['3'],4,1.7182784999999967,0.4,0,FastAcc,40,18,Man,Right,
25,6,1,0.865469800000028,['c'],1,left,['2'],5,1.0025335000000268,0.2,0,FastAcc,40,18,Man,Right,
26,6,1,0.8664705999999569,['c'],0,right,['2'],5,1.2847449999999299,0.1,0,FastAcc,40,18,Man,Right,
27,6,1,1.2494951000003311,['c'],1,left,['2'],5,0.9679665999997269,0.2,0,FastAcc,40,18,Man,Right,
28,6,1,1.2493978000002244,['c'],1,left,['2'],5,0.8691440999996303,0.1,0,FastAcc,40,18,Man,Right,
29,6,1,1.049451599999884,['n'],1,right,['2'],5,1.1340282999999545,0.2,0,FastAcc,40,18,Man,Right,
30,6,1,0.9835889000000861,['c'],1,left,['3'],4,1.4493416000000252,0.4,0,FastAcc,40,18,Man,Right,
31,6,1,1.066761999999926,['c'],1,left,['2'],5,1.1342303999999785,0.2,0,FastAcc,40,18,Man,Right,
32,6,1,0.5502912000001743,['c'],1,left,['2'],5,1.2173764000003757,0.4,0,FastAcc,40,18,Man,Right,
33,6,1,1.0175071999997272,['n'],1,right,['3'],4,2.8007023999998637,0.2,0,FastAcc,40,18,Man,Right,
34,6,1,0.7835211000001436,['n'],0,left,['2'],5,1.6174584000000323,0.1,0,FastAcc,40,18,Man,Right,
35,6,1,1.3170298999998522,['n'],1,right,['2'],5,1.0510107000000062,0.4,0,FastAcc,40,18,Man,Right,
36,6,1,0.9167607999997927,['n'],1,right,['2'],5,0.9510034999998425,0.2,0,FastAcc,40,18,Man,Right,
37,6,1,1.1832813000000897,['c'],0,right,['2'],5,0.9007628999997905,0.1,0,FastAcc,40,18,Man,Right,
38,6,1,2.649349699999675,['c'],0,right,['2'],5,0.9340681999997287,0.4,0,FastAcc,40,18,Man,Right,
39,6,1,1.8503359999999702,['c'],1,left,['9'],2,1.5341899000000012,0.4,0,FastAcc,40,18,Man,Right,
40,6,1,0.8166867999998431,['c'],0,right,['2'],5,1.6008492999999362,0.1,0,FastAcc,40,18,Man,Right,
41,6,1,0.8998243000000912,['c'],1,left,['2'],5,0.9508803999997326,0.2,0,FastAcc,40,18,Man,Right,
42,6,1,1.1836587999996482,['n'],1,right,['9'],2,1.4674583999999413,0.1,0,FastAcc,40,18,Man,Right,
43,6,1,1.2502645999998094,['n'],0,left,['2'],5,0.9340720999998666,0.1,0,FastAcc,40,18,Man,Right,
44,6,1,0.8834522000001925,['n'],1,right,['2'],5,1.4508516999999301,0.4,0,FastAcc,40,18,Man,Right,
45,6,1,1.149311900000157,['n'],0,left,['2'],5,0.6340196000001015,0.1,0,FastAcc,40,18,Man,Right,
46,6,1,1.300395700000081,['n'],0,left,['2'],5,0.7009355999998661,0.1,0,FastAcc,40,18,Man,Right,
47,6,1,1.5162576999996418,['c'],1,left,['2'],5,0.7342115000001286,0.4,0,FastAcc,40,18,Man,Right,
48,6,1,0.7829667000000882,['c'],1,left,['3'],4,1.8172849000002316,0.4,0,FastAcc,40,18,Man,Right,
49,6,1,0.8847768999999062,['c'],1,left,['2'],5,1.5845086999997875,0.1,0,FastAcc,40,18,Man,Right,
50,6,1,0.750362799999948,['c'],0,right,['9'],2,1.3338644999998905,0.2,0,FastAcc,40,18,Man,Right,
51,6,1,2.032502100000329,['n'],1,right,['9'],2,1.2002129999996214,0.2,0,FastAcc,40,18,Man,Right,
52,6,1,0.9676250000002256,['n'],1,right,['2'],5,0.5522691000001032,0.2,0,FastAcc,40,18,Man,Right,
53,6,1,1.0333409999998366,['c'],1,left,['1'],6,0.7676272999997309,0.4,0,FastAcc,40,18,Man,Right,
54,6,1,1.7478120000000672,['n'],1,right,['2'],5,1.1361752000002525,0.4,0,FastAcc,40,18,Man,Right,
55,6,1,2.23243709999997,['c'],1,left,['2'],5,0.6014200000004166,0.1,0,FastAcc,40,18,Man,Right,
56,6,1,1.882728600000064,['c'],0,right,['9'],2,1.467495400000189,0.1,0,FastAcc,40,18,Man,Right,
57,6,1,0.8008827000003294,['c'],1,left,['2'],5,0.6167712000001302,0.1,0,FastAcc,40,18,Man,Right,
58,6,1,0.900072999999793,['c'],0,right,['2'],5,0.6685318999998344,0.4,0,FastAcc,40,18,Man,Right,
59,6,1,0.9504834000003939,['c'],1,left,['2'],5,0.5346589999999196,0.4,0,FastAcc,40,18,Man,Right,
0,7,1,0.8185009999997419,['c'],1,left,['2'],5,0.5513805999999022,0.1,0,FastFast,40,18,Man,Right,
1,7,1,0.6678263999997398,['c'],1,left,['2'],5,0.24948140000014973,0.2,0,FastFast,40,18,Man,Right,
2,7,1,1.033137099999749,['n'],1,right,['2'],5,0.6182598000000326,0.2,0,FastFast,40,18,Man,Right,
3,7,1,0.8006562000000486,['c'],1,left,['2'],5,0.2679530000000341,0.2,0,FastFast,40,18,Man,Right,
4,7,1,0.5842342999999346,['c'],1,left,['2'],5,0.23382390000006126,0.1,0,FastFast,40,18,Man,Right,
5,7,1,0.7502714000002015,['c'],1,left,['2'],5,0.2347856999999749,0.4,0,FastFast,40,18,Man,Right,
6,7,1,0.5346287000002121,['n'],1,right,['2'],5,0.48510769999984404,0.4,0,FastFast,40,18,Man,Right,
7,7,1,0.716421900000114,['c'],1,left,['1'],6,0.3338578999996571,0.4,0,FastFast,40,18,Man,Right,
8,7,1,0.8505962000003819,['c'],1,left,['2'],5,0.3849947999997312,0.4,0,FastFast,40,18,Man,Right,
9,7,1,0.8506796000001486,['c'],1,left,['2'],5,0.20134170000028462,0.2,0,FastFast,40,18,Man,Right,
10,7,1,1.1685162000003402,['n'],1,right,['2'],5,0.5173343999999815,0.4,0,FastFast,40,18,Man,Right,
11,7,1,2.4312347000000045,['c'],0,right,['2'],5,0.3854030999996212,0.2,0,FastFast,40,18,Man,Right,
12,7,1,0.7839341999997487,['c'],0,right,['2'],5,0.18467009999994843,0.2,0,FastFast,40,18,Man,Right,
13,7,1,1.7333796999996594,['c'],0,right,['2'],5,0.15162710000004154,0.1,0,FastFast,40,18,Man,Right,
14,7,1,1.1673789999999826,['n'],1,right,['9'],2,1.2342185000002246,0.4,0,FastFast,40,18,Man,Right,
15,7,1,1.583825799999886,['n'],0,left,['2'],5,0.550280500000099,0.1,0,FastFast,40,18,Man,Right,
16,7,1,0.7678273999999874,['n'],1,right,['9'],2,0.9846734000002471,0.2,0,FastFast,40,18,Man,Right,
17,7,1,1.5163111000001663,['c'],0,right,['2'],5,0.23461399999996502,0.4,0,FastFast,40,18,Man,Right,
18,7,1,1.1000861999996232,['n'],1,right,['2'],5,0.4846631999998863,0.2,0,FastFast,40,18,Man,Right,
19,7,1,0.750267200000053,['n'],1,right,['9'],2,1.1503507000002173,0.1,0,FastFast,40,18,Man,Right,
20,7,1,0.6329685000000609,['c'],1,left,['2'],5,0.1848875999999109,0.4,0,FastFast,40,18,Man,Right,
21,7,1,1.4831073000000288,['c'],1,left,['2'],5,0.26770189999979266,0.2,0,FastFast,40,18,Man,Right,
22,7,1,0.8498610999999983,['n'],1,right,['1'],6,0.7512560000000121,0.4,0,FastFast,40,18,Man,Right,
23,7,1,0.8826616000001195,['c'],0,right,['2'],5,0.48416520000000673,0.1,0,FastFast,40,18,Man,Right,
24,7,1,0.9338410000000295,['c'],1,left,['1'],6,0.40153120000013587,0.4,0,FastFast,40,18,Man,Right,
25,7,1,1.7160560000002079,['c'],0,right,['2'],5,0.40204640000001746,0.4,0,FastFast,40,18,Man,Right,
26,7,1,0.9499095000001034,['c'],1,left,['2'],5,0.2850556999997025,0.2,0,FastFast,40,18,Man,Right,
27,7,1,0.9503415999997742,['n'],1,right,['3'],4,1.1341189999998278,0.4,0,FastFast,40,18,Man,Right,
28,7,1,0.649529999999686,['c'],1,left,['2'],5,0.3018474000000424,0.2,0,FastFast,40,18,Man,Right,
29,7,1,0.9502022000001489,['c'],1,left,['1'],6,0.3685389000002033,0.4,0,FastFast,40,18,Man,Right,
30,7,1,1.6009958999998162,['n'],0,left,['3'],4,1.1513005000001613,0.1,0,FastFast,40,18,Man,Right,
31,7,1,0.8496175999998741,['c'],0,right,['2'],5,0.5022812000001977,0.1,0,FastFast,40,18,Man,Right,
32,7,1,1.0662680000000364,['c'],1,left,['2'],5,0.2005581000003076,0.1,0,FastFast,40,18,Man,Right,
33,7,1,0.866200999999819,['n'],1,right,['2'],5,0.4345494000003782,0.4,0,FastFast,40,18,Man,Right,
34,7,1,0.6665017999998781,['c'],1,left,['2'],5,0.1508920000001126,0.1,0,FastFast,40,18,Man,Right,
35,7,1,1.1000584000003073,['n'],1,right,['1'],6,0.4013915000000452,0.4,0,FastFast,40,18,Man,Right,
36,7,1,1.6669565000001967,['c'],0,right,['2'],5,0.2513587000003099,0.2,0,FastFast,40,18,Man,Right,
37,7,1,0.7669961000001422,['c'],1,left,['2'],5,0.41798449999987497,0.4,0,FastFast,40,18,Man,Right,
38,7,1,1.2503575999999157,['n'],1,right,['2'],5,0.701198199999908,0.2,0,FastFast,40,18,Man,Right,
39,7,1,0.9670197000000371,['c'],1,left,['2'],5,0.23470270000007076,0.1,0,FastFast,40,18,Man,Right,
40,7,1,1.0343547000002218,['n'],1,right,['2'],5,0.3834850999996888,0.1,0,FastFast,40,18,Man,Right,
41,7,1,1.0168947000001936,['c'],0,right,['2'],5,0.20113960000026054,0.2,0,FastFast,40,18,Man,Right,
42,7,1,2.6167270000000826,['n'],1,right,['2'],5,0.5011185999996997,0.1,0,FastFast,40,18,Man,Right,
43,7,1,0.7330930000002809,['n'],1,right,['2'],5,0.9008975000001556,0.4,0,FastFast,40,18,Man,Right,
44,7,1,0.7349223000001075,['c'],1,left,['1'],6,0.2340518000000884,0.4,0,FastFast,40,18,Man,Right,
45,7,1,1.6842036999996708,['c'],1,left,['9'],2,1.5512552000000142,0.4,0,FastFast,40,18,Man,Right,
46,7,1,2.9995435000000725,['n'],1,right,['3'],4,1.1018997000001036,0.1,0,FastFast,40,18,Man,Right,
47,7,1,0.5337466000000859,['c'],1,left,['2'],5,0.3514094000001933,0.1,0,FastFast,40,18,Man,Right,
48,7,1,0.8504613000000063,['c'],1,left,['2'],5,0.7342076999998426,0.1,0,FastFast,40,18,Man,Right,
49,7,1,1.3665207000003647,['c'],1,left,['2'],5,0.2850936999998339,0.1,0,FastFast,40,18,Man,Right,
50,7,1,0.9497750000000451,['n'],0,left,['9'],2,0.4338496000000305,0.2,0,FastFast,40,18,Man,Right,
51,7,1,0.8340613999998823,['c'],1,left,['2'],5,0.3166387000001123,0.1,0,FastFast,40,18,Man,Right,
52,7,1,0.6342296000002534,['n'],1,right,['2'],5,0.5517463000001044,0.2,0,FastFast,40,18,Man,Right,
53,7,1,0.5837733999996999,['c'],0,right,['2'],5,0.45028990000037084,0.2,0,FastFast,40,18,Man,Right,
54,7,1,0.6661228000002666,['n'],1,right,['9'],2,0.8506842000001598,0.4,0,FastFast,40,18,Man,Right,
55,7,1,0.6508829999997943,['c'],0,right,['2'],5,0.3848272000000179,0.1,0,FastFast,40,18,Man,Right,
56,7,1,0.8507384999998067,['n'],0,left,['3'],4,0.6686277999997401,0.2,0,FastFast,40,18,Man,Right,
57,7,1,1.000537400000212,['n'],0,left,['2'],5,1.1347484000002623,0.2,0,FastFast,40,18,Man,Right,
58,7,1,0.8337796999999227,['c'],1,left,['2'],5,0.3840363999997862,0.1,0,FastFast,40,18,Man,Right,
59,7,1,0.8341703000000962,['c'],0,right,['2'],5,0.3676531999999497,0.2,0,FastFast,40,18,Man,Right,
0,8,1,1.5512213000001793,['c'],1,left,['2'],5,1.5999084999998558,0.2,0,AccFast,40,18,Man,Right,
1,8,1,1.516422899999725,['n'],0,left,['2'],5,0.652338299999883,0.4,0,AccFast,40,18,Man,Right,
2,8,1,2.8507540000000517,['c'],0,right,['2'],5,1.4683044999997037,0.1,0,AccFast,40,18,Man,Right,
3,8,1,1.2167331000000559,['n'],0,left,['2'],5,0.46785189999991417,0.2,0,AccFast,40,18,Man,Right,
4,8,1,3.0499720000002526,['n'],1,right,['2'],5,0.6995630999999776,0.2,0,AccFast,40,18,Man,Right,
5,8,1,3.035367899999983,['n'],0,left,['2'],5,0.38460950000035155,0.1,0,AccFast,40,18,Man,Right,
6,8,1,4.050137799999902,['c'],1,left,['3'],4,2.30090569999993,0.1,0,AccFast,40,18,Man,Right,
7,8,1,0.8333079999997608,['c'],1,left,['2'],5,0.2681211999997686,0.4,0,AccFast,40,18,Man,Right,
8,8,1,0.7336427999998705,['n'],1,right,['1'],6,0.5340992999999798,0.4,0,AccFast,40,18,Man,Right,
9,8,1,1.4660174000000552,['c'],1,left,['2'],5,0.48469859999977416,0.4,0,AccFast,40,18,Man,Right,
10,8,1,0.7345691000000443,['c'],1,left,['2'],5,0.2672256999999263,0.4,0,AccFast,40,18,Man,Right,
11,8,1,0.6503005999998095,['c'],1,left,['2'],5,0.26805119999971794,0.4,0,AccFast,40,18,Man,Right,
12,8,1,0.7179463999996187,['n'],1,right,['2'],5,0.5681303000001208,0.1,0,AccFast,40,18,Man,Right,
13,8,1,2.1992166999998517,['n'],1,right,['2'],5,0.8517421999999897,0.2,0,AccFast,40,18,Man,Right,
14,8,1,2.2324039999998604,['n'],0,left,['2'],5,0.8346564999997099,0.2,0,AccFast,40,18,Man,Right,
15,8,1,2.967297199999848,['n'],0,left,['2'],5,1.035174999999981,0.1,0,AccFast,40,18,Man,Right,
16,8,1,0.6655721999995876,['c'],1,left,['2'],5,1.4854988000001867,0.1,0,AccFast,40,18,Man,Right,
17,8,1,1.1667552000003525,['c'],0,right,['1'],6,0.5003388000000086,0.1,0,AccFast,40,18,Man,Right,
18,8,1,1.5840079999998125,['n'],1,right,['2'],5,0.7677131999998892,0.1,0,AccFast,40,18,Man,Right,
19,8,1,3.0819424999999683,['c'],0,right,['2'],5,0.5515612999997757,0.2,0,AccFast,40,18,Man,Right,
20,8,1,0.766852100000051,['c'],0,right,['2'],5,0.7513941000001978,0.2,0,AccFast,40,18,Man,Right,
21,8,1,0.700571900000341,['c'],1,left,['2'],5,0.5008854999996402,0.2,0,AccFast,40,18,Man,Right,
22,8,1,1.2836783999996442,['c'],1,left,['3'],4,0.46806940000033137,0.1,0,AccFast,40,18,Man,Right,
23,8,1,1.30038310000009,['c'],1,left,['3'],4,0.2683044999998856,0.4,0,AccFast,40,18,Man,Right,
24,8,1,1.8669098000000304,['n'],0,left,['3'],4,0.4837356000002728,0.1,0,AccFast,40,18,Man,Right,
25,8,1,1.0153740000000653,['n'],1,right,['3'],4,0.40084950000027675,0.2,0,AccFast,40,18,Man,Right,
26,8,1,1.0664167999998426,['n'],1,right,['3'],4,0.3508688000001712,0.2,0,AccFast,40,18,Man,Right,
27,8,1,0.7835469000001467,['c'],1,left,['3'],4,0.6850081000002319,0.2,0,AccFast,40,18,Man,Right,
28,8,1,1.348649000000023,['n'],1,right,['2'],5,0.302783300000101,0.2,0,AccFast,40,18,Man,Right,
29,8,1,1.4509743999997227,['n'],1,right,['3'],4,0.5837481000003208,0.2,0,AccFast,40,18,Man,Right,
30,8,1,0.5996724999999969,['c'],1,left,['1'],6,1.1010710000000472,0.4,0,AccFast,40,18,Man,Right,
31,8,1,0.6996100000001206,['n'],1,right,['1'],6,0.35111159999996744,0.4,0,AccFast,40,18,Man,Right,
32,8,1,1.0502252000001135,['c'],1,left,['1'],6,0.48479619999989154,0.4,0,AccFast,40,18,Man,Right,
33,8,1,1.4504784000000654,['c'],1,left,['2'],5,0.45124870000017836,0.2,0,AccFast,40,18,Man,Right,
34,8,1,0.6489298000001327,['n'],1,right,['2'],5,0.4023419999998623,0.4,0,AccFast,40,18,Man,Right,
35,8,1,0.5837366999999176,['c'],1,left,['2'],5,0.36750389999997424,0.4,0,AccFast,40,18,Man,Right,
36,8,1,0.7005632000000332,['c'],1,left,['2'],5,0.5664369999999508,0.1,0,AccFast,40,18,Man,Right,
37,8,1,0.9842401999999311,['c'],1,left,['2'],5,0.36791809999976977,0.1,0,AccFast,40,18,Man,Right,
38,8,1,1.7511061000000154,['c'],0,right,['2'],5,0.45041360000004715,0.2,0,AccFast,40,18,Man,Right,
39,8,1,1.500753899999836,['c'],0,right,['2'],5,0.35140619999947376,0.2,0,AccFast,40,18,Man,Right,
40,8,1,0.91586019999977,['c'],0,right,['2'],5,0.552614000000176,0.4,0,AccFast,40,18,Man,Right,
41,8,1,0.6181321999993088,['n'],1,right,['2'],5,1.401343700000325,0.4,0,AccFast,40,18,Man,Right,
42,8,1,1.2336431000003358,['c'],1,left,['2'],5,0.40037279999978637,0.1,0,AccFast,40,18,Man,Right,
43,8,1,0.6656635999997889,['n'],1,right,['1'],6,0.7680595999991056,0.4,0,AccFast,40,18,Man,Right,
44,8,1,0.5825838999999178,['c'],0,right,['2'],5,0.5522325000001729,0.1,0,AccFast,40,18,Man,Right,
45,8,1,0.5836912000004304,['c'],1,left,['2'],5,0.3501024999995934,0.2,0,AccFast,40,18,Man,Right,
46,8,1,0.965371000000232,['c'],0,right,['2'],5,0.31917239999984304,0.4,0,AccFast,40,18,Man,Right,
47,8,1,0.8670612000005349,['c'],0,right,['2'],5,0.7682178000004569,0.1,0,AccFast,40,18,Man,Right,
48,8,1,1.0845349000001079,['n'],1,right,['2'],5,0.2835520999997243,0.1,0,AccFast,40,18,Man,Right,
49,8,1,1.3172701000003144,['n'],0,left,['2'],5,0.2512744000005114,0.1,0,AccFast,40,18,Man,Right,
50,8,1,0.6838523000005807,['c'],1,left,['2'],5,0.2014429000000746,0.4,0,AccFast,40,18,Man,Right,
51,8,1,0.8504337000003943,['n'],1,right,['2'],5,0.3346990999998525,0.1,0,AccFast,40,18,Man,Right,
52,8,1,0.583340600000156,['c'],1,left,['2'],5,0.3189265000000887,0.1,0,AccFast,40,18,Man,Right,
53,8,1,1.4671289000007164,['c'],0,right,['2'],5,0.23338669999975536,0.1,0,AccFast,40,18,Man,Right,
54,8,1,0.8009032999998453,['c'],0,right,['2'],5,0.30145420000008016,0.4,0,AccFast,40,18,Man,Right,
55,8,1,0.6676229000004241,['c'],1,left,['2'],5,0.41775570000027074,0.2,0,AccFast,40,18,Man,Right,
56,8,1,0.7336685999998735,['c'],0,right,['2'],5,0.33366250000017317,0.2,0,AccFast,40,18,Man,Right,
57,8,1,0.8651952000000165,['n'],1,right,['1'],6,0.5016641999991407,0.4,0,AccFast,40,18,Man,Right,
58,8,1,0.5847480000002179,['c'],1,left,['1'],6,0.31827720000001136,0.4,0,AccFast,40,18,Man,Right,
59,8,1,0.7841865999998845,['c'],0,right,['2'],5,0.23411269999996875,0.2,0,AccFast,40,18,Man,Right,
0,9,1,0.9348339999996824,['c'],0,right,['2'],5,1.134568099999342,0.4,0,AccAcc,40,18,Man,Right,
1,9,1,0.6839893000005759,['c'],0,right,['9'],2,1.1842704999999114,0.4,0,AccAcc,40,18,Man,Right,
2,9,1,0.9844018000003416,['c'],1,left,['2'],5,0.7512262999998711,0.1,0,AccAcc,40,18,Man,Right,
3,9,1,0.6994998999998643,['c'],1,left,['2'],5,0.502016100000219,0.1,0,AccAcc,40,18,Man,Right,
4,9,1,0.8154320999992706,['c'],1,left,['2'],5,0.4688279000001785,0.2,0,AccAcc,40,18,Man,Right,
5,9,1,0.8500285999998596,['n'],1,right,['1'],6,0.8167278000000806,0.4,0,AccAcc,40,18,Man,Right,
6,9,1,0.565378199999941,['c'],1,left,['1'],6,0.5194937000005666,0.2,0,AccAcc,40,18,Man,Right,
7,9,1,0.5822779000000082,['n'],1,right,['1'],6,0.5836939999999231,0.1,0,AccAcc,40,18,Man,Right,
8,9,1,0.5997753999999986,['c'],1,left,['1'],6,0.4008858999995937,0.1,0,AccAcc,40,18,Man,Right,
9,9,1,0.618574200000694,['c'],0,right,['1'],6,0.38445099999989907,0.2,0,AccAcc,40,18,Man,Right,
10,9,1,0.9837686999999278,['c'],1,left,['1'],6,0.33384290000049077,0.1,0,AccAcc,40,18,Man,Right,
11,9,1,1.0168288000004395,['n'],1,right,['2'],5,0.40076890000000276,0.2,0,AccAcc,40,18,Man,Right,
12,9,1,0.6677836999997453,['c'],1,left,['2'],5,0.5346747000003234,0.1,0,AccAcc,40,18,Man,Right,
13,9,1,0.7824013999997987,['c'],1,left,['2'],5,0.45078360000024986,0.1,0,AccAcc,40,18,Man,Right,
14,9,1,1.0004342000001998,['n'],1,right,['2'],5,0.4680627999996432,0.2,0,AccAcc,40,18,Man,Right,
15,9,1,0.6498159000002488,['c'],0,right,['2'],5,0.4509858000001259,0.2,0,AccAcc,40,18,Man,Right,
16,9,1,1.8167561000000205,['n'],1,right,['2'],5,0.6337560000001758,0.4,0,AccAcc,40,18,Man,Right,
17,9,1,1.3006849999992482,['c'],0,right,['2'],5,0.6012042000002111,0.4,0,AccAcc,40,18,Man,Right,
18,9,1,2.0515752999999677,['n'],1,right,['2'],5,0.6846142000003965,0.4,0,AccAcc,40,18,Man,Right,
19,9,1,1.6008673000005729,['c'],1,left,['2'],5,0.7513989999997648,0.1,0,AccAcc,40,18,Man,Right,
20,9,1,1.765552700000626,['c'],0,right,['2'],5,1.1519540999997844,0.1,0,AccAcc,40,18,Man,Right,
21,9,1,3.5145054000004166,['c'],1,left,['2'],5,0.4352850999994189,0.1,0,AccAcc,40,18,Man,Right,
22,9,1,1.8174344000008205,['c'],1,left,['2'],5,0.6014090999997279,0.1,0,AccAcc,40,18,Man,Right,
23,9,1,1.7006986999995206,['c'],0,right,['3'],4,0.850709000000279,0.4,0,AccAcc,40,18,Man,Right,
24,9,1,0.6671564999996917,['c'],1,left,['2'],5,1.1513547999993534,0.4,0,AccAcc,40,18,Man,Right,
25,9,1,1.5003919999999198,['c'],1,left,['2'],5,0.48344150000048103,0.2,0,AccAcc,40,18,Man,Right,
26,9,1,3.250450599999567,['n'],1,right,['2'],5,0.6686712999999145,0.4,0,AccAcc,40,18,Man,Right,
27,9,1,1.6173181000003751,['c'],1,left,['2'],5,0.5681243999997605,0.4,0,AccAcc,40,18,Man,Right,
28,9,1,1.5507539999998698,['c'],0,right,['2'],5,0.5008233999997174,0.1,0,AccAcc,40,18,Man,Right,
29,9,1,1.6669919000005393,['c'],1,left,['2'],5,0.35129719999986264,0.2,0,AccAcc,40,18,Man,Right,
30,9,1,1.2505236000006335,['n'],1,right,['2'],5,0.6014908000006471,0.2,0,AccAcc,40,18,Man,Right,
31,9,1,1.0004820000003747,['c'],0,right,['2'],5,0.5345939999997427,0.4,0,AccAcc,40,18,Man,Right,
32,9,1,1.333711499999481,['c'],0,right,['3'],4,0.7675370999995721,0.1,0,AccAcc,40,18,Man,Right,
33,9,1,1.2511449999992692,['c'],0,right,['2'],5,1.9345901999995476,0.1,0,AccAcc,40,18,Man,Right,
34,9,1,4.367176199999449,['n'],1,right,['9'],2,1.4345652000001792,0.2,0,AccAcc,40,18,Man,Right,
35,9,1,0.8335853000007774,['c'],1,left,['2'],5,0.7003240999993068,0.2,0,AccAcc,40,18,Man,Right,
36,9,1,1.5999830999999176,['c'],1,left,['2'],5,0.4349575999995068,0.4,0,AccAcc,40,18,Man,Right,
37,9,1,0.9330800999996427,['c'],0,right,['2'],5,0.33446440000079747,0.4,0,AccAcc,40,18,Man,Right,
38,9,1,2.232656600000155,['c'],1,left,['2'],5,0.41916649999984656,0.1,0,AccAcc,40,18,Man,Right,
39,9,1,1.632923799999844,['n'],1,right,['2'],5,1.1857059000003574,0.2,0,AccAcc,40,18,Man,Right,
40,9,1,1.366670299999896,['c'],1,left,['2'],5,0.40008579999994254,0.2,0,AccAcc,40,18,Man,Right,
41,9,1,0.750961499999903,['n'],1,right,['1'],6,0.8333863000007113,0.2,0,AccAcc,40,18,Man,Right,
42,9,1,0.7493829999993977,['c'],1,left,['2'],5,0.46812170000066544,0.1,0,AccAcc,40,18,Man,Right,
43,9,1,0.7839500000000044,['c'],1,left,['1'],6,0.5513427000005322,0.4,0,AccAcc,40,18,Man,Right,
44,9,1,2.4169523999999,['n'],1,right,['9'],2,1.250787599999967,0.1,0,AccAcc,40,18,Man,Right,
45,9,1,3.167767500000082,['c'],1,left,['8'],3,1.5499928999997792,0.2,0,AccAcc,40,18,Man,Right,
46,9,1,1.7340791999995417,['c'],1,left,['3'],4,1.4849845999997342,0.4,0,AccAcc,40,18,Man,Right,
47,9,1,0.8332999999993262,['c'],1,left,['3'],4,0.5023798000001989,0.1,0,AccAcc,40,18,Man,Right,
48,9,1,0.7332680999998047,['n'],1,right,['2'],5,0.6517747999996573,0.4,0,AccAcc,40,18,Man,Right,
49,9,1,1.7659187999997812,['c'],1,left,['2'],5,0.534864700000071,0.2,0,AccAcc,40,18,Man,Right,
50,9,1,3.6492693999998664,['c'],0,right,['2'],5,0.5847625999995216,0.2,0,AccAcc,40,18,Man,Right,
51,9,1,1.8832313000002614,['n'],1,right,['1'],6,0.8025108999991062,0.4,0,AccAcc,40,18,Man,Right,
52,9,1,2.816754600000422,['c'],0,right,['2'],5,0.4846826000002693,0.4,0,AccAcc,40,18,Man,Right,
53,9,1,1.4659683999998379,['c'],1,left,['1'],6,0.8175145000004704,0.4,0,AccAcc,40,18,Man,Right,
54,9,1,3.5670112000007066,['n'],0,left,['3'],4,1.1359802999995736,0.2,0,AccAcc,40,18,Man,Right,
55,9,1,2.2664056000003256,['n'],1,right,['2'],5,0.7845248999992691,0.1,0,AccAcc,40,18,Man,Right,
56,9,1,1.117056500000217,['n'],0,left,['2'],5,0.5845704000003025,0.1,0,AccAcc,40,18,Man,Right,
57,9,1,0.7990838999994594,['c'],1,left,['2'],5,0.36892679999982647,0.2,0,AccAcc,40,18,Man,Right,
58,9,1,0.6321668999999019,['n'],1,right,['1'],6,0.635107799999787,0.2,0,AccAcc,40,18,Man,Right,
59,9,1,0.6498314999998911,['c'],1,left,['2'],5,0.5182982000005723,0.4,0,AccAcc,40,18,Man,Right,
0,10,1,0.5680675000003248,['c'],1,left,['2'],5,1.3847318999996787,0.2,0,FastAcc,40,18,Man,Right,
1,10,1,0.7337497000007716,['n'],1,right,['1'],6,0.7345768000004682,0.1,0,FastAcc,40,18,Man,Right,
2,10,1,0.6497115000001941,['c'],1,left,['2'],5,1.1017220000003363,0.4,0,FastAcc,40,18,Man,Right,
3,10,1,0.716921999999613,['c'],1,left,['2'],5,0.7165568999998868,0.1,0,FastAcc,40,18,Man,Right,
4,10,1,0.900442699999985,['n'],1,right,['2'],5,1.08421350000026,0.1,0,FastAcc,40,18,Man,Right,
5,10,1,0.6508744999991904,['c'],0,right,['2'],5,0.9012468000000808,0.2,0,FastAcc,40,18,Man,Right,
6,10,1,0.6345179999998436,['c'],1,left,['2'],5,0.8678655000003346,0.1,0,FastAcc,40,18,Man,Right,
7,10,1,0.44995990000006714,['n'],1,right,['2'],5,0.8512338999998974,0.4,0,FastAcc,40,18,Man,Right,
8,10,1,0.533943299999919,['c'],0,right,['1'],6,1.0844219000000521,0.1,0,FastAcc,40,18,Man,Right,
9,10,1,1.0169942000002266,['c'],0,right,['3'],4,2.2680147000000943,0.2,0,FastAcc,40,18,Man,Right,
10,10,1,0.6678953999999067,['c'],0,right,['2'],5,1.534763199999361,0.2,0,FastAcc,40,18,Man,Right,
11,10,1,0.5666305000004286,['c'],1,left,['2'],5,1.1008623000006992,0.2,0,FastAcc,40,18,Man,Right,
12,10,1,0.6177268000001277,['c'],1,left,['2'],5,0.5334863999996742,0.2,0,FastAcc,40,18,Man,Right,
13,10,1,1.2843817000002673,['c'],0,right,['2'],5,0.4843452000004618,0.1,0,FastAcc,40,18,Man,Right,
14,10,1,0.783883799999785,['c'],1,left,['1'],6,0.5683281999999963,0.4,0,FastAcc,40,18,Man,Right,
15,10,1,1.1491456000003382,['n'],1,right,['2'],5,0.6189165000005232,0.2,0,FastAcc,40,18,Man,Right,
16,10,1,1.0004982999998902,['c'],1,left,['9'],2,3.466553700000077,0.1,0,FastAcc,40,18,Man,Right,
17,10,1,0.7678178000005573,['n'],1,right,['2'],5,1.035629300000437,0.1,0,FastAcc,40,18,Man,Right,
18,10,1,0.7001367000002574,['n'],1,right,['2'],5,0.750907499999812,0.4,0,FastAcc,40,18,Man,Right,
19,10,1,0.749724299999798,['c'],1,left,['1'],6,0.3849191000008432,0.4,0,FastAcc,40,18,Man,Right,
20,10,1,0.7505644999992,['c'],1,left,['1'],6,0.2854308999994828,0.1,0,FastAcc,40,18,Man,Right,
21,10,1,0.5834466000005705,['c'],1,left,['1'],6,0.3676120999998602,0.2,0,FastAcc,40,18,Man,Right,
22,10,1,0.7834476999996696,['n'],1,right,['2'],5,0.5175970000000234,0.2,0,FastAcc,40,18,Man,Right,
23,10,1,0.5832540999999765,['n'],1,right,['2'],5,0.35115739999946527,0.4,0,FastAcc,40,18,Man,Right,
24,10,1,0.4504280999999537,['c'],0,right,['2'],5,0.4334356999997908,0.1,0,FastAcc,40,18,Man,Right,
25,10,1,0.834893799999918,['c'],1,left,['2'],5,0.9690275000002657,0.2,0,FastAcc,40,18,Man,Right,
26,10,1,0.5668120999998791,['c'],1,left,['1'],6,0.9668834000003699,0.2,0,FastAcc,40,18,Man,Right,
27,10,1,0.568785299999945,['c'],1,left,['1'],6,1.334733500000766,0.2,0,FastAcc,40,18,Man,Right,
28,10,1,0.4676084999991872,['n'],0,left,['1'],6,0.8179582000002483,0.1,0,FastAcc,40,18,Man,Right,
29,10,1,0.4993731000004118,['n'],1,right,['2'],5,1.1675618999997823,0.4,0,FastAcc,40,18,Man,Right,
30,10,1,0.4359385999996448,['c'],1,left,['2'],5,0.6019440000000031,0.2,0,FastAcc,40,18,Man,Right,
31,10,1,0.7337095000002591,['n'],1,right,['2'],5,0.6508099000002403,0.1,0,FastAcc,40,18,Man,Right,
32,10,1,0.717177300000003,['n'],1,right,['2'],5,0.8512913999993543,0.4,0,FastAcc,40,18,Man,Right,
33,10,1,0.6165648000005604,['n'],0,left,['2'],5,0.7507413000002998,0.1,0,FastAcc,40,18,Man,Right,
34,10,1,0.5337691999993694,['n'],1,right,['1'],6,0.7335051999998541,0.4,0,FastAcc,40,18,Man,Right,
35,10,1,0.5845085000000836,['c'],1,left,['2'],5,0.6670041000006677,0.2,0,FastAcc,40,18,Man,Right,
36,10,1,0.700543099999777,['c'],1,left,['2'],5,0.45128180000028806,0.1,0,FastAcc,40,18,Man,Right,
37,10,1,0.6004566000001432,['c'],1,left,['2'],5,0.5179613000000245,0.4,0,FastAcc,40,18,Man,Right,
38,10,1,0.48391890000038984,['c'],1,left,['1'],6,0.5178734000000986,0.4,0,FastAcc,40,18,Man,Right,
39,10,1,0.46680430000014894,['c'],1,left,['1'],6,0.6168236000003162,0.4,0,FastAcc,40,18,Man,Right,
40,10,1,0.5164026000002195,['c'],1,left,['2'],5,0.9672479999999268,0.2,0,FastAcc,40,18,Man,Right,
41,10,1,0.6338851999998951,['c'],0,right,['2'],5,0.8012770000004821,0.4,0,FastAcc,40,18,Man,Right,
42,10,1,0.6166832999997496,['c'],0,right,['2'],5,0.8515828999998121,0.4,0,FastAcc,40,18,Man,Right,
43,10,1,1.1342156000000614,['c'],0,right,['2'],5,0.33345250000002125,0.2,0,FastAcc,40,18,Man,Right,
44,10,1,0.5662073000003147,['c'],0,right,['2'],5,0.30103020000024117,0.1,0,FastAcc,40,18,Man,Right,
45,10,1,0.5830482000001211,['n'],1,right,['2'],5,0.41887729999962175,0.4,0,FastAcc,40,18,Man,Right,
46,10,1,0.5668010999997932,['n'],0,left,['2'],5,0.38379989999975805,0.1,0,FastAcc,40,18,Man,Right,
47,10,1,0.950602599999911,['n'],1,right,['1'],6,0.7168032999998104,0.4,0,FastAcc,40,18,Man,Right,
48,10,1,0.9007021000006716,['c'],0,right,['2'],5,0.5346919000003254,0.1,0,FastAcc,40,18,Man,Right,
49,10,1,0.8994542000000365,['c'],1,left,['2'],5,0.3677949000002627,0.1,0,FastAcc,40,18,Man,Right,
50,10,1,0.7172351999997773,['c'],1,left,['2'],5,0.30060409999987314,0.4,0,FastAcc,40,18,Man,Right,
51,10,1,1.3525891999997839,['c'],1,left,['2'],5,0.2848457000000053,0.1,0,FastAcc,40,18,Man,Right,
52,10,1,0.6998316999997769,['c'],1,left,['2'],5,1.11691189999965,0.2,0,FastAcc,40,18,Man,Right,
53,10,1,0.8162664000001314,['c'],1,left,['2'],5,0.5679211999995459,0.4,0,FastAcc,40,18,Man,Right,
54,10,1,0.7169633000003159,['n'],0,left,['2'],5,0.734888700000738,0.2,0,FastAcc,40,18,Man,Right,
55,10,1,0.6677689000007376,['n'],1,right,['1'],6,0.45139579999977286,0.4,0,FastAcc,40,18,Man,Right,
56,10,1,0.8337755000002289,['n'],1,right,['1'],6,0.4846824000005654,0.4,0,FastAcc,40,18,Man,Right,
57,10,1,0.7003691999998409,['n'],1,right,['2'],5,0.6663454999998066,0.2,0,FastAcc,40,18,Man,Right,
58,10,1,0.6510393999997177,['n'],1,right,['2'],5,0.6003592000006392,0.1,0,FastAcc,40,18,Man,Right,
59,10,1,0.6993867999999566,['n'],1,right,['1'],6,0.9188905000000887,0.2,0,FastAcc,40,18,Man,Right,
0,11,1,0.7843831000000137,['n'],1,right,['2'],5,1.0514419000000998,0.1,0,FastFast,40,18,Man,Right,
1,11,1,0.7668400000002293,['c'],1,left,['2'],5,0.3021401000005426,0.4,0,FastFast,40,18,Man,Right,
2,11,1,0.6004652999999962,['n'],1,right,['1'],6,0.3995953000003283,0.4,0,FastFast,40,18,Man,Right,
3,11,1,0.7330603000000337,['n'],0,left,['9'],2,0.8025520000001052,0.4,0,FastFast,40,18,Man,Right,
4,11,1,1.567676599999686,['n'],1,right,['2'],5,0.4844298999996681,0.1,0,FastFast,40,18,Man,Right,
5,11,1,0.6344504999997298,['c'],1,left,['2'],5,0.3005490000005011,0.2,0,FastFast,40,18,Man,Right,
6,11,1,0.4827422000007573,['n'],1,right,['1'],6,0.3855522000003475,0.2,0,FastFast,40,18,Man,Right,
7,11,1,0.4986355999999432,['c'],0,right,['2'],5,0.21925549999923533,0.1,0,FastFast,40,18,Man,Right,
8,11,1,0.7677118000001428,['n'],1,right,['2'],5,0.3513522000002922,0.4,0,FastFast,40,18,Man,Right,
9,11,1,0.6178810999999769,['c'],0,right,['2'],5,0.25129259999994247,0.1,0,FastFast,40,18,Man,Right,
10,11,1,0.5325800000000527,['c'],0,right,['2'],5,0.18465269999978773,0.2,0,FastFast,40,18,Man,Right,
11,11,1,0.46814219999942,['c'],0,right,['2'],5,0.2506287999995038,0.2,0,FastFast,40,18,Man,Right,
12,11,1,0.5009754000002431,['c'],1,left,['2'],5,0.1857211999995343,0.4,0,FastFast,40,18,Man,Right,
13,11,1,0.39978400000018155,['c'],1,left,['2'],5,0.1661831000001257,0.4,0,FastFast,40,18,Man,Right,
14,11,1,0.36849330000040936,['c'],1,left,['1'],6,0.35116569999991043,0.1,0,FastFast,40,18,Man,Right,
15,11,1,0.3998540000002322,['c'],1,left,['2'],5,0.1849713999999949,0.4,0,FastFast,40,18,Man,Right,
16,11,1,0.3487963999996282,['c'],0,right,['2'],5,0.1857674999992014,0.2,0,FastFast,40,18,Man,Right,
17,11,1,0.3336901000002399,['c'],0,right,['2'],5,0.16646420000051876,0.4,0,FastFast,40,18,Man,Right,
18,11,1,0.3665315999996892,['c'],1,left,['2'],5,0.18421639999996842,0.1,0,FastFast,40,18,Man,Right,
19,11,1,0.33277559999987716,['c'],0,right,['2'],5,0.18562999999994645,0.2,0,FastFast,40,18,Man,Right,
20,11,1,0.3327957999999853,['c'],1,left,['2'],5,0.18481489999976475,0.2,0,FastFast,40,18,Man,Right,
21,11,1,0.3659408000003168,['c'],0,right,['2'],5,0.20217460000003484,0.4,0,FastFast,40,18,Man,Right,
22,11,1,0.7175551999998788,['c'],0,right,['2'],5,0.16807930000049964,0.2,0,FastFast,40,18,Man,Right,
23,11,1,1.1995354999999108,['n'],1,right,['2'],5,0.9014777000002141,0.2,0,FastFast,40,18,Man,Right,
24,11,1,0.5666670999999042,['n'],1,right,['2'],5,0.4172073999998247,0.4,0,FastFast,40,18,Man,Right,
25,11,1,0.6839181000004828,['c'],1,left,['2'],5,0.1685198000004675,0.4,0,FastFast,40,18,Man,Right,
26,11,1,0.7012891000003947,['n'],0,left,['2'],5,0.3348989000005531,0.1,0,FastFast,40,18,Man,Right,
27,11,1,0.916956800000662,['c'],1,left,['2'],5,0.20128890000069077,0.4,0,FastFast,40,18,Man,Right,
28,11,1,0.9162257999996655,['n'],0,left,['2'],5,0.41756469999927504,0.1,0,FastFast,40,18,Man,Right,
29,11,1,1.0679185999997571,['c'],1,left,['2'],5,0.1846851999998762,0.1,0,FastFast,40,18,Man,Right,
30,11,1,1.0496186000000307,['c'],1,left,['2'],5,0.20117409999966185,0.2,0,FastFast,40,18,Man,Right,
31,11,1,0.7498224999999366,['n'],1,right,['1'],6,0.551331200000277,0.1,0,FastFast,40,18,Man,Right,
32,11,1,0.5493679999999586,['c'],1,left,['2'],5,0.21683109999958106,0.1,0,FastFast,40,18,Man,Right,
33,11,1,0.5348487000001114,['n'],1,right,['2'],5,0.2848516000003656,0.4,0,FastFast,40,18,Man,Right,
34,11,1,0.8331115999999383,['c'],0,right,['9'],2,1.0850055000000793,0.4,0,FastFast,40,18,Man,Right,
35,11,1,0.5494085000000268,['c'],0,right,['2'],5,0.1849913000005472,0.1,0,FastFast,40,18,Man,Right,
36,11,1,0.46680229999947187,['n'],1,right,['2'],5,0.45104929999979504,0.4,0,FastFast,40,18,Man,Right,
37,11,1,1.667838500000471,['n'],1,right,['3'],4,0.767028900000696,0.2,0,FastFast,40,18,Man,Right,
38,11,1,0.7173347000007197,['c'],1,left,['2'],5,0.18572889999995823,0.2,0,FastFast,40,18,Man,Right,
39,11,1,0.9667992999993658,['n'],0,left,['3'],4,0.6336506000006921,0.1,0,FastFast,40,18,Man,Right,
40,11,1,1.7154872000000978,['n'],0,left,['2'],5,0.3680093000002671,0.1,0,FastFast,40,18,Man,Right,
41,11,1,0.7177658999999039,['c'],1,left,['2'],5,0.2175559000006615,0.2,0,FastFast,40,18,Man,Right,
42,11,1,0.517018100000314,['n'],0,left,['2'],5,0.400692700000036,0.1,0,FastFast,40,18,Man,Right,
43,11,1,0.549292400000013,['n'],1,right,['2'],5,0.26692800000000716,0.2,0,FastFast,40,18,Man,Right,
44,11,1,0.8687263000001622,['n'],1,right,['2'],5,0.2998776000004,0.4,0,FastFast,40,18,Man,Right,
45,11,1,0.815742599999794,['n'],1,right,['2'],5,0.2500165999999808,0.4,0,FastFast,40,18,Man,Right,
46,11,1,0.7161910999993779,['n'],1,right,['2'],5,0.21880220000002737,0.1,0,FastFast,40,18,Man,Right,
47,11,1,0.7830178000003798,['c'],1,left,['2'],5,0.21796420000009675,0.2,0,FastFast,40,18,Man,Right,
48,11,1,1.1336739999997008,['n'],0,left,['3'],4,1.0346574000004694,0.2,0,FastFast,40,18,Man,Right,
49,11,1,1.0836853000000701,['c'],1,left,['2'],5,0.234980700000051,0.1,0,FastFast,40,18,Man,Right,
50,11,1,0.5832056999997803,['n'],1,right,['2'],5,0.31871120000050723,0.4,0,FastFast,40,18,Man,Right,
51,11,1,0.6148333000001003,['c'],1,left,['2'],5,0.2016579000001002,0.1,0,FastFast,40,18,Man,Right,
52,11,1,0.48306609999963257,['n'],1,right,['2'],5,0.23443529999985913,0.4,0,FastFast,40,18,Man,Right,
53,11,1,0.8840803000002779,['c'],1,left,['2'],5,0.1848387999998522,0.1,0,FastFast,40,18,Man,Right,
54,11,1,0.6838339000005362,['n'],0,left,['2'],5,0.21700770000006742,0.2,0,FastFast,40,18,Man,Right,
55,11,1,0.6173141999997824,['c'],1,left,['2'],5,0.14971649999915826,0.2,0,FastFast,40,18,Man,Right,
56,11,1,0.5181001000000833,['n'],1,right,['2'],5,0.2508614000007583,0.1,0,FastFast,40,18,Man,Right,
57,11,1,1.4499468999993042,['c'],1,left,['2'],5,0.16866550000031566,0.2,0,FastFast,40,18,Man,Right,
58,11,1,1.233052399999906,['c'],1,left,['2'],5,0.16810249999980442,0.4,0,FastFast,40,18,Man,Right,
59,11,1,0.9836876999997912,['n'],1,right,['2'],5,0.23468429999957152,0.2,0,FastFast,40,18,Man,Right,
0,12,1,1.001864700000624,['c'],1,left,['2'],5,0.33472619999974995,0.1,0,AccFast,40,18,Man,Right,
1,12,1,1.2654623000007632,['c'],1,left,['2'],5,0.20247440000002825,0.4,0,AccFast,40,18,Man,Right,
2,12,1,1.117463399999906,['c'],1,left,['2'],5,0.23386070000015025,0.4,0,AccFast,40,18,Man,Right,
3,12,1,0.7670447000000422,['c'],0,right,['2'],5,0.8014953000001697,0.4,0,AccFast,40,18,Man,Right,
4,12,1,0.6334082000003036,['c'],0,right,['2'],5,0.26802430000043387,0.2,0,AccFast,40,18,Man,Right,
5,12,1,1.0327974000001632,['c'],1,left,['2'],5,0.3181249999997817,0.1,0,AccFast,40,18,Man,Right,
6,12,1,0.8995994999995673,['c'],1,left,['2'],5,0.3513517999999749,0.2,0,AccFast,40,18,Man,Right,
7,12,1,0.8999173000001974,['n'],1,right,['2'],5,0.3183802999992622,0.2,0,AccFast,40,18,Man,Right,
8,12,1,0.701201900000342,['c'],0,right,['2'],5,0.335269100000005,0.1,0,AccFast,40,18,Man,Right,
9,12,1,0.798994999999195,['c'],1,left,['2'],5,0.25317100000029313,0.4,0,AccFast,40,18,Man,Right,
10,12,1,0.6332283000001553,['n'],1,right,['2'],5,0.2832688999997117,0.2,0,AccFast,40,18,Man,Right,
11,12,1,0.8335677999994004,['c'],1,left,['2'],5,0.3181252999993376,0.1,0,AccFast,40,18,Man,Right,
12,12,1,1.0816681999995126,['c'],0,right,['2'],5,0.2676565000001574,0.4,0,AccFast,40,18,Man,Right,
13,12,1,0.8698092000004181,['c'],0,right,['2'],5,0.2512042999996993,0.2,0,AccFast,40,18,Man,Right,
14,12,1,1.0009489999993093,['c'],1,left,['2'],5,0.2514274999994086,0.2,0,AccFast,40,18,Man,Right,
15,12,1,0.7835463000001255,['c'],0,right,['2'],5,0.23461580000002868,0.1,0,AccFast,40,18,Man,Right,
16,12,1,0.917076900000211,['c'],1,left,['2'],5,0.21786389999942912,0.1,0,AccFast,40,18,Man,Right,
17,12,1,1.4331348000005164,['n'],1,right,['9'],2,1.7340414000000237,0.1,0,AccFast,40,18,Man,Right,
18,12,1,0.6326233999998294,['c'],0,right,['2'],5,0.23358559999996942,0.1,0,AccFast,40,18,Man,Right,
19,12,1,0.6837162000001626,['c'],1,left,['2'],5,0.5179055999997217,0.4,0,AccFast,40,18,Man,Right,
20,12,1,1.4660391999996136,['n'],1,right,['2'],5,1.0008193999992727,0.2,0,AccFast,40,18,Man,Right,
21,12,1,1.100902600000154,['c'],0,right,['3'],4,0.43486399999983405,0.2,0,AccFast,40,18,Man,Right,
22,12,1,1.5336681999997381,['c'],0,right,['3'],4,0.6501146000000517,0.2,0,AccFast,40,18,Man,Right,
23,12,1,1.4171682999995028,['c'],1,left,['3'],4,0.23546100000021397,0.1,0,AccFast,40,18,Man,Right,
24,12,1,0.9333587999999509,['c'],0,right,['3'],4,0.21695550000004005,0.2,0,AccFast,40,18,Man,Right,
25,12,1,1.2505467999999382,['c'],1,left,['3'],4,0.4344363999998677,0.1,0,AccFast,40,18,Man,Right,
26,12,1,0.7839877999995224,['c'],0,right,['3'],4,0.26794710000012856,0.2,0,AccFast,40,18,Man,Right,
27,12,1,0.6324173000002702,['c'],1,left,['3'],4,0.23415580000073533,0.4,0,AccFast,40,18,Man,Right,
28,12,1,0.8010751000001619,['n'],0,left,['3'],4,0.3182576999997764,0.4,0,AccFast,40,18,Man,Right,
29,12,1,2.3834593999999925,['c'],1,left,['3'],4,0.4346360999998069,0.4,0,AccFast,40,18,Man,Right,
30,12,1,1.0169960000002902,['n'],1,right,['3'],4,0.30164549999972223,0.2,0,AccFast,40,18,Man,Right,
31,12,1,1.0168272999999317,['n'],1,right,['2'],5,0.3684863000007681,0.1,0,AccFast,40,18,Man,Right,
32,12,1,1.1332815000005212,['n'],1,right,['3'],4,0.335416200000509,0.4,0,AccFast,40,18,Man,Right,
33,12,1,1.183265399999982,['n'],1,right,['3'],4,0.3173163999999815,0.2,0,AccFast,40,18,Man,Right,
34,12,1,3.2327163999998447,['c'],0,right,['3'],4,0.25069640000037907,0.2,0,AccFast,40,18,Man,Right,
35,12,1,1.7515463999998246,['n'],1,right,['3'],4,0.2842390999994677,0.4,0,AccFast,40,18,Man,Right,
36,12,1,2.150232999999389,['c'],1,left,['3'],4,0.5348801999998614,0.4,0,AccFast,40,18,Man,Right,
37,12,1,2.433540600000015,['n'],0,left,['9'],2,1.5014338000000862,0.2,0,AccFast,40,18,Man,Right,
38,12,1,1.033845000000838,['n'],0,left,['3'],4,0.24987090000013268,0.1,0,AccFast,40,18,Man,Right,
39,12,1,1.016387300000133,['n'],1,right,['3'],4,0.30089140000018233,0.2,0,AccFast,40,18,Man,Right,
40,12,1,1.6827498000002379,['n'],1,right,['9'],2,0.40197619999980816,0.2,0,AccFast,40,18,Man,Right,
41,12,1,0.9839147000002413,['c'],1,left,['9'],2,1.0346654000004492,0.4,0,AccFast,40,18,Man,Right,
42,12,1,1.0505714999999327,['n'],1,right,['9'],2,0.41846239999995305,0.2,0,AccFast,40,18,Man,Right,
43,12,1,0.8675525999997262,['c'],1,left,['2'],5,0.3511198999995031,0.1,0,AccFast,40,18,Man,Right,
44,12,1,1.6155440000002272,['c'],0,right,['3'],4,0.6344746000004307,0.2,0,AccFast,40,18,Man,Right,
45,12,1,0.9335132999995039,['c'],1,left,['3'],4,0.25074270000004617,0.1,0,AccFast,40,18,Man,Right,
46,12,1,0.6505803000000014,['n'],1,right,['8'],3,0.501541300000099,0.4,0,AccFast,40,18,Man,Right,
47,12,1,0.684261599999445,['c'],1,left,['3'],4,0.385142299999643,0.4,0,AccFast,40,18,Man,Right,
48,12,1,0.7326784999995652,['n'],0,left,['3'],4,0.6504140000006373,0.1,0,AccFast,40,18,Man,Right,
49,12,1,1.8506899000003614,['c'],1,left,['3'],4,0.7507165999995777,0.1,0,AccFast,40,18,Man,Right,
50,12,1,0.6993997999998101,['n'],1,right,['3'],4,0.317226699999992,0.4,0,AccFast,40,18,Man,Right,
51,12,1,0.6501124999995227,['n'],1,right,['3'],4,0.3847202999995716,0.4,0,AccFast,40,18,Man,Right,
52,12,1,0.784801900000275,['c'],1,left,['3'],4,0.20159770000009303,0.1,0,AccFast,40,18,Man,Right,
53,12,1,0.8176754999994955,['c'],1,left,['3'],4,0.26615809999930207,0.4,0,AccFast,40,18,Man,Right,
54,12,1,1.0179736000000048,['c'],1,left,['3'],4,0.23496429999977408,0.1,0,AccFast,40,18,Man,Right,
55,12,1,0.4835008999998536,['n'],1,right,['3'],4,0.2681620999992447,0.2,0,AccFast,40,18,Man,Right,
56,12,1,0.5508379000002606,['c'],1,left,['3'],4,0.233686000000489,0.4,0,AccFast,40,18,Man,Right,
57,12,1,0.6154827999998815,['c'],1,left,['3'],4,0.35245190000023285,0.4,0,AccFast,40,18,Man,Right,
58,12,1,0.5670564000001832,['n'],1,right,['3'],4,0.2685611999995672,0.1,0,AccFast,40,18,Man,Right,
59,12,1,0.5670915000000605,['c'],1,left,['3'],4,0.41775800000050367,0.1,0,AccFast,40,18,Man,Right,
0,13,1,1.199646600000051,['c'],1,left,['2'],5,2.3523212999998577,0.2,0,AccAcc,40,18,Man,Right,
1,13,1,1.216440600000169,['c'],0,right,['2'],5,0.4672067000001334,0.1,0,AccAcc,40,18,Man,Right,
2,13,1,0.8999958999993396,['c'],1,left,['2'],5,0.28466610000032233,0.1,0,AccAcc,40,18,Man,Right,
3,13,1,3.0658565000003364,['c'],0,right,['2'],5,0.3026473999998416,0.1,0,AccAcc,40,18,Man,Right,
4,13,1,1.6833947000004628,['c'],0,right,['3'],4,1.0843708999991577,0.4,0,AccAcc,40,18,Man,Right,
5,13,1,0.9658983999997872,['c'],1,left,['3'],4,0.5349870999998529,0.4,0,AccAcc,40,18,Man,Right,
6,13,1,0.7332568000001629,['n'],1,right,['2'],5,0.5668200999998589,0.2,0,AccAcc,40,18,Man,Right,
7,13,1,1.0164228999992702,['n'],1,right,['2'],5,0.6859168000000864,0.4,0,AccAcc,40,18,Man,Right,
8,13,1,1.317061100000501,['c'],1,left,['2'],5,0.30119250000007014,0.2,0,AccAcc,40,18,Man,Right,
9,13,1,1.9503113999999186,['n'],0,left,['2'],5,0.3346365000006699,0.1,0,AccAcc,40,18,Man,Right,
10,13,1,0.9007587000005515,['c'],1,left,['2'],5,0.28475949999938166,0.4,0,AccAcc,40,18,Man,Right,
11,13,1,0.8329017999994903,['n'],1,right,['2'],5,0.7354173000003357,0.4,0,AccAcc,40,18,Man,Right,
12,13,1,0.6337165000004461,['c'],1,left,['3'],4,0.7688404999998966,0.1,0,AccAcc,40,18,Man,Right,
13,13,1,0.8336491000000024,['c'],0,right,['2'],5,0.6679549000000407,0.2,0,AccAcc,40,18,Man,Right,
14,13,1,0.8179272999996101,['c'],1,left,['3'],4,0.767926799999259,0.2,0,AccAcc,40,18,Man,Right,
15,13,1,0.6502802999993946,['c'],1,left,['1'],6,1.116505899999538,0.4,0,AccAcc,40,18,Man,Right,
16,13,1,1.101016399999935,['n'],1,right,['3'],4,1.768185099999755,0.1,0,AccAcc,40,18,Man,Right,
17,13,1,0.6339328000003661,['c'],1,left,['2'],5,0.35134780000043975,0.2,0,AccAcc,40,18,Man,Right,
18,13,1,0.7171624999991764,['c'],1,left,['2'],5,0.2680443999997806,0.1,0,AccAcc,40,18,Man,Right,
19,13,1,0.6662020000003395,['c'],1,left,['2'],5,0.568857800000842,0.4,0,AccAcc,40,18,Man,Right,
20,13,1,0.7331544999997277,['c'],1,left,['2'],5,0.2668178000003536,0.1,0,AccAcc,40,18,Man,Right,
21,13,1,1.0330337000004874,['n'],1,right,['2'],5,0.65178190000006,0.2,0,AccAcc,40,18,Man,Right,
22,13,1,1.866883499999858,['c'],1,left,['3'],4,0.9014993999999206,0.2,0,AccAcc,40,18,Man,Right,
23,13,1,1.2006651000001511,['n'],1,right,['3'],4,0.4850977000005514,0.1,0,AccAcc,40,18,Man,Right,
24,13,1,2.350006100000428,['c'],0,right,['2'],5,0.3012051999994583,0.4,0,AccAcc,40,18,Man,Right,
25,13,1,3.0666620000001785,['c'],0,right,['2'],5,0.26781560000017635,0.2,0,AccAcc,40,18,Man,Right,
26,13,1,0.8997630000003483,['n'],1,right,['2'],5,0.45236520000071323,0.4,0,AccAcc,40,18,Man,Right,
27,13,1,0.8671777999998085,['n'],1,right,['2'],5,0.41849050000018906,0.1,0,AccAcc,40,18,Man,Right,
28,13,1,0.6661070000000109,['n'],1,right,['2'],5,0.6024089000002277,0.4,0,AccAcc,40,18,Man,Right,
29,13,1,0.732145699999819,['c'],1,left,['2'],5,0.18381620000036492,0.4,0,AccAcc,40,18,Man,Right,
30,13,1,1.6003245000001698,['n'],1,right,['2'],5,0.602154100000007,0.1,0,AccAcc,40,18,Man,Right,
31,13,1,0.7839203999992606,['c'],1,left,['2'],5,0.6008098000002065,0.1,0,AccAcc,40,18,Man,Right,
32,13,1,0.9837340000003678,['c'],1,left,['2'],5,0.9010728000002928,0.4,0,AccAcc,40,18,Man,Right,
33,13,1,1.2814072000001033,['c'],0,right,['2'],5,1.25096719999965,0.2,0,AccAcc,40,18,Man,Right,
34,13,1,1.651022799999737,['n'],1,right,['1'],6,0.9667472000000998,0.2,0,AccAcc,40,18,Man,Right,
35,13,1,1.0842441999993753,['c'],1,left,['2'],5,0.9518736999998509,0.1,0,AccAcc,40,18,Man,Right,
36,13,1,0.7337895000000572,['c'],1,left,['2'],5,0.5500005000003512,0.2,0,AccAcc,40,18,Man,Right,
37,13,1,1.3510796999999002,['n'],1,right,['3'],4,1.0348120999997263,0.2,0,AccAcc,40,18,Man,Right,
38,13,1,0.8837355999994543,['n'],1,right,['2'],5,0.4847669999999198,0.4,0,AccAcc,40,18,Man,Right,
39,13,1,0.7153059000002031,['c'],1,left,['2'],5,0.33447379999961413,0.1,0,AccAcc,40,18,Man,Right,
40,13,1,1.0360239999999976,['n'],0,left,['2'],5,0.5496036000004096,0.1,0,AccAcc,40,18,Man,Right,
41,13,1,2.1004069999999047,['c'],1,left,['2'],5,0.31858829999964655,0.1,0,AccAcc,40,18,Man,Right,
42,13,1,3.1160830999997415,['n'],1,right,['2'],5,0.46691370000007737,0.1,0,AccAcc,40,18,Man,Right,
43,13,1,1.2677229000000807,['n'],1,right,['2'],5,1.0338591999998243,0.4,0,AccAcc,40,18,Man,Right,
44,13,1,1.450369099999989,['n'],1,right,['2'],5,0.4001613999998881,0.4,0,AccAcc,40,18,Man,Right,
45,13,1,0.8342699000004359,['c'],1,left,['2'],5,0.501308699999754,0.2,0,AccAcc,40,18,Man,Right,
46,13,1,1.01704620000055,['c'],1,left,['2'],5,0.3996890999997049,0.4,0,AccAcc,40,18,Man,Right,
47,13,1,1.0329152999993312,['c'],1,left,['2'],5,0.3176425999999992,0.2,0,AccAcc,40,18,Man,Right,
48,13,1,1.7509857000004558,['n'],1,right,['3'],4,0.9340167999998812,0.2,0,AccAcc,40,18,Man,Right,
49,13,1,0.8007790000001478,['c'],0,right,['2'],5,0.46828850000019884,0.1,0,AccAcc,40,18,Man,Right,
50,13,1,0.6830179000007774,['n'],0,left,['2'],5,0.4514971999997215,0.2,0,AccAcc,40,18,Man,Right,
51,13,1,0.6843116000000009,['c'],1,left,['1'],6,0.3008623000005173,0.2,0,AccAcc,40,18,Man,Right,
52,13,1,0.900423299999602,['n'],1,right,['1'],6,0.5848823999995147,0.4,0,AccAcc,40,18,Man,Right,
53,13,1,0.7163003000005119,['c'],1,left,['1'],6,1.0679010000003473,0.1,0,AccAcc,40,18,Man,Right,
54,13,1,0.7842753999993874,['n'],1,right,['2'],5,1.135662599999705,0.4,0,AccAcc,40,18,Man,Right,
55,13,1,0.6505379999998695,['c'],0,right,['2'],5,0.7830121999995754,0.2,0,AccAcc,40,18,Man,Right,
56,13,1,0.6176900000000387,['n'],1,right,['2'],5,0.9013019000003624,0.4,0,AccAcc,40,18,Man,Right,
57,13,1,0.7843855999999505,['n'],1,right,['1'],6,0.5513720999997531,0.4,0,AccAcc,40,18,Man,Right,
58,13,1,0.8158340999998472,['c'],1,left,['2'],5,0.6689192000003459,0.2,0,AccAcc,40,18,Man,Right,
59,13,1,1.050151100000221,['c'],1,left,['2'],5,0.5002916000003097,0.1,0,AccAcc,40,18,Man,Right,
0,14,1,0.8351121999994575,['c'],1,left,['2'],5,1.0504946999999447,0.4,0,FastAcc,40,18,Man,Right,
1,14,1,0.5506322999999611,['c'],1,left,['1'],6,0.8507872999998654,0.4,0,FastAcc,40,18,Man,Right,
2,14,1,0.56808860000001,['n'],1,right,['2'],5,0.7013852000000043,0.2,0,FastAcc,40,18,Man,Right,
3,14,1,0.5165680999998585,['c'],1,left,['2'],5,0.48314119999940885,0.2,0,FastAcc,40,18,Man,Right,
4,14,1,0.6163432000003013,['n'],1,right,['2'],5,0.9681722999994236,0.4,0,FastAcc,40,18,Man,Right,
5,14,1,0.5004441999999472,['c'],1,left,['2'],5,0.517760200000339,0.1,0,FastAcc,40,18,Man,Right,
6,14,1,0.6502332999998544,['c'],1,left,['2'],5,0.5680548999998791,0.2,0,FastAcc,40,18,Man,Right,
7,14,1,0.5831304999992426,['n'],1,right,['2'],5,0.984451799999988,0.2,0,FastAcc,40,18,Man,Right,
8,14,1,0.8520094000004974,['c'],1,left,['3'],4,0.8014856999998301,0.2,0,FastAcc,40,18,Man,Right,
9,14,1,0.7339074999999866,['c'],0,right,['3'],4,1.2512646999994104,0.2,0,FastAcc,40,18,Man,Right,
10,14,1,1.2844366999997874,['n'],0,left,['3'],4,0.6008028999995076,0.1,0,FastAcc,40,18,Man,Right,
11,14,1,1.3843068999995012,['n'],1,right,['3'],4,0.8511847999998281,0.1,0,FastAcc,40,18,Man,Right,
12,14,1,0.6845207000005757,['c'],1,left,['2'],5,0.7182057999998506,0.1,0,FastAcc,40,18,Man,Right,
13,14,1,0.6339972999994643,['n'],1,right,['3'],4,0.8179811999998492,0.1,0,FastAcc,40,18,Man,Right,
14,14,1,0.6835944999993444,['n'],1,right,['3'],4,0.5002016000007643,0.1,0,FastAcc,40,18,Man,Right,
15,14,1,1.516045800000029,['c'],1,left,['3'],4,0.7020695999999589,0.4,0,FastAcc,40,18,Man,Right,
16,14,1,3.6500372999998945,['n'],0,left,['3'],4,0.6352689999994254,0.2,0,FastAcc,40,18,Man,Right,
17,14,1,0.5497568999999203,['c'],1,left,['3'],4,0.6017535999999382,0.4,0,FastAcc,40,18,Man,Right,
18,14,1,0.6007748000001811,['c'],1,left,['3'],4,0.4846923000004608,0.4,0,FastAcc,40,18,Man,Right,
19,14,1,0.46721770000021934,['n'],1,right,['2'],5,0.8836879999998928,0.2,0,FastAcc,40,18,Man,Right,
20,14,1,0.5842254999997749,['c'],1,left,['1'],6,0.5680070999997042,0.2,0,FastAcc,40,18,Man,Right,
21,14,1,0.8509614999993573,['c'],0,right,['2'],5,0.6856441999998424,0.2,0,FastAcc,40,18,Man,Right,
22,14,1,0.5670508999992308,['c'],1,left,['2'],5,0.4176160999995773,0.4,0,FastAcc,40,18,Man,Right,
23,14,1,0.516839599999912,['c'],0,right,['2'],5,0.25202210000043124,0.2,0,FastAcc,40,18,Man,Right,
24,14,1,0.5991794000001391,['c'],1,left,['3'],4,1.0679542000007132,0.2,0,FastAcc,40,18,Man,Right,
25,14,1,0.7340394000002561,['n'],1,right,['3'],4,1.2013938999998572,0.4,0,FastAcc,40,18,Man,Right,
26,14,1,0.600415900000371,['c'],0,right,['2'],5,0.4019141999997373,0.1,0,FastAcc,40,18,Man,Right,
27,14,1,0.7163190000001123,['c'],1,left,['2'],5,0.5011319000004733,0.1,0,FastAcc,40,18,Man,Right,
28,14,1,0.5996033999999781,['n'],1,right,['2'],5,0.5347104000002219,0.2,0,FastAcc,40,18,Man,Right,
29,14,1,0.4501935999996931,['c'],0,right,['2'],5,0.501459199999772,0.4,0,FastAcc,40,18,Man,Right,
30,14,1,0.766472000000249,['n'],1,right,['2'],5,0.45199330000014015,0.2,0,FastAcc,40,18,Man,Right,
31,14,1,0.6343166999995447,['c'],0,right,['3'],4,0.8512695999997959,0.1,0,FastAcc,40,18,Man,Right,
32,14,1,0.46701000000030035,['n'],1,right,['8'],3,1.2672965000001568,0.2,0,FastAcc,40,18,Man,Right,
33,14,1,0.7170322000001761,['c'],1,left,['2'],5,0.43405880000045727,0.2,0,FastAcc,40,18,Man,Right,
34,14,1,0.9847594000002573,['c'],0,right,['2'],5,0.4348723000002792,0.4,0,FastAcc,40,18,Man,Right,
35,14,1,1.4675897999995868,['n'],1,right,['9'],2,0.6014699999996083,0.2,0,FastAcc,40,18,Man,Right,
36,14,1,0.8352482000000236,['c'],0,right,['2'],5,0.26793699999961973,0.1,0,FastAcc,40,18,Man,Right,
37,14,1,0.7836875000002692,['c'],1,left,['1'],6,0.7501159000003099,0.1,0,FastAcc,40,18,Man,Right,
38,14,1,0.6339685000002646,['c'],1,left,['2'],5,0.451205100000152,0.4,0,FastAcc,40,18,Man,Right,
39,14,1,1.33301930000016,['c'],0,right,['2'],5,0.6165367000003243,0.1,0,FastAcc,40,18,Man,Right,
40,14,1,0.716995699999643,['c'],1,left,['2'],5,0.4028661000002103,0.4,0,FastAcc,40,18,Man,Right,
41,14,1,1.1505221000006713,['c'],0,right,['2'],5,0.3178619999998773,0.1,0,FastAcc,40,18,Man,Right,
42,14,1,1.082643800000369,['c'],0,right,['2'],5,0.2169819999999163,0.4,0,FastAcc,40,18,Man,Right,
43,14,1,0.8168486999993547,['c'],0,right,['2'],5,0.3690234000005148,0.4,0,FastAcc,40,18,Man,Right,
44,14,1,0.7836139000000912,['c'],1,left,['3'],4,0.9502946000002339,0.4,0,FastAcc,40,18,Man,Right,
45,14,1,0.550415100000464,['n'],1,right,['3'],4,1.2178068000002895,0.2,0,FastAcc,40,18,Man,Right,
46,14,1,0.5670281000002433,['c'],1,left,['3'],4,0.3851148000003377,0.1,0,FastAcc,40,18,Man,Right,
47,14,1,1.8831184000000576,['n'],0,left,['3'],4,0.5012705999997706,0.4,0,FastAcc,40,18,Man,Right,
48,14,1,0.8665087999997922,['c'],1,left,['3'],4,0.5686476000000766,0.1,0,FastAcc,40,18,Man,Right,
49,14,1,0.43211299999984476,['n'],1,right,['1'],6,0.9194307999996454,0.2,0,FastAcc,40,18,Man,Right,
50,14,1,1.5836745000005976,['n'],1,right,['3'],4,0.6520963999992091,0.1,0,FastAcc,40,18,Man,Right,
51,14,1,0.716156200000114,['n'],0,left,['9'],2,1.3850743000002694,0.1,0,FastAcc,40,18,Man,Right,
52,14,1,1.0661800000007133,['c'],0,right,['2'],5,1.0838570000005348,0.4,0,FastAcc,40,18,Man,Right,
53,14,1,1.284003599999778,['n'],1,right,['9'],2,1.6173179000006712,0.1,0,FastAcc,40,18,Man,Right,
54,14,1,0.6518105999994077,['c'],1,left,['2'],5,1.1167660000000978,0.2,0,FastAcc,40,18,Man,Right,
55,14,1,0.8670766999994157,['c'],1,left,['2'],5,0.535129699999743,0.4,0,FastAcc,40,18,Man,Right,
56,14,1,1.0664239999996425,['n'],0,left,['2'],5,0.6009169999997539,0.1,0,FastAcc,40,18,Man,Right,
57,14,1,0.5512661000002481,['c'],1,left,['2'],5,0.7180318000000625,0.4,0,FastAcc,40,18,Man,Right,
58,14,1,0.500357900000381,['n'],1,right,['2'],5,0.5662953000000925,0.1,0,FastAcc,40,18,Man,Right,
59,14,1,0.5015196000003925,['c'],1,left,['1'],6,0.6528041999999914,0.4,0,FastAcc,40,18,Man,Right,
0,15,1,0.9500225000001592,['c'],0,right,['2'],5,0.500094199999694,0.4,0,FastFast,40,18,Man,Right,
1,15,1,0.6007552999999461,['c'],1,left,['2'],5,0.38440989999980957,0.2,0,FastFast,40,18,Man,Right,
2,15,1,0.5490549999994982,['c'],1,left,['2'],5,0.31802410000000236,0.4,0,FastFast,40,18,Man,Right,
3,15,1,0.515969000000041,['c'],1,left,['1'],6,0.433762999999999,0.4,0,FastFast,40,18,Man,Right,
4,15,1,0.9008358000000953,['n'],1,right,['2'],5,0.4515155000008235,0.1,0,FastFast,40,18,Man,Right,
5,15,1,0.5160223000002588,['c'],0,right,['2'],5,0.23562909999964177,0.1,0,FastFast,40,18,Man,Right,
6,15,1,0.6314061000002766,['n'],1,right,['2'],5,0.4674662999996144,0.1,0,FastFast,40,18,Man,Right,
7,15,1,0.4679833000000144,['c'],1,left,['2'],5,0.2833530999996583,0.1,0,FastFast,40,18,Man,Right,
8,15,1,0.483783300000141,['n'],1,right,['2'],5,0.43434829999932845,0.2,0,FastFast,40,18,Man,Right,
9,15,1,0.40029020000019955,['c'],0,right,['2'],5,0.40119810000032885,0.2,0,FastFast,40,18,Man,Right,
10,15,1,0.8003105000007054,['n'],1,right,['2'],5,0.36620220000077097,0.1,0,FastFast,40,18,Man,Right,
11,15,1,0.9839453999993566,['n'],1,right,['2'],5,1.1351566000003004,0.1,0,FastFast,40,18,Man,Right,
12,15,1,0.5175282000000152,['c'],1,left,['2'],5,0.23478220000015426,0.2,0,FastFast,40,18,Man,Right,
13,15,1,0.45027030000073864,['n'],0,left,['2'],5,0.45049680000010994,0.2,0,FastFast,40,18,Man,Right,
14,15,1,0.6512555999997858,['n'],0,left,['2'],5,0.40116440000019793,0.1,0,FastFast,40,18,Man,Right,
15,15,1,0.6005633000004309,['c'],1,left,['1'],6,0.283809100000326,0.2,0,FastFast,40,18,Man,Right,
16,15,1,0.5516379999999117,['n'],0,left,['1'],6,0.5679649000003337,0.4,0,FastFast,40,18,Man,Right,
17,15,1,0.7665196999996624,['n'],0,left,['2'],5,1.5850884000001315,0.1,0,FastFast,40,18,Man,Right,
18,15,1,0.5499297999995179,['c'],1,left,['2'],5,0.4678600000006554,0.1,0,FastFast,40,18,Man,Right,
19,15,1,0.5678554000005533,['n'],1,right,['1'],6,0.6676428000000669,0.4,0,FastFast,40,18,Man,Right,
20,15,1,0.9346213999997417,['n'],1,right,['3'],4,0.784454900000128,0.4,0,FastFast,40,18,Man,Right,
21,15,1,0.5845626000000266,['c'],1,left,['3'],4,0.7015358999997261,0.1,0,FastFast,40,18,Man,Right,
22,15,1,0.9002712000001338,['c'],1,left,['3'],4,0.5511323999999149,0.2,0,FastFast,40,18,Man,Right,
23,15,1,0.8171339999998963,['n'],1,right,['3'],4,0.6678602000001774,0.2,0,FastFast,40,18,Man,Right,
24,15,1,0.8004360000004453,['n'],1,right,['2'],5,0.6330183999998553,0.4,0,FastFast,40,18,Man,Right,
25,15,1,0.667774499999723,['c'],1,left,['1'],6,0.4174659000000247,0.2,0,FastFast,40,18,Man,Right,
26,15,1,0.6341045999997732,['c'],0,right,['9'],2,1.184403199999906,0.4,0,FastFast,40,18,Man,Right,
27,15,1,0.6831858999994438,['c'],1,left,['2'],5,0.26888210000015533,0.2,0,FastFast,40,18,Man,Right,
28,15,1,0.5995437000001402,['c'],0,right,['2'],5,0.23499189999984083,0.2,0,FastFast,40,18,Man,Right,
29,15,1,0.5842563999995036,['c'],1,left,['2'],5,0.23362840000027063,0.4,0,FastFast,40,18,Man,Right,
30,15,1,0.7659446999996362,['n'],1,right,['9'],2,0.4342609999994238,0.4,0,FastFast,40,18,Man,Right,
31,15,1,0.900399500000276,['c'],0,right,['0'],1,1.450870799999393,0.4,0,FastFast,40,18,Man,Right,
32,15,1,0.9326725999999326,['c'],1,left,['2'],5,0.584239300000263,0.2,0,FastFast,40,18,Man,Right,
33,15,1,0.7348093999999037,['n'],1,right,['2'],5,0.8348250999997617,0.4,0,FastFast,40,18,Man,Right,
34,15,1,1.7989090999999462,['n'],0,left,['2'],5,0.5510150000000067,0.2,0,FastFast,40,18,Man,Right,
35,15,1,0.518639400000211,['n'],0,left,['2'],5,0.2843681000003926,0.1,0,FastFast,40,18,Man,Right,
36,15,1,0.6331991000006383,['n'],1,right,['2'],5,0.234769800000322,0.1,0,FastFast,40,18,Man,Right,
37,15,1,0.5163579999998547,['n'],1,right,['2'],5,0.3180490999993708,0.2,0,FastFast,40,18,Man,Right,
38,15,1,0.633168399999704,['n'],0,left,['2'],5,0.40197299999999814,0.4,0,FastFast,40,18,Man,Right,
39,15,1,0.5336608999996315,['n'],1,right,['2'],5,0.26727200000004814,0.1,0,FastFast,40,18,Man,Right,
40,15,1,0.517531799999233,['c'],1,left,['2'],5,0.2177147000002151,0.2,0,FastFast,40,18,Man,Right,
41,15,1,0.6507155999997849,['n'],1,right,['1'],6,0.4856813999995211,0.1,0,FastFast,40,18,Man,Right,
42,15,1,0.6509122000006755,['n'],1,right,['2'],5,0.4165909000003012,0.2,0,FastFast,40,18,Man,Right,
43,15,1,0.5846516999999949,['c'],1,left,['1'],6,0.30091259999971953,0.4,0,FastFast,40,18,Man,Right,
44,15,1,1.0674826000004032,['n'],0,left,['2'],5,0.3677476000002571,0.2,0,FastFast,40,18,Man,Right,
45,15,1,0.582698000000164,['n'],1,right,['2'],5,0.5018298000004506,0.4,0,FastFast,40,18,Man,Right,
46,15,1,0.799167999999554,['n'],0,left,['2'],5,0.38448349999998754,0.1,0,FastFast,40,18,Man,Right,
47,15,1,0.5835170000000289,['c'],1,left,['1'],6,0.21880249999958323,0.4,0,FastFast,40,18,Man,Right,
48,15,1,0.9163849999995364,['c'],0,right,['1'],6,0.2347410000002128,0.1,0,FastFast,40,18,Man,Right,
49,15,1,0.766649299999699,['n'],0,left,['2'],5,0.5348157999997056,0.2,0,FastFast,40,18,Man,Right,
50,15,1,0.5837917000008019,['n'],1,right,['2'],5,0.23381509999944683,0.2,0,FastFast,40,18,Man,Right,
51,15,1,0.6996200000003228,['c'],0,right,['2'],5,0.21757199999956356,0.4,0,FastFast,40,18,Man,Right,
52,15,1,0.8830009999992399,['c'],0,right,['2'],5,0.2192029999996521,0.2,0,FastFast,40,18,Man,Right,
53,15,1,0.5507777000002534,['c'],0,right,['2'],5,0.18460589999995136,0.1,0,FastFast,40,18,Man,Right,
54,15,1,0.467788500000097,['c'],1,left,['2'],5,0.18475070000022242,0.1,0,FastFast,40,18,Man,Right,
55,15,1,0.4831272999999783,['c'],0,right,['2'],5,0.20136689999981172,0.1,0,FastFast,40,18,Man,Right,
56,15,1,0.617045799999687,['n'],1,right,['2'],5,0.2511094999999841,0.4,0,FastFast,40,18,Man,Right,
57,15,1,0.5504888999994364,['c'],1,left,['2'],5,0.2013862000003428,0.4,0,FastFast,40,18,Man,Right,
58,15,1,0.8654814000001352,['c'],1,left,['2'],5,0.2354150999999547,0.1,0,FastFast,40,18,Man,Right,
59,15,1,0.4833764000004521,['c'],1,left,['2'],5,0.184747299999799,0.4,0,FastFast,40,18,Man,Right,
