withinblocktrial,block,block_repetition,rt,resp,cor,cresp,conf_press,cj,rtconf,coherence,slow_trial,manipulation,sub,age,gender,handedness,
0,1,1,5.000083200000063,x,-99,left,none,-99,-99,0.5,1,none,39,19,Man,Right,
1,1,1,1.6175760000000992,['c'],1,left,none,-99,-99,0.5,0,none,39,19,Man,Right,
2,1,1,1.5004463000000214,['c'],1,left,none,-99,-99,0.5,0,none,39,19,Man,Right,
3,1,1,1.1669043000001693,['n'],0,left,none,-99,-99,0.5,0,none,39,19,Man,Right,
4,1,1,1.4316505000001598,['n'],0,left,none,-99,-99,0.5,0,none,39,19,Man,Right,
5,1,1,1.2665776999997433,['c'],0,right,none,-99,-99,0.5,0,none,39,19,Man,Right,
6,1,1,0.9336978999999701,['n'],1,right,none,-99,-99,0.5,0,none,39,19,Man,Right,
7,1,1,1.034644699999717,['n'],0,left,none,-99,-99,0.5,0,none,39,19,Man,Right,
8,1,1,0.9169518999997308,['n'],1,right,none,-99,-99,0.5,0,none,39,19,Man,Right,
9,1,1,1.0160178999999516,['n'],0,left,none,-99,-99,0.5,0,none,39,19,Man,Right,
10,1,1,0.6841549000000668,['n'],1,right,none,-99,-99,0.5,0,none,39,19,Man,Right,
11,1,1,0.7672253999999157,['n'],1,right,none,-99,-99,0.5,0,none,39,19,Man,Right,
12,1,1,0.7346473000002334,['n'],0,left,none,-99,-99,0.5,0,none,39,19,Man,Right,
13,1,1,0.7011578000001464,['n'],0,left,none,-99,-99,0.5,0,none,39,19,Man,Right,
14,1,1,0.716284000000087,['n'],1,right,none,-99,-99,0.5,0,none,39,19,Man,Right,
15,1,1,1.0338179999998829,['c'],1,left,none,-99,-99,0.5,0,none,39,19,Man,Right,
16,1,1,0.9167155999998613,['n'],0,left,none,-99,-99,0.5,0,none,39,19,Man,Right,
17,1,1,1.1837338999998792,['n'],1,right,none,-99,-99,0.5,0,none,39,19,Man,Right,
18,1,1,0.7831913999998505,['n'],1,right,none,-99,-99,0.5,0,none,39,19,Man,Right,
19,1,1,0.5991002999999182,['n'],0,left,none,-99,-99,0.5,0,none,39,19,Man,Right,
20,1,1,0.651383800000076,['n'],1,right,none,-99,-99,0.5,0,none,39,19,Man,Right,
21,1,1,0.9002588999996988,['n'],1,right,none,-99,-99,0.5,0,none,39,19,Man,Right,
22,1,1,0.5146144999998796,['n'],1,right,none,-99,-99,0.5,0,none,39,19,Man,Right,
23,1,1,0.7337284999998701,['n'],1,right,none,-99,-99,0.5,0,none,39,19,Man,Right,
0,1,2,1.6351992999998402,['n'],0,left,none,-99,-99,0.5,0,none,39,19,Man,Right,
1,1,2,0.5997148999999808,['n'],1,right,none,-99,-99,0.5,0,none,39,19,Man,Right,
2,1,2,0.43386180000015884,['c'],1,left,none,-99,-99,0.5,0,none,39,19,Man,Right,
3,1,2,0.7170953999998346,['n'],0,left,none,-99,-99,0.5,0,none,39,19,Man,Right,
4,1,2,0.6007073999999193,['n'],0,left,none,-99,-99,0.5,0,none,39,19,Man,Right,
5,1,2,0.48281859999997323,['n'],0,left,none,-99,-99,0.5,0,none,39,19,Man,Right,
6,1,2,0.6836571999997432,['n'],1,right,none,-99,-99,0.5,0,none,39,19,Man,Right,
7,1,2,0.8493741999996018,['c'],0,right,none,-99,-99,0.5,0,none,39,19,Man,Right,
8,1,2,0.867370899999969,['n'],1,right,none,-99,-99,0.5,0,none,39,19,Man,Right,
9,1,2,0.9506634999997914,['n'],1,right,none,-99,-99,0.5,0,none,39,19,Man,Right,
10,1,2,0.9841225000000122,['c'],0,right,none,-99,-99,0.5,0,none,39,19,Man,Right,
11,1,2,0.4830584999999701,['n'],0,left,none,-99,-99,0.5,0,none,39,19,Man,Right,
12,1,2,0.617386400000214,['c'],1,left,none,-99,-99,0.5,0,none,39,19,Man,Right,
13,1,2,0.6833799000000909,['n'],1,right,none,-99,-99,0.5,0,none,39,19,Man,Right,
14,1,2,0.6828607000002194,['n'],0,left,none,-99,-99,0.5,0,none,39,19,Man,Right,
15,1,2,0.6668826000000081,['n'],1,right,none,-99,-99,0.5,0,none,39,19,Man,Right,
16,1,2,0.7842912999999498,['n'],1,right,none,-99,-99,0.5,0,none,39,19,Man,Right,
17,1,2,0.5002043999998023,['n'],1,right,none,-99,-99,0.5,0,none,39,19,Man,Right,
18,1,2,0.7007052000003569,['c'],1,left,none,-99,-99,0.5,0,none,39,19,Man,Right,
19,1,2,0.5515229999996336,['n'],0,left,none,-99,-99,0.5,0,none,39,19,Man,Right,
20,1,2,0.8010312999999769,['n'],1,right,none,-99,-99,0.5,0,none,39,19,Man,Right,
21,1,2,0.8006006000000525,['c'],1,left,none,-99,-99,0.5,0,none,39,19,Man,Right,
22,1,2,0.5838549999998577,['n'],0,left,none,-99,-99,0.5,0,none,39,19,Man,Right,
23,1,2,0.6507664000000659,['n'],1,right,none,-99,-99,0.5,0,none,39,19,Man,Right,
0,1,3,0.7510598999997455,['n'],1,right,none,-99,-99,0.5,0,none,39,19,Man,Right,
1,1,3,0.5814345000003414,['n'],1,right,none,-99,-99,0.5,0,none,39,19,Man,Right,
2,1,3,0.7673746999998912,['c'],1,left,none,-99,-99,0.5,0,none,39,19,Man,Right,
3,1,3,0.7493272000001525,['n'],1,right,none,-99,-99,0.5,0,none,39,19,Man,Right,
4,1,3,0.583750499999951,['n'],0,left,none,-99,-99,0.5,0,none,39,19,Man,Right,
5,1,3,0.6508195000001251,['n'],0,left,none,-99,-99,0.5,0,none,39,19,Man,Right,
6,1,3,0.7324600000001737,['n'],1,right,none,-99,-99,0.5,0,none,39,19,Man,Right,
7,1,3,0.5012500000002547,['c'],0,right,none,-99,-99,0.5,0,none,39,19,Man,Right,
8,1,3,0.884224500000073,['c'],1,left,none,-99,-99,0.5,0,none,39,19,Man,Right,
9,1,3,0.7666086000003816,['c'],1,left,none,-99,-99,0.5,0,none,39,19,Man,Right,
10,1,3,0.7338377999999466,['c'],1,left,none,-99,-99,0.5,0,none,39,19,Man,Right,
11,1,3,0.5011641999999483,['c'],1,left,none,-99,-99,0.5,0,none,39,19,Man,Right,
12,1,3,0.6343780000001971,['n'],1,right,none,-99,-99,0.5,0,none,39,19,Man,Right,
13,1,3,0.7662469000001693,['c'],0,right,none,-99,-99,0.5,0,none,39,19,Man,Right,
14,1,3,0.6013359999997192,['c'],0,right,none,-99,-99,0.5,0,none,39,19,Man,Right,
15,1,3,0.7492247000000134,['n'],1,right,none,-99,-99,0.5,0,none,39,19,Man,Right,
16,1,3,0.7003816999999799,['c'],0,right,none,-99,-99,0.5,0,none,39,19,Man,Right,
17,1,3,0.7338939000001119,['c'],1,left,none,-99,-99,0.5,0,none,39,19,Man,Right,
18,1,3,0.7001680000003034,['c'],1,left,none,-99,-99,0.5,0,none,39,19,Man,Right,
19,1,3,0.733140800000001,['c'],1,left,none,-99,-99,0.5,0,none,39,19,Man,Right,
20,1,3,0.8657924999997704,['n'],1,right,none,-99,-99,0.5,0,none,39,19,Man,Right,
21,1,3,0.749833899999885,['c'],0,right,none,-99,-99,0.5,0,none,39,19,Man,Right,
22,1,3,0.75197610000032,['c'],1,left,none,-99,-99,0.5,0,none,39,19,Man,Right,
23,1,3,0.6679496000001564,['c'],1,left,none,-99,-99,0.5,0,none,39,19,Man,Right,
0,1,4,1.4000980999999229,['c'],0,right,none,-99,-99,0.5,0,none,39,19,Man,Right,
1,1,4,0.966873299999861,['c'],0,right,none,-99,-99,0.5,0,none,39,19,Man,Right,
2,1,4,0.751398099999733,['c'],0,right,none,-99,-99,0.5,0,none,39,19,Man,Right,
3,1,4,0.5996949000000313,['n'],0,left,none,-99,-99,0.5,0,none,39,19,Man,Right,
4,1,4,0.8859636000001956,['c'],1,left,none,-99,-99,0.5,0,none,39,19,Man,Right,
5,1,4,0.7834097999998448,['c'],1,left,none,-99,-99,0.5,0,none,39,19,Man,Right,
6,1,4,0.7346502999998847,['c'],1,left,none,-99,-99,0.5,0,none,39,19,Man,Right,
7,1,4,0.881772600000204,['n'],0,left,none,-99,-99,0.5,0,none,39,19,Man,Right,
8,1,4,0.7500543000001016,['n'],1,right,none,-99,-99,0.5,0,none,39,19,Man,Right,
9,1,4,1.0182302999996864,['c'],0,right,none,-99,-99,0.5,0,none,39,19,Man,Right,
10,1,4,0.866208099999767,['n'],1,right,none,-99,-99,0.5,0,none,39,19,Man,Right,
11,1,4,1.101321999999982,['n'],0,left,none,-99,-99,0.5,0,none,39,19,Man,Right,
12,1,4,0.6504948000001605,['c'],1,left,none,-99,-99,0.5,0,none,39,19,Man,Right,
13,1,4,0.6672742000000653,['c'],0,right,none,-99,-99,0.5,0,none,39,19,Man,Right,
14,1,4,1.082544300000336,['c'],1,left,none,-99,-99,0.5,0,none,39,19,Man,Right,
15,1,4,1.0662853999997424,['c'],1,left,none,-99,-99,0.5,0,none,39,19,Man,Right,
16,1,4,0.5997489999999743,['c'],0,right,none,-99,-99,0.5,0,none,39,19,Man,Right,
17,1,4,0.6512674000000516,['n'],1,right,none,-99,-99,0.5,0,none,39,19,Man,Right,
18,1,4,0.9821375999999873,['c'],1,left,none,-99,-99,0.5,0,none,39,19,Man,Right,
19,1,4,0.601777200000015,['c'],0,right,none,-99,-99,0.5,0,none,39,19,Man,Right,
20,1,4,0.7495718000000124,['c'],1,left,none,-99,-99,0.5,0,none,39,19,Man,Right,
21,1,4,0.8183945000000676,['c'],0,right,none,-99,-99,0.5,0,none,39,19,Man,Right,
22,1,4,0.8844034999997348,['c'],1,left,none,-99,-99,0.5,0,none,39,19,Man,Right,
23,1,4,0.7334626000001663,['n'],1,right,none,-99,-99,0.5,0,none,39,19,Man,Right,
0,1,5,1.0676938999999948,['n'],1,right,none,-99,-99,0.5,0,none,39,19,Man,Right,
1,1,5,0.7655324999996083,['n'],1,right,none,-99,-99,0.5,0,none,39,19,Man,Right,
2,1,5,0.817975700000261,['c'],1,left,none,-99,-99,0.5,0,none,39,19,Man,Right,
3,1,5,0.7342303000000356,['c'],1,left,none,-99,-99,0.5,0,none,39,19,Man,Right,
4,1,5,0.6520607000002201,['c'],1,left,none,-99,-99,0.5,0,none,39,19,Man,Right,
5,1,5,0.85070369999994,['n'],0,left,none,-99,-99,0.5,0,none,39,19,Man,Right,
6,1,5,0.8991160000000491,['n'],0,left,none,-99,-99,0.5,0,none,39,19,Man,Right,
7,1,5,0.8495498000002044,['n'],0,left,none,-99,-99,0.5,0,none,39,19,Man,Right,
8,1,5,0.6522942000001422,['n'],1,right,none,-99,-99,0.5,0,none,39,19,Man,Right,
9,1,5,0.7653588000002856,['n'],1,right,none,-99,-99,0.5,0,none,39,19,Man,Right,
10,1,5,0.5508188000003429,['n'],1,right,none,-99,-99,0.5,0,none,39,19,Man,Right,
11,1,5,0.6181305999998585,['n'],1,right,none,-99,-99,0.5,0,none,39,19,Man,Right,
12,1,5,1.0987205999999787,['c'],1,left,none,-99,-99,0.5,0,none,39,19,Man,Right,
13,1,5,0.6839429000001473,['c'],1,left,none,-99,-99,0.5,0,none,39,19,Man,Right,
14,1,5,0.6161049000002095,['n'],1,right,none,-99,-99,0.5,0,none,39,19,Man,Right,
15,1,5,0.8326608000002125,['c'],1,left,none,-99,-99,0.5,0,none,39,19,Man,Right,
16,1,5,0.5004106000001229,['n'],1,right,none,-99,-99,0.5,0,none,39,19,Man,Right,
17,1,5,0.9515456999997696,['c'],1,left,none,-99,-99,0.5,0,none,39,19,Man,Right,
18,1,5,0.49968730000000505,['n'],1,right,none,-99,-99,0.5,0,none,39,19,Man,Right,
19,1,5,0.8169807000003857,['n'],1,right,none,-99,-99,0.5,0,none,39,19,Man,Right,
20,1,5,0.7837557999996534,['c'],1,left,none,-99,-99,0.5,0,none,39,19,Man,Right,
21,1,5,0.8505589999999756,['c'],0,right,none,-99,-99,0.5,0,none,39,19,Man,Right,
22,1,5,1.0165714999998272,['c'],1,left,none,-99,-99,0.5,0,none,39,19,Man,Right,
23,1,5,0.4840755000000172,['n'],1,right,none,-99,-99,0.5,0,none,39,19,Man,Right,
0,1,6,0.7688695000001644,['c'],1,left,none,-99,-99,0.5,0,none,39,19,Man,Right,
1,1,6,0.5171628999996756,['c'],1,left,none,-99,-99,0.5,0,none,39,19,Man,Right,
2,1,6,0.781476599999678,['c'],1,left,none,-99,-99,0.5,0,none,39,19,Man,Right,
3,1,6,0.39917289999993955,['n'],1,right,none,-99,-99,0.5,0,none,39,19,Man,Right,
4,1,6,0.43321510000032504,['n'],1,right,none,-99,-99,0.5,0,none,39,19,Man,Right,
5,1,6,0.81889880000017,['c'],1,left,none,-99,-99,0.5,0,none,39,19,Man,Right,
6,1,6,0.6827690000000075,['n'],1,right,none,-99,-99,0.5,0,none,39,19,Man,Right,
7,1,6,0.500394199999846,['n'],1,right,none,-99,-99,0.5,0,none,39,19,Man,Right,
8,1,6,0.717674800000168,['c'],1,left,none,-99,-99,0.5,0,none,39,19,Man,Right,
9,1,6,0.6657516999998734,['n'],1,right,none,-99,-99,0.5,0,none,39,19,Man,Right,
10,1,6,0.6998072999999749,['c'],0,right,none,-99,-99,0.5,0,none,39,19,Man,Right,
11,1,6,0.7332862000002933,['c'],1,left,none,-99,-99,0.5,0,none,39,19,Man,Right,
12,1,6,0.73255620000009,['n'],1,right,none,-99,-99,0.5,0,none,39,19,Man,Right,
13,1,6,0.7829971999999543,['c'],1,left,none,-99,-99,0.5,0,none,39,19,Man,Right,
14,1,6,0.8836152000003494,['n'],0,left,none,-99,-99,0.5,0,none,39,19,Man,Right,
15,1,6,0.5328779999999824,['n'],1,right,none,-99,-99,0.5,0,none,39,19,Man,Right,
16,1,6,0.7008843999997225,['c'],1,left,none,-99,-99,0.5,0,none,39,19,Man,Right,
17,1,6,0.5682676999999785,['n'],1,right,none,-99,-99,0.5,0,none,39,19,Man,Right,
18,1,6,0.4668602000001556,['c'],1,left,none,-99,-99,0.5,0,none,39,19,Man,Right,
19,1,6,0.6185074999998506,['c'],1,left,none,-99,-99,0.5,0,none,39,19,Man,Right,
20,1,6,0.6005502999996679,['n'],1,right,none,-99,-99,0.5,0,none,39,19,Man,Right,
21,1,6,0.9172014999999192,['n'],0,left,none,-99,-99,0.5,0,none,39,19,Man,Right,
22,1,6,1.1843636999997216,['c'],0,right,none,-99,-99,0.5,0,none,39,19,Man,Right,
23,1,6,0.7012248000000909,['n'],1,right,none,-99,-99,0.5,0,none,39,19,Man,Right,
0,1,7,0.8178244999999151,['n'],1,right,none,-99,-99,0.5,0,none,39,19,Man,Right,
1,1,7,0.8172409999997399,['c'],1,left,none,-99,-99,0.5,0,none,39,19,Man,Right,
2,1,7,0.6659982999999556,['c'],1,left,none,-99,-99,0.5,0,none,39,19,Man,Right,
3,1,7,0.6003082000001996,['n'],0,left,none,-99,-99,0.5,0,none,39,19,Man,Right,
4,1,7,0.8674794999997175,['c'],1,left,none,-99,-99,0.5,0,none,39,19,Man,Right,
5,1,7,1.000408900000366,['c'],1,left,none,-99,-99,0.5,0,none,39,19,Man,Right,
6,1,7,0.4835978000000978,['n'],1,right,none,-99,-99,0.5,0,none,39,19,Man,Right,
7,1,7,0.5657087999998112,['n'],1,right,none,-99,-99,0.5,0,none,39,19,Man,Right,
8,1,7,0.4510056000003715,['n'],1,right,none,-99,-99,0.5,0,none,39,19,Man,Right,
9,1,7,0.9177522999998473,['c'],1,left,none,-99,-99,0.5,0,none,39,19,Man,Right,
10,1,7,0.5015981000001375,['n'],1,right,none,-99,-99,0.5,0,none,39,19,Man,Right,
11,1,7,0.6168869999996787,['n'],1,right,none,-99,-99,0.5,0,none,39,19,Man,Right,
12,1,7,0.6490303999999014,['n'],1,right,none,-99,-99,0.5,0,none,39,19,Man,Right,
13,1,7,0.6338003000000754,['n'],1,right,none,-99,-99,0.5,0,none,39,19,Man,Right,
14,1,7,0.7510394999999335,['n'],0,left,none,-99,-99,0.5,0,none,39,19,Man,Right,
15,1,7,0.9821803999998338,['c'],1,left,none,-99,-99,0.5,0,none,39,19,Man,Right,
16,1,7,0.6344489999996767,['c'],1,left,none,-99,-99,0.5,0,none,39,19,Man,Right,
17,1,7,0.6844482000001335,['n'],1,right,none,-99,-99,0.5,0,none,39,19,Man,Right,
18,1,7,0.467793900000288,['c'],1,left,none,-99,-99,0.5,0,none,39,19,Man,Right,
19,1,7,0.6170296000000235,['n'],1,right,none,-99,-99,0.5,0,none,39,19,Man,Right,
20,1,7,1.5164635000000999,['c'],0,right,none,-99,-99,0.5,0,none,39,19,Man,Right,
21,1,7,0.6832116999999016,['c'],1,left,none,-99,-99,0.5,0,none,39,19,Man,Right,
22,1,7,1.3490937999999915,['n'],1,right,none,-99,-99,0.5,0,none,39,19,Man,Right,
23,1,7,1.0843885999997838,['n'],0,left,none,-99,-99,0.5,0,none,39,19,Man,Right,
0,1,8,1.134512099999938,['n'],1,right,none,-99,-99,0.5,0,none,39,19,Man,Right,
1,1,8,0.701054699999986,['c'],1,left,none,-99,-99,0.5,0,none,39,19,Man,Right,
2,1,8,0.7006860999999844,['n'],1,right,none,-99,-99,0.5,0,none,39,19,Man,Right,
3,1,8,0.7677080000003116,['c'],1,left,none,-99,-99,0.5,0,none,39,19,Man,Right,
4,1,8,0.8661533000004056,['n'],1,right,none,-99,-99,0.5,0,none,39,19,Man,Right,
5,1,8,1.1344511000002058,['c'],0,right,none,-99,-99,0.5,0,none,39,19,Man,Right,
6,1,8,0.7847166999999899,['c'],1,left,none,-99,-99,0.5,0,none,39,19,Man,Right,
7,1,8,0.7513271000002533,['n'],1,right,none,-99,-99,0.5,0,none,39,19,Man,Right,
8,1,8,0.8014591000001019,['n'],1,right,none,-99,-99,0.5,0,none,39,19,Man,Right,
9,1,8,1.0495906000001014,['n'],0,left,none,-99,-99,0.5,0,none,39,19,Man,Right,
10,1,8,0.8179086000000098,['n'],1,right,none,-99,-99,0.5,0,none,39,19,Man,Right,
11,1,8,0.9491496999999072,['c'],1,left,none,-99,-99,0.5,0,none,39,19,Man,Right,
12,1,8,1.1665201000000707,['c'],1,left,none,-99,-99,0.5,0,none,39,19,Man,Right,
13,1,8,0.7328379999999015,['n'],0,left,none,-99,-99,0.5,0,none,39,19,Man,Right,
14,1,8,1.0660203000002184,['n'],1,right,none,-99,-99,0.5,0,none,39,19,Man,Right,
15,1,8,1.0008100000000013,['c'],1,left,none,-99,-99,0.5,0,none,39,19,Man,Right,
16,1,8,0.7319302000000789,['n'],1,right,none,-99,-99,0.5,0,none,39,19,Man,Right,
17,1,8,0.9008057999999437,['n'],0,left,none,-99,-99,0.5,0,none,39,19,Man,Right,
18,1,8,0.8495096999999987,['n'],0,left,none,-99,-99,0.5,0,none,39,19,Man,Right,
19,1,8,0.8168873999998141,['n'],0,left,none,-99,-99,0.5,0,none,39,19,Man,Right,
20,1,8,0.9504021000002467,['n'],0,left,none,-99,-99,0.5,0,none,39,19,Man,Right,
21,1,8,0.667530700000043,['n'],1,right,none,-99,-99,0.5,0,none,39,19,Man,Right,
22,1,8,0.7503679999999804,['c'],0,right,none,-99,-99,0.5,0,none,39,19,Man,Right,
23,1,8,0.7838931999999659,['n'],1,right,none,-99,-99,0.5,0,none,39,19,Man,Right,
0,1,9,0.9334011000000828,['n'],0,left,none,-99,-99,0.5,0,none,39,19,Man,Right,
1,1,9,0.6827586000003976,['n'],1,right,none,-99,-99,0.5,0,none,39,19,Man,Right,
2,1,9,0.7684054999999717,['n'],0,left,none,-99,-99,0.5,0,none,39,19,Man,Right,
3,1,9,0.7841199000004053,['n'],1,right,none,-99,-99,0.5,0,none,39,19,Man,Right,
4,1,9,0.5846355999997286,['c'],1,left,none,-99,-99,0.5,0,none,39,19,Man,Right,
5,1,9,0.9512932000002365,['n'],0,left,none,-99,-99,0.5,0,none,39,19,Man,Right,
6,1,9,0.7510938999998871,['n'],1,right,none,-99,-99,0.5,0,none,39,19,Man,Right,
7,1,9,0.7826954000001933,['c'],1,left,none,-99,-99,0.5,0,none,39,19,Man,Right,
8,1,9,0.7505120999999235,['n'],0,left,none,-99,-99,0.5,0,none,39,19,Man,Right,
9,1,9,0.7989721999997528,['n'],0,left,none,-99,-99,0.5,0,none,39,19,Man,Right,
10,1,9,0.8343159000000924,['n'],1,right,none,-99,-99,0.5,0,none,39,19,Man,Right,
11,1,9,0.6486661999997523,['c'],1,left,none,-99,-99,0.5,0,none,39,19,Man,Right,
12,1,9,0.5843533000002026,['c'],1,left,none,-99,-99,0.5,0,none,39,19,Man,Right,
13,1,9,0.5667773999998644,['n'],1,right,none,-99,-99,0.5,0,none,39,19,Man,Right,
14,1,9,0.9668675999996594,['n'],1,right,none,-99,-99,0.5,0,none,39,19,Man,Right,
15,1,9,0.7007408000004034,['n'],1,right,none,-99,-99,0.5,0,none,39,19,Man,Right,
16,1,9,0.9347334000003684,['n'],1,right,none,-99,-99,0.5,0,none,39,19,Man,Right,
17,1,9,1.399873800000023,['n'],1,right,none,-99,-99,0.5,0,none,39,19,Man,Right,
18,1,9,0.866876499999762,['n'],1,right,none,-99,-99,0.5,0,none,39,19,Man,Right,
19,1,9,1.2673164000002544,['c'],1,left,none,-99,-99,0.5,0,none,39,19,Man,Right,
20,1,9,0.8010432000000947,['c'],1,left,none,-99,-99,0.5,0,none,39,19,Man,Right,
21,1,9,0.5337760000002163,['n'],1,right,none,-99,-99,0.5,0,none,39,19,Man,Right,
22,1,9,0.6993013999999675,['n'],1,right,none,-99,-99,0.5,0,none,39,19,Man,Right,
23,1,9,0.8004969999997229,['n'],0,left,none,-99,-99,0.5,0,none,39,19,Man,Right,
0,1,10,1.334879699999874,['n'],0,left,none,-99,-99,0.5,0,none,39,19,Man,Right,
1,1,10,1.1504916999997477,['c'],1,left,none,-99,-99,0.5,0,none,39,19,Man,Right,
2,1,10,0.6019137000002956,['n'],1,right,none,-99,-99,0.5,0,none,39,19,Man,Right,
3,1,10,0.4833921999997983,['n'],1,right,none,-99,-99,0.5,0,none,39,19,Man,Right,
4,1,10,0.6339327999999114,['n'],0,left,none,-99,-99,0.5,0,none,39,19,Man,Right,
5,1,10,0.5989972000002126,['n'],1,right,none,-99,-99,0.5,0,none,39,19,Man,Right,
6,1,10,1.0843501999997898,['c'],1,left,none,-99,-99,0.5,0,none,39,19,Man,Right,
7,1,10,0.9168585000002167,['n'],1,right,none,-99,-99,0.5,0,none,39,19,Man,Right,
8,1,10,0.749687399999857,['n'],1,right,none,-99,-99,0.5,0,none,39,19,Man,Right,
9,1,10,0.9002597999997306,['n'],1,right,none,-99,-99,0.5,0,none,39,19,Man,Right,
10,1,10,0.6658427000002121,['n'],0,left,none,-99,-99,0.5,0,none,39,19,Man,Right,
11,1,10,0.6678873999999269,['n'],1,right,none,-99,-99,0.5,0,none,39,19,Man,Right,
12,1,10,0.7837666999998874,['c'],1,left,none,-99,-99,0.5,0,none,39,19,Man,Right,
13,1,10,0.617065399999774,['c'],0,right,none,-99,-99,0.5,0,none,39,19,Man,Right,
14,1,10,0.9002469000001838,['c'],1,left,none,-99,-99,0.5,0,none,39,19,Man,Right,
15,1,10,1.0337585000002036,['c'],0,right,none,-99,-99,0.5,0,none,39,19,Man,Right,
16,1,10,0.6993349999997918,['n'],0,left,none,-99,-99,0.5,0,none,39,19,Man,Right,
17,1,10,0.8014412000002267,['n'],0,left,none,-99,-99,0.5,0,none,39,19,Man,Right,
18,1,10,0.8831992999998874,['c'],1,left,none,-99,-99,0.5,0,none,39,19,Man,Right,
19,1,10,0.6666981000003034,['c'],1,left,none,-99,-99,0.5,0,none,39,19,Man,Right,
20,1,10,0.6663268000002063,['n'],1,right,none,-99,-99,0.5,0,none,39,19,Man,Right,
21,1,10,0.7182190000003175,['n'],1,right,none,-99,-99,0.5,0,none,39,19,Man,Right,
22,1,10,0.517068300000119,['n'],1,right,none,-99,-99,0.5,0,none,39,19,Man,Right,
23,1,10,0.9000950999998167,['c'],1,left,none,-99,-99,0.5,0,none,39,19,Man,Right,
0,1,11,0.8165490999999747,['c'],1,left,none,-99,-99,0.5,0,none,39,19,Man,Right,
1,1,11,0.3683584000000337,['n'],1,right,none,-99,-99,0.5,0,none,39,19,Man,Right,
2,1,11,0.5176977000000988,['n'],1,right,none,-99,-99,0.5,0,none,39,19,Man,Right,
3,1,11,0.4340516000002026,['n'],0,left,none,-99,-99,0.5,0,none,39,19,Man,Right,
4,1,11,0.8152958000000581,['c'],1,left,none,-99,-99,0.5,0,none,39,19,Man,Right,
5,1,11,0.5343711999998959,['n'],1,right,none,-99,-99,0.5,0,none,39,19,Man,Right,
6,1,11,0.499789100000271,['n'],1,right,none,-99,-99,0.5,0,none,39,19,Man,Right,
7,1,11,0.6500670999998874,['n'],0,left,none,-99,-99,0.5,0,none,39,19,Man,Right,
8,1,11,0.5341566000001876,['n'],0,left,none,-99,-99,0.5,0,none,39,19,Man,Right,
9,1,11,0.6337769000001572,['n'],1,right,none,-99,-99,0.5,0,none,39,19,Man,Right,
10,1,11,0.633185699999558,['c'],1,left,none,-99,-99,0.5,0,none,39,19,Man,Right,
11,1,11,0.41688769999973374,['n'],1,right,none,-99,-99,0.5,0,none,39,19,Man,Right,
12,1,11,0.6499778000002152,['n'],1,right,none,-99,-99,0.5,0,none,39,19,Man,Right,
13,1,11,0.7832973999998103,['c'],1,left,none,-99,-99,0.5,0,none,39,19,Man,Right,
14,1,11,0.5997818999999254,['c'],1,left,none,-99,-99,0.5,0,none,39,19,Man,Right,
15,1,11,0.5670912000000499,['c'],1,left,none,-99,-99,0.5,0,none,39,19,Man,Right,
16,1,11,0.6502061999999569,['c'],1,left,none,-99,-99,0.5,0,none,39,19,Man,Right,
17,1,11,0.5503429000000324,['n'],1,right,none,-99,-99,0.5,0,none,39,19,Man,Right,
18,1,11,0.616396899999927,['n'],1,right,none,-99,-99,0.5,0,none,39,19,Man,Right,
19,1,11,0.7836757000000034,['n'],0,left,none,-99,-99,0.5,0,none,39,19,Man,Right,
20,1,11,0.45107850000022154,['n'],1,right,none,-99,-99,0.5,0,none,39,19,Man,Right,
21,1,11,0.5345182999999452,['n'],1,right,none,-99,-99,0.5,0,none,39,19,Man,Right,
22,1,11,0.5499033000000964,['n'],1,right,none,-99,-99,0.5,0,none,39,19,Man,Right,
23,1,11,0.7011664999999994,['c'],1,left,none,-99,-99,0.5,0,none,39,19,Man,Right,
0,1,12,0.7669439000001148,['n'],1,right,none,-99,-99,0.5,0,none,39,19,Man,Right,
1,1,12,0.8514530000002196,['c'],0,right,none,-99,-99,0.5,0,none,39,19,Man,Right,
2,1,12,0.4838282999999137,['n'],0,left,none,-99,-99,0.5,0,none,39,19,Man,Right,
3,1,12,0.7662892999996984,['n'],1,right,none,-99,-99,0.5,0,none,39,19,Man,Right,
4,1,12,0.5009799999997995,['n'],1,right,none,-99,-99,0.5,0,none,39,19,Man,Right,
5,1,12,0.4000894000000699,['c'],1,left,none,-99,-99,0.5,0,none,39,19,Man,Right,
6,1,12,0.4814203000000816,['n'],1,right,none,-99,-99,0.5,0,none,39,19,Man,Right,
7,1,12,0.6006239999996978,['n'],1,right,none,-99,-99,0.5,0,none,39,19,Man,Right,
8,1,12,0.6337788000000728,['c'],1,left,none,-99,-99,0.5,0,none,39,19,Man,Right,
9,1,12,0.4829617000000326,['n'],1,right,none,-99,-99,0.5,0,none,39,19,Man,Right,
10,1,12,0.5837635000002592,['n'],1,right,none,-99,-99,0.5,0,none,39,19,Man,Right,
11,1,12,0.5334603999999672,['c'],1,left,none,-99,-99,0.5,0,none,39,19,Man,Right,
12,1,12,0.5988212000002022,['c'],1,left,none,-99,-99,0.5,0,none,39,19,Man,Right,
13,1,12,0.8655185000002348,['c'],1,left,none,-99,-99,0.5,0,none,39,19,Man,Right,
14,1,12,1.4331812000000355,['n'],1,right,none,-99,-99,0.5,0,none,39,19,Man,Right,
15,1,12,0.6002403000002232,['c'],1,left,none,-99,-99,0.5,0,none,39,19,Man,Right,
16,1,12,0.534106999999949,['c'],1,left,none,-99,-99,0.5,0,none,39,19,Man,Right,
17,1,12,0.5659790999998222,['n'],1,right,none,-99,-99,0.5,0,none,39,19,Man,Right,
18,1,12,0.6992654000000584,['c'],1,left,none,-99,-99,0.5,0,none,39,19,Man,Right,
19,1,12,1.0165768000001663,['c'],0,right,none,-99,-99,0.5,0,none,39,19,Man,Right,
20,1,12,0.7334616000002825,['c'],1,left,none,-99,-99,0.5,0,none,39,19,Man,Right,
21,1,12,0.6499115000001439,['n'],1,right,none,-99,-99,0.5,0,none,39,19,Man,Right,
22,1,12,0.5329614000002039,['c'],1,left,none,-99,-99,0.5,0,none,39,19,Man,Right,
23,1,12,0.6001596999999492,['c'],1,left,none,-99,-99,0.5,0,none,39,19,Man,Right,
0,2,1,0.7343516000000818,['n'],1,right,none,-99,-99,0.4,0,none,39,19,Man,Right,
1,2,1,1.1182160999996995,['c'],1,left,none,-99,-99,0.4,0,none,39,19,Man,Right,
2,2,1,0.7327470000000176,['n'],1,right,none,-99,-99,0.4,0,none,39,19,Man,Right,
3,2,1,0.46650940000017727,['c'],1,left,none,-99,-99,0.2,0,none,39,19,Man,Right,
4,2,1,0.48278350000009596,['n'],0,left,none,-99,-99,0.1,0,none,39,19,Man,Right,
5,2,1,0.816781600000013,['c'],0,right,none,-99,-99,0.1,0,none,39,19,Man,Right,
6,2,1,0.7670282000003681,['c'],1,left,none,-99,-99,0.4,0,none,39,19,Man,Right,
7,2,1,0.4835606999999982,['n'],1,right,none,-99,-99,0.2,0,none,39,19,Man,Right,
8,2,1,0.8167963999999301,['c'],1,left,none,-99,-99,0.4,0,none,39,19,Man,Right,
9,2,1,0.7834275000000162,['n'],1,right,none,-99,-99,0.1,0,none,39,19,Man,Right,
10,2,1,0.701681600000029,['n'],1,right,none,-99,-99,0.2,0,none,39,19,Man,Right,
11,2,1,0.7005182000002605,['n'],1,right,none,-99,-99,0.1,0,none,39,19,Man,Right,
12,2,1,0.7677395999999135,['n'],0,left,none,-99,-99,0.1,0,none,39,19,Man,Right,
13,2,1,0.8020717999997942,['n'],1,right,none,-99,-99,0.4,0,none,39,19,Man,Right,
14,2,1,0.6162537999998676,['c'],1,left,none,-99,-99,0.1,0,none,39,19,Man,Right,
15,2,1,0.5824512999997751,['n'],1,right,none,-99,-99,0.4,0,none,39,19,Man,Right,
16,2,1,0.7510925000001407,['n'],1,right,none,-99,-99,0.2,0,none,39,19,Man,Right,
17,2,1,0.7342029999999795,['c'],1,left,none,-99,-99,0.1,0,none,39,19,Man,Right,
18,2,1,0.4664594999999281,['n'],1,right,none,-99,-99,0.4,0,none,39,19,Man,Right,
19,2,1,0.6998681000000033,['n'],0,left,none,-99,-99,0.1,0,none,39,19,Man,Right,
20,2,1,0.6343468999998549,['n'],0,left,none,-99,-99,0.2,0,none,39,19,Man,Right,
21,2,1,0.5831551000001127,['c'],1,left,none,-99,-99,0.2,0,none,39,19,Man,Right,
22,2,1,0.8179279000000861,['n'],1,right,none,-99,-99,0.2,0,none,39,19,Man,Right,
23,2,1,0.9336720000001151,['n'],0,left,none,-99,-99,0.2,0,none,39,19,Man,Right,
0,3,1,0.683050699999967,['n'],0,left,['8'],4,1.018952100000206,0.1,0,none,39,19,Man,Right,
1,3,1,0.633796699999948,['n'],1,right,['9'],5,0.9521656000001713,0.4,0,none,39,19,Man,Right,
2,3,1,1.4661793999998736,['c'],1,left,['9'],5,1.0843361000002005,0.4,0,none,39,19,Man,Right,
3,3,1,0.7660233999999946,['n'],1,right,['9'],5,0.45224210000014864,0.4,0,none,39,19,Man,Right,
4,3,1,1.217069900000297,['c'],1,left,['8'],4,0.46812369999997827,0.4,0,none,39,19,Man,Right,
5,3,1,0.750591699999859,['n'],1,right,['8'],4,0.5348249000003307,0.2,0,none,39,19,Man,Right,
6,3,1,1.2336629999999786,['n'],0,left,['8'],4,0.3514279999999417,0.2,0,none,39,19,Man,Right,
7,3,1,0.8013238999997156,['n'],0,left,['8'],4,0.5181963999998516,0.2,0,none,39,19,Man,Right,
8,3,1,0.750495299999784,['n'],1,right,['8'],4,0.5179587000002357,0.4,0,none,39,19,Man,Right,
9,3,1,1.5322206000000733,['c'],0,right,['3'],3,1.202050099999724,0.2,0,none,39,19,Man,Right,
10,3,1,0.5836218999997982,['n'],1,right,['8'],4,0.5349582999997438,0.2,0,none,39,19,Man,Right,
11,3,1,1.6500931000000492,['n'],0,left,['8'],4,0.6840763999998671,0.1,0,none,39,19,Man,Right,
12,3,1,0.8835220000000845,['n'],0,left,['9'],5,1.06811370000014,0.2,0,none,39,19,Man,Right,
13,3,1,0.7844967000000906,['n'],1,right,['9'],5,0.5664664000000812,0.2,0,none,39,19,Man,Right,
14,3,1,1.234918899999684,['c'],1,left,['9'],5,0.5182314000003316,0.1,0,none,39,19,Man,Right,
15,3,1,1.1489615000000413,['n'],1,right,['8'],4,0.3857975000000806,0.1,0,none,39,19,Man,Right,
16,3,1,0.916731499999969,['n'],1,right,['8'],4,0.4178263999997398,0.4,0,none,39,19,Man,Right,
17,3,1,0.9508654000001115,['n'],1,right,['9'],5,0.501403400000072,0.2,0,none,39,19,Man,Right,
18,3,1,1.0499767999999676,['n'],1,right,['9'],5,0.5833834000000024,0.4,0,none,39,19,Man,Right,
19,3,1,1.2498061999999663,['c'],1,left,['0'],6,0.617069100000208,0.1,0,none,39,19,Man,Right,
20,3,1,1.1820232000000033,['c'],1,left,['8'],4,0.4184995999999046,0.4,0,none,39,19,Man,Right,
21,3,1,1.5979607999997825,['c'],0,right,['8'],4,0.434129099999609,0.1,0,none,39,19,Man,Right,
22,3,1,0.9000888999999006,['n'],0,left,['9'],5,0.5008464000002277,0.1,0,none,39,19,Man,Right,
23,3,1,0.817073100000016,['n'],0,left,['9'],5,0.5509173000000374,0.1,0,none,39,19,Man,Right,
0,4,1,2.9344246999999086,['n'],0,left,['8'],4,1.2846786000000066,0.4,0,AccFast,39,19,Man,Right,
1,4,1,1.1833231000000524,['c'],0,right,['8'],4,0.33439769999995406,0.1,0,AccFast,39,19,Man,Right,
2,4,1,1.3660242999999355,['n'],0,left,['8'],4,1.0182020000002012,0.2,0,AccFast,39,19,Man,Right,
3,4,1,1.4488455000000613,['c'],1,left,['8'],4,0.5026158000000578,0.4,0,AccFast,39,19,Man,Right,
4,4,1,1.3166077999999288,['n'],0,left,['9'],5,0.7335938000001079,0.1,0,AccFast,39,19,Man,Right,
5,4,1,1.7346494000003077,['c'],1,left,['8'],4,0.4014591999998629,0.1,0,AccFast,39,19,Man,Right,
6,4,1,1.2331811999997626,['n'],0,left,['9'],5,0.9180391999998392,0.2,0,AccFast,39,19,Man,Right,
7,4,1,2.216200899999876,['c'],1,left,['9'],5,0.8506698999999571,0.2,0,AccFast,39,19,Man,Right,
8,4,1,1.26786680000032,['n'],0,left,['9'],5,0.3682192999999643,0.1,0,AccFast,39,19,Man,Right,
9,4,1,1.0006671999999526,['n'],1,right,['9'],5,0.30065579999973124,0.2,0,AccFast,39,19,Man,Right,
10,4,1,1.2485206999999718,['n'],1,right,['9'],5,0.4515424000001076,0.4,0,AccFast,39,19,Man,Right,
11,4,1,3.1503599000002396,['n'],1,right,['8'],4,0.6183019999998578,0.1,0,AccFast,39,19,Man,Right,
12,4,1,0.9671658000002026,['n'],1,right,['8'],4,0.3175944999998137,0.4,0,AccFast,39,19,Man,Right,
13,4,1,0.7504405999998198,['n'],1,right,['8'],4,0.2832029999999577,0.2,0,AccFast,39,19,Man,Right,
14,4,1,0.8667114999998375,['c'],1,left,['9'],5,0.6850500999998985,0.2,0,AccFast,39,19,Man,Right,
15,4,1,0.950016400000095,['n'],1,right,['9'],5,0.4339170999996895,0.4,0,AccFast,39,19,Man,Right,
16,4,1,1.367311399999835,['c'],0,right,['9'],5,0.5846342999998342,0.1,0,AccFast,39,19,Man,Right,
17,4,1,2.4675578999999743,['n'],1,right,['8'],4,0.5354608000002372,0.2,0,AccFast,39,19,Man,Right,
18,4,1,1.2168337999996766,['n'],1,right,['8'],4,0.3335256999998819,0.2,0,AccFast,39,19,Man,Right,
19,4,1,1.2493085000000974,['c'],1,left,['8'],4,0.5682647000003271,0.2,0,AccFast,39,19,Man,Right,
20,4,1,1.0651785999998538,['c'],0,right,['9'],5,0.26758879999988494,0.1,0,AccFast,39,19,Man,Right,
21,4,1,0.5495621000000028,['n'],1,right,['9'],5,0.4508072999997239,0.2,0,AccFast,39,19,Man,Right,
22,4,1,0.9998892000003252,['n'],1,right,['9'],5,0.33422749999999724,0.2,0,AccFast,39,19,Man,Right,
23,4,1,0.9337012000000868,['n'],1,right,['9'],5,0.3502563000001828,0.4,0,AccFast,39,19,Man,Right,
24,4,1,1.6832485999998426,['c'],0,right,['9'],5,0.5342617000001155,0.1,0,AccFast,39,19,Man,Right,
25,4,1,1.2329070000000684,['c'],1,left,['9'],5,0.3176744999996117,0.4,0,AccFast,39,19,Man,Right,
26,4,1,1.8657803000000968,['c'],1,left,['8'],4,0.567664700000023,0.4,0,AccFast,39,19,Man,Right,
27,4,1,1.166623100000379,['c'],1,left,['8'],4,0.38419199999998455,0.2,0,AccFast,39,19,Man,Right,
28,4,1,0.4666786000002503,['n'],1,right,['9'],5,0.46752409999999145,0.4,0,AccFast,39,19,Man,Right,
29,4,1,1.2833361000002697,['c'],0,right,['8'],4,0.7007978000001458,0.1,0,AccFast,39,19,Man,Right,
30,4,1,0.850215400000252,['c'],1,left,['8'],4,0.3007974000001923,0.4,0,AccFast,39,19,Man,Right,
31,4,1,0.5837265000000116,['n'],1,right,['9'],5,0.3842761999999311,0.1,0,AccFast,39,19,Man,Right,
32,4,1,2.816262100000131,['n'],1,right,['9'],5,0.46760150000000067,0.1,0,AccFast,39,19,Man,Right,
33,4,1,0.9993779999999788,['c'],0,right,['9'],5,0.4008807000000161,0.1,0,AccFast,39,19,Man,Right,
34,4,1,2.182894099999885,['c'],1,left,['9'],5,0.28472770000007586,0.4,0,AccFast,39,19,Man,Right,
35,4,1,1.9824515000000247,['c'],0,right,['8'],4,0.5008084999999483,0.4,0,AccFast,39,19,Man,Right,
36,4,1,0.949806599999647,['c'],0,right,['8'],4,0.3343830999997408,0.1,0,AccFast,39,19,Man,Right,
37,4,1,1.6990702000002784,['n'],1,right,['8'],4,0.30100709999987885,0.1,0,AccFast,39,19,Man,Right,
38,4,1,1.116761800000404,['c'],1,left,['9'],5,0.35080010000001494,0.1,0,AccFast,39,19,Man,Right,
39,4,1,0.6667096999999558,['n'],1,right,['0'],6,0.5175700999998298,0.4,0,AccFast,39,19,Man,Right,
40,4,1,1.2995050999998057,['c'],1,left,['9'],5,0.3842290000002322,0.2,0,AccFast,39,19,Man,Right,
41,4,1,1.3499779999997372,['c'],1,left,['8'],4,0.4174730999998246,0.1,0,AccFast,39,19,Man,Right,
42,4,1,1.466945399999986,['c'],1,left,['9'],5,0.450840099999823,0.4,0,AccFast,39,19,Man,Right,
43,4,1,1.24990200000002,['c'],1,left,['9'],5,0.41745270000001256,0.2,0,AccFast,39,19,Man,Right,
44,4,1,2.6683775999999853,['c'],1,left,['8'],4,0.5180113000001256,0.4,0,AccFast,39,19,Man,Right,
45,4,1,1.2002721000003476,['c'],1,left,['9'],5,0.36778080000021873,0.4,0,AccFast,39,19,Man,Right,
46,4,1,4.116564200000084,['n'],0,left,['8'],4,0.5333200999998553,0.2,0,AccFast,39,19,Man,Right,
47,4,1,0.8834482000002026,['n'],1,right,['9'],5,0.38400419999970836,0.2,0,AccFast,39,19,Man,Right,
48,4,1,0.8346090000000004,['c'],1,left,['9'],5,0.3680021999998644,0.4,0,AccFast,39,19,Man,Right,
49,4,1,0.9158910999999534,['n'],1,right,['0'],6,0.4841425999998137,0.4,0,AccFast,39,19,Man,Right,
50,4,1,1.2671628000002784,['n'],1,right,['9'],5,0.5003366000000824,0.4,0,AccFast,39,19,Man,Right,
51,4,1,1.000930100000005,['c'],0,right,['9'],5,0.41799270000001343,0.1,0,AccFast,39,19,Man,Right,
52,4,1,1.115567600000304,['c'],1,left,['9'],5,0.3839688000002752,0.1,0,AccFast,39,19,Man,Right,
53,4,1,1.251276500000131,['c'],1,left,['8'],4,0.36672679999992397,0.1,0,AccFast,39,19,Man,Right,
54,4,1,1.0156584000001203,['c'],1,left,['8'],4,0.3678737000000183,0.2,0,AccFast,39,19,Man,Right,
55,4,1,0.9341816000001018,['n'],0,left,['9'],5,0.666664800000035,0.2,0,AccFast,39,19,Man,Right,
56,4,1,1.433233900000232,['n'],1,right,['9'],5,0.4020571999999447,0.2,0,AccFast,39,19,Man,Right,
57,4,1,0.7667619999997441,['n'],1,right,['0'],6,0.46675690000029135,0.4,0,AccFast,39,19,Man,Right,
58,4,1,1.3839041999999608,['c'],1,left,['8'],4,0.3515778000000864,0.1,0,AccFast,39,19,Man,Right,
59,4,1,1.631485800000064,['c'],1,left,['8'],4,0.31716780000033395,0.2,0,AccFast,39,19,Man,Right,
0,5,1,1.0495835000001534,['n'],1,right,['9'],5,1.5672273000000132,0.1,0,AccAcc,39,19,Man,Right,
1,5,1,1.1169614999998885,['n'],1,right,['9'],5,1.035527799999727,0.4,0,AccAcc,39,19,Man,Right,
2,5,1,1.9332107999998698,['c'],1,left,['8'],4,0.8676550000000134,0.1,0,AccAcc,39,19,Man,Right,
3,5,1,1.1331992999998874,['n'],0,left,['9'],5,0.8025991999998041,0.1,0,AccAcc,39,19,Man,Right,
4,5,1,1.5666031999999177,['n'],0,left,['8'],4,0.5002414000000499,0.4,0,AccAcc,39,19,Man,Right,
5,5,1,1.4670537000001787,['c'],1,left,['8'],4,0.9173723999997492,0.1,0,AccAcc,39,19,Man,Right,
6,5,1,1.8496893000001364,['c'],0,right,['2'],2,0.4510635000001457,0.2,0,AccAcc,39,19,Man,Right,
7,5,1,1.7832995000003393,['n'],0,left,['9'],5,0.3342923999998675,0.2,0,AccAcc,39,19,Man,Right,
8,5,1,2.1326766000001953,['c'],1,left,['8'],4,0.917421000000104,0.4,0,AccAcc,39,19,Man,Right,
9,5,1,1.1496634999998605,['n'],0,left,['9'],5,0.500841600000058,0.2,0,AccAcc,39,19,Man,Right,
10,5,1,0.8499658999999156,['n'],0,left,['9'],5,0.400617499999953,0.1,0,AccAcc,39,19,Man,Right,
11,5,1,1.116385100000116,['c'],0,right,['8'],4,0.7842657999999574,0.1,0,AccAcc,39,19,Man,Right,
12,5,1,0.6667700999996669,['n'],1,right,['9'],5,0.3520281999999497,0.1,0,AccAcc,39,19,Man,Right,
13,5,1,0.9998755000001438,['n'],0,left,['8'],4,0.36757470000020476,0.1,0,AccAcc,39,19,Man,Right,
14,5,1,1.334902399999919,['n'],0,left,['9'],5,0.3661796000001232,0.4,0,AccAcc,39,19,Man,Right,
15,5,1,1.2165838000000804,['c'],1,left,['9'],5,0.4005768000001808,0.4,0,AccAcc,39,19,Man,Right,
16,5,1,1.9499418000000333,['c'],1,left,['9'],5,1.5838002000000415,0.2,0,AccAcc,39,19,Man,Right,
17,5,1,1.2838785999997526,['c'],1,left,['9'],5,1.017590499999642,0.2,0,AccAcc,39,19,Man,Right,
18,5,1,1.3159099999998034,['n'],1,right,['8'],4,0.7508929000000535,0.4,0,AccAcc,39,19,Man,Right,
19,5,1,1.833363400000053,['c'],1,left,['8'],4,1.9843000999999276,0.1,0,AccAcc,39,19,Man,Right,
20,5,1,1.133330499999829,['c'],1,left,['9'],5,0.7686489000002439,0.4,0,AccAcc,39,19,Man,Right,
21,5,1,1.3340269999998782,['c'],0,right,['9'],5,0.45107499999994616,0.2,0,AccAcc,39,19,Man,Right,
22,5,1,4.8994682000002285,['n'],1,right,['9'],5,0.700759399999697,0.1,0,AccAcc,39,19,Man,Right,
23,5,1,2.965941500000099,['c'],1,left,['9'],5,0.88455759999988,0.1,0,AccAcc,39,19,Man,Right,
24,5,1,1.2673408999999083,['c'],0,right,['9'],5,1.3179621999997835,0.4,0,AccAcc,39,19,Man,Right,
25,5,1,4.281659799999943,['n'],0,left,['8'],4,1.0685293999999885,0.4,0,AccAcc,39,19,Man,Right,
26,5,1,1.2156612999997378,['c'],1,left,['9'],5,0.7348019999999451,0.4,0,AccAcc,39,19,Man,Right,
27,5,1,1.0680576999998266,['c'],1,left,['8'],4,0.5010812000000442,0.2,0,AccAcc,39,19,Man,Right,
28,5,1,0.8671468000002278,['n'],1,right,['9'],5,0.4851800000001276,0.4,0,AccAcc,39,19,Man,Right,
29,5,1,1.0339200000003075,['c'],1,left,['9'],5,0.9351526999998896,0.4,0,AccAcc,39,19,Man,Right,
30,5,1,1.7668721000000005,['c'],0,right,['8'],4,0.5352949000002809,0.1,0,AccAcc,39,19,Man,Right,
31,5,1,1.7160303000000567,['c'],1,left,['9'],5,0.418873000000076,0.2,0,AccAcc,39,19,Man,Right,
32,5,1,1.3333723000000646,['n'],1,right,['9'],5,0.7514548999997714,0.2,0,AccAcc,39,19,Man,Right,
33,5,1,1.0843393000000106,['n'],1,right,['0'],6,0.46706110000013723,0.2,0,AccAcc,39,19,Man,Right,
34,5,1,2.6486425000002782,['c'],1,left,['8'],4,0.6853292000000692,0.2,0,AccAcc,39,19,Man,Right,
35,5,1,1.0832158999996864,['n'],1,right,['0'],6,0.5689904999999271,0.4,0,AccAcc,39,19,Man,Right,
36,5,1,1.0670239999999467,['c'],0,right,['8'],4,0.6330554999999549,0.1,0,AccAcc,39,19,Man,Right,
37,5,1,1.6188326999999845,['c'],1,left,['8'],4,0.7007451999998011,0.2,0,AccAcc,39,19,Man,Right,
38,5,1,1.0006600000001526,['c'],1,left,['9'],5,1.0849018999997497,0.4,0,AccAcc,39,19,Man,Right,
39,5,1,1.1176726000003327,['n'],0,left,['9'],5,0.7334461999998894,0.2,0,AccAcc,39,19,Man,Right,
40,5,1,1.584247299999788,['c'],0,right,['8'],4,0.8013749000001553,0.4,0,AccAcc,39,19,Man,Right,
41,5,1,1.0658699000000524,['c'],0,right,['9'],5,0.5855470999999852,0.2,0,AccAcc,39,19,Man,Right,
42,5,1,1.2503034999999727,['c'],1,left,['9'],5,0.751523499999621,0.1,0,AccAcc,39,19,Man,Right,
43,5,1,1.4493693999997959,['c'],0,right,['9'],5,0.602016299999832,0.1,0,AccAcc,39,19,Man,Right,
44,5,1,0.8003014999999323,['n'],1,right,['0'],6,0.7178863999997702,0.2,0,AccAcc,39,19,Man,Right,
45,5,1,0.9993223000001308,['c'],0,right,['9'],5,0.6357179000001452,0.2,0,AccAcc,39,19,Man,Right,
46,5,1,0.8006543999999849,['n'],1,right,['9'],5,0.5521623999998155,0.2,0,AccAcc,39,19,Man,Right,
47,5,1,1.1168411000003289,['n'],1,right,['9'],5,0.4183338999996522,0.2,0,AccAcc,39,19,Man,Right,
48,5,1,1.4506612999998652,['c'],0,right,['8'],4,0.5838071000002856,0.1,0,AccAcc,39,19,Man,Right,
49,5,1,1.3333182999999735,['c'],1,left,['9'],5,0.5012430000001586,0.4,0,AccAcc,39,19,Man,Right,
50,5,1,0.5840334999998049,['n'],1,right,['9'],5,0.41624799999999595,0.4,0,AccAcc,39,19,Man,Right,
51,5,1,1.8175904999998238,['n'],1,right,['9'],5,1.0348834000001261,0.4,0,AccAcc,39,19,Man,Right,
52,5,1,1.0986520000001292,['n'],1,right,['9'],5,0.7175850999997238,0.2,0,AccAcc,39,19,Man,Right,
53,5,1,1.4018153000001803,['n'],1,right,['9'],5,0.43464610000000903,0.4,0,AccAcc,39,19,Man,Right,
54,5,1,0.8987732999999025,['c'],1,left,['9'],5,0.6687152999998034,0.2,0,AccAcc,39,19,Man,Right,
55,5,1,1.649260300000151,['n'],0,left,['8'],4,0.9682745999998588,0.1,0,AccAcc,39,19,Man,Right,
56,5,1,5.015404900000249,x,-99,right,none,-99,-99,0.1,1,AccAcc,39,19,Man,Right,
57,5,1,1.08380840000018,['n'],0,left,['8'],4,0.7680479999999079,0.1,0,AccAcc,39,19,Man,Right,
58,5,1,1.0163289000001896,['n'],1,right,['9'],5,0.4679894000000786,0.4,0,AccAcc,39,19,Man,Right,
59,5,1,1.1988685999999689,['c'],0,right,['8'],4,0.6850905999999668,0.1,0,AccAcc,39,19,Man,Right,
0,6,1,0.5180402999999387,['n'],1,right,['8'],4,0.8494527000002563,0.2,0,FastAcc,39,19,Man,Right,
1,6,1,0.6172683999998299,['c'],1,left,['9'],5,0.966472099999919,0.2,0,FastAcc,39,19,Man,Right,
2,6,1,0.5670211000001473,['c'],1,left,['8'],4,0.88543750000008,0.4,0,FastAcc,39,19,Man,Right,
3,6,1,0.46846289999984947,['n'],0,left,['3'],3,1.4511916000001293,0.1,0,FastAcc,39,19,Man,Right,
4,6,1,1.068338600000061,['c'],1,left,['8'],4,0.567504199999803,0.1,0,FastAcc,39,19,Man,Right,
5,6,1,0.4325613000000885,['n'],1,right,['9'],5,0.585213300000305,0.2,0,FastAcc,39,19,Man,Right,
6,6,1,0.7668644999998833,['c'],1,left,['9'],5,0.8345672000000377,0.2,0,FastAcc,39,19,Man,Right,
7,6,1,0.8660065999997641,['c'],1,left,['8'],4,0.6186916999999994,0.2,0,FastAcc,39,19,Man,Right,
8,6,1,0.7502755999998953,['n'],1,right,['9'],5,0.918380199999774,0.2,0,FastAcc,39,19,Man,Right,
9,6,1,0.6004693999998381,['c'],0,right,['8'],4,1.3330899000002319,0.1,0,FastAcc,39,19,Man,Right,
10,6,1,0.45106540000006135,['n'],0,left,['3'],3,1.1853472000002512,0.4,0,FastAcc,39,19,Man,Right,
11,6,1,1.5156890999996904,['c'],1,left,['8'],4,1.166831099999854,0.4,0,FastAcc,39,19,Man,Right,
12,6,1,0.4841326000000663,['n'],0,left,['3'],3,1.3010756000003312,0.1,0,FastAcc,39,19,Man,Right,
13,6,1,0.665743300000031,['c'],1,left,['9'],5,0.8178731999996671,0.4,0,FastAcc,39,19,Man,Right,
14,6,1,0.8002513999999792,['c'],1,left,['8'],4,0.9680031999996572,0.2,0,FastAcc,39,19,Man,Right,
15,6,1,0.48383789999979854,['n'],1,right,['9'],5,1.067728100000295,0.1,0,FastAcc,39,19,Man,Right,
16,6,1,0.832298499999979,['n'],1,right,['3'],3,1.0017866000002869,0.2,0,FastAcc,39,19,Man,Right,
17,6,1,0.5655225000000428,['n'],1,right,['9'],5,0.6677362000000358,0.4,0,FastAcc,39,19,Man,Right,
18,6,1,0.6505858000000444,['n'],1,right,['9'],5,1.3010196000000178,0.4,0,FastAcc,39,19,Man,Right,
19,6,1,0.6508997000000818,['c'],0,right,['9'],5,1.1012241000003087,0.2,0,FastAcc,39,19,Man,Right,
20,6,1,0.4509655000001658,['n'],1,right,['8'],4,0.8682011999999304,0.4,0,FastAcc,39,19,Man,Right,
21,6,1,0.6486226000001807,['n'],1,right,['8'],4,0.8685252999998738,0.1,0,FastAcc,39,19,Man,Right,
22,6,1,0.7670886999999311,['n'],0,left,['9'],5,1.016841999999997,0.4,0,FastAcc,39,19,Man,Right,
23,6,1,0.6844166999999288,['c'],1,left,['9'],5,0.9684281000004376,0.2,0,FastAcc,39,19,Man,Right,
24,6,1,0.6660318999997799,['c'],0,right,['9'],5,1.685576299999866,0.1,0,FastAcc,39,19,Man,Right,
25,6,1,0.4158308000000943,['n'],0,left,['3'],3,1.117864499999996,0.4,0,FastAcc,39,19,Man,Right,
26,6,1,0.5161077999996451,['c'],1,left,['8'],4,1.4020363999998153,0.4,0,FastAcc,39,19,Man,Right,
27,6,1,0.44906619999983377,['n'],1,right,['9'],5,1.0845767999999225,0.1,0,FastAcc,39,19,Man,Right,
28,6,1,0.549301000000014,['c'],1,left,['8'],4,1.1353848999997354,0.1,0,FastAcc,39,19,Man,Right,
29,6,1,0.6322408999994877,['c'],0,right,['9'],5,1.5172859999993307,0.2,0,FastAcc,39,19,Man,Right,
30,6,1,0.5843232999995962,['n'],1,right,['9'],5,0.9168227999998635,0.4,0,FastAcc,39,19,Man,Right,
31,6,1,0.5002395000001343,['c'],1,left,['8'],4,1.2002019999999902,0.2,0,FastAcc,39,19,Man,Right,
32,6,1,0.6005817000004754,['c'],1,left,['8'],4,0.9003274000006058,0.1,0,FastAcc,39,19,Man,Right,
33,6,1,0.7167974000003596,['n'],1,right,['9'],5,0.7333509999998569,0.4,0,FastAcc,39,19,Man,Right,
34,6,1,0.5501572000002852,['c'],0,right,['9'],5,1.0348197999992408,0.2,0,FastAcc,39,19,Man,Right,
35,6,1,0.8506406999995306,['n'],1,right,['8'],4,0.9180652999993981,0.4,0,FastAcc,39,19,Man,Right,
36,6,1,0.733223199999884,['c'],1,left,['9'],5,1.566501799999969,0.4,0,FastAcc,39,19,Man,Right,
37,6,1,0.38408520000029966,['n'],1,right,['8'],4,1.58352879999984,0.4,0,FastAcc,39,19,Man,Right,
38,6,1,0.5332233999997698,['c'],1,left,['8'],4,1.9341205999999147,0.1,0,FastAcc,39,19,Man,Right,
39,6,1,0.4336049000003186,['n'],1,right,['9'],5,1.1177209999996194,0.2,0,FastAcc,39,19,Man,Right,
40,6,1,0.43362920000072336,['c'],0,right,['8'],4,1.1501602999996976,0.2,0,FastAcc,39,19,Man,Right,
41,6,1,0.817884399999457,['c'],1,left,['9'],5,0.9991863999994166,0.4,0,FastAcc,39,19,Man,Right,
42,6,1,0.5182776000001468,['n'],1,right,['8'],4,1.4007982000002812,0.1,0,FastAcc,39,19,Man,Right,
43,6,1,1.0161353000003146,['c'],1,left,['8'],4,1.117847200000142,0.1,0,FastAcc,39,19,Man,Right,
44,6,1,1.216921199999888,['c'],1,left,['3'],3,1.0835776000003534,0.4,0,FastAcc,39,19,Man,Right,
45,6,1,0.6343731999995725,['n'],1,right,['8'],4,0.6348359000003256,0.4,0,FastAcc,39,19,Man,Right,
46,6,1,0.5493427000001248,['c'],1,left,['8'],4,0.7843676000002233,0.1,0,FastAcc,39,19,Man,Right,
47,6,1,0.7492167999998856,['c'],1,left,['8'],4,0.6174877000003107,0.1,0,FastAcc,39,19,Man,Right,
48,6,1,0.7502113000000463,['c'],1,left,['9'],5,0.7184992000002239,0.2,0,FastAcc,39,19,Man,Right,
49,6,1,0.5167882000005193,['n'],1,right,['9'],5,0.8339625999997224,0.2,0,FastAcc,39,19,Man,Right,
50,6,1,0.5319525999993857,['c'],0,right,['9'],5,0.7514835000001767,0.1,0,FastAcc,39,19,Man,Right,
51,6,1,0.6006281999998464,['n'],1,right,['0'],6,1.0335151999997834,0.4,0,FastAcc,39,19,Man,Right,
52,6,1,0.4006403000003047,['n'],0,left,['8'],4,1.067246999999952,0.4,0,FastAcc,39,19,Man,Right,
53,6,1,0.6994230999998763,['c'],1,left,['9'],5,0.7678949000001012,0.1,0,FastAcc,39,19,Man,Right,
54,6,1,0.6670328999998674,['n'],1,right,['9'],5,0.7187969000005978,0.2,0,FastAcc,39,19,Man,Right,
55,6,1,0.7328864000000976,['n'],1,right,['9'],5,0.7005653000005623,0.2,0,FastAcc,39,19,Man,Right,
56,6,1,0.38351760000023205,['c'],1,left,['8'],4,0.8686835000007704,0.1,0,FastAcc,39,19,Man,Right,
57,6,1,1.0341754000000947,['n'],0,left,['9'],5,0.5845626999998785,0.1,0,FastAcc,39,19,Man,Right,
58,6,1,0.5161807999993471,['c'],0,right,['9'],5,1.0504381000000649,0.1,0,FastAcc,39,19,Man,Right,
59,6,1,0.550060300000041,['n'],1,right,['9'],5,0.5352665000000343,0.2,0,FastAcc,39,19,Man,Right,
0,7,1,0.7833768000000418,['c'],1,left,['8'],4,0.46762089999992895,0.1,0,FastFast,39,19,Man,Right,
1,7,1,0.5990928999999596,['n'],0,left,['8'],4,0.3669296999996732,0.1,0,FastFast,39,19,Man,Right,
2,7,1,0.49988329999996495,['n'],1,right,['9'],5,0.38529839999955584,0.2,0,FastFast,39,19,Man,Right,
3,7,1,0.4330035000002681,['n'],1,right,['8'],4,0.7015803000003871,0.2,0,FastFast,39,19,Man,Right,
4,7,1,0.48243769999953656,['n'],0,left,['9'],5,0.41793649999999616,0.2,0,FastFast,39,19,Man,Right,
5,7,1,0.5010872000002564,['c'],0,right,['8'],4,0.8003681999998662,0.4,0,FastFast,39,19,Man,Right,
6,7,1,0.6665227000003142,['n'],0,left,['3'],3,0.8182046000001719,0.4,0,FastFast,39,19,Man,Right,
7,7,1,0.734664900000098,['n'],0,left,['8'],4,0.38475479999942763,0.4,0,FastFast,39,19,Man,Right,
8,7,1,0.6675376000002871,['n'],0,left,['8'],4,0.3334598999999798,0.1,0,FastFast,39,19,Man,Right,
9,7,1,0.6008189000003767,['n'],1,right,['8'],4,0.3335931999999957,0.4,0,FastFast,39,19,Man,Right,
10,7,1,0.7014124000006632,['c'],0,right,['8'],4,0.4351802000001044,0.4,0,FastFast,39,19,Man,Right,
11,7,1,0.5331249000000753,['n'],1,right,['9'],5,0.4188911999999618,0.2,0,FastFast,39,19,Man,Right,
12,7,1,0.849612299999535,['n'],1,right,['9'],5,0.38455010000052425,0.4,0,FastFast,39,19,Man,Right,
13,7,1,0.5500726999998733,['n'],1,right,['9'],5,0.48501870000018243,0.4,0,FastFast,39,19,Man,Right,
14,7,1,0.7332632000006924,['n'],0,left,['8'],4,0.40194960000007995,0.1,0,FastFast,39,19,Man,Right,
15,7,1,0.6336955000006128,['c'],0,right,['8'],4,0.4513876999999411,0.1,0,FastFast,39,19,Man,Right,
16,7,1,0.615822599999774,['n'],0,left,['8'],4,0.6995933000007426,0.2,0,FastFast,39,19,Man,Right,
17,7,1,0.5992624000000433,['n'],0,left,['8'],4,0.5343235000000277,0.2,0,FastFast,39,19,Man,Right,
18,7,1,0.6522659000002022,['c'],0,right,['3'],3,1.001135499999691,0.2,0,FastFast,39,19,Man,Right,
19,7,1,1.316967200000363,['n'],1,right,['9'],5,0.4178597999998601,0.1,0,FastFast,39,19,Man,Right,
20,7,1,0.7991283999999723,['c'],1,left,['8'],4,0.6177206000002116,0.1,0,FastFast,39,19,Man,Right,
21,7,1,0.7521722000001319,['c'],1,left,['9'],5,0.4182421000004979,0.2,0,FastFast,39,19,Man,Right,
22,7,1,0.49879969999983587,['n'],1,right,['9'],5,0.4186724999999569,0.4,0,FastFast,39,19,Man,Right,
23,7,1,0.5334703999997146,['c'],1,left,['8'],4,0.4847541999997702,0.4,0,FastFast,39,19,Man,Right,
24,7,1,0.7674079000007623,['n'],0,left,['0'],6,0.6860032000004139,0.1,0,FastFast,39,19,Man,Right,
25,7,1,0.7172757999996975,['n'],1,right,['9'],5,0.6157751999999164,0.4,0,FastFast,39,19,Man,Right,
26,7,1,0.5170370999994702,['c'],0,right,['8'],4,0.6502934999998615,0.1,0,FastFast,39,19,Man,Right,
27,7,1,0.6673123000000487,['n'],0,left,['9'],5,0.43487310000000434,0.1,0,FastFast,39,19,Man,Right,
28,7,1,0.6003099999998085,['c'],1,left,['9'],5,0.4997680999995282,0.1,0,FastFast,39,19,Man,Right,
29,7,1,0.6009446999996726,['n'],0,left,['8'],4,0.7511351999992257,0.2,0,FastFast,39,19,Man,Right,
30,7,1,0.8652842000001328,['c'],1,left,['9'],5,0.4847181000004639,0.1,0,FastFast,39,19,Man,Right,
31,7,1,0.616993999999977,['n'],1,right,['9'],5,0.40029969999977766,0.1,0,FastFast,39,19,Man,Right,
32,7,1,0.7341978000004019,['c'],1,left,['0'],6,0.7678617999999915,0.1,0,FastFast,39,19,Man,Right,
33,7,1,0.7671877000002496,['c'],0,right,['8'],4,0.7346348000000944,0.2,0,FastFast,39,19,Man,Right,
34,7,1,0.6826725999999326,['n'],1,right,['8'],4,0.5342238000002908,0.4,0,FastFast,39,19,Man,Right,
35,7,1,0.7002418000001853,['n'],1,right,['9'],5,0.46791140000004816,0.2,0,FastFast,39,19,Man,Right,
36,7,1,0.7831122999996296,['c'],1,left,['9'],5,0.4001478000000134,0.1,0,FastFast,39,19,Man,Right,
37,7,1,0.6842982000007396,['n'],1,right,['9'],5,0.3172178000004351,0.4,0,FastFast,39,19,Man,Right,
38,7,1,0.48331580000012764,['c'],1,left,['8'],4,0.5516460999997435,0.2,0,FastFast,39,19,Man,Right,
39,7,1,0.7501476999996157,['c'],1,left,['9'],5,0.45183170000018436,0.4,0,FastFast,39,19,Man,Right,
40,7,1,1.10018989999935,['n'],0,left,['3'],3,0.5013910000006945,0.4,0,FastFast,39,19,Man,Right,
41,7,1,0.6010266000002957,['n'],0,left,['9'],5,0.5331716000000597,0.2,0,FastFast,39,19,Man,Right,
42,7,1,0.6662407999992865,['n'],1,right,['9'],5,0.41838300000017625,0.2,0,FastFast,39,19,Man,Right,
43,7,1,0.8001136000002589,['c'],0,right,['8'],4,0.4520793000001504,0.1,0,FastFast,39,19,Man,Right,
44,7,1,0.3678538000003755,['c'],0,right,['8'],4,0.566125600000305,0.2,0,FastFast,39,19,Man,Right,
45,7,1,0.48400690000016766,['n'],1,right,['8'],4,0.6327852999993411,0.1,0,FastFast,39,19,Man,Right,
46,7,1,0.7674623000002612,['n'],1,right,['9'],5,0.48381509999944683,0.1,0,FastFast,39,19,Man,Right,
47,7,1,0.650925300000381,['c'],1,left,['8'],4,0.4661404999997103,0.4,0,FastFast,39,19,Man,Right,
48,7,1,0.8019754000006287,['c'],1,left,['9'],5,0.4501594000003024,0.2,0,FastFast,39,19,Man,Right,
49,7,1,0.6677859000001263,['n'],1,right,['8'],4,0.6181674999997995,0.1,0,FastFast,39,19,Man,Right,
50,7,1,0.9816523000008601,['n'],1,right,['8'],4,0.46931929999936983,0.2,0,FastFast,39,19,Man,Right,
51,7,1,0.7489163999998709,['c'],1,left,['9'],5,0.8169659000004685,0.4,0,FastFast,39,19,Man,Right,
52,7,1,0.8181143000001612,['c'],0,right,['3'],3,0.7174702000002071,0.4,0,FastFast,39,19,Man,Right,
53,7,1,0.5828940999999759,['n'],1,right,['0'],6,0.6846403999998074,0.4,0,FastFast,39,19,Man,Right,
54,7,1,0.999504700000216,['n'],1,right,['8'],4,0.5685844999998153,0.4,0,FastFast,39,19,Man,Right,
55,7,1,0.49988029999985883,['c'],1,left,['9'],5,0.5356742000003578,0.2,0,FastFast,39,19,Man,Right,
56,7,1,0.5660054999998465,['n'],1,right,['8'],4,0.8508142000000589,0.2,0,FastFast,39,19,Man,Right,
57,7,1,0.5680234999999811,['n'],0,left,['9'],5,0.43447719999949186,0.1,0,FastFast,39,19,Man,Right,
58,7,1,0.7837304000004224,['c'],1,left,['9'],5,0.43552490000001853,0.4,0,FastFast,39,19,Man,Right,
59,7,1,1.0825838000000658,['c'],1,left,['8'],4,0.43554370000038034,0.2,0,FastFast,39,19,Man,Right,
0,8,1,2.5166165999999066,['n'],1,right,['9'],5,0.3350341999994271,0.1,0,AccFast,39,19,Man,Right,
1,8,1,0.982739500000207,['c'],1,left,['9'],5,0.2840662999997221,0.2,0,AccFast,39,19,Man,Right,
2,8,1,0.9009701999993922,['n'],1,right,['0'],6,0.668040600000495,0.4,0,AccFast,39,19,Man,Right,
3,8,1,1.6497263000001112,['n'],1,right,['9'],5,0.4178996000000552,0.1,0,AccFast,39,19,Man,Right,
4,8,1,1.1657537999999477,['c'],1,left,['9'],5,0.6188193000007232,0.1,0,AccFast,39,19,Man,Right,
5,8,1,1.6995757000004232,['n'],0,left,['9'],5,0.7837554000007003,0.1,0,AccFast,39,19,Man,Right,
6,8,1,0.8835335000003397,['n'],1,right,['8'],4,0.5013524000005418,0.2,0,AccFast,39,19,Man,Right,
7,8,1,0.9510893000006035,['c'],1,left,['8'],4,0.5186813000000257,0.2,0,AccFast,39,19,Man,Right,
8,8,1,0.5665232000001197,['n'],1,right,['9'],5,0.3847515999996176,0.1,0,AccFast,39,19,Man,Right,
9,8,1,0.6350100999998176,['c'],1,left,['8'],4,0.6509949000001143,0.2,0,AccFast,39,19,Man,Right,
10,8,1,1.4502434999994875,['c'],1,left,['9'],5,0.5847079000004669,0.4,0,AccFast,39,19,Man,Right,
11,8,1,0.684008599999288,['n'],1,right,['9'],5,0.3175503000002209,0.2,0,AccFast,39,19,Man,Right,
12,8,1,0.9176602999996248,['c'],0,right,['8'],4,0.4849167000002126,0.4,0,AccFast,39,19,Man,Right,
13,8,1,0.8495391000005839,['c'],1,left,['8'],4,0.48589220000030764,0.2,0,AccFast,39,19,Man,Right,
14,8,1,0.7844420999999784,['c'],1,left,['8'],4,0.40111109999998007,0.4,0,AccFast,39,19,Man,Right,
15,8,1,0.9653494000003775,['c'],1,left,['8'],4,0.4181373999999778,0.2,0,AccFast,39,19,Man,Right,
16,8,1,1.68275149999954,['n'],1,right,['9'],5,0.6842398999997386,0.2,0,AccFast,39,19,Man,Right,
17,8,1,0.999610500000017,['n'],1,right,['9'],5,0.4337094000002253,0.4,0,AccFast,39,19,Man,Right,
18,8,1,1.0184434999991936,['c'],1,left,['8'],4,0.46789499999977124,0.1,0,AccFast,39,19,Man,Right,
19,8,1,0.8506715999992593,['c'],1,left,['8'],4,0.4342225000000326,0.1,0,AccFast,39,19,Man,Right,
20,8,1,0.6498552000002746,['n'],1,right,['9'],5,0.4854457999999795,0.4,0,AccFast,39,19,Man,Right,
21,8,1,1.7490883000000395,['c'],1,left,['8'],4,0.45162640000035026,0.2,0,AccFast,39,19,Man,Right,
22,8,1,0.9503807000000961,['n'],1,right,['8'],4,0.4518225000001621,0.2,0,AccFast,39,19,Man,Right,
23,8,1,1.21696989999964,['n'],1,right,['9'],5,0.7677050000002055,0.2,0,AccFast,39,19,Man,Right,
24,8,1,1.2662898000007772,['c'],1,left,['9'],5,0.6524826000004396,0.1,0,AccFast,39,19,Man,Right,
25,8,1,1.4172294999998485,['n'],1,right,['9'],5,0.433530499999506,0.1,0,AccFast,39,19,Man,Right,
26,8,1,0.9165279999997438,['c'],1,left,['9'],5,0.28334069999982603,0.1,0,AccFast,39,19,Man,Right,
27,8,1,0.7506273999997575,['n'],1,right,['8'],4,0.36759619999975257,0.4,0,AccFast,39,19,Man,Right,
28,8,1,0.9670342999997956,['c'],0,right,['8'],4,1.45136199999979,0.4,0,AccFast,39,19,Man,Right,
29,8,1,0.8338251000004675,['c'],1,left,['9'],5,0.3849067000001014,0.1,0,AccFast,39,19,Man,Right,
30,8,1,0.8162775999999212,['c'],1,left,['9'],5,0.40062440000019706,0.2,0,AccFast,39,19,Man,Right,
31,8,1,0.6504181999998764,['n'],0,left,['3'],3,0.7517884999997477,0.1,0,AccFast,39,19,Man,Right,
32,8,1,0.5825907999997071,['n'],1,right,['0'],6,0.40165260000048875,0.4,0,AccFast,39,19,Man,Right,
33,8,1,2.0650157000000036,['c'],0,right,['9'],5,0.48445949999950244,0.1,0,AccFast,39,19,Man,Right,
34,8,1,0.8681457999991835,['n'],1,right,['0'],6,0.5503720999995494,0.2,0,AccFast,39,19,Man,Right,
35,8,1,0.9338328999992882,['c'],1,left,['9'],5,0.5015047999995659,0.1,0,AccFast,39,19,Man,Right,
36,8,1,0.8674829000001409,['c'],1,left,['9'],5,0.6175060000005033,0.4,0,AccFast,39,19,Man,Right,
37,8,1,0.8331564000000071,['n'],1,right,['8'],4,0.7020560000000842,0.2,0,AccFast,39,19,Man,Right,
38,8,1,0.7328818999994837,['c'],1,left,['9'],5,0.36683179999999993,0.4,0,AccFast,39,19,Man,Right,
39,8,1,0.7507132000000638,['c'],1,left,['9'],5,0.5342688000000635,0.4,0,AccFast,39,19,Man,Right,
40,8,1,0.7680313000000751,['n'],1,right,['0'],6,0.33490489999985584,0.4,0,AccFast,39,19,Man,Right,
41,8,1,0.5820016000006945,['c'],1,left,['9'],5,0.8359455999998318,0.2,0,AccFast,39,19,Man,Right,
42,8,1,2.1317321000005904,['n'],1,right,['8'],4,0.5855569000004834,0.1,0,AccFast,39,19,Man,Right,
43,8,1,0.8493693000000349,['c'],1,left,['0'],6,0.5182372999997824,0.2,0,AccFast,39,19,Man,Right,
44,8,1,0.783840400000372,['c'],1,left,['9'],5,0.5675934999999299,0.4,0,AccFast,39,19,Man,Right,
45,8,1,0.9501534999999421,['n'],1,right,['0'],6,0.8348273999999947,0.4,0,AccFast,39,19,Man,Right,
46,8,1,3.1329525000001013,['n'],1,right,['8'],4,0.9015947000007145,0.4,0,AccFast,39,19,Man,Right,
47,8,1,0.8835913999992044,['c'],0,right,['8'],4,0.5177669000004244,0.4,0,AccFast,39,19,Man,Right,
48,8,1,0.6661262999996325,['c'],0,right,['9'],5,0.5341651999997339,0.2,0,AccFast,39,19,Man,Right,
49,8,1,1.2988586999999825,['n'],0,left,['8'],4,0.6687710000005609,0.1,0,AccFast,39,19,Man,Right,
50,8,1,0.7170906999999715,['c'],0,right,['8'],4,0.9995081999995818,0.2,0,AccFast,39,19,Man,Right,
51,8,1,0.7008725999994567,['c'],1,left,['8'],4,0.5676240000002508,0.1,0,AccFast,39,19,Man,Right,
52,8,1,1.9992553000001863,['c'],1,left,['9'],5,0.8188122999999905,0.1,0,AccFast,39,19,Man,Right,
53,8,1,1.033940199999961,['c'],1,left,['0'],6,0.9006998999993812,0.2,0,AccFast,39,19,Man,Right,
54,8,1,0.7846759000003658,['c'],0,right,['9'],5,0.5343621000001804,0.4,0,AccFast,39,19,Man,Right,
55,8,1,0.733280499999637,['c'],1,left,['8'],4,0.6836653999998816,0.4,0,AccFast,39,19,Man,Right,
56,8,1,0.7840002000002642,['c'],0,right,['8'],4,0.5342332999998689,0.1,0,AccFast,39,19,Man,Right,
57,8,1,1.2001479000000472,['c'],0,right,['8'],4,0.4684987999999066,0.2,0,AccFast,39,19,Man,Right,
58,8,1,1.866885500000535,['c'],0,right,['8'],4,0.7347907000003033,0.4,0,AccFast,39,19,Man,Right,
59,8,1,1.2340768999993088,['c'],1,left,['8'],4,0.9512869000000137,0.1,0,AccFast,39,19,Man,Right,
0,9,1,1.8836702999997215,['n'],1,right,['8'],4,1.4350162000000637,0.2,0,AccAcc,39,19,Man,Right,
1,9,1,0.7669214999996257,['c'],1,left,['9'],5,0.9850571000006312,0.4,0,AccAcc,39,19,Man,Right,
2,9,1,1.2663049000002502,['n'],1,right,['9'],5,0.6855307000005268,0.4,0,AccAcc,39,19,Man,Right,
3,9,1,2.000082300000031,['c'],0,right,['8'],4,0.5501412000003256,0.2,0,AccAcc,39,19,Man,Right,
4,9,1,1.0168899000000238,['n'],1,right,['9'],5,0.8188379000002897,0.1,0,AccAcc,39,19,Man,Right,
5,9,1,1.5341243000002578,['c'],1,left,['8'],4,0.8013545999992857,0.4,0,AccAcc,39,19,Man,Right,
6,9,1,0.8829130000003715,['n'],0,left,['8'],4,0.984303500000351,0.1,0,AccAcc,39,19,Man,Right,
7,9,1,1.201276400000097,['c'],1,left,['9'],5,0.4174503000003824,0.4,0,AccAcc,39,19,Man,Right,
8,9,1,0.8172098000004553,['n'],1,right,['0'],6,0.71754189999956,0.4,0,AccAcc,39,19,Man,Right,
9,9,1,1.1662143000003198,['c'],1,left,['9'],5,0.716884200000095,0.1,0,AccAcc,39,19,Man,Right,
10,9,1,0.9177722999993421,['n'],1,right,['8'],4,0.6523089000002074,0.2,0,AccAcc,39,19,Man,Right,
11,9,1,0.9995043999997506,['c'],1,left,['9'],5,0.7510867999999391,0.4,0,AccAcc,39,19,Man,Right,
12,9,1,1.1169591999996555,['n'],1,right,['9'],5,0.7667122999991989,0.4,0,AccAcc,39,19,Man,Right,
13,9,1,1.268202499999461,['c'],1,left,['9'],5,0.8999430000003485,0.2,0,AccAcc,39,19,Man,Right,
14,9,1,2.183478699999796,['n'],1,right,['8'],4,0.718196099999659,0.2,0,AccAcc,39,19,Man,Right,
15,9,1,1.6149198000002798,['n'],1,right,['8'],4,0.8695517000005566,0.1,0,AccAcc,39,19,Man,Right,
16,9,1,1.665715199999795,['n'],1,right,['9'],5,0.8677293999999165,0.4,0,AccAcc,39,19,Man,Right,
17,9,1,1.0179462000005515,['c'],0,right,['8'],4,1.0845454000000245,0.1,0,AccAcc,39,19,Man,Right,
18,9,1,0.9342399999995905,['n'],1,right,['9'],5,0.8672403999999005,0.1,0,AccAcc,39,19,Man,Right,
19,9,1,1.2995429999991757,['n'],1,right,['9'],5,0.5847576999994999,0.4,0,AccAcc,39,19,Man,Right,
20,9,1,1.1332963999993808,['n'],1,right,['9'],5,0.7848196000004464,0.1,0,AccAcc,39,19,Man,Right,
21,9,1,1.5503109000001132,['c'],0,right,['8'],4,0.5684048000002804,0.1,0,AccAcc,39,19,Man,Right,
22,9,1,1.2169424000003346,['c'],1,left,['9'],5,0.7837484000001496,0.4,0,AccAcc,39,19,Man,Right,
23,9,1,0.9508009000001039,['n'],1,right,['9'],5,0.7514933999991626,0.1,0,AccAcc,39,19,Man,Right,
24,9,1,1.0669926000000487,['n'],0,left,['9'],5,0.6345559000001231,0.2,0,AccAcc,39,19,Man,Right,
25,9,1,1.1656636999996408,['c'],1,left,['9'],5,0.5184085999999297,0.4,0,AccAcc,39,19,Man,Right,
26,9,1,1.3835875999993732,['c'],1,left,['8'],4,0.7346051999993506,0.1,0,AccAcc,39,19,Man,Right,
27,9,1,0.9172377000004417,['n'],1,right,['0'],6,1.034304300000258,0.4,0,AccAcc,39,19,Man,Right,
28,9,1,1.1830370000006951,['c'],0,right,['8'],4,0.8844874000005802,0.1,0,AccAcc,39,19,Man,Right,
29,9,1,0.9006436999998186,['n'],1,right,['9'],5,0.8013682999999219,0.2,0,AccAcc,39,19,Man,Right,
30,9,1,1.001290200000767,['n'],0,left,['9'],5,0.9847755000000689,0.1,0,AccAcc,39,19,Man,Right,
31,9,1,0.7338592999994944,['n'],1,right,['9'],5,0.7681526999995185,0.2,0,AccAcc,39,19,Man,Right,
32,9,1,0.7487551999993229,['n'],0,left,['8'],4,0.5854217999994944,0.1,0,AccAcc,39,19,Man,Right,
33,9,1,0.9503678000000946,['n'],0,left,['8'],4,0.7503021999991688,0.2,0,AccAcc,39,19,Man,Right,
34,9,1,2.4491281999999046,['c'],0,right,['8'],4,0.6513064999999187,0.1,0,AccAcc,39,19,Man,Right,
35,9,1,2.8329020000001037,['n'],1,right,['8'],4,0.6500508999997692,0.1,0,AccAcc,39,19,Man,Right,
36,9,1,1.1511528999999427,['n'],1,right,['3'],3,1.38405210000019,0.2,0,AccAcc,39,19,Man,Right,
37,9,1,1.8155366999999387,['n'],1,right,['8'],4,0.9688737999995283,0.4,0,AccAcc,39,19,Man,Right,
38,9,1,0.9834426000006715,['c'],1,left,['9'],5,0.6677804000000833,0.4,0,AccAcc,39,19,Man,Right,
39,9,1,1.0172076999997444,['c'],1,left,['9'],5,0.584037200000239,0.4,0,AccAcc,39,19,Man,Right,
40,9,1,1.231760600000598,['c'],1,left,['8'],4,0.6184051999998701,0.1,0,AccAcc,39,19,Man,Right,
41,9,1,1.1683768000002601,['c'],1,left,['8'],4,1.2679165999998077,0.2,0,AccAcc,39,19,Man,Right,
42,9,1,2.250674299999446,['c'],1,left,['8'],4,0.5002404999995633,0.4,0,AccAcc,39,19,Man,Right,
43,9,1,1.4814837000003536,['n'],0,left,['8'],4,0.502206400000432,0.4,0,AccAcc,39,19,Man,Right,
44,9,1,1.7825172000002567,['n'],1,right,['8'],4,0.6184467999992194,0.2,0,AccAcc,39,19,Man,Right,
45,9,1,1.8837723000006008,['n'],0,left,['8'],4,0.5345084000000497,0.2,0,AccAcc,39,19,Man,Right,
46,9,1,2.549702599999364,['n'],0,left,['8'],4,0.9005572999994911,0.2,0,AccAcc,39,19,Man,Right,
47,9,1,3.4498752999998032,['n'],0,left,['9'],5,1.0514518999998472,0.2,0,AccAcc,39,19,Man,Right,
48,9,1,1.749553300000116,['c'],1,left,['8'],4,0.5681352999999945,0.2,0,AccAcc,39,19,Man,Right,
49,9,1,1.3003176000001986,['c'],1,left,['8'],4,0.4506664999998975,0.1,0,AccAcc,39,19,Man,Right,
50,9,1,0.9490444000002753,['n'],1,right,['9'],5,0.7017361999996865,0.2,0,AccAcc,39,19,Man,Right,
51,9,1,1.2352559999999357,['n'],1,right,['8'],4,0.5013353999993342,0.4,0,AccAcc,39,19,Man,Right,
52,9,1,1.0002426999999443,['c'],1,left,['9'],5,0.8178264999996827,0.1,0,AccAcc,39,19,Man,Right,
53,9,1,1.2338633000008485,['c'],1,left,['9'],5,0.5013997999994899,0.1,0,AccAcc,39,19,Man,Right,
54,9,1,1.7501754999993864,['n'],1,right,['8'],4,0.5170256999999765,0.2,0,AccAcc,39,19,Man,Right,
55,9,1,2.232487399999627,['c'],1,left,['8'],4,0.9354624999996304,0.4,0,AccAcc,39,19,Man,Right,
56,9,1,1.183433299999706,['n'],0,left,['9'],5,0.5342736000002333,0.2,0,AccAcc,39,19,Man,Right,
57,9,1,0.9008335999997144,['c'],1,left,['8'],4,0.5178884999995716,0.1,0,AccAcc,39,19,Man,Right,
58,9,1,0.9329512999993312,['n'],1,right,['8'],4,0.5337306000001263,0.2,0,AccAcc,39,19,Man,Right,
59,9,1,1.0163591000000451,['n'],1,right,['9'],5,0.7000737999997,0.4,0,AccAcc,39,19,Man,Right,
0,10,1,0.7506991000000198,['c'],1,left,['8'],4,0.8348383000002286,0.4,0,FastAcc,39,19,Man,Right,
1,10,1,1.5320845999995072,['c'],1,left,['8'],4,0.667551700000331,0.1,0,FastAcc,39,19,Man,Right,
2,10,1,0.4001531000003524,['c'],0,right,['8'],4,0.9018056000004435,0.1,0,FastAcc,39,19,Man,Right,
3,10,1,0.3670150999996622,['n'],1,right,['9'],5,0.5847090000006574,0.4,0,FastAcc,39,19,Man,Right,
4,10,1,0.6165584999998828,['c'],1,left,['9'],5,1.3846942999998646,0.1,0,FastAcc,39,19,Man,Right,
5,10,1,0.4830226000003677,['n'],1,right,['3'],3,1.5172881000007692,0.2,0,FastAcc,39,19,Man,Right,
6,10,1,0.38211189999947237,['n'],1,right,['9'],5,1.502789699999994,0.1,0,FastAcc,39,19,Man,Right,
7,10,1,0.7158813000005466,['n'],1,right,['3'],3,1.184077900000375,0.2,0,FastAcc,39,19,Man,Right,
8,10,1,0.46780670000043756,['c'],1,left,['9'],5,0.8845142000000124,0.4,0,FastAcc,39,19,Man,Right,
9,10,1,0.46705019999990327,['n'],1,right,['8'],4,1.5514496000005238,0.4,0,FastAcc,39,19,Man,Right,
10,10,1,0.5162801999995281,['n'],1,right,['0'],6,1.1680165000007037,0.4,0,FastAcc,39,19,Man,Right,
11,10,1,0.6001478999996834,['n'],1,right,['9'],5,1.2176953000007416,0.4,0,FastAcc,39,19,Man,Right,
12,10,1,0.41750580000007176,['n'],1,right,['9'],5,1.2180614999997488,0.2,0,FastAcc,39,19,Man,Right,
13,10,1,0.900514199999634,['n'],1,right,['9'],5,1.21785650000038,0.2,0,FastAcc,39,19,Man,Right,
14,10,1,0.4838666000005105,['n'],0,left,['3'],3,0.9841111000005185,0.1,0,FastAcc,39,19,Man,Right,
15,10,1,0.6335680000001958,['n'],1,right,['9'],5,1.6508357000002434,0.4,0,FastAcc,39,19,Man,Right,
16,10,1,0.5176102000004903,['c'],1,left,['9'],5,1.0848496999997224,0.1,0,FastAcc,39,19,Man,Right,
17,10,1,0.5336897000006502,['c'],1,left,['3'],3,1.5833809999994628,0.2,0,FastAcc,39,19,Man,Right,
18,10,1,0.4345528000003469,['n'],0,left,['8'],4,1.0187017999996897,0.2,0,FastAcc,39,19,Man,Right,
19,10,1,0.8502345999995669,['c'],1,left,['9'],5,1.6017913999994562,0.2,0,FastAcc,39,19,Man,Right,
20,10,1,0.7005328000004738,['n'],0,left,['8'],4,1.0844660000002477,0.2,0,FastAcc,39,19,Man,Right,
21,10,1,0.7494127999998454,['n'],1,right,['9'],5,1.1847097999998368,0.1,0,FastAcc,39,19,Man,Right,
22,10,1,0.7670411999997668,['n'],0,left,['9'],5,0.917315000000599,0.1,0,FastAcc,39,19,Man,Right,
23,10,1,0.935287999999673,['n'],1,right,['9'],5,1.0348273999998128,0.2,0,FastAcc,39,19,Man,Right,
24,10,1,0.7854271999995035,['n'],0,left,['8'],4,0.968719699999383,0.1,0,FastAcc,39,19,Man,Right,
25,10,1,0.7150358999997479,['n'],0,left,['8'],4,1.1187503000001016,0.4,0,FastAcc,39,19,Man,Right,
26,10,1,0.48326859999997396,['c'],1,left,['8'],4,1.1157485000003362,0.2,0,FastAcc,39,19,Man,Right,
27,10,1,0.5353945999995631,['c'],1,left,['8'],4,0.6347328000001653,0.1,0,FastAcc,39,19,Man,Right,
28,10,1,0.7155890999993062,['n'],0,left,['3'],3,3.9682043000002523,0.4,0,FastAcc,39,19,Man,Right,
29,10,1,1.6484330000002956,['c'],1,left,['9'],5,1.3691087999995943,0.2,0,FastAcc,39,19,Man,Right,
30,10,1,1.0164420999999493,['c'],1,left,['9'],5,1.467674000000443,0.4,0,FastAcc,39,19,Man,Right,
31,10,1,0.5168712000004234,['c'],0,right,['8'],4,0.7346009000002596,0.1,0,FastAcc,39,19,Man,Right,
32,10,1,0.43312520000017685,['n'],1,right,['2'],2,1.6346303999998781,0.1,0,FastAcc,39,19,Man,Right,
33,10,1,0.7679284999994707,['c'],0,right,['9'],5,1.1345908000002964,0.1,0,FastAcc,39,19,Man,Right,
34,10,1,1.1483330999999453,['n'],0,left,['8'],4,0.8358923000005234,0.2,0,FastAcc,39,19,Man,Right,
35,10,1,0.9825194999993982,['n'],0,left,['9'],5,0.4691422000005332,0.1,0,FastAcc,39,19,Man,Right,
36,10,1,0.9002543999995396,['n'],1,right,['0'],6,1.6845496999994793,0.4,0,FastAcc,39,19,Man,Right,
37,10,1,0.7322844000000259,['c'],1,left,['9'],5,1.0004442999997991,0.4,0,FastAcc,39,19,Man,Right,
38,10,1,0.6004117000002225,['c'],1,left,['9'],5,0.9011558000001969,0.4,0,FastAcc,39,19,Man,Right,
39,10,1,0.5839255000000776,['n'],1,right,['9'],5,1.0503813999994236,0.1,0,FastAcc,39,19,Man,Right,
40,10,1,0.817030999999588,['c'],1,left,['0'],6,1.0833479000002626,0.4,0,FastAcc,39,19,Man,Right,
41,10,1,0.6654042999998637,['c'],1,left,['8'],4,1.2188696000002892,0.2,0,FastAcc,39,19,Man,Right,
42,10,1,0.5495971000000281,['c'],1,left,['8'],4,0.733550699999796,0.2,0,FastAcc,39,19,Man,Right,
43,10,1,0.7676406999999017,['c'],1,left,['9'],5,0.6005040000000008,0.4,0,FastAcc,39,19,Man,Right,
44,10,1,0.6837789999999586,['n'],1,right,['9'],5,0.7856865000003381,0.1,0,FastAcc,39,19,Man,Right,
45,10,1,0.7651353999999628,['n'],1,right,['8'],4,0.5194285999996282,0.1,0,FastAcc,39,19,Man,Right,
46,10,1,1.1825736000000688,['c'],0,right,['9'],5,0.6683278999998947,0.2,0,FastAcc,39,19,Man,Right,
47,10,1,0.5003446999999142,['n'],1,right,['9'],5,0.8668618000001516,0.2,0,FastAcc,39,19,Man,Right,
48,10,1,1.0511022000000594,['n'],1,right,['9'],5,0.6012519000005341,0.4,0,FastAcc,39,19,Man,Right,
49,10,1,0.6645349999998871,['n'],1,right,['0'],6,0.8022121000003608,0.4,0,FastAcc,39,19,Man,Right,
50,10,1,0.7841913000002023,['c'],0,right,['8'],4,0.8346731000001455,0.2,0,FastAcc,39,19,Man,Right,
51,10,1,0.5489583999997194,['n'],1,right,['8'],4,1.1007933000000776,0.2,0,FastAcc,39,19,Man,Right,
52,10,1,0.5339825999999448,['c'],1,left,['9'],5,1.083622000000105,0.1,0,FastAcc,39,19,Man,Right,
53,10,1,0.4688464999999269,['n'],1,right,['9'],5,0.9995439000003898,0.2,0,FastAcc,39,19,Man,Right,
54,10,1,0.4991089999994074,['n'],1,right,['8'],4,0.8687103000002026,0.4,0,FastAcc,39,19,Man,Right,
55,10,1,0.3502441999999064,['n'],0,left,['2'],2,1.0829352999999173,0.1,0,FastAcc,39,19,Man,Right,
56,10,1,0.7997486000003846,['c'],0,right,['9'],5,0.7349694000004092,0.1,0,FastAcc,39,19,Man,Right,
57,10,1,0.3507574000004752,['n'],0,left,['3'],3,1.6178233999999065,0.2,0,FastAcc,39,19,Man,Right,
58,10,1,0.43327860000044893,['n'],0,left,['3'],3,0.9686547999999675,0.4,0,FastAcc,39,19,Man,Right,
59,10,1,0.4825811999999132,['n'],1,right,['9'],5,0.9687962000007246,0.4,0,FastAcc,39,19,Man,Right,
0,11,1,0.6845488999997542,['c'],1,left,['8'],4,0.651327699999456,0.4,0,FastFast,39,19,Man,Right,
1,11,1,0.466771699999299,['c'],1,left,['9'],5,0.6854784000006475,0.1,0,FastFast,39,19,Man,Right,
2,11,1,0.5487137999998595,['c'],0,right,['3'],3,0.6528765999992174,0.2,0,FastFast,39,19,Man,Right,
3,11,1,0.48501800000030926,['c'],1,left,['9'],5,0.532904900000176,0.4,0,FastFast,39,19,Man,Right,
4,11,1,0.5013869999993403,['c'],1,left,['8'],4,0.46883580000030634,0.4,0,FastFast,39,19,Man,Right,
5,11,1,0.44949850000011793,['n'],1,right,['8'],4,0.6355070999998134,0.1,0,FastFast,39,19,Man,Right,
6,11,1,0.5337858000002598,['c'],0,right,['8'],4,0.534665700000005,0.2,0,FastFast,39,19,Man,Right,
7,11,1,0.4666020999993634,['n'],1,right,['9'],5,0.43476429999918764,0.4,0,FastFast,39,19,Man,Right,
8,11,1,0.5177228000002287,['c'],0,right,['9'],5,0.666849700000057,0.1,0,FastFast,39,19,Man,Right,
9,11,1,0.5345393999996304,['c'],1,left,['8'],4,0.5013457999993989,0.4,0,FastFast,39,19,Man,Right,
10,11,1,0.46713199999976496,['c'],1,left,['8'],4,0.4168641000005664,0.1,0,FastFast,39,19,Man,Right,
11,11,1,0.633267899999737,['c'],1,left,['8'],4,0.43538880000050995,0.1,0,FastFast,39,19,Man,Right,
12,11,1,0.5336975999998685,['c'],1,left,['3'],3,0.9181182000002082,0.2,0,FastFast,39,19,Man,Right,
13,11,1,0.7006404000003386,['n'],0,left,['8'],4,0.45128850000037346,0.2,0,FastFast,39,19,Man,Right,
14,11,1,0.7000038000005588,['n'],1,right,['9'],5,0.33384010000008857,0.4,0,FastFast,39,19,Man,Right,
15,11,1,0.5498961000002964,['c'],1,left,['9'],5,0.38527499999963766,0.4,0,FastFast,39,19,Man,Right,
16,11,1,0.48328510000010283,['n'],1,right,['8'],4,0.4343484000000899,0.1,0,FastFast,39,19,Man,Right,
17,11,1,0.7163724000001821,['c'],0,right,['9'],5,0.5513238000003184,0.1,0,FastFast,39,19,Man,Right,
18,11,1,0.5514647999998488,['n'],1,right,['0'],6,0.3681931999999506,0.4,0,FastFast,39,19,Man,Right,
19,11,1,0.46684880000066187,['c'],0,right,['8'],4,0.5677539999996952,0.1,0,FastFast,39,19,Man,Right,
20,11,1,0.7003707000003487,['c'],1,left,['9'],5,0.6181268000000273,0.4,0,FastFast,39,19,Man,Right,
21,11,1,0.6667096999999558,['c'],1,left,['8'],4,0.4171759999999267,0.4,0,FastFast,39,19,Man,Right,
22,11,1,0.4673632000003636,['n'],1,right,['9'],5,0.3845095999995465,0.2,0,FastFast,39,19,Man,Right,
23,11,1,0.5337761999999202,['c'],1,left,['9'],5,0.36899069999981293,0.2,0,FastFast,39,19,Man,Right,
24,11,1,0.6654996000006577,['c'],1,left,['8'],4,0.3694769000003362,0.2,0,FastFast,39,19,Man,Right,
25,11,1,0.6503279999997176,['c'],0,right,['8'],4,0.4837416000000303,0.1,0,FastFast,39,19,Man,Right,
26,11,1,0.7659318999994866,['c'],1,left,['8'],4,0.43430420000004233,0.2,0,FastFast,39,19,Man,Right,
27,11,1,0.7333042999998725,['c'],1,left,['8'],4,0.3334475999999995,0.4,0,FastFast,39,19,Man,Right,
28,11,1,0.7359296000004178,['n'],1,right,['9'],5,0.3828066000005492,0.2,0,FastFast,39,19,Man,Right,
29,11,1,0.9841820999999982,['c'],0,right,['8'],4,0.5525956999999835,0.2,0,FastFast,39,19,Man,Right,
30,11,1,0.7168576000003668,['c'],1,left,['9'],5,0.468030699999872,0.4,0,FastFast,39,19,Man,Right,
31,11,1,1.016140799999448,['n'],0,left,['9'],5,0.43477700000039476,0.4,0,FastFast,39,19,Man,Right,
32,11,1,0.6837610000002314,['c'],1,left,['9'],5,0.3681667999999263,0.1,0,FastFast,39,19,Man,Right,
33,11,1,0.7156534999994619,['c'],0,right,['8'],4,0.5504535999998552,0.1,0,FastFast,39,19,Man,Right,
34,11,1,0.4506847000002381,['n'],1,right,['8'],4,0.5183471000000281,0.2,0,FastFast,39,19,Man,Right,
35,11,1,0.7331537000000026,['c'],0,right,['9'],5,0.4016127000004417,0.1,0,FastFast,39,19,Man,Right,
36,11,1,0.6328781000001982,['n'],1,right,['0'],6,0.40151000000059867,0.4,0,FastFast,39,19,Man,Right,
37,11,1,0.8170182000003479,['c'],1,left,['8'],4,0.4514824999996563,0.1,0,FastFast,39,19,Man,Right,
38,11,1,0.41747380000015255,['n'],1,right,['9'],5,0.4010093999995661,0.4,0,FastFast,39,19,Man,Right,
39,11,1,0.6175468999999794,['c'],1,left,['9'],5,0.5013680000001841,0.1,0,FastFast,39,19,Man,Right,
40,11,1,0.783596100000068,['c'],0,right,['8'],4,0.4849181999998109,0.2,0,FastFast,39,19,Man,Right,
41,11,1,0.4504589999996824,['n'],1,right,['9'],5,0.36632279999957973,0.4,0,FastFast,39,19,Man,Right,
42,11,1,0.6173004999991463,['c'],1,left,['8'],4,0.44996639999953914,0.2,0,FastFast,39,19,Man,Right,
43,11,1,0.5821135000005597,['c'],1,left,['8'],4,0.45090949999939767,0.2,0,FastFast,39,19,Man,Right,
44,11,1,0.6169853999999759,['n'],1,right,['9'],5,0.3517013999999108,0.4,0,FastFast,39,19,Man,Right,
45,11,1,0.7330583000002662,['c'],0,right,['3'],3,0.8514916000003723,0.4,0,FastFast,39,19,Man,Right,
46,11,1,0.751069699999789,['c'],0,right,['9'],5,0.5668218999999226,0.1,0,FastFast,39,19,Man,Right,
47,11,1,0.5334314000001541,['c'],1,left,['9'],5,0.5018956000003527,0.4,0,FastFast,39,19,Man,Right,
48,11,1,0.6171769999991739,['n'],0,left,['8'],4,0.5018704000003709,0.1,0,FastFast,39,19,Man,Right,
49,11,1,0.7988190000005488,['c'],1,left,['9'],5,0.43566140000075393,0.2,0,FastFast,39,19,Man,Right,
50,11,1,0.7502979000000778,['c'],1,left,['9'],5,0.4834353000005649,0.2,0,FastFast,39,19,Man,Right,
51,11,1,0.6503029999994396,['n'],1,right,['8'],4,0.4179269000005661,0.2,0,FastFast,39,19,Man,Right,
52,11,1,0.69873699999971,['n'],1,right,['0'],6,0.4694333999996161,0.4,0,FastFast,39,19,Man,Right,
53,11,1,0.7004188999999315,['c'],1,left,['8'],4,0.6339527000000089,0.2,0,FastFast,39,19,Man,Right,
54,11,1,0.5672133999996731,['c'],0,right,['8'],4,0.5020503000005192,0.1,0,FastFast,39,19,Man,Right,
55,11,1,0.6827287000005526,['n'],1,right,['9'],5,0.451375000000553,0.2,0,FastFast,39,19,Man,Right,
56,11,1,0.7489863999999216,['c'],1,left,['9'],5,0.4519988000001831,0.2,0,FastFast,39,19,Man,Right,
57,11,1,0.531016400000226,['c'],0,right,['9'],5,0.5860443999999916,0.1,0,FastFast,39,19,Man,Right,
58,11,1,0.6170397000005323,['c'],1,left,['9'],5,0.4351809999998295,0.1,0,FastFast,39,19,Man,Right,
59,11,1,0.8171423000003415,['c'],0,right,['9'],5,0.5164771999998266,0.1,0,FastFast,39,19,Man,Right,
0,12,1,1.4670853999996325,['c'],1,left,['9'],5,0.38547299999936513,0.1,0,AccFast,39,19,Man,Right,
1,12,1,0.9169686000004731,['c'],1,left,['9'],5,0.28468470000007073,0.1,0,AccFast,39,19,Man,Right,
2,12,1,0.6325151000000915,['n'],1,right,['9'],5,0.4174103000004834,0.4,0,AccFast,39,19,Man,Right,
3,12,1,2.1841901000007056,['c'],0,right,['8'],4,0.451515599999766,0.4,0,AccFast,39,19,Man,Right,
4,12,1,0.7663199999997232,['c'],1,left,['9'],5,0.4829210999996576,0.2,0,AccFast,39,19,Man,Right,
5,12,1,0.7521801000002597,['n'],1,right,['0'],6,0.6171924999998737,0.4,0,AccFast,39,19,Man,Right,
6,12,1,1.267451799999435,['c'],1,left,['9'],5,0.3996363999995083,0.2,0,AccFast,39,19,Man,Right,
7,12,1,1.332571299999472,['c'],0,right,['9'],5,0.31937379999999393,0.2,0,AccFast,39,19,Man,Right,
8,12,1,0.9185985000003711,['c'],1,left,['8'],4,0.40144229999987147,0.2,0,AccFast,39,19,Man,Right,
9,12,1,0.5333843999997043,['n'],1,right,['9'],5,0.5853116999996928,0.4,0,AccFast,39,19,Man,Right,
10,12,1,1.3485018000001219,['c'],1,left,['9'],5,0.868023699999867,0.4,0,AccFast,39,19,Man,Right,
11,12,1,1.4527318999998897,['c'],1,left,['9'],5,0.5509846999993897,0.2,0,AccFast,39,19,Man,Right,
12,12,1,1.150191900000209,['n'],1,right,['0'],6,0.5176054000003205,0.4,0,AccFast,39,19,Man,Right,
13,12,1,1.100689699999748,['c'],0,right,['9'],5,0.5184361000001445,0.1,0,AccFast,39,19,Man,Right,
14,12,1,1.9155178999999407,['n'],1,right,['8'],4,0.6021188999993683,0.1,0,AccFast,39,19,Man,Right,
15,12,1,0.9824882000002617,['c'],0,right,['8'],4,0.5841985999995813,0.1,0,AccFast,39,19,Man,Right,
16,12,1,0.8998574999995981,['c'],1,left,['9'],5,0.384332199999335,0.2,0,AccFast,39,19,Man,Right,
17,12,1,0.7170184999995399,['n'],1,right,['0'],6,0.48501300000043557,0.4,0,AccFast,39,19,Man,Right,
18,12,1,1.0175742000001264,['c'],1,left,['9'],5,0.48472339999989345,0.1,0,AccFast,39,19,Man,Right,
19,12,1,0.8002532999998948,['c'],1,left,['9'],5,0.38364389999969717,0.4,0,AccFast,39,19,Man,Right,
20,12,1,0.7662268000003678,['n'],1,right,['9'],5,0.3358946999996988,0.4,0,AccFast,39,19,Man,Right,
21,12,1,0.7004734000001918,['c'],1,left,['9'],5,0.40110509999976784,0.2,0,AccFast,39,19,Man,Right,
22,12,1,0.9150492000007944,['c'],0,right,['9'],5,0.3521270999999615,0.2,0,AccFast,39,19,Man,Right,
23,12,1,1.332463199999438,['n'],1,right,['9'],5,0.6183132000005571,0.1,0,AccFast,39,19,Man,Right,
24,12,1,0.834573599999203,['c'],1,left,['9'],5,0.31824460000007093,0.1,0,AccFast,39,19,Man,Right,
25,12,1,1.48236420000012,['c'],1,left,['8'],4,0.41906879999987723,0.4,0,AccFast,39,19,Man,Right,
26,12,1,0.8172278000001825,['c'],1,left,['9'],5,0.5494629999993776,0.1,0,AccFast,39,19,Man,Right,
27,12,1,0.8173836999994819,['c'],1,left,['0'],6,0.38518460000068444,0.2,0,AccFast,39,19,Man,Right,
28,12,1,1.0157502000001841,['c'],0,right,['9'],5,0.386080100000072,0.1,0,AccFast,39,19,Man,Right,
29,12,1,0.7840084999997998,['c'],1,left,['0'],6,0.5014800999997533,0.4,0,AccFast,39,19,Man,Right,
30,12,1,1.049802899999122,['c'],1,left,['8'],4,0.5353054000006523,0.4,0,AccFast,39,19,Man,Right,
31,12,1,0.7166096999999354,['n'],1,right,['9'],5,0.4181334999993851,0.4,0,AccFast,39,19,Man,Right,
32,12,1,0.7662749999999505,['n'],1,right,['8'],4,0.4349771999995937,0.2,0,AccFast,39,19,Man,Right,
33,12,1,0.7662473999998838,['c'],0,right,['9'],5,0.452138599999671,0.2,0,AccFast,39,19,Man,Right,
34,12,1,0.6671108000000459,['n'],1,right,['9'],5,0.35014440000031755,0.4,0,AccFast,39,19,Man,Right,
35,12,1,0.6352815999998711,['c'],1,left,['9'],5,0.3672528000006423,0.1,0,AccFast,39,19,Man,Right,
36,12,1,0.7016933000004428,['c'],1,left,['8'],4,0.3347222000002148,0.1,0,AccFast,39,19,Man,Right,
37,12,1,0.8662889000006544,['c'],0,right,['9'],5,0.38474280000082217,0.1,0,AccFast,39,19,Man,Right,
38,12,1,0.6331735000003391,['c'],1,left,['0'],6,0.4673915000003035,0.4,0,AccFast,39,19,Man,Right,
39,12,1,1.6169174000006024,['c'],1,left,['9'],5,0.5846476000006078,0.1,0,AccFast,39,19,Man,Right,
40,12,1,0.8660854999998264,['c'],1,left,['9'],5,0.550626000000193,0.2,0,AccFast,39,19,Man,Right,
41,12,1,1.0345108999999866,['c'],1,left,['9'],5,0.2847842999999557,0.1,0,AccFast,39,19,Man,Right,
42,12,1,0.7172307000000728,['n'],1,right,['9'],5,0.8356207999995604,0.4,0,AccFast,39,19,Man,Right,
43,12,1,1.0341830999996091,['c'],0,right,['9'],5,0.333825099999558,0.2,0,AccFast,39,19,Man,Right,
44,12,1,1.3004311000004236,['n'],1,right,['0'],6,0.8348699999996825,0.4,0,AccFast,39,19,Man,Right,
45,12,1,2.166901599999619,['c'],0,right,['8'],4,0.668093599999338,0.2,0,AccFast,39,19,Man,Right,
46,12,1,0.8829494999999952,['n'],0,left,['9'],5,0.5016927000006035,0.2,0,AccFast,39,19,Man,Right,
47,12,1,0.6003810000001977,['c'],0,right,['0'],6,0.5849787999995897,0.1,0,AccFast,39,19,Man,Right,
48,12,1,0.5506976999995459,['c'],1,left,['9'],5,0.48326670000005834,0.2,0,AccFast,39,19,Man,Right,
49,12,1,0.7507181000000855,['c'],0,right,['9'],5,0.5849852999999712,0.1,0,AccFast,39,19,Man,Right,
50,12,1,0.633711299999959,['n'],1,right,['0'],6,0.7513656999999512,0.2,0,AccFast,39,19,Man,Right,
51,12,1,0.6997117000000799,['c'],0,right,['9'],5,0.46808789999977307,0.2,0,AccFast,39,19,Man,Right,
52,12,1,0.7171244999999544,['n'],1,right,['9'],5,0.36725600000045233,0.4,0,AccFast,39,19,Man,Right,
53,12,1,0.8175780000001396,['c'],1,left,['9'],5,0.46661370000038005,0.2,0,AccFast,39,19,Man,Right,
54,12,1,1.0510115999995833,['n'],1,right,['9'],5,0.4006986999993387,0.2,0,AccFast,39,19,Man,Right,
55,12,1,0.6507664999999179,['c'],1,left,['8'],4,0.6004291999997804,0.1,0,AccFast,39,19,Man,Right,
56,12,1,0.6840333000000101,['c'],1,left,['8'],4,0.41820430000007036,0.1,0,AccFast,39,19,Man,Right,
57,12,1,0.8671124000002237,['c'],0,right,['8'],4,0.41653839999980846,0.1,0,AccFast,39,19,Man,Right,
58,12,1,0.7998356999996759,['c'],1,left,['9'],5,0.3513067999992927,0.4,0,AccFast,39,19,Man,Right,
59,12,1,0.650556399999914,['c'],1,left,['9'],5,0.4495443999994677,0.4,0,AccFast,39,19,Man,Right,
0,13,1,1.2837294000000838,['c'],1,left,['9'],5,0.9175314000003709,0.2,0,AccAcc,39,19,Man,Right,
1,13,1,0.8012840000001233,['n'],1,right,['9'],5,0.7678992000001017,0.4,0,AccAcc,39,19,Man,Right,
2,13,1,0.86615029999939,['c'],0,right,['8'],4,0.6020359000003737,0.1,0,AccAcc,39,19,Man,Right,
3,13,1,0.7340790999996898,['n'],1,right,['9'],5,0.6349178999998912,0.4,0,AccAcc,39,19,Man,Right,
4,13,1,1.2673095000000103,['c'],1,left,['8'],4,1.4844679999996515,0.1,0,AccAcc,39,19,Man,Right,
5,13,1,0.8831908000001931,['n'],1,right,['8'],4,1.3007165000008172,0.2,0,AccAcc,39,19,Man,Right,
6,13,1,1.1668054000001575,['c'],1,left,['9'],5,0.7833632000001671,0.2,0,AccAcc,39,19,Man,Right,
7,13,1,1.4498934000002919,['c'],1,left,['8'],4,0.6683296999999584,0.2,0,AccAcc,39,19,Man,Right,
8,13,1,1.1345399000001635,['c'],1,left,['9'],5,0.6836858999995457,0.1,0,AccAcc,39,19,Man,Right,
9,13,1,1.5654618000007758,['n'],1,right,['8'],4,1.0351975000003222,0.1,0,AccAcc,39,19,Man,Right,
10,13,1,2.466536400000223,['c'],1,left,['8'],4,0.8505144999999175,0.2,0,AccAcc,39,19,Man,Right,
11,13,1,1.201040599999942,['c'],1,left,['9'],5,1.0008218999992096,0.4,0,AccAcc,39,19,Man,Right,
12,13,1,1.2998963999998523,['c'],1,left,['9'],5,0.8343838999999207,0.4,0,AccAcc,39,19,Man,Right,
13,13,1,1.0998548999996274,['c'],1,left,['9'],5,0.7499956000001475,0.1,0,AccAcc,39,19,Man,Right,
14,13,1,1.0012963999997737,['n'],1,right,['9'],5,0.6327535000000353,0.2,0,AccAcc,39,19,Man,Right,
15,13,1,1.1343077999999878,['n'],1,right,['8'],4,1.1825775000006615,0.1,0,AccAcc,39,19,Man,Right,
16,13,1,1.0166638000000603,['c'],1,left,['9'],5,0.7361081999997623,0.4,0,AccAcc,39,19,Man,Right,
17,13,1,2.0851925000006304,['c'],0,right,['9'],5,0.8836302999998225,0.2,0,AccAcc,39,19,Man,Right,
18,13,1,1.1158309000002191,['n'],1,right,['0'],6,0.8178460999997696,0.2,0,AccAcc,39,19,Man,Right,
19,13,1,1.2678937999999107,['n'],1,right,['0'],6,0.7681744000001345,0.4,0,AccAcc,39,19,Man,Right,
20,13,1,1.4338551000000734,['c'],0,right,['8'],4,0.8834325999996508,0.2,0,AccAcc,39,19,Man,Right,
21,13,1,0.9335636999994676,['c'],1,left,['9'],5,0.8183090000002267,0.1,0,AccAcc,39,19,Man,Right,
22,13,1,3.4164502000003267,['c'],0,right,['9'],5,0.7334891000000425,0.1,0,AccAcc,39,19,Man,Right,
23,13,1,0.8666477000006125,['c'],1,left,['8'],4,0.9014715999992404,0.4,0,AccAcc,39,19,Man,Right,
24,13,1,1.9329328000003443,['c'],0,right,['8'],4,0.7001113999995141,0.1,0,AccAcc,39,19,Man,Right,
25,13,1,0.7675950000002558,['n'],1,right,['9'],5,0.6334797999998045,0.4,0,AccAcc,39,19,Man,Right,
26,13,1,0.6001178000005893,['c'],1,left,['8'],4,0.6688987999996243,0.1,0,AccAcc,39,19,Man,Right,
27,13,1,0.9842813999994178,['c'],1,left,['9'],5,0.5836138000004212,0.1,0,AccAcc,39,19,Man,Right,
28,13,1,0.6834021000004213,['c'],1,left,['9'],5,0.4524314999998751,0.4,0,AccAcc,39,19,Man,Right,
29,13,1,0.8519143999992593,['n'],1,right,['9'],5,0.45061320000058913,0.1,0,AccAcc,39,19,Man,Right,
30,13,1,0.9832366000000548,['c'],1,left,['9'],5,0.6671348999998372,0.1,0,AccAcc,39,19,Man,Right,
31,13,1,1.0675352999996903,['c'],1,left,['9'],5,0.4513655999999173,0.1,0,AccAcc,39,19,Man,Right,
32,13,1,1.281690400000116,['n'],1,right,['9'],5,0.3841517999999269,0.2,0,AccAcc,39,19,Man,Right,
33,13,1,0.784227699999974,['c'],0,right,['9'],5,0.45203959999980725,0.1,0,AccAcc,39,19,Man,Right,
34,13,1,0.8322237000002133,['n'],1,right,['9'],5,0.5686974000000191,0.4,0,AccAcc,39,19,Man,Right,
35,13,1,0.8843072999998185,['c'],1,left,['9'],5,0.517869399999654,0.1,0,AccAcc,39,19,Man,Right,
36,13,1,0.7993806999993467,['n'],1,right,['0'],6,0.5840016000001924,0.4,0,AccAcc,39,19,Man,Right,
37,13,1,2.0159568999997646,['n'],1,right,['8'],4,0.6672540999998091,0.1,0,AccAcc,39,19,Man,Right,
38,13,1,2.0819141000001764,['c'],0,right,['8'],4,0.5517643000002863,0.2,0,AccAcc,39,19,Man,Right,
39,13,1,1.2172738999997819,['c'],0,right,['8'],4,0.55057510000006,0.4,0,AccAcc,39,19,Man,Right,
40,13,1,1.3492796000000453,['c'],1,left,['8'],4,0.41746100000000297,0.4,0,AccAcc,39,19,Man,Right,
41,13,1,0.9494893000000957,['n'],1,right,['9'],5,0.4852797000003193,0.4,0,AccAcc,39,19,Man,Right,
42,13,1,1.466505700000198,['c'],1,left,['8'],4,0.4019780999997238,0.2,0,AccAcc,39,19,Man,Right,
43,13,1,1.249368499999946,['c'],0,right,['8'],4,0.3848230000003241,0.1,0,AccAcc,39,19,Man,Right,
44,13,1,1.6157924999997704,['n'],0,left,['8'],4,0.40034730000024865,0.4,0,AccAcc,39,19,Man,Right,
45,13,1,2.2990969000002224,['c'],0,right,['8'],4,0.518563699999504,0.2,0,AccAcc,39,19,Man,Right,
46,13,1,0.7335197000002154,['c'],0,right,['8'],4,0.40036869999948976,0.2,0,AccAcc,39,19,Man,Right,
47,13,1,0.6825589999998556,['n'],1,right,['9'],5,0.40093069999966247,0.2,0,AccAcc,39,19,Man,Right,
48,13,1,0.7674563000000489,['c'],0,right,['9'],5,0.618828300000132,0.1,0,AccAcc,39,19,Man,Right,
49,13,1,1.416320899999846,['c'],1,left,['8'],4,0.40221290000044974,0.2,0,AccAcc,39,19,Man,Right,
50,13,1,1.2169148000002679,['c'],1,left,['8'],4,0.649563400000261,0.2,0,AccAcc,39,19,Man,Right,
51,13,1,1.617492399999719,['c'],0,right,['8'],4,0.45230739999988145,0.2,0,AccAcc,39,19,Man,Right,
52,13,1,0.8337854000001244,['c'],1,left,['8'],4,0.5184885999997277,0.2,0,AccAcc,39,19,Man,Right,
53,13,1,1.7824761000001672,['c'],0,right,['8'],4,0.8689007000002675,0.1,0,AccAcc,39,19,Man,Right,
54,13,1,0.7841932999999699,['c'],1,left,['9'],5,0.6173675000000003,0.4,0,AccAcc,39,19,Man,Right,
55,13,1,0.7663095999996585,['c'],1,left,['0'],6,0.6522125000001324,0.4,0,AccAcc,39,19,Man,Right,
56,13,1,0.9834465000003547,['c'],1,left,['9'],5,0.6666451000000961,0.2,0,AccAcc,39,19,Man,Right,
57,13,1,2.666535500000464,['c'],1,left,['8'],4,0.6832232000006115,0.4,0,AccAcc,39,19,Man,Right,
58,13,1,1.3173784999999043,['c'],1,left,['8'],4,0.5014600000004066,0.4,0,AccAcc,39,19,Man,Right,
59,13,1,0.7997498999993695,['c'],1,left,['9'],5,0.9515430000001288,0.4,0,AccAcc,39,19,Man,Right,
0,14,1,0.801030499999797,['c'],1,left,['8'],4,1.3837634999999864,0.4,0,FastAcc,39,19,Man,Right,
1,14,1,0.6841683000002377,['n'],1,right,['9'],5,1.3183552999998938,0.4,0,FastAcc,39,19,Man,Right,
2,14,1,0.4839393000002019,['c'],0,right,['3'],3,1.6833126000001357,0.2,0,FastAcc,39,19,Man,Right,
3,14,1,0.5675893999996333,['c'],1,left,['9'],5,1.43399429999954,0.4,0,FastAcc,39,19,Man,Right,
4,14,1,0.48387280000042665,['c'],1,left,['8'],4,1.3344458999999915,0.1,0,FastAcc,39,19,Man,Right,
5,14,1,1.0167749000002004,['c'],1,left,['8'],4,1.9159292000003916,0.4,0,FastAcc,39,19,Man,Right,
6,14,1,0.45094369999969786,['n'],1,right,['9'],5,1.3011999000000287,0.2,0,FastAcc,39,19,Man,Right,
7,14,1,0.6677222999996957,['c'],1,left,['9'],5,0.6181312999997317,0.2,0,FastAcc,39,19,Man,Right,
8,14,1,0.5823288000001412,['n'],1,right,['9'],5,1.217543800000385,0.4,0,FastAcc,39,19,Man,Right,
9,14,1,0.6352305000000342,['c'],0,right,['2'],2,2.0169269999996686,0.4,0,FastAcc,39,19,Man,Right,
10,14,1,0.9163847999998325,['c'],0,right,['9'],5,1.2842410000002928,0.2,0,FastAcc,39,19,Man,Right,
11,14,1,0.783010799999829,['n'],0,left,['8'],4,2.3679548999998588,0.2,0,FastAcc,39,19,Man,Right,
12,14,1,1.70079319999968,['c'],0,right,['9'],5,0.7847627000001012,0.4,0,FastAcc,39,19,Man,Right,
13,14,1,0.5501150999998572,['n'],1,right,['3'],3,0.9024797000001854,0.1,0,FastAcc,39,19,Man,Right,
14,14,1,0.4836492999993425,['c'],1,left,['9'],5,1.250260800000433,0.2,0,FastAcc,39,19,Man,Right,
15,14,1,0.5002880000001824,['c'],0,right,['8'],4,1.3180666000007477,0.1,0,FastAcc,39,19,Man,Right,
16,14,1,0.46562790000007226,['c'],1,left,['9'],5,1.467885600000045,0.1,0,FastAcc,39,19,Man,Right,
17,14,1,0.7011601000003793,['n'],1,right,['9'],5,1.401202000000012,0.2,0,FastAcc,39,19,Man,Right,
18,14,1,0.6331589999999778,['c'],1,left,['9'],5,1.1679838000000018,0.4,0,FastAcc,39,19,Man,Right,
19,14,1,0.5503911000005246,['c'],1,left,['8'],4,0.7500448000000688,0.1,0,FastAcc,39,19,Man,Right,
20,14,1,0.5001720000000205,['n'],1,right,['3'],3,1.7015248000006977,0.4,0,FastAcc,39,19,Man,Right,
21,14,1,0.516495599999871,['c'],1,left,['8'],4,0.8506830999995145,0.1,0,FastAcc,39,19,Man,Right,
22,14,1,0.5337558000001081,['n'],1,right,['3'],3,1.0179870000001756,0.1,0,FastAcc,39,19,Man,Right,
23,14,1,0.6352772999998706,['c'],1,left,['8'],4,0.5997779999997874,0.2,0,FastAcc,39,19,Man,Right,
24,14,1,0.4510958999999275,['n'],1,right,['9'],5,0.984548100000211,0.4,0,FastAcc,39,19,Man,Right,
25,14,1,0.3661018000002514,['c'],1,left,['9'],5,1.602793600000041,0.4,0,FastAcc,39,19,Man,Right,
26,14,1,0.4177730999999767,['c'],1,left,['8'],4,1.3003267999993113,0.4,0,FastAcc,39,19,Man,Right,
27,14,1,0.6007293000002392,['c'],1,left,['9'],5,0.884137500000179,0.1,0,FastAcc,39,19,Man,Right,
28,14,1,0.6005408000000898,['c'],1,left,['8'],4,0.5180498999998235,0.4,0,FastAcc,39,19,Man,Right,
29,14,1,0.5998960999995688,['c'],1,left,['8'],4,0.6174177000002601,0.2,0,FastAcc,39,19,Man,Right,
30,14,1,0.7184001000005082,['c'],1,left,['9'],5,0.4013857999998436,0.1,0,FastAcc,39,19,Man,Right,
31,14,1,0.6170360999994955,['n'],1,right,['3'],3,1.4342649999998685,0.1,0,FastAcc,39,19,Man,Right,
32,14,1,0.6837021000001187,['n'],1,right,['8'],4,0.7346839000001637,0.1,0,FastAcc,39,19,Man,Right,
33,14,1,0.665404700000181,['n'],1,right,['9'],5,0.7175295999995797,0.4,0,FastAcc,39,19,Man,Right,
34,14,1,0.7511081999991802,['c'],0,right,['8'],4,1.5176495999994586,0.1,0,FastAcc,39,19,Man,Right,
35,14,1,0.43566809999992984,['n'],1,right,['9'],5,0.9012182000005851,0.4,0,FastAcc,39,19,Man,Right,
36,14,1,0.6004475999998249,['c'],1,left,['8'],4,0.5175161999995908,0.1,0,FastAcc,39,19,Man,Right,
37,14,1,0.6157659999998941,['n'],1,right,['9'],5,0.8845959000000221,0.2,0,FastAcc,39,19,Man,Right,
38,14,1,0.6495794999991631,['n'],1,right,['3'],3,0.8188455999998041,0.2,0,FastAcc,39,19,Man,Right,
39,14,1,0.6324452999997447,['n'],1,right,['9'],5,0.8343581999997696,0.4,0,FastAcc,39,19,Man,Right,
40,14,1,0.6996615000007296,['c'],1,left,['9'],5,0.6189806000002136,0.4,0,FastAcc,39,19,Man,Right,
41,14,1,0.7480484999996406,['n'],0,left,['9'],5,0.5027857000004587,0.2,0,FastAcc,39,19,Man,Right,
42,14,1,1.4489453999995021,['c'],0,right,['9'],5,1.0021253000004435,0.1,0,FastAcc,39,19,Man,Right,
43,14,1,0.5657224000005954,['n'],0,left,['8'],4,1.1349420999995345,0.2,0,FastAcc,39,19,Man,Right,
44,14,1,0.6835947999998098,['c'],0,right,['9'],5,0.9500528000007762,0.1,0,FastAcc,39,19,Man,Right,
45,14,1,0.484485300000415,['c'],1,left,['8'],4,0.9500508999999511,0.2,0,FastAcc,39,19,Man,Right,
46,14,1,0.4665830999992977,['n'],0,left,['3'],3,1.0177409999996598,0.4,0,FastAcc,39,19,Man,Right,
47,14,1,0.5497049999994488,['c'],0,right,['9'],5,1.4017393000003722,0.2,0,FastAcc,39,19,Man,Right,
48,14,1,0.6175493000000642,['n'],1,right,['9'],5,1.1177519000002576,0.1,0,FastAcc,39,19,Man,Right,
49,14,1,1.0669843999994555,['c'],1,left,['8'],4,0.8014379000005647,0.2,0,FastAcc,39,19,Man,Right,
50,14,1,0.6004155000000537,['c'],1,left,['8'],4,1.0848989000005531,0.1,0,FastAcc,39,19,Man,Right,
51,14,1,0.6338545000007798,['c'],1,left,['9'],5,0.6679579000001468,0.4,0,FastAcc,39,19,Man,Right,
52,14,1,0.9492075999996814,['c'],1,left,['8'],4,1.6188226000003851,0.2,0,FastAcc,39,19,Man,Right,
53,14,1,0.5336600000000544,['n'],1,right,['9'],5,1.2683669000007285,0.2,0,FastAcc,39,19,Man,Right,
54,14,1,0.5678479000007428,['n'],1,right,['3'],3,1.0181713000001764,0.1,0,FastAcc,39,19,Man,Right,
55,14,1,0.916923400000087,['n'],1,right,['9'],5,1.0348088999999163,0.2,0,FastAcc,39,19,Man,Right,
56,14,1,2.166766400000597,['c'],1,left,['9'],5,1.0179944999999861,0.4,0,FastAcc,39,19,Man,Right,
57,14,1,0.6831819999997606,['n'],1,right,['8'],4,0.7344890999993368,0.2,0,FastAcc,39,19,Man,Right,
58,14,1,0.7338813000005757,['n'],1,right,['3'],3,0.9174117000002298,0.1,0,FastAcc,39,19,Man,Right,
59,14,1,0.6338230000001204,['n'],0,left,['9'],5,1.0833996999999727,0.1,0,FastAcc,39,19,Man,Right,
0,15,1,0.616204299999481,['n'],1,right,['9'],5,0.4844596000002639,0.4,0,FastFast,39,19,Man,Right,
1,15,1,0.7316419999997379,['n'],0,left,['3'],3,0.5523302000001422,0.1,0,FastFast,39,19,Man,Right,
2,15,1,0.5505186999998841,['c'],0,right,['9'],5,0.4845393999994485,0.2,0,FastFast,39,19,Man,Right,
3,15,1,0.5831313999997292,['n'],1,right,['3'],3,0.9832138000001578,0.2,0,FastFast,39,19,Man,Right,
4,15,1,0.6014080000004469,['c'],0,right,['8'],4,0.5854564999999639,0.2,0,FastFast,39,19,Man,Right,
5,15,1,0.7660286000000269,['n'],0,left,['9'],5,0.5013372000003073,0.1,0,FastFast,39,19,Man,Right,
6,15,1,0.9842446000002383,['n'],1,right,['9'],5,0.6849595000003319,0.2,0,FastFast,39,19,Man,Right,
7,15,1,0.8327172999997856,['n'],1,right,['8'],4,0.6013217999998233,0.4,0,FastFast,39,19,Man,Right,
8,15,1,0.5492084999996223,['c'],1,left,['9'],5,0.6004550999996354,0.2,0,FastFast,39,19,Man,Right,
9,15,1,0.6010156000002098,['c'],1,left,['8'],4,0.6182490000001053,0.1,0,FastFast,39,19,Man,Right,
10,15,1,0.6487395000003744,['n'],1,right,['8'],4,0.3841054999993503,0.2,0,FastFast,39,19,Man,Right,
11,15,1,0.6522279999999228,['n'],0,left,['8'],4,0.41669550000005984,0.1,0,FastFast,39,19,Man,Right,
12,15,1,0.5335610000001907,['c'],0,right,['9'],5,0.4187111000001096,0.4,0,FastFast,39,19,Man,Right,
13,15,1,0.6504205999999613,['n'],0,left,['2'],2,0.9847474000007423,0.1,0,FastFast,39,19,Man,Right,
14,15,1,0.6170622999998159,['n'],0,left,['3'],3,0.9332922999992661,0.1,0,FastFast,39,19,Man,Right,
15,15,1,0.6510130999995454,['c'],1,left,['9'],5,1.150035900000148,0.4,0,FastFast,39,19,Man,Right,
16,15,1,0.8836881999995967,['c'],0,right,['9'],5,0.6346800000001167,0.1,0,FastFast,39,19,Man,Right,
17,15,1,0.5996181000000433,['c'],1,left,['9'],5,0.5847322999998141,0.2,0,FastFast,39,19,Man,Right,
18,15,1,0.7009581000002072,['c'],0,right,['2'],2,0.8839803999999276,0.4,0,FastFast,39,19,Man,Right,
19,15,1,0.6499687999994421,['n'],1,right,['9'],5,0.5853538000001208,0.4,0,FastFast,39,19,Man,Right,
20,15,1,0.8502284000005602,['n'],1,right,['3'],3,0.6348284999994576,0.4,0,FastFast,39,19,Man,Right,
21,15,1,0.6162545000006503,['c'],1,left,['9'],5,0.5184546999998929,0.1,0,FastFast,39,19,Man,Right,
22,15,1,0.5838610000000699,['n'],1,right,['8'],4,0.46805419999964215,0.2,0,FastFast,39,19,Man,Right,
23,15,1,0.46726740000030986,['c'],1,left,['0'],6,0.9347334999993109,0.4,0,FastFast,39,19,Man,Right,
24,15,1,0.765818500000023,['c'],1,left,['9'],5,0.4686813999996957,0.2,0,FastFast,39,19,Man,Right,
25,15,1,0.7991028000005826,['c'],1,left,['9'],5,0.368720100000246,0.2,0,FastFast,39,19,Man,Right,
26,15,1,0.5838156999998318,['n'],1,right,['0'],6,0.46678479999991396,0.4,0,FastFast,39,19,Man,Right,
27,15,1,1.2349967000000106,['n'],1,right,['8'],4,0.6338897999994515,0.2,0,FastFast,39,19,Man,Right,
28,15,1,0.7505536999997275,['c'],1,left,['9'],5,0.4012373999994452,0.2,0,FastFast,39,19,Man,Right,
29,15,1,0.5159512999998697,['c'],1,left,['9'],5,0.3839492999995855,0.1,0,FastFast,39,19,Man,Right,
30,15,1,0.5170963999999003,['c'],1,left,['9'],5,0.46816909999961354,0.1,0,FastFast,39,19,Man,Right,
31,15,1,0.6006317999999737,['c'],0,right,['8'],4,0.48457090000010794,0.1,0,FastFast,39,19,Man,Right,
32,15,1,0.7003631000006862,['n'],1,right,['9'],5,0.3837038000001485,0.4,0,FastFast,39,19,Man,Right,
33,15,1,0.7839833999996699,['c'],0,right,['8'],4,0.534838800000216,0.1,0,FastFast,39,19,Man,Right,
34,15,1,0.7671580999995058,['n'],1,right,['9'],5,0.5670651000000362,0.2,0,FastFast,39,19,Man,Right,
35,15,1,0.7677567000000636,['c'],1,left,['9'],5,0.41690100000050734,0.1,0,FastFast,39,19,Man,Right,
36,15,1,0.6663080999996964,['c'],1,left,['9'],5,0.40145829999983107,0.4,0,FastFast,39,19,Man,Right,
37,15,1,0.5994009999994887,['c'],1,left,['8'],4,0.3685419000003094,0.1,0,FastFast,39,19,Man,Right,
38,15,1,0.6167132000000493,['c'],1,left,['9'],5,0.4518892000005508,0.2,0,FastFast,39,19,Man,Right,
39,15,1,0.5835489000000962,['c'],1,left,['9'],5,0.38492179999957443,0.4,0,FastFast,39,19,Man,Right,
40,15,1,0.6327459999993152,['n'],1,right,['9'],5,0.3680016999996951,0.4,0,FastFast,39,19,Man,Right,
41,15,1,0.8335157999999865,['c'],1,left,['9'],5,0.43338630000016565,0.4,0,FastFast,39,19,Man,Right,
42,15,1,0.7170386999996481,['c'],0,right,['8'],4,0.40067210000052,0.1,0,FastFast,39,19,Man,Right,
43,15,1,0.6502385000003414,['c'],0,right,['8'],4,0.40021530000012717,0.2,0,FastFast,39,19,Man,Right,
44,15,1,0.8164372999999614,['c'],1,left,['9'],5,0.4015332999997554,0.1,0,FastFast,39,19,Man,Right,
45,15,1,0.616983099999743,['c'],0,right,['9'],5,0.434555900000305,0.2,0,FastFast,39,19,Man,Right,
46,15,1,0.615912300000673,['c'],1,left,['9'],5,0.3015196999995169,0.2,0,FastFast,39,19,Man,Right,
47,15,1,0.7341698999998698,['c'],1,left,['9'],5,0.2679648000002999,0.4,0,FastFast,39,19,Man,Right,
48,15,1,0.6502181000005294,['c'],1,left,['9'],5,0.3017884000000777,0.4,0,FastFast,39,19,Man,Right,
49,15,1,0.7330515000003288,['c'],1,left,['9'],5,0.5342259999997623,0.2,0,FastFast,39,19,Man,Right,
50,15,1,0.7009539000000586,['c'],0,right,['8'],4,0.45182800000020507,0.1,0,FastFast,39,19,Man,Right,
51,15,1,1.067425600000206,['n'],1,right,['8'],4,0.6837040999998862,0.2,0,FastFast,39,19,Man,Right,
52,15,1,0.61706520000007,['c'],0,right,['8'],4,0.602014600000075,0.1,0,FastFast,39,19,Man,Right,
53,15,1,0.6822157000005973,['c'],1,left,['8'],4,0.45223600000008446,0.1,0,FastFast,39,19,Man,Right,
54,15,1,0.6006471000000602,['c'],0,right,['2'],2,1.00133040000037,0.4,0,FastFast,39,19,Man,Right,
55,15,1,0.6995634000004429,['c'],1,left,['9'],5,0.5849293999999645,0.4,0,FastFast,39,19,Man,Right,
56,15,1,0.6342236999998931,['n'],1,right,['9'],5,0.3836156999996092,0.4,0,FastFast,39,19,Man,Right,
57,15,1,0.8837304999997286,['c'],1,left,['9'],5,0.3522691999996823,0.1,0,FastFast,39,19,Man,Right,
58,15,1,1.1836349000004702,['c'],0,right,['8'],4,0.5014398999992409,0.4,0,FastFast,39,19,Man,Right,
59,15,1,0.9333371000002444,['c'],0,right,['9'],5,0.2852609000001394,0.2,0,FastFast,39,19,Man,Right,
