withinblocktrial,block,block_repetition,rt,resp,cor,cresp,conf_press,cj,rtconf,coherence,slow_trial,manipulation,sub,age,gender,handedness,
0,1,1,2.150881899999149,['c'],0,right,none,-99,-99,0.5,0,none,18,18,Woman,Right,
1,1,1,0.9345226000004914,['n'],1,right,none,-99,-99,0.5,0,none,18,18,Woman,Right,
2,1,1,0.8345296999996208,['c'],1,left,none,-99,-99,0.5,0,none,18,18,Woman,Right,
3,1,1,2.032528199999433,['c'],1,left,none,-99,-99,0.5,0,none,18,18,Woman,Right,
4,1,1,0.7505892999997741,['n'],1,right,none,-99,-99,0.5,0,none,18,18,Woman,Right,
5,1,1,0.7505767000002379,['c'],1,left,none,-99,-99,0.5,0,none,18,18,Woman,Right,
6,1,1,0.7161142999993899,['n'],1,right,none,-99,-99,0.5,0,none,18,18,Woman,Right,
7,1,1,0.9489496999995026,['n'],1,right,none,-99,-99,0.5,0,none,18,18,Woman,Right,
8,1,1,1.6515933999999106,['n'],1,right,none,-99,-99,0.5,0,none,18,18,Woman,Right,
9,1,1,0.9337470999998914,['c'],1,left,none,-99,-99,0.5,0,none,18,18,Woman,Right,
10,1,1,0.9844267999997101,['c'],1,left,none,-99,-99,0.5,0,none,18,18,Woman,Right,
11,1,1,1.8674960999996983,['n'],0,left,none,-99,-99,0.5,0,none,18,18,Woman,Right,
12,1,1,0.9169987000004767,['c'],1,left,none,-99,-99,0.5,0,none,18,18,Woman,Right,
13,1,1,0.9331640000000334,['c'],1,left,none,-99,-99,0.5,0,none,18,18,Woman,Right,
14,1,1,0.7180214999989403,['n'],1,right,none,-99,-99,0.5,0,none,18,18,Woman,Right,
15,1,1,0.7503629000002547,['n'],1,right,none,-99,-99,0.5,0,none,18,18,Woman,Right,
16,1,1,0.7827023999998346,['n'],1,right,none,-99,-99,0.5,0,none,18,18,Woman,Right,
17,1,1,0.6829431999994995,['c'],1,left,none,-99,-99,0.5,0,none,18,18,Woman,Right,
18,1,1,0.6343543999992107,['n'],1,right,none,-99,-99,0.5,0,none,18,18,Woman,Right,
19,1,1,0.7324664999996457,['c'],1,left,none,-99,-99,0.5,0,none,18,18,Woman,Right,
20,1,1,0.5517128999999841,['c'],1,left,none,-99,-99,0.5,0,none,18,18,Woman,Right,
21,1,1,0.6347262999988743,['n'],1,right,none,-99,-99,0.5,0,none,18,18,Woman,Right,
22,1,1,0.665722800000367,['n'],1,right,none,-99,-99,0.5,0,none,18,18,Woman,Right,
23,1,1,0.4824678999993921,['c'],1,left,none,-99,-99,0.5,0,none,18,18,Woman,Right,
0,2,1,1.0518339000009291,['c'],0,right,none,-99,-99,0.1,0,none,18,18,Woman,Right,
1,2,1,0.6011387000016839,['n'],1,right,none,-99,-99,0.2,0,none,18,18,Woman,Right,
2,2,1,0.7510932999994111,['c'],1,left,none,-99,-99,0.2,0,none,18,18,Woman,Right,
3,2,1,0.5664590999986103,['n'],1,right,none,-99,-99,0.1,0,none,18,18,Woman,Right,
4,2,1,0.8840976999999839,['n'],1,right,none,-99,-99,0.1,0,none,18,18,Woman,Right,
5,2,1,0.8336847999999009,['c'],1,left,none,-99,-99,0.2,0,none,18,18,Woman,Right,
6,2,1,1.2168471000004502,['n'],1,right,none,-99,-99,0.1,0,none,18,18,Woman,Right,
7,2,1,0.5337097999999969,['c'],1,left,none,-99,-99,0.4,0,none,18,18,Woman,Right,
8,2,1,0.6167141000005358,['c'],1,left,none,-99,-99,0.4,0,none,18,18,Woman,Right,
9,2,1,0.8677631000009569,['n'],0,left,none,-99,-99,0.1,0,none,18,18,Woman,Right,
10,2,1,0.8486799000002065,['n'],1,right,none,-99,-99,0.4,0,none,18,18,Woman,Right,
11,2,1,0.5837219999993977,['c'],1,left,none,-99,-99,0.4,0,none,18,18,Woman,Right,
12,2,1,1.6670052000008582,['c'],1,left,none,-99,-99,0.1,0,none,18,18,Woman,Right,
13,2,1,0.7009942999993655,['n'],1,right,none,-99,-99,0.2,0,none,18,18,Woman,Right,
14,2,1,0.8013699000002816,['n'],1,right,none,-99,-99,0.4,0,none,18,18,Woman,Right,
15,2,1,0.6350703999996767,['c'],1,left,none,-99,-99,0.2,0,none,18,18,Woman,Right,
16,2,1,0.6837778000008257,['n'],1,right,none,-99,-99,0.2,0,none,18,18,Woman,Right,
17,2,1,1.0825275000006513,['c'],1,left,none,-99,-99,0.2,0,none,18,18,Woman,Right,
18,2,1,1.151251900000716,['c'],1,left,none,-99,-99,0.1,0,none,18,18,Woman,Right,
19,2,1,0.5845364999986487,['c'],1,left,none,-99,-99,0.4,0,none,18,18,Woman,Right,
20,2,1,0.567670200000066,['n'],1,right,none,-99,-99,0.1,0,none,18,18,Woman,Right,
21,2,1,0.6503317999995488,['c'],1,left,none,-99,-99,0.2,0,none,18,18,Woman,Right,
22,2,1,0.617597399999795,['n'],1,right,none,-99,-99,0.4,0,none,18,18,Woman,Right,
23,2,1,0.7004701000005298,['n'],1,right,none,-99,-99,0.4,0,none,18,18,Woman,Right,
0,3,1,2.0183348000009573,['c'],1,left,['3'],4,2.3346347999995487,0.2,0,none,18,18,Woman,Right,
1,3,1,1.3499391000004834,['n'],1,right,['1'],6,1.3176992000007886,0.4,0,none,18,18,Woman,Right,
2,3,1,2.5674164000010933,['c'],0,right,['2'],5,1.3013376999988395,0.1,0,none,18,18,Woman,Right,
3,3,1,1.2831031999994593,['c'],1,left,['1'],6,0.98489840000002,0.4,0,none,18,18,Woman,Right,
4,3,1,1.5324701000008645,['n'],1,right,['1'],6,0.750392699999793,0.4,0,none,18,18,Woman,Right,
5,3,1,1.516557400000238,['c'],1,left,['1'],6,0.5839622999992571,0.2,0,none,18,18,Woman,Right,
6,3,1,1.2995035999992979,['n'],1,right,['1'],6,0.5351296000008006,0.2,0,none,18,18,Woman,Right,
7,3,1,0.7840823999995337,['c'],1,left,['1'],6,0.568049700001211,0.4,0,none,18,18,Woman,Right,
8,3,1,1.2187352999990253,['c'],1,left,['2'],5,0.7680448999999498,0.1,0,none,18,18,Woman,Right,
9,3,1,1.9017617999998038,['c'],1,left,['2'],5,0.7683415999999852,0.2,0,none,18,18,Woman,Right,
10,3,1,0.967309399999067,['c'],0,right,['2'],5,1.0010975000004692,0.1,0,none,18,18,Woman,Right,
11,3,1,1.3176062000002275,['n'],1,right,['2'],5,1.0174716000001354,0.1,0,none,18,18,Woman,Right,
12,3,1,1.19952209999974,['c'],1,left,['1'],6,0.5192979000003106,0.4,0,none,18,18,Woman,Right,
13,3,1,0.8009534000011627,['c'],1,left,['1'],6,0.6679774999993242,0.2,0,none,18,18,Woman,Right,
14,3,1,1.0340051999992284,['n'],1,right,['1'],6,0.40149139999994077,0.2,0,none,18,18,Woman,Right,
15,3,1,1.5818530000015016,['n'],1,right,['2'],5,0.6862165000002278,0.4,0,none,18,18,Woman,Right,
16,3,1,0.9510105999997904,['n'],1,right,['1'],6,0.31677469999885943,0.4,0,none,18,18,Woman,Right,
17,3,1,1.718838599999799,['c'],1,left,['2'],5,0.41804750000119384,0.1,0,none,18,18,Woman,Right,
18,3,1,1.065141400000357,['c'],1,left,['1'],6,0.38561850000041886,0.1,0,none,18,18,Woman,Right,
19,3,1,1.9664996999999858,['n'],0,left,['3'],4,0.9667650999999751,0.2,0,none,18,18,Woman,Right,
20,3,1,1.5330033999998705,['n'],1,right,['3'],4,0.9346503999986453,0.1,0,none,18,18,Woman,Right,
21,3,1,1.1675312999996095,['c'],0,right,['1'],6,0.40130910000152653,0.2,0,none,18,18,Woman,Right,
22,3,1,1.2651585000003251,['c'],1,left,['2'],5,0.4843724000002112,0.4,0,none,18,18,Woman,Right,
23,3,1,2.9509228999995685,['n'],1,right,['3'],4,0.48524519999955373,0.1,0,none,18,18,Woman,Right,
0,4,1,1.3845741000004637,['c'],1,left,['2'],5,0.9179925999997067,0.4,0,FastAcc,18,18,Woman,Right,
1,4,1,1.1342378000008466,['n'],0,left,['2'],5,0.4004653000010876,0.2,0,FastAcc,18,18,Woman,Right,
2,4,1,0.9318629000008514,['n'],1,right,['3'],4,0.6174750000009226,0.2,0,FastAcc,18,18,Woman,Right,
3,4,1,1.019118800000797,['c'],1,left,['1'],6,0.33551470000020345,0.1,0,FastAcc,18,18,Woman,Right,
4,4,1,1.0171740999994654,['c'],1,left,['1'],6,0.26732609999999113,0.4,0,FastAcc,18,18,Woman,Right,
5,4,1,0.8173038999993878,['c'],1,left,['2'],5,0.31706279999889375,0.1,0,FastAcc,18,18,Woman,Right,
6,4,1,0.8669300000001385,['c'],1,left,['3'],4,0.5351234000008844,0.1,0,FastAcc,18,18,Woman,Right,
7,4,1,0.8504362000003312,['c'],1,left,['1'],6,0.29933119999986957,0.4,0,FastAcc,18,18,Woman,Right,
8,4,1,0.7342238000001089,['c'],1,left,['1'],6,0.33480620000045747,0.2,0,FastAcc,18,18,Woman,Right,
9,4,1,0.5984680999990815,['c'],1,left,['1'],6,0.3007323000001634,0.1,0,FastAcc,18,18,Woman,Right,
10,4,1,0.9178253000009136,['n'],1,right,['1'],6,0.2850341000012122,0.2,0,FastAcc,18,18,Woman,Right,
11,4,1,0.7822689000004175,['c'],1,left,['2'],5,0.2520143999990978,0.2,0,FastAcc,18,18,Woman,Right,
12,4,1,0.7172804000001634,['c'],1,left,['1'],6,0.28461759999845526,0.4,0,FastAcc,18,18,Woman,Right,
13,4,1,0.8495275999994192,['c'],1,left,['2'],5,0.2679033000003983,0.2,0,FastAcc,18,18,Woman,Right,
14,4,1,1.0159931999987748,['c'],1,left,['2'],5,0.30258729999877687,0.1,0,FastAcc,18,18,Woman,Right,
15,4,1,0.7667054000012286,['c'],1,left,['1'],6,0.2671243000004324,0.4,0,FastAcc,18,18,Woman,Right,
16,4,1,0.5845145000002958,['c'],1,left,['1'],6,0.3013640999997733,0.4,0,FastAcc,18,18,Woman,Right,
17,4,1,0.7503149999993184,['n'],1,right,['1'],6,0.3334285999990243,0.2,0,FastAcc,18,18,Woman,Right,
18,4,1,0.6176942999991297,['n'],1,right,['1'],6,0.3678163999993558,0.4,0,FastAcc,18,18,Woman,Right,
19,4,1,1.1847359000003053,['c'],0,right,['2'],5,0.3347745999999461,0.1,0,FastAcc,18,18,Woman,Right,
20,4,1,1.4495504000005894,['c'],1,left,['1'],6,0.2682996000003186,0.4,0,FastAcc,18,18,Woman,Right,
21,4,1,0.8493906000003335,['c'],1,left,['2'],5,0.46792480000112846,0.4,0,FastAcc,18,18,Woman,Right,
22,4,1,0.9337668999996822,['c'],1,left,['2'],5,0.4003892000000633,0.2,0,FastAcc,18,18,Woman,Right,
23,4,1,0.967180699999517,['c'],1,left,['3'],4,0.8847661999989214,0.2,0,FastAcc,18,18,Woman,Right,
24,4,1,0.7677664000002551,['n'],1,right,['1'],6,0.33368239999981597,0.4,0,FastAcc,18,18,Woman,Right,
25,4,1,1.084429700000328,['c'],0,right,['2'],5,0.5346826000004512,0.1,0,FastAcc,18,18,Woman,Right,
26,4,1,0.9161793000002945,['n'],1,right,['1'],6,0.30138129999977536,0.2,0,FastAcc,18,18,Woman,Right,
27,4,1,1.0014550000014424,['c'],1,left,['2'],5,0.3347673999996914,0.1,0,FastAcc,18,18,Woman,Right,
28,4,1,1.0830912000001263,['n'],1,right,['8'],3,1.034689400001298,0.1,0,FastAcc,18,18,Woman,Right,
29,4,1,1.0003715000002558,['n'],1,right,['1'],6,0.284838800000216,0.2,0,FastAcc,18,18,Woman,Right,
30,4,1,0.7671028999993723,['n'],1,right,['1'],6,0.31848840000020573,0.4,0,FastAcc,18,18,Woman,Right,
31,4,1,1.066009899999699,['n'],0,left,['2'],5,0.41811889999917184,0.1,0,FastAcc,18,18,Woman,Right,
32,4,1,1.233299999999872,['c'],0,right,['3'],4,0.7838140000003477,0.1,0,FastAcc,18,18,Woman,Right,
33,4,1,1.001014399998894,['n'],1,right,['3'],4,0.5680506999997306,0.2,0,FastAcc,18,18,Woman,Right,
34,4,1,0.9674895999996806,['c'],1,left,['2'],5,1.11752929999966,0.1,0,FastAcc,18,18,Woman,Right,
35,4,1,1.1321953999995458,['c'],0,right,['2'],5,0.40255339999930584,0.2,0,FastAcc,18,18,Woman,Right,
36,4,1,1.1010646000013367,['n'],1,right,['3'],4,1.1833857999990869,0.1,0,FastAcc,18,18,Woman,Right,
37,4,1,1.500303700000586,['n'],1,right,['3'],4,1.0013383999994403,0.4,0,FastAcc,18,18,Woman,Right,
38,4,1,0.6677325999989989,['c'],1,left,['1'],6,0.2853658000003634,0.4,0,FastAcc,18,18,Woman,Right,
39,4,1,0.9174977999991825,['c'],1,left,['1'],6,0.25160950000099547,0.4,0,FastAcc,18,18,Woman,Right,
40,4,1,1.4664166999991721,['c'],0,right,['2'],5,0.3013852999993105,0.1,0,FastAcc,18,18,Woman,Right,
41,4,1,1.1337960000000749,['n'],0,left,['3'],4,0.31806779999897117,0.2,0,FastAcc,18,18,Woman,Right,
42,4,1,1.1004566999999952,['c'],0,right,['3'],4,0.35132309999971767,0.1,0,FastAcc,18,18,Woman,Right,
43,4,1,1.0669871999998577,['n'],1,right,['1'],6,0.4681848000000173,0.2,0,FastAcc,18,18,Woman,Right,
44,4,1,1.7178000000003522,['n'],1,right,['2'],5,0.4680761999989045,0.2,0,FastAcc,18,18,Woman,Right,
45,4,1,1.0987626000005548,['n'],1,right,['3'],4,0.33441039999888744,0.1,0,FastAcc,18,18,Woman,Right,
46,4,1,0.7676179000009142,['n'],1,right,['1'],6,0.2514578000009351,0.4,0,FastAcc,18,18,Woman,Right,
47,4,1,0.8844505999986723,['n'],0,left,['2'],5,0.39995640000051935,0.1,0,FastAcc,18,18,Woman,Right,
48,4,1,0.7180905999994138,['n'],1,right,['1'],6,0.21808729999975185,0.4,0,FastAcc,18,18,Woman,Right,
49,4,1,1.0003985000003013,['c'],1,left,['1'],6,0.5848247000012634,0.1,0,FastAcc,18,18,Woman,Right,
50,4,1,0.8670944000004965,['n'],1,right,['1'],6,0.26848040000004403,0.2,0,FastAcc,18,18,Woman,Right,
51,4,1,0.8824098000004597,['n'],0,left,['2'],5,0.40228449999995064,0.2,0,FastAcc,18,18,Woman,Right,
52,4,1,1.5993171999998594,['c'],1,left,['1'],6,0.46883530000013707,0.4,0,FastAcc,18,18,Woman,Right,
53,4,1,0.8988059999992402,['n'],1,right,['1'],6,0.3028231999996933,0.2,0,FastAcc,18,18,Woman,Right,
54,4,1,0.7850269000009575,['c'],1,left,['2'],5,0.3180744000001141,0.2,0,FastAcc,18,18,Woman,Right,
55,4,1,0.7999158000002353,['n'],1,right,['2'],5,0.38458619999983057,0.1,0,FastAcc,18,18,Woman,Right,
56,4,1,0.5654650999986188,['n'],1,right,['1'],6,0.33437290000074427,0.4,0,FastAcc,18,18,Woman,Right,
57,4,1,0.9672185000017635,['n'],1,right,['3'],4,0.23550230000000738,0.4,0,FastAcc,18,18,Woman,Right,
58,4,1,0.8505980999998428,['n'],1,right,['2'],5,0.21851749999950698,0.1,0,FastAcc,18,18,Woman,Right,
59,4,1,0.8499561000007816,['n'],1,right,['1'],6,0.3340788999994402,0.4,0,FastAcc,18,18,Woman,Right,
0,5,1,1.166042799999559,['c'],0,right,['1'],6,0.468960899999729,0.1,0,FastFast,18,18,Woman,Right,
1,5,1,0.884202400000504,['n'],1,right,['2'],5,0.26853289999962726,0.2,0,FastFast,18,18,Woman,Right,
2,5,1,0.7327015999999276,['c'],1,left,['3'],4,0.2690198000000237,0.2,0,FastFast,18,18,Woman,Right,
3,5,1,0.7329893999994965,['n'],0,left,['2'],5,0.35220029999982216,0.2,0,FastFast,18,18,Woman,Right,
4,5,1,0.8182294999987789,['c'],1,left,['2'],5,0.5346766999991814,0.2,0,FastFast,18,18,Woman,Right,
5,5,1,0.7331573999999819,['c'],1,left,['3'],4,0.3345808999984001,0.2,0,FastFast,18,18,Woman,Right,
6,5,1,1.0004512000014074,['c'],1,left,['1'],6,0.8013000999999349,0.4,0,FastFast,18,18,Woman,Right,
7,5,1,0.8497791999998299,['c'],1,left,['8'],3,0.3523882000008598,0.1,0,FastFast,18,18,Woman,Right,
8,5,1,1.265872500000114,['n'],1,right,['2'],5,0.36894410000058997,0.1,0,FastFast,18,18,Woman,Right,
9,5,1,2.5816419000002497,['n'],1,right,['8'],3,0.3020636999990529,0.4,0,FastFast,18,18,Woman,Right,
10,5,1,1.1163651000006212,['n'],1,right,['1'],6,0.3002816999996867,0.4,0,FastFast,18,18,Woman,Right,
11,5,1,1.199065900000278,['n'],1,right,['1'],6,0.8686794000004738,0.4,0,FastFast,18,18,Woman,Right,
12,5,1,1.3822522000009485,['c'],1,left,['1'],6,0.3339883999997255,0.4,0,FastFast,18,18,Woman,Right,
13,5,1,1.8829534999986208,['c'],0,right,['1'],6,0.4850736999997025,0.1,0,FastFast,18,18,Woman,Right,
14,5,1,1.8158729999995558,['n'],0,left,['3'],4,0.36592670000027283,0.2,0,FastFast,18,18,Woman,Right,
15,5,1,1.3672659999992902,['c'],1,left,['3'],4,0.36794580000059796,0.1,0,FastFast,18,18,Woman,Right,
16,5,1,1.4006315999995422,['c'],1,left,['1'],6,0.33472269999947457,0.4,0,FastFast,18,18,Woman,Right,
17,5,1,2.165523599998778,['n'],1,right,['3'],4,0.5358438000002934,0.4,0,FastFast,18,18,Woman,Right,
18,5,1,0.9674247000002651,['c'],0,right,['3'],4,0.4165757000009762,0.4,0,FastFast,18,18,Woman,Right,
19,5,1,1.2346032000004925,['c'],1,left,['1'],6,0.3181053000007523,0.2,0,FastFast,18,18,Woman,Right,
20,5,1,1.433017600000312,['c'],0,right,['2'],5,0.6513568999998824,0.4,0,FastFast,18,18,Woman,Right,
21,5,1,1.5997834999998304,['n'],0,left,['2'],5,0.734708199999659,0.2,0,FastFast,18,18,Woman,Right,
22,5,1,1.6831790000014735,['c'],0,right,['1'],6,1.1346107999997912,0.4,0,FastFast,18,18,Woman,Right,
23,5,1,1.284369200000583,['n'],1,right,['3'],4,0.5014610999987781,0.4,0,FastFast,18,18,Woman,Right,
24,5,1,1.900287299999036,['c'],0,right,['3'],4,0.7847419000008813,0.2,0,FastFast,18,18,Woman,Right,
25,5,1,1.632711799999015,['c'],0,right,['3'],4,0.3831923999987339,0.2,0,FastFast,18,18,Woman,Right,
26,5,1,1.3015310999999201,['n'],0,left,['2'],5,0.48508310000033816,0.1,0,FastFast,18,18,Woman,Right,
27,5,1,1.250934400000915,['c'],1,left,['2'],5,0.4995013999996445,0.1,0,FastFast,18,18,Woman,Right,
28,5,1,1.2007422000006045,['n'],1,right,['1'],6,0.367360500000359,0.1,0,FastFast,18,18,Woman,Right,
29,5,1,1.4009201999997458,['n'],1,right,['2'],5,0.48330609999902663,0.2,0,FastFast,18,18,Woman,Right,
30,5,1,1.7004821999998967,['n'],0,left,['1'],6,0.35143450000032317,0.2,0,FastFast,18,18,Woman,Right,
31,5,1,1.6821789000005083,['c'],0,right,['2'],5,0.43391560000054596,0.1,0,FastFast,18,18,Woman,Right,
32,5,1,1.2857351000002382,['n'],1,right,['3'],4,0.3181223999999929,0.1,0,FastFast,18,18,Woman,Right,
33,5,1,1.2672851999996055,['c'],1,left,['1'],6,0.35046409999995376,0.4,0,FastFast,18,18,Woman,Right,
34,5,1,1.467822200000228,['c'],1,left,['1'],6,0.35131710000132443,0.2,0,FastFast,18,18,Woman,Right,
35,5,1,1.3004805999989912,['n'],1,right,['2'],5,0.4014982999997301,0.1,0,FastFast,18,18,Woman,Right,
36,5,1,1.23406580000119,['c'],0,right,['2'],5,0.38375940000150877,0.4,0,FastFast,18,18,Woman,Right,
37,5,1,1.2677612000006775,['n'],0,left,['3'],4,0.25153559999853314,0.4,0,FastFast,18,18,Woman,Right,
38,5,1,1.9344208000002254,['n'],0,left,['2'],5,1.1844956999993883,0.1,0,FastFast,18,18,Woman,Right,
39,5,1,0.9672149999987596,['c'],0,right,['2'],5,0.38331810000090627,0.2,0,FastFast,18,18,Woman,Right,
40,5,1,1.1509569999998348,['c'],1,left,['3'],4,0.268530199999077,0.2,0,FastFast,18,18,Woman,Right,
41,5,1,1.2821622000010393,['n'],0,left,['2'],5,0.2362513999996736,0.1,0,FastFast,18,18,Woman,Right,
42,5,1,1.7997875000000931,['c'],1,left,['2'],5,0.4182546000010916,0.2,0,FastFast,18,18,Woman,Right,
43,5,1,2.5001348000005237,['n'],1,right,['1'],6,0.4679706000006263,0.1,0,FastFast,18,18,Woman,Right,
44,5,1,2.950382200000604,['c'],1,left,['1'],6,0.4514004000011482,0.4,0,FastFast,18,18,Woman,Right,
45,5,1,2.2005128000000695,['n'],1,right,['2'],5,0.38344359999973676,0.1,0,FastFast,18,18,Woman,Right,
46,5,1,1.7838503000002675,['n'],0,left,['2'],5,0.3336124000015843,0.4,0,FastFast,18,18,Woman,Right,
47,5,1,1.1338458999998693,['c'],1,left,['1'],6,0.25050240000018675,0.4,0,FastFast,18,18,Woman,Right,
48,5,1,1.0166856000014377,['n'],1,right,['2'],5,0.43494189999910304,0.4,0,FastFast,18,18,Woman,Right,
49,5,1,2.317615300000398,['c'],0,right,['1'],6,0.30154400000174064,0.2,0,FastFast,18,18,Woman,Right,
50,5,1,1.1827474999990955,['n'],1,right,['2'],5,0.41799670000000333,0.2,0,FastFast,18,18,Woman,Right,
51,5,1,1.1843653000014456,['c'],1,left,['2'],5,0.284423400000378,0.1,0,FastFast,18,18,Woman,Right,
52,5,1,1.2340036000005057,['n'],0,left,['2'],5,0.2678581000000122,0.1,0,FastFast,18,18,Woman,Right,
53,5,1,1.0010096000005433,['c'],0,right,['2'],5,0.2675617000004422,0.1,0,FastFast,18,18,Woman,Right,
54,5,1,1.351854700000331,['c'],1,left,['1'],6,0.2678592000011122,0.4,0,FastFast,18,18,Woman,Right,
55,5,1,1.3992091999989498,['n'],1,right,['3'],4,0.36876980000124604,0.1,0,FastFast,18,18,Woman,Right,
56,5,1,1.082486200000858,['c'],1,left,['1'],6,0.23581299999932526,0.4,0,FastFast,18,18,Woman,Right,
57,5,1,1.0007212000000436,['c'],0,right,['2'],5,0.3344316999991861,0.2,0,FastFast,18,18,Woman,Right,
58,5,1,1.6335604000014428,['n'],1,right,['3'],4,0.5846692000013718,0.2,0,FastFast,18,18,Woman,Right,
59,5,1,1.1161162999997032,['c'],1,left,['1'],6,0.2347829999998794,0.1,0,FastFast,18,18,Woman,Right,
0,6,1,3.6336654999995517,['n'],1,right,['2'],5,0.16612179999901855,0.2,0,AccFast,18,18,Woman,Right,
1,6,1,2.6516019999999116,['c'],1,left,['3'],4,0.6345693000002939,0.2,0,AccFast,18,18,Woman,Right,
2,6,1,1.3512226000002556,['c'],1,left,['2'],5,0.2847870999994484,0.4,0,AccFast,18,18,Woman,Right,
3,6,1,1.2493262000007235,['n'],1,right,['2'],5,1.1193111000011413,0.4,0,AccFast,18,18,Woman,Right,
4,6,1,2.9483572999997705,['n'],0,left,['3'],4,0.28422909999972035,0.2,0,AccFast,18,18,Woman,Right,
5,6,1,1.4838044999996782,['c'],1,left,['1'],6,0.28406299999915063,0.1,0,AccFast,18,18,Woman,Right,
6,6,1,1.068272499998784,['n'],1,right,['1'],6,0.34967669999969075,0.4,0,AccFast,18,18,Woman,Right,
7,6,1,2.116649599998709,['n'],1,right,['2'],5,0.30284389999906125,0.1,0,AccFast,18,18,Woman,Right,
8,6,1,1.2504891999997199,['n'],1,right,['1'],6,0.23328030000084254,0.2,0,AccFast,18,18,Woman,Right,
9,6,1,1.3675296999990678,['c'],0,right,['2'],5,0.26683240000056685,0.1,0,AccFast,18,18,Woman,Right,
10,6,1,1.7829063999997743,['c'],1,left,['2'],5,0.36884159999863186,0.2,0,AccFast,18,18,Woman,Right,
11,6,1,2.550124400000641,['n'],1,right,['3'],4,0.4193998000009742,0.2,0,AccFast,18,18,Woman,Right,
12,6,1,1.9009650999996666,['c'],0,right,['2'],5,0.3347091999985423,0.1,0,AccFast,18,18,Woman,Right,
13,6,1,1.565972000000329,['n'],1,right,['1'],6,0.33690260000003036,0.2,0,AccFast,18,18,Woman,Right,
14,6,1,1.4489076000008936,['c'],1,left,['2'],5,0.3516046999993705,0.4,0,AccFast,18,18,Woman,Right,
15,6,1,4.183515699998679,['n'],1,right,['2'],5,0.3007231999999931,0.2,0,AccFast,18,18,Woman,Right,
16,6,1,2.082533400000102,['c'],0,right,['2'],5,0.3503974000013841,0.1,0,AccFast,18,18,Woman,Right,
17,6,1,2.3161212999984855,['c'],1,left,['2'],5,0.40205649999916204,0.4,0,AccFast,18,18,Woman,Right,
18,6,1,2.116655499999979,['n'],1,right,['3'],4,0.5344122000005882,0.1,0,AccFast,18,18,Woman,Right,
19,6,1,0.917699999999968,['c'],1,left,['1'],6,0.33472579999943264,0.4,0,AccFast,18,18,Woman,Right,
20,6,1,2.014970300000641,['c'],1,left,['2'],5,0.5175751999995555,0.2,0,AccFast,18,18,Woman,Right,
21,6,1,1.2673703000000387,['c'],1,left,['1'],6,0.8670671999989281,0.2,0,AccFast,18,18,Woman,Right,
22,6,1,1.6001909999995405,['n'],1,right,['2'],5,0.43461849999948754,0.4,0,AccFast,18,18,Woman,Right,
23,6,1,1.5172882000006211,['n'],1,right,['2'],5,0.21662930000093183,0.4,0,AccFast,18,18,Woman,Right,
24,6,1,1.4332517000002554,['c'],1,left,['1'],6,0.45200150000164285,0.4,0,AccFast,18,18,Woman,Right,
25,6,1,1.1661679000008007,['n'],0,left,['2'],5,0.435005799999999,0.1,0,AccFast,18,18,Woman,Right,
26,6,1,1.0826887999992323,['n'],1,right,['2'],5,0.385717699999077,0.4,0,AccFast,18,18,Woman,Right,
27,6,1,0.9836652999983926,['c'],1,left,['1'],6,0.5013744000007136,0.1,0,AccFast,18,18,Woman,Right,
28,6,1,0.9840917000001355,['n'],1,right,['1'],6,0.35060800000064773,0.2,0,AccFast,18,18,Woman,Right,
29,6,1,1.1816961000004085,['c'],0,right,['1'],6,0.28626860000076704,0.1,0,AccFast,18,18,Woman,Right,
30,6,1,1.198563899999499,['n'],1,right,['2'],5,0.26943930000015825,0.1,0,AccFast,18,18,Woman,Right,
31,6,1,1.0331189000007726,['n'],1,right,['1'],6,0.31878189999952156,0.4,0,AccFast,18,18,Woman,Right,
32,6,1,1.3658770999991248,['c'],1,left,['1'],6,0.2688825999994151,0.4,0,AccFast,18,18,Woman,Right,
33,6,1,1.6669997000008152,['c'],1,left,['2'],5,0.4692782000001898,0.2,0,AccFast,18,18,Woman,Right,
34,6,1,1.2499019000006228,['n'],1,right,['1'],6,0.26832719999947585,0.1,0,AccFast,18,18,Woman,Right,
35,6,1,1.133000899999388,['c'],0,right,['2'],5,0.3021570000000793,0.1,0,AccFast,18,18,Woman,Right,
36,6,1,1.0004958999998053,['n'],0,left,['1'],6,0.25154660000043805,0.2,0,AccFast,18,18,Woman,Right,
37,6,1,0.9837380000008125,['n'],1,right,['1'],6,0.3499689000000217,0.4,0,AccFast,18,18,Woman,Right,
38,6,1,1.5846842999999353,['c'],0,right,['2'],5,0.551489200001015,0.1,0,AccFast,18,18,Woman,Right,
39,6,1,1.4670470999990357,['c'],1,left,['2'],5,0.4168298999993567,0.1,0,AccFast,18,18,Woman,Right,
40,6,1,4.850365499998588,['c'],1,left,['2'],5,0.4690231999993557,0.1,0,AccFast,18,18,Woman,Right,
41,6,1,1.550248499999725,['c'],1,left,['1'],6,0.30109989999982645,0.4,0,AccFast,18,18,Woman,Right,
42,6,1,1.1846517000012682,['c'],1,left,['2'],5,0.36778510000112874,0.2,0,AccFast,18,18,Woman,Right,
43,6,1,1.867243500000768,['c'],1,left,['2'],5,0.5832671999996819,0.2,0,AccFast,18,18,Woman,Right,
44,6,1,1.8177677999992738,['c'],0,right,['2'],5,0.4005677999994077,0.1,0,AccFast,18,18,Woman,Right,
45,6,1,1.6514158999998472,['c'],0,right,['2'],5,0.5514038000001165,0.1,0,AccFast,18,18,Woman,Right,
46,6,1,1.1004066000004968,['n'],0,left,['1'],6,0.31768929999998363,0.4,0,AccFast,18,18,Woman,Right,
47,6,1,3.39964179999879,['c'],1,left,['3'],4,0.5846811000010348,0.1,0,AccFast,18,18,Woman,Right,
48,6,1,1.2336930000001303,['c'],1,left,['2'],5,0.5176560999989306,0.2,0,AccFast,18,18,Woman,Right,
49,6,1,2.1498494999996183,['c'],1,left,['3'],4,0.6343973000002734,0.2,0,AccFast,18,18,Woman,Right,
50,6,1,1.8324290999989898,['n'],1,right,['1'],6,0.46692540000003646,0.4,0,AccFast,18,18,Woman,Right,
51,6,1,4.782000199998947,['n'],1,right,['1'],6,0.31925849999970524,0.4,0,AccFast,18,18,Woman,Right,
52,6,1,5.015316600000006,x,-99,right,none,-99,-99,0.2,1,AccFast,18,18,Woman,Right,
53,6,1,1.084419100001469,['n'],1,right,['2'],5,0.24963879999995697,0.2,0,AccFast,18,18,Woman,Right,
54,6,1,1.16691019999962,['c'],1,left,['1'],6,0.2836719000006269,0.4,0,AccFast,18,18,Woman,Right,
55,6,1,1.499757600000521,['n'],0,left,['3'],4,0.7028198000007251,0.1,0,AccFast,18,18,Woman,Right,
56,6,1,1.2170578999994177,['c'],1,left,['1'],6,0.401131799999348,0.4,0,AccFast,18,18,Woman,Right,
57,6,1,1.1329288000015367,['c'],1,left,['3'],4,0.3678395000006276,0.2,0,AccFast,18,18,Woman,Right,
58,6,1,1.131728500000463,['n'],0,left,['2'],5,0.2845324999998411,0.1,0,AccFast,18,18,Woman,Right,
59,6,1,1.2345516999994288,['n'],1,right,['1'],6,0.4336669999993319,0.4,0,AccFast,18,18,Woman,Right,
0,7,1,1.0008617999992566,['c'],1,left,['3'],4,1.967890300000363,0.1,0,AccAcc,18,18,Woman,Right,
1,7,1,1.599283599998671,['n'],1,right,['2'],5,0.7355251000008138,0.2,0,AccAcc,18,18,Woman,Right,
2,7,1,0.8508815999994113,['c'],1,left,['3'],4,0.5845394999996643,0.2,0,AccAcc,18,18,Woman,Right,
3,7,1,0.8502956000011181,['c'],1,left,['1'],6,0.3328066999984003,0.4,0,AccAcc,18,18,Woman,Right,
4,7,1,1.1004835000003368,['c'],1,left,['3'],4,0.501526099998955,0.2,0,AccAcc,18,18,Woman,Right,
5,7,1,1.30067599999893,['c'],0,right,['8'],3,0.7347282999999152,0.1,0,AccAcc,18,18,Woman,Right,
6,7,1,0.9996799999989889,['c'],1,left,['2'],5,0.38427889999911713,0.1,0,AccAcc,18,18,Woman,Right,
7,7,1,1.0157402999993792,['c'],1,left,['3'],4,0.3029188000000431,0.2,0,AccAcc,18,18,Woman,Right,
8,7,1,1.5671702999989066,['n'],0,left,['2'],5,0.21832370000083756,0.1,0,AccAcc,18,18,Woman,Right,
9,7,1,2.2171278999994684,['n'],1,right,['8'],3,1.0012578000005306,0.1,0,AccAcc,18,18,Woman,Right,
10,7,1,0.9668612999994366,['c'],1,left,['3'],4,0.384541999999783,0.1,0,AccAcc,18,18,Woman,Right,
11,7,1,1.201244300000326,['c'],1,left,['2'],5,0.5347000000001572,0.1,0,AccAcc,18,18,Woman,Right,
12,7,1,1.2003803999996308,['n'],1,right,['1'],6,0.41831330000059097,0.4,0,AccAcc,18,18,Woman,Right,
13,7,1,1.0334818000010273,['c'],1,left,['2'],5,0.41867399999864574,0.1,0,AccAcc,18,18,Woman,Right,
14,7,1,1.0162316000005376,['n'],1,right,['1'],6,0.6169165999999677,0.4,0,AccAcc,18,18,Woman,Right,
15,7,1,1.3011712999996234,['n'],1,right,['1'],6,0.7846355000001495,0.4,0,AccAcc,18,18,Woman,Right,
16,7,1,1.483836400000655,['c'],1,left,['1'],6,0.5346477000002778,0.1,0,AccAcc,18,18,Woman,Right,
17,7,1,0.934673699999621,['n'],1,right,['2'],5,0.3513094000009005,0.4,0,AccAcc,18,18,Woman,Right,
18,7,1,1.4313842000010482,['c'],1,left,['2'],5,0.3175239000011061,0.1,0,AccAcc,18,18,Woman,Right,
19,7,1,1.8845920000003389,['n'],0,left,['2'],5,0.5184733000005508,0.2,0,AccAcc,18,18,Woman,Right,
20,7,1,0.9328433000009682,['n'],0,left,['3'],4,0.2836712999996962,0.1,0,AccAcc,18,18,Woman,Right,
21,7,1,1.1010545999997703,['c'],1,left,['1'],6,0.35023309999996854,0.4,0,AccAcc,18,18,Woman,Right,
22,7,1,0.9829313999998703,['n'],1,right,['2'],5,0.3521950000013021,0.2,0,AccAcc,18,18,Woman,Right,
23,7,1,1.1337272999990091,['n'],1,right,['2'],5,0.3513983000011649,0.2,0,AccAcc,18,18,Woman,Right,
24,7,1,1.1814978000002156,['n'],1,right,['2'],5,0.4015712000000349,0.2,0,AccAcc,18,18,Woman,Right,
25,7,1,1.2329534999989846,['c'],1,left,['3'],4,0.3354285000004893,0.1,0,AccAcc,18,18,Woman,Right,
26,7,1,1.1338558000006742,['n'],1,right,['1'],6,0.3847280999998475,0.2,0,AccAcc,18,18,Woman,Right,
27,7,1,1.0998120999993262,['n'],1,right,['2'],5,0.29959620000045106,0.1,0,AccAcc,18,18,Woman,Right,
28,7,1,1.2525155000002997,['c'],1,left,['1'],6,0.3514205999999831,0.2,0,AccAcc,18,18,Woman,Right,
29,7,1,1.3170781999997416,['n'],0,left,['2'],5,0.2182413999998971,0.1,0,AccAcc,18,18,Woman,Right,
30,7,1,0.9338678999993135,['n'],0,left,['1'],6,0.36807799999951385,0.2,0,AccAcc,18,18,Woman,Right,
31,7,1,1.0321576000005734,['n'],1,right,['1'],6,0.33544529999926453,0.4,0,AccAcc,18,18,Woman,Right,
32,7,1,1.1668590999997832,['n'],1,right,['2'],5,0.8345994999999675,0.4,0,AccAcc,18,18,Woman,Right,
33,7,1,1.2169410000005882,['c'],0,right,['2'],5,0.40135710000140534,0.1,0,AccAcc,18,18,Woman,Right,
34,7,1,1.2505849000008311,['c'],1,left,['2'],5,0.5334106000009342,0.2,0,AccAcc,18,18,Woman,Right,
35,7,1,0.984660600001007,['c'],1,left,['1'],6,0.30137329999888607,0.4,0,AccAcc,18,18,Woman,Right,
36,7,1,1.0333243000004586,['n'],1,right,['2'],5,0.2850006000007852,0.4,0,AccAcc,18,18,Woman,Right,
37,7,1,0.8664806000015233,['n'],1,right,['1'],6,0.28522809999958554,0.4,0,AccAcc,18,18,Woman,Right,
38,7,1,0.9994690000003175,['n'],1,right,['2'],5,0.2857313000004069,0.1,0,AccAcc,18,18,Woman,Right,
39,7,1,0.8994306999993569,['n'],1,right,['1'],6,0.23363729999982752,0.2,0,AccAcc,18,18,Woman,Right,
40,7,1,1.334059699998761,['c'],1,left,['1'],6,0.26819890000115265,0.4,0,AccAcc,18,18,Woman,Right,
41,7,1,1.6331449999997858,['n'],1,right,['1'],6,0.334748799999943,0.4,0,AccAcc,18,18,Woman,Right,
42,7,1,0.8173886999993556,['n'],1,right,['2'],5,0.28464979999989737,0.2,0,AccAcc,18,18,Woman,Right,
43,7,1,0.9003453999994235,['c'],1,left,['2'],5,0.4336691000007704,0.2,0,AccAcc,18,18,Woman,Right,
44,7,1,1.0848260000002483,['c'],1,left,['2'],5,0.41876310000043304,0.2,0,AccAcc,18,18,Woman,Right,
45,7,1,1.2505529999998544,['c'],1,left,['2'],5,0.5347768000010547,0.2,0,AccAcc,18,18,Woman,Right,
46,7,1,0.9007238000012876,['n'],1,right,['1'],6,0.23341400000026624,0.4,0,AccAcc,18,18,Woman,Right,
47,7,1,0.9671245999998064,['c'],0,right,['2'],5,0.3508765000005951,0.1,0,AccAcc,18,18,Woman,Right,
48,7,1,1.200673999999708,['n'],0,left,['3'],4,0.4676158000002033,0.1,0,AccAcc,18,18,Woman,Right,
49,7,1,1.0839476999990438,['c'],1,left,['3'],4,0.3514199999990524,0.2,0,AccAcc,18,18,Woman,Right,
50,7,1,0.7341338000005635,['n'],1,right,['1'],6,0.30149830000118527,0.4,0,AccAcc,18,18,Woman,Right,
51,7,1,0.8334271000003355,['n'],1,right,['1'],6,0.5181584000001749,0.4,0,AccAcc,18,18,Woman,Right,
52,7,1,0.7652438000004622,['n'],1,right,['1'],6,0.28627699999924516,0.4,0,AccAcc,18,18,Woman,Right,
53,7,1,1.6659782999995514,['c'],1,left,['1'],6,0.4179559000003792,0.1,0,AccAcc,18,18,Woman,Right,
54,7,1,0.6830143000006501,['n'],1,right,['1'],6,0.30044590000034077,0.4,0,AccAcc,18,18,Woman,Right,
55,7,1,1.101078099998631,['c'],1,left,['1'],6,0.3340442000007897,0.2,0,AccAcc,18,18,Woman,Right,
56,7,1,0.9504740000011225,['n'],1,right,['1'],6,0.23314320000099542,0.2,0,AccAcc,18,18,Woman,Right,
57,7,1,1.0839374999995925,['c'],0,right,['2'],5,0.3512668000003032,0.1,0,AccAcc,18,18,Woman,Right,
58,7,1,0.8336233999998512,['c'],1,left,['1'],6,0.28558200000043144,0.4,0,AccAcc,18,18,Woman,Right,
59,7,1,0.6837892999992619,['n'],1,right,['1'],6,0.30170880000150646,0.4,0,AccAcc,18,18,Woman,Right,
0,8,1,0.8004404000002978,['n'],1,right,['2'],5,0.7519429999993008,0.4,0,FastAcc,18,18,Woman,Right,
1,8,1,0.8502636000011989,['n'],1,right,['1'],6,0.25077580000106536,0.1,0,FastAcc,18,18,Woman,Right,
2,8,1,0.666411700000026,['c'],1,left,['1'],6,0.2849628000003577,0.4,0,FastAcc,18,18,Woman,Right,
3,8,1,0.9990097999998397,['n'],0,left,['2'],5,0.38386929999978747,0.2,0,FastAcc,18,18,Woman,Right,
4,8,1,1.0011762999984057,['c'],1,left,['3'],4,0.35100039999997534,0.2,0,FastAcc,18,18,Woman,Right,
5,8,1,0.7157603000014205,['n'],1,right,['1'],6,0.23613269999987097,0.4,0,FastAcc,18,18,Woman,Right,
6,8,1,0.7008692999988853,['n'],1,right,['2'],5,0.3013563000004069,0.1,0,FastAcc,18,18,Woman,Right,
7,8,1,0.7833989999999176,['c'],1,left,['3'],4,0.4848162999987835,0.4,0,FastAcc,18,18,Woman,Right,
8,8,1,0.8523808999998437,['n'],0,left,['2'],5,0.43328069999915897,0.4,0,FastAcc,18,18,Woman,Right,
9,8,1,0.9657126000001881,['n'],1,right,['3'],4,0.26935649999904854,0.2,0,FastAcc,18,18,Woman,Right,
10,8,1,1.000605799999903,['c'],0,right,['8'],3,0.6335732000006828,0.4,0,FastAcc,18,18,Woman,Right,
11,8,1,1.2168966000008368,['c'],1,left,['2'],5,0.46901529999922786,0.2,0,FastAcc,18,18,Woman,Right,
12,8,1,1.1839944000003015,['n'],1,right,['3'],4,0.38368289999925764,0.1,0,FastAcc,18,18,Woman,Right,
13,8,1,1.1996426000005158,['n'],0,left,['8'],3,0.33559109999987413,0.1,0,FastAcc,18,18,Woman,Right,
14,8,1,0.9676902000010159,['n'],1,right,['1'],6,0.3180623000007472,0.4,0,FastAcc,18,18,Woman,Right,
15,8,1,1.0494550999992498,['c'],1,left,['2'],5,0.36867220000021916,0.4,0,FastAcc,18,18,Woman,Right,
16,8,1,0.8339168000002246,['n'],1,right,['1'],6,0.4014624999999796,0.4,0,FastAcc,18,18,Woman,Right,
17,8,1,1.2337922000006074,['n'],0,left,['2'],5,0.43379949999871315,0.2,0,FastAcc,18,18,Woman,Right,
18,8,1,1.066983099999561,['n'],1,right,['3'],4,0.30139999999846623,0.1,0,FastAcc,18,18,Woman,Right,
19,8,1,0.9326252999999269,['n'],1,right,['3'],4,0.31932729999971343,0.1,0,FastAcc,18,18,Woman,Right,
20,8,1,0.950921700001345,['n'],0,left,['2'],5,0.2680894000004628,0.1,0,FastAcc,18,18,Woman,Right,
21,8,1,0.8986023000015848,['n'],1,right,['3'],4,0.2357494999996561,0.2,0,FastAcc,18,18,Woman,Right,
22,8,1,1.0000101999994513,['n'],0,left,['3'],4,0.26793280000129016,0.4,0,FastAcc,18,18,Woman,Right,
23,8,1,1.8841511999999057,['c'],1,left,['3'],4,0.5013710999992327,0.1,0,FastAcc,18,18,Woman,Right,
24,8,1,1.0837995000001683,['n'],1,right,['3'],4,0.5525484999998298,0.2,0,FastAcc,18,18,Woman,Right,
25,8,1,1.0166257999990194,['c'],1,left,['1'],6,0.30163530000027095,0.4,0,FastAcc,18,18,Woman,Right,
26,8,1,1.2504406999996718,['n'],1,right,['3'],4,0.35140400000091176,0.4,0,FastAcc,18,18,Woman,Right,
27,8,1,0.9339080000008835,['c'],1,left,['2'],5,0.40115289999994275,0.2,0,FastAcc,18,18,Woman,Right,
28,8,1,0.8327220000010129,['n'],0,left,['2'],5,0.26880899999923713,0.4,0,FastAcc,18,18,Woman,Right,
29,8,1,0.7829756000010093,['n'],0,left,['1'],6,0.3180062999999791,0.4,0,FastAcc,18,18,Woman,Right,
30,8,1,1.3327692000002571,['n'],1,right,['2'],5,0.3339446999998472,0.1,0,FastAcc,18,18,Woman,Right,
31,8,1,0.8501990999993723,['c'],1,left,['2'],5,0.4675258000006579,0.1,0,FastAcc,18,18,Woman,Right,
32,8,1,0.8981595000004745,['n'],1,right,['1'],6,0.4681255000014062,0.2,0,FastAcc,18,18,Woman,Right,
33,8,1,1.2835855000012089,['c'],1,left,['1'],6,0.38470369999959075,0.4,0,FastAcc,18,18,Woman,Right,
34,8,1,1.7006933000011486,['c'],0,right,['2'],5,0.684660700000677,0.4,0,FastAcc,18,18,Woman,Right,
35,8,1,2.015257600000041,['c'],0,right,['2'],5,0.31962989999919955,0.2,0,FastAcc,18,18,Woman,Right,
36,8,1,1.0480874000004405,['c'],1,left,['1'],6,1.050898800000141,0.4,0,FastAcc,18,18,Woman,Right,
37,8,1,1.6997496999993018,['n'],0,left,['2'],5,0.6011897000007593,0.1,0,FastAcc,18,18,Woman,Right,
38,8,1,1.650070899999264,['c'],0,right,['3'],4,0.41805159999967145,0.2,0,FastAcc,18,18,Woman,Right,
39,8,1,1.8669402999985323,['n'],0,left,['3'],4,0.7847330000004149,0.1,0,FastAcc,18,18,Woman,Right,
40,8,1,1.60101289999875,['n'],1,right,['3'],4,0.38500890000068466,0.2,0,FastAcc,18,18,Woman,Right,
41,8,1,1.7495256000001973,['c'],1,left,['3'],4,0.5021335999990697,0.1,0,FastAcc,18,18,Woman,Right,
42,8,1,0.8831360999993194,['n'],1,right,['1'],6,0.652199300000575,0.4,0,FastAcc,18,18,Woman,Right,
43,8,1,1.4342491000006703,['c'],0,right,['2'],5,0.4667907999992167,0.2,0,FastAcc,18,18,Woman,Right,
44,8,1,1.4838670999997703,['n'],1,right,['3'],4,0.28569229999993695,0.1,0,FastAcc,18,18,Woman,Right,
45,8,1,1.1993147000011959,['n'],1,right,['3'],4,0.33482699999876786,0.1,0,FastAcc,18,18,Woman,Right,
46,8,1,1.3008703000014066,['n'],1,right,['1'],6,0.36768169999959355,0.4,0,FastAcc,18,18,Woman,Right,
47,8,1,0.8994096999995236,['c'],1,left,['1'],6,0.2521225000000413,0.4,0,FastAcc,18,18,Woman,Right,
48,8,1,0.8485928000009153,['n'],1,right,['1'],6,0.250963700000284,0.2,0,FastAcc,18,18,Woman,Right,
49,8,1,0.901197899998806,['c'],1,left,['2'],5,0.26799339999888616,0.2,0,FastAcc,18,18,Woman,Right,
50,8,1,1.2346295000006648,['n'],1,right,['1'],6,0.3335676999995485,0.1,0,FastAcc,18,18,Woman,Right,
51,8,1,1.000632500001302,['c'],1,left,['1'],6,0.3182366999990336,0.1,0,FastAcc,18,18,Woman,Right,
52,8,1,0.8825985000003129,['c'],1,left,['2'],5,0.3855974999987666,0.2,0,FastAcc,18,18,Woman,Right,
53,8,1,1.1486890000014682,['n'],1,right,['3'],4,0.2505010000004404,0.2,0,FastAcc,18,18,Woman,Right,
54,8,1,1.0014094000016485,['c'],1,left,['3'],4,0.35147020000113116,0.1,0,FastAcc,18,18,Woman,Right,
55,8,1,1.001271800001632,['n'],1,right,['1'],6,0.5496565000012197,0.1,0,FastAcc,18,18,Woman,Right,
56,8,1,0.9512553000004118,['c'],1,left,['2'],5,0.38466479999988223,0.2,0,FastAcc,18,18,Woman,Right,
57,8,1,0.9493259999999282,['c'],1,left,['2'],5,0.31895369999983814,0.2,0,FastAcc,18,18,Woman,Right,
58,8,1,0.934176099999604,['n'],1,right,['2'],5,0.35138369999913266,0.2,0,FastAcc,18,18,Woman,Right,
59,8,1,0.7160746999998082,['c'],1,left,['3'],4,0.31907700000010664,0.1,0,FastAcc,18,18,Woman,Right,
0,9,1,1.018849099998988,['n'],1,right,['3'],4,0.6013229000000138,0.1,0,FastFast,18,18,Woman,Right,
1,9,1,2.2657971999997244,['c'],1,left,['8'],3,1.00272650000079,0.2,0,FastFast,18,18,Woman,Right,
2,9,1,1.565830099998493,['c'],1,left,['3'],4,0.6853840000003402,0.1,0,FastFast,18,18,Woman,Right,
3,9,1,1.400861600001008,['c'],1,left,['8'],3,0.5828997000007803,0.2,0,FastFast,18,18,Woman,Right,
4,9,1,1.3182343999997101,['c'],0,right,['0'],1,1.3172165999985737,0.4,0,FastFast,18,18,Woman,Right,
5,9,1,1.3676578999984486,['c'],1,left,['3'],4,0.4513777999982267,0.2,0,FastFast,18,18,Woman,Right,
6,9,1,1.8004592999986926,['c'],1,left,['8'],3,0.5842614999983198,0.1,0,FastFast,18,18,Woman,Right,
7,9,1,1.6192138000005798,['c'],0,right,['3'],4,0.5516440000010334,0.1,0,FastFast,18,18,Woman,Right,
8,9,1,1.349273899999389,['c'],0,right,['8'],3,0.3664164999991044,0.2,0,FastFast,18,18,Woman,Right,
9,9,1,1.2841404999999213,['c'],1,left,['1'],6,0.3506753000001481,0.4,0,FastFast,18,18,Woman,Right,
10,9,1,1.7512454999996407,['n'],1,right,['1'],6,0.501446099999157,0.4,0,FastFast,18,18,Woman,Right,
11,9,1,1.2173125999997865,['c'],0,right,['3'],4,0.28462340000078257,0.2,0,FastFast,18,18,Woman,Right,
12,9,1,2.0989470000004076,['c'],0,right,['9'],2,1.052222399999664,0.1,0,FastFast,18,18,Woman,Right,
13,9,1,1.61598690000028,['n'],1,right,['1'],6,0.45229250000011234,0.2,0,FastFast,18,18,Woman,Right,
14,9,1,1.5004461999997147,['c'],1,left,['3'],4,0.33358489999955054,0.1,0,FastFast,18,18,Woman,Right,
15,9,1,0.8508144999996148,['c'],1,left,['2'],5,0.3844960999995237,0.4,0,FastFast,18,18,Woman,Right,
16,9,1,1.29961049999838,['c'],1,left,['2'],5,0.3014495999996143,0.2,0,FastFast,18,18,Woman,Right,
17,9,1,1.317315399999643,['c'],0,right,['9'],2,1.185000299999956,0.4,0,FastFast,18,18,Woman,Right,
18,9,1,1.5671530999989045,['c'],0,right,['8'],3,0.5504963999992469,0.1,0,FastFast,18,18,Woman,Right,
19,9,1,0.8514110000014625,['c'],0,right,['3'],4,0.31783139999970444,0.1,0,FastFast,18,18,Woman,Right,
20,9,1,1.0840747000002011,['c'],1,left,['1'],6,0.33444410000083735,0.2,0,FastFast,18,18,Woman,Right,
21,9,1,1.150453700000071,['n'],1,right,['3'],4,0.38482959999964805,0.4,0,FastFast,18,18,Woman,Right,
22,9,1,1.4333511999993789,['n'],0,left,['3'],4,0.6163980000001175,0.2,0,FastFast,18,18,Woman,Right,
23,9,1,0.9839447000013024,['c'],1,left,['2'],5,0.48380379999980505,0.4,0,FastFast,18,18,Woman,Right,
24,9,1,1.3178871000000072,['n'],1,right,['2'],5,0.45049979999930656,0.4,0,FastFast,18,18,Woman,Right,
25,9,1,1.3517234999999346,['n'],1,right,['3'],4,0.2991165999992518,0.2,0,FastFast,18,18,Woman,Right,
26,9,1,1.2013005999997404,['n'],1,right,['3'],4,0.5181358000008913,0.2,0,FastFast,18,18,Woman,Right,
27,9,1,1.0325917000009213,['n'],1,right,['1'],6,0.38557589999982156,0.4,0,FastFast,18,18,Woman,Right,
28,9,1,1.2501844999987952,['c'],0,right,['2'],5,0.3001227000004292,0.2,0,FastFast,18,18,Woman,Right,
29,9,1,1.2175327000004472,['n'],1,right,['3'],4,0.35151739999855636,0.1,0,FastFast,18,18,Woman,Right,
30,9,1,1.0498439999992115,['c'],1,left,['8'],3,0.4182497000001604,0.1,0,FastFast,18,18,Woman,Right,
31,9,1,1.6488122999999177,['n'],1,right,['1'],6,0.4009842000014032,0.4,0,FastFast,18,18,Woman,Right,
32,9,1,1.2170490999997128,['c'],1,left,['1'],6,0.2525243000000046,0.4,0,FastFast,18,18,Woman,Right,
33,9,1,1.5166823999988992,['n'],0,left,['2'],5,0.3007219000010082,0.1,0,FastFast,18,18,Woman,Right,
34,9,1,0.9996914999992441,['c'],1,left,['1'],6,0.4193579000002501,0.4,0,FastFast,18,18,Woman,Right,
35,9,1,1.018138600000384,['c'],1,left,['2'],5,0.2849343999987468,0.2,0,FastFast,18,18,Woman,Right,
36,9,1,1.016547700000956,['c'],1,left,['1'],6,0.2341366000000562,0.2,0,FastFast,18,18,Woman,Right,
37,9,1,1.600726600001508,['n'],1,right,['2'],5,0.2500755000000936,0.1,0,FastFast,18,18,Woman,Right,
38,9,1,0.7658443000000261,['c'],1,left,['1'],6,0.20017949999964912,0.1,0,FastFast,18,18,Woman,Right,
39,9,1,0.8357499999983702,['c'],0,right,['2'],5,0.21873200000118231,0.1,0,FastFast,18,18,Woman,Right,
40,9,1,1.6991668000009668,['n'],1,right,['3'],4,0.26700200000050245,0.2,0,FastFast,18,18,Woman,Right,
41,9,1,0.7503166000005876,['c'],1,left,['1'],6,0.2172383000015543,0.4,0,FastFast,18,18,Woman,Right,
42,9,1,0.8002088000012009,['c'],1,left,['2'],5,0.28277689999958966,0.4,0,FastFast,18,18,Woman,Right,
43,9,1,0.9176303000003827,['c'],1,left,['2'],5,0.3501519000001281,0.4,0,FastFast,18,18,Woman,Right,
44,9,1,1.768006799999057,['n'],1,right,['2'],5,0.6346479000003455,0.2,0,FastFast,18,18,Woman,Right,
45,9,1,0.8009314999999333,['c'],1,left,['1'],6,0.23466910000024654,0.4,0,FastFast,18,18,Woman,Right,
46,9,1,0.9824661999991804,['n'],1,right,['1'],6,0.30035599999973783,0.4,0,FastFast,18,18,Woman,Right,
47,9,1,0.6344024000009085,['c'],1,left,['2'],5,0.33443240000087826,0.4,0,FastFast,18,18,Woman,Right,
48,9,1,1.2006290000008448,['n'],1,right,['2'],5,0.3514340000001539,0.1,0,FastFast,18,18,Woman,Right,
49,9,1,1.051852399999916,['n'],1,right,['1'],6,0.28511580000122194,0.2,0,FastFast,18,18,Woman,Right,
50,9,1,0.9005111999995279,['n'],1,right,['2'],5,0.25149249999958556,0.2,0,FastFast,18,18,Woman,Right,
51,9,1,1.016478499999721,['n'],0,left,['2'],5,0.316711800000121,0.2,0,FastFast,18,18,Woman,Right,
52,9,1,0.9659610999988217,['n'],0,left,['1'],6,0.2690304000007018,0.1,0,FastFast,18,18,Woman,Right,
53,9,1,0.6485056999990775,['n'],1,right,['1'],6,0.3009282000002713,0.4,0,FastFast,18,18,Woman,Right,
54,9,1,0.9181574000012915,['c'],1,left,['1'],6,0.2664531000009447,0.2,0,FastFast,18,18,Woman,Right,
55,9,1,0.7668779000014183,['n'],0,left,['2'],5,0.4003869999996823,0.1,0,FastFast,18,18,Woman,Right,
56,9,1,0.801186400000006,['n'],1,right,['2'],5,0.28435890000037034,0.1,0,FastFast,18,18,Woman,Right,
57,9,1,0.732556900000418,['n'],1,right,['2'],5,0.3507737999989331,0.1,0,FastFast,18,18,Woman,Right,
58,9,1,1.084193900000173,['c'],1,left,['3'],4,0.30143759999918984,0.1,0,FastFast,18,18,Woman,Right,
59,9,1,1.0171617000014521,['c'],1,left,['1'],6,0.2679327000005287,0.4,0,FastFast,18,18,Woman,Right,
0,10,1,1.8689979999999196,['n'],1,right,['2'],5,1.1166496999994706,0.1,0,AccFast,18,18,Woman,Right,
1,10,1,0.9658315999986371,['n'],1,right,['1'],6,0.3009746999996423,0.4,0,AccFast,18,18,Woman,Right,
2,10,1,1.032902599999943,['c'],1,left,['1'],6,0.46869169999990845,0.2,0,AccFast,18,18,Woman,Right,
3,10,1,0.8667217999991408,['n'],1,right,['2'],5,0.2677578999991965,0.1,0,AccFast,18,18,Woman,Right,
4,10,1,1.1008745999988605,['n'],1,right,['3'],4,0.3522121000005427,0.2,0,AccFast,18,18,Woman,Right,
5,10,1,0.9666178999996191,['n'],1,right,['2'],5,0.3359846999992442,0.2,0,AccFast,18,18,Woman,Right,
6,10,1,1.2664324999987002,['c'],1,left,['2'],5,0.40265460000046005,0.1,0,AccFast,18,18,Woman,Right,
7,10,1,0.717563500000324,['c'],1,left,['1'],6,0.3013457999986713,0.4,0,AccFast,18,18,Woman,Right,
8,10,1,1.0171563000003516,['n'],1,right,['1'],6,0.26813599999877624,0.2,0,AccFast,18,18,Woman,Right,
9,10,1,0.9180184999986523,['n'],1,right,['2'],5,0.2845462999994197,0.2,0,AccFast,18,18,Woman,Right,
10,10,1,1.6173189000001003,['c'],1,left,['8'],3,0.534705699999904,0.1,0,AccFast,18,18,Woman,Right,
11,10,1,1.633022299998629,['n'],0,left,['2'],5,0.8350934999998572,0.1,0,AccFast,18,18,Woman,Right,
12,10,1,0.834558399999878,['n'],1,right,['1'],6,0.25016970000069705,0.4,0,AccFast,18,18,Woman,Right,
13,10,1,1.3674307000001136,['n'],1,right,['8'],3,1.1159166999987065,0.1,0,AccFast,18,18,Woman,Right,
14,10,1,0.9505288000000292,['c'],1,left,['1'],6,0.36809079999875394,0.4,0,AccFast,18,18,Woman,Right,
15,10,1,1.368097000000489,['c'],1,left,['1'],6,0.451570699999138,0.4,0,AccFast,18,18,Woman,Right,
16,10,1,1.1007315999995626,['n'],0,left,['2'],5,0.28467730000011215,0.1,0,AccFast,18,18,Woman,Right,
17,10,1,1.01724540000032,['c'],1,left,['2'],5,0.33497199999874283,0.2,0,AccFast,18,18,Woman,Right,
18,10,1,1.0661612000003515,['n'],1,right,['2'],5,0.45170690000122704,0.2,0,AccFast,18,18,Woman,Right,
19,10,1,1.0843265000003157,['n'],1,right,['1'],6,0.684305900000254,0.4,0,AccFast,18,18,Woman,Right,
20,10,1,1.250176499999725,['n'],1,right,['2'],5,0.33371210000041174,0.4,0,AccFast,18,18,Woman,Right,
21,10,1,1.4654730999991443,['n'],1,right,['2'],5,0.2351771000012377,0.1,0,AccFast,18,18,Woman,Right,
22,10,1,1.5504233000010572,['c'],1,left,['3'],4,0.784467700001187,0.1,0,AccFast,18,18,Woman,Right,
23,10,1,0.834971599999335,['n'],1,right,['1'],6,0.29977169999983744,0.4,0,AccFast,18,18,Woman,Right,
24,10,1,1.217571000001044,['c'],0,right,['2'],5,0.3516221999998379,0.1,0,AccFast,18,18,Woman,Right,
25,10,1,0.9660839999996824,['n'],1,right,['1'],6,0.30193160000089847,0.1,0,AccFast,18,18,Woman,Right,
26,10,1,0.916975199999797,['c'],1,left,['1'],6,0.3689352000001236,0.4,0,AccFast,18,18,Woman,Right,
27,10,1,1.1338991000011447,['n'],1,right,['2'],5,0.7168502000004082,0.4,0,AccFast,18,18,Woman,Right,
28,10,1,0.9324267000010877,['c'],1,left,['1'],6,0.26837519999935466,0.4,0,AccFast,18,18,Woman,Right,
29,10,1,0.9000173000003997,['n'],1,right,['1'],6,0.25265869999930146,0.1,0,AccFast,18,18,Woman,Right,
30,10,1,0.8174522999997862,['c'],1,left,['1'],6,0.25162550000095507,0.2,0,AccFast,18,18,Woman,Right,
31,10,1,0.8996981999989657,['n'],1,right,['2'],5,0.23554500000136613,0.1,0,AccFast,18,18,Woman,Right,
32,10,1,0.8173743999996077,['c'],1,left,['1'],6,0.2345143000002281,0.2,0,AccFast,18,18,Woman,Right,
33,10,1,0.9162890000006882,['c'],1,left,['2'],5,0.28482679999979155,0.2,0,AccFast,18,18,Woman,Right,
34,10,1,0.6991129999987606,['n'],1,right,['1'],6,0.24995820000003732,0.2,0,AccFast,18,18,Woman,Right,
35,10,1,0.80078180000055,['n'],0,left,['1'],6,0.2168729999993957,0.1,0,AccFast,18,18,Woman,Right,
36,10,1,1.016482700000779,['n'],0,left,['2'],5,0.23477920000004815,0.1,0,AccFast,18,18,Woman,Right,
37,10,1,0.8500846000006277,['n'],1,right,['1'],6,0.25187130000085745,0.4,0,AccFast,18,18,Woman,Right,
38,10,1,0.9995307000008324,['c'],0,right,['3'],4,0.40019280000160506,0.2,0,AccFast,18,18,Woman,Right,
39,10,1,0.8343835000014224,['c'],1,left,['2'],5,0.25023500000133936,0.2,0,AccFast,18,18,Woman,Right,
40,10,1,0.7506763000001229,['n'],1,right,['1'],6,0.2845462999994197,0.4,0,AccFast,18,18,Woman,Right,
41,10,1,0.8674216999988857,['c'],0,right,['2'],5,0.2839368999993894,0.1,0,AccFast,18,18,Woman,Right,
42,10,1,1.3170709000005445,['c'],1,left,['2'],5,0.3669764000005671,0.2,0,AccFast,18,18,Woman,Right,
43,10,1,1.1501991000004637,['c'],1,left,['1'],6,0.28387760000077833,0.2,0,AccFast,18,18,Woman,Right,
44,10,1,0.7339491000002454,['c'],1,left,['1'],6,0.20267729999977746,0.4,0,AccFast,18,18,Woman,Right,
45,10,1,1.0336679000010918,['n'],0,left,['2'],5,0.30187329999898793,0.2,0,AccFast,18,18,Woman,Right,
46,10,1,1.0826303000012558,['c'],1,left,['1'],6,0.33532199999899603,0.2,0,AccFast,18,18,Woman,Right,
47,10,1,1.2820255999995425,['n'],1,right,['1'],6,0.28555190000042785,0.2,0,AccFast,18,18,Woman,Right,
48,10,1,0.7670035999999527,['c'],1,left,['2'],5,0.26785730000119656,0.1,0,AccFast,18,18,Woman,Right,
49,10,1,0.6158941000012419,['c'],1,left,['1'],6,0.18624289999934263,0.4,0,AccFast,18,18,Woman,Right,
50,10,1,0.7338641999995161,['c'],1,left,['1'],6,0.23547340000004624,0.4,0,AccFast,18,18,Woman,Right,
51,10,1,0.8338987000006455,['n'],1,right,['1'],6,0.2848932999986573,0.4,0,AccFast,18,18,Woman,Right,
52,10,1,1.3991901999997935,['c'],1,left,['2'],5,0.2678319000006013,0.4,0,AccFast,18,18,Woman,Right,
53,10,1,0.8662868999999773,['n'],1,right,['1'],6,0.2168591000008746,0.1,0,AccFast,18,18,Woman,Right,
54,10,1,0.8166067999991355,['c'],0,right,['3'],4,0.35151500000029046,0.1,0,AccFast,18,18,Woman,Right,
55,10,1,1.5825398999986646,['n'],0,left,['3'],4,0.2673126999998203,0.1,0,AccFast,18,18,Woman,Right,
56,10,1,1.1672522999997454,['c'],1,left,['1'],6,0.2849229999992531,0.2,0,AccFast,18,18,Woman,Right,
57,10,1,1.1005098999994516,['c'],1,left,['1'],6,0.28488280000055966,0.4,0,AccFast,18,18,Woman,Right,
58,10,1,0.8500031000003219,['n'],1,right,['1'],6,0.23465310000028694,0.4,0,AccFast,18,18,Woman,Right,
59,10,1,1.2667870999994193,['c'],0,right,['2'],5,0.30141919999914535,0.2,0,AccFast,18,18,Woman,Right,
0,11,1,1.3850220999993326,['c'],1,left,['2'],5,0.6680152999997517,0.4,0,AccAcc,18,18,Woman,Right,
1,11,1,1.001758799999152,['c'],0,right,['1'],6,0.5684701000009227,0.1,0,AccAcc,18,18,Woman,Right,
2,11,1,1.033884799999214,['n'],0,left,['8'],3,0.38478349999968486,0.1,0,AccAcc,18,18,Woman,Right,
3,11,1,0.700314999998227,['c'],1,left,['2'],5,0.46772839999903226,0.4,0,AccAcc,18,18,Woman,Right,
4,11,1,0.8501532999998744,['c'],1,left,['2'],5,0.3001216000011482,0.1,0,AccAcc,18,18,Woman,Right,
5,11,1,1.100424700000076,['n'],1,right,['1'],6,0.350444100000459,0.1,0,AccAcc,18,18,Woman,Right,
6,11,1,0.7498614000014641,['c'],1,left,['1'],6,0.2512399000006553,0.4,0,AccAcc,18,18,Woman,Right,
7,11,1,0.6830385000012029,['c'],1,left,['1'],6,0.4354849999999715,0.4,0,AccAcc,18,18,Woman,Right,
8,11,1,0.9507194999987405,['n'],1,right,['2'],5,0.366731099999015,0.1,0,AccAcc,18,18,Woman,Right,
9,11,1,0.7490545000000566,['c'],1,left,['2'],5,0.3028450999991037,0.2,0,AccAcc,18,18,Woman,Right,
10,11,1,0.9499274999998306,['n'],1,right,['1'],6,0.30148280000139493,0.4,0,AccAcc,18,18,Woman,Right,
11,11,1,1.0835657999996329,['c'],1,left,['8'],3,0.2334610000016255,0.2,0,AccAcc,18,18,Woman,Right,
12,11,1,1.1002769000006083,['n'],1,right,['8'],3,0.5661839000003965,0.2,0,AccAcc,18,18,Woman,Right,
13,11,1,0.8330705000007583,['n'],1,right,['1'],6,0.30280520000087563,0.2,0,AccAcc,18,18,Woman,Right,
14,11,1,1.116740599998593,['n'],0,left,['9'],2,0.9853417000012996,0.1,0,AccAcc,18,18,Woman,Right,
15,11,1,0.8162429000003613,['c'],1,left,['2'],5,0.3693953000001784,0.1,0,AccAcc,18,18,Woman,Right,
16,11,1,0.8188492999997834,['c'],1,left,['1'],6,0.31607550000080664,0.4,0,AccAcc,18,18,Woman,Right,
17,11,1,1.0987209000013536,['n'],1,right,['1'],6,0.23433090000071388,0.2,0,AccAcc,18,18,Woman,Right,
18,11,1,0.9665323000008357,['c'],1,left,['1'],6,0.3190878999994311,0.4,0,AccAcc,18,18,Woman,Right,
19,11,1,0.9839219999994384,['n'],0,left,['2'],5,0.31814659999872674,0.2,0,AccAcc,18,18,Woman,Right,
20,11,1,1.301249199999802,['n'],0,left,['1'],6,0.26710579999962647,0.1,0,AccAcc,18,18,Woman,Right,
21,11,1,1.5172906999996485,['c'],0,right,['3'],4,0.6827833999996074,0.1,0,AccAcc,18,18,Woman,Right,
22,11,1,1.0506124000003183,['n'],1,right,['2'],5,0.3164723000008962,0.2,0,AccAcc,18,18,Woman,Right,
23,11,1,0.9499221999994916,['n'],1,right,['1'],6,0.3025947999994969,0.2,0,AccAcc,18,18,Woman,Right,
24,11,1,0.8327276999989408,['c'],0,right,['2'],5,0.36715779999940423,0.1,0,AccAcc,18,18,Woman,Right,
25,11,1,0.9827767999995558,['n'],1,right,['1'],6,0.20200689999910537,0.1,0,AccAcc,18,18,Woman,Right,
26,11,1,0.9327976000004128,['n'],1,right,['1'],6,0.24990900000011607,0.4,0,AccAcc,18,18,Woman,Right,
27,11,1,0.9005944000000454,['c'],0,right,['2'],5,0.3842231999988144,0.2,0,AccAcc,18,18,Woman,Right,
28,11,1,0.9333320999994612,['n'],1,right,['1'],6,0.2689027000014903,0.2,0,AccAcc,18,18,Woman,Right,
29,11,1,1.1337670999982947,['c'],0,right,['2'],5,0.31893180000042776,0.2,0,AccAcc,18,18,Woman,Right,
30,11,1,0.950442600000315,['c'],1,left,['1'],6,0.2500366000003851,0.2,0,AccAcc,18,18,Woman,Right,
31,11,1,0.7681123000002117,['n'],1,right,['1'],6,0.48476169999958074,0.2,0,AccAcc,18,18,Woman,Right,
32,11,1,1.1664954999996553,['c'],1,left,['2'],5,0.3338530000000901,0.1,0,AccAcc,18,18,Woman,Right,
33,11,1,0.8355559999999969,['c'],1,left,['1'],6,0.25008119999984046,0.2,0,AccAcc,18,18,Woman,Right,
34,11,1,0.8318087999996351,['n'],1,right,['1'],6,0.26949919999970007,0.1,0,AccAcc,18,18,Woman,Right,
35,11,1,0.969148000000132,['c'],0,right,['8'],3,0.36659209999925224,0.2,0,AccAcc,18,18,Woman,Right,
36,11,1,0.8658647000011115,['c'],1,left,['2'],5,0.3509469000000536,0.4,0,AccAcc,18,18,Woman,Right,
37,11,1,1.0173032999991847,['n'],0,left,['2'],5,0.36705910000091535,0.1,0,AccAcc,18,18,Woman,Right,
38,11,1,1.0013008000005357,['c'],1,left,['3'],4,0.29977299999882234,0.1,0,AccAcc,18,18,Woman,Right,
39,11,1,0.9326283000009425,['n'],1,right,['1'],6,0.28493859999980486,0.4,0,AccAcc,18,18,Woman,Right,
40,11,1,0.7322437999991962,['c'],1,left,['1'],6,0.21943980000105512,0.4,0,AccAcc,18,18,Woman,Right,
41,11,1,1.2822207999997772,['n'],1,right,['1'],6,1.100028900000325,0.4,0,AccAcc,18,18,Woman,Right,
42,11,1,0.7833430999999109,['c'],1,left,['1'],6,0.25012749999950756,0.2,0,AccAcc,18,18,Woman,Right,
43,11,1,1.2849356000006082,['n'],1,right,['8'],3,0.30209000000104425,0.1,0,AccAcc,18,18,Woman,Right,
44,11,1,1.1319296000001486,['c'],1,left,['2'],5,0.48491789999934554,0.2,0,AccAcc,18,18,Woman,Right,
45,11,1,0.8824504999993223,['c'],1,left,['1'],6,0.36894179999944754,0.4,0,AccAcc,18,18,Woman,Right,
46,11,1,1.4500896999998076,['n'],1,right,['2'],5,0.2512067000006937,0.1,0,AccAcc,18,18,Woman,Right,
47,11,1,0.915874199999962,['n'],1,right,['1'],6,0.2685295000010228,0.4,0,AccAcc,18,18,Woman,Right,
48,11,1,1.317098100000294,['n'],1,right,['2'],5,0.28401799999846844,0.4,0,AccAcc,18,18,Woman,Right,
49,11,1,1.0314843999985897,['n'],0,left,['2'],5,0.3009214999983669,0.2,0,AccAcc,18,18,Woman,Right,
50,11,1,1.0854316000004474,['c'],1,left,['3'],4,0.31781770000088727,0.2,0,AccAcc,18,18,Woman,Right,
51,11,1,0.6164239999998244,['c'],1,left,['1'],6,0.3352247000002535,0.4,0,AccAcc,18,18,Woman,Right,
52,11,1,1.067338299999392,['n'],1,right,['1'],6,0.43500719999974535,0.1,0,AccAcc,18,18,Woman,Right,
53,11,1,0.8492783000001509,['n'],1,right,['1'],6,0.3683232000003045,0.1,0,AccAcc,18,18,Woman,Right,
54,11,1,0.7342133999991347,['c'],1,left,['2'],5,0.26815609999903245,0.4,0,AccAcc,18,18,Woman,Right,
55,11,1,0.7008817000005365,['n'],1,right,['1'],6,0.28467839999939315,0.4,0,AccAcc,18,18,Woman,Right,
56,11,1,0.6156731000010041,['c'],1,left,['1'],6,0.2843223999989277,0.4,0,AccAcc,18,18,Woman,Right,
57,11,1,0.9986498999987816,['n'],0,left,['2'],5,0.3027444999988802,0.2,0,AccAcc,18,18,Woman,Right,
58,11,1,0.750515900001119,['n'],1,right,['1'],6,0.2677086000003328,0.1,0,AccAcc,18,18,Woman,Right,
59,11,1,0.7670405000008031,['n'],1,right,['1'],6,0.33447720000003756,0.4,0,AccAcc,18,18,Woman,Right,
0,12,1,1.3678185999997368,['n'],1,right,['2'],5,0.3669826000004832,0.2,0,FastAcc,18,18,Woman,Right,
1,12,1,0.7019636000004539,['c'],1,left,['1'],6,0.2845971999995527,0.4,0,FastAcc,18,18,Woman,Right,
2,12,1,0.7999897999998211,['n'],1,right,['1'],6,0.2678280000000086,0.4,0,FastAcc,18,18,Woman,Right,
3,12,1,0.749829200000022,['c'],1,left,['2'],5,0.21866699999918637,0.2,0,FastAcc,18,18,Woman,Right,
4,12,1,0.8338199999998324,['n'],1,right,['3'],4,0.2168638999992254,0.1,0,FastAcc,18,18,Woman,Right,
5,12,1,1.0007179000003816,['c'],1,left,['8'],3,0.4670076999991579,0.1,0,FastAcc,18,18,Woman,Right,
6,12,1,0.8005962000006548,['n'],1,right,['2'],5,0.3001686999996309,0.1,0,FastAcc,18,18,Woman,Right,
7,12,1,0.8161691999994218,['n'],1,right,['1'],6,0.36818619999939983,0.2,0,FastAcc,18,18,Woman,Right,
8,12,1,0.8504537000007986,['n'],1,right,['2'],5,0.2346159999997326,0.1,0,FastAcc,18,18,Woman,Right,
9,12,1,0.7171861999995599,['n'],1,right,['2'],5,0.3173729000009189,0.2,0,FastAcc,18,18,Woman,Right,
10,12,1,0.6838480000005802,['n'],1,right,['1'],6,0.2668264000003546,0.4,0,FastAcc,18,18,Woman,Right,
11,12,1,0.8842136999992363,['c'],1,left,['3'],4,0.3679102999994939,0.1,0,FastAcc,18,18,Woman,Right,
12,12,1,0.6498900999995385,['n'],0,left,['2'],5,0.45262240000010934,0.2,0,FastAcc,18,18,Woman,Right,
13,12,1,0.8171576000004279,['n'],0,left,['2'],5,0.5164036999995005,0.1,0,FastAcc,18,18,Woman,Right,
14,12,1,0.8344641000003321,['n'],1,right,['1'],6,0.5513774999999441,0.4,0,FastAcc,18,18,Woman,Right,
15,12,1,1.0337543999994523,['c'],1,left,['3'],4,0.30020779999904335,0.2,0,FastAcc,18,18,Woman,Right,
16,12,1,1.3672581999999238,['c'],1,left,['1'],6,0.2999275000001944,0.4,0,FastAcc,18,18,Woman,Right,
17,12,1,0.6170194000005722,['n'],1,right,['1'],6,0.30127250000077765,0.4,0,FastAcc,18,18,Woman,Right,
18,12,1,0.9492958999999246,['c'],0,right,['2'],5,0.4683038999992277,0.1,0,FastAcc,18,18,Woman,Right,
19,12,1,0.7341104999995878,['n'],1,right,['1'],6,0.267895299999509,0.1,0,FastAcc,18,18,Woman,Right,
20,12,1,0.8159376000003249,['c'],1,left,['1'],6,0.26726400000006834,0.4,0,FastAcc,18,18,Woman,Right,
21,12,1,0.8167126999996981,['c'],1,left,['2'],5,0.35139590000108,0.2,0,FastAcc,18,18,Woman,Right,
22,12,1,0.783289800001512,['c'],1,left,['2'],5,0.2678016999998363,0.2,0,FastAcc,18,18,Woman,Right,
23,12,1,0.683966300000975,['n'],1,right,['1'],6,0.21798390000003565,0.2,0,FastAcc,18,18,Woman,Right,
24,12,1,0.634297599999627,['c'],1,left,['1'],6,0.2679908999998588,0.1,0,FastAcc,18,18,Woman,Right,
25,12,1,0.6679349000005459,['c'],1,left,['1'],6,0.2512743999996019,0.2,0,FastAcc,18,18,Woman,Right,
26,12,1,1.0505160000011529,['n'],0,left,['2'],5,0.2509764999995241,0.1,0,FastAcc,18,18,Woman,Right,
27,12,1,0.5840850999993563,['c'],1,left,['1'],6,0.2676571000010881,0.4,0,FastAcc,18,18,Woman,Right,
28,12,1,0.5837864000004629,['n'],1,right,['1'],6,0.3001810999994632,0.4,0,FastAcc,18,18,Woman,Right,
29,12,1,1.0330218999988574,['n'],1,right,['2'],5,0.2523170000004029,0.4,0,FastAcc,18,18,Woman,Right,
30,12,1,0.998289899998781,['c'],0,right,['8'],3,0.35312080000039714,0.2,0,FastAcc,18,18,Woman,Right,
31,12,1,1.0344923000011477,['n'],1,right,['3'],4,0.5851970000003348,0.1,0,FastAcc,18,18,Woman,Right,
32,12,1,1.0167330000003858,['n'],0,left,['1'],6,0.23600120000082825,0.2,0,FastAcc,18,18,Woman,Right,
33,12,1,0.699446499998885,['n'],1,right,['2'],5,0.2995186999996804,0.4,0,FastAcc,18,18,Woman,Right,
34,12,1,0.6162958999993862,['c'],1,left,['1'],6,0.23621120000098017,0.4,0,FastAcc,18,18,Woman,Right,
35,12,1,0.8672513000001345,['n'],0,left,['2'],5,0.235080200000084,0.1,0,FastAcc,18,18,Woman,Right,
36,12,1,0.7672589000012522,['n'],1,right,['1'],6,0.20123849999981758,0.4,0,FastAcc,18,18,Woman,Right,
37,12,1,0.9172570999999152,['n'],0,left,['2'],5,0.26671709999936866,0.1,0,FastAcc,18,18,Woman,Right,
38,12,1,0.9838206999993417,['n'],1,right,['1'],6,0.5008291000012832,0.4,0,FastAcc,18,18,Woman,Right,
39,12,1,0.6680214000007254,['c'],1,left,['1'],6,0.25133910000113246,0.4,0,FastAcc,18,18,Woman,Right,
40,12,1,0.8001448000013625,['n'],1,right,['2'],5,0.26772499999970023,0.2,0,FastAcc,18,18,Woman,Right,
41,12,1,0.516984699999739,['c'],1,left,['1'],6,0.23364089999995485,0.4,0,FastAcc,18,18,Woman,Right,
42,12,1,0.6682026999988011,['n'],1,right,['2'],5,0.2830138999997871,0.1,0,FastAcc,18,18,Woman,Right,
43,12,1,0.9677363999999216,['c'],1,left,['1'],6,0.2676177000012103,0.2,0,FastAcc,18,18,Woman,Right,
44,12,1,1.068973499999629,['c'],1,left,['2'],5,0.26805419999982405,0.2,0,FastAcc,18,18,Woman,Right,
45,12,1,0.7337711999989551,['c'],1,left,['1'],6,0.5508370999996259,0.4,0,FastAcc,18,18,Woman,Right,
46,12,1,0.9317803000012645,['n'],0,left,['3'],4,0.501746699999785,0.1,0,FastAcc,18,18,Woman,Right,
47,12,1,0.7494542000004003,['c'],0,right,['3'],4,0.3358345999986341,0.1,0,FastAcc,18,18,Woman,Right,
48,12,1,0.648743600000671,['n'],1,right,['1'],6,0.25217309999970894,0.1,0,FastAcc,18,18,Woman,Right,
49,12,1,0.6849607999993168,['n'],1,right,['1'],6,0.23499869999977818,0.4,0,FastAcc,18,18,Woman,Right,
50,12,1,0.7501066999993782,['c'],1,left,['3'],4,0.23443629999928817,0.2,0,FastAcc,18,18,Woman,Right,
51,12,1,0.8838967000010598,['n'],1,right,['3'],4,0.2502539000015531,0.2,0,FastAcc,18,18,Woman,Right,
52,12,1,1.0512520000011136,['n'],1,right,['3'],4,0.4009381999985635,0.2,0,FastAcc,18,18,Woman,Right,
53,12,1,0.9986845999992511,['n'],1,right,['8'],3,0.26855300000170246,0.2,0,FastAcc,18,18,Woman,Right,
54,12,1,1.2348607999992964,['c'],1,left,['1'],6,0.2515258999992511,0.4,0,FastAcc,18,18,Woman,Right,
55,12,1,1.1159559000006993,['c'],1,left,['3'],4,0.38548439999976836,0.1,0,FastAcc,18,18,Woman,Right,
56,12,1,0.8505399000005127,['c'],1,left,['2'],5,0.2328804000007949,0.2,0,FastAcc,18,18,Woman,Right,
57,12,1,1.0010390999996162,['n'],1,right,['1'],6,0.2520108999997319,0.1,0,FastAcc,18,18,Woman,Right,
58,12,1,0.7827366000001348,['c'],1,left,['1'],6,0.21860019999985525,0.4,0,FastAcc,18,18,Woman,Right,
59,12,1,0.8824974000017392,['n'],1,right,['1'],6,0.23455550000107905,0.1,0,FastAcc,18,18,Woman,Right,
0,13,1,0.8678942999995343,['c'],1,left,['1'],6,0.2680419999996957,0.2,0,FastFast,18,18,Woman,Right,
1,13,1,1.1015700999996625,['n'],1,right,['1'],6,0.4512513999998191,0.2,0,FastFast,18,18,Woman,Right,
2,13,1,1.1500316000001476,['c'],1,left,['2'],5,0.30143929999940156,0.1,0,FastFast,18,18,Woman,Right,
3,13,1,0.8003397000011319,['n'],1,right,['1'],6,0.250361200000043,0.4,0,FastFast,18,18,Woman,Right,
4,13,1,1.0172175000006973,['n'],1,right,['3'],4,0.2514661999994132,0.2,0,FastFast,18,18,Woman,Right,
5,13,1,0.8003355999990163,['n'],1,right,['1'],6,0.20149490000039805,0.2,0,FastFast,18,18,Woman,Right,
6,13,1,0.8496763000002829,['c'],1,left,['1'],6,0.2518325000000914,0.1,0,FastFast,18,18,Woman,Right,
7,13,1,0.8837591999999859,['n'],0,left,['0'],1,0.8000259999989794,0.4,0,FastFast,18,18,Woman,Right,
8,13,1,0.8181158999996114,['c'],1,left,['3'],4,0.2681358999998338,0.1,0,FastFast,18,18,Woman,Right,
9,13,1,1.2165827000007994,['c'],1,left,['8'],3,0.5515727000001789,0.1,0,FastFast,18,18,Woman,Right,
10,13,1,0.8007202999997389,['c'],1,left,['1'],6,0.38482250000015483,0.4,0,FastFast,18,18,Woman,Right,
11,13,1,0.8996311999999307,['n'],1,right,['1'],6,0.21802549999847542,0.4,0,FastFast,18,18,Woman,Right,
12,13,1,0.7337798000007751,['c'],1,left,['1'],6,0.1851716999990458,0.2,0,FastFast,18,18,Woman,Right,
13,13,1,0.8005013999991206,['n'],1,right,['1'],6,0.24945200000001932,0.1,0,FastFast,18,18,Woman,Right,
14,13,1,0.7165726000002905,['c'],1,left,['1'],6,0.18483829999968293,0.4,0,FastFast,18,18,Woman,Right,
15,13,1,0.6177231999990909,['c'],1,left,['2'],5,0.35031850000086706,0.2,0,FastFast,18,18,Woman,Right,
16,13,1,1.234389299999748,['c'],0,right,['3'],4,0.38453470000058587,0.1,0,FastFast,18,18,Woman,Right,
17,13,1,1.1345369999999093,['n'],1,right,['1'],6,0.30169910000040545,0.4,0,FastFast,18,18,Woman,Right,
18,13,1,0.7165066999987175,['c'],1,left,['1'],6,0.2002069999998639,0.4,0,FastFast,18,18,Woman,Right,
19,13,1,0.6339717000009841,['n'],1,right,['1'],6,0.2352480999998079,0.4,0,FastFast,18,18,Woman,Right,
20,13,1,0.6835170999984257,['n'],1,right,['1'],6,0.2682524000010744,0.4,0,FastFast,18,18,Woman,Right,
21,13,1,0.6506792000000132,['c'],1,left,['1'],6,0.2009914000009303,0.4,0,FastFast,18,18,Woman,Right,
22,13,1,0.66710939999939,['n'],1,right,['1'],6,0.20159810000041034,0.1,0,FastFast,18,18,Woman,Right,
23,13,1,0.7009177999989333,['n'],1,right,['1'],6,0.20116950000010547,0.2,0,FastFast,18,18,Woman,Right,
24,13,1,1.7009315000013885,['n'],1,right,['2'],5,0.35092059999988123,0.1,0,FastFast,18,18,Woman,Right,
25,13,1,0.6993317999986175,['c'],1,left,['1'],6,0.26921480000055453,0.1,0,FastFast,18,18,Woman,Right,
26,13,1,1.149785100000372,['n'],0,left,['2'],5,0.23542299999826355,0.1,0,FastFast,18,18,Woman,Right,
27,13,1,0.7172229999996489,['n'],1,right,['1'],6,0.20148779999908584,0.4,0,FastFast,18,18,Woman,Right,
28,13,1,0.9505955000004178,['n'],1,right,['3'],4,0.2846025999988342,0.2,0,FastFast,18,18,Woman,Right,
29,13,1,0.9996662000012293,['c'],1,left,['3'],4,0.3009552999992593,0.1,0,FastFast,18,18,Woman,Right,
30,13,1,1.3011743999995815,['c'],1,left,['1'],6,0.23477339999953983,0.4,0,FastFast,18,18,Woman,Right,
31,13,1,1.0172460000012506,['n'],1,right,['1'],6,0.5851127999994787,0.1,0,FastFast,18,18,Woman,Right,
32,13,1,0.7152790000000095,['c'],1,left,['2'],5,0.2862316999999166,0.2,0,FastFast,18,18,Woman,Right,
33,13,1,0.849498700001277,['c'],1,left,['3'],4,0.2522339999995893,0.1,0,FastFast,18,18,Woman,Right,
34,13,1,0.9825631999992765,['c'],1,left,['1'],6,0.26811909999923955,0.2,0,FastFast,18,18,Woman,Right,
35,13,1,0.6658186999993632,['c'],1,left,['2'],5,0.25168219999977737,0.4,0,FastFast,18,18,Woman,Right,
36,13,1,0.7013680999989447,['c'],1,left,['1'],6,0.21846870000081253,0.4,0,FastFast,18,18,Woman,Right,
37,13,1,0.8666472000004433,['n'],1,right,['1'],6,0.33460399999967194,0.2,0,FastFast,18,18,Woman,Right,
38,13,1,1.2497956000006525,['c'],0,right,['2'],5,0.26791400000001886,0.2,0,FastFast,18,18,Woman,Right,
39,13,1,0.9161581000007573,['n'],1,right,['3'],4,0.2681155000009312,0.2,0,FastFast,18,18,Woman,Right,
40,13,1,0.565908100001252,['c'],1,left,['2'],5,0.28568950000044424,0.2,0,FastFast,18,18,Woman,Right,
41,13,1,1.1164264999988518,['n'],1,right,['2'],5,0.3183884999998554,0.2,0,FastFast,18,18,Woman,Right,
42,13,1,1.166178999999829,['c'],0,right,['3'],4,0.3519059999998717,0.1,0,FastFast,18,18,Woman,Right,
43,13,1,0.91692779999903,['n'],0,left,['8'],3,0.3173606000000291,0.1,0,FastFast,18,18,Woman,Right,
44,13,1,1.1173808999992616,['n'],1,right,['1'],6,0.45012690000112343,0.2,0,FastFast,18,18,Woman,Right,
45,13,1,0.9177192000006471,['c'],1,left,['3'],4,0.3014373000005435,0.2,0,FastFast,18,18,Woman,Right,
46,13,1,0.9174886000000697,['n'],1,right,['2'],5,0.3514044000003196,0.4,0,FastFast,18,18,Woman,Right,
47,13,1,0.783415400001104,['n'],1,right,['2'],5,0.2336326000004192,0.1,0,FastFast,18,18,Woman,Right,
48,13,1,0.7999223000006168,['c'],1,left,['3'],4,0.25225160000081814,0.1,0,FastFast,18,18,Woman,Right,
49,13,1,0.7173032000009698,['n'],1,right,['1'],6,0.28463190000002214,0.2,0,FastFast,18,18,Woman,Right,
50,13,1,0.6501613000000361,['n'],1,right,['2'],5,0.3168972000003123,0.4,0,FastFast,18,18,Woman,Right,
51,13,1,1.1661972999991121,['c'],0,right,['3'],4,0.3353852000000188,0.1,0,FastFast,18,18,Woman,Right,
52,13,1,0.9329828999998426,['c'],1,left,['1'],6,0.4179323000007571,0.4,0,FastFast,18,18,Woman,Right,
53,13,1,1.1165846000003512,['n'],1,right,['3'],4,0.40213760000006005,0.1,0,FastFast,18,18,Woman,Right,
54,13,1,0.8336925000003248,['n'],1,right,['1'],6,0.6180510000012873,0.2,0,FastFast,18,18,Woman,Right,
55,13,1,1.567832599999747,['c'],1,left,['8'],3,0.3180606000005355,0.1,0,FastFast,18,18,Woman,Right,
56,13,1,1.2172970999999961,['n'],0,left,['3'],4,0.9506342999993649,0.2,0,FastFast,18,18,Woman,Right,
57,13,1,0.8171641000008094,['n'],1,right,['1'],6,0.3180252999991353,0.4,0,FastFast,18,18,Woman,Right,
58,13,1,0.7665505000004487,['c'],1,left,['1'],6,0.21731699999872944,0.4,0,FastFast,18,18,Woman,Right,
59,13,1,0.649337500000911,['c'],1,left,['1'],6,0.18425100000058592,0.4,0,FastFast,18,18,Woman,Right,
0,14,1,0.8013006000001042,['n'],1,right,['1'],6,0.20140160000119067,0.2,0,AccFast,18,18,Woman,Right,
1,14,1,0.550402099999701,['n'],1,right,['1'],6,0.16580509999948845,0.4,0,AccFast,18,18,Woman,Right,
2,14,1,0.8690177999997104,['n'],1,right,['2'],5,0.21617809999952442,0.2,0,AccFast,18,18,Woman,Right,
3,14,1,1.133377300000575,['c'],1,left,['3'],4,0.28375299999970593,0.2,0,AccFast,18,18,Woman,Right,
4,14,1,0.7693192999995517,['n'],1,right,['3'],4,0.19954540000071574,0.1,0,AccFast,18,18,Woman,Right,
5,14,1,0.6504542999991827,['c'],1,left,['1'],6,0.2680968999993638,0.4,0,AccFast,18,18,Woman,Right,
6,14,1,0.6013420999988739,['c'],1,left,['1'],6,0.33427470000060566,0.4,0,AccFast,18,18,Woman,Right,
7,14,1,0.7671606000003521,['c'],1,left,['2'],5,0.2997997000002215,0.2,0,AccFast,18,18,Woman,Right,
8,14,1,0.8351201999994373,['c'],1,left,['3'],4,0.2513342999991437,0.2,0,AccFast,18,18,Woman,Right,
9,14,1,0.6668293999991874,['n'],1,right,['1'],6,0.20139879999987897,0.4,0,AccFast,18,18,Woman,Right,
10,14,1,0.7492528999991919,['c'],1,left,['1'],6,0.550020399999994,0.4,0,AccFast,18,18,Woman,Right,
11,14,1,0.9838577999998961,['n'],0,left,['3'],4,0.25190699999984645,0.2,0,AccFast,18,18,Woman,Right,
12,14,1,1.1514461999995547,['n'],0,left,['3'],4,0.5006190999993123,0.1,0,AccFast,18,18,Woman,Right,
13,14,1,0.6519928999987314,['n'],1,right,['1'],6,0.21690710000075342,0.4,0,AccFast,18,18,Woman,Right,
14,14,1,1.0497611000009783,['n'],1,right,['2'],5,0.5683711000001495,0.4,0,AccFast,18,18,Woman,Right,
15,14,1,0.8664089999983844,['n'],1,right,['2'],5,0.19926570000097854,0.2,0,AccFast,18,18,Woman,Right,
16,14,1,0.9499735000008513,['n'],1,right,['1'],6,0.28598500000043714,0.4,0,AccFast,18,18,Woman,Right,
17,14,1,0.8651747999992949,['n'],1,right,['3'],4,0.25044100000013714,0.2,0,AccFast,18,18,Woman,Right,
18,14,1,0.8347843000010471,['n'],1,right,['8'],3,0.2826187000009668,0.1,0,AccFast,18,18,Woman,Right,
19,14,1,0.9177441000010731,['n'],1,right,['3'],4,0.26830550000158837,0.1,0,AccFast,18,18,Woman,Right,
20,14,1,0.7005398999990575,['n'],1,right,['1'],6,0.20067869999911636,0.2,0,AccFast,18,18,Woman,Right,
21,14,1,0.633661600000778,['c'],1,left,['1'],6,0.20142410000153177,0.4,0,AccFast,18,18,Woman,Right,
22,14,1,0.716542500000287,['n'],1,right,['1'],6,0.2347618000003422,0.4,0,AccFast,18,18,Woman,Right,
23,14,1,0.915799500000503,['c'],1,left,['3'],4,0.23362119999910647,0.1,0,AccFast,18,18,Woman,Right,
24,14,1,1.151625200000126,['n'],1,right,['2'],5,0.3001086000003852,0.1,0,AccFast,18,18,Woman,Right,
25,14,1,0.9822468999991543,['c'],1,left,['1'],6,0.23565919999964535,0.2,0,AccFast,18,18,Woman,Right,
26,14,1,0.7988371999999799,['n'],0,left,['1'],6,0.23422859999845969,0.1,0,AccFast,18,18,Woman,Right,
27,14,1,0.9512654999998631,['n'],1,right,['2'],5,0.23488819999874977,0.2,0,AccFast,18,18,Woman,Right,
28,14,1,0.698613499998828,['n'],1,right,['1'],6,0.1842980000001262,0.4,0,AccFast,18,18,Woman,Right,
29,14,1,0.668133699999089,['n'],1,right,['1'],6,0.19998649999979534,0.4,0,AccFast,18,18,Woman,Right,
30,14,1,0.8183443000016268,['n'],1,right,['2'],5,0.2514365999995789,0.2,0,AccFast,18,18,Woman,Right,
31,14,1,0.6836350000012317,['n'],1,right,['2'],5,0.201430099999925,0.2,0,AccFast,18,18,Woman,Right,
32,14,1,0.650517399999444,['c'],1,left,['1'],6,0.2346161999994365,0.4,0,AccFast,18,18,Woman,Right,
33,14,1,0.850442999999359,['n'],1,right,['2'],5,0.21848809999937657,0.1,0,AccFast,18,18,Woman,Right,
34,14,1,0.9833176000011008,['c'],1,left,['2'],5,0.5179217000004428,0.1,0,AccFast,18,18,Woman,Right,
35,14,1,1.016093299998829,['n'],0,left,['2'],5,0.21855060000052617,0.1,0,AccFast,18,18,Woman,Right,
36,14,1,0.9671271000006527,['c'],1,left,['2'],5,0.4014581999999791,0.2,0,AccFast,18,18,Woman,Right,
37,14,1,0.7170944000008603,['c'],1,left,['1'],6,0.20016380000015488,0.2,0,AccFast,18,18,Woman,Right,
38,14,1,0.867397300000448,['c'],1,left,['1'],6,0.20183670000005804,0.4,0,AccFast,18,18,Woman,Right,
39,14,1,1.2511195999995834,['n'],0,left,['8'],3,0.6681032000014966,0.1,0,AccFast,18,18,Woman,Right,
40,14,1,0.6340036000001419,['c'],1,left,['1'],6,0.20137830000021495,0.4,0,AccFast,18,18,Woman,Right,
41,14,1,0.6336983000001055,['c'],1,left,['1'],6,0.2177916999989975,0.4,0,AccFast,18,18,Woman,Right,
42,14,1,1.3329473000012513,['c'],1,left,['2'],5,0.21842579999974987,0.2,0,AccFast,18,18,Woman,Right,
43,14,1,1.5839213999988715,['n'],1,right,['2'],5,0.401388099999167,0.1,0,AccFast,18,18,Woman,Right,
44,14,1,1.0322912999999971,['c'],1,left,['2'],5,0.25153619999946386,0.1,0,AccFast,18,18,Woman,Right,
45,14,1,0.7171049999997194,['c'],1,left,['1'],6,0.23474929999974847,0.2,0,AccFast,18,18,Woman,Right,
46,14,1,0.7509286000004067,['c'],1,left,['1'],6,0.23485040000014124,0.4,0,AccFast,18,18,Woman,Right,
47,14,1,1.550737499999741,['n'],1,right,['1'],6,0.2686530999999377,0.2,0,AccFast,18,18,Woman,Right,
48,14,1,1.033626299999014,['c'],1,left,['2'],5,0.2016853999994055,0.1,0,AccFast,18,18,Woman,Right,
49,14,1,0.9172622000005504,['n'],1,right,['1'],6,0.26909840000007534,0.4,0,AccFast,18,18,Woman,Right,
50,14,1,1.133555799999158,['c'],1,left,['2'],5,0.217972300000838,0.1,0,AccFast,18,18,Woman,Right,
51,14,1,0.6658757000004698,['c'],1,left,['1'],6,0.23419669999930193,0.2,0,AccFast,18,18,Woman,Right,
52,14,1,0.5508045999995375,['c'],1,left,['1'],6,0.21831100000053993,0.4,0,AccFast,18,18,Woman,Right,
53,14,1,0.9510171000001719,['n'],1,right,['1'],6,0.21822199999951408,0.1,0,AccFast,18,18,Woman,Right,
54,14,1,0.91779409999981,['c'],0,right,['2'],5,0.234914700000445,0.1,0,AccFast,18,18,Woman,Right,
55,14,1,0.833921299999929,['n'],1,right,['1'],6,0.35170130000005884,0.1,0,AccFast,18,18,Woman,Right,
56,14,1,0.6158878000005643,['c'],1,left,['1'],6,0.18574140000055195,0.4,0,AccFast,18,18,Woman,Right,
57,14,1,1.017714800000249,['n'],1,right,['2'],5,0.26675910000085423,0.1,0,AccFast,18,18,Woman,Right,
58,14,1,0.9846771000011358,['n'],1,right,['2'],5,0.2680445999994845,0.1,0,AccFast,18,18,Woman,Right,
59,14,1,0.8321933000006538,['n'],1,right,['1'],6,0.20128110000041488,0.2,0,AccFast,18,18,Woman,Right,
0,15,1,0.8178735999990749,['n'],1,right,['1'],6,0.23452499999984866,0.4,0,AccAcc,18,18,Woman,Right,
1,15,1,0.5674550000003364,['c'],1,left,['1'],6,0.18439419999958773,0.4,0,AccAcc,18,18,Woman,Right,
2,15,1,0.6351582999996026,['n'],1,right,['1'],6,0.21799370000007912,0.4,0,AccAcc,18,18,Woman,Right,
3,15,1,0.7002398000004177,['n'],1,right,['1'],6,0.23473999999987427,0.4,0,AccAcc,18,18,Woman,Right,
4,15,1,0.48439069999949425,['c'],1,left,['1'],6,0.20137419999991835,0.2,0,AccAcc,18,18,Woman,Right,
5,15,1,1.0843558999986271,['c'],1,left,['2'],5,0.20146339999882912,0.1,0,AccAcc,18,18,Woman,Right,
6,15,1,0.8005345999990823,['n'],1,right,['2'],5,0.20104670000000624,0.1,0,AccAcc,18,18,Woman,Right,
7,15,1,0.5830145999989327,['n'],1,right,['1'],6,0.21840899999915564,0.4,0,AccAcc,18,18,Woman,Right,
8,15,1,0.5170404999989842,['c'],1,left,['1'],6,0.18475439999929222,0.4,0,AccAcc,18,18,Woman,Right,
9,15,1,0.5671872000002622,['c'],1,left,['1'],6,0.20146679999925254,0.4,0,AccAcc,18,18,Woman,Right,
10,15,1,0.9343672000013612,['c'],1,left,['3'],4,0.417943300000843,0.1,0,AccAcc,18,18,Woman,Right,
11,15,1,0.9500200000002224,['c'],0,right,['8'],3,0.2346665999994002,0.1,0,AccAcc,18,18,Woman,Right,
12,15,1,0.5839283000004798,['c'],1,left,['1'],6,0.18354550000003655,0.2,0,AccAcc,18,18,Woman,Right,
13,15,1,0.550634799999898,['c'],1,left,['1'],6,0.16800839999996242,0.4,0,AccAcc,18,18,Woman,Right,
14,15,1,0.5337947999996686,['c'],1,left,['1'],6,0.18470860000161338,0.4,0,AccAcc,18,18,Woman,Right,
15,15,1,0.616588299999421,['c'],0,right,['0'],1,1.384003199998915,0.4,0,AccAcc,18,18,Woman,Right,
16,15,1,1.2179331000006641,['n'],1,right,['1'],6,0.23404700000173762,0.4,0,AccAcc,18,18,Woman,Right,
17,15,1,0.8175873000000138,['n'],1,right,['1'],6,0.25064089999978023,0.2,0,AccAcc,18,18,Woman,Right,
18,15,1,0.7842352999996365,['n'],1,right,['2'],5,0.25129240000023856,0.1,0,AccAcc,18,18,Woman,Right,
19,15,1,0.9832036000007065,['n'],1,right,['1'],6,0.21850870000162104,0.2,0,AccAcc,18,18,Woman,Right,
20,15,1,0.7510528000002523,['c'],1,left,['1'],6,0.28582340000139084,0.2,0,AccAcc,18,18,Woman,Right,
21,15,1,0.6837348000008205,['n'],1,right,['1'],6,0.23470589999851654,0.4,0,AccAcc,18,18,Woman,Right,
22,15,1,0.6667046999991726,['n'],1,right,['1'],6,0.18502690000059374,0.4,0,AccAcc,18,18,Woman,Right,
23,15,1,1.2507703000010224,['c'],0,right,['2'],5,0.6179205999997066,0.1,0,AccAcc,18,18,Woman,Right,
24,15,1,0.9166301000004751,['n'],0,left,['3'],4,0.5506915999994817,0.1,0,AccAcc,18,18,Woman,Right,
25,15,1,0.9504845999999816,['n'],0,left,['3'],4,0.21815240000069025,0.1,0,AccAcc,18,18,Woman,Right,
26,15,1,0.6829864000010275,['n'],1,right,['1'],6,0.1845511000010447,0.2,0,AccAcc,18,18,Woman,Right,
27,15,1,1.0509254000007786,['c'],1,left,['1'],6,0.2515447999994649,0.2,0,AccAcc,18,18,Woman,Right,
28,15,1,0.8004485000001296,['n'],0,left,['2'],5,0.25004989999979443,0.1,0,AccAcc,18,18,Woman,Right,
29,15,1,0.7511948999999731,['n'],1,right,['2'],5,0.21807739999894693,0.2,0,AccAcc,18,18,Woman,Right,
30,15,1,0.6837859000006574,['n'],1,right,['1'],6,0.18476840000039374,0.2,0,AccAcc,18,18,Woman,Right,
31,15,1,0.7174517000003107,['n'],1,right,['2'],5,0.4013704000008147,0.2,0,AccAcc,18,18,Woman,Right,
32,15,1,0.7511679999988701,['c'],1,left,['2'],5,0.23481979999996838,0.1,0,AccAcc,18,18,Woman,Right,
33,15,1,0.6007675000000745,['n'],1,right,['1'],6,0.18478460000005725,0.4,0,AccAcc,18,18,Woman,Right,
34,15,1,0.800590300001204,['c'],1,left,['1'],6,0.21792530000129773,0.2,0,AccAcc,18,18,Woman,Right,
35,15,1,0.5824474000000919,['n'],1,right,['1'],6,0.15219930000057502,0.4,0,AccAcc,18,18,Woman,Right,
36,15,1,0.7006633999990299,['n'],1,right,['1'],6,0.1678511999998591,0.4,0,AccAcc,18,18,Woman,Right,
37,15,1,0.8671739000001253,['c'],1,left,['2'],5,0.23523559999921417,0.1,0,AccAcc,18,18,Woman,Right,
38,15,1,0.7662127000003238,['n'],0,left,['1'],6,0.2510917999989033,0.2,0,AccAcc,18,18,Woman,Right,
39,15,1,0.6660689000000275,['n'],1,right,['1'],6,0.16722250000020722,0.4,0,AccAcc,18,18,Woman,Right,
40,15,1,0.6679653999999573,['c'],1,left,['1'],6,0.18470349999915925,0.4,0,AccAcc,18,18,Woman,Right,
41,15,1,0.6325954999992973,['n'],1,right,['2'],5,0.3022736000002624,0.2,0,AccAcc,18,18,Woman,Right,
42,15,1,0.6827486000001954,['c'],1,left,['1'],6,0.23531829999956244,0.1,0,AccAcc,18,18,Woman,Right,
43,15,1,0.6837845999998535,['n'],1,right,['2'],5,0.3015101000000868,0.2,0,AccAcc,18,18,Woman,Right,
44,15,1,0.9337139999988722,['c'],0,right,['1'],6,0.2678912000010314,0.2,0,AccAcc,18,18,Woman,Right,
45,15,1,0.9010345000006055,['n'],0,left,['3'],4,0.2512604999992618,0.1,0,AccAcc,18,18,Woman,Right,
46,15,1,0.83395500000006,['c'],1,left,['8'],3,0.4348028999993403,0.2,0,AccAcc,18,18,Woman,Right,
47,15,1,0.9832114999990154,['n'],0,left,['2'],5,0.21799540000029083,0.1,0,AccAcc,18,18,Woman,Right,
48,15,1,0.9001527000000351,['n'],1,right,['2'],5,0.2514284000008047,0.1,0,AccAcc,18,18,Woman,Right,
49,15,1,0.9497860000010405,['n'],0,left,['3'],4,0.20016650000070513,0.1,0,AccAcc,18,18,Woman,Right,
50,15,1,0.8341068000008818,['c'],1,left,['1'],6,0.234776299999794,0.2,0,AccAcc,18,18,Woman,Right,
51,15,1,0.6836078999986057,['c'],0,right,['2'],5,0.23341740000068967,0.1,0,AccAcc,18,18,Woman,Right,
52,15,1,0.6842952000006335,['c'],1,left,['1'],6,0.26801700000032724,0.2,0,AccAcc,18,18,Woman,Right,
53,15,1,1.1006123999995907,['n'],1,right,['3'],4,0.23480820000077074,0.2,0,AccAcc,18,18,Woman,Right,
54,15,1,0.8340442999997322,['c'],1,left,['2'],5,0.2513987999991514,0.1,0,AccAcc,18,18,Woman,Right,
55,15,1,0.9331184000002395,['c'],1,left,['1'],6,0.21831399999973655,0.4,0,AccAcc,18,18,Woman,Right,
56,15,1,0.915966099999423,['c'],1,left,['2'],5,0.25214230000165117,0.2,0,AccAcc,18,18,Woman,Right,
57,15,1,1.2162813999984792,['c'],1,left,['3'],4,0.3184579999997368,0.1,0,AccAcc,18,18,Woman,Right,
58,15,1,0.9669340000000375,['n'],1,right,['1'],6,0.2843962000006286,0.4,0,AccAcc,18,18,Woman,Right,
59,15,1,1.0337553999997908,['c'],0,right,['2'],5,0.2848685999997542,0.1,0,AccAcc,18,18,Woman,Right,
