withinblocktrial,block,block_repetition,rt,resp,cor,cresp,conf_press,cj,rtconf,coherence,slow_trial,manipulation,sub,age,gender,handedness,
0,1,1,4.2003538999997545,['n'],1,right,none,-99,-99,0.5,0,none,21,18,Woman,Right,
1,1,1,1.5007157000000007,['c'],1,left,none,-99,-99,0.5,0,none,21,18,Woman,Right,
2,1,1,1.4164502000003267,['n'],0,left,none,-99,-99,0.5,0,none,21,18,Woman,Right,
3,1,1,1.5680185000001075,['c'],1,left,none,-99,-99,0.5,0,none,21,18,Woman,Right,
4,1,1,0.9342010999989725,['c'],1,left,none,-99,-99,0.5,0,none,21,18,Woman,Right,
5,1,1,0.6504887000010058,['n'],1,right,none,-99,-99,0.5,0,none,21,18,Woman,Right,
6,1,1,0.9006086000008509,['n'],1,right,none,-99,-99,0.5,0,none,21,18,Woman,Right,
7,1,1,0.6676924000003055,['c'],1,left,none,-99,-99,0.5,0,none,21,18,Woman,Right,
8,1,1,1.533907700000782,['c'],1,left,none,-99,-99,0.5,0,none,21,18,Woman,Right,
9,1,1,0.48378149999916786,['n'],1,right,none,-99,-99,0.5,0,none,21,18,Woman,Right,
10,1,1,0.7164002000008622,['c'],0,right,none,-99,-99,0.5,0,none,21,18,Woman,Right,
11,1,1,0.7672452999995585,['c'],1,left,none,-99,-99,0.5,0,none,21,18,Woman,Right,
12,1,1,1.0504334999986895,['n'],1,right,none,-99,-99,0.5,0,none,21,18,Woman,Right,
13,1,1,0.6839309999995749,['c'],0,right,none,-99,-99,0.5,0,none,21,18,Woman,Right,
14,1,1,0.6995249000010517,['c'],0,right,none,-99,-99,0.5,0,none,21,18,Woman,Right,
15,1,1,2.215428700001212,['n'],1,right,none,-99,-99,0.5,0,none,21,18,Woman,Right,
16,1,1,0.7004694999995991,['c'],0,right,none,-99,-99,0.5,0,none,21,18,Woman,Right,
17,1,1,0.9349909000011394,['c'],0,right,none,-99,-99,0.5,0,none,21,18,Woman,Right,
18,1,1,0.6351012000013725,['c'],1,left,none,-99,-99,0.5,0,none,21,18,Woman,Right,
19,1,1,0.6839160999988962,['c'],1,left,none,-99,-99,0.5,0,none,21,18,Woman,Right,
20,1,1,0.649209700000938,['c'],1,left,none,-99,-99,0.5,0,none,21,18,Woman,Right,
21,1,1,0.5510790000007546,['c'],1,left,none,-99,-99,0.5,0,none,21,18,Woman,Right,
22,1,1,0.6679077000007965,['n'],1,right,none,-99,-99,0.5,0,none,21,18,Woman,Right,
23,1,1,0.4652989999995043,['c'],1,left,none,-99,-99,0.5,0,none,21,18,Woman,Right,
0,1,2,0.718110700001489,['c'],1,left,none,-99,-99,0.5,0,none,21,18,Woman,Right,
1,1,2,0.5007416999997076,['c'],1,left,none,-99,-99,0.5,0,none,21,18,Woman,Right,
2,1,2,0.44940649999989546,['c'],0,right,none,-99,-99,0.5,0,none,21,18,Woman,Right,
3,1,2,0.5519603000011557,['c'],1,left,none,-99,-99,0.5,0,none,21,18,Woman,Right,
4,1,2,0.5996596000004502,['c'],0,right,none,-99,-99,0.5,0,none,21,18,Woman,Right,
5,1,2,0.9158456000004662,['c'],1,left,none,-99,-99,0.5,0,none,21,18,Woman,Right,
6,1,2,0.583800299998984,['c'],1,left,none,-99,-99,0.5,0,none,21,18,Woman,Right,
7,1,2,0.5169754999988072,['c'],1,left,none,-99,-99,0.5,0,none,21,18,Woman,Right,
8,1,2,0.582481800000096,['c'],1,left,none,-99,-99,0.5,0,none,21,18,Woman,Right,
9,1,2,0.8160768000016105,['n'],1,right,none,-99,-99,0.5,0,none,21,18,Woman,Right,
10,1,2,0.48386910000044736,['c'],1,left,none,-99,-99,0.5,0,none,21,18,Woman,Right,
11,1,2,0.45056339999973716,['n'],1,right,none,-99,-99,0.5,0,none,21,18,Woman,Right,
12,1,2,0.8652077000006102,['c'],0,right,none,-99,-99,0.5,0,none,21,18,Woman,Right,
13,1,2,0.6332965000001423,['c'],1,left,none,-99,-99,0.5,0,none,21,18,Woman,Right,
14,1,2,0.7010458000004292,['c'],0,right,none,-99,-99,0.5,0,none,21,18,Woman,Right,
15,1,2,0.6011211999993975,['c'],1,left,none,-99,-99,0.5,0,none,21,18,Woman,Right,
16,1,2,0.6339723000000959,['n'],1,right,none,-99,-99,0.5,0,none,21,18,Woman,Right,
17,1,2,0.6513416999987385,['c'],0,right,none,-99,-99,0.5,0,none,21,18,Woman,Right,
18,1,2,0.9675086000006559,['c'],0,right,none,-99,-99,0.5,0,none,21,18,Woman,Right,
19,1,2,0.7513763000006293,['n'],1,right,none,-99,-99,0.5,0,none,21,18,Woman,Right,
20,1,2,0.617391800000405,['c'],0,right,none,-99,-99,0.5,0,none,21,18,Woman,Right,
21,1,2,0.9668875999996089,['c'],1,left,none,-99,-99,0.5,0,none,21,18,Woman,Right,
22,1,2,0.7674936999992497,['n'],1,right,none,-99,-99,0.5,0,none,21,18,Woman,Right,
23,1,2,0.6186374999997497,['c'],1,left,none,-99,-99,0.5,0,none,21,18,Woman,Right,
0,1,3,0.6849399999991874,['c'],1,left,none,-99,-99,0.5,0,none,21,18,Woman,Right,
1,1,3,0.6003252999998949,['n'],1,right,none,-99,-99,0.5,0,none,21,18,Woman,Right,
2,1,3,0.5160575000008976,['c'],1,left,none,-99,-99,0.5,0,none,21,18,Woman,Right,
3,1,3,0.9346614999994927,['n'],0,left,none,-99,-99,0.5,0,none,21,18,Woman,Right,
4,1,3,0.7501998999996431,['n'],1,right,none,-99,-99,0.5,0,none,21,18,Woman,Right,
5,1,3,0.5172425000000658,['c'],0,right,none,-99,-99,0.5,0,none,21,18,Woman,Right,
6,1,3,0.8827099999998609,['c'],1,left,none,-99,-99,0.5,0,none,21,18,Woman,Right,
7,1,3,0.6681936000004498,['c'],1,left,none,-99,-99,0.5,0,none,21,18,Woman,Right,
8,1,3,0.9157582999996521,['n'],1,right,none,-99,-99,0.5,0,none,21,18,Woman,Right,
9,1,3,0.6841291000000638,['c'],1,left,none,-99,-99,0.5,0,none,21,18,Woman,Right,
10,1,3,0.8663489999999001,['n'],1,right,none,-99,-99,0.5,0,none,21,18,Woman,Right,
11,1,3,0.44900520000010147,['c'],1,left,none,-99,-99,0.5,0,none,21,18,Woman,Right,
12,1,3,0.7836895999989792,['n'],0,left,none,-99,-99,0.5,0,none,21,18,Woman,Right,
13,1,3,0.6846182999997836,['n'],1,right,none,-99,-99,0.5,0,none,21,18,Woman,Right,
14,1,3,0.7340256000006775,['n'],1,right,none,-99,-99,0.5,0,none,21,18,Woman,Right,
15,1,3,0.6504647000001569,['n'],1,right,none,-99,-99,0.5,0,none,21,18,Woman,Right,
16,1,3,0.6651426000007632,['n'],1,right,none,-99,-99,0.5,0,none,21,18,Woman,Right,
17,1,3,0.5984704000002239,['n'],1,right,none,-99,-99,0.5,0,none,21,18,Woman,Right,
18,1,3,1.8336554000015894,['c'],1,left,none,-99,-99,0.5,0,none,21,18,Woman,Right,
19,1,3,1.7678156999991188,['n'],1,right,none,-99,-99,0.5,0,none,21,18,Woman,Right,
20,1,3,0.5658868999998958,['n'],1,right,none,-99,-99,0.5,0,none,21,18,Woman,Right,
21,1,3,0.6178995999998733,['n'],0,left,none,-99,-99,0.5,0,none,21,18,Woman,Right,
22,1,3,0.9336327000000892,['c'],1,left,none,-99,-99,0.5,0,none,21,18,Woman,Right,
23,1,3,0.8172981999996409,['c'],1,left,none,-99,-99,0.5,0,none,21,18,Woman,Right,
0,1,4,0.6339538000011089,['n'],1,right,none,-99,-99,0.5,0,none,21,18,Woman,Right,
1,1,4,0.5501893000000564,['c'],1,left,none,-99,-99,0.5,0,none,21,18,Woman,Right,
2,1,4,0.5847856999989745,['n'],1,right,none,-99,-99,0.5,0,none,21,18,Woman,Right,
3,1,4,0.5350565000007919,['n'],1,right,none,-99,-99,0.5,0,none,21,18,Woman,Right,
4,1,4,0.4485236000000441,['c'],1,left,none,-99,-99,0.5,0,none,21,18,Woman,Right,
5,1,4,0.46722479999880306,['n'],1,right,none,-99,-99,0.5,0,none,21,18,Woman,Right,
6,1,4,0.5000835999999254,['c'],1,left,none,-99,-99,0.5,0,none,21,18,Woman,Right,
7,1,4,0.6684972999992169,['c'],1,left,none,-99,-99,0.5,0,none,21,18,Woman,Right,
8,1,4,0.5658443000011175,['c'],1,left,none,-99,-99,0.5,0,none,21,18,Woman,Right,
9,1,4,0.5495339000008244,['c'],1,left,none,-99,-99,0.5,0,none,21,18,Woman,Right,
10,1,4,0.5508508999992046,['n'],1,right,none,-99,-99,0.5,0,none,21,18,Woman,Right,
11,1,4,1.1338419999992766,['n'],1,right,none,-99,-99,0.5,0,none,21,18,Woman,Right,
12,1,4,0.43365479999920353,['c'],1,left,none,-99,-99,0.5,0,none,21,18,Woman,Right,
13,1,4,0.4674663999994664,['c'],1,left,none,-99,-99,0.5,0,none,21,18,Woman,Right,
14,1,4,0.48304079999979876,['c'],1,left,none,-99,-99,0.5,0,none,21,18,Woman,Right,
15,1,4,0.48363269999936165,['c'],1,left,none,-99,-99,0.5,0,none,21,18,Woman,Right,
16,1,4,0.5330729000015708,['c'],1,left,none,-99,-99,0.5,0,none,21,18,Woman,Right,
17,1,4,0.516369199998735,['c'],1,left,none,-99,-99,0.5,0,none,21,18,Woman,Right,
18,1,4,0.5007433999999193,['n'],1,right,none,-99,-99,0.5,0,none,21,18,Woman,Right,
19,1,4,0.7679630000002362,['n'],1,right,none,-99,-99,0.5,0,none,21,18,Woman,Right,
20,1,4,0.4497645999999804,['n'],1,right,none,-99,-99,0.5,0,none,21,18,Woman,Right,
21,1,4,0.6496936999992613,['n'],1,right,none,-99,-99,0.5,0,none,21,18,Woman,Right,
22,1,4,0.46722960000079183,['n'],1,right,none,-99,-99,0.5,0,none,21,18,Woman,Right,
23,1,4,0.5845190000000002,['n'],1,right,none,-99,-99,0.5,0,none,21,18,Woman,Right,
0,2,1,3.583770600000207,['n'],1,right,none,-99,-99,0.2,0,none,21,18,Woman,Right,
1,2,1,0.632365800000116,['n'],0,left,none,-99,-99,0.4,0,none,21,18,Woman,Right,
2,2,1,0.45070339999983844,['n'],1,right,none,-99,-99,0.2,0,none,21,18,Woman,Right,
3,2,1,0.5673378999999841,['n'],1,right,none,-99,-99,0.4,0,none,21,18,Woman,Right,
4,2,1,0.6840651999991678,['n'],0,left,none,-99,-99,0.2,0,none,21,18,Woman,Right,
5,2,1,1.9347058000003017,['n'],1,right,none,-99,-99,0.2,0,none,21,18,Woman,Right,
6,2,1,0.5832264000000578,['n'],0,left,none,-99,-99,0.1,0,none,21,18,Woman,Right,
7,2,1,0.6506451000004745,['n'],1,right,none,-99,-99,0.2,0,none,21,18,Woman,Right,
8,2,1,0.5002561000001151,['c'],1,left,none,-99,-99,0.4,0,none,21,18,Woman,Right,
9,2,1,0.9999213999999483,['n'],0,left,none,-99,-99,0.4,0,none,21,18,Woman,Right,
10,2,1,0.6326735999991797,['n'],0,left,none,-99,-99,0.1,0,none,21,18,Woman,Right,
11,2,1,0.5339965000002849,['n'],1,right,none,-99,-99,0.2,0,none,21,18,Woman,Right,
12,2,1,0.550388199999361,['c'],1,left,none,-99,-99,0.4,0,none,21,18,Woman,Right,
13,2,1,0.5342430999990029,['n'],1,right,none,-99,-99,0.4,0,none,21,18,Woman,Right,
14,2,1,0.5337865999990754,['c'],1,left,none,-99,-99,0.4,0,none,21,18,Woman,Right,
15,2,1,0.6999171000006754,['n'],1,right,none,-99,-99,0.2,0,none,21,18,Woman,Right,
16,2,1,0.9005269999997836,['n'],1,right,none,-99,-99,0.1,0,none,21,18,Woman,Right,
17,2,1,0.751506700000391,['n'],0,left,none,-99,-99,0.1,0,none,21,18,Woman,Right,
18,2,1,1.6680993999998464,['c'],1,left,none,-99,-99,0.1,0,none,21,18,Woman,Right,
19,2,1,0.5663526999996975,['c'],1,left,none,-99,-99,0.4,0,none,21,18,Woman,Right,
20,2,1,0.7336295000004611,['n'],1,right,none,-99,-99,0.1,0,none,21,18,Woman,Right,
21,2,1,1.1831858000005013,['c'],1,left,none,-99,-99,0.1,0,none,21,18,Woman,Right,
22,2,1,0.5340971999994508,['n'],1,right,none,-99,-99,0.2,0,none,21,18,Woman,Right,
23,2,1,0.5327379000009387,['n'],1,right,none,-99,-99,0.1,0,none,21,18,Woman,Right,
0,3,1,2.7177035000004253,['n'],1,right,['9'],5,4.651054899999508,0.1,0,none,21,18,Woman,Right,
1,3,1,1.432620899999165,['n'],0,left,['2'],2,1.3347154000002774,0.4,0,none,21,18,Woman,Right,
2,3,1,0.9670089000010194,['c'],1,left,['0'],6,0.9013842000003933,0.1,0,none,21,18,Woman,Right,
3,3,1,1.4007005000003119,['c'],1,left,['0'],6,0.7018215000007331,0.4,0,none,21,18,Woman,Right,
4,3,1,1.7838930000016262,['c'],1,left,['9'],5,1.46784690000095,0.4,0,none,21,18,Woman,Right,
5,3,1,1.3011717000008503,['n'],1,right,['0'],6,0.5832909000000654,0.2,0,none,21,18,Woman,Right,
6,3,1,1.1494735999986005,['c'],1,left,['0'],6,0.9695181000006414,0.2,0,none,21,18,Woman,Right,
7,3,1,1.1152314999999362,['c'],1,left,['0'],6,0.7517053000010492,0.2,0,none,21,18,Woman,Right,
8,3,1,0.8508627000010165,['n'],0,left,['0'],6,0.7182919000006223,0.1,0,none,21,18,Woman,Right,
9,3,1,5.0159040999988065,x,-99,right,none,-99,-99,0.2,1,none,21,18,Woman,Right,
10,3,1,1.1832840999995824,['c'],0,right,['2'],2,1.0516014999993786,0.4,0,none,21,18,Woman,Right,
11,3,1,1.1169709999994666,['n'],1,right,['9'],5,0.6515122000000702,0.2,0,none,21,18,Woman,Right,
12,3,1,0.7485562000001664,['c'],0,right,['2'],2,3.468655900000158,0.2,0,none,21,18,Woman,Right,
13,3,1,1.033181799999511,['c'],0,right,['3'],3,1.0179570999989664,0.4,0,none,21,18,Woman,Right,
14,3,1,1.21647639999901,['c'],1,left,['2'],2,1.1336635000006936,0.1,0,none,21,18,Woman,Right,
15,3,1,0.7509210000007442,['n'],1,right,['9'],5,0.801450200000545,0.1,0,none,21,18,Woman,Right,
16,3,1,2.0489514999990206,['c'],0,right,['2'],2,0.7339902000003349,0.4,0,none,21,18,Woman,Right,
17,3,1,0.9352274000011676,['c'],1,left,['0'],6,0.6678704000005382,0.4,0,none,21,18,Woman,Right,
18,3,1,0.9667854999988776,['c'],1,left,['0'],6,0.5180525000014313,0.4,0,none,21,18,Woman,Right,
19,3,1,2.200294700000086,['n'],1,right,['2'],2,0.75133569999889,0.1,0,none,21,18,Woman,Right,
20,3,1,0.7480360999998084,['c'],1,left,['0'],6,1.0361781000010524,0.2,0,none,21,18,Woman,Right,
21,3,1,1.46732239999983,['n'],1,right,['2'],2,2.0179150000003574,0.1,0,none,21,18,Woman,Right,
22,3,1,0.7831298999990395,['c'],1,left,['0'],6,1.0677632999995694,0.2,0,none,21,18,Woman,Right,
23,3,1,1.299968599998465,['c'],0,right,['2'],2,0.5844240999995236,0.1,0,none,21,18,Woman,Right,
0,4,1,1.901209800000288,['c'],1,left,['0'],6,2.6988298999986,0.4,0,AccAcc,21,18,Woman,Right,
1,4,1,1.8169541999996,['c'],1,left,['0'],6,1.1342045000001235,0.2,0,AccAcc,21,18,Woman,Right,
2,4,1,1.801261999999042,['n'],1,right,['2'],2,1.4176793999995425,0.1,0,AccAcc,21,18,Woman,Right,
3,4,1,1.33405109999876,['c'],0,right,['2'],2,0.6835893999996188,0.4,0,AccAcc,21,18,Woman,Right,
4,4,1,1.7162628999994922,['c'],1,left,['0'],6,0.7027761000008468,0.4,0,AccAcc,21,18,Woman,Right,
5,4,1,0.9329058999992412,['n'],1,right,['0'],6,0.7346672000003309,0.4,0,AccAcc,21,18,Woman,Right,
6,4,1,0.9331375999990996,['c'],0,right,['0'],6,0.7514203999999154,0.1,0,AccAcc,21,18,Woman,Right,
7,4,1,0.8826624999983324,['c'],1,left,['9'],5,0.9354646000010689,0.2,0,AccAcc,21,18,Woman,Right,
8,4,1,0.7667620000011084,['c'],1,left,['2'],2,1.7334389999996347,0.1,0,AccAcc,21,18,Woman,Right,
9,4,1,0.9831835999993928,['c'],1,left,['9'],5,1.13551120000011,0.1,0,AccAcc,21,18,Woman,Right,
10,4,1,1.1658496000000014,['n'],1,right,['0'],6,1.0519585000001825,0.4,0,AccAcc,21,18,Woman,Right,
11,4,1,0.7836490999998205,['c'],1,left,['2'],2,0.7830822999985685,0.2,0,AccAcc,21,18,Woman,Right,
12,4,1,0.7509323000012955,['c'],1,left,['9'],5,1.301913399998739,0.2,0,AccAcc,21,18,Woman,Right,
13,4,1,2.5828206000005594,['n'],1,right,['1'],1,2.4188003999988723,0.1,0,AccAcc,21,18,Woman,Right,
14,4,1,0.7993203000005451,['c'],1,left,['9'],5,0.800102600000173,0.2,0,AccAcc,21,18,Woman,Right,
15,4,1,0.8164802999999665,['n'],1,right,['0'],6,0.9360944000000018,0.4,0,AccAcc,21,18,Woman,Right,
16,4,1,1.6327220000002853,['n'],1,right,['0'],6,1.417997300000934,0.4,0,AccAcc,21,18,Woman,Right,
17,4,1,1.5004705999999715,['c'],1,left,['0'],6,1.5516779000008682,0.4,0,AccAcc,21,18,Woman,Right,
18,4,1,0.7983899000009842,['c'],1,left,['0'],6,0.803047699999297,0.4,0,AccAcc,21,18,Woman,Right,
19,4,1,0.9675920000008773,['n'],1,right,['2'],2,1.6001694000005955,0.1,0,AccAcc,21,18,Woman,Right,
20,4,1,1.3333722999996098,['n'],1,right,['9'],5,0.8673707000016293,0.4,0,AccAcc,21,18,Woman,Right,
21,4,1,1.5821231999998417,['n'],1,right,['2'],2,1.9694956999992428,0.1,0,AccAcc,21,18,Woman,Right,
22,4,1,0.733201499999268,['c'],1,left,['0'],6,0.41615139999885287,0.4,0,AccAcc,21,18,Woman,Right,
23,4,1,1.1855873999993491,['n'],1,right,['2'],2,1.401547000001301,0.1,0,AccAcc,21,18,Woman,Right,
24,4,1,5.014592099998481,x,-99,left,none,-99,-99,0.1,1,AccAcc,21,18,Woman,Right,
25,4,1,1.1513696999991225,['n'],1,right,['0'],6,0.5513958999999886,0.2,0,AccAcc,21,18,Woman,Right,
26,4,1,1.0510243000007904,['n'],1,right,['2'],2,0.9027069999992818,0.1,0,AccAcc,21,18,Woman,Right,
27,4,1,1.5335457000001043,['n'],0,left,['9'],5,1.4669887000000017,0.1,0,AccAcc,21,18,Woman,Right,
28,4,1,2.165536999998949,['n'],0,left,['2'],2,1.1014269000006607,0.2,0,AccAcc,21,18,Woman,Right,
29,4,1,0.8832352999997966,['n'],0,left,['2'],2,1.5346255999993446,0.1,0,AccAcc,21,18,Woman,Right,
30,4,1,0.8666785999994318,['n'],1,right,['2'],2,1.0344348999988142,0.4,0,AccAcc,21,18,Woman,Right,
31,4,1,2.8677874999993946,['n'],1,right,['1'],1,1.4996617999986483,0.2,0,AccAcc,21,18,Woman,Right,
32,4,1,0.7838355000003503,['n'],1,right,['0'],6,0.4848139000005176,0.4,0,AccAcc,21,18,Woman,Right,
33,4,1,2.266762799999924,['n'],0,left,['0'],6,0.6333950999996887,0.1,0,AccAcc,21,18,Woman,Right,
34,4,1,0.7324496000001091,['n'],1,right,['0'],6,0.6856728000002477,0.4,0,AccAcc,21,18,Woman,Right,
35,4,1,0.7177480000009382,['n'],1,right,['0'],6,0.5168180000000575,0.1,0,AccAcc,21,18,Woman,Right,
36,4,1,3.1008403999985603,['n'],0,left,['2'],2,1.3182421999990765,0.1,0,AccAcc,21,18,Woman,Right,
37,4,1,1.299243600000409,['c'],1,left,['2'],2,0.7342773000000307,0.2,0,AccAcc,21,18,Woman,Right,
38,4,1,1.6157474999999977,['n'],1,right,['0'],6,1.0012938999989274,0.2,0,AccAcc,21,18,Woman,Right,
39,4,1,1.2846143999995547,['c'],1,left,['2'],2,1.4679565000005823,0.2,0,AccAcc,21,18,Woman,Right,
40,4,1,2.4333889999998064,['n'],1,right,['2'],2,0.651301699999749,0.2,0,AccAcc,21,18,Woman,Right,
41,4,1,2.5158465999993496,['n'],1,right,['0'],6,1.033496699999887,0.1,0,AccAcc,21,18,Woman,Right,
42,4,1,1.1177105999995547,['n'],0,left,['0'],6,0.5012709999991785,0.2,0,AccAcc,21,18,Woman,Right,
43,4,1,1.1344616999995196,['n'],1,right,['0'],6,0.5326164999987668,0.1,0,AccAcc,21,18,Woman,Right,
44,4,1,0.9330107999994652,['c'],1,left,['0'],6,0.5515967000010278,0.4,0,AccAcc,21,18,Woman,Right,
45,4,1,0.8677657000007457,['n'],1,right,['0'],6,0.5851112000000285,0.4,0,AccAcc,21,18,Woman,Right,
46,4,1,0.718413699998564,['c'],1,left,['0'],6,0.3847148999993806,0.4,0,AccAcc,21,18,Woman,Right,
47,4,1,1.231832999999824,['c'],1,left,['9'],5,1.000801500000307,0.2,0,AccAcc,21,18,Woman,Right,
48,4,1,0.7993198999993183,['c'],1,left,['9'],5,0.4186134999999922,0.4,0,AccAcc,21,18,Woman,Right,
49,4,1,0.8015897999994195,['n'],0,left,['9'],5,0.46819719999984954,0.1,0,AccAcc,21,18,Woman,Right,
50,4,1,0.7494788999993034,['c'],1,left,['9'],5,0.4349575999985973,0.2,0,AccAcc,21,18,Woman,Right,
51,4,1,0.666298199999801,['c'],1,left,['9'],5,0.368403299999045,0.2,0,AccAcc,21,18,Woman,Right,
52,4,1,1.0000731000000087,['n'],1,right,['0'],6,0.3496945000006235,0.4,0,AccAcc,21,18,Woman,Right,
53,4,1,0.9009472999987338,['n'],1,right,['0'],6,0.4347863999992114,0.2,0,AccAcc,21,18,Woman,Right,
54,4,1,0.6658824999994977,['n'],1,right,['9'],5,0.5349590999994689,0.4,0,AccAcc,21,18,Woman,Right,
55,4,1,0.9335088999996515,['c'],1,left,['9'],5,0.6179255999995803,0.2,0,AccAcc,21,18,Woman,Right,
56,4,1,0.6673327000007703,['c'],1,left,['2'],2,0.5515562999989925,0.2,0,AccAcc,21,18,Woman,Right,
57,4,1,0.9328650999996171,['n'],1,right,['9'],5,0.43547319999925094,0.2,0,AccAcc,21,18,Woman,Right,
58,4,1,1.9154723000010563,['n'],1,right,['2'],2,0.8168342000008124,0.1,0,AccAcc,21,18,Woman,Right,
59,4,1,1.8187424000007013,['n'],1,right,['3'],3,0.9522925000001123,0.1,0,AccAcc,21,18,Woman,Right,
0,5,1,1.1174076999996032,['c'],1,left,['2'],2,0.8346361000003526,0.1,0,FastAcc,21,18,Woman,Right,
1,5,1,0.6338943999999174,['n'],1,right,['9'],5,0.6182850000004692,0.1,0,FastAcc,21,18,Woman,Right,
2,5,1,0.8000664999999572,['c'],1,left,['2'],2,0.5012602000006154,0.4,0,FastAcc,21,18,Woman,Right,
3,5,1,0.5173632000005455,['c'],1,left,['2'],2,0.40200450000156707,0.4,0,FastAcc,21,18,Woman,Right,
4,5,1,0.5840647000004537,['c'],1,left,['2'],2,0.40172229999916453,0.1,0,FastAcc,21,18,Woman,Right,
5,5,1,0.5823146000002453,['n'],1,right,['2'],2,0.3510845999990124,0.4,0,FastAcc,21,18,Woman,Right,
6,5,1,0.6507328999996389,['n'],1,right,['2'],2,0.33612470000116446,0.4,0,FastAcc,21,18,Woman,Right,
7,5,1,0.7019481000006635,['n'],1,right,['2'],2,0.317944799999168,0.4,0,FastAcc,21,18,Woman,Right,
8,5,1,0.4349023999984638,['n'],0,left,['2'],2,0.21791619999930845,0.2,0,FastAcc,21,18,Woman,Right,
9,5,1,0.6169090000003052,['c'],1,left,['2'],2,0.535118899999361,0.4,0,FastAcc,21,18,Woman,Right,
10,5,1,0.8671598999972048,['n'],0,left,['9'],5,0.3838609999984328,0.1,0,FastAcc,21,18,Woman,Right,
11,5,1,0.6339995000016643,['n'],1,right,['9'],5,0.6837384999998903,0.2,0,FastAcc,21,18,Woman,Right,
12,5,1,0.4998383999991347,['n'],1,right,['2'],2,0.6354924000006577,0.4,0,FastAcc,21,18,Woman,Right,
13,5,1,0.5826707000014721,['n'],1,right,['9'],5,0.5502750999985437,0.4,0,FastAcc,21,18,Woman,Right,
14,5,1,0.6342741999978898,['n'],1,right,['9'],5,0.6016300000010233,0.1,0,FastAcc,21,18,Woman,Right,
15,5,1,0.7997386999995797,['n'],1,right,['9'],5,0.4181767999980366,0.1,0,FastAcc,21,18,Woman,Right,
16,5,1,0.68266720000247,['n'],1,right,['9'],5,0.5857348999998067,0.4,0,FastAcc,21,18,Woman,Right,
17,5,1,0.39989369999966584,['c'],0,right,['2'],2,0.5499133999983314,0.1,0,FastAcc,21,18,Woman,Right,
18,5,1,0.7338672000005317,['c'],1,left,['2'],2,0.3842817999975523,0.4,0,FastAcc,21,18,Woman,Right,
19,5,1,0.53498910000053,['n'],1,right,['2'],2,0.3335564000008162,0.1,0,FastAcc,21,18,Woman,Right,
20,5,1,1.0839723000026424,['c'],1,left,['2'],2,0.31835440000213566,0.2,0,FastAcc,21,18,Woman,Right,
21,5,1,0.5992966999983764,['n'],0,left,['2'],2,0.4021779000031529,0.1,0,FastAcc,21,18,Woman,Right,
22,5,1,0.5333557000012661,['n'],1,right,['2'],2,0.2359625999997661,0.4,0,FastAcc,21,18,Woman,Right,
23,5,1,0.36761259999912,['n'],0,left,['2'],2,0.3495407000009436,0.1,0,FastAcc,21,18,Woman,Right,
24,5,1,0.4338292000029469,['n'],0,left,['2'],2,0.419907499999681,0.2,0,FastAcc,21,18,Woman,Right,
25,5,1,0.799168000001373,['c'],1,left,['2'],2,0.5508874000006472,0.1,0,FastAcc,21,18,Woman,Right,
26,5,1,0.6511604000006628,['n'],1,right,['9'],5,0.5014661999994132,0.1,0,FastAcc,21,18,Woman,Right,
27,5,1,0.5164662000024691,['n'],1,right,['2'],2,0.418391100000008,0.1,0,FastAcc,21,18,Woman,Right,
28,5,1,0.5506921999985934,['c'],0,right,['2'],2,0.5014769999979762,0.2,0,FastAcc,21,18,Woman,Right,
29,5,1,0.6169048000010662,['n'],1,right,['2'],2,0.40229140000155894,0.2,0,FastAcc,21,18,Woman,Right,
30,5,1,0.3658151000017824,['n'],0,left,['2'],2,0.41891469999973197,0.2,0,FastAcc,21,18,Woman,Right,
31,5,1,0.48185499999817694,['c'],1,left,['2'],2,0.3850942999997642,0.2,0,FastAcc,21,18,Woman,Right,
32,5,1,1.717279000000417,['n'],0,left,['2'],2,1.2014550999992935,0.2,0,FastAcc,21,18,Woman,Right,
33,5,1,0.9340515000003506,['c'],1,left,['2'],2,1.0170749999997497,0.4,0,FastAcc,21,18,Woman,Right,
34,5,1,0.7009972000014386,['n'],0,left,['2'],2,1.2529900000008638,0.2,0,FastAcc,21,18,Woman,Right,
35,5,1,0.6826046999995015,['n'],1,right,['2'],2,1.002145999998902,0.4,0,FastAcc,21,18,Woman,Right,
36,5,1,0.683835600000748,['c'],1,left,['9'],5,1.834608199998911,0.4,0,FastAcc,21,18,Woman,Right,
37,5,1,0.43264780000026803,['c'],0,right,['2'],2,0.8183345999968878,0.2,0,FastAcc,21,18,Woman,Right,
38,5,1,0.8155058000011195,['c'],1,left,['9'],5,1.517225999999937,0.4,0,FastAcc,21,18,Woman,Right,
39,5,1,1.1009696000000986,['n'],0,left,['2'],2,0.4678191999992123,0.2,0,FastAcc,21,18,Woman,Right,
40,5,1,0.5658070999998017,['n'],1,right,['2'],2,0.46860820000074455,0.2,0,FastAcc,21,18,Woman,Right,
41,5,1,0.6836137999998755,['c'],1,left,['2'],2,0.3846158000014839,0.4,0,FastAcc,21,18,Woman,Right,
42,5,1,0.5845895999991626,['n'],0,left,['2'],2,0.6006489000028523,0.1,0,FastAcc,21,18,Woman,Right,
43,5,1,0.6840517000018735,['n'],1,right,['2'],2,1.2841337000027124,0.2,0,FastAcc,21,18,Woman,Right,
44,5,1,0.4836505000021134,['c'],1,left,['9'],5,0.6180510999984108,0.2,0,FastAcc,21,18,Woman,Right,
45,5,1,0.5171152000002621,['n'],1,right,['9'],5,0.4009393000014825,0.4,0,FastAcc,21,18,Woman,Right,
46,5,1,0.9504831999984162,['c'],0,right,['2'],2,0.7835185000003548,0.1,0,FastAcc,21,18,Woman,Right,
47,5,1,0.5499173999996856,['c'],1,left,['0'],6,0.5854354000002786,0.4,0,FastAcc,21,18,Woman,Right,
48,5,1,0.6496880000013334,['c'],1,left,['9'],5,1.0680578999999852,0.2,0,FastAcc,21,18,Woman,Right,
49,5,1,0.5170973999993294,['n'],1,right,['0'],6,1.0334460000012768,0.1,0,FastAcc,21,18,Woman,Right,
50,5,1,0.5671406999972533,['n'],0,left,['9'],5,0.5673176999989664,0.1,0,FastAcc,21,18,Woman,Right,
51,5,1,0.599794000001566,['n'],1,right,['0'],6,0.3688069000018004,0.2,0,FastAcc,21,18,Woman,Right,
52,5,1,0.6174323999985063,['c'],1,left,['2'],2,1.4836085999995703,0.2,0,FastAcc,21,18,Woman,Right,
53,5,1,0.949352200001158,['n'],1,right,['0'],6,1.1835515999991912,0.4,0,FastAcc,21,18,Woman,Right,
54,5,1,1.0340125000002445,['c'],0,right,['1'],1,0.9329553000025044,0.1,0,FastAcc,21,18,Woman,Right,
55,5,1,0.5509141000002273,['n'],1,right,['9'],5,0.9351296999993792,0.1,0,FastAcc,21,18,Woman,Right,
56,5,1,0.5512162999984866,['n'],1,right,['9'],5,0.4511949000007007,0.4,0,FastAcc,21,18,Woman,Right,
57,5,1,0.8838151000018115,['n'],1,right,['0'],6,0.4011065000013332,0.1,0,FastAcc,21,18,Woman,Right,
58,5,1,0.7847570999983873,['c'],1,left,['2'],2,0.6683453000005102,0.2,0,FastAcc,21,18,Woman,Right,
59,5,1,0.5004163999983575,['n'],0,left,['2'],2,0.6514308000005258,0.2,0,FastAcc,21,18,Woman,Right,
0,6,1,0.5825183000015386,['n'],1,right,['2'],2,0.8841973000016878,0.1,0,FastFast,21,18,Woman,Right,
1,6,1,0.5352007000001322,['c'],1,left,['2'],2,0.4350200999979279,0.4,0,FastFast,21,18,Woman,Right,
2,6,1,0.4335202999973262,['c'],1,left,['2'],2,0.5177173000010953,0.2,0,FastFast,21,18,Woman,Right,
3,6,1,0.5504624999994121,['c'],1,left,['2'],2,0.3502567999967141,0.1,0,FastFast,21,18,Woman,Right,
4,6,1,0.48281820000192965,['n'],1,right,['9'],5,0.5167725999999675,0.4,0,FastFast,21,18,Woman,Right,
5,6,1,0.7671469999986584,['n'],1,right,['9'],5,0.4002928999980213,0.1,0,FastFast,21,18,Woman,Right,
6,6,1,0.5854959999996936,['c'],0,right,['2'],2,0.28474460000143154,0.2,0,FastFast,21,18,Woman,Right,
7,6,1,0.3829372999971383,['n'],1,right,['9'],5,0.3179309999977704,0.1,0,FastFast,21,18,Woman,Right,
8,6,1,0.5172120999995968,['n'],1,right,['9'],5,0.4514749000009033,0.4,0,FastFast,21,18,Woman,Right,
9,6,1,0.46546269999817014,['n'],1,right,['0'],6,0.30234520000158227,0.4,0,FastFast,21,18,Woman,Right,
10,6,1,0.551316000000952,['n'],1,right,['2'],2,0.5828757999988738,0.2,0,FastFast,21,18,Woman,Right,
11,6,1,0.6185570000016014,['n'],1,right,['2'],2,0.3182371000002604,0.1,0,FastFast,21,18,Woman,Right,
12,6,1,0.5318677000032039,['c'],1,left,['2'],2,0.2857315000001108,0.1,0,FastFast,21,18,Woman,Right,
13,6,1,0.5171632000019599,['c'],1,left,['2'],2,0.28508559999681893,0.4,0,FastFast,21,18,Woman,Right,
14,6,1,0.5169351000004099,['c'],1,left,['2'],2,0.2680934000018169,0.4,0,FastFast,21,18,Woman,Right,
15,6,1,0.4992912999987311,['c'],1,left,['9'],5,0.21780850000141072,0.4,0,FastFast,21,18,Woman,Right,
16,6,1,0.6662967999982357,['c'],1,left,['9'],5,0.38597759999902337,0.4,0,FastFast,21,18,Woman,Right,
17,6,1,0.5498240999986592,['n'],1,right,['9'],5,0.3680755000023055,0.2,0,FastFast,21,18,Woman,Right,
18,6,1,1.1168911999993725,['c'],0,right,['2'],2,0.33467899999959627,0.2,0,FastFast,21,18,Woman,Right,
19,6,1,0.36792849999983446,['n'],0,left,['2'],2,0.8009434999985388,0.1,0,FastFast,21,18,Woman,Right,
20,6,1,1.0996758000001137,['n'],1,right,['0'],6,0.9012239000003319,0.4,0,FastFast,21,18,Woman,Right,
21,6,1,1.6009516999984044,['c'],0,right,['2'],2,0.933125999999902,0.1,0,FastFast,21,18,Woman,Right,
22,6,1,0.6010299999979907,['n'],1,right,['2'],2,0.8013138999995135,0.4,0,FastFast,21,18,Woman,Right,
23,6,1,0.3837907000015548,['n'],1,right,['9'],5,0.6179503000021214,0.2,0,FastFast,21,18,Woman,Right,
24,6,1,0.4840695999992022,['c'],1,left,['2'],2,0.33348800000021583,0.2,0,FastFast,21,18,Woman,Right,
25,6,1,0.632577800002764,['c'],0,right,['2'],2,0.6013782000009087,0.1,0,FastFast,21,18,Woman,Right,
26,6,1,0.7159542000008514,['n'],1,right,['9'],5,0.4021090999995067,0.4,0,FastFast,21,18,Woman,Right,
27,6,1,0.5994799999971292,['c'],1,left,['9'],5,0.6348403000010876,0.1,0,FastFast,21,18,Woman,Right,
28,6,1,0.5659970999986399,['c'],1,left,['9'],5,0.23418800000217743,0.2,0,FastFast,21,18,Woman,Right,
29,6,1,0.4159244000002218,['c'],1,left,['9'],5,0.5009328999985883,0.2,0,FastFast,21,18,Woman,Right,
30,6,1,0.38363140000001295,['n'],1,right,['9'],5,0.3664982999980566,0.4,0,FastFast,21,18,Woman,Right,
31,6,1,0.46632820000013453,['c'],1,left,['9'],5,0.2353627000011329,0.4,0,FastFast,21,18,Woman,Right,
32,6,1,0.517169599999761,['n'],0,left,['9'],5,0.2680036999990989,0.2,0,FastFast,21,18,Woman,Right,
33,6,1,0.38288459999967017,['c'],0,right,['9'],5,0.285682400000951,0.4,0,FastFast,21,18,Woman,Right,
34,6,1,0.6512518000017735,['c'],0,right,['9'],5,0.20140660000106436,0.2,0,FastFast,21,18,Woman,Right,
35,6,1,0.6509517000013147,['c'],0,right,['2'],2,0.3173501999990549,0.1,0,FastFast,21,18,Woman,Right,
36,6,1,0.44951059999948484,['n'],1,right,['2'],2,0.28405539999948815,0.1,0,FastFast,21,18,Woman,Right,
37,6,1,0.4828201000018453,['c'],1,left,['9'],5,0.20004920000064885,0.4,0,FastFast,21,18,Woman,Right,
38,6,1,0.4526000000005297,['n'],1,right,['2'],2,0.23478479999903357,0.2,0,FastFast,21,18,Woman,Right,
39,6,1,1.102093599998625,['n'],0,left,['1'],1,1.3013344000028155,0.4,0,FastFast,21,18,Woman,Right,
40,6,1,0.6837382999983674,['n'],0,left,['9'],5,0.5848069000021496,0.2,0,FastFast,21,18,Woman,Right,
41,6,1,0.5167159999982687,['c'],0,right,['9'],5,0.2840550999972038,0.2,0,FastFast,21,18,Woman,Right,
42,6,1,0.7679704000001948,['n'],0,left,['9'],5,0.26733099999910337,0.1,0,FastFast,21,18,Woman,Right,
43,6,1,0.4841907000009087,['c'],1,left,['9'],5,0.38308429999960936,0.4,0,FastFast,21,18,Woman,Right,
44,6,1,0.5010533000022406,['n'],1,right,['9'],5,0.3508485999991535,0.2,0,FastFast,21,18,Woman,Right,
45,6,1,1.5650696000011521,['n'],1,right,['1'],1,0.5345419000004767,0.2,0,FastFast,21,18,Woman,Right,
46,6,1,0.8332821000003605,['c'],1,left,['9'],5,0.2682125999999698,0.2,0,FastFast,21,18,Woman,Right,
47,6,1,1.2505380000002333,['n'],0,left,['9'],5,0.9345030000004044,0.1,0,FastFast,21,18,Woman,Right,
48,6,1,0.6997207000022172,['c'],1,left,['9'],5,0.3014731999974174,0.1,0,FastFast,21,18,Woman,Right,
49,6,1,0.983776900000521,['n'],1,right,['2'],2,0.3516202999999223,0.4,0,FastFast,21,18,Woman,Right,
50,6,1,0.5509052000015799,['n'],0,left,['2'],2,0.5516272999993816,0.1,0,FastFast,21,18,Woman,Right,
51,6,1,1.0333696000016062,['c'],1,left,['9'],5,0.450122400001419,0.4,0,FastFast,21,18,Woman,Right,
52,6,1,0.7010911999968812,['n'],1,right,['9'],5,0.3018646999989869,0.2,0,FastFast,21,18,Woman,Right,
53,6,1,0.8680190999984916,['n'],0,left,['2'],2,0.5679533000002266,0.1,0,FastFast,21,18,Woman,Right,
54,6,1,0.7503560999975889,['n'],1,right,['2'],2,0.43469869999898947,0.2,0,FastFast,21,18,Woman,Right,
55,6,1,0.7822354000018095,['c'],1,left,['9'],5,0.28542750000269734,0.4,0,FastFast,21,18,Woman,Right,
56,6,1,0.6838373999999021,['n'],0,left,['9'],5,0.8500450999999885,0.2,0,FastFast,21,18,Woman,Right,
57,6,1,0.834565000001021,['n'],0,left,['9'],5,0.9011640000026091,0.1,0,FastFast,21,18,Woman,Right,
58,6,1,0.7506794000000809,['n'],0,left,['2'],2,0.21741779999865685,0.1,0,FastFast,21,18,Woman,Right,
59,6,1,0.58450879999873,['n'],1,right,['2'],2,0.23565969999981462,0.1,0,FastFast,21,18,Woman,Right,
0,7,1,1.1516408999996202,['n'],0,left,['9'],5,1.2014897000008204,0.1,0,AccFast,21,18,Woman,Right,
1,7,1,0.6485189999984868,['c'],1,left,['9'],5,0.4850274999989779,0.4,0,AccFast,21,18,Woman,Right,
2,7,1,1.9984825999999885,['c'],1,left,['9'],5,0.269366299999092,0.2,0,AccFast,21,18,Woman,Right,
3,7,1,0.9669968999987759,['n'],1,right,['9'],5,0.23495090000142227,0.1,0,AccFast,21,18,Woman,Right,
4,7,1,0.7330204999998386,['n'],1,right,['9'],5,0.23501219999889145,0.2,0,AccFast,21,18,Woman,Right,
5,7,1,0.649107000001095,['n'],1,right,['2'],2,0.4509698000001663,0.2,0,AccFast,21,18,Woman,Right,
6,7,1,1.7004242000002705,['n'],0,left,['2'],2,0.20157690000269213,0.2,0,AccFast,21,18,Woman,Right,
7,7,1,0.9185122000017145,['n'],0,left,['2'],2,0.3847384000000602,0.1,0,AccFast,21,18,Woman,Right,
8,7,1,0.7984824999984994,['n'],1,right,['9'],5,0.2028734000014083,0.2,0,AccFast,21,18,Woman,Right,
9,7,1,1.451327399998263,['n'],1,right,['9'],5,0.20019269999829703,0.1,0,AccFast,21,18,Woman,Right,
10,7,1,1.2985312999990128,['n'],0,left,['3'],3,0.21958180000001448,0.4,0,AccFast,21,18,Woman,Right,
11,7,1,0.6009280999969633,['n'],0,left,['3'],3,0.18301810000048135,0.2,0,AccFast,21,18,Woman,Right,
12,7,1,0.6331246000008832,['n'],0,left,['3'],3,0.23358080000252812,0.1,0,AccFast,21,18,Woman,Right,
13,7,1,1.050215199997183,['c'],0,right,['3'],3,0.38287830000263057,0.1,0,AccFast,21,18,Woman,Right,
14,7,1,0.5501881000018329,['n'],1,right,['9'],5,0.4845800999974017,0.4,0,AccFast,21,18,Woman,Right,
15,7,1,1.9163913000011235,['c'],1,left,['9'],5,0.48564189999888185,0.2,0,AccFast,21,18,Woman,Right,
16,7,1,0.7486795000004349,['n'],0,left,['9'],5,0.2697536999985459,0.2,0,AccFast,21,18,Woman,Right,
17,7,1,0.8153735000014422,['c'],1,left,['9'],5,0.6517138999988674,0.4,0,AccFast,21,18,Woman,Right,
18,7,1,0.8165886000024329,['n'],1,right,['9'],5,0.35011479999957373,0.1,0,AccFast,21,18,Woman,Right,
19,7,1,0.5160524999992049,['c'],1,left,['2'],2,0.31885329999931855,0.2,0,AccFast,21,18,Woman,Right,
20,7,1,0.9366908999982115,['n'],0,left,['2'],2,0.5010001000009652,0.4,0,AccFast,21,18,Woman,Right,
21,7,1,0.551737999998295,['n'],1,right,['2'],2,0.4833037000025797,0.1,0,AccFast,21,18,Woman,Right,
22,7,1,0.7686466000013752,['n'],1,right,['2'],2,0.23339109999869834,0.2,0,AccFast,21,18,Woman,Right,
23,7,1,0.8322007000024314,['c'],1,left,['2'],2,0.3670885999999882,0.2,0,AccFast,21,18,Woman,Right,
24,7,1,0.633150099998602,['n'],1,right,['9'],5,0.21944639999856008,0.1,0,AccFast,21,18,Woman,Right,
25,7,1,0.7501775999990059,['c'],0,right,['9'],5,0.15116169999964768,0.1,0,AccFast,21,18,Woman,Right,
26,7,1,1.266746699999203,['c'],1,left,['9'],5,0.3830899999993562,0.4,0,AccFast,21,18,Woman,Right,
27,7,1,0.633286299998872,['c'],1,left,['9'],5,0.33360259999972186,0.2,0,AccFast,21,18,Woman,Right,
28,7,1,0.599604899998667,['n'],1,right,['2'],2,0.18531450000227778,0.2,0,AccFast,21,18,Woman,Right,
29,7,1,0.9003106999989541,['c'],1,left,['9'],5,0.23286839999855147,0.1,0,AccFast,21,18,Woman,Right,
30,7,1,0.8998366999985592,['c'],1,left,['9'],5,0.11869089999891003,0.2,0,AccFast,21,18,Woman,Right,
31,7,1,0.8354166999997688,['n'],1,right,['9'],5,0.3006169000000227,0.4,0,AccFast,21,18,Woman,Right,
32,7,1,0.9181333999986236,['n'],0,left,['9'],5,0.19952660000126343,0.2,0,AccFast,21,18,Woman,Right,
33,7,1,0.6004600999985996,['n'],1,right,['9'],5,0.2360965000007127,0.4,0,AccFast,21,18,Woman,Right,
34,7,1,0.48445920000085607,['c'],0,right,['9'],5,0.18398979999983567,0.4,0,AccFast,21,18,Woman,Right,
35,7,1,0.7014534000009007,['c'],1,left,['9'],5,0.1355480999991414,0.1,0,AccFast,21,18,Woman,Right,
36,7,1,1.0657236999977613,['n'],1,right,['9'],5,0.20192730000053416,0.1,0,AccFast,21,18,Woman,Right,
37,7,1,0.6158896999986609,['n'],1,right,['9'],5,0.21755440000197268,0.4,0,AccFast,21,18,Woman,Right,
38,7,1,0.6666996999992989,['c'],1,left,['9'],5,0.23460329999943497,0.1,0,AccFast,21,18,Woman,Right,
39,7,1,0.5519060000005993,['c'],1,left,['9'],5,0.16622500000084983,0.1,0,AccFast,21,18,Woman,Right,
40,7,1,0.7025756999973964,['c'],1,left,['9'],5,0.21584639999855426,0.2,0,AccFast,21,18,Woman,Right,
41,7,1,0.5014897000000929,['c'],1,left,['9'],5,0.15028129999700468,0.1,0,AccFast,21,18,Woman,Right,
42,7,1,0.5827902999990329,['n'],1,right,['9'],5,0.20262179999917862,0.4,0,AccFast,21,18,Woman,Right,
43,7,1,0.5336528999978327,['n'],1,right,['9'],5,0.4835763000010047,0.4,0,AccFast,21,18,Woman,Right,
44,7,1,1.4336957000014081,['n'],1,right,['9'],5,0.2848048999985622,0.4,0,AccFast,21,18,Woman,Right,
45,7,1,0.8504948999980115,['n'],0,left,['9'],5,0.23488469999938388,0.1,0,AccFast,21,18,Woman,Right,
46,7,1,0.633916800001316,['c'],1,left,['2'],2,0.41885150000234717,0.2,0,AccFast,21,18,Woman,Right,
47,7,1,0.9002863999994588,['n'],1,right,['2'],2,0.23476450000089244,0.1,0,AccFast,21,18,Woman,Right,
48,7,1,0.6834845999983372,['c'],0,right,['9'],5,0.21835960000316845,0.4,0,AccFast,21,18,Woman,Right,
49,7,1,1.3478171000024304,['c'],1,left,['9'],5,0.28431190000264905,0.1,0,AccFast,21,18,Woman,Right,
50,7,1,1.2847012000020186,['n'],1,right,['9'],5,0.3183060999981535,0.2,0,AccFast,21,18,Woman,Right,
51,7,1,0.7830135000003793,['n'],1,right,['9'],5,0.9190443999978015,0.4,0,AccFast,21,18,Woman,Right,
52,7,1,0.5510933000005025,['c'],1,left,['9'],5,0.21805479999966337,0.1,0,AccFast,21,18,Woman,Right,
53,7,1,0.6177599000002374,['n'],1,right,['9'],5,0.23450469999806955,0.4,0,AccFast,21,18,Woman,Right,
54,7,1,0.6658645999996224,['n'],1,right,['9'],5,0.1857784999992873,0.2,0,AccFast,21,18,Woman,Right,
55,7,1,0.6182308000024932,['n'],1,right,['9'],5,0.2343838999986474,0.4,0,AccFast,21,18,Woman,Right,
56,7,1,0.7330048000003444,['n'],0,left,['9'],5,0.23494120000032126,0.4,0,AccFast,21,18,Woman,Right,
57,7,1,0.6489600999993854,['n'],1,right,['9'],5,0.18477830000119866,0.2,0,AccFast,21,18,Woman,Right,
58,7,1,0.6989926999995077,['n'],1,right,['9'],5,0.23561839999820222,0.4,0,AccFast,21,18,Woman,Right,
59,7,1,0.515507100000832,['c'],1,left,['9'],5,0.18623029999798746,0.4,0,AccFast,21,18,Woman,Right,
0,8,1,0.6666148000003886,['n'],1,right,['9'],5,1.7357112999998208,0.4,0,AccAcc,21,18,Woman,Right,
1,8,1,0.6836059999986901,['n'],1,right,['0'],6,1.1680558000007295,0.4,0,AccAcc,21,18,Woman,Right,
2,8,1,0.7168920000003709,['n'],1,right,['0'],6,0.500483499999973,0.4,0,AccAcc,21,18,Woman,Right,
3,8,1,0.9163859999971464,['c'],0,right,['8'],4,1.2000990000015008,0.1,0,AccAcc,21,18,Woman,Right,
4,8,1,0.5665015000013227,['n'],1,right,['9'],5,0.5178787000004377,0.2,0,AccAcc,21,18,Woman,Right,
5,8,1,0.7329190999989805,['n'],1,right,['9'],5,0.4183195999976306,0.2,0,AccAcc,21,18,Woman,Right,
6,8,1,0.4664465999994718,['c'],1,left,['9'],5,0.6668897999988985,0.4,0,AccAcc,21,18,Woman,Right,
7,8,1,0.483862399996724,['c'],0,right,['9'],5,0.41871099999843864,0.2,0,AccAcc,21,18,Woman,Right,
8,8,1,0.5839042000006884,['n'],0,left,['2'],2,0.534476500000892,0.1,0,AccAcc,21,18,Woman,Right,
9,8,1,0.5679680000030203,['n'],1,right,['9'],5,0.4183257999975467,0.4,0,AccAcc,21,18,Woman,Right,
10,8,1,0.6506028000003425,['n'],1,right,['9'],5,0.5513844999986759,0.1,0,AccAcc,21,18,Woman,Right,
11,8,1,0.583830500003387,['n'],1,right,['9'],5,0.31805220000023837,0.2,0,AccAcc,21,18,Woman,Right,
12,8,1,0.7000947000015003,['c'],1,left,['9'],5,0.25142390000110026,0.2,0,AccAcc,21,18,Woman,Right,
13,8,1,0.5505901999968046,['c'],1,left,['9'],5,0.23307919999933802,0.2,0,AccAcc,21,18,Woman,Right,
14,8,1,0.6843838000022515,['c'],1,left,['9'],5,0.4178872999982559,0.2,0,AccAcc,21,18,Woman,Right,
15,8,1,0.6348394000015105,['c'],0,right,['9'],5,0.23345189999963623,0.2,0,AccAcc,21,18,Woman,Right,
16,8,1,0.6346854000003077,['c'],0,right,['9'],5,0.216446199996426,0.4,0,AccAcc,21,18,Woman,Right,
17,8,1,0.6160245999999461,['c'],1,left,['9'],5,0.30248460000075283,0.4,0,AccAcc,21,18,Woman,Right,
18,8,1,0.7823000999997021,['n'],1,right,['9'],5,0.26909080000041286,0.4,0,AccAcc,21,18,Woman,Right,
19,8,1,1.0828880000008212,['n'],0,left,['9'],5,0.2680344000000332,0.2,0,AccAcc,21,18,Woman,Right,
20,8,1,0.650878600001306,['c'],0,right,['9'],5,0.2841191000006802,0.1,0,AccAcc,21,18,Woman,Right,
21,8,1,0.5013795999984723,['n'],1,right,['9'],5,0.26679610000064713,0.1,0,AccAcc,21,18,Woman,Right,
22,8,1,0.5665989999979502,['c'],0,right,['9'],5,0.25225960000170744,0.1,0,AccAcc,21,18,Woman,Right,
23,8,1,0.8497874999993655,['n'],0,left,['9'],5,0.401451999998244,0.1,0,AccAcc,21,18,Woman,Right,
24,8,1,0.6671984999993583,['n'],1,right,['2'],2,0.43404759999975795,0.4,0,AccAcc,21,18,Woman,Right,
25,8,1,0.8679042000003392,['n'],0,left,['2'],2,0.30108000000109314,0.1,0,AccAcc,21,18,Woman,Right,
26,8,1,0.6007282999999006,['n'],1,right,['9'],5,0.3181077000008372,0.1,0,AccAcc,21,18,Woman,Right,
27,8,1,0.48413480000090203,['c'],1,left,['9'],5,0.33280650000233436,0.2,0,AccAcc,21,18,Woman,Right,
28,8,1,0.7174999999988358,['n'],1,right,['9'],5,0.36862380000093253,0.2,0,AccAcc,21,18,Woman,Right,
29,8,1,0.6670583000013721,['n'],0,left,['9'],5,0.5502094000003126,0.1,0,AccAcc,21,18,Woman,Right,
30,8,1,0.9666933999978937,['n'],0,left,['2'],2,0.5521313999997801,0.2,0,AccAcc,21,18,Woman,Right,
31,8,1,0.5992566999993869,['c'],1,left,['9'],5,0.4021264000002702,0.4,0,AccAcc,21,18,Woman,Right,
32,8,1,0.5176399999982095,['n'],1,right,['0'],6,0.31794649999937974,0.4,0,AccAcc,21,18,Woman,Right,
33,8,1,0.8516907999983232,['c'],1,left,['0'],6,0.35024260000136564,0.2,0,AccAcc,21,18,Woman,Right,
34,8,1,0.6343964000006963,['n'],1,right,['0'],6,0.43442140000115614,0.2,0,AccAcc,21,18,Woman,Right,
35,8,1,0.5838928000011947,['c'],1,left,['9'],5,0.36668809999900986,0.4,0,AccAcc,21,18,Woman,Right,
36,8,1,0.3830434999981662,['n'],1,right,['0'],6,0.41811930000039865,0.1,0,AccAcc,21,18,Woman,Right,
37,8,1,0.5660831999994116,['c'],1,left,['0'],6,0.33448629999838886,0.2,0,AccAcc,21,18,Woman,Right,
38,8,1,0.801439400001982,['n'],0,left,['3'],3,1.4507158999986132,0.2,0,AccAcc,21,18,Woman,Right,
39,8,1,0.6829440999972576,['c'],1,left,['3'],3,0.5690509000014572,0.1,0,AccAcc,21,18,Woman,Right,
40,8,1,0.6151705999982369,['n'],1,right,['9'],5,0.36942740000085905,0.1,0,AccAcc,21,18,Woman,Right,
41,8,1,1.3166170000004058,['c'],0,right,['9'],5,0.5014275000030466,0.4,0,AccAcc,21,18,Woman,Right,
42,8,1,0.7150309999997262,['c'],1,left,['9'],5,0.33438899999964633,0.4,0,AccAcc,21,18,Woman,Right,
43,8,1,0.5342033000015363,['c'],1,left,['8'],4,0.8015070000001288,0.4,0,AccAcc,21,18,Woman,Right,
44,8,1,0.5329532000032486,['c'],1,left,['0'],6,0.4356626000007964,0.4,0,AccAcc,21,18,Woman,Right,
45,8,1,1.4835033000017575,['c'],1,left,['3'],3,0.49969609999971,0.1,0,AccAcc,21,18,Woman,Right,
46,8,1,0.6679297000009683,['n'],1,right,['3'],3,0.4340005999983987,0.1,0,AccAcc,21,18,Woman,Right,
47,8,1,0.5177699999985634,['c'],1,left,['9'],5,0.4335246000009647,0.4,0,AccAcc,21,18,Woman,Right,
48,8,1,0.7836267000020598,['n'],1,right,['9'],5,0.35140509999837377,0.1,0,AccAcc,21,18,Woman,Right,
49,8,1,0.6837620999976934,['c'],1,left,['1'],1,1.2019244999974035,0.1,0,AccAcc,21,18,Woman,Right,
50,8,1,1.3987605000002077,['n'],0,left,['2'],2,1.218746900001861,0.2,0,AccAcc,21,18,Woman,Right,
51,8,1,0.8663836000014271,['c'],1,left,['9'],5,0.3847535999993852,0.4,0,AccAcc,21,18,Woman,Right,
52,8,1,0.9004707999993116,['c'],1,left,['9'],5,0.40000810000128695,0.4,0,AccAcc,21,18,Woman,Right,
53,8,1,1.1838827000028687,['n'],0,left,['2'],2,0.8683635000015784,0.2,0,AccAcc,21,18,Woman,Right,
54,8,1,0.9510712000010244,['c'],0,right,['9'],5,0.7509604999977455,0.1,0,AccAcc,21,18,Woman,Right,
55,8,1,0.717058400001406,['n'],1,right,['9'],5,0.3680715999980748,0.1,0,AccAcc,21,18,Woman,Right,
56,8,1,0.9007158999993408,['c'],0,right,['9'],5,0.7673836999965715,0.2,0,AccAcc,21,18,Woman,Right,
57,8,1,0.8170738000007987,['n'],1,right,['2'],2,0.26830490000065765,0.2,0,AccAcc,21,18,Woman,Right,
58,8,1,1.5001846000013757,['n'],0,left,['2'],2,0.40041180000116583,0.1,0,AccAcc,21,18,Woman,Right,
59,8,1,1.001079399997252,['n'],0,left,['2'],2,0.2679194999982428,0.4,0,AccAcc,21,18,Woman,Right,
0,9,1,1.0011114000008092,['n'],0,left,['8'],4,3.5004915999998047,0.4,0,FastAcc,21,18,Woman,Right,
1,9,1,0.5654917000028945,['n'],1,right,['0'],6,0.4856571000018448,0.4,0,FastAcc,21,18,Woman,Right,
2,9,1,1.0003902000025846,['n'],1,right,['0'],6,0.8347729999986768,0.2,0,FastAcc,21,18,Woman,Right,
3,9,1,1.3672024000006786,['c'],1,left,['2'],2,0.7848709999998391,0.1,0,FastAcc,21,18,Woman,Right,
4,9,1,0.8504409000015585,['n'],0,left,['9'],5,0.7507112999992387,0.2,0,FastAcc,21,18,Woman,Right,
5,9,1,1.3500400000011723,['n'],0,left,['9'],5,0.8007798000035109,0.1,0,FastAcc,21,18,Woman,Right,
6,9,1,0.516053200000897,['n'],1,right,['0'],6,0.3846730999975989,0.4,0,FastAcc,21,18,Woman,Right,
7,9,1,1.3835105999969528,['n'],1,right,['2'],2,0.9352304000021832,0.1,0,FastAcc,21,18,Woman,Right,
8,9,1,0.45000100000106613,['c'],0,right,['9'],5,0.5999828999993042,0.4,0,FastAcc,21,18,Woman,Right,
9,9,1,0.6503565000020899,['n'],1,right,['9'],5,0.3335034000010637,0.2,0,FastAcc,21,18,Woman,Right,
10,9,1,1.0177739999999176,['c'],1,left,['1'],1,0.48557529999743565,0.1,0,FastAcc,21,18,Woman,Right,
11,9,1,0.53366840000308,['n'],1,right,['1'],1,0.3179987000003166,0.4,0,FastAcc,21,18,Woman,Right,
12,9,1,0.8813499999996566,['c'],1,left,['0'],6,0.4027702999992471,0.4,0,FastAcc,21,18,Woman,Right,
13,9,1,0.6506122999999207,['n'],1,right,['0'],6,0.28467839999939315,0.1,0,FastAcc,21,18,Woman,Right,
14,9,1,0.8827794999997423,['c'],0,right,['0'],6,0.1686904999987746,0.1,0,FastAcc,21,18,Woman,Right,
15,9,1,1.7170927000006486,['c'],1,left,['2'],2,0.48490490000040154,0.2,0,FastAcc,21,18,Woman,Right,
16,9,1,0.4492370000007213,['n'],1,right,['9'],5,0.9841517999993812,0.4,0,FastAcc,21,18,Woman,Right,
17,9,1,0.5171632999990834,['n'],1,right,['3'],3,2.5848416999979236,0.1,0,FastAcc,21,18,Woman,Right,
18,9,1,0.4170594999995956,['c'],1,left,['9'],5,1.5685249999987718,0.4,0,FastAcc,21,18,Woman,Right,
19,9,1,0.40107069999794476,['c'],1,left,['9'],5,1.1855426000001899,0.4,0,FastAcc,21,18,Woman,Right,
20,9,1,0.6158200999998371,['n'],1,right,['0'],6,0.601451000002271,0.1,0,FastAcc,21,18,Woman,Right,
21,9,1,0.4165517000001273,['c'],0,right,['8'],4,1.1012301000009757,0.1,0,FastAcc,21,18,Woman,Right,
22,9,1,0.5002803999996104,['n'],1,right,['0'],6,0.5499056999979075,0.4,0,FastAcc,21,18,Woman,Right,
23,9,1,0.5162301000018488,['n'],0,left,['9'],5,1.9525084999986575,0.1,0,FastAcc,21,18,Woman,Right,
24,9,1,0.6340371000005689,['c'],0,right,['8'],4,0.8997617999993963,0.2,0,FastAcc,21,18,Woman,Right,
25,9,1,0.5672702000010759,['c'],1,left,['9'],5,0.8676446999998007,0.4,0,FastAcc,21,18,Woman,Right,
26,9,1,0.31796140000005835,['c'],1,left,['1'],1,1.3013839000013832,0.2,0,FastAcc,21,18,Woman,Right,
27,9,1,0.26740069999868865,['c'],0,right,['9'],5,0.9525412000002689,0.1,0,FastAcc,21,18,Woman,Right,
28,9,1,0.40043859999786946,['c'],1,left,['2'],2,0.8501025999976264,0.1,0,FastAcc,21,18,Woman,Right,
29,9,1,0.4335936999996193,['n'],0,left,['1'],1,1.2843779000031645,0.1,0,FastAcc,21,18,Woman,Right,
30,9,1,0.6172187000011036,['n'],1,right,['2'],2,0.7845927000016673,0.2,0,FastAcc,21,18,Woman,Right,
31,9,1,0.5168367000005674,['c'],0,right,['2'],2,1.484505699998408,0.2,0,FastAcc,21,18,Woman,Right,
32,9,1,0.33266070000172476,['n'],1,right,['0'],6,0.784151899999415,0.4,0,FastAcc,21,18,Woman,Right,
33,9,1,0.4315654000020004,['c'],1,left,['0'],6,0.7343287000003329,0.2,0,FastAcc,21,18,Woman,Right,
34,9,1,0.44937859999845386,['c'],1,left,['9'],5,0.6188591999998607,0.2,0,FastAcc,21,18,Woman,Right,
35,9,1,0.6670851999988372,['n'],1,right,['0'],6,1.068187000000762,0.2,0,FastAcc,21,18,Woman,Right,
36,9,1,0.45052149999901303,['c'],1,left,['0'],6,0.7014849000006507,0.4,0,FastAcc,21,18,Woman,Right,
37,9,1,0.5005549999987124,['n'],1,right,['9'],5,0.45155379999778233,0.1,0,FastAcc,21,18,Woman,Right,
38,9,1,0.4657456999993883,['c'],0,right,['1'],1,0.9687885000021197,0.4,0,FastAcc,21,18,Woman,Right,
39,9,1,1.2172723000003316,['c'],1,left,['9'],5,0.8179662000002281,0.2,0,FastAcc,21,18,Woman,Right,
40,9,1,0.5493553999986034,['n'],0,left,['1'],1,0.9007668000012927,0.1,0,FastAcc,21,18,Woman,Right,
41,9,1,0.43395930000042426,['c'],1,left,['2'],2,0.7848167000011017,0.4,0,FastAcc,21,18,Woman,Right,
42,9,1,0.43253270000059274,['n'],1,right,['2'],2,0.3515631999980542,0.2,0,FastAcc,21,18,Woman,Right,
43,9,1,0.599780999997165,['n'],0,left,['2'],2,1.034520799999882,0.1,0,FastAcc,21,18,Woman,Right,
44,9,1,0.982226800002536,['c'],1,left,['9'],5,0.8006491999985883,0.4,0,FastAcc,21,18,Woman,Right,
45,9,1,0.5339046000008238,['n'],1,right,['9'],5,0.9355355999978201,0.1,0,FastAcc,21,18,Woman,Right,
46,9,1,0.5327609999985725,['n'],0,left,['2'],2,0.5855207999993581,0.2,0,FastAcc,21,18,Woman,Right,
47,9,1,0.6329275999996753,['n'],0,left,['2'],2,0.8506328999974357,0.1,0,FastAcc,21,18,Woman,Right,
48,9,1,0.4338932999999088,['c'],0,right,['1'],1,0.7013378999981796,0.4,0,FastAcc,21,18,Woman,Right,
49,9,1,0.40034150000064983,['n'],1,right,['2'],2,0.8511768999997003,0.2,0,FastAcc,21,18,Woman,Right,
50,9,1,0.48453109999900335,['n'],1,right,['0'],6,0.7014588999991247,0.1,0,FastAcc,21,18,Woman,Right,
51,9,1,0.5147925000019313,['c'],1,left,['0'],6,0.48563040000226465,0.4,0,FastAcc,21,18,Woman,Right,
52,9,1,0.417258600002242,['n'],0,left,['2'],2,0.7169433000017307,0.4,0,FastAcc,21,18,Woman,Right,
53,9,1,0.565403000000515,['n'],1,right,['9'],5,0.6185083000018494,0.2,0,FastAcc,21,18,Woman,Right,
54,9,1,0.38444560000061756,['c'],1,left,['0'],6,0.4848201999993762,0.4,0,FastAcc,21,18,Woman,Right,
55,9,1,0.9504665999993449,['c'],1,left,['0'],6,0.6676410000000033,0.2,0,FastAcc,21,18,Woman,Right,
56,9,1,0.6002292999983183,['n'],1,right,['0'],6,0.28489129999798024,0.2,0,FastAcc,21,18,Woman,Right,
57,9,1,0.7010141000027943,['n'],1,right,['0'],6,0.29978510000000824,0.1,0,FastAcc,21,18,Woman,Right,
58,9,1,0.533049800000299,['c'],1,left,['0'],6,0.5523638000013307,0.2,0,FastAcc,21,18,Woman,Right,
59,9,1,0.5671978999998828,['c'],1,left,['0'],6,0.3012001999995846,0.2,0,FastAcc,21,18,Woman,Right,
0,10,1,0.8344064000011713,['n'],1,right,['8'],4,0.5681336999987252,0.2,0,FastFast,21,18,Woman,Right,
1,10,1,0.44855230000030133,['n'],1,right,['9'],5,0.28623050000169314,0.2,0,FastFast,21,18,Woman,Right,
2,10,1,0.4824644000000262,['n'],1,right,['9'],5,0.5196462000021711,0.2,0,FastFast,21,18,Woman,Right,
3,10,1,0.4521442000004754,['n'],0,left,['9'],5,0.3181637999987288,0.2,0,FastFast,21,18,Woman,Right,
4,10,1,0.5001278999989154,['n'],1,right,['2'],2,0.2845889999989595,0.1,0,FastFast,21,18,Woman,Right,
5,10,1,0.41567859999850043,['c'],0,right,['2'],2,0.5692683999986912,0.1,0,FastFast,21,18,Woman,Right,
6,10,1,0.4338215999996464,['c'],0,right,['2'],2,0.517420399999537,0.1,0,FastFast,21,18,Woman,Right,
7,10,1,0.3851472999995167,['n'],0,left,['2'],2,0.9002154999980121,0.4,0,FastFast,21,18,Woman,Right,
8,10,1,1.233338999998523,['c'],1,left,['2'],2,0.36835960000098567,0.1,0,FastFast,21,18,Woman,Right,
9,10,1,0.7006131999987701,['n'],1,right,['2'],2,0.5681489000016882,0.1,0,FastFast,21,18,Woman,Right,
10,10,1,0.5338936999978614,['c'],1,left,['9'],5,0.701318600000377,0.2,0,FastFast,21,18,Woman,Right,
11,10,1,0.7001888000013423,['c'],1,left,['9'],5,0.3346865000021353,0.2,0,FastFast,21,18,Woman,Right,
12,10,1,0.7172482999994827,['c'],1,left,['9'],5,0.4179924999989453,0.4,0,FastFast,21,18,Woman,Right,
13,10,1,0.9334798000018054,['n'],1,right,['9'],5,0.2848551999995834,0.1,0,FastFast,21,18,Woman,Right,
14,10,1,1.6503894999987097,['c'],0,right,['2'],2,3.1016118000006827,0.2,0,FastFast,21,18,Woman,Right,
15,10,1,0.717552699999942,['c'],1,left,['9'],5,0.4995423000000301,0.4,0,FastFast,21,18,Woman,Right,
16,10,1,0.8003050000006624,['c'],1,left,['9'],5,0.2501608999991731,0.4,0,FastFast,21,18,Woman,Right,
17,10,1,0.832162700000481,['c'],0,right,['1'],1,2.750337199999194,0.1,0,FastFast,21,18,Woman,Right,
18,10,1,0.7677690999989863,['c'],1,left,['9'],5,2.782361099998525,0.4,0,FastFast,21,18,Woman,Right,
19,10,1,0.7019905000015569,['c'],1,left,['0'],6,0.7846036999981152,0.1,0,FastFast,21,18,Woman,Right,
20,10,1,0.6827210999981617,['c'],1,left,['9'],5,0.8187902000026952,0.2,0,FastFast,21,18,Woman,Right,
21,10,1,0.6994474999992235,['n'],1,right,['2'],2,0.3505349999977625,0.2,0,FastFast,21,18,Woman,Right,
22,10,1,0.5671792000030109,['n'],1,right,['2'],2,0.2842112000034831,0.4,0,FastFast,21,18,Woman,Right,
23,10,1,1.634394799999427,['n'],1,right,['2'],2,0.31840960000045015,0.1,0,FastFast,21,18,Woman,Right,
24,10,1,0.7336060000016005,['n'],1,right,['9'],5,0.334125800000038,0.1,0,FastFast,21,18,Woman,Right,
25,10,1,0.45111610000094515,['c'],1,left,['9'],5,0.5168913999987126,0.1,0,FastFast,21,18,Woman,Right,
26,10,1,0.43473460000313935,['c'],0,right,['2'],2,0.6661928000030457,0.1,0,FastFast,21,18,Woman,Right,
27,10,1,0.4509623999983887,['n'],1,right,['9'],5,0.7510626000002958,0.4,0,FastFast,21,18,Woman,Right,
28,10,1,0.44880299999931594,['n'],1,right,['9'],5,0.41661959999692044,0.4,0,FastFast,21,18,Woman,Right,
29,10,1,0.8524468000032357,['c'],1,left,['9'],5,0.3017662999991444,0.1,0,FastFast,21,18,Woman,Right,
30,10,1,0.7485134000016842,['n'],0,left,['2'],2,0.40100209999945946,0.1,0,FastFast,21,18,Woman,Right,
31,10,1,0.7337116000016977,['n'],1,right,['9'],5,0.749758699999802,0.4,0,FastFast,21,18,Woman,Right,
32,10,1,0.8006442000005336,['n'],0,left,['9'],5,0.26856449999831966,0.1,0,FastFast,21,18,Woman,Right,
33,10,1,0.48218740000083926,['n'],0,left,['2'],2,0.30000569999901927,0.1,0,FastFast,21,18,Woman,Right,
34,10,1,0.568826299997454,['n'],1,right,['2'],2,0.23267370000030496,0.1,0,FastFast,21,18,Woman,Right,
35,10,1,0.4333937000010337,['n'],1,right,['2'],2,0.28347500000018044,0.2,0,FastFast,21,18,Woman,Right,
36,10,1,0.484363099996699,['c'],1,left,['9'],5,0.30060260000027483,0.4,0,FastFast,21,18,Woman,Right,
37,10,1,0.8670237000005727,['n'],1,right,['9'],5,1.4172811999997066,0.4,0,FastFast,21,18,Woman,Right,
38,10,1,0.5003560000004654,['c'],1,left,['9'],5,0.3007536999975855,0.1,0,FastFast,21,18,Woman,Right,
39,10,1,0.8668104999997013,['c'],1,left,['9'],5,0.36768949999895995,0.2,0,FastFast,21,18,Woman,Right,
40,10,1,0.6331461000008858,['c'],1,left,['2'],2,0.4362354000004416,0.2,0,FastFast,21,18,Woman,Right,
41,10,1,0.7664817000004405,['c'],1,left,['2'],2,0.04952000000048429,0.2,0,FastFast,21,18,Woman,Right,
42,10,1,0.85061929999938,['c'],1,left,['2'],2,0.3513013999981922,0.2,0,FastFast,21,18,Woman,Right,
43,10,1,0.43322990000160644,['n'],1,right,['9'],5,0.3181049000013445,0.4,0,FastFast,21,18,Woman,Right,
44,10,1,0.8325068000012834,['n'],0,left,['2'],2,0.7846687999990536,0.1,0,FastFast,21,18,Woman,Right,
45,10,1,0.6340186999987054,['n'],1,right,['2'],2,0.45119540000087,0.1,0,FastFast,21,18,Woman,Right,
46,10,1,0.49854299999788054,['c'],1,left,['9'],5,0.6351160000012896,0.4,0,FastFast,21,18,Woman,Right,
47,10,1,0.5002837000029103,['c'],1,left,['9'],5,0.2676750999999058,0.4,0,FastFast,21,18,Woman,Right,
48,10,1,0.65096099999937,['n'],0,left,['2'],2,0.26740650000283495,0.2,0,FastFast,21,18,Woman,Right,
49,10,1,0.7988519999998971,['n'],0,left,['1'],1,0.8008297000014863,0.4,0,FastFast,21,18,Woman,Right,
50,10,1,0.4825952999999572,['n'],1,right,['9'],5,0.4509416999972018,0.4,0,FastFast,21,18,Woman,Right,
51,10,1,0.7344525000007707,['n'],1,right,['0'],6,0.38285800000085146,0.2,0,FastFast,21,18,Woman,Right,
52,10,1,0.7170046999999613,['n'],1,right,['0'],6,0.35177420000036363,0.2,0,FastFast,21,18,Woman,Right,
53,10,1,0.6173550999992585,['n'],1,right,['1'],1,0.534637600001588,0.2,0,FastFast,21,18,Woman,Right,
54,10,1,0.38392949999979464,['n'],1,right,['9'],5,1.0010528999991948,0.4,0,FastFast,21,18,Woman,Right,
55,10,1,0.5175520999982837,['c'],1,left,['9'],5,0.36804830000255606,0.4,0,FastFast,21,18,Woman,Right,
56,10,1,0.4488829000001715,['c'],1,left,['9'],5,0.3514415999998164,0.4,0,FastFast,21,18,Woman,Right,
57,10,1,0.6818424000011873,['n'],0,left,['9'],5,0.4019490000027872,0.2,0,FastFast,21,18,Woman,Right,
58,10,1,0.5338211999987834,['n'],1,right,['0'],6,0.30143799999859766,0.4,0,FastFast,21,18,Woman,Right,
59,10,1,0.9672643000012613,['c'],0,right,['2'],2,0.6347845000018424,0.2,0,FastFast,21,18,Woman,Right,
0,11,1,2.5829064000026847,['c'],1,left,['9'],5,0.584216600000218,0.4,0,AccFast,21,18,Woman,Right,
1,11,1,1.3164200000028359,['n'],0,left,['2'],2,0.20222840000133147,0.1,0,AccFast,21,18,Woman,Right,
2,11,1,1.3667251000006218,['c'],1,left,['9'],5,0.13478680000116583,0.2,0,AccFast,21,18,Woman,Right,
3,11,1,0.783545199999935,['n'],1,right,['9'],5,0.21810220000043046,0.4,0,AccFast,21,18,Woman,Right,
4,11,1,1.2170073999986926,['c'],1,left,['9'],5,0.11663419999968028,0.1,0,AccFast,21,18,Woman,Right,
5,11,1,0.86768949999896,['n'],1,right,['2'],2,0.11848449999888544,0.1,0,AccFast,21,18,Woman,Right,
6,11,1,0.7666511999996146,['n'],1,right,['9'],5,0.16826189999846974,0.2,0,AccFast,21,18,Woman,Right,
7,11,1,0.7843720000018948,['c'],1,left,['2'],2,0.28470930000185035,0.2,0,AccFast,21,18,Woman,Right,
8,11,1,0.5668154999984836,['c'],1,left,['9'],5,0.20178439999654074,0.1,0,AccFast,21,18,Woman,Right,
9,11,1,0.6493348000003607,['c'],1,left,['9'],5,0.21678479999900446,0.2,0,AccFast,21,18,Woman,Right,
10,11,1,0.8176782000009553,['n'],1,right,['9'],5,0.2166382000032172,0.2,0,AccFast,21,18,Woman,Right,
11,11,1,0.5354645000006713,['n'],1,right,['9'],5,0.25081539999882807,0.2,0,AccFast,21,18,Woman,Right,
12,11,1,1.6339356999997108,['n'],0,left,['9'],5,0.1680075999975088,0.1,0,AccFast,21,18,Woman,Right,
13,11,1,2.1156870999984676,['n'],1,right,['9'],5,0.21827610000036657,0.2,0,AccFast,21,18,Woman,Right,
14,11,1,1.500696400002198,['c'],0,right,['9'],5,0.3179673000013281,0.1,0,AccFast,21,18,Woman,Right,
15,11,1,0.45010289999845554,['n'],1,right,['2'],2,0.3512900999994599,0.2,0,AccFast,21,18,Woman,Right,
16,11,1,0.4673040999987279,['c'],0,right,['2'],2,0.23487519999980577,0.1,0,AccFast,21,18,Woman,Right,
17,11,1,0.949778599999263,['n'],1,right,['2'],2,0.10139859999981127,0.4,0,AccFast,21,18,Woman,Right,
18,11,1,0.8494336000003386,['n'],0,left,['2'],2,0.152097700000013,0.1,0,AccFast,21,18,Woman,Right,
19,11,1,0.8340532000001986,['n'],1,right,['2'],2,0.08564140000089537,0.1,0,AccFast,21,18,Woman,Right,
20,11,1,0.7339095999996061,['n'],1,right,['2'],2,0.15029580000191345,0.2,0,AccFast,21,18,Woman,Right,
21,11,1,0.4495062999994843,['c'],1,left,['2'],2,0.2356681999990542,0.4,0,AccFast,21,18,Woman,Right,
22,11,1,0.750612200001342,['n'],0,left,['2'],2,0.18488570000045002,0.2,0,AccFast,21,18,Woman,Right,
23,11,1,0.7504853999998886,['c'],1,left,['2'],2,0.084748799999943,0.4,0,AccFast,21,18,Woman,Right,
24,11,1,0.5997521999997844,['n'],0,left,['2'],2,0.08512150000024121,0.1,0,AccFast,21,18,Woman,Right,
25,11,1,0.5503671000005852,['c'],0,right,['9'],5,0.1513574000018707,0.1,0,AccFast,21,18,Woman,Right,
26,11,1,0.40015910000147414,['n'],0,left,['2'],2,0.11810650000188616,0.4,0,AccFast,21,18,Woman,Right,
27,11,1,0.483563800000411,['c'],1,left,['2'],2,0.4006469999985711,0.1,0,AccFast,21,18,Woman,Right,
28,11,1,0.5993997999976273,['n'],1,right,['2'],2,0.11810809999951744,0.4,0,AccFast,21,18,Woman,Right,
29,11,1,1.0163371000016923,['n'],1,right,['9'],5,0.16818720000082976,0.4,0,AccFast,21,18,Woman,Right,
30,11,1,0.8843058999991626,['c'],1,left,['9'],5,0.13479189999998198,0.1,0,AccFast,21,18,Woman,Right,
31,11,1,1.0172499000000244,['n'],1,right,['9'],5,0.20152360000065528,0.4,0,AccFast,21,18,Woman,Right,
32,11,1,0.5656363999987661,['n'],1,right,['0'],6,0.184744000001956,0.4,0,AccFast,21,18,Woman,Right,
33,11,1,0.5172952000029909,['n'],0,left,['1'],1,0.11822759999995469,0.4,0,AccFast,21,18,Woman,Right,
34,11,1,0.48314579999714624,['n'],0,left,['2'],2,0.16823660000227392,0.2,0,AccFast,21,18,Woman,Right,
35,11,1,0.9652074999976321,['c'],0,right,['9'],5,0.1364571000012802,0.4,0,AccFast,21,18,Woman,Right,
36,11,1,1.2657316000004357,['n'],1,right,['9'],5,0.4514177999990352,0.4,0,AccFast,21,18,Woman,Right,
37,11,1,0.6501290000014706,['n'],1,right,['2'],2,0.11805789999925764,0.1,0,AccFast,21,18,Woman,Right,
38,11,1,0.7504480999996304,['c'],0,right,['2'],2,0.20134600000164937,0.2,0,AccFast,21,18,Woman,Right,
39,11,1,0.6666881999990437,['n'],1,right,['2'],2,0.15125939999779803,0.1,0,AccFast,21,18,Woman,Right,
40,11,1,0.833119999999326,['n'],0,left,['2'],2,0.16825710000193794,0.1,0,AccFast,21,18,Woman,Right,
41,11,1,0.6170768000010867,['n'],1,right,['2'],2,0.11810349999723257,0.4,0,AccFast,21,18,Woman,Right,
42,11,1,0.6005312000015692,['n'],1,right,['9'],5,0.16815169999972568,0.4,0,AccFast,21,18,Woman,Right,
43,11,1,0.6171165000014298,['c'],1,left,['9'],5,0.13498960000288207,0.2,0,AccFast,21,18,Woman,Right,
44,11,1,0.4490884999977425,['n'],1,right,['9'],5,0.20216609999988577,0.4,0,AccFast,21,18,Woman,Right,
45,11,1,0.6335722999974678,['n'],1,right,['2'],2,0.13499080000110553,0.1,0,AccFast,21,18,Woman,Right,
46,11,1,0.33507449999888195,['c'],1,left,['9'],5,0.10112979999757954,0.4,0,AccFast,21,18,Woman,Right,
47,11,1,0.5665115999981936,['c'],1,left,['9'],5,0.06798479999997653,0.2,0,AccFast,21,18,Woman,Right,
48,11,1,0.4846499999985099,['c'],1,left,['9'],5,0.11703510000006645,0.1,0,AccFast,21,18,Woman,Right,
49,11,1,0.3510662000007869,['n'],0,left,['2'],2,0.1338562999990245,0.2,0,AccFast,21,18,Woman,Right,
50,11,1,0.3507791999982146,['c'],1,left,['9'],5,0.15146879999883822,0.2,0,AccFast,21,18,Woman,Right,
51,11,1,0.6663988000000245,['c'],1,left,['9'],5,0.13515639999968698,0.4,0,AccFast,21,18,Woman,Right,
52,11,1,0.7664984000002733,['n'],0,left,['0'],6,0.21735090000220225,0.2,0,AccFast,21,18,Woman,Right,
53,11,1,0.43378669999947306,['c'],0,right,['9'],5,0.11822110000139219,0.1,0,AccFast,21,18,Woman,Right,
54,11,1,0.517619400001422,['c'],0,right,['9'],5,0.13473249999879044,0.4,0,AccFast,21,18,Woman,Right,
55,11,1,0.6340751999996428,['n'],1,right,['9'],5,0.2682654999989609,0.1,0,AccFast,21,18,Woman,Right,
56,11,1,1.0495363000009093,['c'],0,right,['9'],5,0.2848575999996683,0.2,0,AccFast,21,18,Woman,Right,
57,11,1,0.6505825999993249,['c'],1,left,['9'],5,0.15141500000027008,0.2,0,AccFast,21,18,Woman,Right,
58,11,1,0.650532600000588,['c'],1,left,['9'],5,0.1522311999979138,0.2,0,AccFast,21,18,Woman,Right,
59,11,1,0.6173323000002711,['c'],1,left,['9'],5,0.1003621000018029,0.4,0,AccFast,21,18,Woman,Right,
0,12,1,1.234651999999187,['c'],0,right,['8'],4,0.48398440000164555,0.2,0,AccAcc,21,18,Woman,Right,
1,12,1,1.066998500002228,['n'],1,right,['9'],5,0.25161149999985355,0.4,0,AccAcc,21,18,Woman,Right,
2,12,1,1.4334629999975732,['c'],0,right,['2'],2,0.3015903999985312,0.1,0,AccAcc,21,18,Woman,Right,
3,12,1,0.8005597000010312,['n'],0,left,['2'],2,0.2350211999983003,0.1,0,AccAcc,21,18,Woman,Right,
4,12,1,0.5841056999997818,['n'],1,right,['2'],2,0.20232889999897452,0.2,0,AccAcc,21,18,Woman,Right,
5,12,1,2.5168636000016704,['c'],0,right,['2'],2,0.8180968999986362,0.1,0,AccAcc,21,18,Woman,Right,
6,12,1,0.482492999999522,['n'],1,right,['2'],2,0.4356266999966465,0.2,0,AccAcc,21,18,Woman,Right,
7,12,1,0.43344729999807896,['n'],0,left,['2'],2,0.28473549999762326,0.1,0,AccAcc,21,18,Woman,Right,
8,12,1,1.198864699999831,['c'],1,left,['2'],2,0.2520817000004172,0.2,0,AccAcc,21,18,Woman,Right,
9,12,1,0.7341134999987844,['c'],1,left,['2'],2,0.28483630000118865,0.4,0,AccAcc,21,18,Woman,Right,
10,12,1,0.8834107999973639,['c'],1,left,['9'],5,0.21799259999897913,0.4,0,AccAcc,21,18,Woman,Right,
11,12,1,0.7839765999997326,['n'],1,right,['9'],5,0.4014121000000159,0.4,0,AccAcc,21,18,Woman,Right,
12,12,1,0.7171227999970142,['n'],1,right,['9'],5,0.4013712999985728,0.2,0,AccAcc,21,18,Woman,Right,
13,12,1,1.2001835000010033,['n'],0,left,['9'],5,0.30149140000139596,0.2,0,AccAcc,21,18,Woman,Right,
14,12,1,0.6499080999965372,['c'],1,left,['9'],5,0.55112999999983,0.4,0,AccAcc,21,18,Woman,Right,
15,12,1,0.9009039999982633,['n'],0,left,['9'],5,0.3013506999996025,0.1,0,AccAcc,21,18,Woman,Right,
16,12,1,0.8506091999988712,['c'],1,left,['9'],5,0.25129220000235364,0.1,0,AccAcc,21,18,Woman,Right,
17,12,1,0.9512016000007861,['c'],0,right,['9'],5,0.20153819999904954,0.2,0,AccAcc,21,18,Woman,Right,
18,12,1,0.6493479999990086,['c'],0,right,['9'],5,0.23535589999664808,0.1,0,AccAcc,21,18,Woman,Right,
19,12,1,0.9504639999977371,['n'],1,right,['2'],2,0.1511133999993035,0.4,0,AccAcc,21,18,Woman,Right,
20,12,1,1.1649890000007872,['c'],1,left,['9'],5,0.23660929999823566,0.4,0,AccAcc,21,18,Woman,Right,
21,12,1,1.017131900000095,['c'],0,right,['9'],5,0.46822310000061407,0.4,0,AccAcc,21,18,Woman,Right,
22,12,1,0.6339210000005551,['c'],1,left,['9'],5,0.28481230000033975,0.2,0,AccAcc,21,18,Woman,Right,
23,12,1,0.9332010999969498,['n'],0,left,['9'],5,0.3673369999996794,0.2,0,AccAcc,21,18,Woman,Right,
24,12,1,0.6007387999998173,['c'],1,left,['9'],5,0.25077370000144583,0.4,0,AccAcc,21,18,Woman,Right,
25,12,1,0.9672155999978713,['c'],0,right,['1'],1,1.0179152000018803,0.1,0,AccAcc,21,18,Woman,Right,
26,12,1,1.200360400001955,['c'],1,left,['9'],5,0.23479280000174185,0.2,0,AccAcc,21,18,Woman,Right,
27,12,1,1.2495459000019764,['c'],1,left,['9'],5,0.26790560000154073,0.4,0,AccAcc,21,18,Woman,Right,
28,12,1,0.9837373999980628,['n'],1,right,['9'],5,2.8999426000009407,0.1,0,AccAcc,21,18,Woman,Right,
29,12,1,0.9006824000025517,['c'],0,right,['2'],2,1.4523919999992358,0.4,0,AccAcc,21,18,Woman,Right,
30,12,1,1.5679853000001458,['c'],1,left,['2'],2,0.06651490000149352,0.1,0,AccAcc,21,18,Woman,Right,
31,12,1,1.2664179999992484,['n'],1,right,['9'],5,0.3018941000009363,0.1,0,AccAcc,21,18,Woman,Right,
32,12,1,0.783972500001255,['c'],1,left,['8'],4,0.21833419999893522,0.4,0,AccAcc,21,18,Woman,Right,
33,12,1,0.9332832000000053,['n'],1,right,['9'],5,0.25077710000186926,0.2,0,AccAcc,21,18,Woman,Right,
34,12,1,0.700295599999663,['c'],0,right,['9'],5,0.2334986999994726,0.1,0,AccAcc,21,18,Woman,Right,
35,12,1,0.6838456000004953,['c'],0,right,['9'],5,0.2348247000008996,0.1,0,AccAcc,21,18,Woman,Right,
36,12,1,0.6328509999984817,['c'],1,left,['9'],5,0.28461500000048545,0.2,0,AccAcc,21,18,Woman,Right,
37,12,1,0.8338761000013619,['n'],0,left,['9'],5,0.46804010000050766,0.1,0,AccAcc,21,18,Woman,Right,
38,12,1,1.533780999998271,['n'],1,right,['9'],5,0.28453600000284496,0.2,0,AccAcc,21,18,Woman,Right,
39,12,1,0.8834151999981259,['n'],0,left,['9'],5,0.18450690000099712,0.1,0,AccAcc,21,18,Woman,Right,
40,12,1,0.9839394999980868,['c'],1,left,"['1', '2']",1,0.08519230000092648,0.2,0,AccAcc,21,18,Woman,Right,
41,12,1,0.9343321999986074,['n'],1,right,['9'],5,0.2847747000014351,0.2,0,AccAcc,21,18,Woman,Right,
42,12,1,0.9165004000024055,['c'],0,right,['9'],5,0.26681470000039553,0.1,0,AccAcc,21,18,Woman,Right,
43,12,1,0.8174684000005072,['c'],0,right,['9'],5,0.31760600000052364,0.1,0,AccAcc,21,18,Woman,Right,
44,12,1,0.5998323999992863,['c'],0,right,['2'],2,0.46789710000302875,0.2,0,AccAcc,21,18,Woman,Right,
45,12,1,0.6329449000004388,['n'],1,right,['2'],2,0.368572999999742,0.1,0,AccAcc,21,18,Woman,Right,
46,12,1,1.0172161999980744,['n'],1,right,['9'],5,0.23473999999987427,0.2,0,AccAcc,21,18,Woman,Right,
47,12,1,0.6819942000001902,['c'],1,left,['9'],5,0.26768019999872195,0.4,0,AccAcc,21,18,Woman,Right,
48,12,1,0.784243800000695,['c'],1,left,['9'],5,0.2681741000014881,0.4,0,AccAcc,21,18,Woman,Right,
49,12,1,0.9169511000000057,['c'],1,left,['9'],5,0.2685947000027227,0.4,0,AccAcc,21,18,Woman,Right,
50,12,1,0.7501062999981514,['c'],1,left,['9'],5,0.2182126999978209,0.4,0,AccAcc,21,18,Woman,Right,
51,12,1,1.0677740999999514,['n'],1,right,['9'],5,0.2689028999993752,0.2,0,AccAcc,21,18,Woman,Right,
52,12,1,0.5008765000020503,['c'],1,left,['9'],5,0.21900649999952293,0.1,0,AccAcc,21,18,Woman,Right,
53,12,1,0.7004353000011179,['n'],1,right,['9'],5,0.2678923000021314,0.4,0,AccAcc,21,18,Woman,Right,
54,12,1,0.6846201999978803,['c'],1,left,['9'],5,0.18490220000239788,0.4,0,AccAcc,21,18,Woman,Right,
55,12,1,1.1004690999980085,['c'],1,left,['9'],5,0.1517037999983586,0.2,0,AccAcc,21,18,Woman,Right,
56,12,1,0.8504279000007955,['c'],0,right,['9'],5,0.18470019999949727,0.1,0,AccAcc,21,18,Woman,Right,
57,12,1,0.7170243000000482,['c'],1,left,['9'],5,0.21820949999892036,0.4,0,AccAcc,21,18,Woman,Right,
58,12,1,0.8163727999999537,['n'],1,right,['9'],5,0.23483020000276156,0.2,0,AccAcc,21,18,Woman,Right,
59,12,1,0.6837373000016669,['c'],1,left,['9'],5,0.18531359999906272,0.4,0,AccAcc,21,18,Woman,Right,
0,13,1,1.0342541999998502,['c'],1,left,['9'],5,0.31807560000015656,0.4,0,FastAcc,21,18,Woman,Right,
1,13,1,0.36665609999909066,['c'],1,left,['9'],5,0.21811439999873983,0.1,0,FastAcc,21,18,Woman,Right,
2,13,1,0.5505959999973129,['c'],1,left,['2'],2,0.7510705000022426,0.4,0,FastAcc,21,18,Woman,Right,
3,13,1,0.46718260000125156,['c'],1,left,['9'],5,0.25147690000085277,0.4,0,FastAcc,21,18,Woman,Right,
4,13,1,1.3672852999989118,['c'],1,left,['2'],2,0.5826076999983343,0.1,0,FastAcc,21,18,Woman,Right,
5,13,1,0.5013502000001608,['n'],1,right,['2'],2,1.2849509999978181,0.2,0,FastAcc,21,18,Woman,Right,
6,13,1,0.28392089999761083,['c'],0,right,['9'],5,0.9346693999978015,0.2,0,FastAcc,21,18,Woman,Right,
7,13,1,0.4003832999987935,['c'],1,left,['9'],5,0.8348302999984298,0.2,0,FastAcc,21,18,Woman,Right,
8,13,1,0.46728779999830294,['c'],0,right,['2'],2,0.7346856000003754,0.1,0,FastAcc,21,18,Woman,Right,
9,13,1,0.5671920999993745,['n'],1,right,['9'],5,0.31785239999953774,0.4,0,FastAcc,21,18,Woman,Right,
10,13,1,0.650478600000497,['n'],1,right,['9'],5,0.1847278000022925,0.1,0,FastAcc,21,18,Woman,Right,
11,13,1,0.7171770999993896,['c'],1,left,['9'],5,0.4513710999999603,0.1,0,FastAcc,21,18,Woman,Right,
12,13,1,1.8669587999975192,['c'],1,left,['8'],4,0.3678178999980446,0.2,0,FastAcc,21,18,Woman,Right,
13,13,1,0.4505174000005354,['c'],0,right,['8'],4,0.34963730000163196,0.2,0,FastAcc,21,18,Woman,Right,
14,13,1,0.3343433999980334,['n'],0,left,['3'],3,0.26812190000055125,0.1,0,FastAcc,21,18,Woman,Right,
15,13,1,1.0169687000015983,['c'],1,left,['3'],3,0.8346184000001813,0.1,0,FastAcc,21,18,Woman,Right,
16,13,1,0.4999564999998256,['n'],0,left,['8'],4,0.31803539999964414,0.4,0,FastAcc,21,18,Woman,Right,
17,13,1,0.3672638000025472,['n'],0,left,['3'],3,0.21663300000000163,0.4,0,FastAcc,21,18,Woman,Right,
18,13,1,0.5834433999989415,['c'],0,right,['8'],4,0.25027070000214735,0.2,0,FastAcc,21,18,Woman,Right,
19,13,1,0.6340917000015907,['n'],1,right,['8'],4,0.1841085000014573,0.1,0,FastAcc,21,18,Woman,Right,
20,13,1,0.4824951000009605,['c'],0,right,['8'],4,0.18569360000037705,0.4,0,FastAcc,21,18,Woman,Right,
21,13,1,0.7508215999987442,['n'],1,right,['8'],4,0.25156409999908647,0.1,0,FastAcc,21,18,Woman,Right,
22,13,1,1.100310999998328,['c'],1,left,['3'],3,0.6997181999977329,0.1,0,FastAcc,21,18,Woman,Right,
23,13,1,0.5849008999975922,['n'],1,right,['9'],5,0.26834739999685553,0.2,0,FastAcc,21,18,Woman,Right,
24,13,1,0.6991896999970777,['n'],0,left,['9'],5,0.35211490000074264,0.2,0,FastAcc,21,18,Woman,Right,
25,13,1,1.3669042000001355,['c'],0,right,['8'],4,0.43514130000039586,0.2,0,FastAcc,21,18,Woman,Right,
26,13,1,0.5003642000010586,['c'],1,left,['0'],6,0.46800879999864264,0.4,0,FastAcc,21,18,Woman,Right,
27,13,1,0.667320299999119,['c'],1,left,['8'],4,0.48505980000118143,0.1,0,FastAcc,21,18,Woman,Right,
28,13,1,0.4327432000027329,['n'],0,left,['3'],3,0.40173219999996945,0.2,0,FastAcc,21,18,Woman,Right,
29,13,1,0.3316487000010966,['c'],1,left,['2'],2,0.3364538999994693,0.4,0,FastAcc,21,18,Woman,Right,
30,13,1,0.34930589999930817,['n'],0,left,['2'],2,0.21824199999900884,0.2,0,FastAcc,21,18,Woman,Right,
31,13,1,0.41715620000104536,['n'],0,left,['3'],3,0.2681162000008044,0.4,0,FastAcc,21,18,Woman,Right,
32,13,1,1.5497644999995828,['c'],1,left,['8'],4,0.5347244000004139,0.2,0,FastAcc,21,18,Woman,Right,
33,13,1,0.5834958999985247,['n'],1,right,['8'],4,0.5159998999988602,0.4,0,FastAcc,21,18,Woman,Right,
34,13,1,0.5011790999997174,['n'],1,right,['9'],5,1.3180551000004925,0.2,0,FastAcc,21,18,Woman,Right,
35,13,1,0.316266199999518,['n'],0,left,['2'],2,1.0013474000006681,0.4,0,FastAcc,21,18,Woman,Right,
36,13,1,0.7504312999990361,['c'],1,left,['1'],1,0.7344155999999202,0.4,0,FastAcc,21,18,Woman,Right,
37,13,1,0.5662334999979066,['n'],1,right,['9'],5,0.7997990999974718,0.2,0,FastAcc,21,18,Woman,Right,
38,13,1,0.48402379999970435,['c'],1,left,['9'],5,0.40080330000273534,0.2,0,FastAcc,21,18,Woman,Right,
39,13,1,0.5664691999991192,['c'],1,left,['9'],5,0.16944859999784967,0.2,0,FastAcc,21,18,Woman,Right,
40,13,1,0.8154534000022977,['c'],0,right,['9'],5,0.2687953999993624,0.2,0,FastAcc,21,18,Woman,Right,
41,13,1,1.550516900002549,['n'],1,right,['9'],5,1.0678122999997868,0.4,0,FastAcc,21,18,Woman,Right,
42,13,1,0.8165316000013263,['n'],1,right,['9'],5,0.26663859999825945,0.1,0,FastAcc,21,18,Woman,Right,
43,13,1,0.984462500000518,['c'],1,left,['9'],5,0.3012410000010277,0.4,0,FastAcc,21,18,Woman,Right,
44,13,1,0.6842739999992773,['n'],1,right,['9'],5,0.28497730000162846,0.1,0,FastAcc,21,18,Woman,Right,
45,13,1,0.7325706999981776,['c'],0,right,['9'],5,0.3190057000028901,0.1,0,FastAcc,21,18,Woman,Right,
46,13,1,0.6999910000013188,['n'],1,right,['9'],5,0.23461459999816725,0.1,0,FastAcc,21,18,Woman,Right,
47,13,1,0.5997566000005463,['n'],1,right,['9'],5,0.1849435000003723,0.1,0,FastAcc,21,18,Woman,Right,
48,13,1,0.8004733000016131,['n'],1,right,['9'],5,0.28465130000040517,0.4,0,FastAcc,21,18,Woman,Right,
49,13,1,0.7170867999993789,['n'],0,left,['9'],5,0.2178794999999809,0.4,0,FastAcc,21,18,Woman,Right,
50,13,1,0.6672283000007155,['n'],1,right,['9'],5,0.2178546999966784,0.2,0,FastAcc,21,18,Woman,Right,
51,13,1,0.6842017999988457,['n'],1,right,['9'],5,0.25133199999982025,0.1,0,FastAcc,21,18,Woman,Right,
52,13,1,1.0004689999987022,['n'],1,right,['9'],5,0.6847525999983191,0.1,0,FastAcc,21,18,Woman,Right,
53,13,1,0.36457700000028126,['c'],1,left,['9'],5,0.5181358000008913,0.4,0,FastAcc,21,18,Woman,Right,
54,13,1,0.5999513000024308,['c'],1,left,['2'],2,0.23534029999791528,0.2,0,FastAcc,21,18,Woman,Right,
55,13,1,0.2833092000000761,['n'],1,right,['9'],5,0.28482720000101835,0.1,0,FastAcc,21,18,Woman,Right,
56,13,1,0.4505914000001212,['n'],1,right,['9'],5,0.3350912999994762,0.4,0,FastAcc,21,18,Woman,Right,
57,13,1,0.40011909999884665,['c'],0,right,['3'],3,1.067862799998693,0.2,0,FastAcc,21,18,Woman,Right,
58,13,1,0.43324070000016945,['n'],0,left,['9'],5,0.26803369999834104,0.1,0,FastAcc,21,18,Woman,Right,
59,13,1,0.5832069999996747,['n'],1,right,['9'],5,0.20145340000090073,0.4,0,FastAcc,21,18,Woman,Right,
0,14,1,0.4509375000016007,['n'],0,left,['9'],5,0.5846095000015339,0.1,0,FastFast,21,18,Woman,Right,
1,14,1,0.3004594999983965,['n'],1,right,['2'],2,0.33499339999980293,0.2,0,FastFast,21,18,Woman,Right,
2,14,1,0.36668009999993956,['n'],1,right,['9'],5,0.2500404999991588,0.2,0,FastFast,21,18,Woman,Right,
3,14,1,0.4338406999995641,['c'],1,left,['9'],5,0.26662750000105007,0.4,0,FastFast,21,18,Woman,Right,
4,14,1,0.2508443000006082,['n'],1,right,['2'],2,0.20156300000235206,0.4,0,FastFast,21,18,Woman,Right,
5,14,1,0.39977559999897494,['c'],1,left,['9'],5,0.18470069999966654,0.4,0,FastFast,21,18,Woman,Right,
6,14,1,0.300153300002421,['n'],0,left,['2'],2,0.13477419999981066,0.1,0,FastFast,21,18,Woman,Right,
7,14,1,0.3679954999970505,['n'],0,left,['8'],4,0.43466329999864683,0.4,0,FastFast,21,18,Woman,Right,
8,14,1,0.4187848000001395,['n'],1,right,['8'],4,0.18478959999993094,0.4,0,FastFast,21,18,Woman,Right,
9,14,1,0.7339109999993525,['c'],1,left,['8'],4,0.11810820000027888,0.1,0,FastFast,21,18,Woman,Right,
10,14,1,0.7338692999983323,['c'],0,right,['8'],4,0.1014017999987118,0.4,0,FastFast,21,18,Woman,Right,
11,14,1,0.26592340000206605,['n'],1,right,['3'],3,0.15209340000001248,0.4,0,FastFast,21,18,Woman,Right,
12,14,1,0.40044359999956214,['c'],1,left,['8'],4,0.21804279999923892,0.4,0,FastFast,21,18,Woman,Right,
13,14,1,0.6001128999996581,['n'],1,right,['9'],5,1.4679783999999927,0.2,0,FastFast,21,18,Woman,Right,
14,14,1,0.36697500000082073,['c'],0,right,['9'],5,0.1344872999979998,0.2,0,FastFast,21,18,Woman,Right,
15,14,1,0.8324020000000019,['c'],0,right,['8'],4,0.18499620000147843,0.1,0,FastFast,21,18,Woman,Right,
16,14,1,0.39917399999831105,['n'],0,left,['9'],5,0.2346932000000379,0.2,0,FastFast,21,18,Woman,Right,
17,14,1,0.46609170000010636,['c'],1,left,['9'],5,0.35214859999905457,0.1,0,FastFast,21,18,Woman,Right,
18,14,1,0.33443370000168215,['n'],0,left,['2'],2,0.2336976999977196,0.1,0,FastFast,21,18,Woman,Right,
19,14,1,0.40103480000107083,['n'],0,left,['2'],2,0.16799909999826923,0.4,0,FastFast,21,18,Woman,Right,
20,14,1,0.3847831999992195,['n'],0,left,['8'],4,0.9666570000008505,0.4,0,FastFast,21,18,Woman,Right,
21,14,1,0.4844649999977264,['c'],0,right,['8'],4,0.6345335000005434,0.4,0,FastFast,21,18,Woman,Right,
22,14,1,0.350385699999606,['n'],0,left,['8'],4,0.21806239999932586,0.2,0,FastFast,21,18,Woman,Right,
23,14,1,0.35062010000183363,['n'],0,left,['8'],4,0.017941199999768287,0.2,0,FastFast,21,18,Woman,Right,
24,14,1,0.3839408000021649,['c'],0,right,['8'],4,0.18280400000003283,0.2,0,FastFast,21,18,Woman,Right,
25,14,1,0.34955510000145296,['c'],1,left,['3'],3,0.1675957000006747,0.1,0,FastFast,21,18,Woman,Right,
26,14,1,0.3011609999994107,['n'],1,right,['8'],4,0.1513531000018702,0.2,0,FastFast,21,18,Woman,Right,
27,14,1,0.45066099999894504,['n'],0,left,['8'],4,0.01821410000047763,0.2,0,FastFast,21,18,Woman,Right,
28,14,1,0.4983353999996325,['c'],0,right,['8'],4,0.23570679999829736,0.1,0,FastFast,21,18,Woman,Right,
29,14,1,0.865333500001725,['n'],1,right,['8'],4,0.06806959999812534,0.1,0,FastFast,21,18,Woman,Right,
30,14,1,0.8678813000005903,['n'],1,right,['8'],4,0.21778140000242274,0.1,0,FastFast,21,18,Woman,Right,
31,14,1,0.7493491999994149,['c'],0,right,['8'],4,0.11846090000108234,0.1,0,FastFast,21,18,Woman,Right,
32,14,1,0.383390099999815,['n'],1,right,['3'],3,0.1010896000007051,0.4,0,FastFast,21,18,Woman,Right,
33,14,1,0.3498571999989508,['n'],1,right,['3'],3,0.13470279999819468,0.2,0,FastFast,21,18,Woman,Right,
34,14,1,0.6505237000019406,['n'],1,right,['3'],3,0.1831568999987212,0.1,0,FastFast,21,18,Woman,Right,
35,14,1,0.38433619999705115,['n'],0,left,['3'],3,0.1680263999987801,0.4,0,FastFast,21,18,Woman,Right,
36,14,1,0.31703339999876334,['n'],1,right,['3'],3,0.16795690000071772,0.2,0,FastFast,21,18,Woman,Right,
37,14,1,0.41723130000173114,['c'],0,right,['8'],4,0.15142769999874872,0.1,0,FastFast,21,18,Woman,Right,
38,14,1,0.3678801999994903,['c'],1,left,['8'],4,0.18445470000006026,0.4,0,FastFast,21,18,Woman,Right,
39,14,1,0.8836266999969666,['n'],0,left,['3'],3,0.7340965999974287,0.2,0,FastFast,21,18,Woman,Right,
40,14,1,0.48254629999792087,['c'],1,left,['8'],4,0.26811259999885806,0.4,0,FastFast,21,18,Woman,Right,
41,14,1,1.2316953999979887,['c'],0,right,['1'],1,0.33559690000038245,0.4,0,FastFast,21,18,Woman,Right,
42,14,1,0.9824816000000283,['n'],1,right,['3'],3,0.25226699999984703,0.2,0,FastFast,21,18,Woman,Right,
43,14,1,0.5337564000001294,['c'],1,left,['8'],4,0.1180860999993456,0.2,0,FastFast,21,18,Woman,Right,
44,14,1,0.08366790000218316,['c'],1,left,['8'],4,0.634724700001243,0.4,0,FastFast,21,18,Woman,Right,
45,14,1,0.4665415000017674,['c'],1,left,['8'],4,0.20106640000085463,0.4,0,FastFast,21,18,Woman,Right,
46,14,1,0.3174489999983052,['c'],0,right,['8'],4,0.18363479999970878,0.2,0,FastFast,21,18,Woman,Right,
47,14,1,0.46810479999840027,['n'],0,left,['3'],3,0.11673599999994622,0.1,0,FastFast,21,18,Woman,Right,
48,14,1,0.9846971000006306,['n'],1,right,['8'],4,0.25125110000226414,0.2,0,FastFast,21,18,Woman,Right,
49,14,1,0.7323096000000078,['n'],1,right,['3'],3,0.2355968000010762,0.1,0,FastFast,21,18,Woman,Right,
50,14,1,0.2657496000028914,['n'],0,left,['8'],4,0.28545910000320873,0.2,0,FastFast,21,18,Woman,Right,
51,14,1,1.1825189000010141,['n'],1,right,['8'],4,0.3356634000010672,0.4,0,FastFast,21,18,Woman,Right,
52,14,1,1.1501233999988472,['n'],1,right,['8'],4,0.5846954999979062,0.1,0,FastFast,21,18,Woman,Right,
53,14,1,0.6170683000018471,['c'],1,left,['8'],4,0.20049940000171773,0.2,0,FastFast,21,18,Woman,Right,
54,14,1,0.4343847999989521,['c'],1,left,['8'],4,0.166874700000335,0.4,0,FastFast,21,18,Woman,Right,
55,14,1,0.6843993000002229,['n'],0,left,['8'],4,0.11809849999917787,0.1,0,FastFast,21,18,Woman,Right,
56,14,1,0.41751970000041183,['c'],1,left,['8'],4,0.11775050000142073,0.2,0,FastFast,21,18,Woman,Right,
57,14,1,0.48209810000116704,['c'],0,right,['8'],4,0.11905040000056033,0.1,0,FastFast,21,18,Woman,Right,
58,14,1,0.5177436999983911,['c'],1,left,['8'],4,0.1494470999969053,0.1,0,FastFast,21,18,Woman,Right,
59,14,1,0.33523559999957797,['c'],0,right,['8'],4,0.08468839999841293,0.1,0,FastFast,21,18,Woman,Right,
0,15,1,2.350615999999718,['n'],1,right,['9'],5,0.6679441999986011,0.4,0,AccFast,21,18,Woman,Right,
1,15,1,0.5331679000009899,['c'],0,right,['9'],5,0.6190711000017473,0.1,0,AccFast,21,18,Woman,Right,
2,15,1,0.7329891000008502,['n'],1,right,['9'],5,1.7345549999990908,0.2,0,AccFast,21,18,Woman,Right,
3,15,1,0.833684400000493,['c'],0,right,['9'],5,0.5848406000004616,0.4,0,AccFast,21,18,Woman,Right,
4,15,1,0.5335081999983231,['n'],1,right,['2'],2,0.716015599999082,0.4,0,AccFast,21,18,Woman,Right,
5,15,1,0.6513865000015358,['c'],1,left,['9'],5,0.43305319999853964,0.4,0,AccFast,21,18,Woman,Right,
6,15,1,0.7515375000002678,['n'],1,right,['9'],5,0.7181189000002632,0.2,0,AccFast,21,18,Woman,Right,
7,15,1,1.6324534000013955,['c'],1,left,['9'],5,0.15223320000222884,0.1,0,AccFast,21,18,Woman,Right,
8,15,1,0.517435599998862,['n'],1,right,['9'],5,0.18481969999993453,0.1,0,AccFast,21,18,Woman,Right,
9,15,1,1.9333555000011984,['c'],0,right,"['1', '2']",1,0.13495479999983218,0.1,0,AccFast,21,18,Woman,Right,
10,15,1,0.8338422999986506,['n'],1,right,['9'],5,0.13454450000062934,0.2,0,AccFast,21,18,Woman,Right,
11,15,1,0.7830997999990359,['c'],1,left,['9'],5,0.1678782000017236,0.2,0,AccFast,21,18,Woman,Right,
12,15,1,1.5671302000009746,['c'],1,left,['9'],5,0.2022711999998137,0.2,0,AccFast,21,18,Woman,Right,
13,15,1,0.9505449999996927,['n'],1,right,['9'],5,0.1348483000001579,0.4,0,AccFast,21,18,Woman,Right,
14,15,1,1.0837833999976283,['c'],1,left,['3'],3,0.2846996999978728,0.1,0,AccFast,21,18,Woman,Right,
15,15,1,0.2999638999972376,['n'],0,left,['9'],5,0.15230539999902248,0.1,0,AccFast,21,18,Woman,Right,
16,15,1,1.1677221999998437,['c'],1,left,['0'],6,0.2848615999973845,0.4,0,AccFast,21,18,Woman,Right,
17,15,1,0.48331170000165,['n'],1,right,['0'],6,0.20139469999776338,0.4,0,AccFast,21,18,Woman,Right,
18,15,1,0.9505858000011358,['c'],1,left,['0'],6,0.3678827000003366,0.1,0,AccFast,21,18,Woman,Right,
19,15,1,1.7996635000017704,['c'],0,right,['9'],5,0.2849014999992505,0.1,0,AccFast,21,18,Woman,Right,
20,15,1,1.2165907000016887,['c'],1,left,['0'],6,0.1840914000022167,0.4,0,AccFast,21,18,Woman,Right,
21,15,1,1.2995024000010744,['c'],1,left,['1'],1,0.20103759999983595,0.2,0,AccFast,21,18,Woman,Right,
22,15,1,0.8339336000026378,['n'],1,right,['9'],5,0.21801899999991292,0.2,0,AccFast,21,18,Woman,Right,
23,15,1,1.432244299998274,['n'],0,left,['9'],5,0.15165819999674568,0.2,0,AccFast,21,18,Woman,Right,
24,15,1,1.0837357999989763,['n'],1,right,['9'],5,0.18469350000304985,0.2,0,AccFast,21,18,Woman,Right,
25,15,1,0.7839609999973618,['n'],0,left,['9'],5,0.1512180999998236,0.2,0,AccFast,21,18,Woman,Right,
26,15,1,1.016705499998352,['c'],1,left,['9'],5,0.31802149999930407,0.4,0,AccFast,21,18,Woman,Right,
27,15,1,1.0005526000022655,['n'],0,left,['9'],5,0.13514959999884013,0.1,0,AccFast,21,18,Woman,Right,
28,15,1,1.1169598000014958,['c'],1,left,['9'],5,0.20129670000096667,0.2,0,AccFast,21,18,Woman,Right,
29,15,1,1.0668186000002606,['c'],1,left,['0'],6,0.33634600000004866,0.1,0,AccFast,21,18,Woman,Right,
30,15,1,0.41724410000097123,['c'],0,right,['9'],5,0.2014099999978498,0.2,0,AccFast,21,18,Woman,Right,
31,15,1,0.567341400001169,['c'],1,left,['0'],6,0.23476030000165338,0.1,0,AccFast,21,18,Woman,Right,
32,15,1,0.350186700001359,['c'],1,left,['0'],6,0.21750289999909,0.1,0,AccFast,21,18,Woman,Right,
33,15,1,0.3505741000008129,['c'],0,right,['9'],5,0.16863290000037523,0.1,0,AccFast,21,18,Woman,Right,
34,15,1,0.6005033999972511,['n'],0,left,['9'],5,0.30211599999893224,0.2,0,AccFast,21,18,Woman,Right,
35,15,1,0.9508750999993936,['n'],1,right,['0'],6,0.2513693000000785,0.4,0,AccFast,21,18,Woman,Right,
36,15,1,0.616641399999935,['c'],0,right,['9'],5,0.2015410999993037,0.1,0,AccFast,21,18,Woman,Right,
37,15,1,0.9343311000011454,['c'],1,left,['9'],5,0.26848990000144113,0.1,0,AccFast,21,18,Woman,Right,
38,15,1,0.5993715999975393,['n'],1,right,['9'],5,0.4504158000017924,0.4,0,AccFast,21,18,Woman,Right,
39,15,1,0.7007469999989553,['n'],1,right,['9'],5,0.23300639999797568,0.4,0,AccFast,21,18,Woman,Right,
40,15,1,0.8844973000013852,['n'],1,right,['9'],5,0.9339429999999993,0.4,0,AccFast,21,18,Woman,Right,
41,15,1,0.8658524000020407,['n'],1,right,['9'],5,0.15154859999893233,0.1,0,AccFast,21,18,Woman,Right,
42,15,1,0.5172624000006181,['n'],0,left,['2'],2,0.668453900001623,0.4,0,AccFast,21,18,Woman,Right,
43,15,1,0.6005089999998745,['n'],1,right,['9'],5,0.15222559999892837,0.1,0,AccFast,21,18,Woman,Right,
44,15,1,0.6341876000005868,['n'],1,right,['9'],5,0.18471569999746862,0.4,0,AccFast,21,18,Woman,Right,
45,15,1,0.5006941999999981,['c'],1,left,['3'],3,0.3514223000020138,0.4,0,AccFast,21,18,Woman,Right,
46,15,1,0.46708960000250954,['n'],1,right,['2'],2,0.18469720000211964,0.2,0,AccFast,21,18,Woman,Right,
47,15,1,0.48380159999942407,['n'],1,right,['9'],5,1.5346389999976964,0.4,0,AccFast,21,18,Woman,Right,
48,15,1,0.715720299998793,['c'],1,left,['9'],5,0.16891550000218558,0.4,0,AccFast,21,18,Woman,Right,
49,15,1,0.6346497000013187,['n'],0,left,['9'],5,0.1681449000025168,0.1,0,AccFast,21,18,Woman,Right,
50,15,1,0.6675077999971109,['c'],1,left,['9'],5,0.30136379999748897,0.4,0,AccFast,21,18,Woman,Right,
51,15,1,0.6162666999989597,['c'],1,left,['9'],5,0.1860296999984712,0.2,0,AccFast,21,18,Woman,Right,
52,15,1,0.5002648999980011,['c'],1,left,['9'],5,0.20155430000158958,0.1,0,AccFast,21,18,Woman,Right,
53,15,1,0.6005194999997912,['c'],0,right,['2'],2,0.8344940999995742,0.2,0,AccFast,21,18,Woman,Right,
54,15,1,0.6012456999997084,['c'],1,left,['9'],5,0.2517956999981834,0.2,0,AccFast,21,18,Woman,Right,
55,15,1,0.5835767999997188,['c'],1,left,['9'],5,0.26811430000088876,0.2,0,AccFast,21,18,Woman,Right,
56,15,1,0.5340131000011752,['c'],0,right,['9'],5,0.20153299999947194,0.1,0,AccFast,21,18,Woman,Right,
57,15,1,0.6503770999988774,['c'],0,right,['9'],5,0.18485359999976936,0.4,0,AccFast,21,18,Woman,Right,
58,15,1,0.650121599999693,['c'],1,left,['9'],5,0.2673028000026534,0.2,0,AccFast,21,18,Woman,Right,
59,15,1,0.6674657999974443,['n'],1,right,['9'],5,0.18422909999935655,0.2,0,AccFast,21,18,Woman,Right,
