withinblocktrial,block,block_repetition,rt,resp,cor,cresp,conf_press,cj,rtconf,coherence,slow_trial,manipulation,sub,age,gender,handedness,
0,1,1,2.2340174999999363,['c'],0,right,none,-99,-99,0.5,0,none,19,18,Man,Right,
1,1,1,1.7176792000000205,['c'],1,left,none,-99,-99,0.5,0,none,19,18,Man,Right,
2,1,1,1.1680779000002985,['n'],1,right,none,-99,-99,0.5,0,none,19,18,Man,Right,
3,1,1,1.9503826999998637,['c'],0,right,none,-99,-99,0.5,0,none,19,18,Man,Right,
4,1,1,2.2012257999999747,['c'],1,left,none,-99,-99,0.5,0,none,19,18,Man,Right,
5,1,1,0.701334400000178,['n'],1,right,none,-99,-99,0.5,0,none,19,18,Man,Right,
6,1,1,0.5672175999998217,['c'],1,left,none,-99,-99,0.5,0,none,19,18,Man,Right,
7,1,1,0.9164159000001746,['n'],1,right,none,-99,-99,0.5,0,none,19,18,Man,Right,
8,1,1,1.133431499999915,['c'],1,left,none,-99,-99,0.5,0,none,19,18,Man,Right,
9,1,1,0.6170449999999619,['n'],1,right,none,-99,-99,0.5,0,none,19,18,Man,Right,
10,1,1,0.5506636000000071,['n'],1,right,none,-99,-99,0.5,0,none,19,18,Man,Right,
11,1,1,0.7337840000000142,['c'],1,left,none,-99,-99,0.5,0,none,19,18,Man,Right,
12,1,1,1.617957800000113,['c'],1,left,none,-99,-99,0.5,0,none,19,18,Man,Right,
13,1,1,0.6833910999998807,['n'],0,left,none,-99,-99,0.5,0,none,19,18,Man,Right,
14,1,1,0.7328594000000521,['n'],1,right,none,-99,-99,0.5,0,none,19,18,Man,Right,
15,1,1,0.650908900000104,['c'],0,right,none,-99,-99,0.5,0,none,19,18,Man,Right,
16,1,1,1.3998333999998067,['c'],1,left,none,-99,-99,0.5,0,none,19,18,Man,Right,
17,1,1,0.7680338999998639,['n'],1,right,none,-99,-99,0.5,0,none,19,18,Man,Right,
18,1,1,0.8170552000001408,['c'],1,left,none,-99,-99,0.5,0,none,19,18,Man,Right,
19,1,1,0.7344666999997571,['c'],0,right,none,-99,-99,0.5,0,none,19,18,Man,Right,
20,1,1,1.3174377000000277,['c'],0,right,none,-99,-99,0.5,0,none,19,18,Man,Right,
21,1,1,1.3676102000003993,['n'],0,left,none,-99,-99,0.5,0,none,19,18,Man,Right,
22,1,1,3.299695900000188,['n'],0,left,none,-99,-99,0.5,0,none,19,18,Man,Right,
23,1,1,1.8843354000000545,['n'],0,left,none,-99,-99,0.5,0,none,19,18,Man,Right,
0,1,2,1.3844654999998056,['c'],1,left,none,-99,-99,0.5,0,none,19,18,Man,Right,
1,1,2,0.7330037000001539,['n'],1,right,none,-99,-99,0.5,0,none,19,18,Man,Right,
2,1,2,1.3675082999998267,['c'],1,left,none,-99,-99,0.5,0,none,19,18,Man,Right,
3,1,2,1.300936399999955,['n'],0,left,none,-99,-99,0.5,0,none,19,18,Man,Right,
4,1,2,0.9338658000001487,['n'],1,right,none,-99,-99,0.5,0,none,19,18,Man,Right,
5,1,2,1.3171535999999833,['c'],0,right,none,-99,-99,0.5,0,none,19,18,Man,Right,
6,1,2,1.5684323999998924,['c'],0,right,none,-99,-99,0.5,0,none,19,18,Man,Right,
7,1,2,0.9837294999997539,['n'],0,left,none,-99,-99,0.5,0,none,19,18,Man,Right,
8,1,2,1.5174493999998049,['n'],1,right,none,-99,-99,0.5,0,none,19,18,Man,Right,
9,1,2,1.5158388999998351,['c'],0,right,none,-99,-99,0.5,0,none,19,18,Man,Right,
10,1,2,1.4332945000001018,['n'],1,right,none,-99,-99,0.5,0,none,19,18,Man,Right,
11,1,2,2.8017368999999235,['c'],1,left,none,-99,-99,0.5,0,none,19,18,Man,Right,
12,1,2,1.700359699999808,['c'],1,left,none,-99,-99,0.5,0,none,19,18,Man,Right,
13,1,2,1.0667601000000104,['n'],1,right,none,-99,-99,0.5,0,none,19,18,Man,Right,
14,1,2,0.9172539999999572,['c'],0,right,none,-99,-99,0.5,0,none,19,18,Man,Right,
15,1,2,0.8340625000000728,['n'],0,left,none,-99,-99,0.5,0,none,19,18,Man,Right,
16,1,2,2.500569799999994,['c'],0,right,none,-99,-99,0.5,0,none,19,18,Man,Right,
17,1,2,1.71535300000005,['n'],1,right,none,-99,-99,0.5,0,none,19,18,Man,Right,
18,1,2,2.333699499999966,['n'],0,left,none,-99,-99,0.5,0,none,19,18,Man,Right,
19,1,2,5.016305799999827,x,-99,left,none,-99,-99,0.5,1,none,19,18,Man,Right,
20,1,2,1.8332477999997536,['c'],0,right,none,-99,-99,0.5,0,none,19,18,Man,Right,
21,1,2,2.2177999999998974,['n'],0,left,none,-99,-99,0.5,0,none,19,18,Man,Right,
22,1,2,2.3341975000003004,['c'],1,left,none,-99,-99,0.5,0,none,19,18,Man,Right,
23,1,2,0.9673333999999159,['c'],1,left,none,-99,-99,0.5,0,none,19,18,Man,Right,
0,1,3,2.4342593999999735,['c'],0,right,none,-99,-99,0.5,0,none,19,18,Man,Right,
1,1,3,2.4830188000000817,['n'],1,right,none,-99,-99,0.5,0,none,19,18,Man,Right,
2,1,3,1.4345796000002338,['c'],1,left,none,-99,-99,0.5,0,none,19,18,Man,Right,
3,1,3,2.4174842000002172,['c'],1,left,none,-99,-99,0.5,0,none,19,18,Man,Right,
4,1,3,1.7501369000001432,['n'],0,left,none,-99,-99,0.5,0,none,19,18,Man,Right,
5,1,3,2.2658774999999878,['c'],1,left,none,-99,-99,0.5,0,none,19,18,Man,Right,
6,1,3,2.3680194999997184,['c'],1,left,none,-99,-99,0.5,0,none,19,18,Man,Right,
7,1,3,2.7183046999998624,['n'],1,right,none,-99,-99,0.5,0,none,19,18,Man,Right,
8,1,3,1.4667825000001358,['n'],1,right,none,-99,-99,0.5,0,none,19,18,Man,Right,
9,1,3,1.734521400000176,['c'],1,left,none,-99,-99,0.5,0,none,19,18,Man,Right,
10,1,3,1.7836629999997058,['n'],0,left,none,-99,-99,0.5,0,none,19,18,Man,Right,
11,1,3,1.9335894000000735,['c'],0,right,none,-99,-99,0.5,0,none,19,18,Man,Right,
12,1,3,2.1170085999997355,['n'],1,right,none,-99,-99,0.5,0,none,19,18,Man,Right,
13,1,3,2.633528800000022,['n'],0,left,none,-99,-99,0.5,0,none,19,18,Man,Right,
14,1,3,1.8503674999997202,['n'],0,left,none,-99,-99,0.5,0,none,19,18,Man,Right,
15,1,3,1.8332629000001361,['n'],0,left,none,-99,-99,0.5,0,none,19,18,Man,Right,
16,1,3,2.817029900000307,['n'],1,right,none,-99,-99,0.5,0,none,19,18,Man,Right,
17,1,3,1.783672099999876,['n'],1,right,none,-99,-99,0.5,0,none,19,18,Man,Right,
18,1,3,1.1837086000000454,['c'],0,right,none,-99,-99,0.5,0,none,19,18,Man,Right,
19,1,3,2.3850762999995823,['n'],1,right,none,-99,-99,0.5,0,none,19,18,Man,Right,
20,1,3,1.5506765000000087,['c'],1,left,none,-99,-99,0.5,0,none,19,18,Man,Right,
21,1,3,2.2840009000001373,['c'],1,left,none,-99,-99,0.5,0,none,19,18,Man,Right,
22,1,3,2.7341797999997652,['n'],1,right,none,-99,-99,0.5,0,none,19,18,Man,Right,
23,1,3,1.6010793000000376,['c'],0,right,none,-99,-99,0.5,0,none,19,18,Man,Right,
0,1,4,1.4177060000001802,['c'],0,right,none,-99,-99,0.5,0,none,19,18,Man,Right,
1,1,4,1.2837352999999894,['c'],1,left,none,-99,-99,0.5,0,none,19,18,Man,Right,
2,1,4,0.8504588999999214,['n'],1,right,none,-99,-99,0.5,0,none,19,18,Man,Right,
3,1,4,1.0504470000000765,['c'],0,right,none,-99,-99,0.5,0,none,19,18,Man,Right,
4,1,4,2.100522799999908,['c'],1,left,none,-99,-99,0.5,0,none,19,18,Man,Right,
5,1,4,1.8159806999997272,['n'],1,right,none,-99,-99,0.5,0,none,19,18,Man,Right,
6,1,4,2.502148600000055,['n'],0,left,none,-99,-99,0.5,0,none,19,18,Man,Right,
7,1,4,1.667792400000053,['n'],1,right,none,-99,-99,0.5,0,none,19,18,Man,Right,
8,1,4,2.3168875999999727,['n'],1,right,none,-99,-99,0.5,0,none,19,18,Man,Right,
9,1,4,1.8320146999999452,['c'],0,right,none,-99,-99,0.5,0,none,19,18,Man,Right,
10,1,4,2.783739699999842,['n'],0,left,none,-99,-99,0.5,0,none,19,18,Man,Right,
11,1,4,1.6507761999996546,['n'],0,left,none,-99,-99,0.5,0,none,19,18,Man,Right,
12,1,4,2.567150800000036,['c'],1,left,none,-99,-99,0.5,0,none,19,18,Man,Right,
13,1,4,1.7173074000002089,['c'],0,right,none,-99,-99,0.5,0,none,19,18,Man,Right,
14,1,4,1.968128500000148,['c'],0,right,none,-99,-99,0.5,0,none,19,18,Man,Right,
15,1,4,1.9674444999996012,['n'],0,left,none,-99,-99,0.5,0,none,19,18,Man,Right,
16,1,4,2.499843800000235,['c'],1,left,none,-99,-99,0.5,0,none,19,18,Man,Right,
17,1,4,2.7334897999999157,['n'],0,left,none,-99,-99,0.5,0,none,19,18,Man,Right,
18,1,4,3.1667551999998977,['c'],1,left,none,-99,-99,0.5,0,none,19,18,Man,Right,
19,1,4,1.2335610000000088,['n'],1,right,none,-99,-99,0.5,0,none,19,18,Man,Right,
20,1,4,2.2330220999997437,['n'],1,right,none,-99,-99,0.5,0,none,19,18,Man,Right,
21,1,4,0.8505097999995996,['c'],1,left,none,-99,-99,0.5,0,none,19,18,Man,Right,
22,1,4,1.3676800000002913,['c'],1,left,none,-99,-99,0.5,0,none,19,18,Man,Right,
23,1,4,0.9331910999999309,['n'],1,right,none,-99,-99,0.5,0,none,19,18,Man,Right,
0,1,5,2.534604599999966,['c'],0,right,none,-99,-99,0.5,0,none,19,18,Man,Right,
1,1,5,1.8502816000000166,['c'],1,left,none,-99,-99,0.5,0,none,19,18,Man,Right,
2,1,5,2.0676564000000326,['c'],0,right,none,-99,-99,0.5,0,none,19,18,Man,Right,
3,1,5,1.3337028000000828,['n'],1,right,none,-99,-99,0.5,0,none,19,18,Man,Right,
4,1,5,1.6335022000002937,['c'],1,left,none,-99,-99,0.5,0,none,19,18,Man,Right,
5,1,5,0.917731300000014,['c'],1,left,none,-99,-99,0.5,0,none,19,18,Man,Right,
6,1,5,1.9003233000003092,['n'],1,right,none,-99,-99,0.5,0,none,19,18,Man,Right,
7,1,5,0.9832919999998921,['c'],1,left,none,-99,-99,0.5,0,none,19,18,Man,Right,
8,1,5,2.050937800000156,['n'],0,left,none,-99,-99,0.5,0,none,19,18,Man,Right,
9,1,5,2.2345132000000376,['n'],1,right,none,-99,-99,0.5,0,none,19,18,Man,Right,
10,1,5,1.5678485999997065,['n'],1,right,none,-99,-99,0.5,0,none,19,18,Man,Right,
11,1,5,1.9511201000000256,['n'],1,right,none,-99,-99,0.5,0,none,19,18,Man,Right,
12,1,5,0.9836728999998741,['c'],1,left,none,-99,-99,0.5,0,none,19,18,Man,Right,
13,1,5,1.3169149000000289,['c'],0,right,none,-99,-99,0.5,0,none,19,18,Man,Right,
14,1,5,1.3838222000003952,['n'],1,right,none,-99,-99,0.5,0,none,19,18,Man,Right,
15,1,5,1.0331475999996655,['c'],1,left,none,-99,-99,0.5,0,none,19,18,Man,Right,
16,1,5,1.14984480000021,['c'],1,left,none,-99,-99,0.5,0,none,19,18,Man,Right,
17,1,5,1.1337332000002789,['c'],1,left,none,-99,-99,0.5,0,none,19,18,Man,Right,
18,1,5,1.483158000000003,['n'],0,left,none,-99,-99,0.5,0,none,19,18,Man,Right,
19,1,5,1.3345996000002742,['c'],0,right,none,-99,-99,0.5,0,none,19,18,Man,Right,
20,1,5,0.9675904000000628,['n'],1,right,none,-99,-99,0.5,0,none,19,18,Man,Right,
21,1,5,0.9005196000002798,['c'],0,right,none,-99,-99,0.5,0,none,19,18,Man,Right,
22,1,5,2.284130499999719,['c'],1,left,none,-99,-99,0.5,0,none,19,18,Man,Right,
23,1,5,1.4683105999997679,['c'],1,left,none,-99,-99,0.5,0,none,19,18,Man,Right,
0,1,6,1.4667268000002878,['c'],1,left,none,-99,-99,0.5,0,none,19,18,Man,Right,
1,1,6,1.516607500000191,['c'],0,right,none,-99,-99,0.5,0,none,19,18,Man,Right,
2,1,6,2.1842266999997264,['c'],0,right,none,-99,-99,0.5,0,none,19,18,Man,Right,
3,1,6,0.8344538999999713,['n'],1,right,none,-99,-99,0.5,0,none,19,18,Man,Right,
4,1,6,1.6668313000000126,['n'],0,left,none,-99,-99,0.5,0,none,19,18,Man,Right,
5,1,6,1.217406199999914,['n'],1,right,none,-99,-99,0.5,0,none,19,18,Man,Right,
6,1,6,0.8179947000003267,['c'],0,right,none,-99,-99,0.5,0,none,19,18,Man,Right,
7,1,6,0.9172152000001006,['c'],1,left,none,-99,-99,0.5,0,none,19,18,Man,Right,
8,1,6,0.7996772000001329,['c'],0,right,none,-99,-99,0.5,0,none,19,18,Man,Right,
9,1,6,1.116442399999869,['c'],1,left,none,-99,-99,0.5,0,none,19,18,Man,Right,
10,1,6,1.0339468999995916,['n'],0,left,none,-99,-99,0.5,0,none,19,18,Man,Right,
11,1,6,1.5666519000001244,['c'],0,right,none,-99,-99,0.5,0,none,19,18,Man,Right,
12,1,6,1.4178240000001097,['c'],1,left,none,-99,-99,0.5,0,none,19,18,Man,Right,
13,1,6,1.3172747000003255,['n'],1,right,none,-99,-99,0.5,0,none,19,18,Man,Right,
14,1,6,1.00008360000038,['n'],0,left,none,-99,-99,0.5,0,none,19,18,Man,Right,
15,1,6,1.3324754999998731,['n'],1,right,none,-99,-99,0.5,0,none,19,18,Man,Right,
16,1,6,1.9511112999998659,['c'],1,left,none,-99,-99,0.5,0,none,19,18,Man,Right,
17,1,6,1.4336687999998503,['c'],0,right,none,-99,-99,0.5,0,none,19,18,Man,Right,
18,1,6,0.7514748000003237,['n'],0,left,none,-99,-99,0.5,0,none,19,18,Man,Right,
19,1,6,0.7174399000000449,['c'],1,left,none,-99,-99,0.5,0,none,19,18,Man,Right,
20,1,6,0.9180880999997498,['c'],1,left,none,-99,-99,0.5,0,none,19,18,Man,Right,
21,1,6,1.833016200000202,['c'],1,left,none,-99,-99,0.5,0,none,19,18,Man,Right,
22,1,6,1.1850158999995983,['n'],1,right,none,-99,-99,0.5,0,none,19,18,Man,Right,
23,1,6,0.7177731000001586,['n'],1,right,none,-99,-99,0.5,0,none,19,18,Man,Right,
0,1,7,1.9674069999991843,['n'],1,right,none,-99,-99,0.5,0,none,19,18,Man,Right,
1,1,7,1.4006065000003218,['c'],1,left,none,-99,-99,0.5,0,none,19,18,Man,Right,
2,1,7,1.7337303000003885,['n'],1,right,none,-99,-99,0.5,0,none,19,18,Man,Right,
3,1,7,1.266527299999325,['n'],1,right,none,-99,-99,0.5,0,none,19,18,Man,Right,
4,1,7,2.650746700000127,['n'],1,right,none,-99,-99,0.5,0,none,19,18,Man,Right,
5,1,7,1.9171612000000096,['c'],0,right,none,-99,-99,0.5,0,none,19,18,Man,Right,
6,1,7,0.968163800000184,['c'],1,left,none,-99,-99,0.5,0,none,19,18,Man,Right,
7,1,7,2.016978499999823,['n'],0,left,none,-99,-99,0.5,0,none,19,18,Man,Right,
8,1,7,2.0336096999999427,['n'],0,left,none,-99,-99,0.5,0,none,19,18,Man,Right,
9,1,7,1.650633000000198,['c'],1,left,none,-99,-99,0.5,0,none,19,18,Man,Right,
10,1,7,0.6183172000000923,['n'],1,right,none,-99,-99,0.5,0,none,19,18,Man,Right,
11,1,7,1.6005205999999816,['n'],1,right,none,-99,-99,0.5,0,none,19,18,Man,Right,
12,1,7,0.8344161999993958,['n'],1,right,none,-99,-99,0.5,0,none,19,18,Man,Right,
13,1,7,0.6006510999995953,['n'],0,left,none,-99,-99,0.5,0,none,19,18,Man,Right,
14,1,7,2.267206100000294,['n'],1,right,none,-99,-99,0.5,0,none,19,18,Man,Right,
15,1,7,2.9511548999998922,['n'],1,right,none,-99,-99,0.5,0,none,19,18,Man,Right,
16,1,7,1.9322635999997146,['c'],0,right,none,-99,-99,0.5,0,none,19,18,Man,Right,
17,1,7,0.9999555000003966,['c'],1,left,none,-99,-99,0.5,0,none,19,18,Man,Right,
18,1,7,1.4845955000000686,['c'],1,left,none,-99,-99,0.5,0,none,19,18,Man,Right,
19,1,7,1.233317100000022,['c'],1,left,none,-99,-99,0.5,0,none,19,18,Man,Right,
20,1,7,0.8171189000004233,['n'],0,left,none,-99,-99,0.5,0,none,19,18,Man,Right,
21,1,7,0.8013687000002392,['n'],1,right,none,-99,-99,0.5,0,none,19,18,Man,Right,
22,1,7,0.7502743000004557,['n'],0,left,none,-99,-99,0.5,0,none,19,18,Man,Right,
23,1,7,1.3346369999999297,['n'],0,left,none,-99,-99,0.5,0,none,19,18,Man,Right,
0,1,8,1.9011866999999256,['c'],1,left,none,-99,-99,0.5,0,none,19,18,Man,Right,
1,1,8,0.8168986000000587,['n'],1,right,none,-99,-99,0.5,0,none,19,18,Man,Right,
2,1,8,1.033752999999706,['c'],1,left,none,-99,-99,0.5,0,none,19,18,Man,Right,
3,1,8,1.1004272000000128,['n'],1,right,none,-99,-99,0.5,0,none,19,18,Man,Right,
4,1,8,0.7004723999998532,['c'],0,right,none,-99,-99,0.5,0,none,19,18,Man,Right,
5,1,8,1.3017580000005182,['c'],1,left,none,-99,-99,0.5,0,none,19,18,Man,Right,
6,1,8,3.1011985000004643,['c'],1,left,none,-99,-99,0.5,0,none,19,18,Man,Right,
7,1,8,3.1671378000000914,['c'],0,right,none,-99,-99,0.5,0,none,19,18,Man,Right,
8,1,8,1.3679345000000467,['c'],0,right,none,-99,-99,0.5,0,none,19,18,Man,Right,
9,1,8,2.7508435999998255,['n'],0,left,none,-99,-99,0.5,0,none,19,18,Man,Right,
10,1,8,1.5178286999998818,['c'],0,right,none,-99,-99,0.5,0,none,19,18,Man,Right,
11,1,8,2.6672115000001213,['n'],0,left,none,-99,-99,0.5,0,none,19,18,Man,Right,
12,1,8,0.6998610999999073,['c'],0,right,none,-99,-99,0.5,0,none,19,18,Man,Right,
13,1,8,1.384027299999616,['n'],0,left,none,-99,-99,0.5,0,none,19,18,Man,Right,
14,1,8,1.066754000000401,['n'],0,left,none,-99,-99,0.5,0,none,19,18,Man,Right,
15,1,8,1.8347444999999425,['n'],1,right,none,-99,-99,0.5,0,none,19,18,Man,Right,
16,1,8,1.9665377999999691,['n'],0,left,none,-99,-99,0.5,0,none,19,18,Man,Right,
17,1,8,3.4179432999999335,['c'],1,left,none,-99,-99,0.5,0,none,19,18,Man,Right,
18,1,8,2.5003886999993483,['n'],0,left,none,-99,-99,0.5,0,none,19,18,Man,Right,
19,1,8,2.9339780000000246,['n'],1,right,none,-99,-99,0.5,0,none,19,18,Man,Right,
20,1,8,1.3002847999996447,['c'],0,right,none,-99,-99,0.5,0,none,19,18,Man,Right,
21,1,8,1.3827805999999327,['c'],0,right,none,-99,-99,0.5,0,none,19,18,Man,Right,
22,1,8,2.350111800000377,['c'],0,right,none,-99,-99,0.5,0,none,19,18,Man,Right,
23,1,8,1.9496960000005856,['n'],0,left,none,-99,-99,0.5,0,none,19,18,Man,Right,
0,1,9,0.8842955999998594,['n'],0,left,none,-99,-99,0.5,0,none,19,18,Man,Right,
1,1,9,1.517032400000062,['n'],1,right,none,-99,-99,0.5,0,none,19,18,Man,Right,
2,1,9,2.2507965000004333,['c'],1,left,none,-99,-99,0.5,0,none,19,18,Man,Right,
3,1,9,1.2010771000004752,['n'],0,left,none,-99,-99,0.5,0,none,19,18,Man,Right,
4,1,9,2.383738199999243,['n'],0,left,none,-99,-99,0.5,0,none,19,18,Man,Right,
5,1,9,2.083524800000305,['c'],1,left,none,-99,-99,0.5,0,none,19,18,Man,Right,
6,1,9,1.4836655999997674,['c'],1,left,none,-99,-99,0.5,0,none,19,18,Man,Right,
7,1,9,1.3501764999991792,['c'],1,left,none,-99,-99,0.5,0,none,19,18,Man,Right,
8,1,9,1.500176300000021,['n'],1,right,none,-99,-99,0.5,0,none,19,18,Man,Right,
9,1,9,2.299503299999742,['c'],1,left,none,-99,-99,0.5,0,none,19,18,Man,Right,
10,1,9,1.4347720999994635,['n'],1,right,none,-99,-99,0.5,0,none,19,18,Man,Right,
11,1,9,2.350974199999655,['n'],1,right,none,-99,-99,0.5,0,none,19,18,Man,Right,
12,1,9,0.8170685999994021,['n'],1,right,none,-99,-99,0.5,0,none,19,18,Man,Right,
13,1,9,2.1153022000007695,['c'],0,right,none,-99,-99,0.5,0,none,19,18,Man,Right,
14,1,9,1.285725800000364,['c'],0,right,none,-99,-99,0.5,0,none,19,18,Man,Right,
15,1,9,1.2669860999994853,['n'],0,left,none,-99,-99,0.5,0,none,19,18,Man,Right,
16,1,9,0.8315019000001485,['c'],0,right,none,-99,-99,0.5,0,none,19,18,Man,Right,
17,1,9,0.9680666999993264,['c'],1,left,none,-99,-99,0.5,0,none,19,18,Man,Right,
18,1,9,1.5493327999993198,['n'],1,right,none,-99,-99,0.5,0,none,19,18,Man,Right,
19,1,9,1.5349054000007527,['n'],1,right,none,-99,-99,0.5,0,none,19,18,Man,Right,
20,1,9,1.9161357999992106,['c'],1,left,none,-99,-99,0.5,0,none,19,18,Man,Right,
21,1,9,1.6173055999997814,['c'],0,right,none,-99,-99,0.5,0,none,19,18,Man,Right,
22,1,9,1.2341850000002523,['n'],0,left,none,-99,-99,0.5,0,none,19,18,Man,Right,
23,1,9,2.1518026000003374,['c'],0,right,none,-99,-99,0.5,0,none,19,18,Man,Right,
0,1,10,1.199891100000059,['n'],1,right,none,-99,-99,0.5,0,none,19,18,Man,Right,
1,1,10,1.9843620000001465,['n'],1,right,none,-99,-99,0.5,0,none,19,18,Man,Right,
2,1,10,2.865376599999763,['n'],1,right,none,-99,-99,0.5,0,none,19,18,Man,Right,
3,1,10,3.168612200000098,['c'],1,left,none,-99,-99,0.5,0,none,19,18,Man,Right,
4,1,10,2.7999030999999377,['n'],1,right,none,-99,-99,0.5,0,none,19,18,Man,Right,
5,1,10,2.4658159999999043,['c'],1,left,none,-99,-99,0.5,0,none,19,18,Man,Right,
6,1,10,3.0331510000005437,['c'],1,left,none,-99,-99,0.5,0,none,19,18,Man,Right,
7,1,10,4.316525500000353,['c'],0,right,none,-99,-99,0.5,0,none,19,18,Man,Right,
8,1,10,2.96708899999976,['n'],0,left,none,-99,-99,0.5,0,none,19,18,Man,Right,
9,1,10,2.799704799999745,['c'],1,left,none,-99,-99,0.5,0,none,19,18,Man,Right,
10,1,10,2.667074099999809,['c'],0,right,none,-99,-99,0.5,0,none,19,18,Man,Right,
11,1,10,2.2159222999998747,['c'],0,right,none,-99,-99,0.5,0,none,19,18,Man,Right,
12,1,10,3.9327260000000024,['c'],1,left,none,-99,-99,0.5,0,none,19,18,Man,Right,
13,1,10,2.3358705000000555,['n'],0,left,none,-99,-99,0.5,0,none,19,18,Man,Right,
14,1,10,1.7998241999994207,['n'],1,right,none,-99,-99,0.5,0,none,19,18,Man,Right,
15,1,10,1.6834993000002214,['c'],1,left,none,-99,-99,0.5,0,none,19,18,Man,Right,
16,1,10,3.799375799999325,['c'],1,left,none,-99,-99,0.5,0,none,19,18,Man,Right,
17,1,10,3.648477799999455,['c'],0,right,none,-99,-99,0.5,0,none,19,18,Man,Right,
18,1,10,2.532805000000735,['n'],1,right,none,-99,-99,0.5,0,none,19,18,Man,Right,
19,1,10,3.5153231999993295,['c'],1,left,none,-99,-99,0.5,0,none,19,18,Man,Right,
20,1,10,3.017465799999627,['c'],0,right,none,-99,-99,0.5,0,none,19,18,Man,Right,
21,1,10,1.5335838000000876,['c'],1,left,none,-99,-99,0.5,0,none,19,18,Man,Right,
22,1,10,0.766992100000607,['n'],1,right,none,-99,-99,0.5,0,none,19,18,Man,Right,
23,1,10,2.0678022000001874,['c'],1,left,none,-99,-99,0.5,0,none,19,18,Man,Right,
0,1,11,1.4654983999998876,['c'],1,left,none,-99,-99,0.5,0,none,19,18,Man,Right,
1,1,11,1.3330595999996149,['c'],1,left,none,-99,-99,0.5,0,none,19,18,Man,Right,
2,1,11,2.149344600000404,['n'],1,right,none,-99,-99,0.5,0,none,19,18,Man,Right,
3,1,11,1.8999567999999272,['n'],1,right,none,-99,-99,0.5,0,none,19,18,Man,Right,
4,1,11,0.8503502000003209,['n'],1,right,none,-99,-99,0.5,0,none,19,18,Man,Right,
5,1,11,2.2680476000005,['c'],1,left,none,-99,-99,0.5,0,none,19,18,Man,Right,
6,1,11,1.6336307000001398,['c'],1,left,none,-99,-99,0.5,0,none,19,18,Man,Right,
7,1,11,1.667583000000377,['n'],0,left,none,-99,-99,0.5,0,none,19,18,Man,Right,
8,1,11,1.2677593999997043,['n'],1,right,none,-99,-99,0.5,0,none,19,18,Man,Right,
9,1,11,1.667409900000166,['n'],0,left,none,-99,-99,0.5,0,none,19,18,Man,Right,
10,1,11,2.1512140000004365,['c'],0,right,none,-99,-99,0.5,0,none,19,18,Man,Right,
11,1,11,2.8165177000000767,['n'],1,right,none,-99,-99,0.5,0,none,19,18,Man,Right,
12,1,11,1.9670335000000705,['n'],0,left,none,-99,-99,0.5,0,none,19,18,Man,Right,
13,1,11,1.6166615000001912,['n'],1,right,none,-99,-99,0.5,0,none,19,18,Man,Right,
14,1,11,1.9178886999998213,['c'],0,right,none,-99,-99,0.5,0,none,19,18,Man,Right,
15,1,11,1.9336381000002802,['n'],0,left,none,-99,-99,0.5,0,none,19,18,Man,Right,
16,1,11,2.00119739999991,['n'],0,left,none,-99,-99,0.5,0,none,19,18,Man,Right,
17,1,11,1.0175218999993376,['n'],1,right,none,-99,-99,0.5,0,none,19,18,Man,Right,
18,1,11,0.9836918999999398,['n'],1,right,none,-99,-99,0.5,0,none,19,18,Man,Right,
19,1,11,1.0333782999996401,['c'],0,right,none,-99,-99,0.5,0,none,19,18,Man,Right,
20,1,11,1.1169671999996353,['n'],0,left,none,-99,-99,0.5,0,none,19,18,Man,Right,
21,1,11,2.0170491999997466,['n'],1,right,none,-99,-99,0.5,0,none,19,18,Man,Right,
22,1,11,2.3335501999999906,['c'],1,left,none,-99,-99,0.5,0,none,19,18,Man,Right,
23,1,11,3.1509257999996407,['n'],0,left,none,-99,-99,0.5,0,none,19,18,Man,Right,
0,1,12,0.9177880999995978,['c'],0,right,none,-99,-99,0.5,0,none,19,18,Man,Right,
1,1,12,0.7335603999999876,['c'],0,right,none,-99,-99,0.5,0,none,19,18,Man,Right,
2,1,12,0.03405339999972057,['c'],1,left,none,-99,-99,0.5,0,none,19,18,Man,Right,
3,1,12,1.0505998999997246,['n'],1,right,none,-99,-99,0.5,0,none,19,18,Man,Right,
4,1,12,0.8677787000005992,['n'],0,left,none,-99,-99,0.5,0,none,19,18,Man,Right,
5,1,12,1.1823641000000862,['c'],0,right,none,-99,-99,0.5,0,none,19,18,Man,Right,
6,1,12,2.7839891000003263,['n'],0,left,none,-99,-99,0.5,0,none,19,18,Man,Right,
7,1,12,2.317573600000287,['n'],0,left,none,-99,-99,0.5,0,none,19,18,Man,Right,
8,1,12,3.1500567000002775,['c'],0,right,none,-99,-99,0.5,0,none,19,18,Man,Right,
9,1,12,3.8676332999993974,['c'],0,right,none,-99,-99,0.5,0,none,19,18,Man,Right,
10,1,12,1.084402599999521,['c'],1,left,none,-99,-99,0.5,0,none,19,18,Man,Right,
11,1,12,0.9666200000001481,['n'],1,right,none,-99,-99,0.5,0,none,19,18,Man,Right,
12,1,12,2.000404200000048,['n'],1,right,none,-99,-99,0.5,0,none,19,18,Man,Right,
13,1,12,3.4670180999992226,['c'],0,right,none,-99,-99,0.5,0,none,19,18,Man,Right,
14,1,12,0.8678228999997373,['c'],1,left,none,-99,-99,0.5,0,none,19,18,Man,Right,
15,1,12,2.83418520000032,['n'],0,left,none,-99,-99,0.5,0,none,19,18,Man,Right,
16,1,12,2.200836399999389,['c'],0,right,none,-99,-99,0.5,0,none,19,18,Man,Right,
17,1,12,1.3669988999999987,['c'],1,left,none,-99,-99,0.5,0,none,19,18,Man,Right,
18,1,12,1.050363400000606,['n'],1,right,none,-99,-99,0.5,0,none,19,18,Man,Right,
19,1,12,1.450343299999986,['c'],1,left,none,-99,-99,0.5,0,none,19,18,Man,Right,
20,1,12,2.116417999999612,['c'],1,left,none,-99,-99,0.5,0,none,19,18,Man,Right,
21,1,12,1.2995434000004025,['n'],1,right,none,-99,-99,0.5,0,none,19,18,Man,Right,
22,1,12,3.5982348999996248,['c'],1,left,none,-99,-99,0.5,0,none,19,18,Man,Right,
23,1,12,1.9827900000000227,['c'],1,left,none,-99,-99,0.5,0,none,19,18,Man,Right,
0,1,13,1.2330769999998665,['n'],0,left,none,-99,-99,0.5,0,none,19,18,Man,Right,
1,1,13,2.484055200000512,['c'],1,left,none,-99,-99,0.5,0,none,19,18,Man,Right,
2,1,13,2.148981499999536,['c'],1,left,none,-99,-99,0.5,0,none,19,18,Man,Right,
3,1,13,2.0174913000000743,['n'],1,right,none,-99,-99,0.5,0,none,19,18,Man,Right,
4,1,13,2.766215800000282,['n'],1,right,none,-99,-99,0.5,0,none,19,18,Man,Right,
5,1,13,2.6674603999999817,['n'],0,left,none,-99,-99,0.5,0,none,19,18,Man,Right,
6,1,13,2.9828206000001956,['c'],1,left,none,-99,-99,0.5,0,none,19,18,Man,Right,
7,1,13,2.266236299999946,['n'],1,right,none,-99,-99,0.5,0,none,19,18,Man,Right,
8,1,13,2.433418900000106,['n'],1,right,none,-99,-99,0.5,0,none,19,18,Man,Right,
9,1,13,1.2832181000003402,['c'],1,left,none,-99,-99,0.5,0,none,19,18,Man,Right,
10,1,13,3.4843676000000414,['c'],1,left,none,-99,-99,0.5,0,none,19,18,Man,Right,
11,1,13,3.3503977999998824,['c'],1,left,none,-99,-99,0.5,0,none,19,18,Man,Right,
12,1,13,2.15091559999928,['c'],1,left,none,-99,-99,0.5,0,none,19,18,Man,Right,
13,1,13,1.8332048000002032,['c'],0,right,none,-99,-99,0.5,0,none,19,18,Man,Right,
14,1,13,3.183356399999866,['c'],0,right,none,-99,-99,0.5,0,none,19,18,Man,Right,
15,1,13,1.234096799999861,['n'],1,right,none,-99,-99,0.5,0,none,19,18,Man,Right,
16,1,13,0.8663441999997303,['c'],1,left,none,-99,-99,0.5,0,none,19,18,Man,Right,
17,1,13,0.6001328000002104,['n'],1,right,none,-99,-99,0.5,0,none,19,18,Man,Right,
18,1,13,0.9003251000003729,['c'],1,left,none,-99,-99,0.5,0,none,19,18,Man,Right,
19,1,13,2.1671259000004284,['c'],1,left,none,-99,-99,0.5,0,none,19,18,Man,Right,
20,1,13,0.85061609999957,['n'],1,right,none,-99,-99,0.5,0,none,19,18,Man,Right,
21,1,13,0.9172061999997823,['c'],0,right,none,-99,-99,0.5,0,none,19,18,Man,Right,
22,1,13,0.8981217999998989,['n'],1,right,none,-99,-99,0.5,0,none,19,18,Man,Right,
23,1,13,0.5838419000001522,['n'],1,right,none,-99,-99,0.5,0,none,19,18,Man,Right,
0,1,14,1.201108799999929,['n'],1,right,none,-99,-99,0.5,0,none,19,18,Man,Right,
1,1,14,0.5669787999995606,['n'],0,left,none,-99,-99,0.5,0,none,19,18,Man,Right,
2,1,14,1.4836480000003576,['n'],0,left,none,-99,-99,0.5,0,none,19,18,Man,Right,
3,1,14,0.7505827999993926,['n'],0,left,none,-99,-99,0.5,0,none,19,18,Man,Right,
4,1,14,1.284429100000125,['n'],1,right,none,-99,-99,0.5,0,none,19,18,Man,Right,
5,1,14,0.6000544000007721,['c'],1,left,none,-99,-99,0.5,0,none,19,18,Man,Right,
6,1,14,0.8175311000004513,['c'],1,left,none,-99,-99,0.5,0,none,19,18,Man,Right,
7,1,14,0.5832867999997688,['c'],0,right,none,-99,-99,0.5,0,none,19,18,Man,Right,
8,1,14,0.7335683000001154,['c'],1,left,none,-99,-99,0.5,0,none,19,18,Man,Right,
9,1,14,0.6674039999998058,['n'],1,right,none,-99,-99,0.5,0,none,19,18,Man,Right,
10,1,14,0.949789399999645,['c'],1,left,none,-99,-99,0.5,0,none,19,18,Man,Right,
11,1,14,0.834545500000786,['n'],1,right,none,-99,-99,0.5,0,none,19,18,Man,Right,
12,1,14,2.1673485000001165,['c'],1,left,none,-99,-99,0.5,0,none,19,18,Man,Right,
13,1,14,1.3003981000001659,['c'],1,left,none,-99,-99,0.5,0,none,19,18,Man,Right,
14,1,14,1.9338890999997602,['c'],0,right,none,-99,-99,0.5,0,none,19,18,Man,Right,
15,1,14,1.9664165000003777,['n'],0,left,none,-99,-99,0.5,0,none,19,18,Man,Right,
16,1,14,1.9665815999996994,['c'],0,right,none,-99,-99,0.5,0,none,19,18,Man,Right,
17,1,14,1.8181316000000152,['c'],0,right,none,-99,-99,0.5,0,none,19,18,Man,Right,
18,1,14,1.50041549999969,['n'],1,right,none,-99,-99,0.5,0,none,19,18,Man,Right,
19,1,14,0.8835996000007071,['c'],1,left,none,-99,-99,0.5,0,none,19,18,Man,Right,
20,1,14,0.8506477999999333,['c'],0,right,none,-99,-99,0.5,0,none,19,18,Man,Right,
21,1,14,1.033821999999418,['n'],0,left,none,-99,-99,0.5,0,none,19,18,Man,Right,
22,1,14,0.899790600000415,['c'],0,right,none,-99,-99,0.5,0,none,19,18,Man,Right,
23,1,14,0.6666183999996065,['c'],0,right,none,-99,-99,0.5,0,none,19,18,Man,Right,
0,1,15,3.984027900000001,['c'],1,left,none,-99,-99,0.5,0,none,19,18,Man,Right,
1,1,15,0.7839296000001923,['c'],1,left,none,-99,-99,0.5,0,none,19,18,Man,Right,
2,1,15,1.2179759999999078,['c'],1,left,none,-99,-99,0.5,0,none,19,18,Man,Right,
3,1,15,1.2841311000001951,['n'],1,right,none,-99,-99,0.5,0,none,19,18,Man,Right,
4,1,15,1.4506439999995564,['n'],0,left,none,-99,-99,0.5,0,none,19,18,Man,Right,
5,1,15,1.017080700000406,['n'],0,left,none,-99,-99,0.5,0,none,19,18,Man,Right,
6,1,15,0.7181068999998388,['n'],1,right,none,-99,-99,0.5,0,none,19,18,Man,Right,
7,1,15,0.8506747999999789,['c'],1,left,none,-99,-99,0.5,0,none,19,18,Man,Right,
8,1,15,1.101261699999668,['n'],1,right,none,-99,-99,0.5,0,none,19,18,Man,Right,
9,1,15,1.8175357000000076,['c'],1,left,none,-99,-99,0.5,0,none,19,18,Man,Right,
10,1,15,0.6997456999997667,['n'],1,right,none,-99,-99,0.5,0,none,19,18,Man,Right,
11,1,15,0.8010148000003028,['n'],1,right,none,-99,-99,0.5,0,none,19,18,Man,Right,
12,1,15,0.6512848000002123,['n'],1,right,none,-99,-99,0.5,0,none,19,18,Man,Right,
13,1,15,0.6512527000004411,['n'],1,right,none,-99,-99,0.5,0,none,19,18,Man,Right,
14,1,15,0.7003542000002199,['c'],1,left,none,-99,-99,0.5,0,none,19,18,Man,Right,
15,1,15,0.6331351999997423,['n'],0,left,none,-99,-99,0.5,0,none,19,18,Man,Right,
16,1,15,0.5679406999997809,['c'],1,left,none,-99,-99,0.5,0,none,19,18,Man,Right,
17,1,15,1.0503667000002679,['n'],1,right,none,-99,-99,0.5,0,none,19,18,Man,Right,
18,1,15,0.766873100000339,['n'],1,right,none,-99,-99,0.5,0,none,19,18,Man,Right,
19,1,15,0.7673777999998492,['n'],1,right,none,-99,-99,0.5,0,none,19,18,Man,Right,
20,1,15,1.218047800000022,['n'],0,left,none,-99,-99,0.5,0,none,19,18,Man,Right,
21,1,15,1.6010078999997859,['n'],0,left,none,-99,-99,0.5,0,none,19,18,Man,Right,
22,1,15,0.6850394999992204,['c'],0,right,none,-99,-99,0.5,0,none,19,18,Man,Right,
23,1,15,0.7010321000007025,['n'],1,right,none,-99,-99,0.5,0,none,19,18,Man,Right,
0,1,16,1.2177381000001333,['c'],0,right,none,-99,-99,0.5,0,none,19,18,Man,Right,
1,1,16,0.6842532999999094,['c'],1,left,none,-99,-99,0.5,0,none,19,18,Man,Right,
2,1,16,0.5997839000001477,['n'],1,right,none,-99,-99,0.5,0,none,19,18,Man,Right,
3,1,16,0.5346390999993673,['c'],0,right,none,-99,-99,0.5,0,none,19,18,Man,Right,
4,1,16,0.616908400000284,['n'],1,right,none,-99,-99,0.5,0,none,19,18,Man,Right,
5,1,16,0.8335182000000714,['c'],1,left,none,-99,-99,0.5,0,none,19,18,Man,Right,
6,1,16,0.6664879999998448,['n'],1,right,none,-99,-99,0.5,0,none,19,18,Man,Right,
7,1,16,0.5836222999996608,['c'],1,left,none,-99,-99,0.5,0,none,19,18,Man,Right,
8,1,16,0.751473199999964,['c'],1,left,none,-99,-99,0.5,0,none,19,18,Man,Right,
9,1,16,0.601545200000146,['n'],0,left,none,-99,-99,0.5,0,none,19,18,Man,Right,
10,1,16,0.29951269999946817,['c'],0,right,none,-99,-99,0.5,0,none,19,18,Man,Right,
11,1,16,0.9342666000002282,['c'],1,left,none,-99,-99,0.5,0,none,19,18,Man,Right,
12,1,16,0.6175729999995383,['n'],1,right,none,-99,-99,0.5,0,none,19,18,Man,Right,
13,1,16,0.4668499999997948,['c'],1,left,none,-99,-99,0.5,0,none,19,18,Man,Right,
14,1,16,0.8494193000005907,['n'],0,left,none,-99,-99,0.5,0,none,19,18,Man,Right,
15,1,16,0.7010878999999477,['n'],1,right,none,-99,-99,0.5,0,none,19,18,Man,Right,
16,1,16,0.9012296000000788,['c'],1,left,none,-99,-99,0.5,0,none,19,18,Man,Right,
17,1,16,0.7012379999996483,['c'],1,left,none,-99,-99,0.5,0,none,19,18,Man,Right,
18,1,16,0.5494864999991478,['n'],1,right,none,-99,-99,0.5,0,none,19,18,Man,Right,
19,1,16,1.384553799999594,['c'],1,left,none,-99,-99,0.5,0,none,19,18,Man,Right,
20,1,16,0.8681088999992426,['n'],1,right,none,-99,-99,0.5,0,none,19,18,Man,Right,
21,1,16,0.9512556999998196,['n'],1,right,none,-99,-99,0.5,0,none,19,18,Man,Right,
22,1,16,0.5838211999998748,['c'],1,left,none,-99,-99,0.5,0,none,19,18,Man,Right,
23,1,16,0.6512494000007791,['n'],1,right,none,-99,-99,0.5,0,none,19,18,Man,Right,
0,1,17,0.6350842000001649,['n'],0,left,none,-99,-99,0.5,0,none,19,18,Man,Right,
1,1,17,0.40121129999988625,['n'],1,right,none,-99,-99,0.5,0,none,19,18,Man,Right,
2,1,17,0.43379559999993944,['n'],0,left,none,-99,-99,0.5,0,none,19,18,Man,Right,
3,1,17,0.4339769999996861,['c'],0,right,none,-99,-99,0.5,0,none,19,18,Man,Right,
4,1,17,0.38398509999933594,['n'],1,right,none,-99,-99,0.5,0,none,19,18,Man,Right,
5,1,17,0.43450490000032005,['n'],1,right,none,-99,-99,0.5,0,none,19,18,Man,Right,
6,1,17,0.5679675000001225,['n'],1,right,none,-99,-99,0.5,0,none,19,18,Man,Right,
7,1,17,0.7333596999997098,['n'],0,left,none,-99,-99,0.5,0,none,19,18,Man,Right,
8,1,17,0.36772860000019136,['n'],1,right,none,-99,-99,0.5,0,none,19,18,Man,Right,
9,1,17,0.5178353000001152,['n'],1,right,none,-99,-99,0.5,0,none,19,18,Man,Right,
10,1,17,0.3842233999994278,['n'],0,left,none,-99,-99,0.5,0,none,19,18,Man,Right,
11,1,17,0.3840096000003541,['c'],1,left,none,-99,-99,0.5,0,none,19,18,Man,Right,
12,1,17,0.6999217000002318,['c'],1,left,none,-99,-99,0.5,0,none,19,18,Man,Right,
13,1,17,0.5339217000000644,['n'],0,left,none,-99,-99,0.5,0,none,19,18,Man,Right,
14,1,17,0.350427899999886,['c'],0,right,none,-99,-99,0.5,0,none,19,18,Man,Right,
15,1,17,1.5171845000004396,['c'],1,left,none,-99,-99,0.5,0,none,19,18,Man,Right,
16,1,17,0.48365929999999935,['c'],0,right,none,-99,-99,0.5,0,none,19,18,Man,Right,
17,1,17,0.5511415000000852,['n'],1,right,none,-99,-99,0.5,0,none,19,18,Man,Right,
18,1,17,0.6825069000005897,['c'],1,left,none,-99,-99,0.5,0,none,19,18,Man,Right,
19,1,17,0.3504493000000366,['n'],0,left,none,-99,-99,0.5,0,none,19,18,Man,Right,
20,1,17,0.38383560000056605,['c'],1,left,none,-99,-99,0.5,0,none,19,18,Man,Right,
21,1,17,0.6004173999999693,['c'],1,left,none,-99,-99,0.5,0,none,19,18,Man,Right,
22,1,17,0.5508460000000923,['c'],0,right,none,-99,-99,0.5,0,none,19,18,Man,Right,
23,1,17,0.5820255999997244,['c'],0,right,none,-99,-99,0.5,0,none,19,18,Man,Right,
0,1,18,0.652470799999719,['c'],1,left,none,-99,-99,0.5,0,none,19,18,Man,Right,
1,1,18,0.7163215000000491,['n'],1,right,none,-99,-99,0.5,0,none,19,18,Man,Right,
2,1,18,0.950449199999639,['n'],1,right,none,-99,-99,0.5,0,none,19,18,Man,Right,
3,1,18,1.1346407999999428,['c'],1,left,none,-99,-99,0.5,0,none,19,18,Man,Right,
4,1,18,0.8011067999996158,['n'],1,right,none,-99,-99,0.5,0,none,19,18,Man,Right,
5,1,18,0.6167814000000362,['c'],0,right,none,-99,-99,0.5,0,none,19,18,Man,Right,
6,1,18,0.5340381999994861,['n'],1,right,none,-99,-99,0.5,0,none,19,18,Man,Right,
7,1,18,2.9501414000005752,['c'],1,left,none,-99,-99,0.5,0,none,19,18,Man,Right,
8,1,18,1.3490781999998944,['n'],0,left,none,-99,-99,0.5,0,none,19,18,Man,Right,
9,1,18,1.6506192000006195,['c'],0,right,none,-99,-99,0.5,0,none,19,18,Man,Right,
10,1,18,0.7339570000003732,['n'],1,right,none,-99,-99,0.5,0,none,19,18,Man,Right,
11,1,18,0.4001895000001241,['n'],0,left,none,-99,-99,0.5,0,none,19,18,Man,Right,
12,1,18,0.6665325000003577,['c'],1,left,none,-99,-99,0.5,0,none,19,18,Man,Right,
13,1,18,0.584839699999975,['n'],1,right,none,-99,-99,0.5,0,none,19,18,Man,Right,
14,1,18,0.8170549999995274,['n'],1,right,none,-99,-99,0.5,0,none,19,18,Man,Right,
15,1,18,0.4841951999997036,['n'],1,right,none,-99,-99,0.5,0,none,19,18,Man,Right,
16,1,18,0.7322784999996657,['n'],0,left,none,-99,-99,0.5,0,none,19,18,Man,Right,
17,1,18,0.5851762000002054,['n'],0,left,none,-99,-99,0.5,0,none,19,18,Man,Right,
18,1,18,0.7682258999993792,['c'],0,right,none,-99,-99,0.5,0,none,19,18,Man,Right,
19,1,18,0.7014113999994152,['n'],0,left,none,-99,-99,0.5,0,none,19,18,Man,Right,
20,1,18,1.317798699999912,['c'],1,left,none,-99,-99,0.5,0,none,19,18,Man,Right,
21,1,18,0.6848098999998911,['n'],0,left,none,-99,-99,0.5,0,none,19,18,Man,Right,
22,1,18,0.5502433000001474,['n'],1,right,none,-99,-99,0.5,0,none,19,18,Man,Right,
23,1,18,0.8171726999999009,['c'],1,left,none,-99,-99,0.5,0,none,19,18,Man,Right,
0,1,19,1.1174768000000768,['n'],0,left,none,-99,-99,0.5,0,none,19,18,Man,Right,
1,1,19,0.6006313999996564,['n'],1,right,none,-99,-99,0.5,0,none,19,18,Man,Right,
2,1,19,0.6837236000001212,['c'],1,left,none,-99,-99,0.5,0,none,19,18,Man,Right,
3,1,19,0.6005002000001696,['n'],0,left,none,-99,-99,0.5,0,none,19,18,Man,Right,
4,1,19,0.6336046999995233,['n'],1,right,none,-99,-99,0.5,0,none,19,18,Man,Right,
5,1,19,0.7177827999994406,['c'],0,right,none,-99,-99,0.5,0,none,19,18,Man,Right,
6,1,19,0.7999996999997165,['c'],1,left,none,-99,-99,0.5,0,none,19,18,Man,Right,
7,1,19,0.6678224000006594,['c'],1,left,none,-99,-99,0.5,0,none,19,18,Man,Right,
8,1,19,0.6672336000001451,['c'],1,left,none,-99,-99,0.5,0,none,19,18,Man,Right,
9,1,19,0.6165386999991824,['n'],1,right,none,-99,-99,0.5,0,none,19,18,Man,Right,
10,1,19,0.5845093999996607,['c'],0,right,none,-99,-99,0.5,0,none,19,18,Man,Right,
11,1,19,0.5505708999999115,['c'],1,left,none,-99,-99,0.5,0,none,19,18,Man,Right,
12,1,19,0.7333898999995654,['n'],1,right,none,-99,-99,0.5,0,none,19,18,Man,Right,
13,1,19,0.7178186999999525,['c'],0,right,none,-99,-99,0.5,0,none,19,18,Man,Right,
14,1,19,1.0341999000002033,['n'],1,right,none,-99,-99,0.5,0,none,19,18,Man,Right,
15,1,19,0.5494532000002437,['c'],1,left,none,-99,-99,0.5,0,none,19,18,Man,Right,
16,1,19,1.5002841999994416,['n'],0,left,none,-99,-99,0.5,0,none,19,18,Man,Right,
17,1,19,0.6507658999998966,['c'],1,left,none,-99,-99,0.5,0,none,19,18,Man,Right,
18,1,19,0.6509098000005906,['c'],1,left,none,-99,-99,0.5,0,none,19,18,Man,Right,
19,1,19,0.44998060000034457,['n'],1,right,none,-99,-99,0.5,0,none,19,18,Man,Right,
20,1,19,0.6833132000001569,['c'],0,right,none,-99,-99,0.5,0,none,19,18,Man,Right,
21,1,19,0.5998878000000332,['c'],0,right,none,-99,-99,0.5,0,none,19,18,Man,Right,
22,1,19,0.5662581999995382,['c'],1,left,none,-99,-99,0.5,0,none,19,18,Man,Right,
23,1,19,0.8163534000004802,['n'],1,right,none,-99,-99,0.5,0,none,19,18,Man,Right,
0,1,20,0.5678725999996459,['c'],1,left,none,-99,-99,0.5,0,none,19,18,Man,Right,
1,1,20,0.9505464000003485,['n'],0,left,none,-99,-99,0.5,0,none,19,18,Man,Right,
2,1,20,1.000421599999754,['n'],1,right,none,-99,-99,0.5,0,none,19,18,Man,Right,
3,1,20,0.6338685000000623,['c'],0,right,none,-99,-99,0.5,0,none,19,18,Man,Right,
4,1,20,1.0160846999997375,['n'],0,left,none,-99,-99,0.5,0,none,19,18,Man,Right,
5,1,20,0.8344180000003689,['c'],1,left,none,-99,-99,0.5,0,none,19,18,Man,Right,
6,1,20,1.4162496000008105,['n'],0,left,none,-99,-99,0.5,0,none,19,18,Man,Right,
7,1,20,0.7503271000005043,['n'],1,right,none,-99,-99,0.5,0,none,19,18,Man,Right,
8,1,20,0.7844231999997646,['c'],1,left,none,-99,-99,0.5,0,none,19,18,Man,Right,
9,1,20,0.700057599999127,['c'],0,right,none,-99,-99,0.5,0,none,19,18,Man,Right,
10,1,20,0.9499298999999155,['c'],1,left,none,-99,-99,0.5,0,none,19,18,Man,Right,
11,1,20,0.9998797999996896,['n'],0,left,none,-99,-99,0.5,0,none,19,18,Man,Right,
12,1,20,1.0338377000007313,['n'],0,left,none,-99,-99,0.5,0,none,19,18,Man,Right,
13,1,20,1.6334287999998196,['c'],1,left,none,-99,-99,0.5,0,none,19,18,Man,Right,
14,1,20,0.701039600000513,['n'],1,right,none,-99,-99,0.5,0,none,19,18,Man,Right,
15,1,20,1.0508807999995042,['n'],1,right,none,-99,-99,0.5,0,none,19,18,Man,Right,
16,1,20,0.6831793999999718,['n'],0,left,none,-99,-99,0.5,0,none,19,18,Man,Right,
17,1,20,2.400144000000182,['n'],1,right,none,-99,-99,0.5,0,none,19,18,Man,Right,
18,1,20,0.8156199999993987,['c'],1,left,none,-99,-99,0.5,0,none,19,18,Man,Right,
19,1,20,0.7007252999992488,['c'],0,right,none,-99,-99,0.5,0,none,19,18,Man,Right,
20,1,20,0.5839179999993576,['n'],1,right,none,-99,-99,0.5,0,none,19,18,Man,Right,
21,1,20,0.5345524999993359,['n'],1,right,none,-99,-99,0.5,0,none,19,18,Man,Right,
22,1,20,0.45134239999970305,['n'],1,right,none,-99,-99,0.5,0,none,19,18,Man,Right,
23,1,20,0.7009291000003941,['c'],0,right,none,-99,-99,0.5,0,none,19,18,Man,Right,
0,1,21,1.3511900000003152,['n'],1,right,none,-99,-99,0.5,0,none,19,18,Man,Right,
1,1,21,0.5506934999993973,['c'],0,right,none,-99,-99,0.5,0,none,19,18,Man,Right,
2,1,21,0.6172845999999481,['n'],0,left,none,-99,-99,0.5,0,none,19,18,Man,Right,
3,1,21,0.6178302999996959,['c'],0,right,none,-99,-99,0.5,0,none,19,18,Man,Right,
4,1,21,0.683441899999707,['n'],1,right,none,-99,-99,0.5,0,none,19,18,Man,Right,
5,1,21,0.4005584999995335,['n'],1,right,none,-99,-99,0.5,0,none,19,18,Man,Right,
6,1,21,0.5340433999999732,['c'],1,left,none,-99,-99,0.5,0,none,19,18,Man,Right,
7,1,21,0.6665818000001309,['c'],1,left,none,-99,-99,0.5,0,none,19,18,Man,Right,
8,1,21,0.8177458000000115,['c'],1,left,none,-99,-99,0.5,0,none,19,18,Man,Right,
9,1,21,0.5505198000000746,['n'],1,right,none,-99,-99,0.5,0,none,19,18,Man,Right,
10,1,21,0.633480899999995,['c'],1,left,none,-99,-99,0.5,0,none,19,18,Man,Right,
11,1,21,1.167006499999843,['n'],1,right,none,-99,-99,0.5,0,none,19,18,Man,Right,
12,1,21,0.6506091999999626,['c'],0,right,none,-99,-99,0.5,0,none,19,18,Man,Right,
13,1,21,0.9504321000003983,['c'],1,left,none,-99,-99,0.5,0,none,19,18,Man,Right,
14,1,21,0.7505426999996416,['n'],0,left,none,-99,-99,0.5,0,none,19,18,Man,Right,
15,1,21,0.5331182999998418,['c'],1,left,none,-99,-99,0.5,0,none,19,18,Man,Right,
16,1,21,1.6821640000007392,['n'],1,right,none,-99,-99,0.5,0,none,19,18,Man,Right,
17,1,21,1.149637200000143,['c'],1,left,none,-99,-99,0.5,0,none,19,18,Man,Right,
18,1,21,0.6498764999996638,['n'],1,right,none,-99,-99,0.5,0,none,19,18,Man,Right,
19,1,21,0.9512109999996028,['n'],0,left,none,-99,-99,0.5,0,none,19,18,Man,Right,
20,1,21,0.8838974999998754,['n'],0,left,none,-99,-99,0.5,0,none,19,18,Man,Right,
21,1,21,0.2511770000000979,['n'],1,right,none,-99,-99,0.5,0,none,19,18,Man,Right,
22,1,21,0.5681873000003179,['n'],0,left,none,-99,-99,0.5,0,none,19,18,Man,Right,
23,1,21,0.4682302000001073,['n'],1,right,none,-99,-99,0.5,0,none,19,18,Man,Right,
0,1,22,0.5840164000001096,['n'],0,left,none,-99,-99,0.5,0,none,19,18,Man,Right,
1,1,22,0.35084790000018984,['n'],0,left,none,-99,-99,0.5,0,none,19,18,Man,Right,
2,1,22,0.9004238000006808,['n'],1,right,none,-99,-99,0.5,0,none,19,18,Man,Right,
3,1,22,0.5507845000001907,['c'],1,left,none,-99,-99,0.5,0,none,19,18,Man,Right,
4,1,22,0.567465699999957,['c'],0,right,none,-99,-99,0.5,0,none,19,18,Man,Right,
5,1,22,1.3495497000003525,['n'],1,right,none,-99,-99,0.5,0,none,19,18,Man,Right,
6,1,22,0.5998451999994359,['c'],1,left,none,-99,-99,0.5,0,none,19,18,Man,Right,
7,1,22,1.0648337000002357,['n'],0,left,none,-99,-99,0.5,0,none,19,18,Man,Right,
8,1,22,0.9349183999993329,['c'],0,right,none,-99,-99,0.5,0,none,19,18,Man,Right,
9,1,22,1.4178406000000905,['n'],1,right,none,-99,-99,0.5,0,none,19,18,Man,Right,
10,1,22,0.8169065000001865,['c'],0,right,none,-99,-99,0.5,0,none,19,18,Man,Right,
11,1,22,0.6340783999994528,['n'],1,right,none,-99,-99,0.5,0,none,19,18,Man,Right,
12,1,22,0.7005458000003273,['c'],1,left,none,-99,-99,0.5,0,none,19,18,Man,Right,
13,1,22,0.6513001999992412,['n'],0,left,none,-99,-99,0.5,0,none,19,18,Man,Right,
14,1,22,0.7509488999994574,['n'],1,right,none,-99,-99,0.5,0,none,19,18,Man,Right,
15,1,22,0.6006593000001885,['n'],1,right,none,-99,-99,0.5,0,none,19,18,Man,Right,
16,1,22,0.6172154999994746,['c'],1,left,none,-99,-99,0.5,0,none,19,18,Man,Right,
17,1,22,0.6837328999999954,['n'],0,left,none,-99,-99,0.5,0,none,19,18,Man,Right,
18,1,22,0.5833427999996275,['c'],1,left,none,-99,-99,0.5,0,none,19,18,Man,Right,
19,1,22,0.7011956999995164,['n'],0,left,none,-99,-99,0.5,0,none,19,18,Man,Right,
20,1,22,0.7677289000002929,['n'],1,right,none,-99,-99,0.5,0,none,19,18,Man,Right,
21,1,22,0.7006350999999995,['c'],1,left,none,-99,-99,0.5,0,none,19,18,Man,Right,
22,1,22,0.9846442999996725,['n'],1,right,none,-99,-99,0.5,0,none,19,18,Man,Right,
23,1,22,0.6666176999997333,['c'],0,right,none,-99,-99,0.5,0,none,19,18,Man,Right,
0,1,23,0.6179032999998526,['c'],1,left,none,-99,-99,0.5,0,none,19,18,Man,Right,
1,1,23,0.4843108000004577,['n'],1,right,none,-99,-99,0.5,0,none,19,18,Man,Right,
2,1,23,0.517149100000097,['n'],1,right,none,-99,-99,0.5,0,none,19,18,Man,Right,
3,1,23,0.5178903000005448,['n'],0,left,none,-99,-99,0.5,0,none,19,18,Man,Right,
4,1,23,0.8170271999997567,['c'],0,right,none,-99,-99,0.5,0,none,19,18,Man,Right,
5,1,23,0.7671865000002072,['n'],0,left,none,-99,-99,0.5,0,none,19,18,Man,Right,
6,1,23,1.3505467999993925,['c'],1,left,none,-99,-99,0.5,0,none,19,18,Man,Right,
7,1,23,0.9169289000001299,['n'],0,left,none,-99,-99,0.5,0,none,19,18,Man,Right,
8,1,23,0.6992183000002115,['c'],1,left,none,-99,-99,0.5,0,none,19,18,Man,Right,
9,1,23,0.6009573000001183,['c'],1,left,none,-99,-99,0.5,0,none,19,18,Man,Right,
10,1,23,0.684299500000634,['n'],1,right,none,-99,-99,0.5,0,none,19,18,Man,Right,
11,1,23,0.7003746999998839,['c'],0,right,none,-99,-99,0.5,0,none,19,18,Man,Right,
12,1,23,0.5344265000003361,['n'],1,right,none,-99,-99,0.5,0,none,19,18,Man,Right,
13,1,23,0.9504047999998875,['c'],0,right,none,-99,-99,0.5,0,none,19,18,Man,Right,
14,1,23,0.6349103999991712,['c'],1,left,none,-99,-99,0.5,0,none,19,18,Man,Right,
15,1,23,0.384453300000132,['n'],1,right,none,-99,-99,0.5,0,none,19,18,Man,Right,
16,1,23,0.6015646999994715,['c'],1,left,none,-99,-99,0.5,0,none,19,18,Man,Right,
17,1,23,0.48391129999981786,['n'],0,left,none,-99,-99,0.5,0,none,19,18,Man,Right,
18,1,23,0.5837792000002082,['n'],1,right,none,-99,-99,0.5,0,none,19,18,Man,Right,
19,1,23,0.584375600000385,['n'],0,left,none,-99,-99,0.5,0,none,19,18,Man,Right,
20,1,23,0.6514029999998456,['n'],1,right,none,-99,-99,0.5,0,none,19,18,Man,Right,
21,1,23,0.6009215999993103,['c'],1,left,none,-99,-99,0.5,0,none,19,18,Man,Right,
22,1,23,0.5334147000003213,['n'],1,right,none,-99,-99,0.5,0,none,19,18,Man,Right,
23,1,23,0.5665201000001616,['n'],1,right,none,-99,-99,0.5,0,none,19,18,Man,Right,
0,1,24,0.7010206999993898,['c'],0,right,none,-99,-99,0.5,0,none,19,18,Man,Right,
1,1,24,0.533308300000499,['n'],0,left,none,-99,-99,0.5,0,none,19,18,Man,Right,
2,1,24,0.6831165000003239,['c'],1,left,none,-99,-99,0.5,0,none,19,18,Man,Right,
3,1,24,0.7516207999997278,['c'],1,left,none,-99,-99,0.5,0,none,19,18,Man,Right,
4,1,24,0.5836263999999574,['n'],1,right,none,-99,-99,0.5,0,none,19,18,Man,Right,
5,1,24,0.5659537000001365,['c'],1,left,none,-99,-99,0.5,0,none,19,18,Man,Right,
6,1,24,0.7848864999996295,['c'],1,left,none,-99,-99,0.5,0,none,19,18,Man,Right,
7,1,24,0.6504297999999835,['n'],1,right,none,-99,-99,0.5,0,none,19,18,Man,Right,
8,1,24,0.8010340999999244,['c'],1,left,none,-99,-99,0.5,0,none,19,18,Man,Right,
9,1,24,0.6006040000002031,['n'],1,right,none,-99,-99,0.5,0,none,19,18,Man,Right,
10,1,24,0.6004232000004777,['n'],0,left,none,-99,-99,0.5,0,none,19,18,Man,Right,
11,1,24,0.5173770000001241,['c'],0,right,none,-99,-99,0.5,0,none,19,18,Man,Right,
12,1,24,0.8510775000004287,['c'],1,left,none,-99,-99,0.5,0,none,19,18,Man,Right,
13,1,24,0.5339240000002974,['n'],1,right,none,-99,-99,0.5,0,none,19,18,Man,Right,
14,1,24,0.6172737000006236,['n'],0,left,none,-99,-99,0.5,0,none,19,18,Man,Right,
15,1,24,0.7331300000005285,['c'],0,right,none,-99,-99,0.5,0,none,19,18,Man,Right,
16,1,24,0.9502831999998307,['n'],0,left,none,-99,-99,0.5,0,none,19,18,Man,Right,
17,1,24,0.5514296999999715,['n'],0,left,none,-99,-99,0.5,0,none,19,18,Man,Right,
18,1,24,0.6005387000004703,['n'],1,right,none,-99,-99,0.5,0,none,19,18,Man,Right,
19,1,24,0.7173129000002518,['c'],0,right,none,-99,-99,0.5,0,none,19,18,Man,Right,
20,1,24,0.5180710999993607,['c'],0,right,none,-99,-99,0.5,0,none,19,18,Man,Right,
21,1,24,0.648509899999226,['c'],1,left,none,-99,-99,0.5,0,none,19,18,Man,Right,
22,1,24,0.8179430000000139,['c'],0,right,none,-99,-99,0.5,0,none,19,18,Man,Right,
23,1,24,0.683244900000318,['c'],0,right,none,-99,-99,0.5,0,none,19,18,Man,Right,
0,1,25,0.8347876000007091,['n'],1,right,none,-99,-99,0.5,0,none,19,18,Man,Right,
1,1,25,0.7169683000001896,['c'],1,left,none,-99,-99,0.5,0,none,19,18,Man,Right,
2,1,25,0.8172420000000784,['n'],1,right,none,-99,-99,0.5,0,none,19,18,Man,Right,
3,1,25,0.5008655999999974,['c'],0,right,none,-99,-99,0.5,0,none,19,18,Man,Right,
4,1,25,0.46726029999990715,['n'],0,left,none,-99,-99,0.5,0,none,19,18,Man,Right,
5,1,25,0.7003691999998409,['n'],0,left,none,-99,-99,0.5,0,none,19,18,Man,Right,
6,1,25,0.617105199999969,['c'],0,right,none,-99,-99,0.5,0,none,19,18,Man,Right,
7,1,25,0.7009734000002936,['c'],0,right,none,-99,-99,0.5,0,none,19,18,Man,Right,
8,1,25,0.48444110000036744,['n'],0,left,none,-99,-99,0.5,0,none,19,18,Man,Right,
9,1,25,0.5837854000001244,['c'],0,right,none,-99,-99,0.5,0,none,19,18,Man,Right,
10,1,25,0.45044249999955355,['n'],1,right,none,-99,-99,0.5,0,none,19,18,Man,Right,
11,1,25,0.9846112999994148,['n'],0,left,none,-99,-99,0.5,0,none,19,18,Man,Right,
12,1,25,0.7336446000008436,['c'],1,left,none,-99,-99,0.5,0,none,19,18,Man,Right,
13,1,25,0.6834728000003452,['n'],0,left,none,-99,-99,0.5,0,none,19,18,Man,Right,
14,1,25,0.6838807000003726,['n'],1,right,none,-99,-99,0.5,0,none,19,18,Man,Right,
15,1,25,0.56722979999995,['n'],0,left,none,-99,-99,0.5,0,none,19,18,Man,Right,
16,1,25,0.6681310000003577,['n'],0,left,none,-99,-99,0.5,0,none,19,18,Man,Right,
17,1,25,0.6509838000001764,['n'],0,left,none,-99,-99,0.5,0,none,19,18,Man,Right,
18,1,25,0.9511873999999807,['c'],0,right,none,-99,-99,0.5,0,none,19,18,Man,Right,
19,1,25,0.9341131000001042,['n'],0,left,none,-99,-99,0.5,0,none,19,18,Man,Right,
20,1,25,0.9003308000001198,['n'],0,left,none,-99,-99,0.5,0,none,19,18,Man,Right,
21,1,25,0.95196980000037,['c'],0,right,none,-99,-99,0.5,0,none,19,18,Man,Right,
22,1,25,0.7671163000004526,['n'],1,right,none,-99,-99,0.5,0,none,19,18,Man,Right,
23,1,25,0.5168923999999606,['n'],1,right,none,-99,-99,0.5,0,none,19,18,Man,Right,
0,1,26,0.7006278999997448,['c'],0,right,none,-99,-99,0.5,0,none,19,18,Man,Right,
1,1,26,0.49927110000044195,['n'],0,left,none,-99,-99,0.5,0,none,19,18,Man,Right,
2,1,26,0.2505581000004895,['n'],1,right,none,-99,-99,0.5,0,none,19,18,Man,Right,
3,1,26,0.2336408000001029,['c'],0,right,none,-99,-99,0.5,0,none,19,18,Man,Right,
4,1,26,0.2832994000000326,['c'],1,left,none,-99,-99,0.5,0,none,19,18,Man,Right,
5,1,26,0.38455470000008063,['c'],0,right,none,-99,-99,0.5,0,none,19,18,Man,Right,
6,1,26,0.40047340000000986,['c'],1,left,none,-99,-99,0.5,0,none,19,18,Man,Right,
7,1,26,0.15049499999986438,['n'],1,right,none,-99,-99,0.5,0,none,19,18,Man,Right,
8,1,26,0.41711880000002566,['n'],1,right,none,-99,-99,0.5,0,none,19,18,Man,Right,
9,1,26,0.5672695000002932,['c'],1,left,none,-99,-99,0.5,0,none,19,18,Man,Right,
10,1,26,0.45099449999997887,['n'],0,left,none,-99,-99,0.5,0,none,19,18,Man,Right,
11,1,26,0.6015263999997842,['c'],1,left,none,-99,-99,0.5,0,none,19,18,Man,Right,
12,1,26,0.5175323000003118,['n'],1,right,none,-99,-99,0.5,0,none,19,18,Man,Right,
13,1,26,0.8838347000000795,['n'],1,right,none,-99,-99,0.5,0,none,19,18,Man,Right,
14,1,26,0.7506383999998434,['n'],0,left,none,-99,-99,0.5,0,none,19,18,Man,Right,
15,1,26,0.617770500000006,['n'],0,left,none,-99,-99,0.5,0,none,19,18,Man,Right,
16,1,26,0.6846557999997458,['c'],0,right,none,-99,-99,0.5,0,none,19,18,Man,Right,
17,1,26,0.5334312000004502,['n'],1,right,none,-99,-99,0.5,0,none,19,18,Man,Right,
18,1,26,0.6014235000002373,['n'],1,right,none,-99,-99,0.5,0,none,19,18,Man,Right,
19,1,26,0.634916300000441,['n'],0,left,none,-99,-99,0.5,0,none,19,18,Man,Right,
20,1,26,0.2840728000001036,['c'],1,left,none,-99,-99,0.5,0,none,19,18,Man,Right,
21,1,26,0.6672496999999566,['c'],1,left,none,-99,-99,0.5,0,none,19,18,Man,Right,
22,1,26,0.5169236000001547,['n'],1,right,none,-99,-99,0.5,0,none,19,18,Man,Right,
23,1,26,0.5167655000004743,['n'],0,left,none,-99,-99,0.5,0,none,19,18,Man,Right,
0,1,27,0.6510260000004564,['c'],1,left,none,-99,-99,0.5,0,none,19,18,Man,Right,
1,1,27,0.11780300000009447,['n'],1,right,none,-99,-99,0.5,0,none,19,18,Man,Right,
2,1,27,0.717700899999727,['n'],0,left,none,-99,-99,0.5,0,none,19,18,Man,Right,
3,1,27,1.4175737000005029,['n'],1,right,none,-99,-99,0.5,0,none,19,18,Man,Right,
4,1,27,0.6505612000000838,['c'],1,left,none,-99,-99,0.5,0,none,19,18,Man,Right,
5,1,27,0.6181012999995801,['n'],1,right,none,-99,-99,0.5,0,none,19,18,Man,Right,
6,1,27,0.40102680000018154,['c'],0,right,none,-99,-99,0.5,0,none,19,18,Man,Right,
7,1,27,0.4334650999999212,['c'],1,left,none,-99,-99,0.5,0,none,19,18,Man,Right,
8,1,27,0.6006459000000177,['c'],1,left,none,-99,-99,0.5,0,none,19,18,Man,Right,
9,1,27,0.48395179999988613,['n'],1,right,none,-99,-99,0.5,0,none,19,18,Man,Right,
10,1,27,0.5173921000005066,['c'],1,left,none,-99,-99,0.5,0,none,19,18,Man,Right,
11,1,27,0.633859499999744,['c'],0,right,none,-99,-99,0.5,0,none,19,18,Man,Right,
12,1,27,0.6174401999996917,['n'],0,left,none,-99,-99,0.5,0,none,19,18,Man,Right,
13,1,27,0.31793110000035085,['c'],1,left,none,-99,-99,0.5,0,none,19,18,Man,Right,
14,1,27,0.4179479000003994,['n'],0,left,none,-99,-99,0.5,0,none,19,18,Man,Right,
15,1,27,0.3175471999993533,['n'],0,left,none,-99,-99,0.5,0,none,19,18,Man,Right,
16,1,27,0.38380159999996977,['n'],1,right,none,-99,-99,0.5,0,none,19,18,Man,Right,
17,1,27,0.5509830999999394,['n'],1,right,none,-99,-99,0.5,0,none,19,18,Man,Right,
18,1,27,0.8014097999994192,['n'],1,right,none,-99,-99,0.5,0,none,19,18,Man,Right,
19,1,27,0.46731550000004063,['c'],0,right,none,-99,-99,0.5,0,none,19,18,Man,Right,
20,1,27,0.3506358000004184,['n'],1,right,none,-99,-99,0.5,0,none,19,18,Man,Right,
21,1,27,0.30069640000056097,['c'],1,left,none,-99,-99,0.5,0,none,19,18,Man,Right,
22,1,27,0.41773270000066987,"['n', 'c']",0,left,none,-99,-99,0.5,0,none,19,18,Man,Right,
23,1,27,0.41761659999974654,"['n', 'c']",1,right,none,-99,-99,0.5,0,none,19,18,Man,Right,
0,1,28,1.201321100000314,['c'],0,right,none,-99,-99,0.5,0,none,19,18,Man,Right,
1,1,28,0.39913369999976567,['c'],1,left,none,-99,-99,0.5,0,none,19,18,Man,Right,
2,1,28,0.2846902000001137,"['n', 'c']",1,right,none,-99,-99,0.5,0,none,19,18,Man,Right,
3,1,28,0.25007410000034724,['c'],1,left,none,-99,-99,0.5,0,none,19,18,Man,Right,
4,1,28,0.25120650000008027,"['n', 'c']",0,left,none,-99,-99,0.5,0,none,19,18,Man,Right,
5,1,28,0.5174796000001152,['c'],1,left,none,-99,-99,0.5,0,none,19,18,Man,Right,
6,1,28,0.33532430000013846,"['n', 'c']",1,right,none,-99,-99,0.5,0,none,19,18,Man,Right,
7,1,28,0.1996099999996659,['n'],0,left,none,-99,-99,0.5,0,none,19,18,Man,Right,
8,1,28,0.2505306000002747,"['n', 'c']",1,right,none,-99,-99,0.5,0,none,19,18,Man,Right,
9,1,28,0.018002600000727398,['c'],1,left,none,-99,-99,0.5,0,none,19,18,Man,Right,
10,1,28,0.31761050000022806,['c'],0,right,none,-99,-99,0.5,0,none,19,18,Man,Right,
11,1,28,0.4844017999994321,['n'],0,left,none,-99,-99,0.5,0,none,19,18,Man,Right,
12,1,28,0.5512742999999318,['n'],1,right,none,-99,-99,0.5,0,none,19,18,Man,Right,
13,1,28,0.21806809999998222,['n'],0,left,none,-99,-99,0.5,0,none,19,18,Man,Right,
14,1,28,0.6508555000000342,['n'],1,right,none,-99,-99,0.5,0,none,19,18,Man,Right,
15,1,28,0.40058890000000247,['n'],1,right,none,-99,-99,0.5,0,none,19,18,Man,Right,
16,1,28,0.6332063999998354,['n'],0,left,none,-99,-99,0.5,0,none,19,18,Man,Right,
17,1,28,0.23443440000028204,"['n', 'c']",0,left,none,-99,-99,0.5,0,none,19,18,Man,Right,
18,1,28,0.2670746000003419,['c'],1,left,none,-99,-99,0.5,0,none,19,18,Man,Right,
19,1,28,0.2672093000001041,['c'],0,right,none,-99,-99,0.5,0,none,19,18,Man,Right,
20,1,28,0.2673984000002747,"['n', 'c']",0,left,none,-99,-99,0.5,0,none,19,18,Man,Right,
21,1,28,0.2511856999999509,['n'],1,right,none,-99,-99,0.5,0,none,19,18,Man,Right,
22,1,28,0.23368959999970684,['n'],1,right,none,-99,-99,0.5,0,none,19,18,Man,Right,
23,1,28,0.33368139999947743,['n'],1,right,none,-99,-99,0.5,0,none,19,18,Man,Right,
0,1,29,0.9843129000000772,['c'],1,left,none,-99,-99,0.5,0,none,19,18,Man,Right,
1,1,29,0.418033099999775,['c'],1,left,none,-99,-99,0.5,0,none,19,18,Man,Right,
2,1,29,0.4666434999999183,['n'],0,left,none,-99,-99,0.5,0,none,19,18,Man,Right,
3,1,29,0.2505295000000842,['c'],1,left,none,-99,-99,0.5,0,none,19,18,Man,Right,
4,1,29,0.35024539999994886,['c'],0,right,none,-99,-99,0.5,0,none,19,18,Man,Right,
5,1,29,0.4668314000000464,['c'],1,left,none,-99,-99,0.5,0,none,19,18,Man,Right,
6,1,29,0.5839686999997866,['n'],1,right,none,-99,-99,0.5,0,none,19,18,Man,Right,
7,1,29,0.3681728999999905,['n'],1,right,none,-99,-99,0.5,0,none,19,18,Man,Right,
8,1,29,0.40117860000009387,['n'],1,right,none,-99,-99,0.5,0,none,19,18,Man,Right,
9,1,29,0.3992356999997355,['n'],1,right,none,-99,-99,0.5,0,none,19,18,Man,Right,
10,1,29,0.451165100000253,['c'],1,left,none,-99,-99,0.5,0,none,19,18,Man,Right,
11,1,29,0.217424999999821,['c'],1,left,none,-99,-99,0.5,0,none,19,18,Man,Right,
12,1,29,0.21796449999965262,['c'],0,right,none,-99,-99,0.5,0,none,19,18,Man,Right,
13,1,29,0.1999522000005527,['n'],1,right,none,-99,-99,0.5,0,none,19,18,Man,Right,
14,1,29,0.34884669999973994,['n'],0,left,none,-99,-99,0.5,0,none,19,18,Man,Right,
15,1,29,0.30095600000004197,"['n', 'c']",0,left,none,-99,-99,0.5,0,none,19,18,Man,Right,
16,1,29,0.24978869999995368,['n'],0,left,none,-99,-99,0.5,0,none,19,18,Man,Right,
17,1,29,0.5672672000000603,['n'],1,right,none,-99,-99,0.5,0,none,19,18,Man,Right,
18,1,29,1.3160840999998982,['c'],0,right,none,-99,-99,0.5,0,none,19,18,Man,Right,
19,1,29,0.2349794000001566,['n'],1,right,none,-99,-99,0.5,0,none,19,18,Man,Right,
20,1,29,0.45068779999928665,['n'],0,left,none,-99,-99,0.5,0,none,19,18,Man,Right,
21,1,29,0.6339235000004919,['c'],0,right,none,-99,-99,0.5,0,none,19,18,Man,Right,
22,1,29,0.5161361999998917,['n'],1,right,none,-99,-99,0.5,0,none,19,18,Man,Right,
23,1,29,0.6510950000001685,['c'],1,left,none,-99,-99,0.5,0,none,19,18,Man,Right,
0,1,30,0.5677168000001984,['n'],1,right,none,-99,-99,0.5,0,none,19,18,Man,Right,
1,1,30,0.41744959999959974,['n'],1,right,none,-99,-99,0.5,0,none,19,18,Man,Right,
2,1,30,0.5838892000001579,['c'],0,right,none,-99,-99,0.5,0,none,19,18,Man,Right,
3,1,30,0.3675620000003619,['n'],1,right,none,-99,-99,0.5,0,none,19,18,Man,Right,
4,1,30,0.3849292000004425,['n'],0,left,none,-99,-99,0.5,0,none,19,18,Man,Right,
5,1,30,0.41817170000012993,['n'],0,left,none,-99,-99,0.5,0,none,19,18,Man,Right,
6,1,30,0.3331737999997131,['n'],0,left,none,-99,-99,0.5,0,none,19,18,Man,Right,
7,1,30,0.23309539999991102,['c'],0,right,none,-99,-99,0.5,0,none,19,18,Man,Right,
8,1,30,0.3004674999992858,['c'],1,left,none,-99,-99,0.5,0,none,19,18,Man,Right,
9,1,30,0.4509299999999712,['n'],1,right,none,-99,-99,0.5,0,none,19,18,Man,Right,
10,1,30,0.43454860000019835,['n'],1,right,none,-99,-99,0.5,0,none,19,18,Man,Right,
11,1,30,0.4503723000007085,['n'],0,left,none,-99,-99,0.5,0,none,19,18,Man,Right,
12,1,30,0.41728060000059486,['n'],1,right,none,-99,-99,0.5,0,none,19,18,Man,Right,
13,1,30,0.451304700000037,['n'],1,right,none,-99,-99,0.5,0,none,19,18,Man,Right,
14,1,30,0.4508692000008523,['n'],0,left,none,-99,-99,0.5,0,none,19,18,Man,Right,
15,1,30,0.3842113000000609,['n'],0,left,none,-99,-99,0.5,0,none,19,18,Man,Right,
16,1,30,0.41740089999984775,['n'],1,right,none,-99,-99,0.5,0,none,19,18,Man,Right,
17,1,30,0.4670927000006486,['n'],0,left,none,-99,-99,0.5,0,none,19,18,Man,Right,
18,1,30,0.38425569999981235,['n'],0,left,none,-99,-99,0.5,0,none,19,18,Man,Right,
19,1,30,0.35065600000052655,['c'],1,left,none,-99,-99,0.5,0,none,19,18,Man,Right,
20,1,30,0.43337090000022727,['n'],0,left,none,-99,-99,0.5,0,none,19,18,Man,Right,
21,1,30,0.41742080000040005,['n'],0,left,none,-99,-99,0.5,0,none,19,18,Man,Right,
22,1,30,0.28434030000062194,['n'],1,right,none,-99,-99,0.5,0,none,19,18,Man,Right,
23,1,30,0.4842869000003702,['c'],0,right,none,-99,-99,0.5,0,none,19,18,Man,Right,
0,1,31,0.5673510999995415,['n'],0,left,none,-99,-99,0.5,0,none,19,18,Man,Right,
1,1,31,0.4505725999997594,['c'],0,right,none,-99,-99,0.5,0,none,19,18,Man,Right,
2,1,31,0.3338227000003826,['n'],1,right,none,-99,-99,0.5,0,none,19,18,Man,Right,
3,1,31,0.3511340000004566,['n'],0,left,none,-99,-99,0.5,0,none,19,18,Man,Right,
4,1,31,0.2837590999997701,['c'],0,right,none,-99,-99,0.5,0,none,19,18,Man,Right,
5,1,31,0.11608819999946718,['n'],1,right,none,-99,-99,0.5,0,none,19,18,Man,Right,
6,1,31,0.21631339999930788,['c'],0,right,none,-99,-99,0.5,0,none,19,18,Man,Right,
7,1,31,0.38298410000061267,['n'],0,left,none,-99,-99,0.5,0,none,19,18,Man,Right,
8,1,31,0.5844872000006944,['c'],0,right,none,-99,-99,0.5,0,none,19,18,Man,Right,
9,1,31,0.5184853000000658,['n'],0,left,none,-99,-99,0.5,0,none,19,18,Man,Right,
10,1,31,0.417836200000238,['c'],0,right,none,-99,-99,0.5,0,none,19,18,Man,Right,
11,1,31,0.3010061000004498,['n'],1,right,none,-99,-99,0.5,0,none,19,18,Man,Right,
12,1,31,0.3830300999998144,['n'],0,left,none,-99,-99,0.5,0,none,19,18,Man,Right,
13,1,31,0.4003926000004867,['c'],1,left,none,-99,-99,0.5,0,none,19,18,Man,Right,
14,1,31,0.5172091000004002,['n'],0,left,none,-99,-99,0.5,0,none,19,18,Man,Right,
15,1,31,0.6513668000006874,['n'],1,right,none,-99,-99,0.5,0,none,19,18,Man,Right,
16,1,31,0.4513286000001244,['n'],0,left,none,-99,-99,0.5,0,none,19,18,Man,Right,
17,1,31,0.49978179999925487,['c'],0,right,none,-99,-99,0.5,0,none,19,18,Man,Right,
18,1,31,0.3341729999992822,['n'],0,left,none,-99,-99,0.5,0,none,19,18,Man,Right,
19,1,31,0.36552429999937885,['c'],0,right,none,-99,-99,0.5,0,none,19,18,Man,Right,
20,1,31,0.3500795999998445,['n'],0,left,none,-99,-99,0.5,0,none,19,18,Man,Right,
21,1,31,0.567533800000092,['c'],0,right,none,-99,-99,0.5,0,none,19,18,Man,Right,
22,1,31,0.4338172999996459,['c'],1,left,none,-99,-99,0.5,0,none,19,18,Man,Right,
23,1,31,0.5170459000000847,['c'],1,left,none,-99,-99,0.5,0,none,19,18,Man,Right,
0,1,32,0.5668970999995508,['c'],0,right,none,-99,-99,0.5,0,none,19,18,Man,Right,
1,1,32,2.7007148000002417,['n'],1,right,none,-99,-99,0.5,0,none,19,18,Man,Right,
2,1,32,0.4513291000002937,['n'],1,right,none,-99,-99,0.5,0,none,19,18,Man,Right,
3,1,32,0.4183007000001453,['n'],1,right,none,-99,-99,0.5,0,none,19,18,Man,Right,
4,1,32,0.4327775000001566,['n'],1,right,none,-99,-99,0.5,0,none,19,18,Man,Right,
5,1,32,0.4171789000001809,['n'],0,left,none,-99,-99,0.5,0,none,19,18,Man,Right,
6,1,32,0.4339909999998781,['c'],1,left,none,-99,-99,0.5,0,none,19,18,Man,Right,
7,1,32,0.4155178999999407,['n'],1,right,none,-99,-99,0.5,0,none,19,18,Man,Right,
8,1,32,0.4337967999999819,['n'],0,left,none,-99,-99,0.5,0,none,19,18,Man,Right,
9,1,32,0.549852600000122,['c'],1,left,none,-99,-99,0.5,0,none,19,18,Man,Right,
10,1,32,0.4165547000002334,['c'],0,right,none,-99,-99,0.5,0,none,19,18,Man,Right,
11,1,32,0.2514619000003222,['n'],0,left,none,-99,-99,0.5,0,none,19,18,Man,Right,
12,1,32,0.3839711000000534,['c'],1,left,none,-99,-99,0.5,0,none,19,18,Man,Right,
13,1,32,0.6838336999999228,['n'],1,right,none,-99,-99,0.5,0,none,19,18,Man,Right,
14,1,32,0.26793180000004213,['n'],0,left,none,-99,-99,0.5,0,none,19,18,Man,Right,
15,1,32,0.13478519999989658,['c'],1,left,none,-99,-99,0.5,0,none,19,18,Man,Right,
16,1,32,0.6171172000003935,['c'],1,left,none,-99,-99,0.5,0,none,19,18,Man,Right,
17,1,32,0.45117970000046626,['c'],1,left,none,-99,-99,0.5,0,none,19,18,Man,Right,
18,1,32,0.41650680000020657,"['n', 'c']",0,left,none,-99,-99,0.5,0,none,19,18,Man,Right,
19,1,32,0.28375880000021425,['n'],0,left,none,-99,-99,0.5,0,none,19,18,Man,Right,
20,1,32,0.30076310000004014,['c'],0,right,none,-99,-99,0.5,0,none,19,18,Man,Right,
21,1,32,2.0510436999993544,['c'],0,right,none,-99,-99,0.5,0,none,19,18,Man,Right,
22,1,32,1.0508614000000307,['c'],0,right,none,-99,-99,0.5,0,none,19,18,Man,Right,
23,1,32,0.668115200000102,['n'],1,right,none,-99,-99,0.5,0,none,19,18,Man,Right,
0,1,33,0.9844860999992306,['n'],1,right,none,-99,-99,0.5,0,none,19,18,Man,Right,
1,1,33,0.35107329999937065,['n'],1,right,none,-99,-99,0.5,0,none,19,18,Man,Right,
2,1,33,0.2998812000005273,['n'],0,left,none,-99,-99,0.5,0,none,19,18,Man,Right,
3,1,33,0.400570499999958,['c'],1,left,none,-99,-99,0.5,0,none,19,18,Man,Right,
4,1,33,0.5679029000002629,['n'],0,left,none,-99,-99,0.5,0,none,19,18,Man,Right,
5,1,33,0.5498273000002882,['n'],1,right,none,-99,-99,0.5,0,none,19,18,Man,Right,
6,1,33,0.5841215000000375,['c'],0,right,none,-99,-99,0.5,0,none,19,18,Man,Right,
7,1,33,0.43447699999978795,['n'],1,right,none,-99,-99,0.5,0,none,19,18,Man,Right,
8,1,33,0.48383750000084547,['n'],0,left,none,-99,-99,0.5,0,none,19,18,Man,Right,
9,1,33,0.6167169999998805,['c'],1,left,none,-99,-99,0.5,0,none,19,18,Man,Right,
10,1,33,0.4828600999999253,['n'],0,left,none,-99,-99,0.5,0,none,19,18,Man,Right,
11,1,33,0.45133939999959694,['n'],0,left,none,-99,-99,0.5,0,none,19,18,Man,Right,
12,1,33,0.6175989000003028,['c'],0,right,none,-99,-99,0.5,0,none,19,18,Man,Right,
13,1,33,0.46656069999971805,['n'],0,left,none,-99,-99,0.5,0,none,19,18,Man,Right,
14,1,33,0.28395720000025904,['c'],0,right,none,-99,-99,0.5,0,none,19,18,Man,Right,
15,1,33,0.4180278999992879,['n'],0,left,none,-99,-99,0.5,0,none,19,18,Man,Right,
16,1,33,0.7005533000001378,['c'],0,right,none,-99,-99,0.5,0,none,19,18,Man,Right,
17,1,33,0.7491312999991351,['n'],1,right,none,-99,-99,0.5,0,none,19,18,Man,Right,
18,1,33,0.2511325000004945,"['n', 'c']",0,left,none,-99,-99,0.5,0,none,19,18,Man,Right,
19,1,33,0.5004969000001438,['n'],0,left,none,-99,-99,0.5,0,none,19,18,Man,Right,
20,1,33,0.46739569999954256,['c'],0,right,none,-99,-99,0.5,0,none,19,18,Man,Right,
21,1,33,0.7169813999998951,['c'],0,right,none,-99,-99,0.5,0,none,19,18,Man,Right,
22,1,33,0.7508744000006118,['n'],0,left,none,-99,-99,0.5,0,none,19,18,Man,Right,
23,1,33,0.5847494999998162,['n'],1,right,none,-99,-99,0.5,0,none,19,18,Man,Right,
