withinblocktrial,block,block_repetition,rt,resp,cor,cresp,conf_press,cj,rtconf,coherence,slow_trial,manipulation,sub,age,gender,handedness,
0,1,1,1.650431000000026,['n'],1,right,none,-99,-99,0.5,0,none,20,18,Woman,Right,
1,1,1,1.0506667999998172,['c'],1,left,none,-99,-99,0.5,0,none,20,18,Woman,Right,
2,1,1,0.9840572000011889,['c'],1,left,none,-99,-99,0.5,0,none,20,18,Woman,Right,
3,1,1,0.8165551000001869,['n'],1,right,none,-99,-99,0.5,0,none,20,18,Woman,Right,
4,1,1,0.9506634999997914,['c'],1,left,none,-99,-99,0.5,0,none,20,18,Woman,Right,
5,1,1,1.3330110999995668,['n'],1,right,none,-99,-99,0.5,0,none,20,18,Woman,Right,
6,1,1,0.8336039000005258,['n'],1,right,none,-99,-99,0.5,0,none,20,18,Woman,Right,
7,1,1,0.9500076000003901,['n'],1,right,none,-99,-99,0.5,0,none,20,18,Woman,Right,
8,1,1,1.8169170999990456,['c'],1,left,none,-99,-99,0.5,0,none,20,18,Woman,Right,
9,1,1,1.916807699999481,['c'],1,left,none,-99,-99,0.5,0,none,20,18,Woman,Right,
10,1,1,0.8171459999994113,['n'],1,right,none,-99,-99,0.5,0,none,20,18,Woman,Right,
11,1,1,1.3841616000008798,['c'],1,left,none,-99,-99,0.5,0,none,20,18,Woman,Right,
12,1,1,0.7998695000005682,['n'],1,right,none,-99,-99,0.5,0,none,20,18,Woman,Right,
13,1,1,1.366930299998785,['c'],1,left,none,-99,-99,0.5,0,none,20,18,Woman,Right,
14,1,1,0.6671021000001929,['n'],0,left,none,-99,-99,0.5,0,none,20,18,Woman,Right,
15,1,1,2.2841393999988213,['n'],1,right,none,-99,-99,0.5,0,none,20,18,Woman,Right,
16,1,1,1.3336300999999366,['c'],1,left,none,-99,-99,0.5,0,none,20,18,Woman,Right,
17,1,1,1.382500899999286,['n'],1,right,none,-99,-99,0.5,0,none,20,18,Woman,Right,
18,1,1,1.7487348000013299,['c'],1,left,none,-99,-99,0.5,0,none,20,18,Woman,Right,
19,1,1,1.5838180999999167,['c'],0,right,none,-99,-99,0.5,0,none,20,18,Woman,Right,
20,1,1,1.4172559999988152,['c'],1,left,none,-99,-99,0.5,0,none,20,18,Woman,Right,
21,1,1,1.499221000000034,['n'],1,right,none,-99,-99,0.5,0,none,20,18,Woman,Right,
22,1,1,1.050013799998851,['n'],1,right,none,-99,-99,0.5,0,none,20,18,Woman,Right,
23,1,1,0.8990594999995665,['c'],1,left,none,-99,-99,0.5,0,none,20,18,Woman,Right,
0,2,1,0.9513286999990669,['c'],0,right,none,-99,-99,0.4,0,none,20,18,Woman,Right,
1,2,1,1.3840290999996796,['n'],1,right,none,-99,-99,0.4,0,none,20,18,Woman,Right,
2,2,1,1.8659518999993452,['c'],0,right,none,-99,-99,0.1,0,none,20,18,Woman,Right,
3,2,1,1.499352300001192,['c'],1,left,none,-99,-99,0.4,0,none,20,18,Woman,Right,
4,2,1,1.250613500000327,['c'],0,right,none,-99,-99,0.1,0,none,20,18,Woman,Right,
5,2,1,2.1334047000000282,['n'],0,left,none,-99,-99,0.2,0,none,20,18,Woman,Right,
6,2,1,2.416523199999574,['n'],1,right,none,-99,-99,0.2,0,none,20,18,Woman,Right,
7,2,1,0.9493012000002636,['c'],1,left,none,-99,-99,0.2,0,none,20,18,Woman,Right,
8,2,1,0.9834390999985771,['c'],0,right,none,-99,-99,0.2,0,none,20,18,Woman,Right,
9,2,1,2.2841291000004276,['c'],0,right,none,-99,-99,0.4,0,none,20,18,Woman,Right,
10,2,1,2.7674264999986917,['n'],1,right,none,-99,-99,0.1,0,none,20,18,Woman,Right,
11,2,1,0.8838849999992817,['n'],0,left,none,-99,-99,0.1,0,none,20,18,Woman,Right,
12,2,1,3.0333372999994026,['c'],0,right,none,-99,-99,0.2,0,none,20,18,Woman,Right,
13,2,1,1.9502025000001595,['c'],1,left,none,-99,-99,0.2,0,none,20,18,Woman,Right,
14,2,1,1.7673919999997452,['n'],1,right,none,-99,-99,0.1,0,none,20,18,Woman,Right,
15,2,1,0.9998806999992667,['c'],1,left,none,-99,-99,0.4,0,none,20,18,Woman,Right,
16,2,1,1.8670474999998987,['c'],1,left,none,-99,-99,0.1,0,none,20,18,Woman,Right,
17,2,1,1.3673675999998522,['n'],1,right,none,-99,-99,0.1,0,none,20,18,Woman,Right,
18,2,1,1.3997487000015099,['c'],1,left,none,-99,-99,0.1,0,none,20,18,Woman,Right,
19,2,1,1.615465499999118,['c'],0,right,none,-99,-99,0.2,0,none,20,18,Woman,Right,
20,2,1,1.9492665999987366,['n'],0,left,none,-99,-99,0.2,0,none,20,18,Woman,Right,
21,2,1,3.183418200000233,['c'],1,left,none,-99,-99,0.4,0,none,20,18,Woman,Right,
22,2,1,1.0667395000000397,['c'],1,left,none,-99,-99,0.4,0,none,20,18,Woman,Right,
23,2,1,1.3333676000002015,['c'],1,left,none,-99,-99,0.4,0,none,20,18,Woman,Right,
0,2,2,1.0168744000002334,['c'],0,right,none,-99,-99,0.4,0,none,20,18,Woman,Right,
1,2,2,1.0667806000001292,['c'],1,left,none,-99,-99,0.4,0,none,20,18,Woman,Right,
2,2,2,1.2169463999998698,['n'],0,left,none,-99,-99,0.1,0,none,20,18,Woman,Right,
3,2,2,1.2339654999996128,['n'],1,right,none,-99,-99,0.4,0,none,20,18,Woman,Right,
4,2,2,1.5163033999997424,['n'],1,right,none,-99,-99,0.1,0,none,20,18,Woman,Right,
5,2,2,1.6506635999994614,['c'],1,left,none,-99,-99,0.2,0,none,20,18,Woman,Right,
6,2,2,1.7999629999994795,['n'],1,right,none,-99,-99,0.2,0,none,20,18,Woman,Right,
7,2,2,1.083779599999616,['n'],0,left,none,-99,-99,0.2,0,none,20,18,Woman,Right,
8,2,2,1.0162472000010894,['n'],1,right,none,-99,-99,0.2,0,none,20,18,Woman,Right,
9,2,2,1.7336462999992364,['c'],0,right,none,-99,-99,0.4,0,none,20,18,Woman,Right,
10,2,2,1.8168667999998434,['c'],1,left,none,-99,-99,0.1,0,none,20,18,Woman,Right,
11,2,2,2.1003459000003204,['c'],1,left,none,-99,-99,0.1,0,none,20,18,Woman,Right,
12,2,2,1.266236299999946,['n'],1,right,none,-99,-99,0.2,0,none,20,18,Woman,Right,
13,2,2,1.8176708999999391,['n'],1,right,none,-99,-99,0.2,0,none,20,18,Woman,Right,
14,2,2,1.9001797000000806,['c'],1,left,none,-99,-99,0.1,0,none,20,18,Woman,Right,
15,2,2,1.6999521999987337,['n'],1,right,none,-99,-99,0.4,0,none,20,18,Woman,Right,
16,2,2,2.284508900000219,['c'],1,left,none,-99,-99,0.1,0,none,20,18,Woman,Right,
17,2,2,1.3669585000006919,['c'],0,right,none,-99,-99,0.1,0,none,20,18,Woman,Right,
18,2,2,2.433725000000777,['c'],0,right,none,-99,-99,0.1,0,none,20,18,Woman,Right,
19,2,2,3.583724500000244,['n'],0,left,none,-99,-99,0.2,0,none,20,18,Woman,Right,
20,2,2,2.067196399999375,['n'],0,left,none,-99,-99,0.2,0,none,20,18,Woman,Right,
21,2,2,2.633214699999371,['n'],1,right,none,-99,-99,0.4,0,none,20,18,Woman,Right,
22,2,2,1.233096599999044,['c'],1,left,none,-99,-99,0.4,0,none,20,18,Woman,Right,
23,2,2,1.2507373999997071,['c'],1,left,none,-99,-99,0.4,0,none,20,18,Woman,Right,
0,3,1,5.016559199999392,x,-99,right,none,-99,-99,0.4,1,none,20,18,Woman,Right,
1,3,1,5.001145499998529,x,-99,left,none,-99,-99,0.1,1,none,20,18,Woman,Right,
2,3,1,1.2851847000001726,['n'],0,left,['0'],1,0.08415179999974498,0.1,0,none,20,18,Woman,Right,
3,3,1,2.1669266000008065,['c'],0,right,['3'],4,1.901002000000517,0.1,0,none,20,18,Woman,Right,
4,3,1,1.650354100000186,['c'],1,left,['1'],6,1.2013597000004665,0.4,0,none,20,18,Woman,Right,
5,3,1,1.5174786000006861,['c'],1,left,['2'],5,1.151020499999504,0.4,0,none,20,18,Woman,Right,
6,3,1,0.9166549999990821,['n'],1,right,['9'],2,1.2680946999989828,0.4,0,none,20,18,Woman,Right,
7,3,1,2.382622300001458,['n'],0,left,none,-99,-99,0.2,1,none,20,18,Woman,Right,
8,3,1,1.1340407999996387,['c'],0,right,['3'],4,1.8013153000010789,0.2,0,none,20,18,Woman,Right,
9,3,1,1.666497000000163,['c'],1,left,['2'],5,1.100176799998735,0.2,0,none,20,18,Woman,Right,
10,3,1,1.0671540000003006,['n'],0,left,['2'],5,1.284700199999861,0.4,0,none,20,18,Woman,Right,
11,3,1,0.9004063000011229,['c'],1,left,['3'],4,0.7843394999999873,0.2,0,none,20,18,Woman,Right,
12,3,1,1.2998587000001862,['c'],1,left,['1'],6,1.4171556000001146,0.4,0,none,20,18,Woman,Right,
13,3,1,1.4004002999990917,['n'],0,left,['8'],3,1.5678568000002997,0.4,0,none,20,18,Woman,Right,
14,3,1,1.7173637999985658,['c'],0,right,['8'],3,2.100866099999621,0.1,0,none,20,18,Woman,Right,
15,3,1,1.1167901999997412,['n'],1,right,['2'],5,1.401147000000492,0.4,0,none,20,18,Woman,Right,
16,3,1,1.582646399998339,['c'],1,left,['3'],4,1.867485899998428,0.1,0,none,20,18,Woman,Right,
17,3,1,1.4824708999985887,['n'],1,right,['1'],6,1.8342941999999312,0.1,0,none,20,18,Woman,Right,
18,3,1,1.4000501000009535,['n'],1,right,['3'],4,3.450887799999691,0.2,0,none,20,18,Woman,Right,
19,3,1,1.7991556999986642,['n'],1,right,['2'],5,1.967967000000499,0.1,0,none,20,18,Woman,Right,
20,3,1,2.316900699999678,['n'],1,right,['3'],4,2.084311999999045,0.2,0,none,20,18,Woman,Right,
21,3,1,1.2337695000005624,['c'],1,left,['2'],5,1.3509781000011571,0.2,0,none,20,18,Woman,Right,
22,3,1,1.4002729000003455,['c'],0,right,['2'],5,0.951520900000105,0.2,0,none,20,18,Woman,Right,
23,3,1,1.7504021000004286,['n'],1,right,['8'],3,1.9164834999992308,0.1,0,none,20,18,Woman,Right,
0,4,1,3.183120699999563,['c'],0,right,['3'],4,3.4679344999985915,0.2,0,FastAcc,20,18,Woman,Right,
1,4,1,1.1330397999990964,['c'],0,right,none,-99,-99,0.2,1,FastAcc,20,18,Woman,Right,
2,4,1,2.2175910000005388,['n'],0,left,['3'],4,1.801463199999489,0.1,0,FastAcc,20,18,Woman,Right,
3,4,1,2.183449100000871,['c'],1,left,['3'],4,1.934193299999606,0.2,0,FastAcc,20,18,Woman,Right,
4,4,1,1.9498370999990584,['n'],0,left,['3'],4,1.6178926000011415,0.2,0,FastAcc,20,18,Woman,Right,
5,4,1,1.416793599999437,['c'],0,right,['3'],4,3.2674384000001737,0.2,0,FastAcc,20,18,Woman,Right,
6,4,1,1.46752799999922,['n'],1,right,['8'],3,1.517416000000594,0.2,0,FastAcc,20,18,Woman,Right,
7,4,1,1.5831417999997939,['c'],0,right,['2'],5,1.0678045999993628,0.1,0,FastAcc,20,18,Woman,Right,
8,4,1,1.950466599999345,['n'],1,right,['3'],4,1.350220199999967,0.2,0,FastAcc,20,18,Woman,Right,
9,4,1,2.116590499999802,['n'],1,right,['2'],5,1.1342718999985664,0.4,0,FastAcc,20,18,Woman,Right,
10,4,1,2.084711100000277,['c'],0,right,['3'],4,1.9008064000008744,0.2,0,FastAcc,20,18,Woman,Right,
11,4,1,2.0345287999989523,['c'],0,right,['3'],4,1.8505736000006436,0.4,0,FastAcc,20,18,Woman,Right,
12,4,1,2.5494213000001764,['c'],1,left,['8'],3,2.1348059000010835,0.1,0,FastAcc,20,18,Woman,Right,
13,4,1,1.349550700000691,['n'],0,left,['3'],4,0.9341937000008329,0.4,0,FastAcc,20,18,Woman,Right,
14,4,1,1.6330877999989752,['n'],0,left,['3'],4,3.0504773000011483,0.4,0,FastAcc,20,18,Woman,Right,
15,4,1,2.3332844999986264,['n'],1,right,['2'],5,1.2843369000001985,0.1,0,FastAcc,20,18,Woman,Right,
16,4,1,3.0331865000007383,['c'],1,left,['3'],4,2.5344623000000865,0.1,0,FastAcc,20,18,Woman,Right,
17,4,1,1.5662909999991825,['n'],1,right,['2'],5,1.2351281999999628,0.4,0,FastAcc,20,18,Woman,Right,
18,4,1,1.28252749999956,['c'],1,left,['3'],4,1.8688071000015043,0.4,0,FastAcc,20,18,Woman,Right,
19,4,1,0.8996316000011575,['c'],0,right,['3'],4,1.0178372999998828,0.2,0,FastAcc,20,18,Woman,Right,
20,4,1,1.1838793999995687,['n'],1,right,['3'],4,0.9180627999994613,0.4,0,FastAcc,20,18,Woman,Right,
21,4,1,1.7834536999998818,['c'],1,left,['8'],3,1.0340715000002092,0.2,0,FastAcc,20,18,Woman,Right,
22,4,1,1.9166069000002608,['n'],0,left,['8'],3,2.201048200000514,0.1,0,FastAcc,20,18,Woman,Right,
23,4,1,1.9502971999991132,['c'],1,left,['9'],2,2.667775800000527,0.1,0,FastAcc,20,18,Woman,Right,
24,4,1,1.6496431999985361,['n'],1,right,['2'],5,1.7676707000009628,0.2,0,FastAcc,20,18,Woman,Right,
25,4,1,1.8667783000000782,['n'],1,right,['3'],4,1.9175608999994438,0.4,0,FastAcc,20,18,Woman,Right,
26,4,1,1.9335064999995666,['c'],0,right,['3'],4,1.8839570000000094,0.4,0,FastAcc,20,18,Woman,Right,
27,4,1,1.4335037000000739,['n'],0,left,['3'],4,2.1845186999998987,0.2,0,FastAcc,20,18,Woman,Right,
28,4,1,1.6831844999996974,['c'],1,left,['2'],5,2.2844748000006803,0.4,0,FastAcc,20,18,Woman,Right,
29,4,1,1.083743900000627,['n'],1,right,['3'],4,2.284277500000826,0.4,0,FastAcc,20,18,Woman,Right,
30,4,1,1.9666206000001694,['n'],0,left,['8'],3,2.9500107999992906,0.1,0,FastAcc,20,18,Woman,Right,
31,4,1,1.650047099999938,['c'],1,left,['3'],4,1.984234600000491,0.4,0,FastAcc,20,18,Woman,Right,
32,4,1,2.2167280000012397,['n'],0,left,['9'],2,2.1843120000012277,0.1,0,FastAcc,20,18,Woman,Right,
33,4,1,1.7165801000010106,['c'],1,left,['3'],4,3.168055900001491,0.4,0,FastAcc,20,18,Woman,Right,
34,4,1,1.882736899999145,['c'],1,left,['3'],4,2.068085599999904,0.2,0,FastAcc,20,18,Woman,Right,
35,4,1,2.0831515999998373,['c'],0,right,['3'],4,1.6347225999998045,0.4,0,FastAcc,20,18,Woman,Right,
36,4,1,2.4332355999995343,['c'],1,left,['8'],3,3.401341200000388,0.4,0,FastAcc,20,18,Woman,Right,
37,4,1,1.9179039999999077,['n'],0,left,['3'],4,3.9505551000002015,0.1,0,FastAcc,20,18,Woman,Right,
38,4,1,3.06684309999946,['n'],0,left,['9'],2,3.2340538000007655,0.1,0,FastAcc,20,18,Woman,Right,
39,4,1,2.9160573999997723,['n'],0,left,['3'],4,2.217753900000389,0.1,0,FastAcc,20,18,Woman,Right,
40,4,1,1.3666791999985435,['c'],1,left,['3'],4,1.7674831000003906,0.2,0,FastAcc,20,18,Woman,Right,
41,4,1,2.984081700000388,['c'],0,right,['3'],4,1.2176496000010957,0.4,0,FastAcc,20,18,Woman,Right,
42,4,1,1.9670170000008511,['c'],0,right,['9'],2,1.7178119000000152,0.1,0,FastAcc,20,18,Woman,Right,
43,4,1,2.449248599999919,['n'],1,right,['3'],4,1.8341049999999086,0.1,0,FastAcc,20,18,Woman,Right,
44,4,1,2.5329239000002417,['c'],0,right,['3'],4,1.1506439999993745,0.2,0,FastAcc,20,18,Woman,Right,
45,4,1,2.132454599999619,['n'],1,right,['9'],2,1.3687962999993033,0.2,0,FastAcc,20,18,Woman,Right,
46,4,1,1.0335553999993863,['c'],0,right,['8'],3,1.534541299999546,0.2,0,FastAcc,20,18,Woman,Right,
47,4,1,1.1660513000006176,['c'],1,left,['8'],3,2.6506367000001774,0.1,0,FastAcc,20,18,Woman,Right,
48,4,1,2.1659271999997145,['c'],1,left,['3'],4,1.8672710999999254,0.1,0,FastAcc,20,18,Woman,Right,
49,4,1,1.4651433999988512,['n'],1,right,['3'],4,0.9849493999990955,0.2,0,FastAcc,20,18,Woman,Right,
50,4,1,2.0495743000010407,['n'],0,left,['3'],4,3.3843662999988737,0.4,0,FastAcc,20,18,Woman,Right,
51,4,1,2.0989195999991352,['c'],1,left,['3'],4,2.768691699999181,0.1,0,FastAcc,20,18,Woman,Right,
52,4,1,2.2495228000007046,['n'],0,left,['8'],3,3.6674872000003234,0.1,0,FastAcc,20,18,Woman,Right,
53,4,1,1.7842693000002328,['n'],0,left,['3'],4,1.3846287999986089,0.1,0,FastAcc,20,18,Woman,Right,
54,4,1,2.0152431999995315,['c'],0,right,['3'],4,2.0352924999988318,0.2,0,FastAcc,20,18,Woman,Right,
55,4,1,0.916895199999999,['n'],1,right,['3'],4,2.6007478999999876,0.4,0,FastAcc,20,18,Woman,Right,
56,4,1,3.0668057999992016,['c'],1,left,['3'],4,1.5498659999993833,0.1,0,FastAcc,20,18,Woman,Right,
57,4,1,1.967230500000369,['n'],1,right,['3'],4,2.3010551999996096,0.4,0,FastAcc,20,18,Woman,Right,
58,4,1,3.8999198999990767,['n'],1,right,['3'],4,2.034404900001391,0.2,0,FastAcc,20,18,Woman,Right,
59,4,1,2.965053900001294,['c'],0,right,['3'],4,1.4022764000001189,0.4,0,FastAcc,20,18,Woman,Right,
0,5,1,1.216927299999952,['c'],1,left,['3'],4,0.8013630000004923,0.4,0,FastFast,20,18,Woman,Right,
1,5,1,1.1516819000007672,['c'],1,left,['3'],4,0.4350744000003033,0.2,0,FastFast,20,18,Woman,Right,
2,5,1,1.0836825999995199,['n'],0,left,['8'],3,0.8677108000010776,0.1,0,FastFast,20,18,Woman,Right,
3,5,1,1.883493000001181,['c'],1,left,['3'],4,0.3845694999999978,0.2,0,FastFast,20,18,Woman,Right,
4,5,1,1.500023599999622,['c'],1,left,['3'],4,0.36784129999978177,0.1,0,FastFast,20,18,Woman,Right,
5,5,1,1.500201000000743,['n'],1,right,['3'],4,0.750945200001297,0.2,0,FastFast,20,18,Woman,Right,
6,5,1,1.2999657000000298,['n'],1,right,['9'],2,1.4844976000003953,0.1,0,FastFast,20,18,Woman,Right,
7,5,1,1.449768899999981,['n'],0,left,['3'],4,0.7181419999997161,0.4,0,FastFast,20,18,Woman,Right,
8,5,1,1.365922999999384,['c'],1,left,['8'],3,1.0183101000002353,0.2,0,FastFast,20,18,Woman,Right,
9,5,1,1.665708900000027,['c'],0,right,['3'],4,0.3851626000014221,0.4,0,FastFast,20,18,Woman,Right,
10,5,1,1.5669192000004841,['n'],1,right,['3'],4,1.3331953000015346,0.1,0,FastFast,20,18,Woman,Right,
11,5,1,1.8340358000004926,['c'],1,left,['2'],5,0.8843207999998413,0.1,0,FastFast,20,18,Woman,Right,
12,5,1,1.9667019000007713,['c'],1,left,['3'],4,0.4338908000008814,0.4,0,FastFast,20,18,Woman,Right,
13,5,1,1.0335305999997217,['n'],1,right,['9'],2,2.067828400000508,0.2,0,FastFast,20,18,Woman,Right,
14,5,1,1.4330343000001449,['c'],0,right,['9'],2,1.0849061000008078,0.2,0,FastFast,20,18,Woman,Right,
15,5,1,1.4833913999991637,['n'],0,left,['3'],4,0.8346051000007719,0.2,0,FastFast,20,18,Woman,Right,
16,5,1,1.6349731999998767,['n'],1,right,['2'],5,1.8005904000001465,0.4,0,FastFast,20,18,Woman,Right,
17,5,1,1.4676450000006298,['c'],0,right,['9'],2,0.8171760000004724,0.1,0,FastFast,20,18,Woman,Right,
18,5,1,1.399683300000106,['c'],1,left,['2'],5,0.8344413999984681,0.4,0,FastFast,20,18,Woman,Right,
19,5,1,0.9664983999991819,['n'],1,right,['2'],5,0.8344704999999522,0.2,0,FastFast,20,18,Woman,Right,
20,5,1,1.9161924,['n'],1,right,['3'],4,0.8850044000009802,0.1,0,FastFast,20,18,Woman,Right,
21,5,1,1.2667356000001746,['c'],1,left,['2'],5,1.067801999999574,0.2,0,FastFast,20,18,Woman,Right,
22,5,1,1.601298499999757,['c'],1,left,['3'],4,0.6172974999990402,0.4,0,FastFast,20,18,Woman,Right,
23,5,1,1.0660316000012244,['n'],1,right,['8'],3,1.651447400001416,0.4,0,FastFast,20,18,Woman,Right,
24,5,1,1.4495592000002944,['n'],0,left,['2'],5,0.7504871000001003,0.4,0,FastFast,20,18,Woman,Right,
25,5,1,1.2003029999996215,['c'],0,right,['3'],4,0.6012219999993249,0.4,0,FastFast,20,18,Woman,Right,
26,5,1,1.166376200000741,['n'],1,right,['2'],5,0.8850433000006888,0.1,0,FastFast,20,18,Woman,Right,
27,5,1,1.3829448999986198,['c'],1,left,['3'],4,0.5509490999993432,0.1,0,FastFast,20,18,Woman,Right,
28,5,1,1.3992613999998866,['c'],0,right,['2'],5,0.7502557999996498,0.1,0,FastFast,20,18,Woman,Right,
29,5,1,1.4164837999996962,['n'],0,left,['3'],4,1.6339867999995477,0.2,0,FastFast,20,18,Woman,Right,
30,5,1,1.234948400000576,['c'],0,right,['3'],4,0.8009837000008702,0.4,0,FastFast,20,18,Woman,Right,
31,5,1,1.1985350999984803,['c'],1,left,['3'],4,0.5347257000012178,0.2,0,FastFast,20,18,Woman,Right,
32,5,1,1.3989045999987866,['c'],1,left,['3'],4,0.7842710000004445,0.4,0,FastFast,20,18,Woman,Right,
33,5,1,1.351327800000945,['n'],1,right,['9'],2,0.8997190000009141,0.2,0,FastFast,20,18,Woman,Right,
34,5,1,1.3855547000002844,['c'],1,left,['8'],3,1.0174936000003072,0.4,0,FastFast,20,18,Woman,Right,
35,5,1,1.5505886000009923,['c'],0,right,['3'],4,0.9331369999999879,0.1,0,FastFast,20,18,Woman,Right,
36,5,1,2.150211300000592,['c'],1,left,['3'],4,0.4175496000007115,0.1,0,FastFast,20,18,Woman,Right,
37,5,1,0.8680070000009437,['n'],0,left,['3'],4,0.9164997999996558,0.2,0,FastFast,20,18,Woman,Right,
38,5,1,1.4680152999990241,['c'],0,right,['3'],4,0.733597300000838,0.2,0,FastFast,20,18,Woman,Right,
39,5,1,1.134688999998616,['c'],1,left,['3'],4,0.38402750000022934,0.4,0,FastFast,20,18,Woman,Right,
40,5,1,1.4662479999988136,['n'],0,left,['8'],3,1.2002733999997872,0.4,0,FastFast,20,18,Woman,Right,
41,5,1,1.6999052999999549,['n'],1,right,['3'],4,0.668829199999891,0.1,0,FastFast,20,18,Woman,Right,
42,5,1,1.5492359999989276,['n'],0,left,['3'],4,0.7522463000004791,0.4,0,FastFast,20,18,Woman,Right,
43,5,1,1.7174783000009484,['n'],1,right,['3'],4,0.6838466999997763,0.2,0,FastFast,20,18,Woman,Right,
44,5,1,1.6666598000010708,['n'],1,right,['8'],3,0.7501320999999734,0.1,0,FastFast,20,18,Woman,Right,
45,5,1,1.5341168000013568,['c'],1,left,['8'],3,1.2510152000013477,0.4,0,FastFast,20,18,Woman,Right,
46,5,1,1.5658407999999326,['n'],1,right,['3'],4,0.9521632999985741,0.1,0,FastFast,20,18,Woman,Right,
47,5,1,1.3824894000008499,['c'],0,right,['3'],4,0.6188105999990512,0.4,0,FastFast,20,18,Woman,Right,
48,5,1,1.8840545000002749,['n'],1,right,['2'],5,1.3831430999998702,0.4,0,FastFast,20,18,Woman,Right,
49,5,1,1.734022599999662,['c'],0,right,['3'],4,0.7672918000007485,0.1,0,FastFast,20,18,Woman,Right,
50,5,1,1.3169534000007843,['n'],1,right,['3'],4,0.8175129999999626,0.4,0,FastFast,20,18,Woman,Right,
51,5,1,2.166971200000262,['c'],0,right,['3'],4,0.7674537000002601,0.1,0,FastFast,20,18,Woman,Right,
52,5,1,0.9495554999994056,['c'],1,left,['3'],4,0.334216600000218,0.2,0,FastFast,20,18,Woman,Right,
53,5,1,1.3499690999997256,['n'],1,right,['3'],4,1.4187562000006437,0.1,0,FastFast,20,18,Woman,Right,
54,5,1,1.1494074000002001,['n'],0,left,['3'],4,0.35094019999996817,0.2,0,FastFast,20,18,Woman,Right,
55,5,1,1.41650269999991,['n'],0,left,['2'],5,0.7342355999990104,0.2,0,FastFast,20,18,Woman,Right,
56,5,1,1.2680608999999095,['c'],0,right,['3'],4,1.3673129999988305,0.1,0,FastFast,20,18,Woman,Right,
57,5,1,0.8184340999996493,['n'],1,right,['3'],4,1.2513362999998208,0.1,0,FastFast,20,18,Woman,Right,
58,5,1,1.6663348999991285,['n'],0,left,['3'],4,0.7847596999999951,0.2,0,FastFast,20,18,Woman,Right,
59,5,1,1.7834225000005972,['c'],1,left,['3'],4,0.6497909999998228,0.2,0,FastFast,20,18,Woman,Right,
0,6,1,2.1178108000003704,['c'],1,left,['3'],4,1.3678414000005432,0.1,0,AccFast,20,18,Woman,Right,
1,6,1,2.383775499998592,['c'],0,right,['3'],4,1.067595299999084,0.4,0,AccFast,20,18,Woman,Right,
2,6,1,1.3161135999998805,['n'],1,right,['3'],4,0.9341574999998556,0.4,0,AccFast,20,18,Woman,Right,
3,6,1,1.1838771999991877,['c'],1,left,['3'],4,0.6010406000004878,0.1,0,AccFast,20,18,Woman,Right,
4,6,1,1.532778500000859,['n'],1,right,['3'],4,0.6020142999987002,0.1,0,AccFast,20,18,Woman,Right,
5,6,1,1.0324689999997645,['c'],1,left,['2'],5,0.6674433999996836,0.4,0,AccFast,20,18,Woman,Right,
6,6,1,1.3519009000010556,['c'],1,left,['2'],5,1.067629900000611,0.1,0,AccFast,20,18,Woman,Right,
7,6,1,2.382537699999375,['n'],0,left,['3'],4,0.9013262999997096,0.1,0,AccFast,20,18,Woman,Right,
8,6,1,1.599446899999748,['n'],1,right,['3'],4,0.9010567999994237,0.2,0,AccFast,20,18,Woman,Right,
9,6,1,1.2331085999994684,['c'],0,right,['2'],5,1.034187599998404,0.1,0,AccFast,20,18,Woman,Right,
10,6,1,1.7997156000001269,['n'],1,right,['8'],3,0.8517051999988325,0.4,0,AccFast,20,18,Woman,Right,
11,6,1,1.7339031000010436,['c'],1,left,['8'],3,0.8340869999992719,0.1,0,AccFast,20,18,Woman,Right,
12,6,1,1.3499873999990086,['c'],0,right,['3'],4,0.5013681000000361,0.1,0,AccFast,20,18,Woman,Right,
13,6,1,4.082252000000153,['c'],1,left,['3'],4,0.5847848000012164,0.2,0,AccFast,20,18,Woman,Right,
14,6,1,1.6681000999997195,['c'],1,left,['8'],3,1.4007816000012099,0.2,0,AccFast,20,18,Woman,Right,
15,6,1,2.183572299998559,['n'],1,right,['3'],4,0.46736260000034235,0.2,0,AccFast,20,18,Woman,Right,
16,6,1,1.8159765000000334,['c'],0,right,['2'],5,0.7849008000011963,0.1,0,AccFast,20,18,Woman,Right,
17,6,1,1.3836874999997235,['c'],1,left,['3'],4,0.5352462000009837,0.4,0,AccFast,20,18,Woman,Right,
18,6,1,1.733507400000235,['n'],0,left,['8'],3,0.6012719999998808,0.2,0,AccFast,20,18,Woman,Right,
19,6,1,1.5498857000002317,['c'],1,left,['2'],5,0.534448300000804,0.4,0,AccFast,20,18,Woman,Right,
20,6,1,1.8505134000006365,['n'],1,right,['3'],4,0.7511537999998836,0.2,0,AccFast,20,18,Woman,Right,
21,6,1,1.8337897000001249,['n'],0,left,['3'],4,0.3013670000000275,0.2,0,AccFast,20,18,Woman,Right,
22,6,1,2.3825868999992963,['c'],0,right,['3'],4,0.23476300000038464,0.1,0,AccFast,20,18,Woman,Right,
23,6,1,1.7163674000003084,['n'],1,right,['3'],4,0.6680035000008502,0.2,0,AccFast,20,18,Woman,Right,
24,6,1,1.2676353999995627,['c'],0,right,['3'],4,0.2506680000005872,0.2,0,AccFast,20,18,Woman,Right,
25,6,1,1.9836852999997063,['n'],0,left,['3'],4,0.3677585999994335,0.2,0,AccFast,20,18,Woman,Right,
26,6,1,1.9502916000001278,['c'],1,left,['3'],4,0.26820140000018,0.4,0,AccFast,20,18,Woman,Right,
27,6,1,1.4341072999995959,['c'],1,left,['2'],5,0.434017199999289,0.2,0,AccFast,20,18,Woman,Right,
28,6,1,1.3837867000002007,['n'],1,right,['3'],4,0.6502402999994956,0.1,0,AccFast,20,18,Woman,Right,
29,6,1,1.333106799998859,['c'],1,left,['3'],4,0.38445279999905324,0.2,0,AccFast,20,18,Woman,Right,
30,6,1,1.1499329999987822,['n'],1,right,['2'],5,0.2680292000004556,0.4,0,AccFast,20,18,Woman,Right,
31,6,1,1.7149853999999323,['c'],0,right,['2'],5,0.417815700000574,0.4,0,AccFast,20,18,Woman,Right,
32,6,1,1.3514233000005333,['n'],1,right,['3'],4,0.3007884999988164,0.1,0,AccFast,20,18,Woman,Right,
33,6,1,1.7831196000006457,['c'],0,right,['3'],4,0.23516949999975623,0.4,0,AccFast,20,18,Woman,Right,
34,6,1,1.999835600001461,['n'],1,right,['3'],4,0.23462489999838,0.1,0,AccFast,20,18,Woman,Right,
35,6,1,1.8665820000005624,['c'],0,right,['2'],5,0.35121949999847857,0.2,0,AccFast,20,18,Woman,Right,
36,6,1,1.848808700000518,['c'],0,right,['3'],4,0.28494270000010147,0.4,0,AccFast,20,18,Woman,Right,
37,6,1,1.9500409000011132,['c'],1,left,['3'],4,0.23434799999995448,0.2,0,AccFast,20,18,Woman,Right,
38,6,1,1.517156399999294,['n'],0,left,['3'],4,0.35115790000054403,0.1,0,AccFast,20,18,Woman,Right,
39,6,1,1.3667996000003768,['c'],1,left,['2'],5,0.36723559999882127,0.4,0,AccFast,20,18,Woman,Right,
40,6,1,1.3667075000012119,['n'],1,right,['3'],4,0.36720100000093225,0.2,0,AccFast,20,18,Woman,Right,
41,6,1,1.2507286000000022,['c'],1,left,['3'],4,0.26779159999932745,0.4,0,AccFast,20,18,Woman,Right,
42,6,1,1.5833985999997822,['c'],0,right,['3'],4,0.20224640000014915,0.1,0,AccFast,20,18,Woman,Right,
43,6,1,1.5172824000001128,['c'],1,left,['2'],5,0.31798449999951117,0.4,0,AccFast,20,18,Woman,Right,
44,6,1,1.9671280000002298,['c'],0,right,['8'],3,1.1677428999992117,0.1,0,AccFast,20,18,Woman,Right,
45,6,1,1.949508200001219,['n'],0,left,['2'],5,0.7848243000007642,0.1,0,AccFast,20,18,Woman,Right,
46,6,1,2.616780199999994,['c'],1,left,['3'],4,0.618209599999318,0.2,0,AccFast,20,18,Woman,Right,
47,6,1,2.4324635000011767,['c'],1,left,['2'],5,0.717430399998193,0.4,0,AccFast,20,18,Woman,Right,
48,6,1,1.4331992999996146,['n'],1,right,['3'],4,0.23376270000153454,0.2,0,AccFast,20,18,Woman,Right,
49,6,1,1.950588699999571,['n'],1,right,['3'],4,0.3682778000002145,0.4,0,AccFast,20,18,Woman,Right,
50,6,1,1.7335790999986784,['n'],1,right,['3'],4,0.284748000000036,0.1,0,AccFast,20,18,Woman,Right,
51,6,1,2.533791100000599,['n'],0,left,['3'],4,0.21786780000002182,0.1,0,AccFast,20,18,Woman,Right,
52,6,1,2.683768599999894,['c'],0,right,['2'],5,0.21763339999961318,0.2,0,AccFast,20,18,Woman,Right,
53,6,1,2.766740999999456,['n'],1,right,['3'],4,0.15056249999906868,0.2,0,AccFast,20,18,Woman,Right,
54,6,1,1.083789300000717,['c'],1,left,['2'],5,0.31733840000015334,0.4,0,AccFast,20,18,Woman,Right,
55,6,1,0.9167035000009491,['c'],1,left,['3'],4,0.20125440000083472,0.1,0,AccFast,20,18,Woman,Right,
56,6,1,1.117526899999575,['c'],1,left,['2'],5,0.20157130000006873,0.4,0,AccFast,20,18,Woman,Right,
57,6,1,1.8161357000008138,['c'],1,left,['3'],4,0.1515540999989753,0.2,0,AccFast,20,18,Woman,Right,
58,6,1,1.2170640000003914,['n'],0,left,['8'],3,0.21725960000003397,0.4,0,AccFast,20,18,Woman,Right,
59,6,1,2.467126499999722,['n'],1,right,['2'],5,0.8174153999989358,0.4,0,AccFast,20,18,Woman,Right,
0,7,1,2.2337525999992067,['c'],1,left,['3'],4,2.2172888000004605,0.2,0,AccAcc,20,18,Woman,Right,
1,7,1,1.649649099999806,['c'],0,right,['9'],2,1.5347428000004584,0.1,0,AccAcc,20,18,Woman,Right,
2,7,1,1.866468000000168,['n'],0,left,['2'],5,0.868228100000124,0.1,0,AccAcc,20,18,Woman,Right,
3,7,1,1.8996956999999384,['c'],1,left,['2'],5,2.0343245000003662,0.4,0,AccAcc,20,18,Woman,Right,
4,7,1,1.3335424999986571,['c'],0,right,['9'],2,2.650293299999248,0.4,0,AccAcc,20,18,Woman,Right,
5,7,1,1.666287600000942,['n'],1,right,['2'],5,1.4513531000011426,0.4,0,AccAcc,20,18,Woman,Right,
6,7,1,3.1170707999990555,['n'],0,left,['3'],4,0.6182405999988987,0.1,0,AccAcc,20,18,Woman,Right,
7,7,1,3.199554299999363,['n'],1,right,['8'],3,1.2843635000008362,0.4,0,AccAcc,20,18,Woman,Right,
8,7,1,2.1170070999996824,['n'],0,left,['3'],4,1.3343070000009902,0.1,0,AccAcc,20,18,Woman,Right,
9,7,1,2.6667737000007037,['c'],1,left,['3'],4,0.7517184000007546,0.4,0,AccAcc,20,18,Woman,Right,
10,7,1,2.050018199999613,['n'],1,right,['3'],4,0.7511653999990813,0.2,0,AccAcc,20,18,Woman,Right,
11,7,1,1.3326147999996465,['c'],1,left,['3'],4,0.38397880000047735,0.4,0,AccAcc,20,18,Woman,Right,
12,7,1,2.9828224000011687,['n'],0,left,['8'],3,0.8171626000003016,0.1,0,AccAcc,20,18,Woman,Right,
13,7,1,1.750415200000134,['n'],1,right,['3'],4,0.21711899999900197,0.2,0,AccAcc,20,18,Woman,Right,
14,7,1,1.4985907999998744,['c'],1,left,['3'],4,1.2178676999992604,0.1,0,AccAcc,20,18,Woman,Right,
15,7,1,1.6170952000011312,['c'],0,right,['3'],4,0.9513283999986015,0.1,0,AccAcc,20,18,Woman,Right,
16,7,1,2.0168164999995497,['n'],0,left,none,-99,-99,0.4,1,AccAcc,20,18,Woman,Right,
17,7,1,1.5673808999999892,['n'],1,right,['2'],5,0.8510674999997718,0.1,0,AccAcc,20,18,Woman,Right,
18,7,1,1.5994061000001238,['c'],0,right,['8'],3,1.851327799999126,0.4,0,AccAcc,20,18,Woman,Right,
19,7,1,1.6171197000003303,['c'],0,right,['2'],5,0.8179575000012846,0.2,0,AccAcc,20,18,Woman,Right,
20,7,1,2.3667963999996573,['c'],0,right,['3'],4,0.9341843000001973,0.2,0,AccAcc,20,18,Woman,Right,
21,7,1,3.266824100001031,['c'],0,right,['3'],4,0.4845310000000609,0.1,0,AccAcc,20,18,Woman,Right,
22,7,1,1.8001645999993343,['n'],0,left,['2'],5,0.9677878000002238,0.4,0,AccAcc,20,18,Woman,Right,
23,7,1,2.50007689999984,['c'],1,left,['3'],4,0.8839964999988297,0.2,0,AccAcc,20,18,Woman,Right,
24,7,1,1.9500578999995923,['n'],0,left,['2'],5,0.7179499999983818,0.2,0,AccAcc,20,18,Woman,Right,
25,7,1,1.1501372999991872,['c'],0,right,['2'],5,0.43354309999995166,0.1,0,AccAcc,20,18,Woman,Right,
26,7,1,2.20064949999869,['c'],1,left,['3'],4,0.4514077999992878,0.4,0,AccAcc,20,18,Woman,Right,
27,7,1,1.2672717000004923,['n'],1,right,['2'],5,1.200949899999614,0.2,0,AccAcc,20,18,Woman,Right,
28,7,1,1.5999017999984062,['c'],1,left,['3'],4,0.5845043000008445,0.1,0,AccAcc,20,18,Woman,Right,
29,7,1,1.1671468000004097,['n'],1,right,['2'],5,0.4179647999990266,0.4,0,AccAcc,20,18,Woman,Right,
30,7,1,3.799662100000205,['n'],1,right,['3'],4,2.950951200000418,0.4,0,AccAcc,20,18,Woman,Right,
31,7,1,1.550494200000685,['n'],1,right,['3'],4,0.7503837000003841,0.1,0,AccAcc,20,18,Woman,Right,
32,7,1,2.233144599998923,['c'],0,right,['2'],5,0.6684108000008564,0.2,0,AccAcc,20,18,Woman,Right,
33,7,1,2.3498859999999695,['c'],1,left,['3'],4,0.41755320000083884,0.1,0,AccAcc,20,18,Woman,Right,
34,7,1,1.067234300000564,['n'],0,left,['3'],4,0.4678700000004028,0.4,0,AccAcc,20,18,Woman,Right,
35,7,1,3.01667020000059,['c'],0,right,['3'],4,0.35063980000086303,0.1,0,AccAcc,20,18,Woman,Right,
36,7,1,1.7679803999999422,['n'],1,right,['3'],4,0.4014122000007774,0.4,0,AccAcc,20,18,Woman,Right,
37,7,1,2.0995072000005166,['c'],1,left,['3'],4,0.23460290000002715,0.2,0,AccAcc,20,18,Woman,Right,
38,7,1,2.116136099999494,['n'],1,right,['2'],5,1.0845981999991636,0.4,0,AccAcc,20,18,Woman,Right,
39,7,1,1.950545499999862,['n'],1,right,['8'],3,0.36751120000008086,0.2,0,AccAcc,20,18,Woman,Right,
40,7,1,2.9836867000012717,['c'],1,left,['2'],5,0.7678135999994993,0.2,0,AccAcc,20,18,Woman,Right,
41,7,1,2.466068499999892,['n'],1,right,['3'],4,1.2346262999999453,0.4,0,AccAcc,20,18,Woman,Right,
42,7,1,1.499939200000881,['c'],1,left,['2'],5,0.5511652999994112,0.4,0,AccAcc,20,18,Woman,Right,
43,7,1,2.3828535999982705,['n'],0,left,['2'],5,0.6675307999994402,0.1,0,AccAcc,20,18,Woman,Right,
44,7,1,1.167048799999975,['c'],0,right,['2'],5,0.41710299999976996,0.2,0,AccAcc,20,18,Woman,Right,
45,7,1,0.984153299999889,['n'],0,left,['2'],5,0.3680688000004011,0.2,0,AccAcc,20,18,Woman,Right,
46,7,1,0.9663197999998374,['n'],1,right,['2'],5,0.31877069999973173,0.2,0,AccAcc,20,18,Woman,Right,
47,7,1,1.6008576000003814,['c'],0,right,['2'],5,0.35031679999883636,0.1,0,AccAcc,20,18,Woman,Right,
48,7,1,2.1989818999991257,['c'],1,left,['3'],4,0.21855479999976524,0.2,0,AccAcc,20,18,Woman,Right,
49,7,1,2.4005176999999094,['c'],0,right,['3'],4,0.46706169999924896,0.1,0,AccAcc,20,18,Woman,Right,
50,7,1,2.200423399999636,['c'],1,left,['3'],4,0.3012410999999702,0.1,0,AccAcc,20,18,Woman,Right,
51,7,1,1.5500467999991088,['n'],1,right,['3'],4,0.218055599998479,0.2,0,AccAcc,20,18,Woman,Right,
52,7,1,1.183254899999156,['c'],1,left,['3'],4,0.2670526999991125,0.1,0,AccAcc,20,18,Woman,Right,
53,7,1,1.7337850000003527,['c'],1,left,['3'],4,0.7507963000007294,0.4,0,AccAcc,20,18,Woman,Right,
54,7,1,3.01703759999873,['c'],1,left,['3'],4,0.5178820999990421,0.1,0,AccAcc,20,18,Woman,Right,
55,7,1,2.3337824000009277,['c'],1,left,['2'],5,0.6016302000007272,0.4,0,AccAcc,20,18,Woman,Right,
56,7,1,1.7678388000003906,['n'],1,right,['3'],4,0.3345121000002109,0.2,0,AccAcc,20,18,Woman,Right,
57,7,1,2.933993599999667,['c'],1,left,['3'],4,1.9010879999987083,0.2,0,AccAcc,20,18,Woman,Right,
58,7,1,1.6156608999990567,['n'],0,left,['3'],4,0.25023759999930917,0.4,0,AccAcc,20,18,Woman,Right,
59,7,1,3.3666023000005225,['n'],1,right,['8'],3,2.0346672000014223,0.2,0,AccAcc,20,18,Woman,Right,
0,8,1,1.1653590000005352,['n'],1,right,['2'],5,2.650787099999434,0.4,0,FastAcc,20,18,Woman,Right,
1,8,1,1.5485919000002468,['c'],1,left,['3'],4,2.585091700000703,0.1,0,FastAcc,20,18,Woman,Right,
2,8,1,1.0493415999990248,['n'],0,left,['3'],4,3.6830130999987887,0.1,0,FastAcc,20,18,Woman,Right,
3,8,1,1.351330199999211,['c'],0,right,['2'],5,1.2004471000000194,0.1,0,FastAcc,20,18,Woman,Right,
4,8,1,1.518383200000244,['n'],1,right,['2'],5,3.750764000000345,0.1,0,FastAcc,20,18,Woman,Right,
5,8,1,1.3657008999998652,['n'],1,right,['3'],4,1.6170084000004863,0.4,0,FastAcc,20,18,Woman,Right,
6,8,1,2.5170338000007177,['c'],1,left,['3'],4,2.233963799999401,0.1,0,FastAcc,20,18,Woman,Right,
7,8,1,1.300242299999809,['c'],1,left,['3'],4,0.634623099998862,0.2,0,FastAcc,20,18,Woman,Right,
8,8,1,1.3166584999999031,['n'],1,right,['3'],4,3.1177268999999797,0.2,0,FastAcc,20,18,Woman,Right,
9,8,1,2.2999108000003616,['c'],0,right,['3'],4,2.1344713999988016,0.4,0,FastAcc,20,18,Woman,Right,
10,8,1,1.1658747000001313,['c'],0,right,['8'],3,2.8347568000008323,0.2,0,FastAcc,20,18,Woman,Right,
11,8,1,1.9177373999991687,['n'],0,left,['2'],5,2.9016056999989814,0.4,0,FastAcc,20,18,Woman,Right,
12,8,1,1.9669161000001623,['n'],1,right,['2'],5,1.7511310999998386,0.4,0,FastAcc,20,18,Woman,Right,
13,8,1,1.633011300000362,['c'],1,left,['3'],4,2.1672997000005125,0.1,0,FastAcc,20,18,Woman,Right,
14,8,1,2.766909100000703,['n'],1,right,['3'],4,3.1165699000011955,0.1,0,FastAcc,20,18,Woman,Right,
15,8,1,1.8167979999998352,['n'],1,right,['3'],4,0.9345566000010876,0.2,0,FastAcc,20,18,Woman,Right,
16,8,1,2.1168149000004632,['c'],0,right,['9'],2,1.5346162999994704,0.4,0,FastAcc,20,18,Woman,Right,
17,8,1,1.8999310999988666,['c'],0,right,['8'],3,1.4510630999993737,0.2,0,FastAcc,20,18,Woman,Right,
18,8,1,1.4494682000004104,['c'],0,right,['3'],4,1.584431900000709,0.4,0,FastAcc,20,18,Woman,Right,
19,8,1,2.5499687000010454,['n'],0,left,['3'],4,3.134005199999592,0.1,0,FastAcc,20,18,Woman,Right,
20,8,1,1.1995769999994081,['c'],0,right,['3'],4,1.4503559000004316,0.2,0,FastAcc,20,18,Woman,Right,
21,8,1,1.6502600999992865,['n'],1,right,['3'],4,3.000988199999483,0.2,0,FastAcc,20,18,Woman,Right,
22,8,1,1.600210500000685,['c'],0,right,['3'],4,2.9677783000006457,0.1,0,FastAcc,20,18,Woman,Right,
23,8,1,2.017694099999062,['c'],1,left,['2'],5,3.684515500000998,0.2,0,FastAcc,20,18,Woman,Right,
24,8,1,2.133721300000616,['n'],0,left,['3'],4,3.817476700000043,0.2,0,FastAcc,20,18,Woman,Right,
25,8,1,2.0672013999992487,['n'],0,left,['3'],4,2.3845018000010896,0.1,0,FastAcc,20,18,Woman,Right,
26,8,1,2.483357099999921,['c'],1,left,['3'],4,1.7844772999997076,0.4,0,FastAcc,20,18,Woman,Right,
27,8,1,3.1495599999998376,['c'],1,left,['3'],4,2.417698700000983,0.1,0,FastAcc,20,18,Woman,Right,
28,8,1,3.0999071999995067,['n'],0,left,['8'],3,3.101127699999779,0.1,0,FastAcc,20,18,Woman,Right,
29,8,1,4.9331001000009564,['c'],1,left,['3'],4,3.617366200000106,0.4,0,FastAcc,20,18,Woman,Right,
30,8,1,2.950448800000231,['n'],1,right,['2'],5,1.85105189999922,0.4,0,FastAcc,20,18,Woman,Right,
31,8,1,2.666779700000916,['c'],1,left,['3'],4,2.117795100000876,0.2,0,FastAcc,20,18,Woman,Right,
32,8,1,2.5830879000004643,['n'],1,right,['8'],3,2.084325900001204,0.2,0,FastAcc,20,18,Woman,Right,
33,8,1,2.199469600000157,['n'],0,left,['3'],4,2.184542099999817,0.1,0,FastAcc,20,18,Woman,Right,
34,8,1,1.1840945999992982,['c'],1,left,['2'],5,2.551221700001406,0.4,0,FastAcc,20,18,Woman,Right,
35,8,1,3.0830759999989823,['n'],1,right,['9'],2,1.7508940999996412,0.2,0,FastAcc,20,18,Woman,Right,
36,8,1,2.1840080000001763,['n'],1,right,['2'],5,1.8844095999993442,0.2,0,FastAcc,20,18,Woman,Right,
37,8,1,0.9165950999995403,['c'],1,left,['2'],5,1.4681517999997595,0.4,0,FastAcc,20,18,Woman,Right,
38,8,1,1.4335036000011314,['c'],1,left,['3'],4,1.5506031999993866,0.2,0,FastAcc,20,18,Woman,Right,
39,8,1,2.4498168000009173,['c'],0,right,['3'],4,3.3344510000006267,0.1,0,FastAcc,20,18,Woman,Right,
40,8,1,2.1006342000000586,['n'],0,left,['3'],4,3.2174904999992577,0.2,0,FastAcc,20,18,Woman,Right,
41,8,1,3.2503282999987277,['c'],1,left,none,-99,-99,0.1,1,FastAcc,20,18,Woman,Right,
42,8,1,2.217664899999363,['n'],1,right,['9'],2,1.6178313000000344,0.2,0,FastAcc,20,18,Woman,Right,
43,8,1,2.699335900000733,['c'],0,right,['8'],3,3.2183373000007123,0.2,0,FastAcc,20,18,Woman,Right,
44,8,1,1.7499530999994022,['n'],0,left,['2'],5,2.4344763999997667,0.4,0,FastAcc,20,18,Woman,Right,
45,8,1,1.733129899999767,['c'],0,right,['3'],4,2.767675400000371,0.2,0,FastAcc,20,18,Woman,Right,
46,8,1,1.5836396000013337,['c'],1,left,['3'],4,2.567340499999773,0.4,0,FastAcc,20,18,Woman,Right,
47,8,1,1.467367600000216,['c'],1,left,['2'],5,1.533442299998569,0.4,0,FastAcc,20,18,Woman,Right,
48,8,1,1.4341099999983271,['c'],1,left,['3'],4,2.5840678999993543,0.1,0,FastAcc,20,18,Woman,Right,
49,8,1,1.683783599999515,['n'],1,right,['8'],3,1.8174087999996118,0.1,0,FastAcc,20,18,Woman,Right,
50,8,1,1.0329932000004192,['n'],1,right,['3'],4,2.484814400000687,0.4,0,FastAcc,20,18,Woman,Right,
51,8,1,1.400459899999987,['n'],0,left,['2'],5,2.217684500001269,0.1,0,FastAcc,20,18,Woman,Right,
52,8,1,2.316681199999948,['c'],0,right,['3'],4,2.334313600000314,0.1,0,FastAcc,20,18,Woman,Right,
53,8,1,1.3333538999995653,['n'],0,left,['3'],4,1.934322000000975,0.2,0,FastAcc,20,18,Woman,Right,
54,8,1,1.666158899999573,['c'],1,left,['2'],5,0.7343588000003365,0.1,0,FastAcc,20,18,Woman,Right,
55,8,1,1.9504109999998036,['c'],0,right,['3'],4,1.2345068999984505,0.4,0,FastAcc,20,18,Woman,Right,
56,8,1,0.9492188000003807,['n'],1,right,['3'],4,2.9846672999992734,0.4,0,FastAcc,20,18,Woman,Right,
57,8,1,2.38275959999919,['n'],1,right,['2'],5,1.851458700000876,0.2,0,FastAcc,20,18,Woman,Right,
58,8,1,2.3500406999992265,['c'],1,left,['3'],4,1.8338149000010162,0.4,0,FastAcc,20,18,Woman,Right,
59,8,1,1.7502093000002787,['c'],1,left,['3'],4,1.7678707999984908,0.4,0,FastAcc,20,18,Woman,Right,
0,9,1,1.2321286000005784,['c'],1,left,['2'],5,0.7173194000006333,0.1,0,FastFast,20,18,Woman,Right,
1,9,1,1.634594900000593,['n'],1,right,['3'],4,0.5674540999989404,0.1,0,FastFast,20,18,Woman,Right,
2,9,1,1.533272800001214,['c'],0,right,['9'],2,1.1679295999983879,0.2,0,FastFast,20,18,Woman,Right,
3,9,1,1.4656042000005982,['n'],0,left,['2'],5,0.6008754000013141,0.2,0,FastFast,20,18,Woman,Right,
4,9,1,2.7176063999995677,['c'],1,left,['3'],4,0.4841899999992165,0.4,0,FastFast,20,18,Woman,Right,
5,9,1,0.9669068000002881,['n'],0,left,['9'],2,0.968186500000229,0.2,0,FastFast,20,18,Woman,Right,
6,9,1,2.8666500999988784,['c'],1,left,['8'],3,3.300932500000272,0.2,0,FastFast,20,18,Woman,Right,
7,9,1,1.7183273999999074,['n'],1,right,['2'],5,0.5673131000003195,0.4,0,FastFast,20,18,Woman,Right,
8,9,1,1.249066700000185,['n'],1,right,['2'],5,0.8022263999991992,0.4,0,FastFast,20,18,Woman,Right,
9,9,1,1.9661491999995633,['n'],0,left,['3'],4,0.8838089999990189,0.1,0,FastFast,20,18,Woman,Right,
10,9,1,2.3329491000004055,['c'],0,right,['8'],3,0.8350043999998888,0.2,0,FastFast,20,18,Woman,Right,
11,9,1,2.4336402000008093,['c'],1,left,['3'],4,0.9675107999992179,0.1,0,FastFast,20,18,Woman,Right,
12,9,1,1.3169231000010768,['n'],0,left,['3'],4,0.4343490000010206,0.4,0,FastFast,20,18,Woman,Right,
13,9,1,1.2836528000007092,['c'],1,left,['3'],4,0.28433829999994487,0.4,0,FastFast,20,18,Woman,Right,
14,9,1,1.5168446999996377,['c'],0,right,['2'],5,0.3347009999997681,0.1,0,FastFast,20,18,Woman,Right,
15,9,1,1.4502071000006254,['c'],0,right,['3'],4,0.25113690000034694,0.1,0,FastFast,20,18,Woman,Right,
16,9,1,0.9169170999994094,['n'],0,left,['8'],3,0.20100649999949383,0.1,0,FastFast,20,18,Woman,Right,
17,9,1,1.2341225999989547,['n'],0,left,['2'],5,0.21777170000132173,0.1,0,FastFast,20,18,Woman,Right,
18,9,1,2.2503569000000425,['c'],1,left,['3'],4,0.2009066000009625,0.4,0,FastFast,20,18,Woman,Right,
19,9,1,1.432993099999294,['c'],1,left,['2'],5,0.2517184999996971,0.1,0,FastFast,20,18,Woman,Right,
20,9,1,1.9337868000002345,['n'],1,right,['3'],4,0.15114720000019588,0.4,0,FastFast,20,18,Woman,Right,
21,9,1,0.9166351999992912,['c'],1,left,['3'],4,0.1507776999987982,0.2,0,FastFast,20,18,Woman,Right,
22,9,1,0.8829174999991665,['c'],1,left,['2'],5,0.21834930000113673,0.4,0,FastFast,20,18,Woman,Right,
23,9,1,1.2509330000011687,['n'],1,right,['3'],4,0.21741880000081437,0.2,0,FastFast,20,18,Woman,Right,
24,9,1,1.4334964000008767,['c'],1,left,['2'],5,0.23469379999914963,0.4,0,FastFast,20,18,Woman,Right,
25,9,1,1.3002113000002282,['n'],1,right,['3'],4,0.2512624999999389,0.2,0,FastFast,20,18,Woman,Right,
26,9,1,1.6502615000008518,['n'],0,left,['3'],4,0.41709830000036163,0.1,0,FastFast,20,18,Woman,Right,
27,9,1,2.2503476999991108,['n'],0,left,['3'],4,0.1677970999990066,0.2,0,FastFast,20,18,Woman,Right,
28,9,1,1.2174574000000575,['c'],1,left,['3'],4,0.18451910000112548,0.4,0,FastFast,20,18,Woman,Right,
29,9,1,1.63401199999862,['c'],1,left,['3'],4,0.1512407999998686,0.2,0,FastFast,20,18,Woman,Right,
30,9,1,2.1335701999996672,['c'],0,right,['3'],4,0.15131260000089242,0.1,0,FastFast,20,18,Woman,Right,
31,9,1,1.0666139000004478,['n'],1,right,['8'],3,0.15069820000098844,0.1,0,FastFast,20,18,Woman,Right,
32,9,1,1.0996049999994284,['n'],1,right,['3'],4,0.1517014000000927,0.1,0,FastFast,20,18,Woman,Right,
33,9,1,1.6502235999996628,['c'],1,left,['3'],4,0.18533449999995355,0.4,0,FastFast,20,18,Woman,Right,
34,9,1,1.3168451000001369,['n'],0,left,['3'],4,0.25129050000032294,0.2,0,FastFast,20,18,Woman,Right,
35,9,1,1.1660362000002351,['n'],1,right,['3'],4,0.2347196000009717,0.1,0,FastFast,20,18,Woman,Right,
36,9,1,0.9506564999992406,['c'],1,left,['2'],5,0.3177751999992324,0.4,0,FastFast,20,18,Woman,Right,
37,9,1,1.4163539000001037,['c'],1,left,['3'],4,0.11801469999954861,0.4,0,FastFast,20,18,Woman,Right,
38,9,1,1.6668071999993117,['n'],1,right,['3'],4,0.15102250000018103,0.4,0,FastFast,20,18,Woman,Right,
39,9,1,1.34989669999959,['n'],1,right,['3'],4,0.21785060000001977,0.4,0,FastFast,20,18,Woman,Right,
40,9,1,1.5170262999999977,['c'],1,left,['3'],4,0.4838141000000178,0.1,0,FastFast,20,18,Woman,Right,
41,9,1,0.8833402000000206,['n'],1,right,['2'],5,0.151285399999324,0.4,0,FastFast,20,18,Woman,Right,
42,9,1,1.300069099999746,['c'],0,right,['9'],2,1.1010438000012073,0.1,0,FastFast,20,18,Woman,Right,
43,9,1,1.8498132999993686,['c'],1,left,['2'],5,0.23481429999992542,0.2,0,FastFast,20,18,Woman,Right,
44,9,1,2.216384700001072,['n'],1,right,['3'],4,0.2347237000012683,0.2,0,FastFast,20,18,Woman,Right,
45,9,1,1.0666235999997298,['c'],1,left,['2'],5,0.2514035000003787,0.2,0,FastFast,20,18,Woman,Right,
46,9,1,2.3674491999991005,['c'],0,right,['3'],4,0.11806009999963862,0.1,0,FastFast,20,18,Woman,Right,
47,9,1,1.0834014000010939,['c'],0,right,['3'],4,0.06763769999997749,0.2,0,FastFast,20,18,Woman,Right,
48,9,1,2.3003874000005453,['n'],1,right,['3'],4,0.26744700000017474,0.2,0,FastFast,20,18,Woman,Right,
49,9,1,2.9665439000000333,['n'],1,right,['1'],6,0.6346438999989914,0.4,0,FastFast,20,18,Woman,Right,
50,9,1,3.1000853999994433,['n'],0,left,['3'],4,0.167451200000869,0.4,0,FastFast,20,18,Woman,Right,
51,9,1,1.01700190000156,['c'],0,right,['3'],4,0.08405649999986053,0.4,0,FastFast,20,18,Woman,Right,
52,9,1,1.8666525000007823,['n'],1,right,['2'],5,0.30158490000030724,0.4,0,FastFast,20,18,Woman,Right,
53,9,1,2.566193900000144,['c'],0,right,['3'],4,0.11824659999911091,0.2,0,FastFast,20,18,Woman,Right,
54,9,1,2.1667670999995607,['n'],1,right,['3'],4,0.25113410000085423,0.1,0,FastFast,20,18,Woman,Right,
55,9,1,2.8331605000003037,['c'],0,right,['3'],4,2.1677736999990884,0.2,0,FastFast,20,18,Woman,Right,
56,9,1,1.382549600000857,['c'],0,right,['2'],5,0.2680956000003789,0.2,0,FastFast,20,18,Woman,Right,
57,9,1,1.5172860000002402,['c'],1,left,['3'],4,0.21767210000143677,0.1,0,FastFast,20,18,Woman,Right,
58,9,1,2.3336509999990085,['n'],0,left,['3'],4,0.23383950000061304,0.1,0,FastFast,20,18,Woman,Right,
59,9,1,1.7167555000014545,['n'],1,right,['3'],4,0.15130059999864898,0.2,0,FastFast,20,18,Woman,Right,
0,10,1,2.000445400000899,['n'],1,right,['3'],4,0.2008107999990898,0.1,0,AccFast,20,18,Woman,Right,
1,10,1,1.832278600000791,['n'],1,right,['2'],5,0.3350506000006135,0.4,0,AccFast,20,18,Woman,Right,
2,10,1,1.733454500001244,['n'],1,right,['3'],4,0.35081589999936114,0.2,0,AccFast,20,18,Woman,Right,
3,10,1,1.5169611000001169,['c'],0,right,['2'],5,0.41804509999928996,0.4,0,AccFast,20,18,Woman,Right,
4,10,1,2.066616399999475,['c'],0,right,['2'],5,0.16769620000013674,0.4,0,AccFast,20,18,Woman,Right,
5,10,1,2.08294240000032,['c'],1,left,['3'],4,0.20120109999879787,0.1,0,AccFast,20,18,Woman,Right,
6,10,1,2.250127999999677,['n'],0,left,['3'],4,0.1347239000006084,0.1,0,AccFast,20,18,Woman,Right,
7,10,1,2.5837234999999055,['c'],1,left,['3'],4,0.051473100000293925,0.2,0,AccFast,20,18,Woman,Right,
8,10,1,3.8336860999988858,['n'],1,right,['3'],4,0.201358700000128,0.2,0,AccFast,20,18,Woman,Right,
9,10,1,2.066945200000191,['n'],0,left,['3'],4,0.234340400000292,0.4,0,AccFast,20,18,Woman,Right,
10,10,1,1.865499000001364,['c'],0,right,['3'],4,0.1514299000009487,0.2,0,AccFast,20,18,Woman,Right,
11,10,1,2.6331720999987738,['n'],1,right,['2'],5,0.20085119999930612,0.4,0,AccFast,20,18,Woman,Right,
12,10,1,2.38291720000052,['n'],0,left,['3'],4,0.2185245999990002,0.2,0,AccFast,20,18,Woman,Right,
13,10,1,1.399439099999654,['c'],1,left,['3'],4,0.2677473000003374,0.4,0,AccFast,20,18,Woman,Right,
14,10,1,2.3170364999987214,['n'],1,right,['2'],5,0.5343950000005862,0.4,0,AccFast,20,18,Woman,Right,
15,10,1,1.116470400000253,['c'],1,left,['3'],4,0.1681624999982887,0.1,0,AccFast,20,18,Woman,Right,
16,10,1,1.6668819999995321,['c'],1,left,['3'],4,0.13401370000065072,0.1,0,AccFast,20,18,Woman,Right,
17,10,1,1.3838188000008813,['c'],1,left,['2'],5,0.2343574999995326,0.2,0,AccFast,20,18,Woman,Right,
18,10,1,2.350740699999733,['n'],0,left,['3'],4,0.23439819999839528,0.2,0,AccFast,20,18,Woman,Right,
19,10,1,1.1668920000010985,['c'],0,right,['2'],5,0.2178051000009873,0.4,0,AccFast,20,18,Woman,Right,
20,10,1,1.682575299999371,['c'],1,left,['2'],5,0.23435590000008233,0.2,0,AccFast,20,18,Woman,Right,
21,10,1,1.7172320000008767,['n'],0,left,['8'],3,0.7336018000005424,0.1,0,AccFast,20,18,Woman,Right,
22,10,1,2.0656618000011804,['n'],0,left,['3'],4,0.23426010000002861,0.2,0,AccFast,20,18,Woman,Right,
23,10,1,3.5349747000000207,['c'],0,right,['3'],4,0.2179759999999078,0.1,0,AccFast,20,18,Woman,Right,
24,10,1,2.3663630000010016,['n'],1,right,['3'],4,0.1840345000000525,0.2,0,AccFast,20,18,Woman,Right,
25,10,1,2.5001351999999315,['c'],1,left,['3'],4,0.217948499999693,0.1,0,AccFast,20,18,Woman,Right,
26,10,1,1.0502926999997726,['c'],1,left,['3'],4,0.05119089999971038,0.1,0,AccFast,20,18,Woman,Right,
27,10,1,1.51694900000075,['c'],1,left,['2'],5,1.8011446000000433,0.4,0,AccFast,20,18,Woman,Right,
28,10,1,1.6836296000001312,['n'],1,right,['2'],5,0.20135599999957776,0.1,0,AccFast,20,18,Woman,Right,
29,10,1,1.5993732000006275,['c'],0,right,['2'],5,0.18403659999967203,0.2,0,AccFast,20,18,Woman,Right,
30,10,1,1.517926599999555,['c'],0,right,['3'],4,0.03379320000021835,0.4,0,AccFast,20,18,Woman,Right,
31,10,1,2.467301900000166,['n'],0,left,['3'],4,0.2180391999991116,0.1,0,AccFast,20,18,Woman,Right,
32,10,1,1.9834887000015442,['n'],1,right,['3'],4,0.08442789999935485,0.2,0,AccFast,20,18,Woman,Right,
33,10,1,1.9169533999993291,['c'],1,left,['3'],4,0.08469130000048608,0.4,0,AccFast,20,18,Woman,Right,
34,10,1,1.4841433000001416,['n'],1,right,['3'],4,0.1846577000014804,0.2,0,AccFast,20,18,Woman,Right,
35,10,1,1.7672222000001057,['c'],0,right,['3'],4,0.13460610000038287,0.2,0,AccFast,20,18,Woman,Right,
36,10,1,3.0661975000002712,['n'],1,right,['3'],4,0.2507590999994136,0.2,0,AccFast,20,18,Woman,Right,
37,10,1,2.234155100000862,['n'],0,left,['3'],4,0.2840660999991087,0.1,0,AccFast,20,18,Woman,Right,
38,10,1,2.750185300001249,['c'],0,right,['3'],4,0.2178158999995503,0.1,0,AccFast,20,18,Woman,Right,
39,10,1,1.8170138999994379,['n'],1,right,['3'],4,0.20146620000014082,0.2,0,AccFast,20,18,Woman,Right,
40,10,1,1.5669132999992144,['c'],0,right,['2'],5,0.20095299999957206,0.4,0,AccFast,20,18,Woman,Right,
41,10,1,1.9002913999993325,['n'],1,right,['3'],4,0.21787190000031842,0.4,0,AccFast,20,18,Woman,Right,
42,10,1,1.249602899999445,['c'],1,left,['2'],5,0.3350270000009914,0.4,0,AccFast,20,18,Woman,Right,
43,10,1,1.1666586999999708,['c'],1,left,['2'],5,0.16881610000018554,0.4,0,AccFast,20,18,Woman,Right,
44,10,1,2.5832538999984536,['n'],1,right,['3'],4,0.11867999999958556,0.2,0,AccFast,20,18,Woman,Right,
45,10,1,1.2664579000011145,['c'],1,left,['2'],5,0.20069189999958326,0.1,0,AccFast,20,18,Woman,Right,
46,10,1,1.8666778000006161,['c'],1,left,['3'],4,0.20098370000050636,0.1,0,AccFast,20,18,Woman,Right,
47,10,1,1.233621100000164,['c'],0,right,['3'],4,0.05111690000012459,0.1,0,AccFast,20,18,Woman,Right,
48,10,1,1.933559899998727,['c'],1,left,['2'],5,0.13467649999984133,0.4,0,AccFast,20,18,Woman,Right,
49,10,1,2.166596999999456,['n'],1,right,['3'],4,0.2346927999988111,0.2,0,AccFast,20,18,Woman,Right,
50,10,1,1.2499877999998716,['n'],0,left,['3'],4,0.3340705999999045,0.1,0,AccFast,20,18,Woman,Right,
51,10,1,1.1998614000003727,['c'],1,left,['2'],5,0.16724130000147852,0.4,0,AccFast,20,18,Woman,Right,
52,10,1,1.4173163000014029,['n'],1,right,['1'],6,0.15121820000058506,0.1,0,AccFast,20,18,Woman,Right,
53,10,1,1.2671031999998377,['c'],1,left,['1'],6,0.18458470000041416,0.4,0,AccFast,20,18,Woman,Right,
54,10,1,1.5838512999998784,['n'],0,left,['3'],4,0.1675254000001587,0.1,0,AccFast,20,18,Woman,Right,
55,10,1,1.2509016999993037,['c'],1,left,['2'],5,0.1678142000000662,0.4,0,AccFast,20,18,Woman,Right,
56,10,1,1.6330591999994795,['c'],0,right,['2'],5,0.051168799998777104,0.1,0,AccFast,20,18,Woman,Right,
57,10,1,1.2505204000008234,['n'],1,right,['3'],4,0.20131380000020727,0.2,0,AccFast,20,18,Woman,Right,
58,10,1,0.9334029000001465,['n'],1,right,['2'],5,0.1681923000014649,0.2,0,AccFast,20,18,Woman,Right,
59,10,1,1.8499881999996433,['c'],1,left,['2'],5,0.1847766999999294,0.4,0,AccFast,20,18,Woman,Right,
0,11,1,1.299930499999391,['n'],0,left,['3'],4,1.0845114000003377,0.4,0,AccAcc,20,18,Woman,Right,
1,11,1,2.0834806999991997,['n'],0,left,['3'],4,1.1840890000003128,0.1,0,AccAcc,20,18,Woman,Right,
2,11,1,1.667342100001406,['n'],1,right,['2'],5,0.9176310000002559,0.4,0,AccAcc,20,18,Woman,Right,
3,11,1,1.916115300000456,['n'],0,left,['1'],6,1.0678409000011015,0.1,0,AccAcc,20,18,Woman,Right,
4,11,1,2.6500548999993043,['c'],1,left,['8'],3,0.9339443999997457,0.1,0,AccAcc,20,18,Woman,Right,
5,11,1,1.1503284999998868,['c'],1,left,['3'],4,1.0177681999994093,0.2,0,AccAcc,20,18,Woman,Right,
6,11,1,1.5502156000002287,['c'],0,right,['2'],5,0.5849423999989085,0.4,0,AccAcc,20,18,Woman,Right,
7,11,1,2.982660699999542,['c'],0,right,['3'],4,0.817617099999552,0.1,0,AccAcc,20,18,Woman,Right,
8,11,1,2.73393120000037,['n'],1,right,['3'],4,0.43457239999952435,0.4,0,AccAcc,20,18,Woman,Right,
9,11,1,2.316916500001753,['c'],1,left,['3'],4,0.46700959999907354,0.4,0,AccAcc,20,18,Woman,Right,
10,11,1,1.43329790000098,['n'],1,right,['3'],4,0.2839748000005784,0.4,0,AccAcc,20,18,Woman,Right,
11,11,1,2.3834776999992755,['c'],0,right,['3'],4,0.717953999999736,0.4,0,AccAcc,20,18,Woman,Right,
12,11,1,1.4832387000005838,['c'],0,right,['3'],4,0.36761829999886686,0.2,0,AccAcc,20,18,Woman,Right,
13,11,1,3.1167194999998173,['n'],0,left,['3'],4,0.88449109999965,0.1,0,AccAcc,20,18,Woman,Right,
14,11,1,1.9998522000005323,['c'],0,right,['3'],4,0.4347524999993766,0.1,0,AccAcc,20,18,Woman,Right,
15,11,1,3.033406399999876,['n'],1,right,['8'],3,1.1681994999999006,0.2,0,AccAcc,20,18,Woman,Right,
16,11,1,2.516541099999813,['n'],1,right,['3'],4,0.551801699999487,0.4,0,AccAcc,20,18,Woman,Right,
17,11,1,1.8834081000004517,['c'],0,right,['3'],4,0.15136859999984154,0.4,0,AccAcc,20,18,Woman,Right,
18,11,1,2.5996037000004435,['c'],1,left,['3'],4,0.4836871000006795,0.1,0,AccAcc,20,18,Woman,Right,
19,11,1,1.3335544000001391,['c'],0,right,['3'],4,0.10070619999896735,0.2,0,AccAcc,20,18,Woman,Right,
20,11,1,2.216416700000991,['n'],1,right,['9'],2,1.2340659000001324,0.2,0,AccAcc,20,18,Woman,Right,
21,11,1,1.882616599999892,['n'],0,left,['3'],4,0.750393799999074,0.1,0,AccAcc,20,18,Woman,Right,
22,11,1,2.1005245999986073,['n'],0,left,['2'],5,0.3834511000004568,0.4,0,AccAcc,20,18,Woman,Right,
23,11,1,2.9504777000001923,['n'],1,right,['2'],5,0.7511684000000969,0.1,0,AccAcc,20,18,Woman,Right,
24,11,1,3.366500399999495,['n'],1,right,['3'],4,0.7846338999988802,0.1,0,AccAcc,20,18,Woman,Right,
25,11,1,1.283547199998793,['c'],1,left,['3'],4,0.38411400000040885,0.1,0,AccAcc,20,18,Woman,Right,
26,11,1,1.5834131999999954,['c'],1,left,['2'],5,4.417445199998838,0.2,0,AccAcc,20,18,Woman,Right,
27,11,1,2.633645500000057,['n'],0,left,['2'],5,0.5516299000009894,0.1,0,AccAcc,20,18,Woman,Right,
28,11,1,2.433749900001203,['n'],1,right,['3'],4,0.3175568000006024,0.2,0,AccAcc,20,18,Woman,Right,
29,11,1,1.9834821999993437,['c'],0,right,['3'],4,0.1839172999989387,0.2,0,AccAcc,20,18,Woman,Right,
30,11,1,3.2665500000002794,['c'],1,left,['3'],4,0.1503776999998081,0.4,0,AccAcc,20,18,Woman,Right,
31,11,1,1.8166255000014644,['c'],1,left,['3'],4,0.06832219999887457,0.4,0,AccAcc,20,18,Woman,Right,
32,11,1,2.449756400001206,['n'],1,right,['8'],3,0.18459690000054252,0.1,0,AccAcc,20,18,Woman,Right,
33,11,1,3.6664875999995274,['c'],0,right,['3'],4,0.06792140000106883,0.1,0,AccAcc,20,18,Woman,Right,
34,11,1,2.715559599999324,['c'],0,right,['8'],3,1.1674968999996054,0.2,0,AccAcc,20,18,Woman,Right,
35,11,1,1.2509463999995205,['n'],1,right,['3'],4,0.2010353000005125,0.2,0,AccAcc,20,18,Woman,Right,
36,11,1,1.9501606000012544,['n'],1,right,['3'],4,0.4170314999992115,0.2,0,AccAcc,20,18,Woman,Right,
37,11,1,3.0669391000010364,['n'],1,right,['3'],4,0.2180660000012722,0.2,0,AccAcc,20,18,Woman,Right,
38,11,1,1.3170201999982964,['c'],1,left,['2'],5,0.20069119999971008,0.4,0,AccAcc,20,18,Woman,Right,
39,11,1,2.4996742000002996,['c'],1,left,['3'],4,0.16750609999871813,0.4,0,AccAcc,20,18,Woman,Right,
40,11,1,4.316998700000113,['c'],0,right,['8'],3,1.4678082999998878,0.4,0,AccAcc,20,18,Woman,Right,
41,11,1,1.9168960000006336,['n'],0,left,['3'],4,0.1848550000013347,0.2,0,AccAcc,20,18,Woman,Right,
42,11,1,1.600625700000819,['c'],0,right,['3'],4,0.5515360999997938,0.1,0,AccAcc,20,18,Woman,Right,
43,11,1,2.800933200000145,['n'],0,left,['3'],4,0.18459620000066934,0.1,0,AccAcc,20,18,Woman,Right,
44,11,1,2.6836408999988635,['n'],0,left,['2'],5,0.3345711999991181,0.2,0,AccAcc,20,18,Woman,Right,
45,11,1,2.916024500000276,['c'],1,left,['3'],4,0.16785519999939424,0.1,0,AccAcc,20,18,Woman,Right,
46,11,1,3.2668001000001823,['c'],0,right,['3'],4,0.25084249999963504,0.4,0,AccAcc,20,18,Woman,Right,
47,11,1,2.1835700000010547,['c'],1,left,['3'],4,0.4010373000000982,0.2,0,AccAcc,20,18,Woman,Right,
48,11,1,2.8152599000004557,['c'],1,left,['2'],5,0.2015692000004492,0.1,0,AccAcc,20,18,Woman,Right,
49,11,1,2.500095900000815,['n'],1,right,['8'],3,0.834502199999406,0.2,0,AccAcc,20,18,Woman,Right,
50,11,1,1.2501152000004367,['c'],1,left,['2'],5,0.26813270000093326,0.4,0,AccAcc,20,18,Woman,Right,
51,11,1,1.717147200000909,['c'],1,left,['3'],4,0.03468359999897075,0.2,0,AccAcc,20,18,Woman,Right,
52,11,1,1.6001145999998698,['c'],1,left,['2'],5,1.7343738000017765,0.1,0,AccAcc,20,18,Woman,Right,
53,11,1,1.9162087999993673,['c'],1,left,['3'],4,2.467738000001191,0.4,0,AccAcc,20,18,Woman,Right,
54,11,1,1.9990214999997988,['n'],0,left,['3'],4,2.1340648000004876,0.1,0,AccAcc,20,18,Woman,Right,
55,11,1,1.5679634999996779,['n'],1,right,['2'],5,0.8340749999988475,0.2,0,AccAcc,20,18,Woman,Right,
56,11,1,1.5508743999998842,['n'],1,right,['3'],4,0.3178025000015623,0.4,0,AccAcc,20,18,Woman,Right,
57,11,1,2.2505474999998114,['c'],1,left,['3'],4,1.517123999999967,0.2,0,AccAcc,20,18,Woman,Right,
58,11,1,1.899845899999491,['c'],0,right,['2'],5,0.31824739999865415,0.2,0,AccAcc,20,18,Woman,Right,
59,11,1,1.8669133999992482,['n'],0,left,['2'],5,0.6845615000001999,0.4,0,AccAcc,20,18,Woman,Right,
0,12,1,0.916692899998452,['n'],1,right,['3'],4,2.3178382000005513,0.4,0,FastAcc,20,18,Woman,Right,
1,12,1,1.3339348999998037,['n'],1,right,['3'],4,2.534427799999321,0.4,0,FastAcc,20,18,Woman,Right,
2,12,1,1.283529800000906,['c'],1,left,['3'],4,1.434547000000748,0.2,0,FastAcc,20,18,Woman,Right,
3,12,1,0.7325718000010966,['c'],1,left,['8'],3,1.834417800000665,0.4,0,FastAcc,20,18,Woman,Right,
4,12,1,1.2001109000011638,['n'],1,right,['3'],4,2.3004719000000478,0.4,0,FastAcc,20,18,Woman,Right,
5,12,1,1.466500000000451,['n'],0,left,['2'],5,1.11788389999856,0.1,0,FastAcc,20,18,Woman,Right,
6,12,1,1.1834554000015487,['c'],0,right,['3'],4,2.233774500000436,0.1,0,FastAcc,20,18,Woman,Right,
7,12,1,1.1001771999999619,['c'],1,left,['2'],5,1.4345038999999815,0.2,0,FastAcc,20,18,Woman,Right,
8,12,1,1.9170501999997214,['n'],1,right,['2'],5,1.1676033000003372,0.2,0,FastAcc,20,18,Woman,Right,
9,12,1,1.2172444999996515,['c'],0,right,['3'],4,1.26777519999996,0.4,0,FastAcc,20,18,Woman,Right,
10,12,1,1.3496063999991748,['c'],1,left,['2'],5,0.9509254000004148,0.2,0,FastAcc,20,18,Woman,Right,
11,12,1,1.849668799999563,['c'],0,right,['1'],6,0.584853700000167,0.2,0,FastAcc,20,18,Woman,Right,
12,12,1,1.782794400000057,['c'],0,right,['3'],4,0.9681460000010702,0.2,0,FastAcc,20,18,Woman,Right,
13,12,1,1.1839488000005076,['c'],1,left,['2'],5,0.7840204999993148,0.4,0,FastAcc,20,18,Woman,Right,
14,12,1,1.1005095000000438,['c'],1,left,['9'],2,1.4010889999990468,0.2,0,FastAcc,20,18,Woman,Right,
15,12,1,0.9164175999994768,['c'],0,right,['3'],4,1.617653600000267,0.4,0,FastAcc,20,18,Woman,Right,
16,12,1,1.033730299999661,['n'],0,left,['3'],4,1.7175203999995574,0.2,0,FastAcc,20,18,Woman,Right,
17,12,1,0.9835504999991826,['c'],1,left,['3'],4,1.6677878000009514,0.1,0,FastAcc,20,18,Woman,Right,
18,12,1,0.650676499999463,['n'],0,left,['2'],5,1.3344149999993533,0.1,0,FastAcc,20,18,Woman,Right,
19,12,1,0.9835271999982069,['n'],1,right,['3'],4,1.8678663999999117,0.4,0,FastAcc,20,18,Woman,Right,
20,12,1,1.033455499999036,['c'],1,left,['1'],6,0.9676360999983444,0.2,0,FastAcc,20,18,Woman,Right,
21,12,1,1.0168804000004457,['n'],0,left,['1'],6,0.850756800000454,0.1,0,FastAcc,20,18,Woman,Right,
22,12,1,1.433940300001268,['c'],0,right,['2'],5,1.3177937000000384,0.1,0,FastAcc,20,18,Woman,Right,
23,12,1,2.017314199998509,['c'],1,left,['2'],5,0.30108990000007907,0.1,0,FastAcc,20,18,Woman,Right,
24,12,1,1.8001404000006005,['n'],0,left,['3'],4,0.6847299999990355,0.2,0,FastAcc,20,18,Woman,Right,
25,12,1,1.2840765000000829,['n'],0,left,['2'],5,0.5177106000010099,0.4,0,FastAcc,20,18,Woman,Right,
26,12,1,1.4167078000009496,['c'],0,right,['3'],4,1.1680324999997538,0.2,0,FastAcc,20,18,Woman,Right,
27,12,1,1.1003988000011304,['c'],0,right,['9'],2,1.2009383999993588,0.2,0,FastAcc,20,18,Woman,Right,
28,12,1,0.9499943000009807,['c'],1,left,['1'],6,0.634455400000661,0.4,0,FastAcc,20,18,Woman,Right,
29,12,1,1.0995775000010326,['c'],1,left,['2'],5,0.21812710000085644,0.1,0,FastAcc,20,18,Woman,Right,
30,12,1,2.733774299998913,['n'],1,right,['3'],4,2.1673671000007744,0.2,0,FastAcc,20,18,Woman,Right,
31,12,1,1.1502242000005936,['n'],0,left,['3'],4,0.5681029999996099,0.1,0,FastAcc,20,18,Woman,Right,
32,12,1,1.5168519999988348,['c'],0,right,['2'],5,0.21790450000116834,0.1,0,FastAcc,20,18,Woman,Right,
33,12,1,2.1332865999993373,['n'],0,left,['3'],4,0.28459599999951024,0.4,0,FastAcc,20,18,Woman,Right,
34,12,1,2.0668325000006007,['c'],1,left,['3'],4,0.16808839999976044,0.1,0,FastAcc,20,18,Woman,Right,
35,12,1,1.6496925999999803,['c'],0,right,['3'],4,0.08492019999903277,0.1,0,FastAcc,20,18,Woman,Right,
36,12,1,2.0322369999994407,['n'],0,left,['3'],4,2.7687236000001576,0.1,0,FastAcc,20,18,Woman,Right,
37,12,1,1.6002740000003541,['c'],0,right,['8'],3,2.00114350000149,0.1,0,FastAcc,20,18,Woman,Right,
38,12,1,1.6501500000013039,['c'],0,right,['8'],3,1.7348700999991706,0.1,0,FastAcc,20,18,Woman,Right,
39,12,1,1.2506909999992786,['n'],0,left,['3'],4,1.067756799999188,0.4,0,FastAcc,20,18,Woman,Right,
40,12,1,1.417169999998805,['n'],1,right,['2'],5,0.48464400000011665,0.4,0,FastAcc,20,18,Woman,Right,
41,12,1,2.2832058999993023,['n'],0,left,['3'],4,0.2847715000007156,0.2,0,FastAcc,20,18,Woman,Right,
42,12,1,1.532934099999693,['n'],1,right,['3'],4,0.16800210000110383,0.4,0,FastAcc,20,18,Woman,Right,
43,12,1,2.0001909000002343,['n'],0,left,['3'],4,0.2010969999992085,0.2,0,FastAcc,20,18,Woman,Right,
44,12,1,2.0663475999990624,['n'],0,left,['3'],4,0.25120290000086243,0.4,0,FastAcc,20,18,Woman,Right,
45,12,1,1.7174924999999348,['c'],1,left,['2'],5,0.25069690000054834,0.2,0,FastAcc,20,18,Woman,Right,
46,12,1,1.516941100000622,['c'],0,right,['3'],4,0.20125299999926938,0.1,0,FastAcc,20,18,Woman,Right,
47,12,1,1.3998217000007571,['c'],0,right,['8'],3,1.7348125999997137,0.1,0,FastAcc,20,18,Woman,Right,
48,12,1,1.1166287999985798,['n'],0,left,['2'],5,1.434397999999419,0.1,0,FastAcc,20,18,Woman,Right,
49,12,1,0.83374940000067,['c'],1,left,['3'],4,1.9174937000007048,0.2,0,FastAcc,20,18,Woman,Right,
50,12,1,0.9336922999991657,['n'],0,left,['3'],4,1.8840626000001066,0.2,0,FastAcc,20,18,Woman,Right,
51,12,1,0.8496608000004926,['n'],1,right,['3'],4,1.3187091999989207,0.4,0,FastAcc,20,18,Woman,Right,
52,12,1,0.9672203999998601,['n'],1,right,['3'],4,0.8674482999995234,0.4,0,FastAcc,20,18,Woman,Right,
53,12,1,0.832885100000567,['n'],1,right,['3'],4,0.41827069999999367,0.2,0,FastAcc,20,18,Woman,Right,
54,12,1,3.050472000000809,['n'],0,left,['2'],5,0.7178549000000203,0.4,0,FastAcc,20,18,Woman,Right,
55,12,1,0.8667445000010048,['c'],0,right,['3'],4,0.15153559999998834,0.1,0,FastAcc,20,18,Woman,Right,
56,12,1,1.116974200000186,['n'],1,right,['8'],3,1.5341123999987758,0.4,0,FastAcc,20,18,Woman,Right,
57,12,1,2.4171719000005396,['c'],0,right,['8'],3,1.1509475999991992,0.4,0,FastAcc,20,18,Woman,Right,
58,12,1,2.182353600001079,['c'],0,right,['3'],4,0.017963700000109384,0.2,0,FastAcc,20,18,Woman,Right,
59,12,1,2.8169835999997304,['c'],0,right,['3'],4,0.21808920000148646,0.1,0,FastAcc,20,18,Woman,Right,
0,13,1,1.4999948999993649,['c'],0,right,['2'],5,0.18481700000120327,0.2,0,FastFast,20,18,Woman,Right,
1,13,1,0.8502790000002278,['n'],1,right,['2'],5,0.21788219999871217,0.4,0,FastFast,20,18,Woman,Right,
2,13,1,1.3502413999995042,['c'],0,right,['2'],5,0.20076979999976174,0.1,0,FastFast,20,18,Woman,Right,
3,13,1,1.7327907999988383,['n'],1,right,['3'],4,0.15123740000126418,0.4,0,FastFast,20,18,Woman,Right,
4,13,1,0.6169504999998026,['c'],1,left,['1'],6,0.16822730000058073,0.2,0,FastFast,20,18,Woman,Right,
5,13,1,2.282839100000274,['n'],1,right,['2'],5,0.3680664000003162,0.2,0,FastFast,20,18,Woman,Right,
6,13,1,1.350625900000523,['c'],0,right,['2'],5,0.15125890000126674,0.4,0,FastFast,20,18,Woman,Right,
7,13,1,1.1160971999997855,['n'],0,left,['1'],6,0.21740739999950165,0.4,0,FastFast,20,18,Woman,Right,
8,13,1,2.117309100000057,['n'],1,right,['8'],3,0.46729969999978493,0.1,0,FastFast,20,18,Woman,Right,
9,13,1,0.8171987999994599,['n'],1,right,['2'],5,0.45116629999938596,0.2,0,FastFast,20,18,Woman,Right,
10,13,1,0.7169582000005903,['c'],1,left,['2'],5,0.2846804000000702,0.4,0,FastFast,20,18,Woman,Right,
11,13,1,1.3003814999992755,['n'],0,left,['3'],4,0.16688260000046284,0.1,0,FastFast,20,18,Woman,Right,
12,13,1,0.6334745999993174,['c'],1,left,['3'],4,0.10066120000010415,0.2,0,FastFast,20,18,Woman,Right,
13,13,1,1.2670803000000888,['n'],0,left,['3'],4,0.15146869999989576,0.2,0,FastFast,20,18,Woman,Right,
14,13,1,1.0670387999998638,['n'],1,right,['2'],5,0.11779309999838006,0.4,0,FastFast,20,18,Woman,Right,
15,13,1,1.1997441000003164,['n'],1,right,['2'],5,0.1349925999984407,0.4,0,FastFast,20,18,Woman,Right,
16,13,1,1.1339324000000488,['c'],0,right,['2'],5,0.25095759999931033,0.2,0,FastFast,20,18,Woman,Right,
17,13,1,1.1003025000009075,['n'],0,left,['2'],5,0.11752559999877121,0.2,0,FastFast,20,18,Woman,Right,
18,13,1,1.167247999999745,['n'],1,right,['1'],6,0.1844230000006064,0.4,0,FastFast,20,18,Woman,Right,
19,13,1,1.5997549000003346,['n'],0,left,['3'],4,0.15145129999837081,0.4,0,FastFast,20,18,Woman,Right,
20,13,1,0.8834010999999009,['c'],1,left,['2'],5,0.1513632999995025,0.2,0,FastFast,20,18,Woman,Right,
21,13,1,1.4166007999992871,['c'],1,left,['2'],5,0.2016345000010915,0.1,0,FastFast,20,18,Woman,Right,
22,13,1,1.1342165999994904,['n'],1,right,['2'],5,0.3678708999996161,0.1,0,FastFast,20,18,Woman,Right,
23,13,1,1.0838487000000896,['c'],1,left,['3'],4,0.0847314999991795,0.2,0,FastFast,20,18,Woman,Right,
24,13,1,1.0170044999995298,['n'],1,right,['2'],5,0.11795879999954195,0.2,0,FastFast,20,18,Woman,Right,
25,13,1,1.799787699999797,['c'],0,right,['3'],4,1.0177863999997498,0.4,0,FastFast,20,18,Woman,Right,
26,13,1,1.0340737000005902,['n'],0,left,['8'],3,1.4176224000002549,0.4,0,FastFast,20,18,Woman,Right,
27,13,1,1.200158100000408,['n'],1,right,['2'],5,0.35126039999886416,0.4,0,FastFast,20,18,Woman,Right,
28,13,1,1.0669679999991786,['n'],1,right,['3'],4,0.15122650000012072,0.4,0,FastFast,20,18,Woman,Right,
29,13,1,0.6493742000002385,['c'],1,left,['2'],5,0.08452199999919685,0.4,0,FastFast,20,18,Woman,Right,
30,13,1,1.3171092000011413,['n'],0,left,['2'],5,0.2337180000013177,0.4,0,FastFast,20,18,Woman,Right,
31,13,1,1.3668723999999202,['c'],1,left,['3'],4,0.06791850000081467,0.1,0,FastFast,20,18,Woman,Right,
32,13,1,1.8339498000004824,['n'],0,left,['2'],5,0.20156040000074427,0.4,0,FastFast,20,18,Woman,Right,
33,13,1,1.633084000000963,['n'],0,left,['3'],4,0.15123990000029153,0.1,0,FastFast,20,18,Woman,Right,
34,13,1,0.533492299999125,['c'],1,left,['1'],6,0.20121479999943404,0.2,0,FastFast,20,18,Woman,Right,
35,13,1,1.5333071000004566,['n'],1,right,['2'],5,0.5677121000007901,0.4,0,FastFast,20,18,Woman,Right,
36,13,1,1.2167245000000548,['c'],0,right,['2'],5,0.10137940000095114,0.4,0,FastFast,20,18,Woman,Right,
37,13,1,1.3162980999986758,['n'],0,left,['3'],4,0.7840344999985973,0.1,0,FastFast,20,18,Woman,Right,
38,13,1,0.9337508000007801,['c'],1,left,['2'],5,0.1348798999988503,0.1,0,FastFast,20,18,Woman,Right,
39,13,1,0.7503120000001218,['c'],0,right,['3'],4,0.05119589999958407,0.1,0,FastFast,20,18,Woman,Right,
40,13,1,0.41699270000026445,['n'],1,right,['3'],4,0.11799649999920803,0.2,0,FastFast,20,18,Woman,Right,
41,13,1,0.3997428000002401,['c'],0,right,['2'],5,0.10140469999896595,0.2,0,FastFast,20,18,Woman,Right,
42,13,1,0.5332611999983783,['c'],0,right,['2'],5,0.08460399999967194,0.1,0,FastFast,20,18,Woman,Right,
43,13,1,0.8833451999998942,['n'],1,right,['3'],4,0.15136009999878297,0.1,0,FastFast,20,18,Woman,Right,
44,13,1,0.7333416000001307,['c'],1,left,['3'],4,0.6341572000001179,0.1,0,FastFast,20,18,Woman,Right,
45,13,1,0.6507664000000659,['c'],0,right,['3'],4,0.03485240000009071,0.1,0,FastFast,20,18,Woman,Right,
46,13,1,1.1499736999994639,['n'],1,right,['2'],5,0.10127970000030473,0.2,0,FastFast,20,18,Woman,Right,
47,13,1,1.4500907000001462,['n'],1,right,['3'],4,0.23532459999842104,0.1,0,FastFast,20,18,Woman,Right,
48,13,1,0.500159100000019,['c'],1,left,['2'],5,0.16811360000065179,0.2,0,FastFast,20,18,Woman,Right,
49,13,1,0.5676012999992963,['n'],0,left,['3'],4,0.23483219999980065,0.1,0,FastFast,20,18,Woman,Right,
50,13,1,1.050671599999987,['c'],1,left,['2'],5,0.11818420000054175,0.4,0,FastFast,20,18,Woman,Right,
51,13,1,1.3002138000010746,['c'],1,left,['3'],4,0.05130920000010519,0.1,0,FastFast,20,18,Woman,Right,
52,13,1,1.3674983000000793,['n'],0,left,['3'],4,0.167120199999772,0.2,0,FastFast,20,18,Woman,Right,
53,13,1,0.7837292000003799,['n'],1,right,['3'],4,0.11700460000065505,0.2,0,FastFast,20,18,Woman,Right,
54,13,1,0.9170092000003933,['c'],1,left,['2'],5,0.01801539999905799,0.2,0,FastFast,20,18,Woman,Right,
55,13,1,0.9836132999989786,['n'],0,left,['3'],4,0.21809550000034506,0.2,0,FastFast,20,18,Woman,Right,
56,13,1,1.5166555000014341,['n'],0,left,['2'],5,0.08487910000076226,0.1,0,FastFast,20,18,Woman,Right,
57,13,1,0.9164022999993904,['n'],0,left,['3'],4,0.08472879999862926,0.1,0,FastFast,20,18,Woman,Right,
58,13,1,1.0498630000001867,['n'],1,right,['3'],4,0.06803510000099777,0.4,0,FastFast,20,18,Woman,Right,
59,13,1,1.0000997999995889,['n'],1,right,['3'],4,0.08475390000057814,0.1,0,FastFast,20,18,Woman,Right,
0,14,1,1.5674015999993571,['c'],0,right,['3'],4,0.218007999999827,0.2,0,AccFast,20,18,Woman,Right,
1,14,1,0.9836279000010109,['n'],1,right,['3'],4,0.20137789999898814,0.4,0,AccFast,20,18,Woman,Right,
2,14,1,1.1834913000002416,['c'],1,left,['3'],4,0.13469289999920875,0.2,0,AccFast,20,18,Woman,Right,
3,14,1,1.598903699999937,['n'],0,left,['3'],4,0.13490640000054555,0.4,0,AccFast,20,18,Woman,Right,
4,14,1,2.2339238000004116,['n'],1,right,['3'],4,0.08476370000062161,0.1,0,AccFast,20,18,Woman,Right,
5,14,1,1.0002763000011328,['c'],1,left,['3'],4,1.800970000000234,0.1,0,AccFast,20,18,Woman,Right,
6,14,1,1.0829591000001528,['c'],0,right,['3'],4,0.08422289999907662,0.2,0,AccFast,20,18,Woman,Right,
7,14,1,1.9836106000002474,['c'],1,left,['2'],5,0.0847314999991795,0.2,0,AccFast,20,18,Woman,Right,
8,14,1,1.2162527999989834,['n'],1,right,['3'],4,0.0344225999997434,0.4,0,AccFast,20,18,Woman,Right,
9,14,1,1.2996956000006321,['c'],1,left,['3'],4,0.11832439999852795,0.4,0,AccFast,20,18,Woman,Right,
10,14,1,1.8674132000014652,['c'],1,left,['3'],4,0.08468070000162697,0.1,0,AccFast,20,18,Woman,Right,
11,14,1,0.8330815999997867,['n'],1,right,['3'],4,0.1013370999990002,0.4,0,AccFast,20,18,Woman,Right,
12,14,1,1.633624599999166,['n'],0,left,['3'],4,0.10154060000058962,0.1,0,AccFast,20,18,Woman,Right,
13,14,1,1.5167534000011074,['c'],1,left,['3'],4,0.15137510000022303,0.1,0,AccFast,20,18,Woman,Right,
14,14,1,1.5335372000008647,['n'],1,right,['2'],5,0.13435580000077607,0.4,0,AccFast,20,18,Woman,Right,
15,14,1,1.5502330999988772,['c'],0,right,['2'],5,0.11803089999921212,0.2,0,AccFast,20,18,Woman,Right,
16,14,1,1.6991194999991421,['c'],0,right,['2'],5,0.11765580000064801,0.1,0,AccFast,20,18,Woman,Right,
17,14,1,1.6669404000003851,['n'],0,left,['3'],4,0.16818029999922146,0.1,0,AccFast,20,18,Woman,Right,
18,14,1,1.0336851000010938,['c'],0,right,['3'],4,0.034754700000121375,0.2,0,AccFast,20,18,Woman,Right,
19,14,1,1.8672138000001723,['c'],1,left,['3'],4,0.033755599999494734,0.1,0,AccFast,20,18,Woman,Right,
20,14,1,3.1337464999996882,['n'],1,right,['3'],4,0.1345779000002949,0.1,0,AccFast,20,18,Woman,Right,
21,14,1,0.8173116999987542,['n'],1,right,['8'],3,0.11755930000072112,0.1,0,AccFast,20,18,Woman,Right,
22,14,1,1.5005749000010837,['c'],1,left,['2'],5,0.1347635000001901,0.4,0,AccFast,20,18,Woman,Right,
23,14,1,1.3999189000005572,['c'],0,right,['3'],4,0.06787179999992077,0.2,0,AccFast,20,18,Woman,Right,
24,14,1,1.7504156000013609,['n'],0,left,['2'],5,0.051100900000164984,0.4,0,AccFast,20,18,Woman,Right,
25,14,1,2.3666102000006504,['n'],1,right,['2'],5,0.23462880000079167,0.4,0,AccFast,20,18,Woman,Right,
26,14,1,2.083941999999297,['c'],0,right,['3'],4,0.017660800000157906,0.2,0,AccFast,20,18,Woman,Right,
27,14,1,1.2833843999997043,['n'],1,right,['3'],4,0.15154330000041227,0.1,0,AccFast,20,18,Woman,Right,
28,14,1,1.9503272000001743,['n'],1,right,['2'],5,0.1507742000012513,0.1,0,AccFast,20,18,Woman,Right,
29,14,1,2.1334802999990643,['c'],1,left,['2'],5,0.20161469999948167,0.4,0,AccFast,20,18,Woman,Right,
30,14,1,1.2169353999997838,['n'],0,left,['3'],4,0.1672416000001249,0.1,0,AccFast,20,18,Woman,Right,
31,14,1,0.8003979999994044,['c'],0,right,['3'],4,0.15102200000001176,0.4,0,AccFast,20,18,Woman,Right,
32,14,1,0.8334755000014411,['c'],0,right,['3'],4,0.18485639999926207,0.2,0,AccFast,20,18,Woman,Right,
33,14,1,1.2994923000005656,['n'],1,right,['3'],4,0.1348916000006284,0.2,0,AccFast,20,18,Woman,Right,
34,14,1,1.4678573999990476,['c'],1,left,['3'],4,3.0174466999997094,0.2,0,AccFast,20,18,Woman,Right,
35,14,1,1.2501241999998456,['n'],1,right,['3'],4,0.08372490000147081,0.4,0,AccFast,20,18,Woman,Right,
36,14,1,2.2674533000008523,['n'],0,left,['8'],3,0.1008665999997902,0.1,0,AccFast,20,18,Woman,Right,
37,14,1,2.0670422000002873,['n'],1,right,['3'],4,0.15125780000016675,0.2,0,AccFast,20,18,Woman,Right,
38,14,1,1.3002329999999347,['c'],1,left,['3'],4,0.01789409999946656,0.2,0,AccFast,20,18,Woman,Right,
39,14,1,3.716956999998729,['n'],1,right,['3'],4,0.15122730000075535,0.2,0,AccFast,20,18,Woman,Right,
40,14,1,1.0340658000004623,['c'],1,left,['3'],4,0.15129009999873233,0.2,0,AccFast,20,18,Woman,Right,
41,14,1,0.750617700001385,['n'],0,left,['3'],4,0.15118230000007316,0.2,0,AccFast,20,18,Woman,Right,
42,14,1,1.0668622000011965,['c'],1,left,['3'],4,0.051330500000403845,0.4,0,AccFast,20,18,Woman,Right,
43,14,1,2.350217799999882,['c'],1,left,['3'],4,0.08450230000016745,0.1,0,AccFast,20,18,Woman,Right,
44,14,1,1.0504259999997885,['c'],1,left,['2'],5,0.1342886999991606,0.4,0,AccFast,20,18,Woman,Right,
45,14,1,1.4171432999992248,['n'],1,right,['2'],5,0.1850293999996211,0.4,0,AccFast,20,18,Woman,Right,
46,14,1,1.4504866999996011,['n'],1,right,['3'],4,0.2511431000002631,0.4,0,AccFast,20,18,Woman,Right,
47,14,1,1.5338191999999253,['c'],1,left,['3'],4,0.15126469999995606,0.1,0,AccFast,20,18,Woman,Right,
48,14,1,1.7500164000011864,['c'],0,right,['3'],4,0.1346073000004253,0.2,0,AccFast,20,18,Woman,Right,
49,14,1,2.3999639000012394,['n'],0,left,['8'],3,1.2844101999999111,0.4,0,AccFast,20,18,Woman,Right,
50,14,1,1.3835861999996268,['c'],1,left,['2'],5,0.15111700000124983,0.1,0,AccFast,20,18,Woman,Right,
51,14,1,0.6167728000000352,['c'],0,right,['3'],4,0.20130189999872528,0.4,0,AccFast,20,18,Woman,Right,
52,14,1,0.866735499999777,['n'],1,right,['8'],3,0.10128830000030575,0.4,0,AccFast,20,18,Woman,Right,
53,14,1,1.2670097999998688,['c'],1,left,['3'],4,0.1681723999990936,0.1,0,AccFast,20,18,Woman,Right,
54,14,1,1.1336014999997133,['n'],1,right,['3'],4,0.1839918999994552,0.1,0,AccFast,20,18,Woman,Right,
55,14,1,0.7507882999998401,['c'],1,left,['3'],4,0.10115829999995185,0.1,0,AccFast,20,18,Woman,Right,
56,14,1,0.7503639999995357,['n'],0,left,['3'],4,0.15138479999950505,0.4,0,AccFast,20,18,Woman,Right,
57,14,1,1.2004125999992539,['c'],0,right,['3'],4,0.10134189999916998,0.2,0,AccFast,20,18,Woman,Right,
58,14,1,1.8500409999996918,['n'],0,left,['3'],4,0.21797269999842683,0.2,0,AccFast,20,18,Woman,Right,
59,14,1,1.5496479000012187,['n'],0,left,['3'],4,0.13490939999974216,0.2,0,AccFast,20,18,Woman,Right,
0,15,1,1.2843561000008776,['c'],0,right,['2'],5,0.650560800000676,0.4,0,AccAcc,20,18,Woman,Right,
1,15,1,1.066014100000757,['c'],1,left,['3'],4,0.6514731999996002,0.2,0,AccAcc,20,18,Woman,Right,
2,15,1,1.166552500000762,['n'],1,right,['2'],5,0.5344323999997869,0.4,0,AccAcc,20,18,Woman,Right,
3,15,1,1.5334676000002219,['c'],0,right,['3'],4,0.6178235999996105,0.4,0,AccAcc,20,18,Woman,Right,
4,15,1,1.8169717000000674,['n'],1,right,['3'],4,0.4845788000002358,0.1,0,AccAcc,20,18,Woman,Right,
5,15,1,1.0001510000001872,['c'],1,left,['2'],5,0.46790429999964545,0.2,0,AccAcc,20,18,Woman,Right,
6,15,1,1.9009259999984351,['c'],1,left,['1'],6,0.3844800999995641,0.4,0,AccAcc,20,18,Woman,Right,
7,15,1,1.132731200001217,['n'],1,right,['3'],4,0.3846985999989556,0.2,0,AccAcc,20,18,Woman,Right,
8,15,1,1.24995989999843,['n'],0,left,['3'],4,0.4348789999985456,0.1,0,AccAcc,20,18,Woman,Right,
9,15,1,1.1835747999994055,['n'],1,right,['3'],4,0.36789169999974547,0.2,0,AccAcc,20,18,Woman,Right,
10,15,1,1.1500668000007863,['c'],1,left,['2'],5,0.4171482999990985,0.4,0,AccAcc,20,18,Woman,Right,
11,15,1,1.91693529999975,['n'],1,right,['3'],4,0.2011886999989656,0.1,0,AccAcc,20,18,Woman,Right,
12,15,1,1.5170044000005873,['c'],0,right,['3'],4,0.38452520000100776,0.2,0,AccAcc,20,18,Woman,Right,
13,15,1,1.2333619000000908,['n'],1,right,['3'],4,0.2510009000015998,0.2,0,AccAcc,20,18,Woman,Right,
14,15,1,0.9337129000014102,['c'],1,left,['3'],4,0.20117620000019087,0.1,0,AccAcc,20,18,Woman,Right,
15,15,1,1.4005510000006325,['n'],1,right,['3'],4,0.23472749999928055,0.1,0,AccAcc,20,18,Woman,Right,
16,15,1,1.2004854000006162,['n'],1,right,['3'],4,0.21796839999842632,0.1,0,AccAcc,20,18,Woman,Right,
17,15,1,1.1163336000008712,['c'],0,right,['2'],5,0.3672012999995786,0.2,0,AccAcc,20,18,Woman,Right,
18,15,1,1.6168527999998332,['n'],1,right,['3'],4,0.31761120000010123,0.2,0,AccAcc,20,18,Woman,Right,
19,15,1,1.2504547999997158,['c'],0,right,['3'],4,0.7505746000006184,0.1,0,AccAcc,20,18,Woman,Right,
20,15,1,1.5667757999999594,['n'],0,left,['3'],4,0.4180200999999215,0.1,0,AccAcc,20,18,Woman,Right,
21,15,1,1.5328277999997226,['c'],0,right,['8'],3,0.9011952999990172,0.4,0,AccAcc,20,18,Woman,Right,
22,15,1,1.5494560999995883,['c'],0,right,['3'],4,0.36824739999974554,0.1,0,AccAcc,20,18,Woman,Right,
23,15,1,0.9670715000011114,['n'],1,right,['3'],4,0.3178760999999213,0.2,0,AccAcc,20,18,Woman,Right,
24,15,1,1.0990297999996983,['c'],1,left,['3'],4,0.334535700001652,0.1,0,AccAcc,20,18,Woman,Right,
25,15,1,1.2997555999991164,['n'],1,right,['3'],4,0.38451549999990675,0.2,0,AccAcc,20,18,Woman,Right,
26,15,1,1.2504917000005662,['n'],0,left,['3'],4,0.21790409999994154,0.1,0,AccAcc,20,18,Woman,Right,
27,15,1,1.2828900000004069,['c'],0,right,['3'],4,0.31797030000052473,0.4,0,AccAcc,20,18,Woman,Right,
28,15,1,1.565537000000404,['c'],1,left,['3'],4,0.5514579999999114,0.1,0,AccAcc,20,18,Woman,Right,
29,15,1,0.9664519999987533,['c'],1,left,['2'],5,0.3182529000005161,0.2,0,AccAcc,20,18,Woman,Right,
30,15,1,1.1331243999993603,['n'],0,left,['3'],4,0.30129520000082266,0.4,0,AccAcc,20,18,Woman,Right,
31,15,1,1.5670748000011372,['n'],1,right,['3'],4,0.35131169999840495,0.1,0,AccAcc,20,18,Woman,Right,
32,15,1,1.2331689999991795,['c'],1,left,['2'],5,0.2999707999988459,0.4,0,AccAcc,20,18,Woman,Right,
33,15,1,1.2177833000005194,['n'],0,left,['3'],4,0.2844953000003443,0.4,0,AccAcc,20,18,Woman,Right,
34,15,1,0.8334247999991931,['n'],1,right,['2'],5,0.3015186000011454,0.4,0,AccAcc,20,18,Woman,Right,
35,15,1,1.3669596999989153,['n'],0,left,['3'],4,0.3845534000010957,0.1,0,AccAcc,20,18,Woman,Right,
36,15,1,1.0003601999997045,['c'],1,left,['2'],5,0.3173709000002418,0.4,0,AccAcc,20,18,Woman,Right,
37,15,1,1.233558500000072,['c'],1,left,['3'],4,0.23464830000011716,0.2,0,AccAcc,20,18,Woman,Right,
38,15,1,1.6988146000003326,['c'],1,left,['3'],4,0.1181985999992321,0.2,0,AccAcc,20,18,Woman,Right,
39,15,1,1.150276100001065,['n'],0,left,['3'],4,0.3679236999996647,0.2,0,AccAcc,20,18,Woman,Right,
40,15,1,1.2331080000003567,['n'],1,right,['3'],4,0.3678068000008352,0.4,0,AccAcc,20,18,Woman,Right,
41,15,1,2.116605899998831,['n'],0,left,['8'],3,1.1515928999997413,0.1,0,AccAcc,20,18,Woman,Right,
42,15,1,1.1338863000000856,['c'],0,right,['3'],4,0.23474739999983285,0.2,0,AccAcc,20,18,Woman,Right,
43,15,1,1.8170875000014348,['c'],1,left,['2'],5,0.30100279999896884,0.2,0,AccAcc,20,18,Woman,Right,
44,15,1,2.1170418999990943,['c'],1,left,['3'],4,0.31768649999867193,0.4,0,AccAcc,20,18,Woman,Right,
45,15,1,0.9835079000004043,['c'],0,right,['2'],5,0.18495589999838558,0.1,0,AccAcc,20,18,Woman,Right,
46,15,1,1.765441200001078,['n'],0,left,['3'],4,0.20079900000018824,0.1,0,AccAcc,20,18,Woman,Right,
47,15,1,1.051769100000456,['c'],0,right,['3'],4,0.28538189999926544,0.1,0,AccAcc,20,18,Woman,Right,
48,15,1,1.8504629999988538,['n'],1,right,['2'],5,0.5847790999996505,0.4,0,AccAcc,20,18,Woman,Right,
49,15,1,1.3663074999985838,['n'],1,right,['3'],4,0.2347738999997091,0.2,0,AccAcc,20,18,Woman,Right,
50,15,1,0.9835435999993933,['c'],1,left,['3'],4,0.18458629999986442,0.1,0,AccAcc,20,18,Woman,Right,
51,15,1,1.3829384000000573,['c'],0,right,['0'],1,1.1016552000000956,0.1,0,AccAcc,20,18,Woman,Right,
52,15,1,1.5502795000011247,['n'],0,left,['3'],4,0.16815940000014962,0.2,0,AccAcc,20,18,Woman,Right,
53,15,1,1.30041490000076,['c'],1,left,['3'],4,0.2671557000012399,0.2,0,AccAcc,20,18,Woman,Right,
54,15,1,1.7673997999991116,['c'],1,left,['2'],5,0.21770180000021355,0.4,0,AccAcc,20,18,Woman,Right,
55,15,1,1.6329251999995904,['n'],1,right,['1'],6,0.2845636999991257,0.4,0,AccAcc,20,18,Woman,Right,
56,15,1,2.816753500001141,['c'],0,right,['3'],4,0.1347315000002709,0.2,0,AccAcc,20,18,Woman,Right,
57,15,1,1.583789500000421,['c'],1,left,['1'],6,0.26719109999976354,0.4,0,AccAcc,20,18,Woman,Right,
58,15,1,1.8002065000000584,['c'],1,left,['1'],6,0.2178081000001839,0.4,0,AccAcc,20,18,Woman,Right,
59,15,1,1.8675892000010208,['c'],1,left,['1'],6,0.13373909999972966,0.4,0,AccAcc,20,18,Woman,Right,
