withinblocktrial,block,block_repetition,rt,resp,cor,cresp,conf_press,cj,rtconf,coherence,slow_trial,manipulation,sub,age,gender,handedness,
0,1,1,5.000024299999495,x,-99,left,none,-99,-99,0.5,1,none,9,19,Man,Left,
1,1,1,1.1484698000003846,['c'],1,left,none,-99,-99,0.5,0,none,9,19,Man,Left,
2,1,1,1.766237200001342,['n'],1,right,none,-99,-99,0.5,0,none,9,19,Man,Left,
3,1,1,1.850601899999674,['c'],1,left,none,-99,-99,0.5,0,none,9,19,Man,Left,
4,1,1,1.7167064000004757,['c'],1,left,none,-99,-99,0.5,0,none,9,19,Man,Left,
5,1,1,3.2501202000003104,['c'],0,right,none,-99,-99,0.5,0,none,9,19,Man,Left,
6,1,1,1.649767699998847,['c'],1,left,none,-99,-99,0.5,0,none,9,19,Man,Left,
7,1,1,2.5159984000001714,['c'],1,left,none,-99,-99,0.5,0,none,9,19,Man,Left,
8,1,1,5.015100199998415,x,-99,right,none,-99,-99,0.5,1,none,9,19,Man,Left,
9,1,1,1.067069700000502,['c'],1,left,none,-99,-99,0.5,0,none,9,19,Man,Left,
10,1,1,1.4669494000008854,['c'],0,right,none,-99,-99,0.5,0,none,9,19,Man,Left,
11,1,1,1.1339964999988297,['c'],1,left,none,-99,-99,0.5,0,none,9,19,Man,Left,
12,1,1,3.6669043000001693,['c'],1,left,none,-99,-99,0.5,0,none,9,19,Man,Left,
13,1,1,4.199976199999583,['n'],1,right,none,-99,-99,0.5,0,none,9,19,Man,Left,
14,1,1,5.01623440000003,x,-99,left,none,-99,-99,0.5,1,none,9,19,Man,Left,
15,1,1,0.7987585000009858,['c'],0,right,none,-99,-99,0.5,0,none,9,19,Man,Left,
16,1,1,0.8831828000002133,['n'],1,right,none,-99,-99,0.5,0,none,9,19,Man,Left,
17,1,1,4.1338009999999485,['c'],1,left,none,-99,-99,0.5,0,none,9,19,Man,Left,
18,1,1,5.016323399999237,x,-99,right,none,-99,-99,0.5,1,none,9,19,Man,Left,
19,1,1,2.0664981000008993,['c'],0,right,none,-99,-99,0.5,0,none,9,19,Man,Left,
20,1,1,5.0165293000009115,x,-99,right,none,-99,-99,0.5,1,none,9,19,Man,Left,
21,1,1,3.116816800000379,['n'],1,right,none,-99,-99,0.5,0,none,9,19,Man,Left,
22,1,1,3.099481700000979,['c'],1,left,none,-99,-99,0.5,0,none,9,19,Man,Left,
23,1,1,4.216308000000936,['n'],1,right,none,-99,-99,0.5,0,none,9,19,Man,Left,
0,1,2,0.9001129000007495,['c'],1,left,none,-99,-99,0.5,0,none,9,19,Man,Left,
1,1,2,2.0990622999997868,['c'],0,right,none,-99,-99,0.5,0,none,9,19,Man,Left,
2,1,2,0.8492722999999387,['c'],1,left,none,-99,-99,0.5,0,none,9,19,Man,Left,
3,1,2,0.8670351000000664,['c'],1,left,none,-99,-99,0.5,0,none,9,19,Man,Left,
4,1,2,3.232436600001165,['n'],1,right,none,-99,-99,0.5,0,none,9,19,Man,Left,
5,1,2,0.6503059000006033,['c'],1,left,none,-99,-99,0.5,0,none,9,19,Man,Left,
6,1,2,1.63243059999877,['c'],1,left,none,-99,-99,0.5,0,none,9,19,Man,Left,
7,1,2,2.566531999998915,['n'],1,right,none,-99,-99,0.5,0,none,9,19,Man,Left,
8,1,2,0.8500742000014725,['c'],1,left,none,-99,-99,0.5,0,none,9,19,Man,Left,
9,1,2,1.6659067000000505,['n'],0,left,none,-99,-99,0.5,0,none,9,19,Man,Left,
10,1,2,4.0998339999987365,['n'],1,right,none,-99,-99,0.5,0,none,9,19,Man,Left,
11,1,2,3.050694500001555,['c'],1,left,none,-99,-99,0.5,0,none,9,19,Man,Left,
12,1,2,1.8335891000006086,['c'],1,left,none,-99,-99,0.5,0,none,9,19,Man,Left,
13,1,2,2.266735699999117,['n'],1,right,none,-99,-99,0.5,0,none,9,19,Man,Left,
14,1,2,1.9997129000003042,['n'],1,right,none,-99,-99,0.5,0,none,9,19,Man,Left,
15,1,2,1.2498620999995183,['c'],1,left,none,-99,-99,0.5,0,none,9,19,Man,Left,
16,1,2,3.4833021000013105,['n'],1,right,none,-99,-99,0.5,0,none,9,19,Man,Left,
17,1,2,1.7824596999998903,['n'],1,right,none,-99,-99,0.5,0,none,9,19,Man,Left,
18,1,2,3.2001624000004085,['n'],1,right,none,-99,-99,0.5,0,none,9,19,Man,Left,
19,1,2,2.6002950000001874,['n'],1,right,none,-99,-99,0.5,0,none,9,19,Man,Left,
20,1,2,2.199538000000757,['n'],1,right,none,-99,-99,0.5,0,none,9,19,Man,Left,
21,1,2,2.250101800000266,['n'],1,right,none,-99,-99,0.5,0,none,9,19,Man,Left,
22,1,2,0.783726800000295,['c'],1,left,none,-99,-99,0.5,0,none,9,19,Man,Left,
23,1,2,0.983442599999762,['c'],1,left,none,-99,-99,0.5,0,none,9,19,Man,Left,
0,2,1,0.7165084000007482,['c'],1,left,none,-99,-99,0.2,0,none,9,19,Man,Left,
1,2,1,1.216021299998829,['c'],1,left,none,-99,-99,0.4,0,none,9,19,Man,Left,
2,2,1,1.083815299998605,['c'],1,left,none,-99,-99,0.2,0,none,9,19,Man,Left,
3,2,1,2.883586700001615,['n'],1,right,none,-99,-99,0.2,0,none,9,19,Man,Left,
4,2,1,3.6164423000009265,['n'],1,right,none,-99,-99,0.4,0,none,9,19,Man,Left,
5,2,1,3.9998117000013735,['c'],1,left,none,-99,-99,0.1,0,none,9,19,Man,Left,
6,2,1,3.966113899999982,['n'],1,right,none,-99,-99,0.1,0,none,9,19,Man,Left,
7,2,1,2.9987578999989637,['c'],0,right,none,-99,-99,0.4,0,none,9,19,Man,Left,
8,2,1,1.3173279999991792,['c'],1,left,none,-99,-99,0.4,0,none,9,19,Man,Left,
9,2,1,0.8991393000014796,['n'],1,right,none,-99,-99,0.4,0,none,9,19,Man,Left,
10,2,1,2.7496439999995346,['n'],1,right,none,-99,-99,0.2,0,none,9,19,Man,Left,
11,2,1,3.534043699999529,['n'],0,left,none,-99,-99,0.2,0,none,9,19,Man,Left,
12,2,1,3.933340199999293,['c'],0,right,none,-99,-99,0.1,0,none,9,19,Man,Left,
13,2,1,4.88326059999963,['c'],0,right,none,-99,-99,0.1,0,none,9,19,Man,Left,
14,2,1,0.9331910000000789,['c'],1,left,none,-99,-99,0.4,0,none,9,19,Man,Left,
15,2,1,2.5660643999999593,['n'],0,left,none,-99,-99,0.2,0,none,9,19,Man,Left,
16,2,1,2.7836633999995684,['c'],1,left,none,-99,-99,0.4,0,none,9,19,Man,Left,
17,2,1,3.800152199999502,['c'],0,right,none,-99,-99,0.2,0,none,9,19,Man,Left,
18,2,1,3.3668061999997008,['n'],0,left,none,-99,-99,0.1,0,none,9,19,Man,Left,
19,2,1,4.3632808000002115,['c'],0,right,none,-99,-99,0.1,0,none,9,19,Man,Left,
20,2,1,2.914704700000584,['n'],1,right,none,-99,-99,0.4,0,none,9,19,Man,Left,
21,2,1,4.132093700000041,['n'],1,right,none,-99,-99,0.1,0,none,9,19,Man,Left,
22,2,1,4.079567099999622,['c'],1,left,none,-99,-99,0.2,0,none,9,19,Man,Left,
23,2,1,1.546717199998966,['c'],1,left,none,-99,-99,0.1,0,none,9,19,Man,Left,
0,3,1,1.5656228000007104,['c'],0,right,['8'],4,1.967198099999223,0.2,0,none,9,19,Man,Left,
1,3,1,2.2319007999994938,['c'],0,right,['8'],4,1.3175494000006438,0.2,0,none,9,19,Man,Left,
2,3,1,5.01535160000094,x,-99,right,none,-99,-99,0.4,1,none,9,19,Man,Left,
3,3,1,1.2821134999994683,['c'],1,left,['8'],4,1.267301400001088,0.1,0,none,9,19,Man,Left,
4,3,1,1.4491546999997809,['c'],1,left,['8'],4,0.4173097000002599,0.2,0,none,9,19,Man,Left,
5,3,1,4.182470000001558,['c'],1,left,['3'],3,0.6672502000001259,0.1,0,none,9,19,Man,Left,
6,3,1,5.016269199999442,x,-99,right,none,-99,-99,0.2,1,none,9,19,Man,Left,
7,3,1,1.0166222999996535,['c'],1,left,['8'],4,0.9837684000012814,0.1,0,none,9,19,Man,Left,
8,3,1,3.6173206999992544,['n'],1,right,['8'],4,2.550520700000561,0.4,0,none,9,19,Man,Left,
9,3,1,5.016250799999398,x,-99,right,none,-99,-99,0.2,1,none,9,19,Man,Left,
10,3,1,2.566191099998832,['c'],1,left,['3'],3,0.8504405000003317,0.1,0,none,9,19,Man,Left,
11,3,1,1.8655933999998524,['c'],0,right,['1'],1,0.7171256000001449,0.1,0,none,9,19,Man,Left,
12,3,1,2.8831246999998257,['n'],0,left,['8'],4,1.2338270000000193,0.2,0,none,9,19,Man,Left,
13,3,1,4.082485299999462,['c'],1,left,['2'],2,0.9170219999996334,0.1,0,none,9,19,Man,Left,
14,3,1,3.882238000000143,['n'],1,right,['2'],2,0.8338729000006424,0.1,0,none,9,19,Man,Left,
15,3,1,2.482927999999447,['n'],1,right,['9'],5,1.2671517999988282,0.4,0,none,9,19,Man,Left,
16,3,1,1.699631399998907,['c'],0,right,['3'],3,0.8504486000001634,0.4,0,none,9,19,Man,Left,
17,3,1,2.7662213999992673,['c'],1,left,['3'],3,1.1671544000000722,0.4,0,none,9,19,Man,Left,
18,3,1,1.6825324000001274,['c'],1,left,['8'],4,0.31715170000097714,0.4,0,none,9,19,Man,Left,
19,3,1,5.015300899998692,x,-99,right,none,-99,-99,0.2,1,none,9,19,Man,Left,
20,3,1,2.8829784999998083,['c'],0,right,['8'],4,1.0338799000001018,0.1,0,none,9,19,Man,Left,
21,3,1,1.9495219000000361,['c'],1,left,['3'],3,0.6171618999997008,0.4,0,none,9,19,Man,Left,
22,3,1,1.6828655999997864,['c'],1,left,['2'],2,0.9339395000006334,0.2,0,none,9,19,Man,Left,
23,3,1,1.7330663000011555,['c'],1,left,['3'],3,0.8172383000000991,0.4,0,none,9,19,Man,Left,
0,4,1,1.3825788000012835,['n'],1,right,['2'],2,1.1846620999986044,0.4,0,FastFast,9,19,Man,Left,
1,4,1,2.6829694000007294,['n'],1,right,['2'],2,1.367345299999215,0.1,0,FastFast,9,19,Man,Left,
2,4,1,1.2822966999992786,['c'],1,left,['2'],2,0.7172047000003658,0.2,0,FastFast,9,19,Man,Left,
3,4,1,0.8994753999995737,['c'],1,left,['8'],4,0.4834169000005204,0.1,0,FastFast,9,19,Man,Left,
4,4,1,0.9830297999997128,['n'],0,left,['2'],2,0.4002684000006411,0.1,0,FastFast,9,19,Man,Left,
5,4,1,1.2329856000014843,['n'],1,right,['8'],4,0.8839100000004692,0.4,0,FastFast,9,19,Man,Left,
6,4,1,0.93325139999979,['c'],1,left,['8'],4,0.3005137999989529,0.4,0,FastFast,9,19,Man,Left,
7,4,1,1.2329341000004206,['c'],0,right,['8'],4,0.31716290000076697,0.1,0,FastFast,9,19,Man,Left,
8,4,1,2.1162713000012445,['c'],1,left,['3'],3,0.6671631999997771,0.1,0,FastFast,9,19,Man,Left,
9,4,1,1.0005357999998523,['c'],1,left,['8'],4,0.3005584999991697,0.4,0,FastFast,9,19,Man,Left,
10,4,1,1.0670722000013484,['c'],0,right,['8'],4,0.25045160000081523,0.4,0,FastFast,9,19,Man,Left,
11,4,1,1.7662700999990193,['c'],1,left,['8'],4,0.6004548000000796,0.4,0,FastFast,9,19,Man,Left,
12,4,1,2.149803999998767,['c'],0,right,['1'],1,0.2504140000000916,0.4,0,FastFast,9,19,Man,Left,
13,4,1,2.449579600001016,['c'],1,left,['2'],2,0.633853100000124,0.1,0,FastFast,9,19,Man,Left,
14,4,1,1.2828916999987996,['n'],1,right,['9'],5,0.6004283000002033,0.4,0,FastFast,9,19,Man,Left,
15,4,1,2.1496284999993804,['c'],1,left,['2'],2,0.4170838999998523,0.1,0,FastFast,9,19,Man,Left,
16,4,1,2.7330154000010225,['c'],0,right,['1'],1,1.0505229999998846,0.1,0,FastFast,9,19,Man,Left,
17,4,1,1.315442200000689,['c'],1,left,['3'],3,0.31714610000017274,0.2,0,FastFast,9,19,Man,Left,
18,4,1,1.0162417000010464,['c'],1,left,['8'],4,0.617109699998764,0.4,0,FastFast,9,19,Man,Left,
19,4,1,1.3162770999988425,['n'],1,right,['8'],4,0.3172196999985317,0.4,0,FastFast,9,19,Man,Left,
20,4,1,2.032061400001112,['n'],1,right,['2'],2,0.3838709999999992,0.2,0,FastFast,9,19,Man,Left,
21,4,1,1.3170683999996982,['n'],1,right,['9'],5,0.4002457999995386,0.2,0,FastFast,9,19,Man,Left,
22,4,1,2.0007401000002574,['c'],0,right,['2'],2,0.5503883000001224,0.4,0,FastFast,9,19,Man,Left,
23,4,1,1.8332307000000583,['c'],1,left,['2'],2,0.4505453999991005,0.2,0,FastFast,9,19,Man,Left,
24,4,1,1.6327622000007977,['c'],0,right,['1'],1,0.23390980000112904,0.4,0,FastFast,9,19,Man,Left,
25,4,1,1.682890199999747,['c'],0,right,['3'],3,0.26718070000060834,0.1,0,FastFast,9,19,Man,Left,
26,4,1,2.0995606999986194,['c'],1,left,['8'],4,0.5339024999993853,0.4,0,FastFast,9,19,Man,Left,
27,4,1,2.166515700000673,['n'],1,right,['2'],2,0.550499499999205,0.4,0,FastFast,9,19,Man,Left,
28,4,1,1.9993675999994593,['c'],1,left,['2'],2,0.8004779999992024,0.2,0,FastFast,9,19,Man,Left,
29,4,1,3.1660109999993438,['n'],0,left,['8'],4,0.633972999999969,0.2,0,FastFast,9,19,Man,Left,
30,4,1,2.032877899999221,['n'],0,left,['3'],3,0.6503757999998925,0.1,0,FastFast,9,19,Man,Left,
31,4,1,2.4999784999999974,['n'],1,right,['8'],4,0.4005381999995734,0.4,0,FastFast,9,19,Man,Left,
32,4,1,2.266312600000674,['n'],1,right,['2'],2,0.2671043999998801,0.2,0,FastFast,9,19,Man,Left,
33,4,1,1.3827187000006234,['n'],0,left,['2'],2,0.1672030999998242,0.1,0,FastFast,9,19,Man,Left,
34,4,1,1.3988114000003407,['n'],0,left,['1'],1,0.6504626000005373,0.1,0,FastFast,9,19,Man,Left,
35,4,1,1.8490685999986454,['n'],1,right,['2'],2,0.3670236999987537,0.1,0,FastFast,9,19,Man,Left,
36,4,1,1.6335374000009324,['c'],1,left,['3'],3,0.25035989999923913,0.2,0,FastFast,9,19,Man,Left,
37,4,1,1.215658799999801,['c'],1,left,['3'],3,0.2840248000011343,0.4,0,FastFast,9,19,Man,Left,
38,4,1,1.1834827000002406,['c'],1,left,['3'],3,0.1838157999991381,0.4,0,FastFast,9,19,Man,Left,
39,4,1,2.1171653999990667,['c'],0,right,['3'],3,0.2171505000005709,0.1,0,FastFast,9,19,Man,Left,
40,4,1,1.4489771999997174,['n'],0,left,['3'],3,0.26700850000088394,0.2,0,FastFast,9,19,Man,Left,
41,4,1,1.5664965999985725,['n'],1,right,['8'],4,0.3171708999998373,0.2,0,FastFast,9,19,Man,Left,
42,4,1,2.9658613999999943,['c'],0,right,['2'],2,0.3338261999997485,0.1,0,FastFast,9,19,Man,Left,
43,4,1,1.5321117000003142,['c'],1,left,['8'],4,0.6006590000015422,0.2,0,FastFast,9,19,Man,Left,
44,4,1,0.6495586000000912,['c'],1,left,['8'],4,0.25051499999972293,0.1,0,FastFast,9,19,Man,Left,
45,4,1,1.1329568000001018,['c'],1,left,['8'],4,0.2004250999998476,0.2,0,FastFast,9,19,Man,Left,
46,4,1,1.2328028000010818,['c'],1,left,['8'],4,0.2005570000001171,0.1,0,FastFast,9,19,Man,Left,
47,4,1,1.6322004000012384,['c'],0,right,['2'],2,0.20066870000118797,0.2,0,FastFast,9,19,Man,Left,
48,4,1,0.9492796000013186,['c'],0,right,['8'],4,0.5004847000000154,0.4,0,FastFast,9,19,Man,Left,
49,4,1,0.7494141999995918,['c'],0,right,['8'],4,0.3170568000005005,0.2,0,FastFast,9,19,Man,Left,
50,4,1,1.3653945999994903,['c'],0,right,['8'],4,0.20061010000063106,0.2,0,FastFast,9,19,Man,Left,
51,4,1,1.1162535999992542,['c'],0,right,['3'],3,0.25052859999959765,0.4,0,FastFast,9,19,Man,Left,
52,4,1,1.04941990000043,['c'],1,left,['0'],6,0.6505147000007128,0.4,0,FastFast,9,19,Man,Left,
53,4,1,1.3995216000002983,['c'],0,right,['2'],2,0.48387210000146297,0.1,0,FastFast,9,19,Man,Left,
54,4,1,1.6159400999986246,['c'],0,right,['8'],4,0.2171340999993845,0.2,0,FastFast,9,19,Man,Left,
55,4,1,1.5654163999988668,['n'],1,right,['3'],3,0.13401100000010047,0.2,0,FastFast,9,19,Man,Left,
56,4,1,2.8987788000013097,['n'],0,left,['8'],4,0.2503950000009354,0.1,0,FastFast,9,19,Man,Left,
57,4,1,3.282003700000132,['c'],1,left,['3'],3,0.31733920000078797,0.2,0,FastFast,9,19,Man,Left,
58,4,1,1.8495868999998493,['n'],0,left,['8'],4,0.1505739000003814,0.2,0,FastFast,9,19,Man,Left,
59,4,1,1.0992014999992534,['n'],1,right,['3'],3,0.35048989999995683,0.1,0,FastFast,9,19,Man,Left,
0,5,1,3.716090699999768,['n'],0,left,['9'],5,0.5671934000001784,0.1,0,AccFast,9,19,Man,Left,
1,5,1,3.7336450000002515,['n'],1,right,['8'],4,0.25055539999993925,0.2,0,AccFast,9,19,Man,Left,
2,5,1,1.232059500000105,['n'],1,right,['8'],4,0.21717720000015106,0.4,0,AccFast,9,19,Man,Left,
3,5,1,1.2823638999998366,['n'],0,left,['9'],5,0.21695250000084343,0.1,0,AccFast,9,19,Man,Left,
4,5,1,1.1332357999999658,['n'],1,right,['3'],3,0.16715600000134145,0.4,0,AccFast,9,19,Man,Left,
5,5,1,0.948908999998821,['n'],0,left,['8'],4,0.13364530000035302,0.2,0,AccFast,9,19,Man,Left,
6,5,1,1.4491677000005438,['n'],0,left,['8'],4,0.25054549999913434,0.4,0,AccFast,9,19,Man,Left,
7,5,1,2.917216899999403,['c'],1,left,['3'],3,0.20059860000037588,0.4,0,AccFast,9,19,Man,Left,
8,5,1,2.132751200000712,['n'],1,right,['8'],4,0.16714700000011362,0.2,0,AccFast,9,19,Man,Left,
9,5,1,2.549028500001441,['c'],1,left,['3'],3,0.2670024999988527,0.4,0,AccFast,9,19,Man,Left,
10,5,1,2.7660311999989062,['c'],1,left,['2'],2,0.3336634999996022,0.1,0,AccFast,9,19,Man,Left,
11,5,1,2.200947900000756,['n'],1,right,['1'],1,0.11703060000036203,0.1,0,AccFast,9,19,Man,Left,
12,5,1,1.2165905999991082,['n'],1,right,['9'],5,0.13391109999975015,0.4,0,AccFast,9,19,Man,Left,
13,5,1,2.616156799998862,['n'],1,right,['9'],5,0.21714000000065425,0.1,0,AccFast,9,19,Man,Left,
14,5,1,1.849814499999411,['c'],1,left,['8'],4,0.11713670000062848,0.2,0,AccFast,9,19,Man,Left,
15,5,1,1.5830445999999938,['n'],0,left,['2'],2,0.1839659000015672,0.2,0,AccFast,9,19,Man,Left,
16,5,1,4.283114800000476,['n'],1,right,['1'],1,0.10068150000006426,0.1,0,AccFast,9,19,Man,Left,
17,5,1,2.3501513000010164,['c'],0,right,['2'],2,0.13391520000004675,0.2,0,AccFast,9,19,Man,Left,
18,5,1,2.4828869000011764,['n'],0,left,['8'],4,0.13385599999855913,0.1,0,AccFast,9,19,Man,Left,
19,5,1,4.5161366000011185,['c'],0,right,['1'],1,0.8004548000008072,0.1,0,AccFast,9,19,Man,Left,
20,5,1,4.865945200001079,['c'],0,right,['8'],4,0.21697409999978845,0.4,0,AccFast,9,19,Man,Left,
21,5,1,2.898637399999643,['c'],0,right,['8'],4,0.13384430000041903,0.4,0,AccFast,9,19,Man,Left,
22,5,1,5.015975000000253,x,-99,right,none,-99,-99,0.4,1,AccFast,9,19,Man,Left,
23,5,1,1.3162395999988803,['c'],1,left,['8'],4,0.11720729999979085,0.2,0,AccFast,9,19,Man,Left,
24,5,1,0.6987969000001613,['c'],1,left,['8'],4,0.16716330000053858,0.4,0,AccFast,9,19,Man,Left,
25,5,1,1.0342283000009047,['c'],1,left,['9'],5,0.1502239000001282,0.4,0,AccFast,9,19,Man,Left,
26,5,1,1.0489506000012625,['c'],1,left,['0'],6,0.15053989999978512,0.2,0,AccFast,9,19,Man,Left,
27,5,1,4.716072499999427,['c'],1,left,['2'],2,0.6504557999996905,0.1,0,AccFast,9,19,Man,Left,
28,5,1,2.182856299999912,['c'],0,right,['1'],1,0.20051359999888518,0.4,0,AccFast,9,19,Man,Left,
29,5,1,4.599730900001305,['n'],0,left,['2'],2,0.5338288000002649,0.2,0,AccFast,9,19,Man,Left,
30,5,1,4.049564500000997,['c'],1,left,['2'],2,0.43389679999927466,0.4,0,AccFast,9,19,Man,Left,
31,5,1,1.1495766999996704,['c'],0,right,['2'],2,0.10053180000068096,0.2,0,AccFast,9,19,Man,Left,
32,5,1,0.36690029999954277,['c'],1,left,['3'],3,0.1833255999990797,0.4,0,AccFast,9,19,Man,Left,
33,5,1,0.7159561999997095,['c'],0,right,['2'],2,0.18387800000164134,0.4,0,AccFast,9,19,Man,Left,
34,5,1,4.284098199999789,['n'],0,left,['2'],2,0.8673488000003999,0.1,0,AccFast,9,19,Man,Left,
35,5,1,0.83327780000036,['n'],0,left,['3'],3,0.13361380000060308,0.1,0,AccFast,9,19,Man,Left,
36,5,1,1.182155899999998,['n'],0,left,['3'],3,0.08395609999934095,0.4,0,AccFast,9,19,Man,Left,
37,5,1,1.8661273999987316,['c'],0,right,['8'],4,0.23366800000076182,0.1,0,AccFast,9,19,Man,Left,
38,5,1,1.5156925999999658,['c'],0,right,['8'],4,0.20049029999972845,0.4,0,AccFast,9,19,Man,Left,
39,5,1,1.7834640000000945,['c'],0,right,['8'],4,0.20004230000085954,0.4,0,AccFast,9,19,Man,Left,
40,5,1,0.83408480000071,['c'],1,left,['9'],5,0.1172456999993301,0.1,0,AccFast,9,19,Man,Left,
41,5,1,2.18190069999946,['c'],1,left,['2'],2,0.1505410000008851,0.2,0,AccFast,9,19,Man,Left,
42,5,1,1.133217099999456,['c'],0,right,['2'],2,0.200299800000721,0.2,0,AccFast,9,19,Man,Left,
43,5,1,5.016369599999962,x,-99,right,none,-99,-99,0.2,1,AccFast,9,19,Man,Left,
44,5,1,3.5324909999999363,['c'],0,right,['2'],2,0.3504635999997845,0.2,0,AccFast,9,19,Man,Left,
45,5,1,4.1666151999997965,['c'],0,right,['2'],2,0.30054500000005646,0.2,0,AccFast,9,19,Man,Left,
46,5,1,1.4664370999998937,['c'],1,left,['2'],2,0.06718259999979637,0.1,0,AccFast,9,19,Man,Left,
47,5,1,0.9329447000000073,['n'],1,right,['2'],2,0.15048290000049747,0.2,0,AccFast,9,19,Man,Left,
48,5,1,0.7494525000001886,['n'],1,right,['2'],2,0.11709509999855072,0.1,0,AccFast,9,19,Man,Left,
49,5,1,4.116692999999941,['n'],1,right,['3'],3,0.20056109999859473,0.1,0,AccFast,9,19,Man,Left,
50,5,1,1.3161687000010716,['n'],1,right,['3'],3,0.15049790000011853,0.2,0,AccFast,9,19,Man,Left,
51,5,1,1.3667943000000378,['n'],0,left,['3'],3,0.10050109999974666,0.1,0,AccFast,9,19,Man,Left,
52,5,1,1.099587699998665,['c'],1,left,['2'],2,0.36703250000027765,0.1,0,AccFast,9,19,Man,Left,
53,5,1,2.599184000000605,['c'],1,left,['3'],3,0.21716639999976906,0.4,0,AccFast,9,19,Man,Left,
54,5,1,2.649328299999979,['c'],1,left,['3'],3,0.1667462000004889,0.2,0,AccFast,9,19,Man,Left,
55,5,1,1.39997349999976,['c'],0,right,['3'],3,0.15049469999939902,0.2,0,AccFast,9,19,Man,Left,
56,5,1,2.082936700000573,['c'],1,left,['3'],3,0.10051080000084767,0.2,0,AccFast,9,19,Man,Left,
57,5,1,1.4495009999991453,['c'],0,right,['8'],4,0.15039969999997993,0.1,0,AccFast,9,19,Man,Left,
58,5,1,0.8163313999993989,['c'],0,right,['3'],3,0.23397859999931825,0.1,0,AccFast,9,19,Man,Left,
59,5,1,3.616786200000206,['c'],1,left,['3'],3,0.13405620000048657,0.4,0,AccFast,9,19,Man,Left,
0,6,1,4.549163599998792,['n'],1,right,['8'],4,0.9336750000002212,0.4,0,AccAcc,9,19,Man,Left,
1,6,1,1.466893799999525,['c'],0,right,['3'],3,0.25055949999841687,0.2,0,AccAcc,9,19,Man,Left,
2,6,1,1.299247100001594,['n'],0,left,['3'],3,0.15066079999996873,0.1,0,AccAcc,9,19,Man,Left,
3,6,1,2.032349900000554,['n'],1,right,['8'],4,0.5673351999994338,0.4,0,AccAcc,9,19,Man,Left,
4,6,1,1.6828103000007104,['c'],1,left,['3'],3,0.28377050000017334,0.2,0,AccAcc,9,19,Man,Left,
5,6,1,1.2660366999989492,['n'],1,right,['8'],4,0.48400559999936377,0.1,0,AccAcc,9,19,Man,Left,
6,6,1,1.8827590999990207,['c'],1,left,['2'],2,0.6504992999998649,0.2,0,AccAcc,9,19,Man,Left,
7,6,1,3.099477300000217,['c'],0,right,['8'],4,0.28367119999893475,0.2,0,AccAcc,9,19,Man,Left,
8,6,1,2.332567800000106,['n'],1,right,['9'],5,0.41730830000051355,0.1,0,AccAcc,9,19,Man,Left,
9,6,1,1.2666367999991053,['n'],1,right,['8'],4,0.3839936000003945,0.4,0,AccAcc,9,19,Man,Left,
10,6,1,1.9663331000010658,['c'],0,right,['0'],6,0.417214299999614,0.1,0,AccAcc,9,19,Man,Left,
11,6,1,2.9491030000008323,['n'],0,left,['2'],2,0.31735939999998664,0.2,0,AccAcc,9,19,Man,Left,
12,6,1,2.000145900001371,['n'],0,left,['8'],4,0.35056820000136213,0.1,0,AccAcc,9,19,Man,Left,
13,6,1,0.8165759999992588,['n'],1,right,['8'],4,0.25057790000028035,0.1,0,AccAcc,9,19,Man,Left,
14,6,1,0.8495985000008659,['n'],1,right,['8'],4,0.20058520000020508,0.4,0,AccAcc,9,19,Man,Left,
15,6,1,0.899049700001342,['n'],1,right,['0'],6,0.26726460000099905,0.4,0,AccAcc,9,19,Man,Left,
16,6,1,2.132921799999167,['c'],0,right,['1'],1,0.350433300000077,0.1,0,AccAcc,9,19,Man,Left,
17,6,1,1.3326097000008303,['n'],1,right,['9'],5,0.20060650000050373,0.4,0,AccAcc,9,19,Man,Left,
18,6,1,1.0829412000002776,['n'],1,right,['8'],4,0.26714069999979984,0.1,0,AccAcc,9,19,Man,Left,
19,6,1,4.08405970000058,['c'],0,right,['2'],2,0.23382569999921543,0.1,0,AccAcc,9,19,Man,Left,
20,6,1,1.0656660000004194,['n'],1,right,['8'],4,0.15059519999886106,0.1,0,AccAcc,9,19,Man,Left,
21,6,1,1.3332883000002766,['n'],1,right,['9'],5,0.10032289999981003,0.2,0,AccAcc,9,19,Man,Left,
22,6,1,5.015167100000326,x,-99,left,none,-99,-99,0.1,1,AccAcc,9,19,Man,Left,
23,6,1,2.4006096000011894,['n'],0,left,['2'],2,0.18387219999931403,0.2,0,AccAcc,9,19,Man,Left,
24,6,1,4.016404599999078,['n'],0,left,['1'],1,0.7506750999982614,0.4,0,AccAcc,9,19,Man,Left,
25,6,1,1.7658221999990928,['n'],1,right,['9'],5,0.1504810999995243,0.1,0,AccAcc,9,19,Man,Left,
26,6,1,1.2319147999987763,['n'],0,left,['9'],5,0.1838621000006242,0.2,0,AccAcc,9,19,Man,Left,
27,6,1,1.0330957000005583,['n'],1,right,['8'],4,0.16720039999927394,0.1,0,AccAcc,9,19,Man,Left,
28,6,1,3.299704600000041,['n'],1,right,['0'],6,0.16699489999882644,0.4,0,AccAcc,9,19,Man,Left,
29,6,1,1.6836951000004774,['c'],1,left,['9'],5,0.31696480000027805,0.4,0,AccAcc,9,19,Man,Left,
30,6,1,2.899072199999864,['n'],0,left,['8'],4,0.18384060000062163,0.4,0,AccAcc,9,19,Man,Left,
31,6,1,3.8662982000005286,['n'],0,left,['8'],4,0.21719729999858828,0.2,0,AccAcc,9,19,Man,Left,
32,6,1,1.3493918999993184,['c'],1,left,['9'],5,0.25052789999972447,0.4,0,AccAcc,9,19,Man,Left,
33,6,1,1.999776999999085,['n'],1,right,['9'],5,0.16746280000006664,0.1,0,AccAcc,9,19,Man,Left,
34,6,1,1.1495912000009412,['c'],1,left,['2'],2,0.15070920000107435,0.1,0,AccAcc,9,19,Man,Left,
35,6,1,1.9002756999998383,['n'],0,left,['2'],2,0.3838417999995727,0.2,0,AccAcc,9,19,Man,Left,
36,6,1,1.8996146999998018,['c'],1,left,['9'],5,0.2005275999999867,0.4,0,AccAcc,9,19,Man,Left,
37,6,1,4.949416299999939,['n'],1,right,['2'],2,0.40071480000005977,0.1,0,AccAcc,9,19,Man,Left,
38,6,1,1.6495988000006037,['n'],1,right,['8'],4,0.06714429999919957,0.2,0,AccAcc,9,19,Man,Left,
39,6,1,1.0829333000001498,['n'],1,right,['8'],4,0.13383040000007895,0.1,0,AccAcc,9,19,Man,Left,
40,6,1,1.7991490999993403,['c'],1,left,['8'],4,0.30075339999893913,0.2,0,AccAcc,9,19,Man,Left,
41,6,1,1.2834972000000562,['c'],1,left,['2'],2,0.15064609999899403,0.4,0,AccAcc,9,19,Man,Left,
42,6,1,1.2664985000010347,['c'],1,left,['8'],4,0.11720600000080594,0.1,0,AccAcc,9,19,Man,Left,
43,6,1,2.0827448000000004,['n'],1,right,['8'],4,0.20050179999998363,0.2,0,AccAcc,9,19,Man,Left,
44,6,1,0.882537699999375,['c'],1,left,['3'],3,0.23366600000008475,0.2,0,AccAcc,9,19,Man,Left,
45,6,1,1.0993300000009185,['c'],1,left,['9'],5,0.21727409999948577,0.4,0,AccAcc,9,19,Man,Left,
46,6,1,0.7665880000004108,['c'],1,left,['9'],5,0.2004864999998972,0.2,0,AccAcc,9,19,Man,Left,
47,6,1,1.5498400999986188,['n'],1,right,['2'],2,0.36718780000046536,0.4,0,AccAcc,9,19,Man,Left,
48,6,1,1.6329678000001877,['n'],1,right,['8'],4,0.6337318000005325,0.4,0,AccAcc,9,19,Man,Left,
49,6,1,1.5664582999997947,['n'],1,right,['8'],4,0.2004092999995919,0.2,0,AccAcc,9,19,Man,Left,
50,6,1,1.0660399999997026,['n'],1,right,['8'],4,0.2172867999997834,0.4,0,AccAcc,9,19,Man,Left,
51,6,1,1.9995860999988508,['c'],1,left,['9'],5,0.15028239999992365,0.4,0,AccAcc,9,19,Man,Left,
52,6,1,3.432970199999545,['c'],1,left,['2'],2,0.9173761000001832,0.2,0,AccAcc,9,19,Man,Left,
53,6,1,1.766152599999259,['n'],1,right,['9'],5,0.20065430000067863,0.2,0,AccAcc,9,19,Man,Left,
54,6,1,1.3988560999987385,['c'],1,left,['8'],4,0.38400759999967704,0.4,0,AccAcc,9,19,Man,Left,
55,6,1,0.9998183000006975,['c'],1,left,['8'],4,0.18372890000136977,0.4,0,AccAcc,9,19,Man,Left,
56,6,1,2.466408500000398,['c'],1,left,['8'],4,0.5672319000004791,0.2,0,AccAcc,9,19,Man,Left,
57,6,1,3.799545699999726,['n'],0,left,['1'],1,0.8672829000006459,0.2,0,AccAcc,9,19,Man,Left,
58,6,1,1.7826266000010946,['c'],1,left,['8'],4,0.2506054999994376,0.1,0,AccAcc,9,19,Man,Left,
59,6,1,2.399577499998486,['c'],1,left,['8'],4,0.20048279999900842,0.1,0,AccAcc,9,19,Man,Left,
0,7,1,0.7325573999987682,['c'],1,left,['3'],3,4.03362449999986,0.2,0,FastAcc,9,19,Man,Left,
1,7,1,1.7659838999989006,['c'],0,right,['3'],3,0.70045779999964,0.4,0,FastAcc,9,19,Man,Left,
2,7,1,0.683410300000105,['c'],1,left,['3'],3,0.18391859999974258,0.4,0,FastAcc,9,19,Man,Left,
3,7,1,1.5496726000001217,['c'],0,right,['8'],4,0.1507277000000613,0.1,0,FastAcc,9,19,Man,Left,
4,7,1,1.082852900000944,['c'],1,left,['8'],4,0.15049250000083703,0.4,0,FastAcc,9,19,Man,Left,
5,7,1,1.7336796000017785,['c'],1,left,['2'],2,0.7671633999998448,0.2,0,FastAcc,9,19,Man,Left,
6,7,1,0.883125199999995,['c'],1,left,['8'],4,0.20047970000086934,0.1,0,FastAcc,9,19,Man,Left,
7,7,1,1.4658861999996589,['c'],1,left,['8'],4,0.200406900001326,0.2,0,FastAcc,9,19,Man,Left,
8,7,1,0.6165371999995841,['c'],1,left,['8'],4,0.1669421999995393,0.4,0,FastAcc,9,19,Man,Left,
9,7,1,0.8327349999999569,['c'],0,right,['8'],4,0.15050030000020342,0.1,0,FastAcc,9,19,Man,Left,
10,7,1,0.7497839000006934,['c'],0,right,['9'],5,0.21700520000013057,0.2,0,FastAcc,9,19,Man,Left,
11,7,1,0.8826805999997305,['c'],1,left,['3'],3,0.18375039999955334,0.2,0,FastAcc,9,19,Man,Left,
12,7,1,3.1818273999997473,['c'],1,left,['2'],2,0.11717649999991409,0.1,0,FastAcc,9,19,Man,Left,
13,7,1,1.4501294000001508,['c'],0,right,['2'],2,0.1505634999994072,0.4,0,FastAcc,9,19,Man,Left,
14,7,1,1.149442400001135,['c'],1,left,['9'],5,0.18381609999960347,0.2,0,FastAcc,9,19,Man,Left,
15,7,1,1.2660036999986914,['c'],1,left,['8'],4,0.6005906000009418,0.4,0,FastAcc,9,19,Man,Left,
16,7,1,3.200157200000831,['n'],1,right,['9'],5,0.1838532000001578,0.4,0,FastAcc,9,19,Man,Left,
17,7,1,2.0661813000006077,['c'],0,right,['2'],2,0.1672259999995731,0.4,0,FastAcc,9,19,Man,Left,
18,7,1,1.1330756999996083,['c'],1,left,['8'],4,0.15056920000097307,0.1,0,FastAcc,9,19,Man,Left,
19,7,1,1.949572800000169,['n'],1,right,['9'],5,0.5670946999998705,0.4,0,FastAcc,9,19,Man,Left,
20,7,1,1.1502801000006002,['c'],1,left,['8'],4,0.0839549000011175,0.2,0,FastAcc,9,19,Man,Left,
21,7,1,1.450037099999463,['c'],1,left,['2'],2,0.1837801000001491,0.2,0,FastAcc,9,19,Man,Left,
22,7,1,3.0178687999996328,['c'],0,right,['2'],2,0.13382950000050187,0.1,0,FastAcc,9,19,Man,Left,
23,7,1,1.0159912999988592,['c'],0,right,['2'],2,0.10049609999987297,0.1,0,FastAcc,9,19,Man,Left,
24,7,1,0.9167192999993858,['c'],1,left,['2'],2,0.21708639999997104,0.4,0,FastAcc,9,19,Man,Left,
25,7,1,0.6994283999993058,['c'],1,left,['2'],2,0.3004679000005126,0.4,0,FastAcc,9,19,Man,Left,
26,7,1,0.8659176000001025,['c'],1,left,['8'],4,0.1505105000014737,0.1,0,FastAcc,9,19,Man,Left,
27,7,1,0.6988814999986062,['c'],0,right,['8'],4,0.36715619999995397,0.1,0,FastAcc,9,19,Man,Left,
28,7,1,1.4993680999996286,['n'],1,right,['8'],4,0.1505211000003328,0.1,0,FastAcc,9,19,Man,Left,
29,7,1,2.016422500000772,['c'],0,right,['3'],3,0.21707470000001194,0.4,0,FastAcc,9,19,Man,Left,
30,7,1,1.0494884999989154,['c'],0,right,['3'],3,0.15037329999904614,0.1,0,FastAcc,9,19,Man,Left,
31,7,1,3.4163219000001845,['c'],1,left,['3'],3,0.21709310000005644,0.4,0,FastAcc,9,19,Man,Left,
32,7,1,0.9661038000012923,['c'],0,right,['8'],4,0.13385100000050443,0.4,0,FastAcc,9,19,Man,Left,
33,7,1,0.9168152999991435,['c'],1,left,['2'],2,0.1173841000018001,0.1,0,FastAcc,9,19,Man,Left,
34,7,1,1.3829351000003953,['c'],1,left,['8'],4,1.6005882000008569,0.4,0,FastAcc,9,19,Man,Left,
35,7,1,1.4660340000009455,['c'],1,left,['8'],4,0.13395149999996647,0.1,0,FastAcc,9,19,Man,Left,
36,7,1,0.9330007000007754,['c'],1,left,['8'],4,1.883918800000174,0.1,0,FastAcc,9,19,Man,Left,
37,7,1,0.6328897999992478,['c'],1,left,['8'],4,0.25034040000173263,0.1,0,FastAcc,9,19,Man,Left,
38,7,1,0.68291070000123,['c'],1,left,['8'],4,0.11716970000088622,0.4,0,FastAcc,9,19,Man,Left,
39,7,1,0.649576399999205,['c'],0,right,['8'],4,0.1005248000001302,0.2,0,FastAcc,9,19,Man,Left,
40,7,1,2.1009134000014456,['c'],1,left,['8'],4,0.18379620000087016,0.2,0,FastAcc,9,19,Man,Left,
41,7,1,0.7332642000001215,['c'],0,right,['8'],4,0.20049090000065917,0.2,0,FastAcc,9,19,Man,Left,
42,7,1,0.732816300000195,['c'],1,left,['8'],4,0.20041390000005777,0.1,0,FastAcc,9,19,Man,Left,
43,7,1,0.8662136000002647,['c'],0,right,['9'],5,0.16688190000058967,0.2,0,FastAcc,9,19,Man,Left,
44,7,1,0.6663189999999304,['c'],1,left,['8'],4,0.16711919999943348,0.2,0,FastAcc,9,19,Man,Left,
45,7,1,0.7327026000002661,['c'],0,right,['8'],4,0.16708789999938745,0.2,0,FastAcc,9,19,Man,Left,
46,7,1,1.949718900001244,['n'],1,right,['8'],4,0.23426199999994424,0.4,0,FastAcc,9,19,Man,Left,
47,7,1,1.2495899999994435,['n'],1,right,['8'],4,0.1838157999991381,0.4,0,FastAcc,9,19,Man,Left,
48,7,1,1.7158094999995228,['n'],0,left,['3'],3,0.08394899999984773,0.1,0,FastAcc,9,19,Man,Left,
49,7,1,1.866061400000035,['n'],1,right,['8'],4,0.1671334000002389,0.1,0,FastAcc,9,19,Man,Left,
50,7,1,0.7996096000006219,['n'],1,right,['3'],3,0.16696570000021893,0.2,0,FastAcc,9,19,Man,Left,
51,7,1,1.032907900000282,['c'],0,right,['3'],3,0.45061229999919306,0.1,0,FastAcc,9,19,Man,Left,
52,7,1,2.8497625999989395,['c'],0,right,['3'],3,0.16700569999920845,0.1,0,FastAcc,9,19,Man,Left,
53,7,1,3.300330699999904,['c'],1,left,['1'],1,0.08384309999928519,0.2,0,FastAcc,9,19,Man,Left,
54,7,1,1.0660415999991528,['n'],1,right,['8'],4,0.36729360000026645,0.4,0,FastAcc,9,19,Man,Left,
55,7,1,0.7329892000016116,['n'],1,right,['8'],4,0.18378029999985301,0.2,0,FastAcc,9,19,Man,Left,
56,7,1,1.5329908999992767,['n'],1,right,['8'],4,0.13395889999992505,0.2,0,FastAcc,9,19,Man,Left,
57,7,1,1.465828500000498,['c'],1,left,['3'],3,0.16720139999961248,0.4,0,FastAcc,9,19,Man,Left,
58,7,1,0.8496018999994703,['n'],1,right,['8'],4,0.16725769999902695,0.2,0,FastAcc,9,19,Man,Left,
59,7,1,4.399445200000628,['n'],1,right,['8'],4,0.183724099999381,0.2,0,FastAcc,9,19,Man,Left,
0,8,1,0.8667009999990114,['n'],1,right,['8'],4,0.10050609999962035,0.2,0,FastFast,9,19,Man,Left,
1,8,1,1.3494943999994575,['c'],1,left,['3'],3,0.10040379999918514,0.4,0,FastFast,9,19,Man,Left,
2,8,1,1.3328531000006478,['n'],0,left,['8'],4,0.10049870000148076,0.2,0,FastFast,9,19,Man,Left,
3,8,1,0.899514700000509,['n'],1,right,['8'],4,0.10042459999931452,0.4,0,FastFast,9,19,Man,Left,
4,8,1,0.6825199000013527,['n'],1,right,['3'],3,0.15048949999982142,0.4,0,FastFast,9,19,Man,Left,
5,8,1,1.2328517999994801,['c'],1,left,['8'],4,0.13388759999907052,0.4,0,FastFast,9,19,Man,Left,
6,8,1,1.7838265000009415,['c'],0,right,['8'],4,0.11739979999947536,0.4,0,FastFast,9,19,Man,Left,
7,8,1,1.066058399999747,['n'],1,right,['8'],4,0.10045419999914884,0.2,0,FastFast,9,19,Man,Left,
8,8,1,0.8164345999994111,['n'],1,right,['2'],2,0.11723370000072464,0.2,0,FastFast,9,19,Man,Left,
9,8,1,0.5160720000003494,['n'],0,left,['3'],3,0.08378710000033607,0.2,0,FastFast,9,19,Man,Left,
10,8,1,0.799383300000045,['n'],1,right,['8'],4,0.1170827999994799,0.1,0,FastFast,9,19,Man,Left,
11,8,1,0.782820599999468,['c'],1,left,['3'],3,0.5337875000004715,0.4,0,FastFast,9,19,Man,Left,
12,8,1,1.2996610999998666,['c'],1,left,['8'],4,0.06701559999964957,0.2,0,FastFast,9,19,Man,Left,
13,8,1,1.032844400000613,['n'],0,left,['3'],3,0.03389650000099209,0.1,0,FastFast,9,19,Man,Left,
14,8,1,1.2494800000004034,['c'],0,right,['8'],4,0.08387849999962782,0.2,0,FastFast,9,19,Man,Left,
15,8,1,0.8494426000015665,['n'],1,right,['3'],3,0.08373779999965336,0.4,0,FastFast,9,19,Man,Left,
16,8,1,1.1664457999995648,['n'],0,left,['8'],4,0.23376740000094287,0.1,0,FastFast,9,19,Man,Left,
17,8,1,1.132966099999976,['n'],0,left,['3'],3,0.11707639999985986,0.1,0,FastFast,9,19,Man,Left,
18,8,1,0.8663252999995166,['n'],1,right,['8'],4,0.20049810000091384,0.4,0,FastFast,9,19,Man,Left,
19,8,1,2.88299779999943,['c'],0,right,['3'],3,0.0671610999997938,0.1,0,FastFast,9,19,Man,Left,
20,8,1,1.8330026000003272,['n'],1,right,['8'],4,0.11727040000005218,0.1,0,FastFast,9,19,Man,Left,
21,8,1,3.4828127000000677,['c'],1,left,['3'],3,0.10055189999911818,0.1,0,FastFast,9,19,Man,Left,
22,8,1,1.133475599999656,['n'],1,right,['8'],4,0.15027650000047288,0.4,0,FastFast,9,19,Man,Left,
23,8,1,0.9170765999988362,['n'],1,right,['8'],4,0.11723880000135978,0.4,0,FastFast,9,19,Man,Left,
24,8,1,1.7658981999993557,['c'],1,left,['2'],2,0.30053659999975935,0.2,0,FastFast,9,19,Man,Left,
25,8,1,2.5163358000008884,['n'],1,right,['2'],2,0.15065710000089894,0.1,0,FastFast,9,19,Man,Left,
26,8,1,1.0995265000001382,['n'],0,left,['8'],4,0.1340221999998903,0.2,0,FastFast,9,19,Man,Left,
27,8,1,1.4159206000003906,['c'],1,left,['9'],5,0.13407610000103887,0.2,0,FastFast,9,19,Man,Left,
28,8,1,3.1665059000006295,['n'],1,right,['8'],4,0.11726610000005167,0.2,0,FastFast,9,19,Man,Left,
29,8,1,1.266346299998986,['c'],1,left,['3'],3,0.11724270000013348,0.2,0,FastFast,9,19,Man,Left,
30,8,1,1.4995590000016819,['n'],0,left,['3'],3,0.15050679999876593,0.1,0,FastFast,9,19,Man,Left,
31,8,1,2.0834346000010555,['n'],1,right,['9'],5,0.20059330000003683,0.4,0,FastFast,9,19,Man,Left,
32,8,1,1.7665190999996412,['c'],1,left,['9'],5,0.11738010000044596,0.2,0,FastFast,9,19,Man,Left,
33,8,1,1.0495018999990862,['c'],1,left,['8'],4,0.11727669999891077,0.4,0,FastFast,9,19,Man,Left,
34,8,1,0.8496026000011625,['c'],1,left,['8'],4,0.11706959999901301,0.1,0,FastFast,9,19,Man,Left,
35,8,1,0.3162849999989703,['c'],1,left,['3'],3,0.2837565000008908,0.1,0,FastFast,9,19,Man,Left,
36,8,1,0.5326428000007581,['n'],1,right,['3'],3,0.13375129999985802,0.4,0,FastFast,9,19,Man,Left,
37,8,1,1.299440399998275,['n'],1,right,['8'],4,0.10061169999971753,0.1,0,FastFast,9,19,Man,Left,
38,8,1,1.3325753000008262,['c'],1,left,['8'],4,0.08391190000111237,0.1,0,FastFast,9,19,Man,Left,
39,8,1,1.4494780999993964,['c'],1,left,['8'],4,0.1171833999997034,0.2,0,FastFast,9,19,Man,Left,
40,8,1,1.8994077000006655,['c'],0,right,['1'],1,0.0672831000010774,0.1,0,FastFast,9,19,Man,Left,
41,8,1,1.0661216999997123,['c'],0,right,['2'],2,0.050278000000616885,0.1,0,FastFast,9,19,Man,Left,
42,8,1,1.2493245000005118,['c'],0,right,['3'],3,0.2339107999996486,0.1,0,FastFast,9,19,Man,Left,
43,8,1,1.682642499999929,['n'],1,right,['8'],4,0.08389449999958742,0.4,0,FastFast,9,19,Man,Left,
44,8,1,2.082967700000154,['c'],1,left,['3'],3,0.03373700000156532,0.2,0,FastFast,9,19,Man,Left,
45,8,1,0.9831603999991785,['c'],1,left,['8'],4,0.11696850000043924,0.1,0,FastFast,9,19,Man,Left,
46,8,1,0.6995948999992834,['c'],0,right,['3'],3,0.017259700000067824,0.4,0,FastFast,9,19,Man,Left,
47,8,1,1.4330694999989646,['n'],0,left,['8'],4,0.11716200000046229,0.2,0,FastFast,9,19,Man,Left,
48,8,1,1.6330465999999433,['n'],1,right,['9'],5,0.2339811000001646,0.4,0,FastFast,9,19,Man,Left,
49,8,1,1.9325649000002159,['c'],1,left,['8'],4,0.10049109999999928,0.1,0,FastFast,9,19,Man,Left,
50,8,1,1.6162655000007362,['c'],0,right,['3'],3,0.03387289999955101,0.4,0,FastFast,9,19,Man,Left,
51,8,1,1.2163373999992473,['n'],1,right,['8'],4,0.05049940000026254,0.4,0,FastFast,9,19,Man,Left,
52,8,1,1.8996186000003945,['n'],0,left,['9'],5,0.10034239999913552,0.2,0,FastFast,9,19,Man,Left,
53,8,1,0.7996917000000394,['c'],1,left,['3'],3,0.28374650000114343,0.2,0,FastFast,9,19,Man,Left,
54,8,1,1.8996052000002237,['c'],0,right,"['2', '3']",2,0.21729249999953026,0.4,0,FastFast,9,19,Man,Left,
55,8,1,1.3327045000005455,['c'],1,left,['8'],4,0.10061319999840634,0.4,0,FastFast,9,19,Man,Left,
56,8,1,2.199597700000595,['c'],1,left,['1'],1,0.16732330000013462,0.1,0,FastFast,9,19,Man,Left,
57,8,1,3.199824500001341,['n'],1,right,['8'],4,0.13382569999885163,0.1,0,FastFast,9,19,Man,Left,
58,8,1,3.24949160000142,['c'],1,left,['2'],2,0.15043599999989965,0.2,0,FastFast,9,19,Man,Left,
59,8,1,3.4994692000000214,['c'],0,right,['8'],4,0.23367469999902823,0.2,0,FastFast,9,19,Man,Left,
0,9,1,5.0164858999996795,x,-99,left,none,-99,-99,0.2,1,AccFast,9,19,Man,Left,
1,9,1,3.7163857000014104,['c'],0,right,['8'],4,0.16710020000027725,0.2,0,AccFast,9,19,Man,Left,
2,9,1,1.3160798000008072,['c'],1,left,['1'],1,0.06716270000106306,0.1,0,AccFast,9,19,Man,Left,
3,9,1,3.566725200000292,['c'],0,right,['2'],2,0.06723050000073272,0.2,0,AccFast,9,19,Man,Left,
4,9,1,4.083012200000667,['c'],0,right,['2'],2,0.20052840000062133,0.2,0,AccFast,9,19,Man,Left,
5,9,1,3.749733599999672,['n'],1,right,['2'],2,0.08381199999894307,0.4,0,AccFast,9,19,Man,Left,
6,9,1,2.9323910000002797,['n'],1,right,['2'],2,0.08382679999886022,0.4,0,AccFast,9,19,Man,Left,
7,9,1,5.016094799999337,x,-99,right,none,-99,-99,0.4,1,AccFast,9,19,Man,Left,
8,9,1,4.333093299999746,['n'],0,left,['8'],4,0.38370729999951436,0.2,0,AccFast,9,19,Man,Left,
9,9,1,1.49959889999991,['c'],1,left,['3'],3,0.20048620000125084,0.1,0,AccFast,9,19,Man,Left,
10,9,1,3.8831256000012218,['n'],0,left,['8'],4,0.10051480000038282,0.1,0,AccFast,9,19,Man,Left,
11,9,1,1.4327413999999408,['n'],1,right,['8'],4,0.11729990000094404,0.1,0,AccFast,9,19,Man,Left,
12,9,1,2.983344499998566,['c'],1,left,['1'],1,0.06713499999932537,0.2,0,AccFast,9,19,Man,Left,
13,9,1,2.1832512999990286,['n'],0,left,['2'],2,0.15047779999986233,0.4,0,AccFast,9,19,Man,Left,
14,9,1,3.8330776000002516,['c'],1,left,['8'],4,0.20055949999914446,0.4,0,AccFast,9,19,Man,Left,
15,9,1,4.432879500000126,['c'],1,left,['2'],2,0.21696960000008403,0.2,0,AccFast,9,19,Man,Left,
16,9,1,1.9995303000014246,['c'],1,left,['9'],5,0.16706920000069658,0.2,0,AccFast,9,19,Man,Left,
17,9,1,1.8496230999990075,['c'],1,left,['0'],6,0.06723239999882935,0.1,0,AccFast,9,19,Man,Left,
18,9,1,4.5329103999993094,['n'],1,right,['8'],4,0.06723839999904158,0.1,0,AccFast,9,19,Man,Left,
19,9,1,2.2497067999993305,['n'],1,right,['9'],5,0.08370709999871906,0.4,0,AccFast,9,19,Man,Left,
20,9,1,3.9664608000002772,['n'],0,left,['8'],4,0.15051380000113568,0.4,0,AccFast,9,19,Man,Left,
21,9,1,3.6653196999996,['n'],0,left,['8'],4,0.10050609999962035,0.2,0,AccFast,9,19,Man,Left,
22,9,1,1.7328625999998621,['c'],1,left,['8'],4,0.15054909999889787,0.2,0,AccFast,9,19,Man,Left,
23,9,1,1.6165123999999196,['c'],1,left,['8'],4,0.11722270000063872,0.4,0,AccFast,9,19,Man,Left,
24,9,1,1.9664714999998978,['c'],1,left,['8'],4,0.11713179999969725,0.2,0,AccFast,9,19,Man,Left,
25,9,1,1.0826820000002044,['n'],0,left,['3'],3,0.0667710999987321,0.1,0,AccFast,9,19,Man,Left,
26,9,1,1.016000300000087,['c'],0,right,['3'],3,0.08384040000055393,0.2,0,AccFast,9,19,Man,Left,
27,9,1,0.7662013999997725,['c'],0,right,['3'],3,0.100503600000593,0.4,0,AccFast,9,19,Man,Left,
28,9,1,0.6493726999997307,['c'],0,right,['3'],3,0.033830499998657615,0.2,0,AccFast,9,19,Man,Left,
29,9,1,1.0335952999994333,['n'],1,right,['8'],4,0.1504296000002796,0.4,0,AccFast,9,19,Man,Left,
30,9,1,3.316289099999267,['n'],1,right,['8'],4,0.2838062999999238,0.1,0,AccFast,9,19,Man,Left,
31,9,1,3.566440099999454,['n'],0,left,['8'],4,0.16778840000006312,0.1,0,AccFast,9,19,Man,Left,
32,9,1,3.8828614999983984,['n'],1,right,['8'],4,0.2505287000003591,0.2,0,AccFast,9,19,Man,Left,
33,9,1,2.0995741999995516,['n'],1,right,['8'],4,0.15051669999957085,0.1,0,AccFast,9,19,Man,Left,
34,9,1,3.166097399998762,['c'],0,right,['1'],1,0.18366129999958503,0.2,0,AccFast,9,19,Man,Left,
35,9,1,2.065723199999411,['c'],0,right,['2'],2,0.11708940000062285,0.4,0,AccFast,9,19,Man,Left,
36,9,1,1.6995583000007173,['c'],1,left,['8'],4,0.10053479999987758,0.1,0,AccFast,9,19,Man,Left,
37,9,1,4.182801099999779,['c'],0,right,['1'],1,0.8172809999996389,0.1,0,AccFast,9,19,Man,Left,
38,9,1,0.9996195000003354,['c'],0,right,['2'],2,0.1170841000002838,0.4,0,AccFast,9,19,Man,Left,
39,9,1,1.5330250000006345,['n'],1,right,['8'],4,0.16711130000112462,0.1,0,AccFast,9,19,Man,Left,
40,9,1,4.482912600000418,['n'],1,right,['8'],4,0.26709089999894786,0.1,0,AccFast,9,19,Man,Left,
41,9,1,1.1996749999998428,['c'],1,left,['8'],4,0.11726500000077067,0.4,0,AccFast,9,19,Man,Left,
42,9,1,0.8495289999991655,['c'],0,right,['8'],4,0.10041869999986375,0.2,0,AccFast,9,19,Man,Left,
43,9,1,1.6495972000011534,['n'],1,right,['2'],2,0.11716259999957401,0.1,0,AccFast,9,19,Man,Left,
44,9,1,0.9824284999995143,['c'],1,left,['8'],4,0.05052819999946223,0.1,0,AccFast,9,19,Man,Left,
45,9,1,0.9165887999988627,['n'],1,right,['3'],3,0.08378679999987071,0.4,0,AccFast,9,19,Man,Left,
46,9,1,1.683092299999771,['c'],1,left,['8'],4,0.10050130000126956,0.4,0,AccFast,9,19,Man,Left,
47,9,1,0.8996501000001444,['c'],0,right,['8'],4,0.13395690000106697,0.2,0,AccFast,9,19,Man,Left,
48,9,1,0.7490832000003138,['c'],1,left,['2'],2,0.36688909999975294,0.1,0,AccFast,9,19,Man,Left,
49,9,1,2.699633999998696,['n'],0,left,['8'],4,0.11725160000059986,0.4,0,AccFast,9,19,Man,Left,
50,9,1,3.0997490999998263,['n'],1,right,['8'],4,0.10051530000055209,0.4,0,AccFast,9,19,Man,Left,
51,9,1,3.2499391000001197,['c'],1,left,['9'],5,0.08398780000061379,0.2,0,AccFast,9,19,Man,Left,
52,9,1,1.3331282999988616,['n'],1,right,['8'],4,0.10035059999972873,0.2,0,AccFast,9,19,Man,Left,
53,9,1,1.3494498000000021,['c'],1,left,['8'],4,0.10031370000069728,0.2,0,AccFast,9,19,Man,Left,
54,9,1,1.4498831000000791,['n'],0,left,['8'],4,0.06713830000080634,0.1,0,AccFast,9,19,Man,Left,
55,9,1,4.28274059999967,['c'],1,left,['3'],3,0.11709519999931217,0.4,0,AccFast,9,19,Man,Left,
56,9,1,1.0832621999998082,['n'],0,left,['3'],3,0.10051930000008724,0.4,0,AccFast,9,19,Man,Left,
57,9,1,0.9996217999996588,['n'],1,right,['3'],3,0.06709170000067388,0.4,0,AccFast,9,19,Man,Left,
58,9,1,0.9661687999996502,['n'],1,right,['3'],3,0.2172472000002017,0.1,0,AccFast,9,19,Man,Left,
59,9,1,2.5828954999997222,['c'],1,left,['8'],4,0.31718950000140467,0.1,0,AccFast,9,19,Man,Left,
0,10,1,1.2325841000001674,['n'],1,right,['3'],3,2.633945900000981,0.2,0,AccAcc,9,19,Man,Left,
1,10,1,1.9166621000003943,['c'],1,left,['8'],4,0.11726999999882537,0.4,0,AccAcc,9,19,Man,Left,
2,10,1,1.133329499998581,['n'],1,right,['8'],4,0.6670776999999362,0.4,0,AccAcc,9,19,Man,Left,
3,10,1,0.9494622999991407,['n'],1,right,['2'],2,0.1006613000008656,0.1,0,AccAcc,9,19,Man,Left,
4,10,1,0.6664366999993945,['n'],0,left,['2'],2,0.06724039999971865,0.4,0,AccAcc,9,19,Man,Left,
5,10,1,0.6830040000004374,['n'],1,right,['8'],4,0.2338285999994696,0.4,0,AccAcc,9,19,Man,Left,
6,10,1,1.132156900001064,['n'],1,right,['2'],2,0.06738159999986237,0.1,0,AccAcc,9,19,Man,Left,
7,10,1,1.0163349999984348,['n'],0,left,['2'],2,0.11736440000095172,0.1,0,AccAcc,9,19,Man,Left,
8,10,1,1.3663402000001952,['n'],0,left,['8'],4,0.15044900000066264,0.1,0,AccAcc,9,19,Man,Left,
9,10,1,0.9832412000014301,['n'],0,left,['8'],4,0.2673123000004125,0.4,0,AccAcc,9,19,Man,Left,
10,10,1,0.8327604000005522,['n'],0,left,['8'],4,0.2671778000003542,0.2,0,AccAcc,9,19,Man,Left,
11,10,1,2.316213799998877,['c'],0,right,['8'],4,0.1173434999982419,0.4,0,AccAcc,9,19,Man,Left,
12,10,1,2.1668384000004153,['n'],1,right,['8'],4,0.13397470000018075,0.4,0,AccAcc,9,19,Man,Left,
13,10,1,2.7999503999999433,['c'],0,right,['1'],1,0.05055050000009942,0.2,0,AccAcc,9,19,Man,Left,
14,10,1,5.015890999999101,x,-99,left,none,-99,-99,0.1,1,AccAcc,9,19,Man,Left,
15,10,1,1.166378400001122,['n'],1,right,['8'],4,0.2004596999995556,0.4,0,AccAcc,9,19,Man,Left,
16,10,1,2.3829637999988336,['n'],1,right,['8'],4,0.11717859999953362,0.2,0,AccAcc,9,19,Man,Left,
17,10,1,1.7500870000003488,['n'],0,left,['2'],2,0.08400070000061532,0.2,0,AccAcc,9,19,Man,Left,
18,10,1,1.3999255999988236,['n'],1,right,['8'],4,0.06702169999880425,0.2,0,AccAcc,9,19,Man,Left,
19,10,1,1.3495814999987488,['n'],0,left,['8'],4,0.13404059999993478,0.2,0,AccAcc,9,19,Man,Left,
20,10,1,0.7665805999986333,['n'],1,right,['8'],4,0.10047059999851626,0.1,0,AccAcc,9,19,Man,Left,
21,10,1,1.2668539000005694,['n'],1,right,['8'],4,0.16711290000057488,0.2,0,AccAcc,9,19,Man,Left,
22,10,1,3.8001802999988286,['c'],0,right,['2'],2,0.7504981000001862,0.4,0,AccAcc,9,19,Man,Left,
23,10,1,1.2500113999994937,['n'],0,left,['2'],2,0.08377480000126525,0.4,0,AccAcc,9,19,Man,Left,
24,10,1,3.7662264999999024,['c'],1,left,['8'],4,0.11704400000053283,0.4,0,AccAcc,9,19,Man,Left,
25,10,1,2.1992642000004707,['n'],0,left,['8'],4,0.11715949999961595,0.2,0,AccAcc,9,19,Man,Left,
26,10,1,0.9172729000001709,['n'],1,right,['8'],4,0.1838335000011284,0.4,0,AccAcc,9,19,Man,Left,
27,10,1,1.1829684000003908,['n'],1,right,['8'],4,0.050398500001392676,0.1,0,AccAcc,9,19,Man,Left,
28,10,1,1.6328173000001698,['c'],1,left,['2'],2,0.0670577000000776,0.4,0,AccAcc,9,19,Man,Left,
29,10,1,1.349910799999634,['c'],1,left,['8'],4,0.08384569999907399,0.2,0,AccAcc,9,19,Man,Left,
30,10,1,4.049178200000824,['c'],1,left,['8'],4,0.06710200000088662,0.4,0,AccAcc,9,19,Man,Left,
31,10,1,1.3661956999985705,['n'],1,right,['2'],2,0.1173149000005651,0.1,0,AccAcc,9,19,Man,Left,
32,10,1,1.6327987999993638,['n'],1,right,['8'],4,0.06717029999890656,0.1,0,AccAcc,9,19,Man,Left,
33,10,1,1.833473500000764,['c'],1,left,['8'],4,0.10065840000061144,0.4,0,AccAcc,9,19,Man,Left,
34,10,1,0.8166536000007909,['n'],0,left,['3'],3,0.03380339999966964,0.1,0,AccAcc,9,19,Man,Left,
35,10,1,1.3331417999997939,['c'],1,left,['8'],4,0.0673717999998189,0.4,0,AccAcc,9,19,Man,Left,
36,10,1,0.7664139999997133,['n'],0,left,['3'],3,0.11706130000129633,0.4,0,AccAcc,9,19,Man,Left,
37,10,1,1.5162300000010873,['n'],0,left,['8'],4,0.1671671999993123,0.1,0,AccAcc,9,19,Man,Left,
38,10,1,0.8991554000003816,['n'],0,left,['8'],4,0.15054919999965932,0.1,0,AccAcc,9,19,Man,Left,
39,10,1,1.6163651999995636,['n'],1,right,['3'],3,0.11716990000059013,0.2,0,AccAcc,9,19,Man,Left,
40,10,1,2.399521500001356,['c'],0,right,['8'],4,0.08381849999932456,0.1,0,AccAcc,9,19,Man,Left,
41,10,1,2.2333667000002606,['c'],0,right,['8'],4,0.08384169999953883,0.1,0,AccAcc,9,19,Man,Left,
42,10,1,1.6330822999989323,['c'],1,left,['8'],4,0.1006007000014506,0.1,0,AccAcc,9,19,Man,Left,
43,10,1,2.1827174999998533,['n'],0,left,['8'],4,0.11710259999927075,0.2,0,AccAcc,9,19,Man,Left,
44,10,1,3.9495655999999144,['n'],1,right,['8'],4,0.06725680000090506,0.2,0,AccAcc,9,19,Man,Left,
45,10,1,4.4831247000001895,['c'],0,right,['8'],4,0.11722949999966659,0.1,0,AccAcc,9,19,Man,Left,
46,10,1,5.016186599999855,x,-99,left,none,-99,-99,0.4,1,AccAcc,9,19,Man,Left,
47,10,1,4.74955620000037,['c'],0,right,['2'],2,0.2668859000004886,0.2,0,AccAcc,9,19,Man,Left,
48,10,1,5.015686000000642,x,-99,left,none,-99,-99,0.1,1,AccAcc,9,19,Man,Left,
49,10,1,2.716283800000383,['n'],0,left,['1'],1,0.6337994999994407,0.1,0,AccAcc,9,19,Man,Left,
50,10,1,2.3994887999997445,['n'],1,right,['2'],2,0.13393509999878006,0.4,0,AccAcc,9,19,Man,Left,
51,10,1,4.749319000000469,['n'],1,right,['1'],1,0.5171743999999308,0.1,0,AccAcc,9,19,Man,Left,
52,10,1,5.015754199999719,x,-99,right,none,-99,-99,0.2,1,AccAcc,9,19,Man,Left,
53,10,1,1.149695399999473,['n'],0,left,['2'],2,0.1838130000014644,0.2,0,AccAcc,9,19,Man,Left,
54,10,1,1.0992604000002757,['n'],1,right,['8'],4,0.10054839999975229,0.2,0,AccAcc,9,19,Man,Left,
55,10,1,3.2164694000002783,['n'],0,left,['8'],4,0.10049939999953494,0.2,0,AccAcc,9,19,Man,Left,
56,10,1,3.0328950000002806,['c'],1,left,['2'],2,0.13382710000041698,0.2,0,AccAcc,9,19,Man,Left,
57,10,1,2.3496913999988465,['c'],0,right,['8'],4,0.10053000000152679,0.2,0,AccAcc,9,19,Man,Left,
58,10,1,5.015984599998774,x,-99,left,none,-99,-99,0.1,1,AccAcc,9,19,Man,Left,
59,10,1,3.666969199999585,['n'],1,right,['9'],5,0.1669369999999617,0.4,0,AccAcc,9,19,Man,Left,
0,11,1,2.081872700000531,['n'],0,left,['2'],2,0.917267200000424,0.4,0,FastAcc,9,19,Man,Left,
1,11,1,1.3160246999996161,['c'],0,right,['2'],2,1.1505476999991515,0.1,0,FastAcc,9,19,Man,Left,
2,11,1,1.682932100000471,['c'],1,left,['8'],4,0.2004704999999376,0.2,0,FastAcc,9,19,Man,Left,
3,11,1,0.9167994000017643,['c'],1,left,['2'],2,0.5005313000001479,0.1,0,FastAcc,9,19,Man,Left,
4,11,1,1.282980799998768,['n'],1,right,['2'],2,1.9338957999989361,0.2,0,FastAcc,9,19,Man,Left,
5,11,1,1.2664294000005611,['n'],1,right,['0'],6,0.8505608000014035,0.4,0,FastAcc,9,19,Man,Left,
6,11,1,1.2994644999998854,['n'],0,left,['3'],3,1.517171600000438,0.2,0,FastAcc,9,19,Man,Left,
7,11,1,1.1326991999994789,['n'],1,right,['9'],5,0.7171558999998524,0.4,0,FastAcc,9,19,Man,Left,
8,11,1,0.7994046000003436,['n'],1,right,['8'],4,0.3672454999996262,0.2,0,FastAcc,9,19,Man,Left,
9,11,1,1.0996203999984573,['n'],1,right,['3'],3,0.8171614999992016,0.2,0,FastAcc,9,19,Man,Left,
10,11,1,1.282825899999807,['c'],1,left,['9'],5,0.467199000000619,0.4,0,FastAcc,9,19,Man,Left,
11,11,1,2.0502623000011226,['n'],1,right,['0'],6,0.4339971000008518,0.1,0,FastAcc,9,19,Man,Left,
12,11,1,1.9333205000002636,['c'],1,left,['2'],2,1.1005580999990343,0.1,0,FastAcc,9,19,Man,Left,
13,11,1,4.349596500000189,['c'],0,right,['1'],1,0.7839427999988402,0.1,0,FastAcc,9,19,Man,Left,
14,11,1,3.0328841999998986,['c'],0,right,['8'],4,0.6672087999995711,0.1,0,FastAcc,9,19,Man,Left,
15,11,1,1.0997588999998698,['c'],0,right,['8'],4,0.2504518999994616,0.4,0,FastAcc,9,19,Man,Left,
16,11,1,0.9323392000005697,['c'],0,right,['3'],3,0.15060380000068108,0.2,0,FastAcc,9,19,Man,Left,
17,11,1,1.315523100000064,['c'],1,left,['8'],4,0.11706299999968905,0.2,0,FastAcc,9,19,Man,Left,
18,11,1,1.4661766000008356,['n'],1,right,['3'],3,0.2503572000005079,0.4,0,FastAcc,9,19,Man,Left,
19,11,1,1.616658400000233,['c'],1,left,['3'],3,0.23380819999874802,0.1,0,FastAcc,9,19,Man,Left,
20,11,1,3.033508000000438,['c'],1,left,['2'],2,0.18399250000038592,0.2,0,FastAcc,9,19,Man,Left,
21,11,1,4.18339030000061,['c'],0,right,['2'],2,0.23365479999847594,0.1,0,FastAcc,9,19,Man,Left,
22,11,1,3.133100299999569,['c'],1,left,['9'],5,0.16702400000031048,0.2,0,FastAcc,9,19,Man,Left,
23,11,1,2.032777200000055,['n'],1,right,['1'],1,0.18380460000116727,0.1,0,FastAcc,9,19,Man,Left,
24,11,1,1.4496495000003051,['c'],1,left,['2'],2,0.48371790000055626,0.2,0,FastAcc,9,19,Man,Left,
25,11,1,1.3830065999991348,['c'],1,left,['3'],3,1.5671435999993264,0.1,0,FastAcc,9,19,Man,Left,
26,11,1,1.1997393000001466,['c'],1,left,['8'],4,0.11717029999999795,0.2,0,FastAcc,9,19,Man,Left,
27,11,1,0.8997549999985495,['c'],1,left,['2'],2,0.2171411999988777,0.1,0,FastAcc,9,19,Man,Left,
28,11,1,0.882874199998696,['c'],1,left,['8'],4,0.1337057000000641,0.2,0,FastAcc,9,19,Man,Left,
29,11,1,0.8160225999999966,['c'],1,left,['2'],2,0.23358959999859508,0.4,0,FastAcc,9,19,Man,Left,
30,11,1,0.9487521999999444,['c'],0,right,['2'],2,0.16726029999881575,0.4,0,FastAcc,9,19,Man,Left,
31,11,1,1.9165972999999212,['c'],1,left,['1'],1,0.20050009999977192,0.1,0,FastAcc,9,19,Man,Left,
32,11,1,2.5329474000009213,['n'],1,right,['9'],5,0.28386329999921145,0.4,0,FastAcc,9,19,Man,Left,
33,11,1,3.8167290999990655,['c'],1,left,['1'],1,0.36720840000089083,0.1,0,FastAcc,9,19,Man,Left,
34,11,1,1.666365199998836,['c'],1,left,['8'],4,0.26723889999993844,0.1,0,FastAcc,9,19,Man,Left,
35,11,1,2.316571900000781,['n'],1,right,['2'],2,0.20049410000137868,0.1,0,FastAcc,9,19,Man,Left,
36,11,1,1.2326837999989948,['c'],1,left,['9'],5,0.1836698000006436,0.4,0,FastAcc,9,19,Man,Left,
37,11,1,2.449694200000522,['c'],1,left,['1'],1,0.4005720000004658,0.2,0,FastAcc,9,19,Man,Left,
38,11,1,1.4005247000004601,['n'],1,right,['2'],2,1.8672056999985216,0.1,0,FastAcc,9,19,Man,Left,
39,11,1,1.6494015000007494,['n'],1,right,['9'],5,1.6007315000006201,0.1,0,FastAcc,9,19,Man,Left,
40,11,1,3.482291799999075,['n'],0,left,['3'],3,0.7172039999986737,0.4,0,FastAcc,9,19,Man,Left,
41,11,1,2.600160899999537,['n'],1,right,['8'],4,0.950601499998811,0.2,0,FastAcc,9,19,Man,Left,
42,11,1,1.6495912000009412,['n'],0,left,['8'],4,0.7671356999999261,0.2,0,FastAcc,9,19,Man,Left,
43,11,1,1.7329200000003766,['n'],0,left,['8'],4,0.21709160000136762,0.4,0,FastAcc,9,19,Man,Left,
44,11,1,1.6331289000008837,['c'],0,right,['1'],1,0.08384280000063882,0.1,0,FastAcc,9,19,Man,Left,
45,11,1,2.4661581000000297,['n'],1,right,['2'],2,0.25053160000061325,0.2,0,FastAcc,9,19,Man,Left,
46,11,1,1.4996287999983906,['n'],1,right,['9'],5,0.4505148999996891,0.4,0,FastAcc,9,19,Man,Left,
47,11,1,0.916790299999775,['n'],1,right,['8'],4,0.3504998999997042,0.4,0,FastAcc,9,19,Man,Left,
48,11,1,0.7998329999991256,['n'],1,right,['8'],4,0.23381679999874905,0.4,0,FastAcc,9,19,Man,Left,
49,11,1,1.3822297000006074,['n'],1,right,['8'],4,0.2672098000002734,0.4,0,FastAcc,9,19,Man,Left,
50,11,1,1.299453600000561,['c'],1,left,['8'],4,0.4171206999999413,0.1,0,FastAcc,9,19,Man,Left,
51,11,1,0.8504293000005418,['n'],0,left,['8'],4,0.4004197000012937,0.1,0,FastAcc,9,19,Man,Left,
52,11,1,0.8330458000000363,['n'],0,left,['8'],4,0.21709759999976086,0.4,0,FastAcc,9,19,Man,Left,
53,11,1,1.6330247999994754,['c'],1,left,['8'],4,0.18373029999929713,0.4,0,FastAcc,9,19,Man,Left,
54,11,1,0.8327895000002172,['n'],1,right,['8'],4,0.5005280000004859,0.4,0,FastAcc,9,19,Man,Left,
55,11,1,1.1497077000003628,['c'],1,left,['8'],4,0.2006599999986065,0.2,0,FastAcc,9,19,Man,Left,
56,11,1,1.6161419000000024,['n'],1,right,['8'],4,0.3340200000002369,0.4,0,FastAcc,9,19,Man,Left,
57,11,1,0.9497808999985864,['n'],1,right,['8'],4,0.2170791000007739,0.2,0,FastAcc,9,19,Man,Left,
58,11,1,3.1499542000001384,['c'],1,left,['8'],4,0.5180120000004536,0.2,0,FastAcc,9,19,Man,Left,
59,11,1,0.6995820000011008,['n'],1,right,['2'],2,0.4672375000009197,0.2,0,FastAcc,9,19,Man,Left,
0,12,1,0.982799100000193,['c'],1,left,['8'],4,0.08381080000071961,0.1,0,FastFast,9,19,Man,Left,
1,12,1,0.8490351000000373,['n'],1,right,['3'],3,0.08381850000114355,0.4,0,FastFast,9,19,Man,Left,
2,12,1,0.9991757000007055,['c'],1,left,['8'],4,0.08390659999895433,0.1,0,FastFast,9,19,Man,Left,
3,12,1,0.9834283000000141,['n'],1,right,['3'],3,0.16712249999909545,0.4,0,FastFast,9,19,Man,Left,
4,12,1,1.1326196000009077,['c'],0,right,['8'],4,0.1337492000002385,0.2,0,FastFast,9,19,Man,Left,
5,12,1,1.0832406000008632,['c'],0,right,['8'],4,0.11704670000108308,0.2,0,FastFast,9,19,Man,Left,
6,12,1,2.749668599999495,['n'],1,right,['2'],2,0.08389159999933327,0.1,0,FastFast,9,19,Man,Left,
7,12,1,0.916439900000114,['c'],0,right,['8'],4,0.08359509999900183,0.2,0,FastFast,9,19,Man,Left,
8,12,1,0.766615799999272,['n'],1,right,['2'],2,0.15049020000151359,0.4,0,FastFast,9,19,Man,Left,
9,12,1,1.9153556999990542,['c'],1,left,['8'],4,0.05036939999990864,0.1,0,FastFast,9,19,Man,Left,
10,12,1,1.6990362000015011,['c'],1,left,['2'],2,0.13375669999913953,0.1,0,FastFast,9,19,Man,Left,
11,12,1,0.9661916000004567,['n'],1,right,['8'],4,0.10042029999931401,0.4,0,FastFast,9,19,Man,Left,
12,12,1,1.0330627000003005,['c'],1,left,['9'],5,0.11688709999907587,0.2,0,FastFast,9,19,Man,Left,
13,12,1,1.116836200000762,['c'],1,left,['8'],4,0.08379450000029465,0.1,0,FastFast,9,19,Man,Left,
14,12,1,0.8995875000000524,['c'],1,left,['8'],4,0.41725099999894155,0.1,0,FastFast,9,19,Man,Left,
15,12,1,0.7492468000000372,['c'],1,left,['8'],4,0.1004955999997037,0.4,0,FastFast,9,19,Man,Left,
16,12,1,0.44985749999978,['c'],0,right,['1'],1,0.8005454000012833,0.4,0,FastFast,9,19,Man,Left,
17,12,1,1.1665233000003354,['c'],1,left,['9'],5,0.20049209999888262,0.4,0,FastFast,9,19,Man,Left,
18,12,1,0.9493044999999256,['n'],1,right,['2'],2,0.10049489999983052,0.4,0,FastFast,9,19,Man,Left,
19,12,1,0.91619879999962,['c'],0,right,['9'],5,0.1172829000006459,0.2,0,FastFast,9,19,Man,Left,
20,12,1,0.4997947000010754,['c'],1,left,['8'],4,0.06709899999987101,0.4,0,FastFast,9,19,Man,Left,
21,12,1,0.6496299000009458,['n'],1,right,['3'],3,0.11735270000099263,0.4,0,FastFast,9,19,Man,Left,
22,12,1,0.8163908000005904,['c'],0,right,['8'],4,0.11724809999941499,0.1,0,FastFast,9,19,Man,Left,
23,12,1,2.1152561999988393,['c'],0,right,['8'],4,0.31735850000040955,0.1,0,FastFast,9,19,Man,Left,
24,12,1,1.5666049999999814,['n'],1,right,['2'],2,0.08393470000009984,0.2,0,FastFast,9,19,Man,Left,
25,12,1,0.949753500000952,['c'],1,left,['8'],4,0.11720520000017132,0.2,0,FastFast,9,19,Man,Left,
26,12,1,2.4164351999988867,['c'],1,left,['8'],4,0.15049109999927168,0.4,0,FastFast,9,19,Man,Left,
27,12,1,1.7997448000005534,['n'],1,right,['3'],3,0.117329200000313,0.4,0,FastFast,9,19,Man,Left,
28,12,1,1.9664929999999003,['c'],1,left,['8'],4,0.11748200000147335,0.2,0,FastFast,9,19,Man,Left,
29,12,1,1.9162857999999687,['c'],1,left,['3'],3,0.16715970000041125,0.1,0,FastFast,9,19,Man,Left,
30,12,1,0.9999602999996569,['n'],1,right,['2'],2,0.18381349999981467,0.4,0,FastFast,9,19,Man,Left,
31,12,1,0.9843528000001243,['c'],1,left,['8'],4,0.2671795000005659,0.4,0,FastFast,9,19,Man,Left,
32,12,1,1.4335977000009734,['n'],1,right,['0'],6,0.21704349999890837,0.4,0,FastFast,9,19,Man,Left,
33,12,1,1.9830684999997175,['c'],1,left,['1'],1,0.26719369999955234,0.2,0,FastFast,9,19,Man,Left,
34,12,1,1.4998118999992585,['n'],1,right,['2'],2,0.13382260000071255,0.1,0,FastFast,9,19,Man,Left,
35,12,1,2.3658666999999696,['c'],1,left,['2'],2,0.2004802000010386,0.2,0,FastFast,9,19,Man,Left,
36,12,1,0.916551199999958,['c'],1,left,['1'],1,0.21716009999909147,0.4,0,FastFast,9,19,Man,Left,
37,12,1,2.666171900000336,['c'],0,right,['1'],1,0.21718450000116718,0.1,0,FastFast,9,19,Man,Left,
38,12,1,0.8826988000000711,['c'],1,left,['8'],4,0.6339071999991575,0.1,0,FastFast,9,19,Man,Left,
39,12,1,1.2834624000006443,['c'],1,left,['8'],4,0.16725270000097225,0.1,0,FastFast,9,19,Man,Left,
40,12,1,0.766223099999479,['c'],0,right,['8'],4,0.10061549999954877,0.2,0,FastFast,9,19,Man,Left,
41,12,1,0.8496770999990986,['c'],1,left,['8'],4,0.10061330000098678,0.1,0,FastFast,9,19,Man,Left,
42,12,1,0.7831289000005199,['c'],1,left,['9'],5,0.1170287000004464,0.2,0,FastFast,9,19,Man,Left,
43,12,1,1.8331414999993285,['c'],0,right,['8'],4,0.2505025000009482,0.1,0,FastFast,9,19,Man,Left,
44,12,1,0.8164340000002994,['c'],1,left,['3'],3,0.300495100000262,0.2,0,FastFast,9,19,Man,Left,
45,12,1,0.7665690999983781,['c'],1,left,['8'],4,0.18382320000091568,0.1,0,FastFast,9,19,Man,Left,
46,12,1,0.7995690999996441,['c'],1,left,['8'],4,0.15067400000043563,0.4,0,FastFast,9,19,Man,Left,
47,12,1,0.7665431999994325,['c'],1,left,['8'],4,0.1340540000001056,0.2,0,FastFast,9,19,Man,Left,
48,12,1,1.3665261999994982,['c'],1,left,['8'],4,0.16722269999991113,0.1,0,FastFast,9,19,Man,Left,
49,12,1,1.7997321000002557,['n'],1,right,['9'],5,0.23388919999888458,0.4,0,FastFast,9,19,Man,Left,
50,12,1,0.8493317999982537,['n'],1,right,['8'],4,0.13390550000076473,0.2,0,FastFast,9,19,Man,Left,
51,12,1,2.999657500000467,['n'],1,right,['9'],5,0.20057159999851137,0.1,0,FastFast,9,19,Man,Left,
52,12,1,2.117244600000049,['c'],1,left,['8'],4,0.2005024999998568,0.2,0,FastFast,9,19,Man,Left,
53,12,1,1.8504348000005848,['c'],1,left,['2'],2,0.3505299999997078,0.4,0,FastFast,9,19,Man,Left,
54,12,1,0.7659325999993598,['c'],0,right,['3'],3,0.13376360000074783,0.2,0,FastFast,9,19,Man,Left,
55,12,1,1.2495908000000782,['n'],1,right,['9'],5,0.15049220000037167,0.4,0,FastFast,9,19,Man,Left,
56,12,1,3.6160350999998627,['c'],0,right,['2'],2,0.3504365000007965,0.2,0,FastFast,9,19,Man,Left,
57,12,1,0.8169476999992185,['n'],1,right,['8'],4,0.2170843000003515,0.2,0,FastFast,9,19,Man,Left,
58,12,1,0.732855299998846,['n'],1,right,['8'],4,0.11720109999987471,0.1,0,FastFast,9,19,Man,Left,
59,12,1,1.0328711999991356,['c'],1,left,['2'],2,0.08386350000000675,0.2,0,FastFast,9,19,Man,Left,
0,13,1,2.349551600000268,['n'],1,right,['8'],4,0.10049600000093051,0.2,0,AccFast,9,19,Man,Left,
1,13,1,0.9332290999991528,['n'],1,right,['2'],2,0.15061950000017532,0.4,0,AccFast,9,19,Man,Left,
2,13,1,2.4656322999999247,['c'],0,right,['3'],3,0.03376610000123037,0.2,0,AccFast,9,19,Man,Left,
3,13,1,1.2664199999999255,['n'],1,right,['8'],4,0.0673309000012523,0.2,0,AccFast,9,19,Man,Left,
4,13,1,0.8995650000015303,['n'],1,right,['3'],3,0.11728729999958887,0.4,0,AccFast,9,19,Man,Left,
5,13,1,0.8663979999982985,['n'],1,right,['3'],3,0.08360340000035649,0.2,0,AccFast,9,19,Man,Left,
6,13,1,1.0831295999996655,['c'],1,left,['8'],4,0.06716149999920162,0.4,0,AccFast,9,19,Man,Left,
7,13,1,1.7670307000007597,['n'],1,right,['3'],3,0.1006522000006953,0.2,0,AccFast,9,19,Man,Left,
8,13,1,1.566003500000079,['n'],1,right,['8'],4,0.06718660000115051,0.2,0,AccFast,9,19,Man,Left,
9,13,1,3.6495897000004334,['n'],1,right,['9'],5,0.05011759999979404,0.1,0,AccFast,9,19,Man,Left,
10,13,1,2.601255300000048,['n'],1,right,['8'],4,0.06675019999966025,0.4,0,AccFast,9,19,Man,Left,
11,13,1,2.0336581000010483,['c'],1,left,['3'],3,0.017066399999748683,0.1,0,AccFast,9,19,Man,Left,
12,13,1,2.0502670999994734,['n'],1,right,['3'],3,0.05037340000126278,0.2,0,AccFast,9,19,Man,Left,
13,13,1,1.1996459000001778,['n'],1,right,['8'],4,0.06724820000090403,0.1,0,AccFast,9,19,Man,Left,
14,13,1,1.033062599999539,['n'],1,right,['8'],4,0.06721580000157701,0.1,0,AccFast,9,19,Man,Left,
15,13,1,3.7836188999990554,['c'],0,right,['3'],3,1.2840467999994871,0.2,0,AccFast,9,19,Man,Left,
16,13,1,1.3660779999991064,['n'],0,left,['8'],4,0.0837747000005038,0.4,0,AccFast,9,19,Man,Left,
17,13,1,0.7832352999994328,['n'],0,left,['8'],4,0.21718959999998333,0.1,0,AccFast,9,19,Man,Left,
18,13,1,0.8666030000003957,['n'],0,left,['8'],4,0.1004263999984687,0.1,0,AccFast,9,19,Man,Left,
19,13,1,0.7160180999999284,['n'],1,right,['8'],4,0.08377560000008089,0.4,0,AccFast,9,19,Man,Left,
20,13,1,0.650011199999426,['n'],1,right,['8'],4,0.08393470000009984,0.4,0,AccFast,9,19,Man,Left,
21,13,1,0.65002640000057,['n'],1,right,['8'],4,0.05042250000042259,0.4,0,AccFast,9,19,Man,Left,
22,13,1,0.8164185000005091,['n'],0,left,['8'],4,0.05049760000110837,0.1,0,AccFast,9,19,Man,Left,
23,13,1,0.5996646999992663,['n'],0,left,['8'],4,0.05049740000140446,0.1,0,AccFast,9,19,Man,Left,
24,13,1,0.7330386000012368,['n'],1,right,['8'],4,0.08390940000026603,0.2,0,AccFast,9,19,Man,Left,
25,13,1,0.8160907999990741,['n'],0,left,['8'],4,0.08384819999992033,0.2,0,AccFast,9,19,Man,Left,
26,13,1,1.5327864999999292,['n'],1,right,['8'],4,0.05038990000139165,0.2,0,AccFast,9,19,Man,Left,
27,13,1,1.3337587000005442,['n'],1,right,['3'],3,0.6170870999994804,0.1,0,AccFast,9,19,Man,Left,
28,13,1,1.2329337999999552,['n'],1,right,['8'],4,0.05046140000013111,0.4,0,AccFast,9,19,Man,Left,
29,13,1,1.4666292999991128,['n'],0,left,['8'],4,0.017208999999638763,0.4,0,AccFast,9,19,Man,Left,
30,13,1,4.4825925000004645,['c'],1,left,['9'],5,0.08392540000022564,0.4,0,AccFast,9,19,Man,Left,
31,13,1,0.9673349999993661,['c'],1,left,['8'],4,0.050503200000093784,0.4,0,AccFast,9,19,Man,Left,
32,13,1,3.6166828999994323,['c'],0,right,['2'],2,0.15082710000024235,0.1,0,AccFast,9,19,Man,Left,
33,13,1,1.0157617000004393,['c'],1,left,['8'],4,0.41709499999888067,0.4,0,AccFast,9,19,Man,Left,
34,13,1,3.3829080000014073,['c'],1,left,['1'],1,0.06701190000057977,0.1,0,AccFast,9,19,Man,Left,
35,13,1,2.0661966999996366,['n'],0,left,['2'],2,0.2670752000012726,0.2,0,AccFast,9,19,Man,Left,
36,13,1,3.682991400000901,['c'],0,right,['8'],4,0.7173922999991191,0.1,0,AccFast,9,19,Man,Left,
37,13,1,1.4329665999994177,['n'],1,right,['1'],1,0.26708959999996296,0.1,0,AccFast,9,19,Man,Left,
38,13,1,1.216450399999303,['c'],1,left,['8'],4,0.017124399999374873,0.1,0,AccFast,9,19,Man,Left,
39,13,1,0.6991151999991416,['c'],1,left,['8'],4,0.0671306000003824,0.2,0,AccFast,9,19,Man,Left,
40,13,1,1.5161176000001433,['c'],0,right,['8'],4,0.017184100001031766,0.4,0,AccFast,9,19,Man,Left,
41,13,1,0.4329816000008577,['c'],1,left,['2'],2,0.1004942999988998,0.1,0,AccFast,9,19,Man,Left,
42,13,1,4.066176199999973,['c'],1,left,['8'],4,0.08369219999985944,0.2,0,AccFast,9,19,Man,Left,
43,13,1,3.466048000000228,['c'],0,right,['1'],1,0.15084890000071027,0.1,0,AccFast,9,19,Man,Left,
44,13,1,2.9831766999996034,['n'],0,left,['2'],2,0.16716169999926933,0.1,0,AccFast,9,19,Man,Left,
45,13,1,1.649745200000325,['c'],1,left,['8'],4,0.0337656000010611,0.1,0,AccFast,9,19,Man,Left,
46,13,1,0.7996750999991491,['c'],1,left,['8'],4,0.01789909999934025,0.1,0,AccFast,9,19,Man,Left,
47,13,1,2.732708499999717,['n'],1,right,['2'],2,0.11733920000006037,0.4,0,AccFast,9,19,Man,Left,
48,13,1,4.416425299999901,['c'],0,right,['1'],1,0.033832600000096136,0.2,0,AccFast,9,19,Man,Left,
49,13,1,5.016367800000808,x,-99,left,none,-99,-99,0.2,1,AccFast,9,19,Man,Left,
50,13,1,1.033309200000076,['c'],1,left,['8'],4,0.0837803000013082,0.4,0,AccFast,9,19,Man,Left,
51,13,1,0.6998540000004141,['c'],1,left,['8'],4,0.050488500000938075,0.2,0,AccFast,9,19,Man,Left,
52,13,1,1.833075700000336,['c'],1,left,['8'],4,0.25061420000020007,0.2,0,AccFast,9,19,Man,Left,
53,13,1,0.8998328000016045,['c'],1,left,['3'],3,0.05050239999945916,0.2,0,AccFast,9,19,Man,Left,
54,13,1,0.9497036000011576,['n'],1,right,['2'],2,0.08382389999860607,0.4,0,AccFast,9,19,Man,Left,
55,13,1,0.6663224999992963,['c'],1,left,['8'],4,0.11738380000133475,0.4,0,AccFast,9,19,Man,Left,
56,13,1,0.5496296000001166,['n'],1,right,['2'],2,0.11717239999961748,0.4,0,AccFast,9,19,Man,Left,
57,13,1,2.7668028000007325,['c'],1,left,['8'],4,0.08383200000025681,0.1,0,AccFast,9,19,Man,Left,
58,13,1,3.6829655000001367,['c'],1,left,['1'],1,0.0836607000001095,0.2,0,AccFast,9,19,Man,Left,
59,13,1,2.6328811999992467,['c'],1,left,['8'],4,0.05047809999996389,0.4,0,AccFast,9,19,Man,Left,
0,14,1,4.583392200000162,['n'],1,right,['3'],3,1.0504818000008527,0.2,0,AccAcc,9,19,Man,Left,
1,14,1,5.01600099999996,x,-99,right,none,-99,-99,0.2,1,AccAcc,9,19,Man,Left,
2,14,1,4.033704900000885,['n'],1,right,['2'],2,0.8338696999999229,0.4,0,AccAcc,9,19,Man,Left,
3,14,1,5.01543970000057,x,-99,right,none,-99,-99,0.1,1,AccAcc,9,19,Man,Left,
4,14,1,2.2165029999996477,['c'],1,left,['8'],4,0.11722680000093533,0.4,0,AccAcc,9,19,Man,Left,
5,14,1,4.799433199999839,['c'],0,right,"['2', '1']",2,0.1671835999986797,0.1,0,AccAcc,9,19,Man,Left,
6,14,1,2.833043799999359,['c'],1,left,['8'],4,0.11715889999868523,0.2,0,AccAcc,9,19,Man,Left,
7,14,1,1.2330930000007356,['n'],1,right,['2'],2,0.11705940000138071,0.4,0,AccAcc,9,19,Man,Left,
8,14,1,1.2000011000000086,['c'],1,left,['8'],4,0.050556000000142376,0.1,0,AccAcc,9,19,Man,Left,
9,14,1,1.3330999000008887,['n'],1,right,['3'],3,0.4005980999991152,0.2,0,AccAcc,9,19,Man,Left,
10,14,1,0.9328661000017746,['n'],1,right,['8'],4,0.10043360000054236,0.4,0,AccAcc,9,19,Man,Left,
11,14,1,0.74965820000034,['n'],1,right,['8'],4,0.15057340000021213,0.2,0,AccAcc,9,19,Man,Left,
12,14,1,0.7330400000009831,['n'],1,right,['8'],4,0.08386409999911848,0.1,0,AccAcc,9,19,Man,Left,
13,14,1,1.4993224999998347,['c'],1,left,['8'],4,0.10042820000126085,0.2,0,AccAcc,9,19,Man,Left,
14,14,1,0.6330223999993905,['n'],0,left,['3'],3,0.23396719999982452,0.1,0,AccAcc,9,19,Man,Left,
15,14,1,1.250293300001431,['n'],0,left,['2'],2,0.25036590000127035,0.1,0,AccAcc,9,19,Man,Left,
16,14,1,0.6662903999986156,['n'],1,right,['2'],2,0.16717509999944014,0.4,0,AccAcc,9,19,Man,Left,
17,14,1,1.1492013999995834,['c'],1,left,['8'],4,0.11708989999897312,0.4,0,AccAcc,9,19,Man,Left,
18,14,1,0.3330380999996123,['n'],0,left,['2'],2,0.18388600000071165,0.1,0,AccAcc,9,19,Man,Left,
19,14,1,0.6169258000008995,['c'],1,left,['8'],4,0.13369690000035916,0.4,0,AccAcc,9,19,Man,Left,
20,14,1,2.233271400000376,['c'],1,left,['8'],4,0.2169915000013134,0.2,0,AccAcc,9,19,Man,Left,
21,14,1,0.7663520000005519,['n'],1,right,['2'],2,0.18377089999921736,0.4,0,AccAcc,9,19,Man,Left,
22,14,1,1.4161701000011817,['c'],0,right,['8'],4,0.13390550000076473,0.2,0,AccAcc,9,19,Man,Left,
23,14,1,3.083973100001458,['c'],0,right,['8'],4,0.18394739999894227,0.1,0,AccAcc,9,19,Man,Left,
24,14,1,1.0166124000006675,['c'],1,left,['8'],4,0.16721899999902234,0.1,0,AccAcc,9,19,Man,Left,
25,14,1,1.6993956999995135,['n'],1,right,['2'],2,0.11759600000004866,0.1,0,AccAcc,9,19,Man,Left,
26,14,1,0.716365100000985,['c'],1,left,['8'],4,0.08388310000009369,0.4,0,AccAcc,9,19,Man,Left,
27,14,1,0.8330089000010048,['c'],1,left,['3'],3,0.13386050000008254,0.4,0,AccAcc,9,19,Man,Left,
28,14,1,1.1499640999991243,['c'],1,left,['8'],4,0.06708600000092702,0.2,0,AccAcc,9,19,Man,Left,
29,14,1,1.7162110999997822,['c'],1,left,['8'],4,0.10052059999907215,0.2,0,AccAcc,9,19,Man,Left,
30,14,1,1.383284300000014,['c'],1,left,['8'],4,0.08378300000003946,0.4,0,AccAcc,9,19,Man,Left,
31,14,1,1.0331354999998439,['n'],1,right,['2'],2,0.11727090000022145,0.2,0,AccAcc,9,19,Man,Left,
32,14,1,0.6999107000010554,['c'],1,left,['8'],4,0.1171448999994027,0.4,0,AccAcc,9,19,Man,Left,
33,14,1,0.5829368999984581,['c'],1,left,['8'],4,0.10048400000050606,0.2,0,AccAcc,9,19,Man,Left,
34,14,1,1.4497834000012517,['n'],1,right,['2'],2,0.08403480000015406,0.4,0,AccAcc,9,19,Man,Left,
35,14,1,2.2163294999991194,['c'],1,left,['3'],3,0.1505763000004663,0.1,0,AccAcc,9,19,Man,Left,
36,14,1,1.4833238999999594,['c'],1,left,['3'],3,0.23359120000168332,0.1,0,AccAcc,9,19,Man,Left,
37,14,1,1.1828302000012627,['n'],1,right,['3'],3,0.11709220000011555,0.2,0,AccAcc,9,19,Man,Left,
38,14,1,1.2495882999992318,['c'],1,left,['3'],3,0.017171699999380508,0.1,0,AccAcc,9,19,Man,Left,
39,14,1,1.583605499999976,['n'],1,right,['8'],4,0.050725500001135515,0.4,0,AccAcc,9,19,Man,Left,
40,14,1,1.1830475999995542,['n'],1,right,['3'],3,0.16698859999996785,0.4,0,AccAcc,9,19,Man,Left,
41,14,1,1.0838265000002139,['n'],1,right,['8'],4,0.15033799999946496,0.2,0,AccAcc,9,19,Man,Left,
42,14,1,0.8335122000007686,['n'],1,right,['8'],4,1.817475400001058,0.1,0,AccAcc,9,19,Man,Left,
43,14,1,1.216518500001257,['c'],1,left,['8'],4,0.08381530000042403,0.2,0,AccAcc,9,19,Man,Left,
44,14,1,2.949881500000629,['n'],1,right,['8'],4,0.15057400000114285,0.4,0,AccAcc,9,19,Man,Left,
45,14,1,0.8830481999993935,['c'],0,right,['8'],4,0.08376450000105251,0.1,0,AccAcc,9,19,Man,Left,
46,14,1,0.6995213000009244,['c'],1,left,['8'],4,0.06720250000034866,0.1,0,AccAcc,9,19,Man,Left,
47,14,1,3.6829526999990776,['c'],1,left,['1'],1,0.41732970000157366,0.1,0,AccAcc,9,19,Man,Left,
48,14,1,4.683038799999849,['c'],0,right,['1'],1,0.6005149000011443,0.2,0,AccAcc,9,19,Man,Left,
49,14,1,5.015969200001564,x,-99,left,none,-99,-99,0.4,1,AccAcc,9,19,Man,Left,
50,14,1,3.966888299999482,['n'],1,right,['1'],1,0.6005004999988159,0.1,0,AccAcc,9,19,Man,Left,
51,14,1,1.3329282000013336,['c'],1,left,['1'],1,0.08383859999958077,0.4,0,AccAcc,9,19,Man,Left,
52,14,1,2.1830088999995496,['c'],0,right,['2'],2,0.43406450000111363,0.2,0,AccAcc,9,19,Man,Left,
53,14,1,3.4668901999993977,['c'],1,left,['1'],1,0.6005009000000427,0.1,0,AccAcc,9,19,Man,Left,
54,14,1,2.600145700000212,['c'],1,left,['9'],5,0.1840139999985695,0.4,0,AccAcc,9,19,Man,Left,
55,14,1,4.682574899999963,['n'],1,right,['2'],2,0.28369090000160213,0.2,0,AccAcc,9,19,Man,Left,
56,14,1,5.016014099999666,x,-99,right,none,-99,-99,0.1,1,AccAcc,9,19,Man,Left,
57,14,1,3.882752100000289,['n'],0,left,['2'],2,0.18383580000045185,0.4,0,AccAcc,9,19,Man,Left,
58,14,1,1.0999035999993794,['n'],1,right,['2'],2,0.08379170000080194,0.2,0,AccAcc,9,19,Man,Left,
59,14,1,1.2829538000005414,['c'],1,left,['8'],4,0.1504610000010871,0.2,0,AccAcc,9,19,Man,Left,
0,15,1,1.2162759000002552,['n'],1,right,['3'],3,2.5506332000004477,0.4,0,FastAcc,9,19,Man,Left,
1,15,1,1.5830617999999959,['c'],1,left,['8'],4,0.08348680000017339,0.2,0,FastAcc,9,19,Man,Left,
2,15,1,1.1495379000007233,['c'],1,left,['3'],3,1.0173592999999528,0.2,0,FastAcc,9,19,Man,Left,
3,15,1,1.0829267999997683,['n'],1,right,['8'],4,0.300695200001428,0.4,0,FastAcc,9,19,Man,Left,
4,15,1,0.9653509999989183,['c'],0,right,['8'],4,0.7171163000002707,0.4,0,FastAcc,9,19,Man,Left,
5,15,1,1.299885299999005,['c'],0,right,['3'],3,0.06723289999899862,0.1,0,FastAcc,9,19,Man,Left,
6,15,1,0.9165313000012247,['n'],1,right,['8'],4,0.767210600000908,0.4,0,FastAcc,9,19,Man,Left,
7,15,1,1.0165992000002007,['c'],1,left,['8'],4,0.28396950000023935,0.2,0,FastAcc,9,19,Man,Left,
8,15,1,1.1335122999989835,['c'],1,left,['8'],4,0.21714729999985138,0.4,0,FastAcc,9,19,Man,Left,
9,15,1,0.8500872000004165,['c'],1,left,['8'],4,0.21683689999917988,0.4,0,FastAcc,9,19,Man,Left,
10,15,1,0.6994444000010844,['c'],1,left,['2'],2,0.4505011999990529,0.4,0,FastAcc,9,19,Man,Left,
11,15,1,0.9160488999987138,['c'],1,left,['8'],4,0.15052250000007916,0.2,0,FastAcc,9,19,Man,Left,
12,15,1,0.6495746000000509,['c'],1,left,['8'],4,0.25048599999900034,0.2,0,FastAcc,9,19,Man,Left,
13,15,1,3.5662049999991723,['n'],1,right,['2'],2,0.3339093000013236,0.1,0,FastAcc,9,19,Man,Left,
14,15,1,1.7157753000010416,['c'],1,left,['8'],4,0.15049280000130238,0.2,0,FastAcc,9,19,Man,Left,
15,15,1,1.2997588999987784,['c'],1,left,['8'],4,0.10048029999961727,0.2,0,FastAcc,9,19,Man,Left,
16,15,1,0.916232300000047,['c'],1,left,['8'],4,0.11722090000148455,0.1,0,FastAcc,9,19,Man,Left,
17,15,1,3.065590800000791,['c'],1,left,['8'],4,0.06734739999956219,0.1,0,FastAcc,9,19,Man,Left,
18,15,1,1.1662899999992078,['n'],1,right,['2'],2,0.36712030000126106,0.2,0,FastAcc,9,19,Man,Left,
19,15,1,0.6997228000000177,['n'],1,right,['3'],3,1.5508548999987397,0.2,0,FastAcc,9,19,Man,Left,
20,15,1,0.6496801000012056,['n'],1,right,['8'],4,0.5006814999997005,0.4,0,FastAcc,9,19,Man,Left,
21,15,1,1.4498101999997743,['c'],0,right,['3'],3,0.9839148999999452,0.1,0,FastAcc,9,19,Man,Left,
22,15,1,0.8321883000007801,['c'],0,right,['3'],3,0.3838093000013032,0.4,0,FastAcc,9,19,Man,Left,
23,15,1,0.6498819999997067,['n'],1,right,['8'],4,1.5671403000014834,0.4,0,FastAcc,9,19,Man,Left,
24,15,1,0.5660136999995302,['n'],1,right,['2'],2,1.0674452999992354,0.1,0,FastAcc,9,19,Man,Left,
25,15,1,0.46658930000012333,['n'],0,left,['3'],3,1.0672916999992594,0.2,0,FastAcc,9,19,Man,Left,
26,15,1,0.5664593999990757,['n'],0,left,['8'],4,0.5505830000001879,0.1,0,FastAcc,9,19,Man,Left,
27,15,1,0.6829694000007294,['n'],1,right,['3'],3,0.13375420000011218,0.1,0,FastAcc,9,19,Man,Left,
28,15,1,0.6997484000003169,['n'],1,right,['8'],4,0.4337331999995513,0.1,0,FastAcc,9,19,Man,Left,
29,15,1,0.6169415000003937,['n'],0,left,['8'],4,0.1175321000009717,0.1,0,FastAcc,9,19,Man,Left,
30,15,1,0.6821627999997872,['n'],0,left,['3'],3,0.200688099999752,0.2,0,FastAcc,9,19,Man,Left,
31,15,1,0.6492268999991211,['n'],1,right,['8'],4,0.11716870000054769,0.1,0,FastAcc,9,19,Man,Left,
32,15,1,0.6662858999989112,['n'],1,right,['8'],4,0.0672534999994241,0.1,0,FastAcc,9,19,Man,Left,
33,15,1,0.6669992999995884,['n'],1,right,['8'],4,0.08383790000152658,0.4,0,FastAcc,9,19,Man,Left,
34,15,1,1.7330148000000918,['c'],1,left,['8'],4,0.1341997999988962,0.2,0,FastAcc,9,19,Man,Left,
35,15,1,0.9492332000008901,['n'],1,right,['3'],3,0.9506399999991118,0.2,0,FastAcc,9,19,Man,Left,
36,15,1,1.7997534000005544,['c'],0,right,['3'],3,0.2004056000005221,0.4,0,FastAcc,9,19,Man,Left,
37,15,1,2.882773699999234,['n'],1,right,['1'],1,0.8172621000012441,0.1,0,FastAcc,9,19,Man,Left,
38,15,1,2.349982600000658,['n'],1,right,['2'],2,0.16716450000058103,0.4,0,FastAcc,9,19,Man,Left,
39,15,1,0.7993820000010601,['n'],0,left,['2'],2,0.9672219000003679,0.1,0,FastAcc,9,19,Man,Left,
40,15,1,0.984159699999509,['c'],1,left,['1'],1,0.08392190000085975,0.2,0,FastAcc,9,19,Man,Left,
41,15,1,1.599661099999139,['c'],0,right,['8'],4,0.1671423000007053,0.4,0,FastAcc,9,19,Man,Left,
42,15,1,1.1671406000004936,['c'],1,left,['8'],4,0.06721360000119603,0.4,0,FastAcc,9,19,Man,Left,
43,15,1,1.3496044000003167,['n'],1,right,['9'],5,0.7506009000007907,0.4,0,FastAcc,9,19,Man,Left,
44,15,1,1.832892800000991,['c'],0,right,['2'],2,0.43397790000017267,0.2,0,FastAcc,9,19,Man,Left,
45,15,1,1.533068100001401,['n'],1,right,['0'],6,0.7173195999985182,0.2,0,FastAcc,9,19,Man,Left,
46,15,1,0.9335838000006333,['c'],1,left,['9'],5,0.6506949999984499,0.1,0,FastAcc,9,19,Man,Left,
47,15,1,0.7662896000001638,['c'],1,left,['8'],4,0.4670994999996765,0.2,0,FastAcc,9,19,Man,Left,
48,15,1,0.7829086000001553,['c'],1,left,['8'],4,0.6338773000006768,0.2,0,FastAcc,9,19,Man,Left,
49,15,1,1.2163440999993327,['n'],0,left,['8'],4,0.8172228000003088,0.1,0,FastAcc,9,19,Man,Left,
50,15,1,0.9167856999993091,['c'],1,left,['8'],4,0.6005972000002657,0.4,0,FastAcc,9,19,Man,Left,
51,15,1,1.7997919999997976,['n'],1,right,['8'],4,0.2839304999997694,0.2,0,FastAcc,9,19,Man,Left,
52,15,1,1.899803599999359,['n'],1,right,['8'],4,0.2171928999996453,0.1,0,FastAcc,9,19,Man,Left,
53,15,1,0.8661663999992015,['c'],1,left,['8'],4,0.20045940000090923,0.4,0,FastAcc,9,19,Man,Left,
54,15,1,0.6663487999994686,['c'],1,left,['8'],4,0.11714100000062899,0.4,0,FastAcc,9,19,Man,Left,
55,15,1,0.8996540000007371,['c'],0,right,['8'],4,0.06707850000020699,0.1,0,FastAcc,9,19,Man,Left,
56,15,1,2.666450000000623,['c'],1,left,['8'],4,0.15058390000012878,0.1,0,FastAcc,9,19,Man,Left,
57,15,1,1.2493259999992006,['n'],1,right,['3'],3,0.15049480000016047,0.1,0,FastAcc,9,19,Man,Left,
58,15,1,2.2824999000004027,['c'],1,left,['8'],4,0.11707490000117105,0.2,0,FastAcc,9,19,Man,Left,
59,15,1,0.9499497000015253,['c'],1,left,['8'],4,0.06721780000043509,0.4,0,FastAcc,9,19,Man,Left,
