withinblocktrial,block,block_repetition,rt,resp,cor,cresp,conf_press,cj,rtconf,coherence,slow_trial,manipulation,sub,age,gender,handedness,
0,1,1,2.7509562000004735,['n'],0,left,none,-99,-99,0.5,0,none,10,18,Woman,Right,
1,1,1,3.9992340999997396,['c'],0,right,none,-99,-99,0.5,0,none,10,18,Woman,Right,
2,1,1,2.5334929000000557,['n'],1,right,none,-99,-99,0.5,0,none,10,18,Woman,Right,
3,1,1,4.850358800000322,['n'],1,right,none,-99,-99,0.5,0,none,10,18,Woman,Right,
4,1,1,1.0170229999994262,['c'],1,left,none,-99,-99,0.5,0,none,10,18,Woman,Right,
5,1,1,1.015539600000011,['c'],1,left,none,-99,-99,0.5,0,none,10,18,Woman,Right,
6,1,1,1.9496939000000566,['n'],0,left,none,-99,-99,0.5,0,none,10,18,Woman,Right,
7,1,1,3.049692900000082,['c'],0,right,none,-99,-99,0.5,0,none,10,18,Woman,Right,
8,1,1,5.00050900000042,x,-99,right,none,-99,-99,0.5,1,none,10,18,Woman,Right,
9,1,1,1.1663184999997611,['c'],1,left,none,-99,-99,0.5,0,none,10,18,Woman,Right,
10,1,1,1.1657201999996687,['n'],1,right,none,-99,-99,0.5,0,none,10,18,Woman,Right,
11,1,1,0.7336973000001308,['c'],1,left,none,-99,-99,0.5,0,none,10,18,Woman,Right,
12,1,1,0.8838362000005873,['n'],1,right,none,-99,-99,0.5,0,none,10,18,Woman,Right,
13,1,1,1.3002096999998685,['n'],1,right,none,-99,-99,0.5,0,none,10,18,Woman,Right,
14,1,1,0.7000102000001789,['c'],1,left,none,-99,-99,0.5,0,none,10,18,Woman,Right,
15,1,1,1.0498778999999558,['n'],1,right,none,-99,-99,0.5,0,none,10,18,Woman,Right,
16,1,1,0.7993608000006134,['n'],1,right,none,-99,-99,0.5,0,none,10,18,Woman,Right,
17,1,1,1.583326599999964,['n'],1,right,none,-99,-99,0.5,0,none,10,18,Woman,Right,
18,1,1,0.6504344000004494,['c'],1,left,none,-99,-99,0.5,0,none,10,18,Woman,Right,
19,1,1,1.3658495999998195,['n'],0,left,none,-99,-99,0.5,0,none,10,18,Woman,Right,
20,1,1,0.7510149999998248,['c'],1,left,none,-99,-99,0.5,0,none,10,18,Woman,Right,
21,1,1,0.7505347999995138,['n'],1,right,none,-99,-99,0.5,0,none,10,18,Woman,Right,
22,1,1,0.666579300000194,['c'],1,left,none,-99,-99,0.5,0,none,10,18,Woman,Right,
23,1,1,0.7161815999997998,['c'],1,left,none,-99,-99,0.5,0,none,10,18,Woman,Right,
0,1,2,1.248944200000551,['n'],1,right,none,-99,-99,0.5,0,none,10,18,Woman,Right,
1,1,2,0.7167626000000382,['n'],1,right,none,-99,-99,0.5,0,none,10,18,Woman,Right,
2,1,2,0.6159016999999949,['c'],1,left,none,-99,-99,0.5,0,none,10,18,Woman,Right,
3,1,2,0.7162037999996755,['c'],1,left,none,-99,-99,0.5,0,none,10,18,Woman,Right,
4,1,2,0.5500019000000975,['n'],1,right,none,-99,-99,0.5,0,none,10,18,Woman,Right,
5,1,2,0.5835170000000289,['n'],1,right,none,-99,-99,0.5,0,none,10,18,Woman,Right,
6,1,2,0.4327468999999837,['c'],1,left,none,-99,-99,0.5,0,none,10,18,Woman,Right,
7,1,2,0.5834139999997205,['n'],1,right,none,-99,-99,0.5,0,none,10,18,Woman,Right,
8,1,2,0.44895160000032774,['c'],1,left,none,-99,-99,0.5,0,none,10,18,Woman,Right,
9,1,2,0.5500480999999127,['c'],1,left,none,-99,-99,0.5,0,none,10,18,Woman,Right,
10,1,2,0.4664259999999558,['c'],1,left,none,-99,-99,0.5,0,none,10,18,Woman,Right,
11,1,2,0.4834147999999914,['n'],1,right,none,-99,-99,0.5,0,none,10,18,Woman,Right,
12,1,2,0.532728500000303,['n'],1,right,none,-99,-99,0.5,0,none,10,18,Woman,Right,
13,1,2,0.4837367999998605,['c'],1,left,none,-99,-99,0.5,0,none,10,18,Woman,Right,
14,1,2,0.5333820000005289,['n'],1,right,none,-99,-99,0.5,0,none,10,18,Woman,Right,
15,1,2,0.46687500000007276,['n'],1,right,none,-99,-99,0.5,0,none,10,18,Woman,Right,
16,1,2,0.5499011000001701,['n'],1,right,none,-99,-99,0.5,0,none,10,18,Woman,Right,
17,1,2,0.4333581000000777,['c'],1,left,none,-99,-99,0.5,0,none,10,18,Woman,Right,
18,1,2,1.8996311000000787,['n'],0,left,none,-99,-99,0.5,0,none,10,18,Woman,Right,
19,1,2,2.482801300000574,['c'],0,right,none,-99,-99,0.5,0,none,10,18,Woman,Right,
20,1,2,1.1999865999996473,['n'],0,left,none,-99,-99,0.5,0,none,10,18,Woman,Right,
21,1,2,0.9832915000006324,['n'],0,left,none,-99,-99,0.5,0,none,10,18,Woman,Right,
22,1,2,2.066091200000301,['n'],1,right,none,-99,-99,0.5,0,none,10,18,Woman,Right,
23,1,2,1.1996650999999474,['c'],1,left,none,-99,-99,0.5,0,none,10,18,Woman,Right,
0,1,3,1.3991247999992993,['n'],1,right,none,-99,-99,0.5,0,none,10,18,Woman,Right,
1,1,3,0.6165700999999899,['n'],0,left,none,-99,-99,0.5,0,none,10,18,Woman,Right,
2,1,3,1.117602600000282,['c'],1,left,none,-99,-99,0.5,0,none,10,18,Woman,Right,
3,1,3,0.8335668999998234,['n'],1,right,none,-99,-99,0.5,0,none,10,18,Woman,Right,
4,1,3,0.5836506000005102,['c'],1,left,none,-99,-99,0.5,0,none,10,18,Woman,Right,
5,1,3,0.7000281000000541,['n'],0,left,none,-99,-99,0.5,0,none,10,18,Woman,Right,
6,1,3,0.7007042999994155,['n'],0,left,none,-99,-99,0.5,0,none,10,18,Woman,Right,
7,1,3,0.7168354000004911,['n'],0,left,none,-99,-99,0.5,0,none,10,18,Woman,Right,
8,1,3,1.249694900000577,['n'],1,right,none,-99,-99,0.5,0,none,10,18,Woman,Right,
9,1,3,0.8160501000002114,['n'],1,right,none,-99,-99,0.5,0,none,10,18,Woman,Right,
10,1,3,1.1994697000000087,['n'],1,right,none,-99,-99,0.5,0,none,10,18,Woman,Right,
11,1,3,1.46717179999996,['n'],0,left,none,-99,-99,0.5,0,none,10,18,Woman,Right,
12,1,3,0.9333827000000383,['c'],0,right,none,-99,-99,0.5,0,none,10,18,Woman,Right,
13,1,3,0.833318799999688,['n'],1,right,none,-99,-99,0.5,0,none,10,18,Woman,Right,
14,1,3,1.0500504999999976,['n'],1,right,none,-99,-99,0.5,0,none,10,18,Woman,Right,
15,1,3,0.6995080000006055,['n'],1,right,none,-99,-99,0.5,0,none,10,18,Woman,Right,
16,1,3,0.866652200000317,['c'],1,left,none,-99,-99,0.5,0,none,10,18,Woman,Right,
17,1,3,0.8335982999997213,['n'],1,right,none,-99,-99,0.5,0,none,10,18,Woman,Right,
18,1,3,0.716744600000311,['n'],1,right,none,-99,-99,0.5,0,none,10,18,Woman,Right,
19,1,3,0.6179438000008304,['c'],1,left,none,-99,-99,0.5,0,none,10,18,Woman,Right,
20,1,3,0.7338045000005877,['c'],1,left,none,-99,-99,0.5,0,none,10,18,Woman,Right,
21,1,3,0.5828328000006877,['n'],1,right,none,-99,-99,0.5,0,none,10,18,Woman,Right,
22,1,3,0.4166824000003544,['c'],1,left,none,-99,-99,0.5,0,none,10,18,Woman,Right,
23,1,3,1.0334535000001779,['c'],1,left,none,-99,-99,0.5,0,none,10,18,Woman,Right,
0,1,4,1.183614800000214,['n'],1,right,none,-99,-99,0.5,0,none,10,18,Woman,Right,
1,1,4,0.3334018000005017,['c'],1,left,none,-99,-99,0.5,0,none,10,18,Woman,Right,
2,1,4,0.3673207000001639,['n'],1,right,none,-99,-99,0.5,0,none,10,18,Woman,Right,
3,1,4,0.2832675999998173,['c'],1,left,none,-99,-99,0.5,0,none,10,18,Woman,Right,
4,1,4,0.28362080000079004,['n'],1,right,none,-99,-99,0.5,0,none,10,18,Woman,Right,
5,1,4,0.2671233000000939,['c'],0,right,none,-99,-99,0.5,0,none,10,18,Woman,Right,
6,1,4,0.5167921000002025,['n'],1,right,none,-99,-99,0.5,0,none,10,18,Woman,Right,
7,1,4,0.3834839999999531,['c'],1,left,none,-99,-99,0.5,0,none,10,18,Woman,Right,
8,1,4,0.5502093000004606,['c'],1,left,none,-99,-99,0.5,0,none,10,18,Woman,Right,
9,1,4,0.44951659999969706,['n'],1,right,none,-99,-99,0.5,0,none,10,18,Woman,Right,
10,1,4,0.399910699999964,['c'],1,left,none,-99,-99,0.5,0,none,10,18,Woman,Right,
11,1,4,0.48373869999977614,['n'],1,right,none,-99,-99,0.5,0,none,10,18,Woman,Right,
12,1,4,0.5335297000001447,['c'],1,left,none,-99,-99,0.5,0,none,10,18,Woman,Right,
13,1,4,0.4660693000005267,['c'],1,left,none,-99,-99,0.5,0,none,10,18,Woman,Right,
14,1,4,0.4834200999994209,['c'],1,left,none,-99,-99,0.5,0,none,10,18,Woman,Right,
15,1,4,0.43235729999923933,['n'],1,right,none,-99,-99,0.5,0,none,10,18,Woman,Right,
16,1,4,0.9643506000002162,['n'],1,right,none,-99,-99,0.5,0,none,10,18,Woman,Right,
17,1,4,0.3965005000000019,['c'],1,left,none,-99,-99,0.5,0,none,10,18,Woman,Right,
18,1,4,0.43129099999987375,['c'],1,left,none,-99,-99,0.5,0,none,10,18,Woman,Right,
19,1,4,0.5316441999993913,['n'],1,right,none,-99,-99,0.5,0,none,10,18,Woman,Right,
20,1,4,0.397467300000244,['c'],1,left,none,-99,-99,0.5,0,none,10,18,Woman,Right,
21,1,4,1.014017700000295,['n'],1,right,none,-99,-99,0.5,0,none,10,18,Woman,Right,
22,1,4,0.38002070000038657,['c'],1,left,none,-99,-99,0.5,0,none,10,18,Woman,Right,
23,1,4,0.48255060000064987,['n'],1,right,none,-99,-99,0.5,0,none,10,18,Woman,Right,
0,2,1,1.1828100999991875,['c'],0,right,none,-99,-99,0.2,0,none,10,18,Woman,Right,
1,2,1,0.8809991999996782,['n'],1,right,none,-99,-99,0.4,0,none,10,18,Woman,Right,
2,2,1,0.4311337999997704,['c'],1,left,none,-99,-99,0.1,0,none,10,18,Woman,Right,
3,2,1,1.2472705999998652,['c'],0,right,none,-99,-99,0.1,0,none,10,18,Woman,Right,
4,2,1,0.7646518999999898,['n'],1,right,none,-99,-99,0.4,0,none,10,18,Woman,Right,
5,2,1,0.41294829999969807,['c'],1,left,none,-99,-99,0.1,0,none,10,18,Woman,Right,
6,2,1,0.9807219000003897,['c'],1,left,none,-99,-99,0.1,0,none,10,18,Woman,Right,
7,2,1,0.7312554000000091,['c'],1,left,none,-99,-99,0.4,0,none,10,18,Woman,Right,
8,2,1,0.5639559999999619,['n'],0,left,none,-99,-99,0.2,0,none,10,18,Woman,Right,
9,2,1,0.5461059999997815,['c'],1,left,none,-99,-99,0.2,0,none,10,18,Woman,Right,
10,2,1,0.6494981000005282,['n'],1,right,none,-99,-99,0.2,0,none,10,18,Woman,Right,
11,2,1,0.5003792999996222,['n'],1,right,none,-99,-99,0.4,0,none,10,18,Woman,Right,
12,2,1,0.5312405999993643,['n'],1,right,none,-99,-99,0.4,0,none,10,18,Woman,Right,
13,2,1,0.5639578000000256,['n'],1,right,none,-99,-99,0.4,0,none,10,18,Woman,Right,
14,2,1,0.39694430000054126,['c'],1,left,none,-99,-99,0.4,0,none,10,18,Woman,Right,
15,2,1,0.9807870000004186,['n'],0,left,none,-99,-99,0.1,0,none,10,18,Woman,Right,
16,2,1,0.5498834999998508,['n'],1,right,none,-99,-99,0.2,0,none,10,18,Woman,Right,
17,2,1,0.38074890000007144,['c'],1,left,none,-99,-99,0.2,0,none,10,18,Woman,Right,
18,2,1,0.7147932000007131,['n'],1,right,none,-99,-99,0.4,0,none,10,18,Woman,Right,
19,2,1,0.43112159999964206,['c'],1,left,none,-99,-99,0.1,0,none,10,18,Woman,Right,
20,2,1,0.4473329000002195,['c'],0,right,none,-99,-99,0.1,0,none,10,18,Woman,Right,
21,2,1,0.5975029999999606,['n'],0,left,none,-99,-99,0.2,0,none,10,18,Woman,Right,
22,2,1,0.5639541999998983,['n'],1,right,none,-99,-99,0.2,0,none,10,18,Woman,Right,
23,2,1,0.5807373999996344,['n'],0,left,none,-99,-99,0.1,0,none,10,18,Woman,Right,
0,3,1,1.4830628999998225,['n'],1,right,none,-99,-99,0.2,1,none,10,18,Woman,Right,
1,3,1,1.5830382000003738,['c'],1,left,['2'],5,2.46712959999968,0.1,0,none,10,18,Woman,Right,
2,3,1,1.1993814999996175,['n'],0,left,['2'],5,2.133702200000698,0.1,0,none,10,18,Woman,Right,
3,3,1,1.2331677000001946,['n'],1,right,['1'],6,2.200422800000524,0.4,0,none,10,18,Woman,Right,
4,3,1,1.5839956999998321,['n'],1,right,['2'],5,1.9003105000001597,0.4,0,none,10,18,Woman,Right,
5,3,1,1.0492530999999872,['c'],1,left,['3'],4,0.867133400000057,0.2,0,none,10,18,Woman,Right,
6,3,1,2.233573299999989,['n'],0,left,['9'],2,1.9671840000000884,0.2,0,none,10,18,Woman,Right,
7,3,1,1.5006351000001814,['n'],1,right,['1'],6,2.084077800000159,0.4,0,none,10,18,Woman,Right,
8,3,1,1.3504197000002023,['c'],1,left,['8'],3,3.550705999999991,0.1,0,none,10,18,Woman,Right,
9,3,1,1.733020800000304,['n'],0,left,['8'],3,0.9005936000003203,0.2,0,none,10,18,Woman,Right,
10,3,1,1.1499377999998615,['n'],1,right,['9'],2,0.4337636999998722,0.2,0,none,10,18,Woman,Right,
11,3,1,1.9167772000000696,['c'],0,right,['8'],3,1.4172265000006519,0.2,0,none,10,18,Woman,Right,
12,3,1,1.100409600000603,['c'],1,left,['2'],5,1.1503069000000323,0.4,0,none,10,18,Woman,Right,
13,3,1,1.283871999999974,['n'],1,right,['2'],5,1.1000650000005407,0.1,0,none,10,18,Woman,Right,
14,3,1,1.6174011000002793,['c'],0,right,['0'],1,1.850530400000025,0.4,0,none,10,18,Woman,Right,
15,3,1,0.9667835000000196,['c'],1,left,['2'],5,1.1504479999994146,0.4,0,none,10,18,Woman,Right,
16,3,1,2.0833221000002595,['c'],1,left,['8'],3,1.5335410999996384,0.2,0,none,10,18,Woman,Right,
17,3,1,1.3509130000002187,['c'],1,left,['8'],3,1.0671983000002,0.2,0,none,10,18,Woman,Right,
18,3,1,0.9168427000004158,['c'],0,right,['1'],6,2.0503881000004185,0.4,0,none,10,18,Woman,Right,
19,3,1,2.800298699999985,['c'],1,left,['0'],1,1.2341108000000531,0.1,0,none,10,18,Woman,Right,
20,3,1,1.200517000000218,['n'],1,right,['2'],5,1.6005407000002378,0.4,0,none,10,18,Woman,Right,
21,3,1,1.3493562999992719,['c'],0,right,['9'],2,1.750451100000646,0.1,0,none,10,18,Woman,Right,
22,3,1,1.150027599999703,['c'],1,left,['3'],4,1.7504754000001412,0.1,0,none,10,18,Woman,Right,
23,3,1,1.2503083000001425,['c'],0,right,['8'],3,1.6007309999995414,0.1,0,none,10,18,Woman,Right,
0,4,1,1.499481800000467,['c'],1,left,['3'],4,2.916965999999775,0.4,0,FastFast,10,18,Woman,Right,
1,4,1,1.2657662000001437,['n'],1,right,['2'],5,1.1838840999998865,0.4,0,FastFast,10,18,Woman,Right,
2,4,1,2.2504054999999425,['c'],0,right,['9'],2,1.7503682999995362,0.4,0,FastFast,10,18,Woman,Right,
3,4,1,1.0156734000001961,['c'],1,left,['0'],1,1.4337916000004043,0.2,0,FastFast,10,18,Woman,Right,
4,4,1,1.149461599999995,['c'],1,left,['2'],5,0.9338695000005828,0.4,0,FastFast,10,18,Woman,Right,
5,4,1,1.7498261000000639,['c'],0,right,['9'],2,1.1837673999998515,0.2,0,FastFast,10,18,Woman,Right,
6,4,1,1.1997371999996176,['c'],1,left,['3'],4,1.200519300000451,0.1,0,FastFast,10,18,Woman,Right,
7,4,1,1.6662185999994108,['n'],0,left,['8'],3,1.0507245999997394,0.4,0,FastFast,10,18,Woman,Right,
8,4,1,2.149833800000124,['c'],0,right,['0'],1,1.0671800999998595,0.1,0,FastFast,10,18,Woman,Right,
9,4,1,1.1493066000002727,['c'],1,left,['8'],3,1.2505682000000888,0.2,0,FastFast,10,18,Woman,Right,
10,4,1,1.2830598999998983,['c'],1,left,['3'],4,1.0341874999994616,0.2,0,FastFast,10,18,Woman,Right,
11,4,1,1.3330959999993865,['c'],0,right,['3'],4,0.7505952999999863,0.1,0,FastFast,10,18,Woman,Right,
12,4,1,0.9489817000003313,['c'],1,left,['3'],4,0.9004495999997744,0.2,0,FastFast,10,18,Woman,Right,
13,4,1,1.1488303000005544,['c'],1,left,['8'],3,1.35056110000005,0.2,0,FastFast,10,18,Woman,Right,
14,4,1,0.9154665999994904,['c'],1,left,['8'],3,0.7503388000004634,0.2,0,FastFast,10,18,Woman,Right,
15,4,1,1.0833282000003237,['c'],1,left,['8'],3,1.4503725000004124,0.2,0,FastFast,10,18,Woman,Right,
16,4,1,1.0488956999997754,['c'],1,left,['3'],4,1.2338497000000643,0.4,0,FastFast,10,18,Woman,Right,
17,4,1,0.8829431000003751,['c'],1,left,['2'],5,0.7839601000005132,0.4,0,FastFast,10,18,Woman,Right,
18,4,1,1.3835944999991625,['c'],1,left,['2'],5,0.7005316999993738,0.4,0,FastFast,10,18,Woman,Right,
19,4,1,1.2330572000000757,['n'],1,right,['3'],4,0.9506454000002122,0.1,0,FastFast,10,18,Woman,Right,
20,4,1,1.0664372999999614,['c'],1,left,['8'],3,0.7838628999998036,0.1,0,FastFast,10,18,Woman,Right,
21,4,1,1.950312599999961,['c'],1,left,['8'],3,0.8172506999999314,0.2,0,FastFast,10,18,Woman,Right,
22,4,1,1.1330731999996715,['n'],1,right,['3'],4,0.7838990999998714,0.4,0,FastFast,10,18,Woman,Right,
23,4,1,2.1656679999996413,['n'],1,right,['0'],1,1.2505620000001727,0.1,0,FastFast,10,18,Woman,Right,
24,4,1,0.9160663000002387,['c'],1,left,['1'],6,1.0338762999999744,0.4,0,FastFast,10,18,Woman,Right,
25,4,1,0.9832139999998617,['n'],1,right,['1'],6,0.767255099999602,0.4,0,FastFast,10,18,Woman,Right,
26,4,1,1.3497425999994448,['c'],0,right,['8'],3,0.6839184000000387,0.2,0,FastFast,10,18,Woman,Right,
27,4,1,1.2501853000003393,['c'],1,left,['3'],4,1.1507939000002807,0.2,0,FastFast,10,18,Woman,Right,
28,4,1,1.3328773000002911,['c'],1,left,['3'],4,0.5172452999995585,0.1,0,FastFast,10,18,Woman,Right,
29,4,1,2.2321670999999697,['c'],0,right,['8'],3,0.7175108999999793,0.1,0,FastFast,10,18,Woman,Right,
30,4,1,1.4154264999997395,['n'],1,right,['8'],3,0.48383169999942766,0.1,0,FastFast,10,18,Woman,Right,
31,4,1,0.6987977999997383,['c'],1,left,['3'],4,0.6502871000002415,0.2,0,FastFast,10,18,Woman,Right,
32,4,1,1.1003397000004043,['c'],1,left,['3'],4,0.45052990000021964,0.1,0,FastFast,10,18,Woman,Right,
33,4,1,2.5010730000003605,['n'],1,right,['8'],3,0.5673249999999825,0.1,0,FastFast,10,18,Woman,Right,
34,4,1,0.7322374999994281,['c'],1,left,['1'],6,0.9171779999996943,0.4,0,FastFast,10,18,Woman,Right,
35,4,1,2.215934500000003,['n'],0,left,['0'],1,0.9672184999999445,0.2,0,FastFast,10,18,Woman,Right,
36,4,1,1.5499733999995442,['c'],1,left,['9'],2,0.5171429000001808,0.1,0,FastFast,10,18,Woman,Right,
37,4,1,1.3498147999998764,['c'],0,right,['3'],4,1.4839558000003308,0.2,0,FastFast,10,18,Woman,Right,
38,4,1,1.6676104999996824,['n'],1,right,['3'],4,0.9171053000000029,0.1,0,FastFast,10,18,Woman,Right,
39,4,1,1.4497063999997408,['n'],1,right,['3'],4,0.6671976000006907,0.2,0,FastFast,10,18,Woman,Right,
40,4,1,2.46622970000044,['c'],1,left,['8'],3,0.6672238999999536,0.1,0,FastFast,10,18,Woman,Right,
41,4,1,1.1499313000003895,['n'],1,right,['2'],5,0.8504899999998088,0.4,0,FastFast,10,18,Woman,Right,
42,4,1,0.9161821000006967,['n'],1,right,['2'],5,0.41725729999961914,0.4,0,FastFast,10,18,Woman,Right,
43,4,1,0.9672652999997808,['n'],1,right,['2'],5,0.48369370000000345,0.1,0,FastFast,10,18,Woman,Right,
44,4,1,2.3494833999993716,['n'],1,right,['3'],4,1.0835575999999492,0.2,0,FastFast,10,18,Woman,Right,
45,4,1,1.048538400000325,['n'],1,right,['2'],5,0.950539899999967,0.2,0,FastFast,10,18,Woman,Right,
46,4,1,0.798779800000375,['n'],1,right,['1'],6,0.43378129999928206,0.4,0,FastFast,10,18,Woman,Right,
47,4,1,0.9829148999997415,['n'],1,right,['1'],6,0.5671913000005588,0.4,0,FastFast,10,18,Woman,Right,
48,4,1,0.9829653999995571,['c'],0,right,['9'],2,0.483865600000172,0.2,0,FastFast,10,18,Woman,Right,
49,4,1,0.8821980000002441,['c'],1,left,['1'],6,0.7339939000003142,0.4,0,FastFast,10,18,Woman,Right,
50,4,1,0.8494888999994146,['n'],1,right,['2'],5,0.5503753000002689,0.4,0,FastFast,10,18,Woman,Right,
51,4,1,0.9337963999996646,['c'],1,left,['2'],5,0.43385399999988294,0.1,0,FastFast,10,18,Woman,Right,
52,4,1,2.5662547000001723,['c'],1,left,['9'],2,1.0836635999994542,0.4,0,FastFast,10,18,Woman,Right,
53,4,1,1.116391399999884,['n'],0,left,['3'],4,0.717361300000448,0.1,0,FastFast,10,18,Woman,Right,
54,4,1,2.7993248000002495,['n'],1,right,['8'],3,0.6332052000007025,0.1,0,FastFast,10,18,Woman,Right,
55,4,1,2.78188769999997,['n'],1,right,['0'],1,0.5338670000001002,0.1,0,FastFast,10,18,Woman,Right,
56,4,1,1.833111299999473,['c'],0,right,['8'],3,1.1170257000003403,0.1,0,FastFast,10,18,Woman,Right,
57,4,1,1.516150899999957,['n'],1,right,['9'],2,1.0671535999999833,0.2,0,FastFast,10,18,Woman,Right,
58,4,1,1.067030999999588,['c'],1,left,['3'],4,0.7338590999997905,0.4,0,FastFast,10,18,Woman,Right,
59,4,1,0.9990195999998832,['n'],1,right,['2'],5,0.8338512000000264,0.2,0,FastFast,10,18,Woman,Right,
0,5,1,1.2163547999998627,['n'],0,left,['3'],4,3.733848300000318,0.1,0,AccFast,10,18,Woman,Right,
1,5,1,2.46593699999994,['n'],1,right,['2'],5,0.9505189000001337,0.2,0,AccFast,10,18,Woman,Right,
2,5,1,1.0335272000002078,['c'],1,left,['8'],3,0.5505746999997427,0.2,0,AccFast,10,18,Woman,Right,
3,5,1,1.5994970000001558,['n'],0,left,['3'],4,0.6337536999999429,0.2,0,AccFast,10,18,Woman,Right,
4,5,1,1.383498099999997,['n'],0,left,['9'],2,0.6004697999997006,0.2,0,AccFast,10,18,Woman,Right,
5,5,1,0.9333165999996709,['n'],1,right,['3'],4,0.5507090000000971,0.2,0,AccFast,10,18,Woman,Right,
6,5,1,1.1161575000005541,['n'],1,right,['2'],5,0.5338722000005873,0.2,0,AccFast,10,18,Woman,Right,
7,5,1,2.1495679999998174,['c'],0,right,['9'],2,1.2341765999999552,0.2,0,AccFast,10,18,Woman,Right,
8,5,1,1.900174600000355,['c'],1,left,['2'],5,1.333779899999172,0.2,0,AccFast,10,18,Woman,Right,
9,5,1,0.8991304999999556,['n'],1,right,['1'],6,0.4337388000003557,0.4,0,AccFast,10,18,Woman,Right,
10,5,1,4.5827120999992985,['c'],0,right,['0'],1,1.3174584999997023,0.1,0,AccFast,10,18,Woman,Right,
11,5,1,1.3325912000000244,['n'],1,right,['3'],4,1.3005197000002227,0.4,0,AccFast,10,18,Woman,Right,
12,5,1,0.783470500000476,['n'],1,right,['2'],5,0.6505676999995558,0.4,0,AccFast,10,18,Woman,Right,
13,5,1,1.0665264999997817,['n'],1,right,['1'],6,0.45050179999998363,0.4,0,AccFast,10,18,Woman,Right,
14,5,1,2.9837947000005443,['c'],0,right,['8'],3,1.0841497000001254,0.4,0,AccFast,10,18,Woman,Right,
15,5,1,2.249502599999687,['n'],1,right,['8'],3,0.8504616000000169,0.1,0,AccFast,10,18,Woman,Right,
16,5,1,0.8333542999998826,['c'],1,left,['3'],4,0.7005297999994582,0.4,0,AccFast,10,18,Woman,Right,
17,5,1,0.9835182999995595,['c'],1,left,['2'],5,0.6505047000000559,0.4,0,AccFast,10,18,Woman,Right,
18,5,1,3.26625039999999,['c'],1,left,['0'],1,0.8838166999994428,0.2,0,AccFast,10,18,Woman,Right,
19,5,1,1.316160399999717,['n'],1,right,['1'],6,0.4838245000000825,0.4,0,AccFast,10,18,Woman,Right,
20,5,1,1.1829407000004721,['c'],1,left,['2'],5,0.9171649999998408,0.2,0,AccFast,10,18,Woman,Right,
21,5,1,5.016050299999733,x,-99,left,none,-99,-99,0.1,1,AccFast,10,18,Woman,Right,
22,5,1,0.9326719000000594,['n'],1,right,['2'],5,1.0005933000002187,0.2,0,AccFast,10,18,Woman,Right,
23,5,1,2.483411399999568,['n'],1,right,['3'],4,0.3999999999996362,0.1,0,AccFast,10,18,Woman,Right,
24,5,1,1.3329335999997056,['c'],1,left,['8'],3,0.40058130000034,0.1,0,AccFast,10,18,Woman,Right,
25,5,1,2.16594299999997,['n'],0,left,['8'],3,0.6338121999997384,0.1,0,AccFast,10,18,Woman,Right,
26,5,1,1.550151200000073,['c'],1,left,['3'],4,0.28401189999931375,0.2,0,AccFast,10,18,Woman,Right,
27,5,1,3.066034400000717,['c'],1,left,['3'],4,1.3171667999995407,0.1,0,AccFast,10,18,Woman,Right,
28,5,1,2.350264800000332,['c'],1,left,['8'],3,0.8005456000000777,0.1,0,AccFast,10,18,Woman,Right,
29,5,1,1.066356799999994,['c'],1,left,['3'],4,0.5338163999995231,0.4,0,AccFast,10,18,Woman,Right,
30,5,1,1.116396800000075,['n'],1,right,['2'],5,0.45054849999996804,0.4,0,AccFast,10,18,Woman,Right,
31,5,1,2.2331002999999328,['n'],1,right,['0'],1,1.2171089000003121,0.2,0,AccFast,10,18,Woman,Right,
32,5,1,1.0000881999994817,['c'],0,right,['2'],5,0.46704719999979716,0.2,0,AccFast,10,18,Woman,Right,
33,5,1,1.4659424999999828,['c'],0,right,['9'],2,0.5505590000002485,0.1,0,AccFast,10,18,Woman,Right,
34,5,1,1.0825549000001047,['c'],1,left,['2'],5,0.5505113999997775,0.4,0,AccFast,10,18,Woman,Right,
35,5,1,1.61635380000007,['n'],1,right,['9'],2,1.6339749999997366,0.1,0,AccFast,10,18,Woman,Right,
36,5,1,0.8666143999998894,['c'],1,left,['2'],5,0.5174655000000712,0.4,0,AccFast,10,18,Woman,Right,
37,5,1,1.6834207000001697,['n'],0,left,['1'],6,0.3837333999999828,0.2,0,AccFast,10,18,Woman,Right,
38,5,1,2.4660094000000754,['n'],1,right,['9'],2,0.7004946999995809,0.2,0,AccFast,10,18,Woman,Right,
39,5,1,0.7496908000002804,['c'],1,left,['1'],6,0.6838227000007464,0.4,0,AccFast,10,18,Woman,Right,
40,5,1,1.183310899999924,['n'],1,right,['1'],6,0.36726500000077067,0.4,0,AccFast,10,18,Woman,Right,
41,5,1,1.5830486000004385,['c'],0,right,['8'],3,0.5508589999999458,0.1,0,AccFast,10,18,Woman,Right,
42,5,1,1.133511400000316,['c'],1,left,['2'],5,0.4672609999997803,0.4,0,AccFast,10,18,Woman,Right,
43,5,1,0.9329327999994348,['n'],1,right,['1'],6,0.38370799999938754,0.4,0,AccFast,10,18,Woman,Right,
44,5,1,1.1010668999997506,['c'],1,left,['2'],5,0.6673400999998194,0.1,0,AccFast,10,18,Woman,Right,
45,5,1,0.8832728999996107,['c'],1,left,['2'],5,0.4505284999995638,0.2,0,AccFast,10,18,Woman,Right,
46,5,1,0.9668342999993911,['c'],1,left,['3'],4,0.48391499999979715,0.1,0,AccFast,10,18,Woman,Right,
47,5,1,0.699819700000262,['n'],1,right,['3'],4,0.6838752000003296,0.2,0,AccFast,10,18,Woman,Right,
48,5,1,0.8496667999997953,['n'],1,right,['2'],5,0.4005041999998866,0.4,0,AccFast,10,18,Woman,Right,
49,5,1,0.6496276999996553,['c'],1,left,['2'],5,0.5671486999999615,0.2,0,AccFast,10,18,Woman,Right,
50,5,1,0.6838969000000361,['n'],1,right,['2'],5,0.6171634000002086,0.4,0,AccFast,10,18,Woman,Right,
51,5,1,0.5829256999995778,['c'],1,left,['1'],6,0.36716599999999744,0.1,0,AccFast,10,18,Woman,Right,
52,5,1,2.0163040999996156,['n'],0,left,['8'],3,0.5004885999996986,0.1,0,AccFast,10,18,Woman,Right,
53,5,1,0.7996744000001854,['c'],1,left,['2'],5,0.6504780999994182,0.2,0,AccFast,10,18,Woman,Right,
54,5,1,1.0500130000000354,['n'],1,right,['9'],2,0.48383969999940746,0.1,0,AccFast,10,18,Woman,Right,
55,5,1,2.1996860999997807,['c'],1,left,['9'],2,0.533835100000033,0.1,0,AccFast,10,18,Woman,Right,
56,5,1,1.766349700000319,['n'],1,right,['2'],5,0.5837846999993417,0.4,0,AccFast,10,18,Woman,Right,
57,5,1,0.6833695999994234,['c'],1,left,['1'],6,0.5173451999999088,0.4,0,AccFast,10,18,Woman,Right,
58,5,1,2.1832185000002937,['n'],1,right,['9'],2,0.7006079000002501,0.1,0,AccFast,10,18,Woman,Right,
59,5,1,3.049586599999202,['c'],0,right,['9'],2,0.3838402999999744,0.1,0,AccFast,10,18,Woman,Right,
0,6,1,1.1828003000000535,['c'],1,left,['2'],5,1.6172115999997914,0.2,0,AccAcc,10,18,Woman,Right,
1,6,1,1.2663417000003392,['n'],1,right,['3'],4,1.3837553999992451,0.2,0,AccAcc,10,18,Woman,Right,
2,6,1,1.9829980999993495,['n'],1,right,['3'],4,1.4172464000002947,0.2,0,AccAcc,10,18,Woman,Right,
3,6,1,2.033047400000214,['c'],1,left,['8'],3,0.8505029000007198,0.1,0,AccAcc,10,18,Woman,Right,
4,6,1,1.732983800000511,['n'],1,right,['2'],5,1.2005724999999074,0.1,0,AccAcc,10,18,Woman,Right,
5,6,1,1.149771200000032,['c'],1,left,['1'],6,0.7834108000006381,0.4,0,AccAcc,10,18,Woman,Right,
6,6,1,1.6163354999998774,['n'],1,right,['0'],1,1.4006163000003653,0.2,0,AccAcc,10,18,Woman,Right,
7,6,1,0.9665413000002445,['n'],1,right,['1'],6,1.1839223999995738,0.4,0,AccAcc,10,18,Woman,Right,
8,6,1,0.9831834999995408,['c'],1,left,['2'],5,0.5339759999997113,0.4,0,AccAcc,10,18,Woman,Right,
9,6,1,1.1493306999991546,['n'],1,right,['2'],5,1.0505191000002014,0.2,0,AccAcc,10,18,Woman,Right,
10,6,1,1.0495891999999003,['c'],1,left,['2'],5,1.1343042999997124,0.4,0,AccAcc,10,18,Woman,Right,
11,6,1,1.249877600000218,['c'],1,left,['8'],3,1.1505155999993804,0.4,0,AccAcc,10,18,Woman,Right,
12,6,1,1.2827809000000343,['n'],1,right,['3'],4,0.7673970999994708,0.2,0,AccAcc,10,18,Woman,Right,
13,6,1,1.6165382999997746,['n'],1,right,['3'],4,1.133872500000507,0.4,0,AccAcc,10,18,Woman,Right,
14,6,1,2.2665173999994295,['c'],1,left,['9'],2,1.3670099999999366,0.2,0,AccAcc,10,18,Woman,Right,
15,6,1,2.6995437999994465,['c'],0,right,['9'],2,0.5841354000003776,0.2,0,AccAcc,10,18,Woman,Right,
16,6,1,2.683319699999629,['c'],0,right,['0'],1,0.5340270999995482,0.1,0,AccAcc,10,18,Woman,Right,
17,6,1,2.9994241000003967,['c'],1,left,['9'],2,0.9005951999997706,0.1,0,AccAcc,10,18,Woman,Right,
18,6,1,2.7327891000004456,['c'],0,right,['8'],3,1.3005188000006456,0.1,0,AccAcc,10,18,Woman,Right,
19,6,1,3.6493289999998524,['c'],0,right,['0'],1,1.950348400000621,0.1,0,AccAcc,10,18,Woman,Right,
20,6,1,1.36623789999976,['n'],1,right,['2'],5,1.0674294000000373,0.4,0,AccAcc,10,18,Woman,Right,
21,6,1,3.5831906000003073,['c'],0,right,['9'],2,3.0507502999998906,0.2,0,AccAcc,10,18,Woman,Right,
22,6,1,1.4159303999995245,['n'],1,right,['3'],4,1.450561700000435,0.4,0,AccAcc,10,18,Woman,Right,
23,6,1,1.5996409999997923,['c'],1,left,['9'],2,1.3506144000002678,0.2,0,AccAcc,10,18,Woman,Right,
24,6,1,2.8166331000002174,['c'],1,left,['8'],3,1.0172850999997536,0.1,0,AccAcc,10,18,Woman,Right,
25,6,1,1.150100900000325,['c'],1,left,['1'],6,0.4510919999993348,0.4,0,AccAcc,10,18,Woman,Right,
26,6,1,1.4662631000001056,['n'],1,right,['3'],4,1.0339175999997678,0.2,0,AccAcc,10,18,Woman,Right,
27,6,1,2.249662499999431,['n'],1,right,['2'],5,1.0005240999998932,0.4,0,AccAcc,10,18,Woman,Right,
28,6,1,3.1991619000000355,['c'],1,left,['3'],4,0.8504870999995546,0.1,0,AccAcc,10,18,Woman,Right,
29,6,1,3.0501429000005373,['c'],1,left,['3'],4,1.8837278000000879,0.1,0,AccAcc,10,18,Woman,Right,
30,6,1,1.6002063000005364,['n'],1,right,['2'],5,1.0339316999998118,0.4,0,AccAcc,10,18,Woman,Right,
31,6,1,2.766397700000198,['c'],0,right,['2'],5,0.8505108999997901,0.1,0,AccAcc,10,18,Woman,Right,
32,6,1,4.532507500000065,['c'],0,right,['3'],4,1.3505508999996891,0.1,0,AccAcc,10,18,Woman,Right,
33,6,1,3.4668165000002773,['c'],1,left,['8'],3,2.0007450999992216,0.1,0,AccAcc,10,18,Woman,Right,
34,6,1,2.8989824000000226,['c'],0,right,['2'],5,1.750521399999343,0.1,0,AccAcc,10,18,Woman,Right,
35,6,1,1.1502494000005754,['c'],1,left,['1'],6,1.0005252999999357,0.4,0,AccAcc,10,18,Woman,Right,
36,6,1,1.0327939999997398,['c'],1,left,['2'],5,0.7338859000001321,0.2,0,AccAcc,10,18,Woman,Right,
37,6,1,1.016021099999307,['c'],1,left,['1'],6,1.1174713000000338,0.2,0,AccAcc,10,18,Woman,Right,
38,6,1,1.2327801999999792,['n'],1,right,['3'],4,1.0505118000000948,0.1,0,AccAcc,10,18,Woman,Right,
39,6,1,1.2664230000000316,['c'],1,left,['2'],5,0.9838715999994747,0.2,0,AccAcc,10,18,Woman,Right,
40,6,1,0.9497566000000006,['n'],1,right,['2'],5,1.550592300000062,0.2,0,AccAcc,10,18,Woman,Right,
41,6,1,1.116204299999481,['c'],1,left,['2'],5,0.41708939999989525,0.4,0,AccAcc,10,18,Woman,Right,
42,6,1,2.8994212000006883,['c'],1,left,['1'],6,0.8505309000001944,0.2,0,AccAcc,10,18,Woman,Right,
43,6,1,3.016515799999979,['c'],1,left,['3'],4,0.91706190000059,0.1,0,AccAcc,10,18,Woman,Right,
44,6,1,4.132979400000295,['c'],0,right,['8'],3,1.1336632000002282,0.1,0,AccAcc,10,18,Woman,Right,
45,6,1,0.965877300000102,['c'],1,left,['3'],4,1.033670499999971,0.4,0,AccAcc,10,18,Woman,Right,
46,6,1,0.8827948999996806,['n'],1,right,['1'],6,0.5007012999994913,0.4,0,AccAcc,10,18,Woman,Right,
47,6,1,2.8330831000002945,['c'],1,left,['2'],5,0.7837769999996453,0.1,0,AccAcc,10,18,Woman,Right,
48,6,1,1.6492499999994834,['n'],1,right,['8'],3,1.0839347999999518,0.1,0,AccAcc,10,18,Woman,Right,
49,6,1,3.8659491999997044,['c'],0,right,['3'],4,1.0504389000006995,0.1,0,AccAcc,10,18,Woman,Right,
50,6,1,1.7663860000002387,['n'],1,right,['9'],2,0.8335784000000785,0.4,0,AccAcc,10,18,Woman,Right,
51,6,1,0.8498526000003039,['c'],1,left,['3'],4,1.0837760000003982,0.2,0,AccAcc,10,18,Woman,Right,
52,6,1,4.8329933999993955,['n'],1,right,['3'],4,1.6003413999997065,0.1,0,AccAcc,10,18,Woman,Right,
53,6,1,2.8330600000008417,['n'],1,right,['3'],4,1.9505579999995462,0.2,0,AccAcc,10,18,Woman,Right,
54,6,1,1.0993914999999106,['c'],1,left,['2'],5,1.1839570000001913,0.4,0,AccAcc,10,18,Woman,Right,
55,6,1,3.59985560000041,['c'],1,left,['2'],5,1.483907900000304,0.4,0,AccAcc,10,18,Woman,Right,
56,6,1,1.6329906999999366,['c'],1,left,['2'],5,0.6506642000003922,0.4,0,AccAcc,10,18,Woman,Right,
57,6,1,2.5665443000007144,['c'],1,left,['1'],6,0.8838237999998455,0.4,0,AccAcc,10,18,Woman,Right,
58,6,1,3.2328207000000475,['c'],1,left,['2'],5,0.6838294999997743,0.2,0,AccAcc,10,18,Woman,Right,
59,6,1,3.316548900000271,['n'],0,left,['8'],3,0.7839830000002621,0.2,0,AccAcc,10,18,Woman,Right,
0,7,1,0.7828766000002361,['c'],1,left,['2'],5,1.5674022000002878,0.4,0,FastAcc,10,18,Woman,Right,
1,7,1,2.783493100000669,['c'],1,left,['2'],5,1.9174128999993627,0.1,0,FastAcc,10,18,Woman,Right,
2,7,1,1.099434800000381,['n'],0,left,['8'],3,1.350466700000652,0.1,0,FastAcc,10,18,Woman,Right,
3,7,1,3.0829524000000674,['c'],1,left,['8'],3,1.0338423000002877,0.1,0,FastAcc,10,18,Woman,Right,
4,7,1,1.0662492000001293,['n'],0,left,['2'],5,0.48334109999996144,0.2,0,FastAcc,10,18,Woman,Right,
5,7,1,0.8329340000000229,['n'],1,right,['2'],5,0.5170891000007032,0.4,0,FastAcc,10,18,Woman,Right,
6,7,1,1.233086899999762,['c'],1,left,['1'],6,1.1505051999993157,0.2,0,FastAcc,10,18,Woman,Right,
7,7,1,1.03320100000019,['n'],1,right,['2'],5,0.3837509000004502,0.1,0,FastAcc,10,18,Woman,Right,
8,7,1,0.9328831000002538,['c'],1,left,['2'],5,0.46715210000002116,0.2,0,FastAcc,10,18,Woman,Right,
9,7,1,1.2495701999996527,['n'],1,right,['3'],4,1.3337529000000359,0.1,0,FastAcc,10,18,Woman,Right,
10,7,1,2.6165310000005775,['c'],0,right,['8'],3,0.7671624000004158,0.1,0,FastAcc,10,18,Woman,Right,
11,7,1,3.666420499999731,['n'],0,left,['9'],2,0.8503434000003836,0.1,0,FastAcc,10,18,Woman,Right,
12,7,1,0.949806599999647,['n'],1,right,['2'],5,0.5505812000001242,0.4,0,FastAcc,10,18,Woman,Right,
13,7,1,1.0498791999998502,['n'],1,right,['8'],3,1.084038199999668,0.1,0,FastAcc,10,18,Woman,Right,
14,7,1,0.7494973000002574,['c'],1,left,['2'],5,0.5338489000005211,0.2,0,FastAcc,10,18,Woman,Right,
15,7,1,0.7822163999999248,['n'],1,right,['9'],2,0.5672685999998066,0.1,0,FastAcc,10,18,Woman,Right,
16,7,1,0.8830929000005199,['c'],1,left,['2'],5,0.38299649999953544,0.2,0,FastAcc,10,18,Woman,Right,
17,7,1,3.298837299999832,['n'],1,right,['2'],5,0.717407600000115,0.2,0,FastAcc,10,18,Woman,Right,
18,7,1,0.6498324000003777,['c'],1,left,['1'],6,0.6005787999993117,0.2,0,FastAcc,10,18,Woman,Right,
19,7,1,3.366909299999861,['c'],1,left,['2'],5,0.7172644000002038,0.2,0,FastAcc,10,18,Woman,Right,
20,7,1,0.7329453000002104,['n'],1,right,['3'],4,0.6838392999998177,0.1,0,FastAcc,10,18,Woman,Right,
21,7,1,1.416560099999515,['c'],1,left,['2'],5,0.6005108999997901,0.2,0,FastAcc,10,18,Woman,Right,
22,7,1,1.0829894999997123,['c'],1,left,['1'],6,0.3671188999996957,0.4,0,FastAcc,10,18,Woman,Right,
23,7,1,4.066708300000755,['c'],1,left,['8'],3,0.650618100000429,0.1,0,FastAcc,10,18,Woman,Right,
24,7,1,5.01620180000009,x,-99,left,none,-99,-99,0.1,1,FastAcc,10,18,Woman,Right,
25,7,1,3.15002640000057,['n'],1,right,['8'],3,0.8003490999999485,0.2,0,FastAcc,10,18,Woman,Right,
26,7,1,3.6997216999998273,['n'],1,right,['2'],5,3.717042500000389,0.2,0,FastAcc,10,18,Woman,Right,
27,7,1,1.6494205999997575,['c'],1,left,['8'],3,1.033672999999908,0.4,0,FastAcc,10,18,Woman,Right,
28,7,1,3.5670684000006077,['n'],1,right,['8'],3,1.0505715999997847,0.2,0,FastAcc,10,18,Woman,Right,
29,7,1,1.4493572999999742,['c'],1,left,['3'],4,0.8337495999994644,0.4,0,FastAcc,10,18,Woman,Right,
30,7,1,4.517244399999981,['n'],0,left,['8'],3,0.7005600000002232,0.2,0,FastAcc,10,18,Woman,Right,
31,7,1,3.349486400000387,['c'],0,right,['0'],1,0.6004652000001443,0.4,0,FastAcc,10,18,Woman,Right,
32,7,1,1.96634560000075,['n'],1,right,['3'],4,0.7171163999992132,0.4,0,FastAcc,10,18,Woman,Right,
33,7,1,2.550342599999567,['c'],0,right,['3'],4,1.4835926000005202,0.2,0,FastAcc,10,18,Woman,Right,
34,7,1,1.8164864000000307,['c'],1,left,['3'],4,0.9670990000004167,0.4,0,FastAcc,10,18,Woman,Right,
35,7,1,3.216690899999776,['n'],1,right,['2'],5,0.6338887000001705,0.4,0,FastAcc,10,18,Woman,Right,
36,7,1,1.8661148000001049,['c'],1,left,['2'],5,0.5837562000006074,0.4,0,FastAcc,10,18,Woman,Right,
37,7,1,2.96597120000024,['n'],0,left,['2'],5,2.0836768000008306,0.2,0,FastAcc,10,18,Woman,Right,
38,7,1,2.249532000000727,['n'],1,right,['2'],5,0.6836736999994173,0.4,0,FastAcc,10,18,Woman,Right,
39,7,1,1.766782400000011,['c'],1,left,['2'],5,1.883884200000466,0.2,0,FastAcc,10,18,Woman,Right,
40,7,1,3.416522200000145,['c'],1,left,['1'],6,0.6674776999998357,0.4,0,FastAcc,10,18,Woman,Right,
41,7,1,1.0330600000006598,['n'],1,right,['1'],6,0.6839299000002939,0.4,0,FastAcc,10,18,Woman,Right,
42,7,1,3.0999293999993824,['c'],0,right,['9'],2,0.966833299999962,0.1,0,FastAcc,10,18,Woman,Right,
43,7,1,1.5340911999992386,['n'],1,right,['2'],5,1.2169548000001669,0.4,0,FastAcc,10,18,Woman,Right,
44,7,1,3.6828874000002543,['c'],0,right,['9'],2,0.8673421000003145,0.1,0,FastAcc,10,18,Woman,Right,
45,7,1,2.4162882000000536,['n'],1,right,['2'],5,0.5837937000005695,0.2,0,FastAcc,10,18,Woman,Right,
46,7,1,2.2995958000001337,['n'],1,right,['1'],6,0.9838943000004292,0.2,0,FastAcc,10,18,Woman,Right,
47,7,1,2.983689499999855,['n'],1,right,['2'],5,0.9506338999999571,0.1,0,FastAcc,10,18,Woman,Right,
48,7,1,2.899510000000191,['n'],1,right,['2'],5,0.9505874999995285,0.1,0,FastAcc,10,18,Woman,Right,
49,7,1,1.6329641000002084,['n'],1,right,['2'],5,0.7837638000000879,0.2,0,FastAcc,10,18,Woman,Right,
50,7,1,2.483114200000273,['n'],1,right,['8'],3,1.4172865000000456,0.1,0,FastAcc,10,18,Woman,Right,
51,7,1,2.3830130999995163,['n'],0,left,['8'],3,0.633847600000081,0.1,0,FastAcc,10,18,Woman,Right,
52,7,1,1.1496241000004375,['n'],1,right,['3'],4,1.650547899999765,0.2,0,FastAcc,10,18,Woman,Right,
53,7,1,2.632860800000344,['c'],1,left,['3'],4,1.4505448999998407,0.1,0,FastAcc,10,18,Woman,Right,
54,7,1,0.8670864000005167,['c'],1,left,['1'],6,0.6005334999999832,0.4,0,FastAcc,10,18,Woman,Right,
55,7,1,3.4157195999996475,['c'],1,left,['9'],2,1.416949499999646,0.1,0,FastAcc,10,18,Woman,Right,
56,7,1,1.6833771000001434,['c'],1,left,['2'],5,1.1005402999999205,0.4,0,FastAcc,10,18,Woman,Right,
57,7,1,0.9496168999994552,['n'],1,right,['1'],6,1.1005774999994173,0.4,0,FastAcc,10,18,Woman,Right,
58,7,1,1.0497279000001072,['c'],1,left,['2'],5,1.4505661000002874,0.4,0,FastAcc,10,18,Woman,Right,
59,7,1,1.0163795999997092,['n'],1,right,['8'],3,1.3838184999995065,0.4,0,FastAcc,10,18,Woman,Right,
0,8,1,0.616552600000432,['c'],1,left,['3'],4,0.9004803999996511,0.4,0,FastFast,10,18,Woman,Right,
1,8,1,0.7321680000004562,['c'],1,left,['8'],3,0.8009394000000611,0.1,0,FastFast,10,18,Woman,Right,
2,8,1,0.916389099999833,['n'],1,right,['9'],2,0.783960599999773,0.1,0,FastFast,10,18,Woman,Right,
3,8,1,0.5334732999999687,['c'],1,left,['2'],5,0.4838216999996803,0.2,0,FastFast,10,18,Woman,Right,
4,8,1,0.7996215000002849,['c'],1,left,['8'],3,0.6009216000002198,0.4,0,FastFast,10,18,Woman,Right,
5,8,1,0.6998629999998229,['c'],1,left,['2'],5,0.46733279999989463,0.4,0,FastFast,10,18,Woman,Right,
6,8,1,2.566493399999672,['n'],0,left,['2'],5,0.9672547000000122,0.1,0,FastFast,10,18,Woman,Right,
7,8,1,0.9161901999996189,['n'],1,right,['2'],5,0.7671762999998464,0.4,0,FastFast,10,18,Woman,Right,
8,8,1,3.8498711000002004,['n'],1,right,['0'],1,1.1670900999997684,0.1,0,FastFast,10,18,Woman,Right,
9,8,1,1.198807100000522,['n'],1,right,['8'],3,0.967345000000023,0.1,0,FastFast,10,18,Woman,Right,
10,8,1,0.7162473000007594,['c'],1,left,['2'],5,0.7338917000006404,0.2,0,FastFast,10,18,Woman,Right,
11,8,1,1.3994474000000992,['c'],1,left,['3'],4,0.4504953999994541,0.2,0,FastFast,10,18,Woman,Right,
12,8,1,0.7663866000002599,['n'],1,right,['1'],6,0.8170236000005389,0.4,0,FastFast,10,18,Woman,Right,
13,8,1,1.9661372000000483,['n'],1,right,['2'],5,0.733752000000095,0.1,0,FastFast,10,18,Woman,Right,
14,8,1,1.366183799999817,['n'],1,right,['1'],6,0.43374930000027234,0.4,0,FastFast,10,18,Woman,Right,
15,8,1,1.3995209999993676,['n'],1,right,['2'],5,0.40057059999980993,0.2,0,FastFast,10,18,Woman,Right,
16,8,1,1.1662037000005512,['n'],1,right,['1'],6,0.4504207999998471,0.4,0,FastFast,10,18,Woman,Right,
17,8,1,0.9163840000001073,['c'],1,left,['1'],6,0.6670835000004445,0.2,0,FastFast,10,18,Woman,Right,
18,8,1,2.7662153999999646,['c'],1,left,['9'],2,0.8175219999993715,0.1,0,FastFast,10,18,Woman,Right,
19,8,1,0.8664274000002479,['c'],1,left,['1'],6,0.3673778999991555,0.4,0,FastFast,10,18,Woman,Right,
20,8,1,0.9497328999996171,['n'],1,right,['2'],5,1.0168902000004891,0.4,0,FastFast,10,18,Woman,Right,
21,8,1,2.4328239999995276,['c'],1,left,['9'],2,0.5510080999993079,0.1,0,FastFast,10,18,Woman,Right,
22,8,1,1.1493932000003042,['n'],1,right,['1'],6,0.5172530000008919,0.2,0,FastFast,10,18,Woman,Right,
23,8,1,0.9336806000001161,['c'],1,left,['2'],5,1.4171892000003936,0.4,0,FastFast,10,18,Woman,Right,
24,8,1,0.766572499999711,['n'],1,right,['1'],6,0.40049369999997,0.2,0,FastFast,10,18,Woman,Right,
25,8,1,2.7496024000001853,['n'],1,right,['9'],2,0.5344764000001305,0.2,0,FastFast,10,18,Woman,Right,
26,8,1,3.5497403999997914,['n'],1,right,['8'],3,0.733863399999791,0.2,0,FastFast,10,18,Woman,Right,
27,8,1,1.5492410000006203,['n'],1,right,['8'],3,0.8507301999998163,0.2,0,FastFast,10,18,Woman,Right,
28,8,1,3.9324612000000343,['n'],1,right,['3'],4,2.9672776000006706,0.1,0,FastFast,10,18,Woman,Right,
29,8,1,0.84919600000012,['c'],1,left,['3'],4,0.4170887000000221,0.4,0,FastFast,10,18,Woman,Right,
30,8,1,2.1166690999998536,['n'],1,right,['9'],2,0.5672261999998227,0.1,0,FastFast,10,18,Woman,Right,
31,8,1,1.0996123000004445,['n'],1,right,['8'],3,0.5171666999995068,0.2,0,FastFast,10,18,Woman,Right,
32,8,1,1.9829750999997486,['n'],0,left,['9'],2,0.5007391000008283,0.1,0,FastFast,10,18,Woman,Right,
33,8,1,2.6662700000006225,['n'],1,right,['8'],3,0.5670777000004819,0.1,0,FastFast,10,18,Woman,Right,
34,8,1,1.1329993999997896,['n'],1,right,['1'],6,0.25053459999980987,0.2,0,FastFast,10,18,Woman,Right,
35,8,1,0.9495915000006789,['c'],1,left,['9'],2,0.3171634999998787,0.4,0,FastFast,10,18,Woman,Right,
36,8,1,1.949576099999831,['n'],1,right,['2'],5,0.6172613999997338,0.1,0,FastFast,10,18,Woman,Right,
37,8,1,0.6663625000001048,['c'],1,left,['1'],6,0.5504191999998511,0.1,0,FastFast,10,18,Woman,Right,
38,8,1,0.7662288000001354,['n'],0,left,['1'],6,0.33398010000018985,0.1,0,FastFast,10,18,Woman,Right,
39,8,1,0.7838580999996339,['n'],1,right,['1'],6,0.4671656999998959,0.4,0,FastFast,10,18,Woman,Right,
40,8,1,0.8165117999997165,['c'],1,left,['9'],2,0.3338480000002164,0.1,0,FastFast,10,18,Woman,Right,
41,8,1,0.7675688999997874,['c'],1,left,['1'],6,0.2840336000008392,0.2,0,FastFast,10,18,Woman,Right,
42,8,1,0.6321446000001743,['n'],1,right,['1'],6,0.21716939999987517,0.4,0,FastFast,10,18,Woman,Right,
43,8,1,0.5500865000003614,['c'],1,left,['1'],6,0.5171183000002202,0.2,0,FastFast,10,18,Woman,Right,
44,8,1,0.5993488000003708,['n'],1,right,['1'],6,0.33365130000038334,0.4,0,FastFast,10,18,Woman,Right,
45,8,1,1.7000570999998672,['n'],0,left,['8'],3,0.5505618999995932,0.1,0,FastFast,10,18,Woman,Right,
46,8,1,2.5662470999996003,['n'],1,right,['3'],4,0.8674639999999272,0.2,0,FastFast,10,18,Woman,Right,
47,8,1,1.1330985000004148,['c'],1,left,['2'],5,0.6505059000000983,0.4,0,FastFast,10,18,Woman,Right,
48,8,1,1.932872000000316,['c'],1,left,['2'],5,0.21722760000011476,0.4,0,FastFast,10,18,Woman,Right,
49,8,1,2.782821500000864,['n'],1,right,['8'],3,0.6838219000001118,0.1,0,FastFast,10,18,Woman,Right,
50,8,1,1.116027000000031,['c'],1,left,['1'],6,0.31718329999966954,0.1,0,FastFast,10,18,Woman,Right,
51,8,1,2.4494958999994196,['c'],1,left,['3'],4,0.36718440000004193,0.2,0,FastFast,10,18,Woman,Right,
52,8,1,0.6663369000007151,['n'],1,right,['3'],4,0.8002664999994522,0.4,0,FastFast,10,18,Woman,Right,
53,8,1,0.9332156999998915,['n'],1,right,['2'],5,0.3672083000001294,0.2,0,FastFast,10,18,Woman,Right,
54,8,1,2.7332469000002675,['n'],0,left,['8'],3,0.3172423999994862,0.1,0,FastFast,10,18,Woman,Right,
55,8,1,0.7497862000000168,['c'],1,left,['2'],5,0.2670492999995986,0.2,0,FastFast,10,18,Woman,Right,
56,8,1,0.8000579999998081,['c'],1,left,['1'],6,0.31713500000023487,0.4,0,FastFast,10,18,Woman,Right,
57,8,1,0.6993152000004557,['n'],1,right,['2'],5,0.4004407000002175,0.2,0,FastFast,10,18,Woman,Right,
58,8,1,0.6661139999996522,['c'],1,left,['1'],6,0.4839394999999058,0.4,0,FastFast,10,18,Woman,Right,
59,8,1,0.6503221000002668,['c'],0,right,['1'],6,0.3338168999998743,0.2,0,FastFast,10,18,Woman,Right,
0,9,1,1.4662915999997495,['c'],0,right,['3'],4,0.48354289999952016,0.1,0,AccFast,10,18,Woman,Right,
1,9,1,2.183057500000359,['n'],0,left,['8'],3,1.1171134000014717,0.1,0,AccFast,10,18,Woman,Right,
2,9,1,1.9998314999993454,['c'],0,right,['8'],3,0.400508799999443,0.2,0,AccFast,10,18,Woman,Right,
3,9,1,0.7666566999996576,['n'],1,right,['1'],6,0.3174092000008386,0.4,0,AccFast,10,18,Woman,Right,
4,9,1,0.8162830000001122,['c'],1,left,['1'],6,0.7171018000008189,0.4,0,AccFast,10,18,Woman,Right,
5,9,1,2.1832694000004267,['c'],1,left,['3'],4,0.8005983000002743,0.1,0,AccFast,10,18,Woman,Right,
6,9,1,0.7997011000006751,['c'],1,left,['2'],5,0.483882900000026,0.4,0,AccFast,10,18,Woman,Right,
7,9,1,0.7326993999995466,['n'],1,right,['1'],6,0.45049329999892507,0.4,0,AccFast,10,18,Woman,Right,
8,9,1,0.8814345999999205,['c'],1,left,['2'],5,0.7337738999995054,0.1,0,AccFast,10,18,Woman,Right,
9,9,1,2.8164959000005183,['c'],0,right,['8'],3,0.6505403999999544,0.1,0,AccFast,10,18,Woman,Right,
10,9,1,2.850148999999874,['c'],1,left,['8'],3,1.167022999999972,0.1,0,AccFast,10,18,Woman,Right,
11,9,1,1.0485773000000336,['n'],1,right,['2'],5,0.5672214000005624,0.2,0,AccFast,10,18,Woman,Right,
12,9,1,0.7663869999996678,['c'],1,left,['1'],6,0.5171762999998464,0.4,0,AccFast,10,18,Woman,Right,
13,9,1,1.1495372999997926,['c'],1,left,['1'],6,0.26721790000010515,0.4,0,AccFast,10,18,Woman,Right,
14,9,1,2.5322767999987263,['n'],1,right,['3'],4,1.2838350999991235,0.1,0,AccFast,10,18,Woman,Right,
15,9,1,0.8665373000003456,['c'],1,left,['2'],5,0.667375600000014,0.2,0,AccFast,10,18,Woman,Right,
16,9,1,0.9495659000003798,['c'],1,left,['1'],6,0.3007138000011764,0.2,0,AccFast,10,18,Woman,Right,
17,9,1,0.6830503000001045,['n'],1,right,['1'],6,0.45050049999917974,0.4,0,AccFast,10,18,Woman,Right,
18,9,1,0.7161723999997776,['c'],1,left,['2'],5,0.45045959999879415,0.4,0,AccFast,10,18,Woman,Right,
19,9,1,1.8331318000000465,['n'],1,right,['2'],5,0.5998567000006005,0.2,0,AccFast,10,18,Woman,Right,
20,9,1,3.499851900000067,['n'],1,right,['9'],2,0.9005049000006693,0.2,0,AccFast,10,18,Woman,Right,
21,9,1,2.6495150000009744,['c'],0,right,['9'],2,0.7173406000001705,0.1,0,AccFast,10,18,Woman,Right,
22,9,1,2.515673300000344,['c'],1,left,['0'],1,0.3505209000013565,0.2,0,AccFast,10,18,Woman,Right,
23,9,1,2.4164276999999856,['n'],1,right,['8'],3,0.46731030000046303,0.1,0,AccFast,10,18,Woman,Right,
24,9,1,2.765081100000316,['c'],1,left,['8'],3,0.7506173999991006,0.1,0,AccFast,10,18,Woman,Right,
25,9,1,3.2329656000001705,['c'],0,right,['8'],3,0.5836562000004051,0.1,0,AccFast,10,18,Woman,Right,
26,9,1,1.4161278000010498,['n'],1,right,['2'],5,0.26716250000026776,0.4,0,AccFast,10,18,Woman,Right,
27,9,1,4.516430100000434,['c'],0,right,['0'],1,1.1675152000007074,0.1,0,AccFast,10,18,Woman,Right,
28,9,1,1.1494010999995226,['c'],1,left,['1'],6,0.333750499999951,0.4,0,AccFast,10,18,Woman,Right,
29,9,1,1.1159064000003127,['n'],1,right,['2'],5,0.3005316999988281,0.1,0,AccFast,10,18,Woman,Right,
30,9,1,0.8834913999999117,['c'],1,left,['1'],6,0.43385379999926954,0.4,0,AccFast,10,18,Woman,Right,
31,9,1,1.0660416999999143,['n'],1,right,['1'],6,0.38412160000007134,0.2,0,AccFast,10,18,Woman,Right,
32,9,1,3.1997434999993857,['c'],0,right,['9'],2,0.9171057000003202,0.2,0,AccFast,10,18,Woman,Right,
33,9,1,0.9497845000005327,['n'],1,right,['1'],6,0.4171533000007912,0.4,0,AccFast,10,18,Woman,Right,
34,9,1,1.1158660999990389,['c'],1,left,['2'],5,0.4670916000013676,0.2,0,AccFast,10,18,Woman,Right,
35,9,1,0.7998752000003151,['c'],1,left,['2'],5,0.4340265000009822,0.1,0,AccFast,10,18,Woman,Right,
36,9,1,0.8331023000009736,['c'],1,left,['2'],5,0.48379449999993085,0.2,0,AccFast,10,18,Woman,Right,
37,9,1,1.0826837000004161,['n'],1,right,['2'],5,0.383649699999296,0.4,0,AccFast,10,18,Woman,Right,
38,9,1,0.766269600000669,['c'],1,left,['1'],6,0.4336489999986952,0.4,0,AccFast,10,18,Woman,Right,
39,9,1,1.949772899999516,['c'],1,left,['2'],5,0.41718610000134504,0.2,0,AccFast,10,18,Woman,Right,
40,9,1,0.9664174000008643,['c'],1,left,['1'],6,0.41721809999944526,0.4,0,AccFast,10,18,Woman,Right,
41,9,1,1.73270390000107,['c'],1,left,['3'],4,0.43411269999887736,0.2,0,AccFast,10,18,Woman,Right,
42,9,1,0.8665930000006483,['n'],1,right,['2'],5,0.45047669999985374,0.4,0,AccFast,10,18,Woman,Right,
43,9,1,1.9328768000013952,['c'],1,left,['3'],4,0.4668900999986363,0.1,0,AccFast,10,18,Woman,Right,
44,9,1,3.1827985999989323,['c'],1,left,['8'],3,0.9004253000002791,0.2,0,AccFast,10,18,Woman,Right,
45,9,1,0.8830808000002435,['c'],1,left,['2'],5,0.9670790999989549,0.4,0,AccFast,10,18,Woman,Right,
46,9,1,2.832890200001202,['c'],0,right,['9'],2,0.9338315000004513,0.2,0,AccFast,10,18,Woman,Right,
47,9,1,3.049147699999594,['c'],0,right,['0'],1,0.467275700000755,0.1,0,AccFast,10,18,Woman,Right,
48,9,1,1.0995531999997183,['n'],1,right,['2'],5,0.6672581000002538,0.4,0,AccFast,10,18,Woman,Right,
49,9,1,2.0165265000014188,['n'],1,right,['3'],4,0.9339448000009725,0.1,0,AccFast,10,18,Woman,Right,
50,9,1,2.616575100000773,['c'],0,right,['8'],3,0.6339130999986082,0.2,0,AccFast,10,18,Woman,Right,
51,9,1,2.633047400000578,['n'],1,right,['3'],4,0.5671118999998725,0.1,0,AccFast,10,18,Woman,Right,
52,9,1,0.7664244000006875,['c'],1,left,['1'],6,0.5338455999990401,0.4,0,AccFast,10,18,Woman,Right,
53,9,1,2.816268399999899,['n'],0,left,['2'],5,0.4340938000004826,0.2,0,AccFast,10,18,Woman,Right,
54,9,1,3.14938820000134,['n'],1,right,['3'],4,1.0838502000005974,0.2,0,AccFast,10,18,Woman,Right,
55,9,1,0.8492976000015915,['c'],1,left,['2'],5,0.6006674000000203,0.1,0,AccFast,10,18,Woman,Right,
56,9,1,2.3002230000001873,['c'],1,left,['8'],3,0.6670976000004885,0.1,0,AccFast,10,18,Woman,Right,
57,9,1,2.3164580000011483,['c'],1,left,['9'],2,0.8336815999991813,0.2,0,AccFast,10,18,Woman,Right,
58,9,1,0.9997900999987905,['n'],1,right,['2'],5,0.20051889999922423,0.4,0,AccFast,10,18,Woman,Right,
59,9,1,2.2665127999989636,['n'],1,right,['9'],2,1.2172867999997834,0.2,0,AccFast,10,18,Woman,Right,
0,10,1,2.8162885999990976,['c'],1,left,['2'],5,0.8836656000003131,0.2,0,AccAcc,10,18,Woman,Right,
1,10,1,1.9161863000008452,['n'],0,left,['9'],2,0.7338352000006125,0.2,0,AccAcc,10,18,Woman,Right,
2,10,1,1.3824558000014804,['n'],1,right,['2'],5,1.1504740999989735,0.4,0,AccAcc,10,18,Woman,Right,
3,10,1,3.016313900001478,['c'],1,left,['3'],4,1.5674804999998742,0.2,0,AccAcc,10,18,Woman,Right,
4,10,1,0.8819260000000213,['n'],1,right,['2'],5,1.3839844000012818,0.4,0,AccAcc,10,18,Woman,Right,
5,10,1,1.949594800000341,['n'],1,right,['2'],5,1.0838579000010213,0.2,0,AccAcc,10,18,Woman,Right,
6,10,1,1.249712200000431,['n'],1,right,['2'],5,1.050531700000647,0.4,0,AccAcc,10,18,Woman,Right,
7,10,1,2.0830218000010063,['c'],1,left,['3'],4,0.6673668999992515,0.2,0,AccAcc,10,18,Woman,Right,
8,10,1,2.249628699999448,['c'],0,right,['9'],2,0.7838404000012815,0.1,0,AccAcc,10,18,Woman,Right,
9,10,1,1.3828272000009747,['n'],1,right,['3'],4,0.9671290999995108,0.2,0,AccAcc,10,18,Woman,Right,
10,10,1,1.383074299999862,['n'],1,right,['2'],5,0.80052330000035,0.2,0,AccAcc,10,18,Woman,Right,
11,10,1,1.29968849999932,['c'],1,left,['2'],5,1.8004882000004727,0.4,0,AccAcc,10,18,Woman,Right,
12,10,1,3.082905799999935,['n'],1,right,['8'],3,1.1173968000002787,0.1,0,AccAcc,10,18,Woman,Right,
13,10,1,2.2327635000001465,['n'],1,right,['9'],2,0.7172147000001132,0.1,0,AccAcc,10,18,Woman,Right,
14,10,1,1.2659593999997014,['n'],1,right,['2'],5,0.5505610999989585,0.4,0,AccAcc,10,18,Woman,Right,
15,10,1,1.2834810000003927,['c'],1,left,['1'],6,0.4671708999994735,0.1,0,AccAcc,10,18,Woman,Right,
16,10,1,0.9996630000005098,['c'],1,left,['1'],6,0.36756470000000263,0.4,0,AccAcc,10,18,Woman,Right,
17,10,1,1.9830882999995083,['c'],1,left,['3'],4,0.5672723000006954,0.1,0,AccAcc,10,18,Woman,Right,
18,10,1,2.299684999999954,['n'],1,right,['3'],4,1.0007989000005182,0.4,0,AccAcc,10,18,Woman,Right,
19,10,1,1.4494205999999394,['c'],1,left,['9'],2,0.717196800000238,0.2,0,AccAcc,10,18,Woman,Right,
20,10,1,1.5995818000010331,['n'],1,right,['8'],3,0.9170973999989656,0.2,0,AccAcc,10,18,Woman,Right,
21,10,1,0.6830867999997281,['c'],1,left,['1'],6,0.4169265999989875,0.4,0,AccAcc,10,18,Woman,Right,
22,10,1,2.4662333999986004,['n'],1,right,['3'],4,0.6837674999987939,0.4,0,AccAcc,10,18,Woman,Right,
23,10,1,1.8328961999995954,['c'],0,right,['2'],5,0.7671858000012435,0.1,0,AccAcc,10,18,Woman,Right,
24,10,1,1.1157690000000002,['c'],1,left,['3'],4,2.2672567999998137,0.4,0,AccAcc,10,18,Woman,Right,
25,10,1,1.8496861999992689,['c'],1,left,['2'],5,0.7842835999999807,0.2,0,AccAcc,10,18,Woman,Right,
26,10,1,1.7998755000007804,['n'],1,right,['3'],4,1.3337519999986398,0.1,0,AccAcc,10,18,Woman,Right,
27,10,1,2.332876499998747,['c'],0,right,['2'],5,0.7170659999992495,0.4,0,AccAcc,10,18,Woman,Right,
28,10,1,1.4328745999991952,['c'],1,left,['3'],4,1.4006210999996256,0.1,0,AccAcc,10,18,Woman,Right,
29,10,1,1.8163232000006246,['n'],1,right,['2'],5,1.000492999999551,0.1,0,AccAcc,10,18,Woman,Right,
30,10,1,1.4662788999994518,['n'],1,right,['2'],5,1.467305199999828,0.2,0,AccAcc,10,18,Woman,Right,
31,10,1,2.616179500000726,['c'],1,left,['0'],1,0.8504219000005833,0.1,0,AccAcc,10,18,Woman,Right,
32,10,1,1.7829514000004565,['n'],1,right,['1'],6,1.8839606000001368,0.4,0,AccAcc,10,18,Woman,Right,
33,10,1,1.6996579000006022,['c'],1,left,['3'],4,1.0505390999987867,0.4,0,AccAcc,10,18,Woman,Right,
34,10,1,1.6835783000005904,['n'],1,right,['3'],4,1.317313400000785,0.1,0,AccAcc,10,18,Woman,Right,
35,10,1,3.016729700000724,['c'],1,left,['9'],2,0.9505680999991455,0.1,0,AccAcc,10,18,Woman,Right,
36,10,1,1.4994693999997253,['c'],1,left,['9'],2,1.2338977999988856,0.2,0,AccAcc,10,18,Woman,Right,
37,10,1,2.5495126000005257,['n'],1,right,['3'],4,0.8005330999985745,0.1,0,AccAcc,10,18,Woman,Right,
38,10,1,1.233163599999898,['c'],1,left,['3'],4,0.7175286000001506,0.4,0,AccAcc,10,18,Woman,Right,
39,10,1,1.2834670000011101,['n'],1,right,['3'],4,1.1006060999989131,0.2,0,AccAcc,10,18,Woman,Right,
40,10,1,1.2498240999993868,['c'],1,left,['2'],5,0.8672346999992442,0.4,0,AccAcc,10,18,Woman,Right,
41,10,1,1.7496057999996992,['n'],0,left,['8'],3,0.8672463999992033,0.2,0,AccAcc,10,18,Woman,Right,
42,10,1,2.2328517000005377,['c'],1,left,['2'],5,0.96725189999961,0.1,0,AccAcc,10,18,Woman,Right,
43,10,1,2.6333494999998948,['n'],0,left,['9'],2,1.267681299999822,0.1,0,AccAcc,10,18,Woman,Right,
44,10,1,2.9165388000001258,['c'],0,right,['8'],3,1.800546899999972,0.2,0,AccAcc,10,18,Woman,Right,
45,10,1,1.5163343000003806,['c'],1,left,['2'],5,1.200510500000746,0.4,0,AccAcc,10,18,Woman,Right,
46,10,1,1.3163039999999455,['n'],1,right,['2'],5,0.8168748999996751,0.2,0,AccAcc,10,18,Woman,Right,
47,10,1,0.7997413000011875,['c'],1,left,['1'],6,0.5671636000006401,0.4,0,AccAcc,10,18,Woman,Right,
48,10,1,1.666443199999776,['c'],1,left,['1'],6,0.5004074000007677,0.2,0,AccAcc,10,18,Woman,Right,
49,10,1,1.1497152000010828,['n'],1,right,['1'],6,0.6003992999994807,0.2,0,AccAcc,10,18,Woman,Right,
50,10,1,2.5663942999999563,['n'],1,right,['8'],3,1.067372699999396,0.1,0,AccAcc,10,18,Woman,Right,
51,10,1,1.8495693999993819,['c'],1,left,['9'],2,0.8338096999996196,0.1,0,AccAcc,10,18,Woman,Right,
52,10,1,2.1993640000000596,['n'],1,right,['2'],5,0.6505277999985992,0.4,0,AccAcc,10,18,Woman,Right,
53,10,1,1.7161338000005344,['c'],1,left,['2'],5,0.6337988000013866,0.1,0,AccAcc,10,18,Woman,Right,
54,10,1,1.232691100000011,['c'],1,left,['3'],4,1.933969400000933,0.2,0,AccAcc,10,18,Woman,Right,
55,10,1,1.4995815999991464,['n'],1,right,['2'],5,1.2007487999999285,0.4,0,AccAcc,10,18,Woman,Right,
56,10,1,1.249230900000839,['c'],1,left,['3'],4,1.800520900000265,0.4,0,AccAcc,10,18,Woman,Right,
57,10,1,2.9827636999998504,['c'],1,left,['8'],3,1.2005444999995234,0.1,0,AccAcc,10,18,Woman,Right,
58,10,1,3.0497632999995403,['c'],0,right,['3'],4,1.1839357000008022,0.1,0,AccAcc,10,18,Woman,Right,
59,10,1,2.7495027000004484,['n'],1,right,['8'],3,0.6670000000012806,0.2,0,AccAcc,10,18,Woman,Right,
0,11,1,1.165911900001447,['c'],1,left,['3'],4,1.2171184000017092,0.1,0,FastAcc,10,18,Woman,Right,
1,11,1,0.6664407999996911,['n'],1,right,['2'],5,1.2838368000011542,0.4,0,FastAcc,10,18,Woman,Right,
2,11,1,0.6167178000014246,['c'],1,left,['1'],6,0.6172635000002629,0.4,0,FastAcc,10,18,Woman,Right,
3,11,1,1.833091599999534,['n'],0,left,['8'],3,0.9672635000006267,0.1,0,FastAcc,10,18,Woman,Right,
4,11,1,0.8833322000009503,['c'],1,left,['2'],5,1.100526100000934,0.4,0,FastAcc,10,18,Woman,Right,
5,11,1,0.7329004000002897,['c'],1,left,['1'],6,0.8504935000000842,0.4,0,FastAcc,10,18,Woman,Right,
6,11,1,1.9161710000007588,['n'],1,right,['8'],3,0.9672878000001219,0.1,0,FastAcc,10,18,Woman,Right,
7,11,1,2.7500670999997965,['n'],0,left,['9'],2,1.2674275999997917,0.1,0,FastAcc,10,18,Woman,Right,
8,11,1,0.9816563999993377,['n'],1,right,['2'],5,0.6170821999985492,0.2,0,FastAcc,10,18,Woman,Right,
9,11,1,1.8995410999996238,['n'],1,right,['2'],5,0.8006196999995154,0.1,0,FastAcc,10,18,Woman,Right,
10,11,1,0.8826845999992656,['n'],1,right,['1'],6,0.4006247999986954,0.4,0,FastAcc,10,18,Woman,Right,
11,11,1,1.6992781999997533,['c'],1,left,['3'],4,0.933954399999493,0.2,0,FastAcc,10,18,Woman,Right,
12,11,1,0.8990156999989267,['n'],1,right,['1'],6,0.8005379000005632,0.2,0,FastAcc,10,18,Woman,Right,
13,11,1,2.7661662999998953,['n'],1,right,['3'],4,0.8005104000003485,0.4,0,FastAcc,10,18,Woman,Right,
14,11,1,0.8166402999995626,['n'],1,right,['2'],5,0.5170837000005122,0.4,0,FastAcc,10,18,Woman,Right,
15,11,1,0.799551000000065,['n'],1,right,['1'],6,0.6340072999992117,0.4,0,FastAcc,10,18,Woman,Right,
16,11,1,3.033023399999365,['c'],0,right,['8'],3,0.4337319000005664,0.1,0,FastAcc,10,18,Woman,Right,
17,11,1,3.299143799999001,['c'],1,left,['0'],1,0.6840159000003041,0.1,0,FastAcc,10,18,Woman,Right,
18,11,1,1.6496906000011222,['c'],1,left,['3'],4,0.6505560999994486,0.1,0,FastAcc,10,18,Woman,Right,
19,11,1,2.166402700000617,['n'],1,right,['2'],5,0.6672794000005524,0.1,0,FastAcc,10,18,Woman,Right,
20,11,1,1.3333888999986812,['c'],1,left,['3'],4,1.1839412999997876,0.4,0,FastAcc,10,18,Woman,Right,
21,11,1,3.166270699999586,['n'],1,right,['2'],5,1.4339153000000806,0.1,0,FastAcc,10,18,Woman,Right,
22,11,1,1.9830197999999655,['n'],1,right,['9'],2,0.983746500000052,0.2,0,FastAcc,10,18,Woman,Right,
23,11,1,2.482813200000237,['n'],0,left,['0'],1,0.9671416000001045,0.1,0,FastAcc,10,18,Woman,Right,
24,11,1,1.616114300000845,['n'],1,right,['3'],4,0.9503955999989557,0.4,0,FastAcc,10,18,Woman,Right,
25,11,1,1.566056200001185,['c'],1,left,['3'],4,0.9838104999998905,0.2,0,FastAcc,10,18,Woman,Right,
26,11,1,0.9501426999995601,['c'],1,left,['1'],6,0.31716989999949874,0.4,0,FastAcc,10,18,Woman,Right,
27,11,1,1.6845880000000761,['c'],1,left,['2'],5,0.6836703000008129,0.1,0,FastAcc,10,18,Woman,Right,
28,11,1,0.916185600000972,['n'],1,right,['1'],6,0.5506583000005776,0.4,0,FastAcc,10,18,Woman,Right,
29,11,1,2.316465399999288,['c'],1,left,['2'],5,0.6169288000000961,0.1,0,FastAcc,10,18,Woman,Right,
30,11,1,0.8160653999984788,['n'],1,right,['1'],6,0.6672566999986884,0.2,0,FastAcc,10,18,Woman,Right,
31,11,1,1.4829239000009693,['c'],1,left,['2'],5,0.8172221999993781,0.2,0,FastAcc,10,18,Woman,Right,
32,11,1,0.7666976000000432,['c'],1,left,['1'],6,0.5506356000005326,0.4,0,FastAcc,10,18,Woman,Right,
33,11,1,1.13295620000099,['c'],1,left,['1'],6,0.6006106000004365,0.2,0,FastAcc,10,18,Woman,Right,
34,11,1,3.648709400000371,['c'],1,left,['8'],3,0.8838481000002503,0.1,0,FastAcc,10,18,Woman,Right,
35,11,1,0.8831425999997009,['n'],1,right,['2'],5,0.6672915999988618,0.4,0,FastAcc,10,18,Woman,Right,
36,11,1,1.2499274000001606,['c'],0,right,['2'],5,0.6499417000013636,0.1,0,FastAcc,10,18,Woman,Right,
37,11,1,0.8336165000000619,['c'],1,left,['1'],6,0.6170856000007916,0.4,0,FastAcc,10,18,Woman,Right,
38,11,1,0.7663529999990715,['c'],1,left,['1'],6,0.6338548000003357,0.4,0,FastAcc,10,18,Woman,Right,
39,11,1,2.116073499999402,['c'],1,left,['2'],5,0.6504490999996051,0.2,0,FastAcc,10,18,Woman,Right,
40,11,1,2.732564800000546,['n'],1,right,['2'],5,0.5337845000012749,0.1,0,FastAcc,10,18,Woman,Right,
41,11,1,2.6484251000001677,['c'],0,right,['3'],4,0.6502696000006836,0.1,0,FastAcc,10,18,Woman,Right,
42,11,1,0.9660208000004786,['c'],1,left,['3'],4,0.5337913999992452,0.4,0,FastAcc,10,18,Woman,Right,
43,11,1,1.7996911000009277,['n'],1,right,['2'],5,0.6838336000000709,0.2,0,FastAcc,10,18,Woman,Right,
44,11,1,1.8828413000010187,['n'],1,right,['1'],6,0.6505875000002561,0.4,0,FastAcc,10,18,Woman,Right,
45,11,1,2.1825786999997945,['c'],0,right,['2'],5,1.5505428000014945,0.2,0,FastAcc,10,18,Woman,Right,
46,11,1,0.8994937000006757,['c'],1,left,['1'],6,0.6339110999997501,0.4,0,FastAcc,10,18,Woman,Right,
47,11,1,0.882821100000001,['n'],1,right,['3'],4,0.6672152000010101,0.2,0,FastAcc,10,18,Woman,Right,
48,11,1,2.732886600000711,['n'],1,right,['3'],4,1.2505841000001965,0.1,0,FastAcc,10,18,Woman,Right,
49,11,1,1.2997732000003452,['c'],1,left,['2'],5,1.3171447999993688,0.2,0,FastAcc,10,18,Woman,Right,
50,11,1,1.9161813000009715,['c'],1,left,['3'],4,1.5340608000005886,0.2,0,FastAcc,10,18,Woman,Right,
51,11,1,1.8991195999988122,['n'],1,right,['2'],5,0.8010973000000376,0.2,0,FastAcc,10,18,Woman,Right,
52,11,1,2.68305220000002,['n'],1,right,['9'],2,1.2172694000000774,0.1,0,FastAcc,10,18,Woman,Right,
53,11,1,1.815916699999434,['n'],1,right,['0'],1,0.500503999999637,0.2,0,FastAcc,10,18,Woman,Right,
54,11,1,0.7997918000000936,['c'],1,left,['2'],5,1.1005096000008052,0.2,0,FastAcc,10,18,Woman,Right,
55,11,1,1.5332086000016716,['c'],1,left,['2'],5,1.2010119999995368,0.4,0,FastAcc,10,18,Woman,Right,
56,11,1,3.3663905000012164,['n'],1,right,['0'],1,0.8673647999985405,0.1,0,FastAcc,10,18,Woman,Right,
57,11,1,1.3832173999999213,['c'],1,left,['2'],5,0.9505217000005359,0.2,0,FastAcc,10,18,Woman,Right,
58,11,1,1.6833802000001015,['c'],1,left,['9'],2,1.3337560999989364,0.2,0,FastAcc,10,18,Woman,Right,
59,11,1,1.3336159999998927,['n'],1,right,['1'],6,0.9003847000003589,0.2,0,FastAcc,10,18,Woman,Right,
0,12,1,1.432595800000854,['n'],1,right,['3'],4,0.4338662000009208,0.2,0,FastFast,10,18,Woman,Right,
1,12,1,1.7829459000004135,['n'],1,right,['2'],5,0.5670890999990661,0.4,0,FastFast,10,18,Woman,Right,
2,12,1,0.8667423999995663,['c'],1,left,['2'],5,0.36742990000129794,0.1,0,FastFast,10,18,Woman,Right,
3,12,1,0.6496666999992158,['c'],1,left,['1'],6,0.2672606000014639,0.4,0,FastFast,10,18,Woman,Right,
4,12,1,1.4490841000006185,['n'],1,right,['8'],3,0.4174626999993052,0.2,0,FastFast,10,18,Woman,Right,
5,12,1,1.0329784999994445,['c'],1,left,['3'],4,0.3004884000001766,0.1,0,FastFast,10,18,Woman,Right,
6,12,1,0.7495268999991822,['n'],1,right,['3'],4,0.30049919999873964,0.2,0,FastFast,10,18,Woman,Right,
7,12,1,0.7826624999997875,['n'],1,right,['2'],5,0.300416199999745,0.4,0,FastFast,10,18,Woman,Right,
8,12,1,2.133799799999906,['c'],0,right,['8'],3,0.5338252000001376,0.2,0,FastFast,10,18,Woman,Right,
9,12,1,1.0829059000006964,['n'],1,right,['3'],4,0.40048079999905895,0.1,0,FastFast,10,18,Woman,Right,
10,12,1,4.349546299999929,['n'],1,right,['8'],3,0.8840533999991749,0.4,0,FastFast,10,18,Woman,Right,
11,12,1,0.6664663999999902,['c'],1,left,['2'],5,0.3005278000000544,0.2,0,FastFast,10,18,Woman,Right,
12,12,1,0.6330440000001545,['n'],1,right,['1'],6,0.2505094000007375,0.2,0,FastFast,10,18,Woman,Right,
13,12,1,2.116116900000634,['n'],1,right,['0'],1,0.18379880000065896,0.1,0,FastFast,10,18,Woman,Right,
14,12,1,1.8830562999992253,['n'],1,right,['3'],4,0.4004961999999068,0.1,0,FastFast,10,18,Woman,Right,
15,12,1,1.58310259999962,['n'],1,right,['1'],6,0.4670931999989989,0.4,0,FastFast,10,18,Woman,Right,
16,12,1,3.0329984999989392,['n'],1,right,['9'],2,0.9839652999999089,0.2,0,FastFast,10,18,Woman,Right,
17,12,1,0.8496052999998938,['n'],1,right,['2'],5,0.3170135999989725,0.4,0,FastFast,10,18,Woman,Right,
18,12,1,3.466076600001543,['c'],0,right,['8'],3,0.9341174000001047,0.1,0,FastFast,10,18,Woman,Right,
19,12,1,1.3658455999993748,['n'],1,right,['2'],5,0.4839080000001559,0.2,0,FastFast,10,18,Woman,Right,
20,12,1,0.8157640000008541,['n'],1,right,['3'],4,0.5338998000006541,0.4,0,FastFast,10,18,Woman,Right,
21,12,1,1.4829887000014423,['c'],1,left,['2'],5,0.6838623000003281,0.2,0,FastFast,10,18,Woman,Right,
22,12,1,1.1330983999996533,['c'],1,left,['1'],6,0.7505392000002757,0.2,0,FastFast,10,18,Woman,Right,
23,12,1,3.0996310000009544,['c'],1,left,['8'],3,0.8502027999984421,0.1,0,FastFast,10,18,Woman,Right,
24,12,1,1.2162576999999146,['c'],1,left,['3'],4,0.8506306999988738,0.1,0,FastFast,10,18,Woman,Right,
25,12,1,1.1494309999998222,['c'],1,left,['2'],5,0.6004997999989428,0.2,0,FastFast,10,18,Woman,Right,
26,12,1,2.982808400000067,['n'],1,right,['9'],2,0.4504147000006924,0.1,0,FastFast,10,18,Woman,Right,
27,12,1,2.7826744000012695,['c'],0,right,['0'],1,0.7505006000010326,0.2,0,FastFast,10,18,Woman,Right,
28,12,1,0.7164475999998103,['c'],1,left,['1'],6,0.33385920000000624,0.4,0,FastFast,10,18,Woman,Right,
29,12,1,1.6829401000013604,['c'],1,left,['2'],5,0.2672225999995135,0.2,0,FastFast,10,18,Woman,Right,
30,12,1,0.8995278000002145,['n'],1,right,['1'],6,0.25049460000082036,0.2,0,FastFast,10,18,Woman,Right,
31,12,1,0.7164185999990877,['n'],1,right,['1'],6,0.23365170000033686,0.4,0,FastFast,10,18,Woman,Right,
32,12,1,1.8836860999999772,['n'],1,right,['3'],4,0.3838685999999143,0.1,0,FastFast,10,18,Woman,Right,
33,12,1,0.7830730999994557,['c'],1,left,['1'],6,0.2671485999999277,0.2,0,FastFast,10,18,Woman,Right,
34,12,1,2.616066900000078,['c'],0,right,['9'],2,1.0838722999997117,0.1,0,FastFast,10,18,Woman,Right,
35,12,1,0.7326445999988209,['n'],1,right,['1'],6,0.2506898999999976,0.4,0,FastFast,10,18,Woman,Right,
36,12,1,1.349479499998779,['n'],0,left,['1'],6,0.2671575999993365,0.4,0,FastFast,10,18,Woman,Right,
37,12,1,2.966463400000066,['c'],1,left,['9'],2,0.3840593999993871,0.1,0,FastFast,10,18,Woman,Right,
38,12,1,0.6327522000010504,['c'],1,left,['1'],6,0.25042279999979655,0.4,0,FastFast,10,18,Woman,Right,
39,12,1,2.2663788000008935,['c'],1,left,['9'],2,0.8670727000007901,0.2,0,FastFast,10,18,Woman,Right,
40,12,1,0.6829056000005949,['c'],1,left,['1'],6,0.23380200000065088,0.4,0,FastFast,10,18,Woman,Right,
41,12,1,0.6993373000004794,['c'],1,left,['9'],2,0.5172148000001471,0.1,0,FastFast,10,18,Woman,Right,
42,12,1,0.6495728000008967,['c'],1,left,['1'],6,0.2506336000005831,0.1,0,FastFast,10,18,Woman,Right,
43,12,1,0.8161375999989104,['n'],1,right,['1'],6,0.2672452999995585,0.4,0,FastFast,10,18,Woman,Right,
44,12,1,0.5662503999992623,['c'],1,left,['1'],6,0.283885900000314,0.4,0,FastFast,10,18,Woman,Right,
45,12,1,1.7660334000011062,['c'],1,left,['8'],3,0.4839744000000792,0.2,0,FastFast,10,18,Woman,Right,
46,12,1,0.8330268999998225,['n'],1,right,['3'],4,0.3338972000001377,0.2,0,FastFast,10,18,Woman,Right,
47,12,1,0.5997384000002057,['c'],1,left,['1'],6,0.2504881999993813,0.4,0,FastFast,10,18,Woman,Right,
48,12,1,1.3829375999994227,['c'],1,left,['9'],2,0.43372960000124294,0.1,0,FastFast,10,18,Woman,Right,
49,12,1,0.9001866999988124,['n'],1,right,['2'],5,0.40036700000018755,0.1,0,FastFast,10,18,Woman,Right,
50,12,1,0.6841062999992573,['n'],1,right,['1'],6,0.21694860000025074,0.4,0,FastFast,10,18,Woman,Right,
51,12,1,2.51609770000141,['c'],0,right,['9'],2,0.4006475000005594,0.2,0,FastFast,10,18,Woman,Right,
52,12,1,0.6335446000011871,['c'],1,left,['1'],6,0.2671831999996357,0.1,0,FastFast,10,18,Woman,Right,
53,12,1,0.7331255999997666,['n'],1,right,['1'],6,0.25054050000107964,0.4,0,FastFast,10,18,Woman,Right,
54,12,1,0.6496540999996796,['c'],1,left,['2'],5,0.21716770000057295,0.4,0,FastFast,10,18,Woman,Right,
55,12,1,0.6987009000004036,['c'],1,left,['2'],5,0.23392389999935403,0.4,0,FastFast,10,18,Woman,Right,
56,12,1,0.516725999999835,['c'],1,left,['1'],6,0.4672227000010025,0.2,0,FastFast,10,18,Woman,Right,
57,12,1,0.7663415999995777,['c'],1,left,['3'],4,0.2507614999994985,0.1,0,FastFast,10,18,Woman,Right,
58,12,1,0.732814300001337,['c'],1,left,['3'],4,0.33383709999907296,0.1,0,FastFast,10,18,Woman,Right,
59,12,1,3.082861500000945,['c'],1,left,['9'],2,0.2504669999998441,0.1,0,FastFast,10,18,Woman,Right,
0,13,1,2.5830647999991925,['c'],1,left,['3'],4,0.7172623000005842,0.2,0,AccFast,10,18,Woman,Right,
1,13,1,0.84941230000004,['c'],1,left,['3'],4,0.5505362000003515,0.4,0,AccFast,10,18,Woman,Right,
2,13,1,1.0493521000007604,['c'],1,left,['2'],5,0.2671778000003542,0.2,0,AccFast,10,18,Woman,Right,
3,13,1,0.5998562000004313,['c'],1,left,['1'],6,0.33373890000075335,0.4,0,AccFast,10,18,Woman,Right,
4,13,1,0.6994059000007837,['n'],1,right,['3'],4,0.267182599998705,0.2,0,AccFast,10,18,Woman,Right,
5,13,1,1.5660225000010541,['n'],1,right,['8'],3,0.6839240999997855,0.4,0,AccFast,10,18,Woman,Right,
6,13,1,0.7163806000007753,['c'],1,left,['1'],6,0.21717720000015106,0.4,0,AccFast,10,18,Woman,Right,
7,13,1,1.5501236999989487,['c'],1,left,['2'],5,0.4672809000003326,0.1,0,AccFast,10,18,Woman,Right,
8,13,1,0.8000659000008454,['c'],1,left,['1'],6,0.25056489999951737,0.4,0,AccFast,10,18,Woman,Right,
9,13,1,3.1997873000000254,['c'],1,left,['9'],2,0.433907900000122,0.1,0,AccFast,10,18,Woman,Right,
10,13,1,1.1828172000004997,['c'],1,left,['9'],2,0.3339775999993435,0.1,0,AccFast,10,18,Woman,Right,
11,13,1,0.7828985000014654,['c'],1,left,['2'],5,0.41717199999948207,0.2,0,AccFast,10,18,Woman,Right,
12,13,1,1.0822549999993498,['c'],0,right,['0'],1,0.4004821999988053,0.1,0,AccFast,10,18,Woman,Right,
13,13,1,2.832995099999607,['n'],1,right,['9'],2,0.5840016000001924,0.1,0,AccFast,10,18,Woman,Right,
14,13,1,0.63298659999964,['c'],1,left,['1'],6,0.30065749999994296,0.2,0,AccFast,10,18,Woman,Right,
15,13,1,0.7493347999989055,['c'],1,left,['1'],6,0.2837491999998747,0.4,0,AccFast,10,18,Woman,Right,
16,13,1,1.0661498999998003,['n'],1,right,['3'],4,0.30055019999963406,0.2,0,AccFast,10,18,Woman,Right,
17,13,1,0.7160655000006955,['c'],1,left,['1'],6,0.2838135999991209,0.4,0,AccFast,10,18,Woman,Right,
18,13,1,2.9333998000001884,['n'],0,left,['9'],2,0.3671137000001181,0.1,0,AccFast,10,18,Woman,Right,
19,13,1,0.7660104999995383,['n'],1,right,['2'],5,0.4670192000012321,0.1,0,AccFast,10,18,Woman,Right,
20,13,1,0.8327986000003875,['n'],1,right,['2'],5,0.3670665999998164,0.4,0,AccFast,10,18,Woman,Right,
21,13,1,1.7996392000004562,['c'],1,left,['9'],2,0.3004354999993666,0.1,0,AccFast,10,18,Woman,Right,
22,13,1,0.6994318999986717,['n'],1,right,['1'],6,0.26706800000101794,0.4,0,AccFast,10,18,Woman,Right,
23,13,1,0.749300100000255,['c'],1,left,['8'],3,0.3842332999993232,0.1,0,AccFast,10,18,Woman,Right,
24,13,1,2.9499659999983123,['c'],1,left,['9'],2,0.23383500000090862,0.2,0,AccFast,10,18,Woman,Right,
25,13,1,0.666100299999016,['n'],1,right,['2'],5,0.2674176999989868,0.1,0,AccFast,10,18,Woman,Right,
26,13,1,2.9332572000002983,['c'],1,left,['0'],1,0.26733039999999164,0.1,0,AccFast,10,18,Woman,Right,
27,13,1,1.9170458999997209,['n'],1,right,['3'],4,0.38354919999983395,0.2,0,AccFast,10,18,Woman,Right,
28,13,1,0.7660345999993297,['n'],1,right,['1'],6,0.283888099998876,0.4,0,AccFast,10,18,Woman,Right,
29,13,1,0.6660031000010349,['c'],1,left,['9'],2,0.31711470000118425,0.4,0,AccFast,10,18,Woman,Right,
30,13,1,0.6663313000008202,['c'],1,left,['1'],6,0.3002981000008731,0.4,0,AccFast,10,18,Woman,Right,
31,13,1,4.11637299999893,['c'],0,right,['0'],1,0.5339449999992212,0.1,0,AccFast,10,18,Woman,Right,
32,13,1,1.8326855999985128,['n'],1,right,['3'],4,0.4172472000009293,0.1,0,AccFast,10,18,Woman,Right,
33,13,1,1.6827460000004066,['n'],1,right,['2'],5,1.0673179000004893,0.2,0,AccFast,10,18,Woman,Right,
34,13,1,1.266166900000826,['n'],1,right,['1'],6,1.3171108000005916,0.2,0,AccFast,10,18,Woman,Right,
35,13,1,2.5000286000013148,['n'],1,right,['8'],3,0.7504635999994207,0.2,0,AccFast,10,18,Woman,Right,
36,13,1,2.3328369000009843,['n'],1,right,['3'],4,0.5336600999999064,0.2,0,AccFast,10,18,Woman,Right,
37,13,1,0.7494588000008662,['n'],1,right,['2'],5,0.21736369999962335,0.4,0,AccFast,10,18,Woman,Right,
38,13,1,0.7503906999991159,['c'],1,left,['9'],2,0.30048530000021856,0.2,0,AccFast,10,18,Woman,Right,
39,13,1,0.5998669000000518,['c'],1,left,['1'],6,0.2505332000000635,0.4,0,AccFast,10,18,Woman,Right,
40,13,1,1.665884799998821,['c'],1,left,['2'],5,0.33388430000013614,0.2,0,AccFast,10,18,Woman,Right,
41,13,1,0.6662744999994175,['n'],1,right,['2'],5,0.31714869999996154,0.2,0,AccFast,10,18,Woman,Right,
42,13,1,2.0494753000002675,['n'],0,left,['9'],2,0.3837128000013763,0.1,0,AccFast,10,18,Woman,Right,
43,13,1,0.8334445000000414,['n'],1,right,['1'],6,0.25047799999993003,0.4,0,AccFast,10,18,Woman,Right,
44,13,1,0.7164878000003227,['n'],1,right,['2'],5,0.2505978999997751,0.4,0,AccFast,10,18,Woman,Right,
45,13,1,0.6327866000010545,['c'],1,left,['1'],6,0.21713920000001963,0.4,0,AccFast,10,18,Woman,Right,
46,13,1,0.616122199999154,['c'],1,left,['1'],6,0.23378589999992982,0.4,0,AccFast,10,18,Woman,Right,
47,13,1,0.683775000001333,['n'],1,right,['1'],6,0.2666812999996182,0.4,0,AccFast,10,18,Woman,Right,
48,13,1,0.54983859999993,['c'],0,right,['2'],5,0.26716620000115654,0.1,0,AccFast,10,18,Woman,Right,
49,13,1,0.7663967999997112,['n'],1,right,['3'],4,0.33382610000080604,0.2,0,AccFast,10,18,Woman,Right,
50,13,1,2.9326949000005698,['c'],0,right,['8'],3,0.2168523999989702,0.1,0,AccFast,10,18,Woman,Right,
51,13,1,1.3163507999997819,['c'],1,left,['3'],4,0.30031140000028245,0.1,0,AccFast,10,18,Woman,Right,
52,13,1,2.6493895999992674,['c'],1,left,['9'],2,0.6004990000001271,0.1,0,AccFast,10,18,Woman,Right,
53,13,1,1.332974799999647,['n'],1,right,['9'],2,0.8007448000007571,0.2,0,AccFast,10,18,Woman,Right,
54,13,1,0.69952960000046,['c'],1,left,['1'],6,0.20053749999897263,0.2,0,AccFast,10,18,Woman,Right,
55,13,1,0.7325542999988102,['c'],0,right,['0'],1,1.133974300000773,0.4,0,AccFast,10,18,Woman,Right,
56,13,1,1.6327556000014738,['c'],0,right,['3'],4,0.8011363999994501,0.2,0,AccFast,10,18,Woman,Right,
57,13,1,0.9997512999998435,['c'],1,left,['2'],5,0.6338663999995333,0.2,0,AccFast,10,18,Woman,Right,
58,13,1,1.4824886999995215,['n'],1,right,['3'],4,0.4836259000003338,0.1,0,AccFast,10,18,Woman,Right,
59,13,1,1.2820718999992096,['n'],1,right,['2'],5,0.41715369999838003,0.1,0,AccFast,10,18,Woman,Right,
0,14,1,1.515954700000293,['c'],1,left,['2'],5,0.8170726999996987,0.2,0,AccAcc,10,18,Woman,Right,
1,14,1,0.6990989999994781,['n'],1,right,['2'],5,0.8171915999992052,0.4,0,AccAcc,10,18,Woman,Right,
2,14,1,0.7506610000000364,['c'],1,left,['1'],6,0.3838190999995277,0.4,0,AccAcc,10,18,Woman,Right,
3,14,1,1.0331406999994215,['c'],1,left,['3'],4,0.46706409999933385,0.2,0,AccAcc,10,18,Woman,Right,
4,14,1,0.7993698999998742,['n'],1,right,['3'],4,0.4671151999991707,0.2,0,AccAcc,10,18,Woman,Right,
5,14,1,1.2328830999995262,['c'],1,left,['1'],6,0.3338893000000098,0.4,0,AccAcc,10,18,Woman,Right,
6,14,1,0.6997025999990001,['n'],1,right,['1'],6,0.3505092999985209,0.4,0,AccAcc,10,18,Woman,Right,
7,14,1,2.866601500001707,['c'],1,left,['9'],2,0.9504973000002792,0.1,0,AccAcc,10,18,Woman,Right,
8,14,1,1.6155887999993865,['n'],1,right,['2'],5,0.6337985999998637,0.2,0,AccAcc,10,18,Woman,Right,
9,14,1,1.815960099998847,['c'],1,left,['3'],4,0.483810399999129,0.1,0,AccAcc,10,18,Woman,Right,
10,14,1,0.8159144000001106,['c'],1,left,['3'],4,0.4339165999990655,0.4,0,AccAcc,10,18,Woman,Right,
11,14,1,1.54930769999919,['n'],1,right,['8'],3,0.5344715999999607,0.2,0,AccAcc,10,18,Woman,Right,
12,14,1,0.7494530999993003,['c'],1,left,['2'],5,0.5504175000005489,0.4,0,AccAcc,10,18,Woman,Right,
13,14,1,1.1163822999988042,['n'],1,right,['8'],3,0.5004335999983596,0.2,0,AccAcc,10,18,Woman,Right,
14,14,1,2.4162679000000935,['c'],0,right,['9'],2,0.7838332999999693,0.4,0,AccAcc,10,18,Woman,Right,
15,14,1,2.4827745000002324,['n'],1,right,['3'],4,1.1337730000013835,0.1,0,AccAcc,10,18,Woman,Right,
16,14,1,3.882984199999555,['n'],1,right,['9'],2,0.68393499999911,0.2,0,AccAcc,10,18,Woman,Right,
17,14,1,1.8328614000001835,['n'],1,right,['0'],1,0.21725900000092224,0.1,0,AccAcc,10,18,Woman,Right,
18,14,1,2.866460900000675,['n'],1,right,['9'],2,0.8831522000000405,0.1,0,AccAcc,10,18,Woman,Right,
19,14,1,0.6828005000006669,['c'],1,left,['2'],5,0.36720599999898695,0.4,0,AccAcc,10,18,Woman,Right,
20,14,1,2.4832846999997855,['c'],1,left,['3'],4,1.2339076999996905,0.2,0,AccAcc,10,18,Woman,Right,
21,14,1,3.416357699999935,['c'],1,left,['3'],4,0.65039859999888,0.1,0,AccAcc,10,18,Woman,Right,
22,14,1,2.4995101999993494,['c'],1,left,['1'],6,0.333723400000963,0.1,0,AccAcc,10,18,Woman,Right,
23,14,1,2.066048900000169,['c'],1,left,['1'],6,0.36708420000104525,0.2,0,AccAcc,10,18,Woman,Right,
24,14,1,1.4318664000002173,['c'],1,left,['2'],5,0.3338488999997935,0.2,0,AccAcc,10,18,Woman,Right,
25,14,1,1.315890899999431,['n'],1,right,['9'],2,0.3172940999993443,0.2,0,AccAcc,10,18,Woman,Right,
26,14,1,0.9995842000007542,['c'],0,right,['2'],5,0.41706580000027316,0.1,0,AccAcc,10,18,Woman,Right,
27,14,1,4.632310799999686,['c'],0,right,['9'],2,0.9173644000002241,0.1,0,AccAcc,10,18,Woman,Right,
28,14,1,1.1160088999986328,['c'],1,left,['3'],4,0.6005411999994976,0.1,0,AccAcc,10,18,Woman,Right,
29,14,1,0.8162831999998161,['c'],1,left,['3'],4,0.4339780999998766,0.2,0,AccAcc,10,18,Woman,Right,
30,14,1,0.7998869000002742,['c'],1,left,['2'],5,0.3004841999991186,0.2,0,AccAcc,10,18,Woman,Right,
31,14,1,1.0495092999990447,['c'],1,left,['1'],6,0.36725660000047355,0.2,0,AccAcc,10,18,Woman,Right,
32,14,1,0.782986099999107,['c'],1,left,['1'],6,0.25048810000043886,0.4,0,AccAcc,10,18,Woman,Right,
33,14,1,1.3496002000010776,['n'],1,right,['9'],2,0.40058639999915613,0.2,0,AccAcc,10,18,Woman,Right,
34,14,1,2.4494902000005823,['c'],1,left,['9'],2,0.48390029999973194,0.1,0,AccAcc,10,18,Woman,Right,
35,14,1,1.9159538999992947,['c'],0,right,['3'],4,0.4174254999998084,0.2,0,AccAcc,10,18,Woman,Right,
36,14,1,2.8827375000000757,['n'],1,right,['8'],3,0.6674781000001531,0.2,0,AccAcc,10,18,Woman,Right,
37,14,1,0.7162072000010085,['c'],1,left,['3'],4,0.38315139999940584,0.1,0,AccAcc,10,18,Woman,Right,
38,14,1,2.132825900000171,['n'],1,right,['8'],3,0.4174605000007432,0.1,0,AccAcc,10,18,Woman,Right,
39,14,1,0.8497231000001193,['n'],1,right,['8'],3,0.3673272999985784,0.4,0,AccAcc,10,18,Woman,Right,
40,14,1,1.382610200000272,['c'],1,left,['3'],4,0.36717069999940577,0.4,0,AccAcc,10,18,Woman,Right,
41,14,1,0.7824834999992163,['n'],1,right,['8'],3,0.3839922999995906,0.2,0,AccAcc,10,18,Woman,Right,
42,14,1,1.4828203999986727,['n'],1,right,['8'],3,0.30059869999968214,0.4,0,AccAcc,10,18,Woman,Right,
43,14,1,0.7825178000002779,['c'],1,left,['3'],4,0.30063309999968624,0.4,0,AccAcc,10,18,Woman,Right,
44,14,1,2.3329964999993535,['n'],1,right,['8'],3,0.48390440000002855,0.4,0,AccAcc,10,18,Woman,Right,
45,14,1,0.6488315999995393,['c'],1,left,['3'],4,0.2839375999992626,0.2,0,AccAcc,10,18,Woman,Right,
46,14,1,0.8330004999988887,['n'],1,right,['8'],3,0.30057940000006056,0.4,0,AccAcc,10,18,Woman,Right,
47,14,1,0.633065500000157,['c'],1,left,['3'],4,0.26727500000015425,0.4,0,AccAcc,10,18,Woman,Right,
48,14,1,3.0824245999992854,['n'],1,right,['9'],2,0.2837557000002562,0.1,0,AccAcc,10,18,Woman,Right,
49,14,1,0.6662129999986064,['c'],1,left,['1'],6,0.2505782000007457,0.4,0,AccAcc,10,18,Woman,Right,
50,14,1,0.8325733000001492,['n'],1,right,['0'],1,0.5172045999988768,0.1,0,AccAcc,10,18,Woman,Right,
51,14,1,0.8991602999994939,['n'],1,right,['1'],6,0.4172851000002993,0.4,0,AccAcc,10,18,Woman,Right,
52,14,1,0.682999499998914,['c'],1,left,['1'],6,0.2844072000007145,0.1,0,AccAcc,10,18,Woman,Right,
53,14,1,2.7492920999993657,['c'],1,left,['3'],4,0.5836753000003227,0.1,0,AccAcc,10,18,Woman,Right,
54,14,1,1.016084700000647,['n'],1,right,['1'],6,0.35056489999988116,0.4,0,AccAcc,10,18,Woman,Right,
55,14,1,1.8496453999996447,['n'],1,right,['2'],5,0.25058589999935066,0.4,0,AccAcc,10,18,Woman,Right,
56,14,1,2.967059699998572,['c'],0,right,['8'],3,0.9672197999989294,0.1,0,AccAcc,10,18,Woman,Right,
57,14,1,1.216338000000178,['n'],1,right,['2'],5,0.7340304000008473,0.2,0,AccAcc,10,18,Woman,Right,
58,14,1,3.0994860000009794,['c'],1,left,['9'],2,0.6999911000002612,0.1,0,AccAcc,10,18,Woman,Right,
59,14,1,2.165451300001223,['c'],1,left,['0'],1,0.38383340000109456,0.1,0,AccAcc,10,18,Woman,Right,
0,15,1,1.9662331999988965,['c'],1,left,['1'],6,0.35058500000013737,0.2,0,FastAcc,10,18,Woman,Right,
1,15,1,1.6990675999986706,['c'],0,right,['1'],6,0.3004302000008465,0.2,0,FastAcc,10,18,Woman,Right,
2,15,1,1.7658667000014248,['n'],0,left,['8'],3,0.4172350999997434,0.1,0,FastAcc,10,18,Woman,Right,
3,15,1,1.5826567000003706,['n'],1,right,['3'],4,0.4838188000012451,0.1,0,FastAcc,10,18,Woman,Right,
4,15,1,2.065991600000416,['n'],0,left,['8'],3,0.5171281000002637,0.1,0,FastAcc,10,18,Woman,Right,
5,15,1,0.8000933000002988,['c'],1,left,['2'],5,0.5005948999987595,0.4,0,FastAcc,10,18,Woman,Right,
6,15,1,2.0832074000009015,['n'],1,right,['8'],3,0.7171729000001505,0.1,0,FastAcc,10,18,Woman,Right,
7,15,1,1.299859299999298,['c'],1,left,['2'],5,0.5335871999996016,0.2,0,FastAcc,10,18,Woman,Right,
8,15,1,1.2499659000004613,['c'],1,left,['3'],4,0.4673253000000841,0.1,0,FastAcc,10,18,Woman,Right,
9,15,1,0.8656935999988491,['n'],1,right,['9'],2,0.5671046000006754,0.2,0,FastAcc,10,18,Woman,Right,
10,15,1,0.6495300999995379,['c'],1,left,['1'],6,0.3505460000014864,0.4,0,FastAcc,10,18,Woman,Right,
11,15,1,0.8662731999993412,['n'],1,right,['3'],4,0.433944700000211,0.2,0,FastAcc,10,18,Woman,Right,
12,15,1,0.6664557000003697,['c'],1,left,['2'],5,0.33416790000046603,0.4,0,FastAcc,10,18,Woman,Right,
13,15,1,0.7834483000006003,['c'],1,left,['1'],6,0.30052270000123826,0.4,0,FastAcc,10,18,Woman,Right,
14,15,1,0.8500462000010884,['c'],1,left,['2'],5,0.3838529999993625,0.2,0,FastAcc,10,18,Woman,Right,
15,15,1,0.8325124000002688,['n'],1,right,['3'],4,0.7503618999999162,0.4,0,FastAcc,10,18,Woman,Right,
16,15,1,0.8163308000002871,['n'],1,right,['2'],5,0.383895200000552,0.1,0,FastAcc,10,18,Woman,Right,
17,15,1,0.6998868000009679,['c'],1,left,['1'],6,0.3172491000004811,0.4,0,FastAcc,10,18,Woman,Right,
18,15,1,0.7328846999989764,['n'],1,right,['3'],4,0.6171546999994462,0.2,0,FastAcc,10,18,Woman,Right,
19,15,1,0.7495736000000761,['c'],1,left,['1'],6,0.3505093999992823,0.2,0,FastAcc,10,18,Woman,Right,
20,15,1,0.7156095999998797,['c'],0,right,['2'],5,0.4171275999997306,0.4,0,FastAcc,10,18,Woman,Right,
21,15,1,0.5994913000013185,['c'],1,left,['1'],6,0.3338864999986981,0.4,0,FastAcc,10,18,Woman,Right,
22,15,1,2.0157564000001003,['n'],0,left,['3'],4,0.6171522000004188,0.1,0,FastAcc,10,18,Woman,Right,
23,15,1,0.6153314000002865,['c'],1,left,['2'],5,0.2671599999994214,0.2,0,FastAcc,10,18,Woman,Right,
24,15,1,0.6162883999986661,['n'],1,right,['2'],5,0.4166739000011148,0.4,0,FastAcc,10,18,Woman,Right,
25,15,1,1.8322074000006978,['n'],1,right,['9'],2,0.4173625000003085,0.1,0,FastAcc,10,18,Woman,Right,
26,15,1,0.8154930999990029,['n'],1,right,['3'],4,1.1508778999996139,0.4,0,FastAcc,10,18,Woman,Right,
27,15,1,2.449900899999193,['c'],1,left,['3'],4,1.1010306000007404,0.1,0,FastAcc,10,18,Woman,Right,
28,15,1,1.9166932000007364,['n'],1,right,['3'],4,0.48391330000049493,0.2,0,FastAcc,10,18,Woman,Right,
29,15,1,2.4500446999991254,['n'],1,right,['9'],2,0.433891799999401,0.1,0,FastAcc,10,18,Woman,Right,
30,15,1,1.0330782000000909,['c'],1,left,['3'],4,0.3839378000011493,0.1,0,FastAcc,10,18,Woman,Right,
31,15,1,1.749495099998967,['n'],1,right,['0'],1,0.5840085999989242,0.2,0,FastAcc,10,18,Woman,Right,
32,15,1,1.8328922000000603,['n'],1,right,['3'],4,0.517031000001225,0.4,0,FastAcc,10,18,Woman,Right,
33,15,1,1.7821551999986696,['n'],1,right,['8'],3,0.983974799999487,0.1,0,FastAcc,10,18,Woman,Right,
34,15,1,1.3993922999998176,['n'],0,left,['8'],3,0.783914999999979,0.1,0,FastAcc,10,18,Woman,Right,
35,15,1,0.7156563999997161,['n'],1,right,['2'],5,0.3005663999992976,0.4,0,FastAcc,10,18,Woman,Right,
36,15,1,1.3497592999992776,['n'],1,right,['2'],5,0.3505246000004263,0.2,0,FastAcc,10,18,Woman,Right,
37,15,1,1.6495512999990751,['c'],0,right,['9'],2,0.33380809999835037,0.2,0,FastAcc,10,18,Woman,Right,
38,15,1,1.3156397999991896,['c'],1,left,['9'],2,0.36719470000025467,0.2,0,FastAcc,10,18,Woman,Right,
39,15,1,0.8830039000004035,['n'],1,right,['2'],5,0.3171426999997493,0.1,0,FastAcc,10,18,Woman,Right,
40,15,1,1.3161357000008138,['n'],0,left,['0'],1,1.1006283000006079,0.2,0,FastAcc,10,18,Woman,Right,
41,15,1,1.5997353000002477,['n'],1,right,['3'],4,0.4836195999996562,0.2,0,FastAcc,10,18,Woman,Right,
42,15,1,0.8328371000006882,['c'],1,left,['1'],6,0.23385860000053071,0.4,0,FastAcc,10,18,Woman,Right,
43,15,1,1.9822209000012663,['n'],0,left,['3'],4,0.8839260999993712,0.1,0,FastAcc,10,18,Woman,Right,
44,15,1,2.632869799999753,['c'],1,left,['8'],3,1.0005146000003151,0.1,0,FastAcc,10,18,Woman,Right,
45,15,1,0.8155828999988444,['n'],1,right,['1'],6,0.4172740999983944,0.2,0,FastAcc,10,18,Woman,Right,
46,15,1,1.2160636999997223,['n'],1,right,['2'],5,1.4507561000009446,0.4,0,FastAcc,10,18,Woman,Right,
47,15,1,2.917012899999463,['c'],1,left,['0'],1,0.8668691000002582,0.1,0,FastAcc,10,18,Woman,Right,
48,15,1,1.1831471000004967,['n'],1,right,['1'],6,0.31724580000081914,0.2,0,FastAcc,10,18,Woman,Right,
49,15,1,0.8496904000003269,['c'],1,left,['1'],6,0.25047950000043784,0.1,0,FastAcc,10,18,Woman,Right,
50,15,1,1.1663559999997233,['c'],1,left,['2'],5,0.23365499999999884,0.2,0,FastAcc,10,18,Woman,Right,
51,15,1,0.6156159000001935,['c'],1,left,['1'],6,0.2671675999990839,0.4,0,FastAcc,10,18,Woman,Right,
52,15,1,1.066291099999944,['n'],0,left,['8'],3,0.3504193999997369,0.1,0,FastAcc,10,18,Woman,Right,
53,15,1,0.76652169999943,['n'],1,right,['3'],4,0.2504566000006889,0.4,0,FastAcc,10,18,Woman,Right,
54,15,1,0.8000546000002942,['c'],1,left,['1'],6,0.2004629000002751,0.4,0,FastAcc,10,18,Woman,Right,
55,15,1,1.7489328999999998,['n'],1,right,['2'],5,0.4004294000005757,0.2,0,FastAcc,10,18,Woman,Right,
56,15,1,0.7493765999988682,['n'],1,right,['1'],6,0.23391580000134127,0.4,0,FastAcc,10,18,Woman,Right,
57,15,1,0.7662701999997807,['n'],1,right,['1'],6,0.20054379999965022,0.4,0,FastAcc,10,18,Woman,Right,
58,15,1,0.7323254999992059,['n'],1,right,['1'],6,0.2836538000010478,0.4,0,FastAcc,10,18,Woman,Right,
59,15,1,0.6327576000003319,['c'],1,left,['2'],5,0.25043949999962933,0.1,0,FastAcc,10,18,Woman,Right,
