withinblocktrial,block,block_repetition,rt,resp,cor,cresp,conf_press,cj,rtconf,coherence,slow_trial,manipulation,sub,age,gender,handedness,
0,1,1,1.6334715999992113,['c'],1,left,none,-99,-99,0.5,0,none,11,18,Woman,Right,
1,1,1,1.766685900000084,['c'],1,left,none,-99,-99,0.5,0,none,11,18,Woman,Right,
2,1,1,2.0495358999996824,['n'],0,left,none,-99,-99,0.5,0,none,11,18,Woman,Right,
3,1,1,0.866983099999743,['n'],1,right,none,-99,-99,0.5,0,none,11,18,Woman,Right,
4,1,1,0.9326838999995744,['c'],1,left,none,-99,-99,0.5,0,none,11,18,Woman,Right,
5,1,1,0.900070799999412,['c'],1,left,none,-99,-99,0.5,0,none,11,18,Woman,Right,
6,1,1,1.1156370000007882,['c'],1,left,none,-99,-99,0.5,0,none,11,18,Woman,Right,
7,1,1,0.6671295999994982,['n'],1,right,none,-99,-99,0.5,0,none,11,18,Woman,Right,
8,1,1,0.7155972999998994,['c'],1,left,none,-99,-99,0.5,0,none,11,18,Woman,Right,
9,1,1,0.9495515999997224,['c'],1,left,none,-99,-99,0.5,0,none,11,18,Woman,Right,
10,1,1,0.5159274000006917,['n'],1,right,none,-99,-99,0.5,0,none,11,18,Woman,Right,
11,1,1,1.133394199999202,['n'],1,right,none,-99,-99,0.5,0,none,11,18,Woman,Right,
12,1,1,0.5494693999999072,['c'],1,left,none,-99,-99,0.5,0,none,11,18,Woman,Right,
13,1,1,0.5671716999995624,['n'],1,right,none,-99,-99,0.5,0,none,11,18,Woman,Right,
14,1,1,0.7169192000001203,['n'],1,right,none,-99,-99,0.5,0,none,11,18,Woman,Right,
15,1,1,0.7331132999997862,['n'],1,right,none,-99,-99,0.5,0,none,11,18,Woman,Right,
16,1,1,1.0334959000001618,['n'],1,right,none,-99,-99,0.5,0,none,11,18,Woman,Right,
17,1,1,0.9339694000000236,['c'],0,right,none,-99,-99,0.5,0,none,11,18,Woman,Right,
18,1,1,1.0157948999994915,['n'],1,right,none,-99,-99,0.5,0,none,11,18,Woman,Right,
19,1,1,0.7831709000001865,['n'],1,right,none,-99,-99,0.5,0,none,11,18,Woman,Right,
20,1,1,0.6997673999994731,['c'],1,left,none,-99,-99,0.5,0,none,11,18,Woman,Right,
21,1,1,1.0828206000005594,['n'],1,right,none,-99,-99,0.5,0,none,11,18,Woman,Right,
22,1,1,0.9666487999993478,['c'],1,left,none,-99,-99,0.5,0,none,11,18,Woman,Right,
23,1,1,1.3321563999998034,['n'],0,left,none,-99,-99,0.5,0,none,11,18,Woman,Right,
0,2,1,1.4498200000007273,['c'],1,left,none,-99,-99,0.1,0,none,11,18,Woman,Right,
1,2,1,0.9170663999993849,['c'],1,left,none,-99,-99,0.1,0,none,11,18,Woman,Right,
2,2,1,0.7004299999998693,['n'],1,right,none,-99,-99,0.4,0,none,11,18,Woman,Right,
3,2,1,1.1335412000007636,['c'],1,left,none,-99,-99,0.1,0,none,11,18,Woman,Right,
4,2,1,0.7997458999998344,['n'],1,right,none,-99,-99,0.2,0,none,11,18,Woman,Right,
5,2,1,0.6663011000000552,['c'],1,left,none,-99,-99,0.4,0,none,11,18,Woman,Right,
6,2,1,0.5172481999998126,['n'],1,right,none,-99,-99,0.2,0,none,11,18,Woman,Right,
7,2,1,1.5500773000003392,['c'],0,right,none,-99,-99,0.4,0,none,11,18,Woman,Right,
8,2,1,1.4998513999998977,['n'],0,left,none,-99,-99,0.1,0,none,11,18,Woman,Right,
9,2,1,2.749249299999974,['c'],1,left,none,-99,-99,0.2,0,none,11,18,Woman,Right,
10,2,1,1.0662116000003152,['c'],0,right,none,-99,-99,0.1,0,none,11,18,Woman,Right,
11,2,1,1.934468100000231,['c'],0,right,none,-99,-99,0.4,0,none,11,18,Woman,Right,
12,2,1,2.666142099999888,['c'],0,right,none,-99,-99,0.1,0,none,11,18,Woman,Right,
13,2,1,3.3338591000001543,['c'],1,left,none,-99,-99,0.4,0,none,11,18,Woman,Right,
14,2,1,1.7659938999995575,['c'],0,right,none,-99,-99,0.2,0,none,11,18,Woman,Right,
15,2,1,3.0827503000000434,['n'],1,right,none,-99,-99,0.2,0,none,11,18,Woman,Right,
16,2,1,2.366590300000098,['c'],1,left,none,-99,-99,0.1,0,none,11,18,Woman,Right,
17,2,1,1.6324882999997499,['c'],1,left,none,-99,-99,0.2,0,none,11,18,Woman,Right,
18,2,1,1.8495273999997153,['c'],1,left,none,-99,-99,0.2,0,none,11,18,Woman,Right,
19,2,1,1.7164079999993191,['n'],1,right,none,-99,-99,0.4,0,none,11,18,Woman,Right,
20,2,1,1.3163162000000739,['c'],1,left,none,-99,-99,0.4,0,none,11,18,Woman,Right,
21,2,1,1.0834976999994979,['c'],1,left,none,-99,-99,0.4,0,none,11,18,Woman,Right,
22,2,1,1.8500648999997793,['n'],1,right,none,-99,-99,0.2,0,none,11,18,Woman,Right,
23,2,1,1.7659595000004629,['n'],1,right,none,-99,-99,0.1,0,none,11,18,Woman,Right,
0,3,1,1.8660103999991406,['c'],0,right,['9'],5,4.834056099999543,0.2,0,none,11,18,Woman,Right,
1,3,1,1.8667968999998266,['c'],1,left,['8'],4,2.7339500999996744,0.4,0,none,11,18,Woman,Right,
2,3,1,2.482959199999641,['c'],0,right,['9'],5,1.7505360999994082,0.2,0,none,11,18,Woman,Right,
3,3,1,3.6164518000005046,['n'],0,left,['3'],3,2.950528800000029,0.1,0,none,11,18,Woman,Right,
4,3,1,1.4994212999999945,['c'],1,left,['0'],6,0.9171159999996235,0.4,0,none,11,18,Woman,Right,
5,3,1,4.333736799999315,['n'],1,right,['8'],4,3.9671637999999803,0.1,0,none,11,18,Woman,Right,
6,3,1,0.7826762000004237,['c'],1,left,['0'],6,0.8672851999999693,0.4,0,none,11,18,Woman,Right,
7,3,1,3.6494857999996384,['n'],1,right,['8'],4,2.8504719000002297,0.1,0,none,11,18,Woman,Right,
8,3,1,2.3670586999996885,['c'],0,right,['2'],2,1.6339301999996678,0.2,0,none,11,18,Woman,Right,
9,3,1,5.0158304000005955,x,-99,left,none,-99,-99,0.1,1,none,11,18,Woman,Right,
10,3,1,1.2003555999999662,['c'],1,left,['8'],4,1.7172975000003134,0.4,0,none,11,18,Woman,Right,
11,3,1,1.0840159999997923,['c'],1,left,['2'],2,2.0672538999997414,0.1,0,none,11,18,Woman,Right,
12,3,1,1.517109999999775,['c'],1,left,['3'],3,2.0504832999995415,0.1,0,none,11,18,Woman,Right,
13,3,1,2.1341261999996277,['c'],1,left,['9'],5,0.700568000000203,0.2,0,none,11,18,Woman,Right,
14,3,1,1.5841655000003811,['n'],1,right,['8'],4,1.6839356000000407,0.2,0,none,11,18,Woman,Right,
15,3,1,1.9159091999999873,['c'],1,left,['8'],4,2.983814300000631,0.1,0,none,11,18,Woman,Right,
16,3,1,0.9831489999996847,['n'],1,right,['0'],6,0.8003627999996752,0.4,0,none,11,18,Woman,Right,
17,3,1,3.2830448999993678,['c'],1,left,['2'],2,1.9004543000000922,0.2,0,none,11,18,Woman,Right,
18,3,1,1.2171103999999104,['n'],1,right,['8'],4,0.7671817999998893,0.2,0,none,11,18,Woman,Right,
19,3,1,1.9342026000003898,['n'],1,right,['1'],1,0.7173431999999593,0.1,0,none,11,18,Woman,Right,
20,3,1,1.0839076000002024,['n'],1,right,['0'],6,1.150547700000061,0.4,0,none,11,18,Woman,Right,
21,3,1,1.4161710999997013,['n'],1,right,['9'],5,1.2505823999999848,0.2,0,none,11,18,Woman,Right,
22,3,1,0.8831999999993059,['c'],1,left,['9'],5,1.7839514999996027,0.4,0,none,11,18,Woman,Right,
23,3,1,1.0166432999994868,['n'],1,right,['0'],6,0.700499800000216,0.4,0,none,11,18,Woman,Right,
0,4,1,0.8159883999996964,['n'],0,left,['8'],4,3.5005418999999165,0.1,0,FastAcc,11,18,Woman,Right,
1,4,1,1.1330426000004081,['c'],0,right,['9'],5,1.7503198000003977,0.4,0,FastAcc,11,18,Woman,Right,
2,4,1,0.8826517999996213,['c'],1,left,['0'],6,1.2673328999999285,0.2,0,FastAcc,11,18,Woman,Right,
3,4,1,0.9665678999999727,['n'],1,right,none,-99,-99,0.1,1,FastAcc,11,18,Woman,Right,
4,4,1,1.3167868000000453,['n'],1,right,['3'],3,1.3505521999995835,0.1,0,FastAcc,11,18,Woman,Right,
5,4,1,1.083392699999422,['c'],1,left,['9'],5,0.9341826999998375,0.1,0,FastAcc,11,18,Woman,Right,
6,4,1,0.9828348000000915,['n'],1,right,['3'],3,1.6005049999994299,0.2,0,FastAcc,11,18,Woman,Right,
7,4,1,1.1829336999999214,['c'],0,right,['9'],5,0.8672442999995837,0.2,0,FastAcc,11,18,Woman,Right,
8,4,1,1.049056599999858,['n'],1,right,['0'],6,0.8674085000002378,0.4,0,FastAcc,11,18,Woman,Right,
9,4,1,1.03304130000015,['c'],1,left,['9'],5,1.1672036999998454,0.1,0,FastAcc,11,18,Woman,Right,
10,4,1,1.0827581000003192,['n'],1,right,['1'],1,1.6336925000005067,0.2,0,FastAcc,11,18,Woman,Right,
11,4,1,1.383394500000577,['n'],1,right,['3'],3,1.633642200000395,0.2,0,FastAcc,11,18,Woman,Right,
12,4,1,0.9170178999993368,['c'],1,left,['0'],6,1.2337559000006877,0.2,0,FastAcc,11,18,Woman,Right,
13,4,1,1.2996185000001788,['n'],1,right,['9'],5,0.8004815000003873,0.4,0,FastAcc,11,18,Woman,Right,
14,4,1,1.2496267999995325,['c'],1,left,['0'],6,1.1171932000006564,0.1,0,FastAcc,11,18,Woman,Right,
15,4,1,1.3833088999999745,['n'],1,right,['8'],4,1.0337749000000258,0.1,0,FastAcc,11,18,Woman,Right,
16,4,1,2.466168899999502,['c'],1,left,['9'],5,2.083384199999273,0.1,0,FastAcc,11,18,Woman,Right,
17,4,1,1.4841966000003595,['c'],1,left,['1'],1,2.2008442000005743,0.1,0,FastAcc,11,18,Woman,Right,
18,4,1,1.0164940999993632,['c'],1,left,['0'],6,0.9004385999996884,0.4,0,FastAcc,11,18,Woman,Right,
19,4,1,1.466358499999842,['c'],1,left,['2'],2,1.367679599999974,0.2,0,FastAcc,11,18,Woman,Right,
20,4,1,2.1662365000001955,['n'],0,left,['1'],1,1.284221200000502,0.2,0,FastAcc,11,18,Woman,Right,
21,4,1,1.1833347000001595,['c'],1,left,['8'],4,1.1507710999994742,0.2,0,FastAcc,11,18,Woman,Right,
22,4,1,0.816194699999869,['c'],1,left,['9'],5,0.967188100000385,0.4,0,FastAcc,11,18,Woman,Right,
23,4,1,1.132656699999643,['c'],1,left,['3'],3,1.0671819999997751,0.1,0,FastAcc,11,18,Woman,Right,
24,4,1,0.832928400000128,['n'],1,right,['8'],4,1.2338597999996637,0.2,0,FastAcc,11,18,Woman,Right,
25,4,1,1.1828865999996196,['n'],0,left,['8'],4,1.1504150000000664,0.1,0,FastAcc,11,18,Woman,Right,
26,4,1,0.9996066000003339,['c'],1,left,['0'],6,1.167196100000183,0.4,0,FastAcc,11,18,Woman,Right,
27,4,1,1.666237500000534,['n'],0,left,['2'],2,1.1838110000007873,0.1,0,FastAcc,11,18,Woman,Right,
28,4,1,1.4996597999997903,['n'],1,right,['8'],4,0.9837125000003653,0.4,0,FastAcc,11,18,Woman,Right,
29,4,1,2.0327408000002833,['c'],0,right,['1'],1,0.43386419999933423,0.2,0,FastAcc,11,18,Woman,Right,
30,4,1,1.0828383000007307,['c'],1,left,['8'],4,1.0839803999997457,0.4,0,FastAcc,11,18,Woman,Right,
31,4,1,0.933031800000208,['n'],1,right,['9'],5,1.2000669999997626,0.4,0,FastAcc,11,18,Woman,Right,
32,4,1,1.5659344000005149,['c'],0,right,['0'],6,1.117196999999578,0.1,0,FastAcc,11,18,Woman,Right,
33,4,1,0.9160488000006808,['n'],1,right,['8'],4,1.3505557999997109,0.4,0,FastAcc,11,18,Woman,Right,
34,4,1,2.0836331000000428,['n'],0,left,['3'],3,1.9173129999999219,0.1,0,FastAcc,11,18,Woman,Right,
35,4,1,0.8495788000000175,['c'],1,left,['9'],5,0.7670743999997285,0.4,0,FastAcc,11,18,Woman,Right,
36,4,1,1.399356899999475,['c'],1,left,['3'],3,1.5338510999999926,0.2,0,FastAcc,11,18,Woman,Right,
37,4,1,1.7500577000000703,['n'],1,right,['1'],1,1.20092939999995,0.1,0,FastAcc,11,18,Woman,Right,
38,4,1,1.1493608999999196,['n'],1,right,['2'],2,1.483797599999889,0.2,0,FastAcc,11,18,Woman,Right,
39,4,1,1.2329220999999961,['n'],0,left,['3'],3,1.0006272999999055,0.1,0,FastAcc,11,18,Woman,Right,
40,4,1,1.0995552000003954,['n'],1,right,['8'],4,0.983863399999791,0.2,0,FastAcc,11,18,Woman,Right,
41,4,1,1.6496300999997402,['n'],0,left,['1'],1,1.2837207999991733,0.1,0,FastAcc,11,18,Woman,Right,
42,4,1,1.1160145000003467,['n'],1,right,['0'],6,0.6672949000003427,0.4,0,FastAcc,11,18,Woman,Right,
43,4,1,1.2495298000003459,['n'],1,right,['9'],5,0.7840267999999924,0.4,0,FastAcc,11,18,Woman,Right,
44,4,1,1.3661840000004304,['n'],1,right,['8'],4,1.6006662999998298,0.2,0,FastAcc,11,18,Woman,Right,
45,4,1,1.4326623000006293,['c'],0,right,['1'],1,1.1004760000005263,0.1,0,FastAcc,11,18,Woman,Right,
46,4,1,0.8662992999998096,['n'],1,right,['0'],6,0.7837075999996159,0.1,0,FastAcc,11,18,Woman,Right,
47,4,1,0.8826570999999603,['c'],1,left,['8'],4,1.2171979000004285,0.4,0,FastAcc,11,18,Woman,Right,
48,4,1,0.9830884000002698,['n'],1,right,['0'],6,1.1839161000007152,0.1,0,FastAcc,11,18,Woman,Right,
49,4,1,1.1495479000004707,['n'],1,right,['9'],5,0.7338567000006151,0.4,0,FastAcc,11,18,Woman,Right,
50,4,1,0.7996761999993396,['n'],1,right,['9'],5,0.9671143999994456,0.4,0,FastAcc,11,18,Woman,Right,
51,4,1,0.8331767999998192,['n'],1,right,['0'],6,0.6005983999993987,0.4,0,FastAcc,11,18,Woman,Right,
52,4,1,1.2846128000001045,['n'],1,right,['9'],5,0.9338309000004301,0.4,0,FastAcc,11,18,Woman,Right,
53,4,1,0.8162898000000496,['c'],1,left,['0'],6,1.2673475000001417,0.2,0,FastAcc,11,18,Woman,Right,
54,4,1,0.7494673000001058,['n'],1,right,['9'],5,0.6504073999994944,0.2,0,FastAcc,11,18,Woman,Right,
55,4,1,0.8327197999997225,['c'],1,left,['0'],6,0.3338000000003376,0.4,0,FastAcc,11,18,Woman,Right,
56,4,1,2.299522000000252,['c'],1,left,['8'],4,1.3338691999997536,0.4,0,FastAcc,11,18,Woman,Right,
57,4,1,2.3496159999995143,['n'],0,left,['9'],5,0.7505694999999832,0.2,0,FastAcc,11,18,Woman,Right,
58,4,1,1.2328852999999071,['c'],1,left,['0'],6,0.9672024999999849,0.2,0,FastAcc,11,18,Woman,Right,
59,4,1,2.549275100000159,['n'],0,left,['9'],5,1.1338142000004154,0.2,0,FastAcc,11,18,Woman,Right,
0,5,1,0.7994940999997198,['c'],1,left,['3'],3,0.5339912999997978,0.4,0,FastFast,11,18,Woman,Right,
1,5,1,1.2163084000003437,['n'],0,left,['8'],4,0.7005976999998893,0.2,0,FastFast,11,18,Woman,Right,
2,5,1,1.6832441000005929,['n'],0,left,['8'],4,0.6505311999999321,0.2,0,FastFast,11,18,Woman,Right,
3,5,1,1.217000800000278,['c'],0,right,['8'],4,0.7504267000003892,0.2,0,FastFast,11,18,Woman,Right,
4,5,1,2.032558599999902,['n'],1,right,['9'],5,0.5503155999995215,0.2,0,FastFast,11,18,Woman,Right,
5,5,1,1.1827792000003683,['n'],0,left,['0'],6,0.48386370000025636,0.4,0,FastFast,11,18,Woman,Right,
6,5,1,1.5824066000004677,['n'],0,left,['9'],5,0.767206200000146,0.1,0,FastFast,11,18,Woman,Right,
7,5,1,1.400490400000308,['n'],1,right,['8'],4,1.1338417999995727,0.1,0,FastFast,11,18,Woman,Right,
8,5,1,1.0662680000004912,['c'],1,left,['0'],6,0.8336345999996411,0.4,0,FastFast,11,18,Woman,Right,
9,5,1,1.24973190000037,['c'],1,left,['0'],6,1.2506794999999329,0.2,0,FastFast,11,18,Woman,Right,
10,5,1,1.7494415000001027,['c'],1,left,['1'],1,0.8336815000002389,0.4,0,FastFast,11,18,Woman,Right,
11,5,1,1.616228200000478,['c'],1,left,['0'],6,0.3339600999997856,0.2,0,FastFast,11,18,Woman,Right,
12,5,1,0.9661124999993262,['c'],0,right,['0'],6,0.3331822000000102,0.2,0,FastFast,11,18,Woman,Right,
13,5,1,2.8660088000006,['c'],1,left,['8'],4,1.0837424000001192,0.4,0,FastFast,11,18,Woman,Right,
14,5,1,1.633232400000452,['c'],1,left,['9'],5,0.5671815999994578,0.2,0,FastFast,11,18,Woman,Right,
15,5,1,1.2663361000004443,['c'],1,left,['0'],6,0.7506884000003993,0.1,0,FastFast,11,18,Woman,Right,
16,5,1,2.3495365999997375,['n'],1,right,['1'],1,0.8838321000002907,0.1,0,FastFast,11,18,Woman,Right,
17,5,1,1.5500941999998759,['c'],0,right,['9'],5,0.6340572999997676,0.1,0,FastFast,11,18,Woman,Right,
18,5,1,1.4991903000000093,['c'],1,left,['0'],6,0.933745700000145,0.1,0,FastFast,11,18,Woman,Right,
19,5,1,1.5825651000004655,['c'],0,right,['8'],4,1.150353100000757,0.1,0,FastFast,11,18,Woman,Right,
20,5,1,1.5166865999999573,['c'],1,left,['9'],5,1.300629200000003,0.4,0,FastFast,11,18,Woman,Right,
21,5,1,1.8496411999994962,['n'],1,right,['2'],2,1.0010843000000023,0.1,0,FastFast,11,18,Woman,Right,
22,5,1,1.41590559999986,['c'],1,left,['9'],5,0.5671626000003016,0.2,0,FastFast,11,18,Woman,Right,
23,5,1,2.166448500000115,['n'],1,right,['2'],2,0.9172832000003837,0.4,0,FastFast,11,18,Woman,Right,
24,5,1,1.0326381999993828,['c'],1,left,['0'],6,0.41714649999994435,0.2,0,FastFast,11,18,Woman,Right,
25,5,1,1.7827139000000898,['c'],0,right,['1'],1,0.5671689000000697,0.1,0,FastFast,11,18,Woman,Right,
26,5,1,1.9992219999994632,['c'],0,right,['1'],1,1.0674324999999953,0.4,0,FastFast,11,18,Woman,Right,
27,5,1,1.2828878999998778,['n'],1,right,['9'],5,0.9333701999994446,0.4,0,FastFast,11,18,Woman,Right,
28,5,1,1.4998142999993433,['n'],1,right,['3'],3,1.383452600000055,0.4,0,FastFast,11,18,Woman,Right,
29,5,1,1.5665316000004168,['c'],0,right,['9'],5,0.5337552000000869,0.1,0,FastFast,11,18,Woman,Right,
30,5,1,1.9327445999997508,['n'],1,right,['0'],6,0.6668769999996584,0.4,0,FastFast,11,18,Woman,Right,
31,5,1,1.299406199999794,['c'],1,left,['8'],4,0.900528299999678,0.2,0,FastFast,11,18,Woman,Right,
32,5,1,2.266264599999886,['n'],1,right,['2'],2,1.1505342000000383,0.1,0,FastFast,11,18,Woman,Right,
33,5,1,1.0161187000003338,['c'],1,left,['1'],1,0.39976359999946,0.1,0,FastFast,11,18,Woman,Right,
34,5,1,1.4991065999993225,['n'],1,right,['9'],5,0.9505756999997175,0.2,0,FastFast,11,18,Woman,Right,
35,5,1,1.8825833000000785,['c'],0,right,['3'],3,1.2504957999999533,0.4,0,FastFast,11,18,Woman,Right,
36,5,1,1.433531700000458,['c'],1,left,['9'],5,0.5006077999996705,0.2,0,FastFast,11,18,Woman,Right,
37,5,1,1.949191100000462,['c'],1,left,['0'],6,0.8505691999998817,0.4,0,FastFast,11,18,Woman,Right,
38,5,1,2.099084500000572,['c'],0,right,['3'],3,1.1505139000000781,0.2,0,FastFast,11,18,Woman,Right,
39,5,1,2.0001367000004393,['n'],0,left,['1'],1,1.1840721999997186,0.2,0,FastFast,11,18,Woman,Right,
40,5,1,1.417134199999964,['c'],0,right,['1'],1,1.3005185000001802,0.2,0,FastFast,11,18,Woman,Right,
41,5,1,1.400055600000087,['c'],0,right,['8'],4,1.6504124000002776,0.4,0,FastFast,11,18,Woman,Right,
42,5,1,2.03370410000025,['c'],1,left,['8'],4,0.867182099999809,0.4,0,FastFast,11,18,Woman,Right,
43,5,1,1.8329658000002382,['c'],0,right,['9'],5,0.5004988000000594,0.1,0,FastFast,11,18,Woman,Right,
44,5,1,2.7827950999999302,['c'],1,left,['3'],3,1.7504967000004399,0.2,0,FastFast,11,18,Woman,Right,
45,5,1,1.648869300000115,['c'],0,right,['8'],4,0.4838690000005954,0.1,0,FastFast,11,18,Woman,Right,
46,5,1,0.899547199999688,['n'],1,right,['9'],5,0.6171857999997883,0.2,0,FastFast,11,18,Woman,Right,
47,5,1,0.8662606999996569,['n'],1,right,['8'],4,0.7672013999999763,0.2,0,FastFast,11,18,Woman,Right,
48,5,1,1.6996934999997393,['n'],1,right,['2'],2,1.48377789999995,0.1,0,FastFast,11,18,Woman,Right,
49,5,1,2.616026200000306,['c'],1,left,['8'],4,0.9502843999998731,0.2,0,FastFast,11,18,Woman,Right,
50,5,1,1.4164113999995607,['c'],1,left,['9'],5,1.0836011999999755,0.4,0,FastFast,11,18,Woman,Right,
51,5,1,2.9166652000003523,['n'],1,right,['3'],3,1.5338918000006743,0.4,0,FastFast,11,18,Woman,Right,
52,5,1,1.6997164999993402,['n'],1,right,['9'],5,0.8506091999997807,0.4,0,FastFast,11,18,Woman,Right,
53,5,1,1.3331872999997358,['c'],0,right,['8'],4,0.9506462999997893,0.1,0,FastFast,11,18,Woman,Right,
54,5,1,2.1986133999998856,['n'],0,left,['2'],2,1.3673900000003414,0.1,0,FastFast,11,18,Woman,Right,
55,5,1,0.9333402000002025,['n'],1,right,['0'],6,0.6671231000000262,0.4,0,FastFast,11,18,Woman,Right,
56,5,1,0.9835384999996677,['c'],1,left,['8'],4,0.9006479999998191,0.1,0,FastFast,11,18,Woman,Right,
57,5,1,0.9155999999993583,['c'],1,left,['8'],4,1.6838354000001345,0.4,0,FastFast,11,18,Woman,Right,
58,5,1,2.0822387999996863,['n'],0,left,['9'],5,1.0839196999995693,0.1,0,FastFast,11,18,Woman,Right,
59,5,1,1.0162261000004946,['c'],1,left,['8'],4,1.9005837000004249,0.1,0,FastFast,11,18,Woman,Right,
0,6,1,1.0494511999995666,['n'],1,right,['9'],5,0.7505887999996048,0.4,0,AccFast,11,18,Woman,Right,
1,6,1,0.8666242999997849,['n'],1,right,['0'],6,0.6172741999998834,0.4,0,AccFast,11,18,Woman,Right,
2,6,1,1.016837299999679,['c'],1,left,['3'],3,1.1674527000004673,0.1,0,AccFast,11,18,Woman,Right,
3,6,1,1.2161481000002823,['n'],0,left,['9'],5,0.8508677999998326,0.1,0,AccFast,11,18,Woman,Right,
4,6,1,1.3157799999999042,['n'],0,left,['0'],6,0.8171164999994289,0.1,0,AccFast,11,18,Woman,Right,
5,6,1,0.8162413999998535,['c'],1,left,['0'],6,0.550438999999642,0.1,0,AccFast,11,18,Woman,Right,
6,6,1,2.2499319000007745,['n'],1,right,['9'],5,0.9004880000002231,0.1,0,AccFast,11,18,Woman,Right,
7,6,1,0.9318381000002773,['n'],1,right,['0'],6,1.48394559999997,0.2,0,AccFast,11,18,Woman,Right,
8,6,1,1.0495859999991808,['c'],1,left,['9'],5,1.1504262000007657,0.4,0,AccFast,11,18,Woman,Right,
9,6,1,0.8162699000004068,['n'],1,right,['0'],6,0.5839302000003954,0.4,0,AccFast,11,18,Woman,Right,
10,6,1,0.9327857999996922,['c'],1,left,['8'],4,1.5337467999997898,0.4,0,AccFast,11,18,Woman,Right,
11,6,1,0.9000399000005928,['n'],1,right,['0'],6,0.30049479999979667,0.4,0,AccFast,11,18,Woman,Right,
12,6,1,1.4329023000000234,['n'],1,right,['0'],6,0.684008499999436,0.1,0,AccFast,11,18,Woman,Right,
13,6,1,0.8990123999992647,['c'],1,left,['9'],5,0.7171871999998984,0.4,0,AccFast,11,18,Woman,Right,
14,6,1,1.616132000000107,['n'],0,left,['8'],4,0.7671970000001238,0.1,0,AccFast,11,18,Woman,Right,
15,6,1,1.250100499999462,['n'],1,right,['9'],5,1.7505293000003803,0.1,0,AccFast,11,18,Woman,Right,
16,6,1,0.7992432000000917,['c'],1,left,['8'],4,0.8505489999997735,0.2,0,AccFast,11,18,Woman,Right,
17,6,1,0.832055500000024,['n'],1,right,['0'],6,0.5505916000001889,0.1,0,AccFast,11,18,Woman,Right,
18,6,1,0.7996144999997341,['c'],1,left,['0'],6,0.41707580000002054,0.4,0,AccFast,11,18,Woman,Right,
19,6,1,1.032476399999723,['n'],1,right,['9'],5,0.6340189000002283,0.1,0,AccFast,11,18,Woman,Right,
20,6,1,0.94948420000037,['n'],1,right,['8'],4,1.0838533000005555,0.2,0,AccFast,11,18,Woman,Right,
21,6,1,0.7335235000000466,['c'],1,left,['0'],6,1.1834116999998514,0.4,0,AccFast,11,18,Woman,Right,
22,6,1,1.0994255000005069,['c'],1,left,['9'],5,0.5839359999999942,0.4,0,AccFast,11,18,Woman,Right,
23,6,1,1.4482031999996252,['n'],1,right,['3'],3,1.4005431000005046,0.1,0,AccFast,11,18,Woman,Right,
24,6,1,1.166755600000215,['n'],1,right,['0'],6,0.5504900999994788,0.4,0,AccFast,11,18,Woman,Right,
25,6,1,0.7167137000005823,['n'],1,right,['0'],6,0.3507835000000341,0.4,0,AccFast,11,18,Woman,Right,
26,6,1,1.81606069999998,['c'],0,right,['1'],1,0.9505102000002807,0.2,0,AccFast,11,18,Woman,Right,
27,6,1,1.4669617999998081,['c'],1,left,['8'],4,0.5007668999996895,0.4,0,AccFast,11,18,Woman,Right,
28,6,1,2.0328530999995564,['n'],0,left,['2'],2,0.9003846000005069,0.2,0,AccFast,11,18,Woman,Right,
29,6,1,2.4175849000002927,['n'],1,right,['3'],3,0.917177499999525,0.2,0,AccFast,11,18,Woman,Right,
30,6,1,3.5003948999992645,['n'],0,left,['1'],1,2.36682540000038,0.2,0,AccFast,11,18,Woman,Right,
31,6,1,1.7483618999995088,['c'],1,left,['8'],4,0.8837985000000117,0.2,0,AccFast,11,18,Woman,Right,
32,6,1,3.516634999999951,['n'],0,left,['2'],2,1.1338597000003574,0.2,0,AccFast,11,18,Woman,Right,
33,6,1,3.332539299999553,['c'],0,right,['8'],4,1.1672069999995074,0.1,0,AccFast,11,18,Woman,Right,
34,6,1,1.7832313999997496,['c'],1,left,['3'],3,1.50033859999985,0.4,0,AccFast,11,18,Woman,Right,
35,6,1,1.8169834000000264,['c'],1,left,['8'],4,0.4838496000002124,0.1,0,AccFast,11,18,Woman,Right,
36,6,1,2.133142300000145,['c'],1,left,['9'],5,0.8997720000006666,0.2,0,AccFast,11,18,Woman,Right,
37,6,1,2.150209299999915,['c'],1,left,['8'],4,1.033837400000266,0.1,0,AccFast,11,18,Woman,Right,
38,6,1,1.4493877000004431,['c'],1,left,['8'],4,0.46725659999992786,0.2,0,AccFast,11,18,Woman,Right,
39,6,1,2.3993976000001567,['n'],0,left,['9'],5,0.6170527000003858,0.1,0,AccFast,11,18,Woman,Right,
40,6,1,1.232086299999537,['n'],1,right,['0'],6,0.8337502999993376,0.2,0,AccFast,11,18,Woman,Right,
41,6,1,1.482894099999612,['c'],0,right,['8'],4,0.8005023000005167,0.1,0,AccFast,11,18,Woman,Right,
42,6,1,2.332911200000126,['n'],0,left,['9'],5,0.7337651999996524,0.4,0,AccFast,11,18,Woman,Right,
43,6,1,1.4170668999995542,['c'],1,left,['8'],4,1.0838389000000461,0.2,0,AccFast,11,18,Woman,Right,
44,6,1,1.4664536999998745,['n'],0,left,['9'],5,1.4673055000002933,0.2,0,AccFast,11,18,Woman,Right,
45,6,1,2.2329406999997445,['c'],0,right,['3'],3,1.233654800000295,0.4,0,AccFast,11,18,Woman,Right,
46,6,1,1.9001282999997784,['n'],1,right,['2'],2,0.9670747999998639,0.1,0,AccFast,11,18,Woman,Right,
47,6,1,2.083192400000371,['c'],1,left,['1'],1,1.5008242999992945,0.2,0,AccFast,11,18,Woman,Right,
48,6,1,2.599748499999805,['n'],1,right,['3'],3,1.2504981000001862,0.2,0,AccFast,11,18,Woman,Right,
49,6,1,1.4666017999998076,['c'],0,right,['8'],4,0.6838135999996666,0.2,0,AccFast,11,18,Woman,Right,
50,6,1,1.8153168999997433,['n'],1,right,['9'],5,0.5836653000005754,0.2,0,AccFast,11,18,Woman,Right,
51,6,1,2.2995693999992,['c'],0,right,['8'],4,1.1170322999996642,0.4,0,AccFast,11,18,Woman,Right,
52,6,1,2.31666739999946,['n'],0,left,['9'],5,0.750941100000091,0.2,0,AccFast,11,18,Woman,Right,
53,6,1,1.1161341999995784,['c'],0,right,['8'],4,0.5839351999993596,0.1,0,AccFast,11,18,Woman,Right,
54,6,1,1.0832430000000386,['n'],0,left,['1'],1,1.0838712000004307,0.4,0,AccFast,11,18,Woman,Right,
55,6,1,1.6328708999999435,['c'],0,right,['8'],4,1.0838216000001921,0.1,0,AccFast,11,18,Woman,Right,
56,6,1,2.581529699999919,['n'],0,left,['1'],1,1.6504875000000538,0.4,0,AccFast,11,18,Woman,Right,
57,6,1,2.8160828999998557,['n'],1,right,['2'],2,1.4504558999997244,0.1,0,AccFast,11,18,Woman,Right,
58,6,1,2.866807900000822,['c'],0,right,['0'],6,1.6674056000001656,0.2,0,AccFast,11,18,Woman,Right,
59,6,1,3.382838200000151,['c'],0,right,['8'],4,1.7336506000001464,0.4,0,AccFast,11,18,Woman,Right,
0,7,1,1.5487501000006887,['n'],1,right,['9'],5,1.5172662000004493,0.2,0,AccAcc,11,18,Woman,Right,
1,7,1,1.3665987000003952,['n'],1,right,['0'],6,0.9505719999997382,0.4,0,AccAcc,11,18,Woman,Right,
2,7,1,1.3004427999994732,['n'],1,right,['8'],4,1.3172089999998207,0.4,0,AccAcc,11,18,Woman,Right,
3,7,1,2.4494980999998006,['n'],0,left,['0'],6,1.300577599999997,0.2,0,AccAcc,11,18,Woman,Right,
4,7,1,1.2328489000001355,['n'],1,right,['9'],5,0.8671962999997049,0.4,0,AccAcc,11,18,Woman,Right,
5,7,1,1.9996469999996407,['n'],1,right,['0'],6,0.9665891999993619,0.1,0,AccAcc,11,18,Woman,Right,
6,7,1,1.3496669999994992,['c'],1,left,['0'],6,1.2005901000002268,0.4,0,AccAcc,11,18,Woman,Right,
7,7,1,0.9824402999993254,['n'],1,right,['0'],6,1.100619099999676,0.4,0,AccAcc,11,18,Woman,Right,
8,7,1,3.0989383000005546,['c'],0,right,['9'],5,1.150441700000556,0.2,0,AccAcc,11,18,Woman,Right,
9,7,1,2.0159538999996585,['n'],1,right,['0'],6,1.117329400000017,0.1,0,AccAcc,11,18,Woman,Right,
10,7,1,2.083388600000035,['c'],1,left,['8'],4,1.650467800000115,0.1,0,AccAcc,11,18,Woman,Right,
11,7,1,1.2163135999999213,['n'],1,right,['9'],5,0.6004093000001376,0.4,0,AccAcc,11,18,Woman,Right,
12,7,1,2.4164330000003247,['c'],1,left,['8'],4,1.6672558999998728,0.2,0,AccAcc,11,18,Woman,Right,
13,7,1,1.2162564000000202,['n'],1,right,['9'],5,0.6670550999997431,0.4,0,AccAcc,11,18,Woman,Right,
14,7,1,2.0995814999996583,['c'],1,left,['0'],6,1.0504792000001544,0.1,0,AccAcc,11,18,Woman,Right,
15,7,1,2.016569299999901,['n'],1,right,['9'],5,0.5836602999997922,0.4,0,AccAcc,11,18,Woman,Right,
16,7,1,1.567042899999251,['n'],1,right,['9'],5,1.1338956999998118,0.2,0,AccAcc,11,18,Woman,Right,
17,7,1,2.749658499999896,['c'],0,right,['2'],2,1.700546199999735,0.1,0,AccAcc,11,18,Woman,Right,
18,7,1,1.316194999999425,['n'],1,right,['9'],5,0.7670264999997016,0.2,0,AccAcc,11,18,Woman,Right,
19,7,1,1.6830517999997028,['c'],1,left,['9'],5,1.8503365999995367,0.4,0,AccAcc,11,18,Woman,Right,
20,7,1,1.28425900000002,['n'],1,right,['0'],6,0.6174278999997114,0.4,0,AccAcc,11,18,Woman,Right,
21,7,1,1.9661016000000018,['c'],0,right,['8'],4,2.2337950000001,0.1,0,AccAcc,11,18,Woman,Right,
22,7,1,2.89900359999956,['c'],0,right,['2'],2,1.7342922000007093,0.2,0,AccAcc,11,18,Woman,Right,
23,7,1,1.332952099999602,['c'],1,left,['8'],4,0.9171015999991141,0.2,0,AccAcc,11,18,Woman,Right,
24,7,1,2.866203900000073,['c'],1,left,['8'],4,1.4339350000000195,0.1,0,AccAcc,11,18,Woman,Right,
25,7,1,1.4832950000009077,['c'],1,left,['9'],5,0.6338359999999739,0.2,0,AccAcc,11,18,Woman,Right,
26,7,1,2.482869800000117,['c'],1,left,['8'],4,1.467209599999478,0.2,0,AccAcc,11,18,Woman,Right,
27,7,1,2.8994127999994816,['n'],1,right,['3'],3,1.2171656999998959,0.1,0,AccAcc,11,18,Woman,Right,
28,7,1,1.233700200000385,['c'],1,left,['8'],4,0.9172096000002057,0.2,0,AccAcc,11,18,Woman,Right,
29,7,1,2.783013999999639,['n'],1,right,['3'],3,1.7004697000002125,0.1,0,AccAcc,11,18,Woman,Right,
30,7,1,3.099278499999855,['c'],0,right,['1'],1,1.7503338999995322,0.2,0,AccAcc,11,18,Woman,Right,
31,7,1,1.3158719000002748,['n'],1,right,['9'],5,0.9337779999996201,0.4,0,AccAcc,11,18,Woman,Right,
32,7,1,4.383078300000307,['n'],1,right,['3'],3,2.100635799999509,0.1,0,AccAcc,11,18,Woman,Right,
33,7,1,3.7490208999997776,['n'],1,right,['2'],2,1.0004449999996723,0.2,0,AccAcc,11,18,Woman,Right,
34,7,1,0.9331589000003078,['n'],1,right,['8'],4,1.4338496000000305,0.4,0,AccAcc,11,18,Woman,Right,
35,7,1,0.9659547999999631,['c'],1,left,['9'],5,0.9505405999998402,0.4,0,AccAcc,11,18,Woman,Right,
36,7,1,4.082962299999963,['c'],1,left,['8'],4,1.9504808000001503,0.2,0,AccAcc,11,18,Woman,Right,
37,7,1,1.0499850999995033,['n'],1,right,['9'],5,0.9004435999995621,0.4,0,AccAcc,11,18,Woman,Right,
38,7,1,1.6996797000001607,['c'],1,left,['8'],4,1.2170058000001518,0.1,0,AccAcc,11,18,Woman,Right,
39,7,1,1.4503780000004554,['c'],1,left,['9'],5,2.1839329000004,0.2,0,AccAcc,11,18,Woman,Right,
40,7,1,2.6830863000004683,['n'],0,left,['8'],4,1.5007924999999886,0.1,0,AccAcc,11,18,Woman,Right,
41,7,1,1.2827998999991905,['c'],1,left,['0'],6,2.7003500999999233,0.4,0,AccAcc,11,18,Woman,Right,
42,7,1,1.5338221000001795,['c'],1,left,['8'],4,2.2171470000002955,0.1,0,AccAcc,11,18,Woman,Right,
43,7,1,0.8997535999997126,['c'],1,left,['0'],6,0.7171132000003126,0.4,0,AccAcc,11,18,Woman,Right,
44,7,1,2.866179099999499,['c'],1,left,['9'],5,1.7672843999998804,0.2,0,AccAcc,11,18,Woman,Right,
45,7,1,3.0660253999994893,['n'],0,left,['3'],3,1.1835963000003176,0.1,0,AccAcc,11,18,Woman,Right,
46,7,1,1.9666715000003023,['c'],1,left,['8'],4,1.350459199999932,0.2,0,AccAcc,11,18,Woman,Right,
47,7,1,3.099585400000251,['n'],0,left,['2'],2,1.200424199999361,0.1,0,AccAcc,11,18,Woman,Right,
48,7,1,1.749589900000501,['n'],1,right,['9'],5,0.7674016000000847,0.4,0,AccAcc,11,18,Woman,Right,
49,7,1,3.2168972999998005,['n'],0,left,['8'],4,1.8338808000007703,0.1,0,AccAcc,11,18,Woman,Right,
50,7,1,1.299585300000217,['n'],1,right,['0'],6,0.40049689999978,0.1,0,AccAcc,11,18,Woman,Right,
51,7,1,4.232922099999996,['n'],0,left,['8'],4,1.9505428000002212,0.1,0,AccAcc,11,18,Woman,Right,
52,7,1,5.015715600000476,x,-99,left,none,-99,-99,0.1,1,AccAcc,11,18,Woman,Right,
53,7,1,2.249383100000159,['n'],1,right,['8'],4,1.8004702000007455,0.4,0,AccAcc,11,18,Woman,Right,
54,7,1,2.39931069999966,['c'],1,left,['2'],2,1.2839364999999816,0.1,0,AccAcc,11,18,Woman,Right,
55,7,1,4.582408199999918,['c'],1,left,['1'],1,1.6838637000000745,0.4,0,AccAcc,11,18,Woman,Right,
56,7,1,2.2328519000002416,['c'],1,left,['3'],3,1.8340784000001804,0.2,0,AccAcc,11,18,Woman,Right,
57,7,1,1.8830518000004304,['c'],0,right,['8'],4,0.6337720999999874,0.4,0,AccAcc,11,18,Woman,Right,
58,7,1,2.883108600000014,['c'],1,left,['8'],4,0.983797400000185,0.2,0,AccAcc,11,18,Woman,Right,
59,7,1,3.866764299999886,['c'],0,right,['2'],2,1.4839148000000932,0.2,0,AccAcc,11,18,Woman,Right,
0,8,1,0.7159707999999227,['n'],0,left,['8'],4,1.6339209000007031,0.2,0,FastAcc,11,18,Woman,Right,
1,8,1,0.6989536999999473,['c'],1,left,['9'],5,0.6838659000004554,0.1,0,FastAcc,11,18,Woman,Right,
2,8,1,0.8997847000000547,['n'],0,left,['2'],2,0.9506773000002795,0.4,0,FastAcc,11,18,Woman,Right,
3,8,1,0.699729799999659,['n'],1,right,['0'],6,0.7838113999996494,0.2,0,FastAcc,11,18,Woman,Right,
4,8,1,0.7659576000005472,['n'],1,right,['9'],5,0.7338410000002114,0.2,0,FastAcc,11,18,Woman,Right,
5,8,1,1.5328343000001041,['n'],1,right,['8'],4,0.7171257999998488,0.2,0,FastAcc,11,18,Woman,Right,
6,8,1,1.9333133999998608,['c'],1,left,['0'],6,0.9841084999998202,0.4,0,FastAcc,11,18,Woman,Right,
7,8,1,1.232694000000265,['c'],1,left,['0'],6,1.4506372000005285,0.4,0,FastAcc,11,18,Woman,Right,
8,8,1,2.3993469999995796,['n'],1,right,['9'],5,1.6838528999996925,0.1,0,FastAcc,11,18,Woman,Right,
9,8,1,0.849522600000455,['n'],1,right,['9'],5,2.0840471999999863,0.2,0,FastAcc,11,18,Woman,Right,
10,8,1,1.5330245000004652,['n'],1,right,['0'],6,1.200616500000251,0.4,0,FastAcc,11,18,Woman,Right,
11,8,1,1.6162579000001642,['c'],0,right,['8'],4,2.467044099999839,0.2,0,FastAcc,11,18,Woman,Right,
12,8,1,1.9661826000001383,['n'],1,right,['9'],5,1.2005773000000772,0.1,0,FastAcc,11,18,Woman,Right,
13,8,1,1.182412299999669,['c'],1,left,['8'],4,0.8504624000006515,0.2,0,FastAcc,11,18,Woman,Right,
14,8,1,1.6833343999996941,['n'],0,left,['9'],5,0.6838250000000698,0.1,0,FastAcc,11,18,Woman,Right,
15,8,1,1.133020199999919,['n'],1,right,['0'],6,0.966978299999937,0.2,0,FastAcc,11,18,Woman,Right,
16,8,1,1.116550499999903,['n'],0,left,['0'],6,0.7669401000002836,0.1,0,FastAcc,11,18,Woman,Right,
17,8,1,1.0659152999996877,['c'],1,left,['0'],6,0.9006888000003528,0.4,0,FastAcc,11,18,Woman,Right,
18,8,1,1.0667051999998876,['n'],1,right,['0'],6,1.0005112000008012,0.4,0,FastAcc,11,18,Woman,Right,
19,8,1,0.9834522000001016,['c'],1,left,['0'],6,1.0506397999997716,0.1,0,FastAcc,11,18,Woman,Right,
20,8,1,1.6997356000001673,['n'],1,right,['0'],6,1.0670844000005673,0.4,0,FastAcc,11,18,Woman,Right,
21,8,1,1.8330198000003293,['n'],1,right,['9'],5,0.7838742999992974,0.2,0,FastAcc,11,18,Woman,Right,
22,8,1,1.0155611000000135,['n'],0,left,['8'],4,0.983726000000388,0.1,0,FastAcc,11,18,Woman,Right,
23,8,1,1.1155851999992592,['c'],1,left,['0'],6,0.8505314000003636,0.4,0,FastAcc,11,18,Woman,Right,
24,8,1,1.7996203000002424,['n'],0,left,['8'],4,1.3671427999997832,0.1,0,FastAcc,11,18,Woman,Right,
25,8,1,1.133107999999993,['n'],1,right,['8'],4,0.8172236000000339,0.4,0,FastAcc,11,18,Woman,Right,
26,8,1,1.4496362999998382,['n'],1,right,['9'],5,0.7671073999999862,0.4,0,FastAcc,11,18,Woman,Right,
27,8,1,1.3160030999997616,['c'],1,left,['0'],6,1.3005910000001677,0.4,0,FastAcc,11,18,Woman,Right,
28,8,1,1.6331395000006523,['n'],1,right,['9'],5,1.4672043000000485,0.1,0,FastAcc,11,18,Woman,Right,
29,8,1,1.7829720999998244,['n'],1,right,['8'],4,1.2839217000000644,0.4,0,FastAcc,11,18,Woman,Right,
30,8,1,1.4498317999996289,['c'],1,left,['3'],3,1.383872500000507,0.1,0,FastAcc,11,18,Woman,Right,
31,8,1,0.88341599999967,['c'],1,left,['8'],4,0.31720729999960895,0.2,0,FastAcc,11,18,Woman,Right,
32,8,1,2.032182799999646,['n'],0,left,['3'],3,1.5673319999996238,0.2,0,FastAcc,11,18,Woman,Right,
33,8,1,1.2337416999998823,['c'],1,left,['9'],5,0.7003905000001396,0.1,0,FastAcc,11,18,Woman,Right,
34,8,1,1.8328091000003042,['c'],0,right,['8'],4,1.4005463000003147,0.1,0,FastAcc,11,18,Woman,Right,
35,8,1,1.5498421000002054,['n'],1,right,['2'],2,1.1007454000000507,0.1,0,FastAcc,11,18,Woman,Right,
36,8,1,0.9164205000006405,['n'],1,right,['9'],5,0.6005686999997124,0.4,0,FastAcc,11,18,Woman,Right,
37,8,1,0.8830643999999666,['c'],1,left,['9'],5,0.7005245000000286,0.2,0,FastAcc,11,18,Woman,Right,
38,8,1,1.6497738999996727,['n'],1,right,['8'],4,1.366834899999958,0.1,0,FastAcc,11,18,Woman,Right,
39,8,1,0.9161665999999968,['c'],1,left,['0'],6,0.6671480000004522,0.4,0,FastAcc,11,18,Woman,Right,
40,8,1,1.466474400000152,['n'],1,right,['9'],5,1.1672515000000203,0.4,0,FastAcc,11,18,Woman,Right,
41,8,1,1.3986818999992465,['c'],1,left,['2'],2,1.483698099999856,0.2,0,FastAcc,11,18,Woman,Right,
42,8,1,2.115202599999975,['n'],1,right,['2'],2,0.933688500000244,0.2,0,FastAcc,11,18,Woman,Right,
43,8,1,0.9157434999997349,['c'],1,left,['8'],4,0.5837696999997206,0.2,0,FastAcc,11,18,Woman,Right,
44,8,1,1.4161405999993804,['n'],1,right,['9'],5,0.5506064000001061,0.4,0,FastAcc,11,18,Woman,Right,
45,8,1,1.066337399999611,['n'],1,right,['8'],4,1.1005529000003662,0.2,0,FastAcc,11,18,Woman,Right,
46,8,1,0.8503406999998333,['c'],1,left,['9'],5,0.7005202000000281,0.4,0,FastAcc,11,18,Woman,Right,
47,8,1,1.716262199999619,['n'],0,left,['8'],4,1.3170522999998866,0.4,0,FastAcc,11,18,Woman,Right,
48,8,1,3.150214799999958,['n'],0,left,['8'],4,1.4172178999997413,0.1,0,FastAcc,11,18,Woman,Right,
49,8,1,2.4336278000000675,['n'],1,right,['9'],5,0.9670082000002367,0.2,0,FastAcc,11,18,Woman,Right,
50,8,1,2.716398499999741,['n'],0,left,['1'],1,3.0839521999996578,0.1,0,FastAcc,11,18,Woman,Right,
51,8,1,2.8828906999997344,['n'],1,right,['8'],4,1.2677933000004487,0.2,0,FastAcc,11,18,Woman,Right,
52,8,1,3.466258999999809,['n'],1,right,['2'],2,0.6840394000000742,0.1,0,FastAcc,11,18,Woman,Right,
53,8,1,1.2495366000002832,['c'],1,left,['1'],1,1.3171006000002308,0.1,0,FastAcc,11,18,Woman,Right,
54,8,1,1.0994007999997848,['n'],1,right,['3'],3,1.1837784999997893,0.1,0,FastAcc,11,18,Woman,Right,
55,8,1,2.032884500000364,['c'],1,left,['8'],4,1.0336575999999695,0.2,0,FastAcc,11,18,Woman,Right,
56,8,1,1.3998467999999775,['c'],1,left,['9'],5,0.6505171999997401,0.2,0,FastAcc,11,18,Woman,Right,
57,8,1,2.066251499999453,['n'],1,right,['8'],4,1.000534200000402,0.1,0,FastAcc,11,18,Woman,Right,
58,8,1,1.3163582999995924,['c'],1,left,['8'],4,0.8504704000006313,0.4,0,FastAcc,11,18,Woman,Right,
59,8,1,1.6493700999999419,['n'],1,right,['0'],6,0.8837482000008094,0.4,0,FastAcc,11,18,Woman,Right,
0,9,1,0.9495057999993151,['n'],0,left,['8'],4,0.5338979999996809,0.2,0,FastFast,11,18,Woman,Right,
1,9,1,0.9826258000002781,['n'],1,right,['9'],5,0.41713660000004893,0.2,0,FastFast,11,18,Woman,Right,
2,9,1,1.216244000000188,['c'],0,right,['1'],1,0.7337267000002612,0.2,0,FastFast,11,18,Woman,Right,
3,9,1,0.7161803999997574,['n'],1,right,['0'],6,0.3504302999999709,0.4,0,FastFast,11,18,Woman,Right,
4,9,1,0.7830430000003616,['c'],1,left,['0'],6,0.367162599999574,0.2,0,FastFast,11,18,Woman,Right,
5,9,1,0.9164990999997826,['n'],1,right,['0'],6,0.26735660000031203,0.2,0,FastFast,11,18,Woman,Right,
6,9,1,1.1821313999998893,['n'],1,right,['9'],5,0.3671703999998499,0.4,0,FastFast,11,18,Woman,Right,
7,9,1,1.5491092000002027,['n'],1,right,['9'],5,0.45099949999985256,0.1,0,FastFast,11,18,Woman,Right,
8,9,1,1.4822439999998096,['n'],0,left,['9'],5,0.5171600999992734,0.1,0,FastFast,11,18,Woman,Right,
9,9,1,0.8828317000006791,['n'],1,right,['8'],4,0.1672342000001663,0.4,0,FastFast,11,18,Woman,Right,
10,9,1,0.8493299000001571,['c'],1,left,['9'],5,0.4670621999994182,0.4,0,FastFast,11,18,Woman,Right,
11,9,1,1.2161652000004324,['n'],1,right,['8'],4,0.6339176999999836,0.1,0,FastFast,11,18,Woman,Right,
12,9,1,1.0995939000004,['c'],1,left,['9'],5,0.23389159999987896,0.1,0,FastFast,11,18,Woman,Right,
13,9,1,0.7161297999991802,['n'],1,right,['9'],5,0.3505288999995173,0.2,0,FastFast,11,18,Woman,Right,
14,9,1,0.7660345000003872,['c'],1,left,['8'],4,0.9836635000001479,0.2,0,FastFast,11,18,Woman,Right,
15,9,1,0.8492867999993905,['c'],1,left,['9'],5,0.4838228999997227,0.4,0,FastFast,11,18,Woman,Right,
16,9,1,1.5829077999997025,['n'],0,left,['1'],1,0.6671754999997574,0.2,0,FastFast,11,18,Woman,Right,
17,9,1,0.9492259999997259,['c'],1,left,['9'],5,0.7336776000001919,0.4,0,FastFast,11,18,Woman,Right,
18,9,1,0.865924200000336,['c'],1,left,['0'],6,0.25048700000024837,0.4,0,FastFast,11,18,Woman,Right,
19,9,1,1.6996490000001359,['c'],1,left,['8'],4,0.5506558999995832,0.2,0,FastFast,11,18,Woman,Right,
20,9,1,0.84924779999983,['n'],1,right,['9'],5,0.533678100000543,0.2,0,FastFast,11,18,Woman,Right,
21,9,1,2.5344820000000254,['n'],1,right,['0'],6,0.7172029000003022,0.4,0,FastFast,11,18,Woman,Right,
22,9,1,1.2831909000005908,['n'],0,left,['0'],6,0.21715239999957703,0.1,0,FastFast,11,18,Woman,Right,
23,9,1,0.8327658999996856,['c'],1,left,['0'],6,0.3673713999996835,0.4,0,FastFast,11,18,Woman,Right,
24,9,1,1.233001399999921,['n'],0,left,['2'],2,0.983869899999263,0.1,0,FastFast,11,18,Woman,Right,
25,9,1,1.7495548000006238,['n'],0,left,['1'],1,0.850592400000096,0.2,0,FastFast,11,18,Woman,Right,
26,9,1,1.149730900000577,['n'],1,right,['9'],5,0.8670050000000629,0.4,0,FastFast,11,18,Woman,Right,
27,9,1,1.2823922999996284,['c'],1,left,['0'],6,0.38401169999997364,0.1,0,FastFast,11,18,Woman,Right,
28,9,1,1.5664271999994526,['n'],0,left,['9'],5,0.4504824000005101,0.1,0,FastFast,11,18,Woman,Right,
29,9,1,0.9336694000003263,['n'],1,right,['0'],6,0.3837420999998358,0.4,0,FastFast,11,18,Woman,Right,
30,9,1,1.0167351000000053,['c'],1,left,['0'],6,0.2672229999998308,0.2,0,FastFast,11,18,Woman,Right,
31,9,1,1.3494282000001476,['n'],1,right,['9'],5,0.2839873000002626,0.2,0,FastFast,11,18,Woman,Right,
32,9,1,1.51602610000009,['n'],1,right,['8'],4,0.5841024000001198,0.1,0,FastFast,11,18,Woman,Right,
33,9,1,1.0662383999997473,['n'],1,right,['8'],4,0.38366319999931875,0.2,0,FastFast,11,18,Woman,Right,
34,9,1,1.8828107999997883,['n'],1,right,['9'],5,0.43388299999969604,0.1,0,FastFast,11,18,Woman,Right,
35,9,1,0.7328769000005195,['n'],1,right,['9'],5,0.1672312000000602,0.4,0,FastFast,11,18,Woman,Right,
36,9,1,1.7662005000001955,['n'],1,right,['8'],4,0.41742489999978716,0.1,0,FastFast,11,18,Woman,Right,
37,9,1,0.9829632000000856,['c'],1,left,['8'],4,0.6004904999999781,0.2,0,FastFast,11,18,Woman,Right,
38,9,1,1.2490599000002476,['n'],0,left,['9'],5,0.3004956000004313,0.2,0,FastFast,11,18,Woman,Right,
39,9,1,1.8493784000002051,['n'],0,left,['0'],6,0.23388599999998405,0.2,0,FastFast,11,18,Woman,Right,
40,9,1,0.9831851999997525,['n'],1,right,['0'],6,0.2171809999999823,0.4,0,FastFast,11,18,Woman,Right,
41,9,1,1.8826939999999013,['c'],0,right,['9'],5,0.633850899999743,0.1,0,FastFast,11,18,Woman,Right,
42,9,1,1.1005691999998817,['n'],1,right,['0'],6,0.18391439999959402,0.1,0,FastFast,11,18,Woman,Right,
43,9,1,2.7661231000001862,['n'],0,left,['8'],4,0.5840140999998766,0.1,0,FastFast,11,18,Woman,Right,
44,9,1,1.2995193999995536,['n'],1,right,['9'],5,0.41710710000006657,0.4,0,FastFast,11,18,Woman,Right,
45,9,1,0.9664819999998144,['c'],1,left,['8'],4,0.3171245000003182,0.1,0,FastFast,11,18,Woman,Right,
46,9,1,0.9160391000004893,['c'],1,left,['9'],5,0.4171759999999267,0.2,0,FastFast,11,18,Woman,Right,
47,9,1,1.7665106000004016,['n'],1,right,['0'],6,0.40049980000003416,0.2,0,FastFast,11,18,Woman,Right,
48,9,1,0.8998679999995147,['c'],1,left,['8'],4,0.3671948000001066,0.1,0,FastFast,11,18,Woman,Right,
49,9,1,1.2159642999995413,['n'],1,right,['9'],5,0.3336521000001085,0.4,0,FastFast,11,18,Woman,Right,
50,9,1,2.2829124999998385,['n'],1,right,['8'],4,1.1005086999994091,0.1,0,FastFast,11,18,Woman,Right,
51,9,1,1.9328232999996544,['c'],0,right,['2'],2,0.6499729999995907,0.4,0,FastFast,11,18,Woman,Right,
52,9,1,1.050000000000182,['c'],1,left,['8'],4,0.567334899999878,0.4,0,FastFast,11,18,Woman,Right,
53,9,1,1.716224400000101,['n'],0,left,['9'],5,0.3839926999999079,0.1,0,FastFast,11,18,Woman,Right,
54,9,1,2.149484399999892,['n'],0,left,['2'],2,1.3671255000008387,0.4,0,FastFast,11,18,Woman,Right,
55,9,1,0.7829353000006449,['n'],1,right,['0'],6,0.3170936000005895,0.4,0,FastFast,11,18,Woman,Right,
56,9,1,1.416298399999505,['n'],1,right,['0'],6,0.25039840000044933,0.4,0,FastFast,11,18,Woman,Right,
57,9,1,1.2497643000006065,['c'],1,left,['3'],3,1.2503477000000203,0.1,0,FastFast,11,18,Woman,Right,
58,9,1,1.7321068000001105,['n'],1,right,['1'],1,1.2174428999996962,0.2,0,FastFast,11,18,Woman,Right,
59,9,1,1.250258300000496,['n'],0,left,['8'],4,0.5006857000007585,0.1,0,FastFast,11,18,Woman,Right,
0,10,1,1.2332492999994429,['c'],1,left,['9'],5,0.38367550000111805,0.4,0,AccFast,11,18,Woman,Right,
1,10,1,0.8329856999989715,['n'],1,right,['8'],4,0.616932299999462,0.4,0,AccFast,11,18,Woman,Right,
2,10,1,1.000351499998942,['c'],0,right,['9'],5,0.5505561999998463,0.2,0,AccFast,11,18,Woman,Right,
3,10,1,1.3495468999990408,['c'],1,left,['0'],6,0.6004826999997022,0.1,0,AccFast,11,18,Woman,Right,
4,10,1,1.2661931999991793,['n'],1,right,['8'],4,0.43366380000043137,0.1,0,AccFast,11,18,Woman,Right,
5,10,1,1.2996036000004096,['c'],1,left,['9'],5,0.7172418000009202,0.2,0,AccFast,11,18,Woman,Right,
6,10,1,1.34940590000042,['c'],1,left,['8'],4,0.6839209999998275,0.4,0,AccFast,11,18,Woman,Right,
7,10,1,1.283014099999491,['c'],0,right,['0'],6,0.8671813000000839,0.1,0,AccFast,11,18,Woman,Right,
8,10,1,1.0666477000013401,['c'],1,left,['0'],6,0.4172097999999096,0.4,0,AccFast,11,18,Woman,Right,
9,10,1,1.2327166000013676,['c'],1,left,['0'],6,0.16726179999932356,0.4,0,AccFast,11,18,Woman,Right,
10,10,1,0.8996346999992966,['c'],1,left,['0'],6,0.18384669999977632,0.2,0,AccFast,11,18,Woman,Right,
11,10,1,2.5326566999992792,['n'],0,left,['2'],2,0.8832492999990791,0.1,0,AccFast,11,18,Woman,Right,
12,10,1,1.198906800000259,['c'],1,left,['8'],4,0.23387309999998251,0.2,0,AccFast,11,18,Woman,Right,
13,10,1,1.4824984000006225,['n'],1,right,['9'],5,0.23386589999972784,0.4,0,AccFast,11,18,Woman,Right,
14,10,1,2.2498683000012534,['n'],1,right,['0'],6,0.6675608999994438,0.1,0,AccFast,11,18,Woman,Right,
15,10,1,1.4988087000001542,['n'],1,right,['0'],6,0.18388369999956922,0.2,0,AccFast,11,18,Woman,Right,
16,10,1,1.7165141999994376,['c'],1,left,['8'],4,0.4671543999993446,0.1,0,AccFast,11,18,Woman,Right,
17,10,1,2.0661639000009018,['c'],1,left,['3'],3,0.9505609999996523,0.2,0,AccFast,11,18,Woman,Right,
18,10,1,2.0001071999995474,['c'],1,left,['8'],4,0.6669708999997965,0.2,0,AccFast,11,18,Woman,Right,
19,10,1,2.216231100001096,['n'],1,right,['9'],5,0.6339184999997087,0.1,0,AccFast,11,18,Woman,Right,
20,10,1,2.232796500000404,['c'],1,left,['9'],5,0.7338323999993008,0.1,0,AccFast,11,18,Woman,Right,
21,10,1,1.4826794999989943,['c'],1,left,['0'],6,0.6505139000000781,0.2,0,AccFast,11,18,Woman,Right,
22,10,1,3.032760199999757,['c'],1,left,['8'],4,1.033968099998674,0.1,0,AccFast,11,18,Woman,Right,
23,10,1,2.2148176999999123,['n'],1,right,['8'],4,0.4837549999992916,0.2,0,AccFast,11,18,Woman,Right,
24,10,1,2.1327892999997857,['n'],1,right,['2'],2,0.33333959999981744,0.1,0,AccFast,11,18,Woman,Right,
25,10,1,1.1327977000000828,['n'],1,right,['8'],4,0.18352410000079544,0.2,0,AccFast,11,18,Woman,Right,
26,10,1,1.2661458000002312,['n'],1,right,['9'],5,0.4171793000004982,0.4,0,AccFast,11,18,Woman,Right,
27,10,1,0.9996520000004239,['n'],1,right,['0'],6,0.2338995000009163,0.4,0,AccFast,11,18,Woman,Right,
28,10,1,0.8824518000001262,['c'],1,left,['8'],4,0.40025150000110443,0.4,0,AccFast,11,18,Woman,Right,
29,10,1,1.282968899999105,['c'],1,left,['9'],5,0.3839024999997491,0.4,0,AccFast,11,18,Woman,Right,
30,10,1,2.3834876000000804,['c'],1,left,['3'],3,0.5001360999995086,0.1,0,AccFast,11,18,Woman,Right,
31,10,1,1.0326168999999936,['n'],1,right,['8'],4,0.31729379999887897,0.4,0,AccFast,11,18,Woman,Right,
32,10,1,0.8495327999989968,['n'],1,right,['8'],4,0.21704250000038883,0.1,0,AccFast,11,18,Woman,Right,
33,10,1,0.7163486999997986,['n'],1,right,['9'],5,0.18382860000019718,0.2,0,AccFast,11,18,Woman,Right,
34,10,1,0.8988249999983964,['n'],1,right,['0'],6,0.13373030000002473,0.4,0,AccFast,11,18,Woman,Right,
35,10,1,4.049358399999619,['c'],1,left,['9'],5,0.7839055999993434,0.1,0,AccFast,11,18,Woman,Right,
36,10,1,0.9496091000000888,['n'],1,right,['0'],6,0.3337583000011364,0.2,0,AccFast,11,18,Woman,Right,
37,10,1,1.6993437000000995,['c'],1,left,['3'],3,0.567048299999442,0.2,0,AccFast,11,18,Woman,Right,
38,10,1,0.7663416000013967,['n'],1,right,['0'],6,0.2169690000009723,0.1,0,AccFast,11,18,Woman,Right,
39,10,1,0.832919700000275,['n'],1,right,['0'],6,0.21702160000131698,0.2,0,AccFast,11,18,Woman,Right,
40,10,1,1.4490531999999803,['c'],1,left,['8'],4,0.5507586000003357,0.4,0,AccFast,11,18,Woman,Right,
41,10,1,1.0160472999996273,['c'],1,left,['0'],6,0.2507551999988209,0.4,0,AccFast,11,18,Woman,Right,
42,10,1,0.8494356000010157,['n'],0,left,['0'],6,0.2672779000004084,0.1,0,AccFast,11,18,Woman,Right,
43,10,1,0.9496626000000106,['n'],1,right,['0'],6,0.26719410000077914,0.4,0,AccFast,11,18,Woman,Right,
44,10,1,1.6152749000011681,['c'],0,right,['9'],5,0.2673310999998648,0.1,0,AccFast,11,18,Woman,Right,
45,10,1,1.1995927000007214,['c'],1,left,['9'],5,0.18385370000032708,0.1,0,AccFast,11,18,Woman,Right,
46,10,1,2.682828499999232,['c'],1,left,['8'],4,1.0172827999995206,0.2,0,AccFast,11,18,Woman,Right,
47,10,1,1.082895900000949,['c'],1,left,['9'],5,0.18373659999997471,0.4,0,AccFast,11,18,Woman,Right,
48,10,1,1.7487080999999307,['n'],1,right,['8'],4,0.4834301000009873,0.2,0,AccFast,11,18,Woman,Right,
49,10,1,1.0994883000003028,['n'],1,right,['8'],4,0.3004289999989851,0.1,0,AccFast,11,18,Woman,Right,
50,10,1,2.5322384999999485,['c'],0,right,['8'],4,0.8671960000010586,0.1,0,AccFast,11,18,Woman,Right,
51,10,1,1.8165392999999312,['n'],1,right,['9'],5,0.3505430000004708,0.2,0,AccFast,11,18,Woman,Right,
52,10,1,0.7161629000001994,['n'],1,right,['0'],6,0.21716170000036072,0.4,0,AccFast,11,18,Woman,Right,
53,10,1,0.9496476000003895,['c'],1,left,['0'],6,0.2504659000005631,0.4,0,AccFast,11,18,Woman,Right,
54,10,1,3.249925499998426,['n'],1,right,['3'],3,0.9840500000009342,0.1,0,AccFast,11,18,Woman,Right,
55,10,1,2.683800400000109,['n'],0,left,['2'],2,0.4672542999996949,0.2,0,AccFast,11,18,Woman,Right,
56,10,1,2.949772399999347,['n'],0,left,['8'],4,1.0339708999999857,0.4,0,AccFast,11,18,Woman,Right,
57,10,1,2.4832169999990583,['c'],1,left,['2'],2,0.650574699999197,0.2,0,AccFast,11,18,Woman,Right,
58,10,1,0.9329283999995823,['n'],1,right,['8'],4,0.6005652000003465,0.4,0,AccFast,11,18,Woman,Right,
59,10,1,3.3164116999996622,['c'],0,right,['2'],2,1.1505262999999104,0.2,0,AccFast,11,18,Woman,Right,
0,11,1,2.733581700000286,['n'],1,right,['8'],4,2.216914500000712,0.1,0,AccAcc,11,18,Woman,Right,
1,11,1,1.3656312999992224,['n'],1,right,['0'],6,0.2170951000007335,0.4,0,AccAcc,11,18,Woman,Right,
2,11,1,1.9495684999983496,['n'],1,right,['9'],5,0.4504183999997622,0.1,0,AccAcc,11,18,Woman,Right,
3,11,1,1.1330591999994795,['c'],1,left,['9'],5,0.6505887000002986,0.2,0,AccAcc,11,18,Woman,Right,
4,11,1,0.9153760999997758,['n'],1,right,['0'],6,0.36715559999902325,0.1,0,AccAcc,11,18,Woman,Right,
5,11,1,2.5823349000002054,['n'],1,right,['9'],5,0.8837930999998207,0.2,0,AccAcc,11,18,Woman,Right,
6,11,1,1.366270299999087,['c'],1,left,['8'],4,0.9171022999998968,0.4,0,AccAcc,11,18,Woman,Right,
7,11,1,0.9984753999997338,['c'],1,left,['8'],4,0.41705870000077994,0.1,0,AccAcc,11,18,Woman,Right,
8,11,1,1.166099000000031,['c'],1,left,['9'],5,0.1670880000001489,0.4,0,AccAcc,11,18,Woman,Right,
9,11,1,2.132335799999055,['n'],1,right,['0'],6,0.31698580000011134,0.2,0,AccAcc,11,18,Woman,Right,
10,11,1,1.3318981000011263,['c'],1,left,['8'],4,0.567133600001398,0.2,0,AccAcc,11,18,Woman,Right,
11,11,1,1.6650601999990613,['c'],1,left,['9'],5,0.30054000000018277,0.1,0,AccAcc,11,18,Woman,Right,
12,11,1,0.9658811999997852,['c'],0,right,['0'],6,0.45057449999876553,0.2,0,AccAcc,11,18,Woman,Right,
13,11,1,1.1330930000003718,['c'],1,left,['0'],6,0.2005170000011276,0.1,0,AccAcc,11,18,Woman,Right,
14,11,1,0.9828945000008389,['c'],1,left,['0'],6,0.267156600000817,0.1,0,AccAcc,11,18,Woman,Right,
15,11,1,1.2325676000000385,['c'],1,left,['0'],6,0.2838147000002209,0.4,0,AccAcc,11,18,Woman,Right,
16,11,1,1.832974999999351,['n'],1,right,['8'],4,0.7166710000001331,0.2,0,AccAcc,11,18,Woman,Right,
17,11,1,1.883439900000667,['n'],1,right,['8'],4,0.38343929999973625,0.1,0,AccAcc,11,18,Woman,Right,
18,11,1,1.1667360000010376,['c'],1,left,['8'],4,0.3171275999993668,0.2,0,AccAcc,11,18,Woman,Right,
19,11,1,1.966068900001119,['n'],1,right,['9'],5,0.5505140000004758,0.1,0,AccAcc,11,18,Woman,Right,
20,11,1,2.782146499999726,['c'],0,right,['8'],4,1.1336878000001889,0.1,0,AccAcc,11,18,Woman,Right,
21,11,1,1.4829291999994894,['c'],1,left,['0'],6,0.35048269999970216,0.4,0,AccAcc,11,18,Woman,Right,
22,11,1,1.5819537000006676,['c'],1,left,['0'],6,0.33374689999982365,0.4,0,AccAcc,11,18,Woman,Right,
23,11,1,2.2159659000008105,['n'],1,right,['9'],5,0.700267399999575,0.2,0,AccAcc,11,18,Woman,Right,
24,11,1,1.2663577999992413,['c'],1,left,['0'],6,0.4838746999994328,0.2,0,AccAcc,11,18,Woman,Right,
25,11,1,1.749630000000252,['c'],1,left,['8'],4,0.7339353999996092,0.4,0,AccAcc,11,18,Woman,Right,
26,11,1,1.4828938999999082,['n'],1,right,['0'],6,0.4672274999993533,0.4,0,AccAcc,11,18,Woman,Right,
27,11,1,2.666053599999941,['n'],1,right,['9'],5,0.7672495000006165,0.4,0,AccAcc,11,18,Woman,Right,
28,11,1,2.231789299999946,['n'],1,right,['9'],5,0.7505964999982098,0.2,0,AccAcc,11,18,Woman,Right,
29,11,1,1.7497108000006847,['n'],1,right,['0'],6,0.4838566999987961,0.1,0,AccAcc,11,18,Woman,Right,
30,11,1,2.6167671000002883,['n'],1,right,['8'],4,0.783822199999122,0.2,0,AccAcc,11,18,Woman,Right,
31,11,1,1.182921300000089,['c'],1,left,['9'],5,0.5504450000007637,0.4,0,AccAcc,11,18,Woman,Right,
32,11,1,3.0489025999995647,['c'],0,right,['9'],5,1.03398130000096,0.1,0,AccAcc,11,18,Woman,Right,
33,11,1,0.9661997999992309,['c'],1,left,['9'],5,0.4004888999988907,0.1,0,AccAcc,11,18,Woman,Right,
34,11,1,3.4001129000007495,['c'],0,right,['8'],4,0.8003418999996939,0.1,0,AccAcc,11,18,Woman,Right,
35,11,1,1.3503624000004493,['c'],1,left,['8'],4,0.3671943999997893,0.1,0,AccAcc,11,18,Woman,Right,
36,11,1,1.8661063999988983,['c'],1,left,['8'],4,0.23372639999979583,0.2,0,AccAcc,11,18,Woman,Right,
37,11,1,1.8826833000002807,['n'],1,right,['0'],6,0.4673989000002621,0.2,0,AccAcc,11,18,Woman,Right,
38,11,1,3.200267000000167,['c'],1,left,['2'],2,1.2171570999998949,0.1,0,AccAcc,11,18,Woman,Right,
39,11,1,1.3995899000001373,['c'],1,left,['9'],5,0.3838500000001659,0.4,0,AccAcc,11,18,Woman,Right,
40,11,1,1.049742299999707,['c'],1,left,['0'],6,0.3839706999988266,0.4,0,AccAcc,11,18,Woman,Right,
41,11,1,0.7817935999992187,['c'],1,left,['0'],6,0.28384530000039376,0.4,0,AccAcc,11,18,Woman,Right,
42,11,1,1.1662749999995867,['c'],1,left,['0'],6,0.3338627000011911,0.4,0,AccAcc,11,18,Woman,Right,
43,11,1,1.5162392999991425,['c'],1,left,['0'],6,0.3173701000014262,0.1,0,AccAcc,11,18,Woman,Right,
44,11,1,3.2486675000000105,['n'],0,left,['3'],3,1.050530999998955,0.1,0,AccAcc,11,18,Woman,Right,
45,11,1,1.5981976999992185,['n'],1,right,['9'],5,0.3671739000001253,0.2,0,AccAcc,11,18,Woman,Right,
46,11,1,0.766436199999589,['n'],1,right,['9'],5,0.617228499999328,0.4,0,AccAcc,11,18,Woman,Right,
47,11,1,2.382016300000032,['n'],1,right,['8'],4,0.36723929999971006,0.2,0,AccAcc,11,18,Woman,Right,
48,11,1,2.1663684000013745,['n'],1,right,['2'],2,0.7838618999994651,0.1,0,AccAcc,11,18,Woman,Right,
49,11,1,3.9499243999998725,['n'],0,left,['8'],4,0.9339459000002535,0.2,0,AccAcc,11,18,Woman,Right,
50,11,1,0.8496123000004445,['n'],1,right,['8'],4,0.45093119999910414,0.2,0,AccAcc,11,18,Woman,Right,
51,11,1,1.1829720000005182,['c'],1,left,['8'],4,0.4339061999999103,0.4,0,AccAcc,11,18,Woman,Right,
52,11,1,1.3828020999990258,['n'],1,right,['9'],5,0.48384470000019064,0.2,0,AccAcc,11,18,Woman,Right,
53,11,1,1.5164041999996698,['n'],1,right,['9'],5,0.750276999999187,0.2,0,AccAcc,11,18,Woman,Right,
54,11,1,1.0651766000009957,['c'],1,left,['8'],4,0.483810400000948,0.2,0,AccAcc,11,18,Woman,Right,
55,11,1,0.799574599999687,['n'],1,right,['8'],4,0.46721849999994447,0.4,0,AccAcc,11,18,Woman,Right,
56,11,1,0.9335617999986425,['c'],1,left,['9'],5,0.31697499999972933,0.4,0,AccAcc,11,18,Woman,Right,
57,11,1,0.8166109000012511,['n'],1,right,['9'],5,0.41708139999900595,0.1,0,AccAcc,11,18,Woman,Right,
58,11,1,1.199602300001061,['c'],1,left,['8'],4,0.7837959000007686,0.4,0,AccAcc,11,18,Woman,Right,
59,11,1,0.8495273000007728,['n'],1,right,['9'],5,0.43381269999918004,0.4,0,AccAcc,11,18,Woman,Right,
0,12,1,0.6826638999991701,['n'],1,right,['9'],5,1.3006280999998125,0.4,0,FastAcc,11,18,Woman,Right,
1,12,1,0.5166059000002861,['c'],1,left,['8'],4,0.5672131999999692,0.4,0,FastAcc,11,18,Woman,Right,
2,12,1,0.7998087000014493,['n'],0,left,['9'],5,1.033716199999617,0.2,0,FastAcc,11,18,Woman,Right,
3,12,1,0.4498667000007117,['c'],1,left,['0'],6,0.5337588999991567,0.4,0,FastAcc,11,18,Woman,Right,
4,12,1,0.49969790000068315,['n'],0,left,['2'],2,0.9338360000001558,0.1,0,FastAcc,11,18,Woman,Right,
5,12,1,0.549986699999863,['n'],1,right,['9'],5,0.8003905000005034,0.2,0,FastAcc,11,18,Woman,Right,
6,12,1,0.5667448000003787,['n'],1,right,['0'],6,0.5838785000014468,0.4,0,FastAcc,11,18,Woman,Right,
7,12,1,0.49973919999865757,['c'],1,left,['0'],6,0.467184899998756,0.1,0,FastAcc,11,18,Woman,Right,
8,12,1,0.582968400000027,['n'],1,right,['0'],6,0.7172662999983004,0.4,0,FastAcc,11,18,Woman,Right,
9,12,1,0.4995052000012947,['c'],1,left,['0'],6,0.3170876000003773,0.1,0,FastAcc,11,18,Woman,Right,
10,12,1,0.5662821999994776,['n'],1,right,['9'],5,0.5005123999999341,0.4,0,FastAcc,11,18,Woman,Right,
11,12,1,0.9999955000002956,['n'],1,right,['9'],5,0.6166597999999794,0.2,0,FastAcc,11,18,Woman,Right,
12,12,1,1.3822688999989623,['n'],1,right,['9'],5,0.45050740000078804,0.2,0,FastAcc,11,18,Woman,Right,
13,12,1,0.8832155000000057,['n'],1,right,['2'],2,0.8672735000000102,0.1,0,FastAcc,11,18,Woman,Right,
14,12,1,1.233488200001375,['c'],1,left,['8'],4,0.4504957999997714,0.1,0,FastAcc,11,18,Woman,Right,
15,12,1,1.0662148999999772,['n'],1,right,['9'],5,0.7339178999991418,0.4,0,FastAcc,11,18,Woman,Right,
16,12,1,1.2495811999997386,['c'],1,left,['8'],4,0.6671948000002885,0.1,0,FastAcc,11,18,Woman,Right,
17,12,1,1.6165075999997498,['n'],0,left,['1'],1,1.3007596999996167,0.4,0,FastAcc,11,18,Woman,Right,
18,12,1,1.0661467000008997,['c'],1,left,['8'],4,0.7504509999998845,0.2,0,FastAcc,11,18,Woman,Right,
19,12,1,0.7495359999993525,['c'],1,left,['9'],5,0.31711749999885797,0.1,0,FastAcc,11,18,Woman,Right,
20,12,1,1.0336048000008304,['c'],1,left,['0'],6,0.6838291999993089,0.2,0,FastAcc,11,18,Woman,Right,
21,12,1,0.5665584999987914,['n'],1,right,['0'],6,0.5170674999990297,0.2,0,FastAcc,11,18,Woman,Right,
22,12,1,0.5664577999996254,['c'],1,left,['9'],5,0.45049720000133675,0.1,0,FastAcc,11,18,Woman,Right,
23,12,1,1.2833966000016517,['c'],1,left,['0'],6,0.6003264000009949,0.1,0,FastAcc,11,18,Woman,Right,
24,12,1,1.683434099999431,['c'],1,left,['3'],3,1.3005594999995083,0.1,0,FastAcc,11,18,Woman,Right,
25,12,1,0.8162275999984558,['c'],1,left,['8'],4,0.7340214000014385,0.4,0,FastAcc,11,18,Woman,Right,
26,12,1,1.4329160999986925,['n'],1,right,['8'],4,0.9505752999994002,0.2,0,FastAcc,11,18,Woman,Right,
27,12,1,2.4668142999998963,['n'],1,right,['2'],2,1.3338091999994504,0.1,0,FastAcc,11,18,Woman,Right,
28,12,1,1.199044299999514,['c'],0,right,['8'],4,0.8672129999995377,0.2,0,FastAcc,11,18,Woman,Right,
29,12,1,0.6837731000014173,['n'],1,right,['8'],4,1.3005047000006016,0.4,0,FastAcc,11,18,Woman,Right,
30,12,1,0.6665460000003804,['c'],1,left,['9'],5,0.41708289999951376,0.4,0,FastAcc,11,18,Woman,Right,
31,12,1,0.9498691999997391,['c'],1,left,['9'],5,0.5502227000015409,0.2,0,FastAcc,11,18,Woman,Right,
32,12,1,1.0664190999996208,['n'],1,right,['0'],6,0.4171994000007544,0.4,0,FastAcc,11,18,Woman,Right,
33,12,1,3.5327596999995876,['n'],1,right,['2'],2,0.850342499999897,0.2,0,FastAcc,11,18,Woman,Right,
34,12,1,0.6994706999994378,['c'],1,left,['8'],4,0.6337743000003684,0.2,0,FastAcc,11,18,Woman,Right,
35,12,1,0.8497805999995762,['c'],1,left,['8'],4,0.23396779999893624,0.2,0,FastAcc,11,18,Woman,Right,
36,12,1,0.7833573999996588,['n'],1,right,['9'],5,0.28382260000034876,0.4,0,FastAcc,11,18,Woman,Right,
37,12,1,1.166687599999932,['c'],0,right,['8'],4,0.35047909999957483,0.2,0,FastAcc,11,18,Woman,Right,
38,12,1,2.5161608999987948,['n'],1,right,['9'],5,1.1173439000012877,0.2,0,FastAcc,11,18,Woman,Right,
39,12,1,1.31654829999934,['c'],0,right,['8'],4,0.7005482000004122,0.1,0,FastAcc,11,18,Woman,Right,
40,12,1,1.5161640000005718,['c'],1,left,['8'],4,0.6007279999994353,0.1,0,FastAcc,11,18,Woman,Right,
41,12,1,1.8994954000008875,['n'],0,left,['3'],3,0.9503836000003503,0.4,0,FastAcc,11,18,Woman,Right,
42,12,1,1.2995219000004,['n'],1,right,['0'],6,0.4838374000009935,0.4,0,FastAcc,11,18,Woman,Right,
43,12,1,0.900292399999671,['c'],1,left,['0'],6,0.317332599999645,0.2,0,FastAcc,11,18,Woman,Right,
44,12,1,0.7328089000002365,['c'],1,left,['0'],6,0.28382480000072974,0.4,0,FastAcc,11,18,Woman,Right,
45,12,1,0.7663659999998345,['c'],1,left,['0'],6,0.2672491000012087,0.1,0,FastAcc,11,18,Woman,Right,
46,12,1,1.3329467000003206,['n'],1,right,['9'],5,0.8005009000007703,0.1,0,FastAcc,11,18,Woman,Right,
47,12,1,0.6490911000000779,['n'],1,right,['0'],6,0.3505806000011944,0.4,0,FastAcc,11,18,Woman,Right,
48,12,1,1.682945300000938,['c'],1,left,['9'],5,0.6670322000009037,0.1,0,FastAcc,11,18,Woman,Right,
49,12,1,0.8664997000014409,['n'],1,right,['0'],6,0.48413719999916793,0.4,0,FastAcc,11,18,Woman,Right,
50,12,1,2.700290999999197,['n'],1,right,['3'],3,0.8170337999999902,0.1,0,FastAcc,11,18,Woman,Right,
51,12,1,1.7660207000008086,['c'],1,left,['8'],4,1.41719269999885,0.2,0,FastAcc,11,18,Woman,Right,
52,12,1,1.332848500000182,['c'],1,left,['9'],5,0.7505724000002374,0.1,0,FastAcc,11,18,Woman,Right,
53,12,1,1.2667222000000038,['n'],1,right,['0'],6,0.3171428999994532,0.1,0,FastAcc,11,18,Woman,Right,
54,12,1,1.3661012000011397,['n'],1,right,['0'],6,0.2338501999984146,0.1,0,FastAcc,11,18,Woman,Right,
55,12,1,1.4829442999998719,['c'],1,left,['8'],4,0.7339754999993602,0.4,0,FastAcc,11,18,Woman,Right,
56,12,1,0.7330994000003557,['c'],1,left,['9'],5,0.4004414999999426,0.4,0,FastAcc,11,18,Woman,Right,
57,12,1,1.2162305999991077,['n'],1,right,['0'],6,0.2838202999992063,0.2,0,FastAcc,11,18,Woman,Right,
58,12,1,1.1995710999999574,['n'],1,right,['0'],6,0.38381180000033055,0.2,0,FastAcc,11,18,Woman,Right,
59,12,1,1.0494474000006448,['n'],1,right,['9'],5,0.43379149999964284,0.2,0,FastAcc,11,18,Woman,Right,
0,13,1,0.7165820000009262,['n'],1,right,['8'],4,0.23373689999971248,0.4,0,FastFast,11,18,Woman,Right,
1,13,1,1.216454600000361,['c'],0,right,['2'],2,0.2505985000007058,0.1,0,FastFast,11,18,Woman,Right,
2,13,1,0.6332074999991164,['n'],0,left,['9'],5,0.25053140000090934,0.1,0,FastFast,11,18,Woman,Right,
3,13,1,0.6155751999995118,['c'],1,left,['9'],5,0.21731940000063332,0.4,0,FastFast,11,18,Woman,Right,
4,13,1,0.6662376999993285,['n'],1,right,['0'],6,0.26709870000013325,0.2,0,FastFast,11,18,Woman,Right,
5,13,1,0.6329380000006495,['n'],1,right,['0'],6,0.20041399999900023,0.4,0,FastFast,11,18,Woman,Right,
6,13,1,0.4323019999992539,['c'],1,left,['0'],6,0.18366359999890847,0.4,0,FastFast,11,18,Woman,Right,
7,13,1,0.8327193000004627,['n'],1,right,['3'],3,0.7338531000004878,0.2,0,FastFast,11,18,Woman,Right,
8,13,1,1.2996129000002838,['c'],1,left,['9'],5,0.28388249999989057,0.4,0,FastFast,11,18,Woman,Right,
9,13,1,0.8327924000004714,['c'],1,left,['0'],6,0.2340745000001334,0.1,0,FastFast,11,18,Woman,Right,
10,13,1,0.9161954000010155,['c'],1,left,['8'],4,0.25045350000073086,0.2,0,FastFast,11,18,Woman,Right,
11,13,1,1.2996775999999954,['n'],0,left,['9'],5,0.23391540000011446,0.1,0,FastFast,11,18,Woman,Right,
12,13,1,0.8826442999998108,['c'],1,left,['9'],5,0.23389979999956267,0.2,0,FastFast,11,18,Woman,Right,
13,13,1,1.4169394000000466,['n'],1,right,['0'],6,0.23382179999862274,0.2,0,FastFast,11,18,Woman,Right,
14,13,1,1.0330404999986058,['c'],0,right,['8'],4,0.16709170000103768,0.4,0,FastFast,11,18,Woman,Right,
15,13,1,0.949635599999965,['n'],1,right,['0'],6,0.30053339999903983,0.4,0,FastFast,11,18,Woman,Right,
16,13,1,0.7676998000006279,['n'],1,right,['8'],4,0.2168973999996524,0.4,0,FastFast,11,18,Woman,Right,
17,13,1,1.0837553999990632,['c'],1,left,['9'],5,0.1840412000001379,0.2,0,FastFast,11,18,Woman,Right,
18,13,1,1.2499048999998195,['c'],1,left,['9'],5,0.2503922000014427,0.2,0,FastFast,11,18,Woman,Right,
19,13,1,1.4664894999987155,['c'],1,left,['8'],4,0.20041439999840804,0.2,0,FastFast,11,18,Woman,Right,
20,13,1,1.466550000001007,['n'],0,left,['0'],6,0.3675134999994043,0.1,0,FastFast,11,18,Woman,Right,
21,13,1,1.4163619999999355,['c'],1,left,['0'],6,0.3172842000003584,0.4,0,FastFast,11,18,Woman,Right,
22,13,1,1.4160835999991832,['c'],0,right,['0'],6,0.15068049999899813,0.1,0,FastFast,11,18,Woman,Right,
23,13,1,1.033106000000771,['c'],1,left,['0'],6,0.26705240000046615,0.4,0,FastFast,11,18,Woman,Right,
24,13,1,1.1496437999994669,['n'],1,right,['8'],4,0.31709679999949003,0.4,0,FastFast,11,18,Woman,Right,
25,13,1,1.5161929999994754,['n'],1,right,['8'],4,0.4504526000000624,0.2,0,FastFast,11,18,Woman,Right,
26,13,1,0.8829187000010279,['n'],1,right,['9'],5,0.3004743999990751,0.1,0,FastFast,11,18,Woman,Right,
27,13,1,1.699660500000391,['n'],0,left,['9'],5,0.26713960000051884,0.1,0,FastFast,11,18,Woman,Right,
28,13,1,0.9662958000008075,['n'],1,right,['9'],5,0.26709479999954056,0.4,0,FastFast,11,18,Woman,Right,
29,13,1,1.5995569000006071,['n'],0,left,['3'],3,1.0339790000016365,0.1,0,FastFast,11,18,Woman,Right,
30,13,1,1.2330058999996254,['n'],1,right,['0'],6,0.3338309000009758,0.1,0,FastFast,11,18,Woman,Right,
31,13,1,1.1663742999990063,['c'],1,left,['9'],5,0.2671527000002243,0.4,0,FastFast,11,18,Woman,Right,
32,13,1,0.8830178000007436,['n'],1,right,['0'],6,0.26727630000095814,0.1,0,FastFast,11,18,Woman,Right,
33,13,1,0.7831129999995028,['n'],1,right,['8'],4,0.250660900001094,0.2,0,FastFast,11,18,Woman,Right,
34,13,1,0.9166279000000941,['n'],1,right,['8'],4,0.2172493999987637,0.4,0,FastFast,11,18,Woman,Right,
35,13,1,0.9997755999993387,['c'],1,left,['8'],4,0.21712850000039907,0.2,0,FastFast,11,18,Woman,Right,
36,13,1,0.6330135999996855,['n'],1,right,['8'],4,0.20059390000096755,0.1,0,FastFast,11,18,Woman,Right,
37,13,1,1.8828205999998318,['n'],0,left,['3'],3,0.4670943000000989,0.1,0,FastFast,11,18,Woman,Right,
38,13,1,1.5497637999997096,['c'],1,left,['8'],4,0.21681309999985388,0.4,0,FastFast,11,18,Woman,Right,
39,13,1,1.0663291000000754,['n'],0,left,['8'],4,0.20049629999994067,0.4,0,FastFast,11,18,Woman,Right,
40,13,1,1.9833142000006774,['c'],1,left,['2'],2,1.2336820999989868,0.2,0,FastFast,11,18,Woman,Right,
41,13,1,1.2829055999991397,['n'],1,right,['8'],4,0.1501842999987275,0.4,0,FastFast,11,18,Woman,Right,
42,13,1,2.0662495999986277,['c'],0,right,['9'],5,0.26733749999948486,0.2,0,FastFast,11,18,Woman,Right,
43,13,1,0.9994231999990006,['n'],1,right,['8'],4,0.26716709999891464,0.4,0,FastFast,11,18,Woman,Right,
44,13,1,1.0497545999987778,['n'],1,right,['9'],5,0.26694490000045334,0.1,0,FastFast,11,18,Woman,Right,
45,13,1,1.1825189999999566,['c'],0,right,['8'],4,0.23384600000099454,0.1,0,FastFast,11,18,Woman,Right,
46,13,1,2.182908500000849,['c'],0,right,['8'],4,1.1171255000008387,0.1,0,FastFast,11,18,Woman,Right,
47,13,1,0.8495865000004414,['n'],1,right,['9'],5,0.36706219999905443,0.2,0,FastFast,11,18,Woman,Right,
48,13,1,1.0830865999996604,['n'],1,right,['8'],4,0.15058780000072147,0.2,0,FastFast,11,18,Woman,Right,
49,13,1,2.150435899999138,['n'],1,right,['9'],5,0.5505425999999716,0.1,0,FastFast,11,18,Woman,Right,
50,13,1,0.7661724999998114,['n'],1,right,['0'],6,0.36707580000074813,0.2,0,FastFast,11,18,Woman,Right,
51,13,1,0.8167963999985659,['c'],1,left,['8'],4,0.23385870000129216,0.2,0,FastFast,11,18,Woman,Right,
52,13,1,0.8337047999993956,['c'],1,left,['0'],6,0.18395019999843498,0.4,0,FastFast,11,18,Woman,Right,
53,13,1,1.38216040000043,['n'],1,right,['8'],4,0.20049420000032114,0.2,0,FastFast,11,18,Woman,Right,
54,13,1,0.899391500001002,['c'],1,left,['0'],6,0.2504150999993726,0.2,0,FastFast,11,18,Woman,Right,
55,13,1,1.3495228000010684,['c'],1,left,['8'],4,0.2841914000000543,0.4,0,FastFast,11,18,Woman,Right,
56,13,1,1.9165412999991531,['n'],0,left,['9'],5,0.36693560000094294,0.2,0,FastFast,11,18,Woman,Right,
57,13,1,2.1160771000013483,['n'],0,left,['8'],4,0.25054459999955725,0.1,0,FastFast,11,18,Woman,Right,
58,13,1,1.2497098000003461,['n'],0,left,['8'],4,0.16698619999988296,0.1,0,FastFast,11,18,Woman,Right,
59,13,1,1.766299799999615,['n'],0,left,['9'],5,0.3338789999997971,0.1,0,FastFast,11,18,Woman,Right,
0,14,1,1.5990344999991066,['n'],0,left,['9'],5,0.40065320000030624,0.1,0,AccFast,11,18,Woman,Right,
1,14,1,1.199410600000192,['n'],1,right,['8'],4,0.2004863000001933,0.1,0,AccFast,11,18,Woman,Right,
2,14,1,1.199594800000341,['c'],1,left,['9'],5,0.23373290000017732,0.2,0,AccFast,11,18,Woman,Right,
3,14,1,1.1994005999986257,['c'],1,left,['9'],5,0.3671009999998205,0.1,0,AccFast,11,18,Woman,Right,
4,14,1,1.7829150000015943,['n'],1,right,['9'],5,0.3838997999991989,0.2,0,AccFast,11,18,Woman,Right,
5,14,1,1.0664544999999634,['c'],1,left,['0'],6,0.23385629999938828,0.4,0,AccFast,11,18,Woman,Right,
6,14,1,1.832413500000257,['c'],1,left,['0'],6,0.3336122000000614,0.4,0,AccFast,11,18,Woman,Right,
7,14,1,1.1335367000010592,['n'],0,left,['0'],6,0.283815599999798,0.1,0,AccFast,11,18,Woman,Right,
8,14,1,0.9658994999990682,['n'],1,right,['0'],6,0.18391029999838793,0.4,0,AccFast,11,18,Woman,Right,
9,14,1,1.3332497000010335,['n'],1,right,['0'],6,0.2840304000001197,0.1,0,AccFast,11,18,Woman,Right,
10,14,1,1.732891899999231,['n'],1,right,['0'],6,0.2839076999989629,0.1,0,AccFast,11,18,Woman,Right,
11,14,1,2.050096400000257,['n'],0,left,['0'],6,0.28398550000019895,0.1,0,AccFast,11,18,Woman,Right,
12,14,1,1.3497994000008475,['c'],1,left,['9'],5,0.35046150000016496,0.2,0,AccFast,11,18,Woman,Right,
13,14,1,1.2997546999995393,['c'],0,right,['8'],4,0.30048189999979513,0.1,0,AccFast,11,18,Woman,Right,
14,14,1,1.5998137999995379,['n'],1,right,['9'],5,0.3005931999996392,0.2,0,AccFast,11,18,Woman,Right,
15,14,1,1.2831077999999252,['n'],1,right,['0'],6,0.23373890000038955,0.1,0,AccFast,11,18,Woman,Right,
16,14,1,0.9994666000002326,['c'],1,left,['8'],4,0.3339090000008582,0.4,0,AccFast,11,18,Woman,Right,
17,14,1,1.0165844000002835,['c'],1,left,['9'],5,0.3171306000003824,0.1,0,AccFast,11,18,Woman,Right,
18,14,1,0.9493016999986139,['n'],1,right,['0'],6,0.30044920000000275,0.4,0,AccFast,11,18,Woman,Right,
19,14,1,0.6996489000011934,['c'],0,right,['0'],6,0.2837120000003779,0.1,0,AccFast,11,18,Woman,Right,
20,14,1,1.1829521999989083,['c'],1,left,['0'],6,0.16702520000035292,0.2,0,AccFast,11,18,Woman,Right,
21,14,1,2.26570940000056,['n'],0,left,['0'],6,0.18376079999870853,0.2,0,AccFast,11,18,Woman,Right,
22,14,1,0.9828921999996965,['c'],1,left,['0'],6,0.38384229999974195,0.2,0,AccFast,11,18,Woman,Right,
23,14,1,1.0829579000001104,['c'],1,left,['0'],6,0.3005052999997133,0.4,0,AccFast,11,18,Woman,Right,
24,14,1,1.3495540999992954,['c'],1,left,['0'],6,0.33383190000131435,0.2,0,AccFast,11,18,Woman,Right,
25,14,1,1.3991562999999587,['n'],0,left,['8'],4,0.2504140000000916,0.2,0,AccFast,11,18,Woman,Right,
26,14,1,1.1835979999996198,['c'],1,left,['9'],5,0.5005216999998083,0.4,0,AccFast,11,18,Woman,Right,
27,14,1,0.6663544999992155,['c'],1,left,['9'],5,0.40067350000026636,0.2,0,AccFast,11,18,Woman,Right,
28,14,1,1.0833399000002828,['n'],1,right,['0'],6,0.1672286000011809,0.4,0,AccFast,11,18,Woman,Right,
29,14,1,2.4665364000011323,['c'],0,right,['3'],3,0.8007993000010174,0.1,0,AccFast,11,18,Woman,Right,
30,14,1,2.0826968000001216,['n'],1,right,['9'],5,0.333645599999727,0.1,0,AccFast,11,18,Woman,Right,
31,14,1,1.6840869000006933,['n'],0,left,['8'],4,0.5672014000010677,0.2,0,AccFast,11,18,Woman,Right,
32,14,1,0.9665461000004143,['c'],1,left,['9'],5,0.5169592000002012,0.4,0,AccFast,11,18,Woman,Right,
33,14,1,1.0493917999992846,['n'],1,right,['8'],4,0.21719769999981509,0.1,0,AccFast,11,18,Woman,Right,
34,14,1,1.2650178000003507,['c'],1,left,['9'],5,0.4838374000009935,0.4,0,AccFast,11,18,Woman,Right,
35,14,1,2.6330348000010417,['n'],0,left,['9'],5,0.48381789999984903,0.2,0,AccFast,11,18,Woman,Right,
36,14,1,1.6330097999998543,['n'],0,left,['8'],4,0.3671522000004188,0.2,0,AccFast,11,18,Woman,Right,
37,14,1,0.9172588000001269,['c'],1,left,['8'],4,0.43398770000021614,0.4,0,AccFast,11,18,Woman,Right,
38,14,1,1.7997014000011404,['n'],1,right,['0'],6,0.2670885999996244,0.4,0,AccFast,11,18,Woman,Right,
39,14,1,0.7828301999998075,['n'],1,right,['0'],6,0.2004835000007006,0.4,0,AccFast,11,18,Woman,Right,
40,14,1,1.8997251999990112,['n'],1,right,['0'],6,0.16715750000003027,0.1,0,AccFast,11,18,Woman,Right,
41,14,1,1.3329994000014267,['n'],1,right,['0'],6,0.28383629999916593,0.2,0,AccFast,11,18,Woman,Right,
42,14,1,1.1830434999992576,['c'],1,left,['0'],6,0.2504851999983657,0.2,0,AccFast,11,18,Woman,Right,
43,14,1,0.9826766000005591,['c'],0,right,['8'],4,0.36700740000014775,0.1,0,AccFast,11,18,Woman,Right,
44,14,1,1.766094200000225,['c'],1,left,['3'],3,0.41730230000030133,0.1,0,AccFast,11,18,Woman,Right,
45,14,1,1.2997540999986086,['c'],1,left,['8'],4,0.31709439999940514,0.2,0,AccFast,11,18,Woman,Right,
46,14,1,0.8333748999993986,['n'],1,right,['8'],4,0.23380990000077873,0.4,0,AccFast,11,18,Woman,Right,
47,14,1,2.4673923999998806,['n'],1,right,['2'],2,0.8005818000001454,0.2,0,AccFast,11,18,Woman,Right,
48,14,1,1.1990091000006942,['n'],1,right,['8'],4,0.2505252000009932,0.4,0,AccFast,11,18,Woman,Right,
49,14,1,0.9988855000010517,['c'],1,left,['8'],4,0.3004860999990342,0.2,0,AccFast,11,18,Woman,Right,
50,14,1,1.1497005999990506,['c'],1,left,['9'],5,0.233550799999648,0.4,0,AccFast,11,18,Woman,Right,
51,14,1,3.4501264999998966,['n'],1,right,['2'],2,0.7673316000000341,0.1,0,AccFast,11,18,Woman,Right,
52,14,1,1.0164074999993318,['n'],1,right,['8'],4,0.4005053000000771,0.1,0,AccFast,11,18,Woman,Right,
53,14,1,2.865991999999096,['n'],1,right,['8'],4,0.9505650999999489,0.4,0,AccFast,11,18,Woman,Right,
54,14,1,3.1496339999994234,['n'],1,right,['8'],4,0.4671691000003193,0.4,0,AccFast,11,18,Woman,Right,
55,14,1,2.9491030999997747,['n'],1,right,['8'],4,0.7505614000001515,0.2,0,AccFast,11,18,Woman,Right,
56,14,1,1.3994698000005883,['n'],1,right,['9'],5,0.46699009999974805,0.4,0,AccFast,11,18,Woman,Right,
57,14,1,3.799514599999384,['n'],1,right,['2'],2,1.217172800001208,0.1,0,AccFast,11,18,Woman,Right,
58,14,1,1.4164044999997714,['n'],0,left,['2'],2,0.9505310999993526,0.4,0,AccFast,11,18,Woman,Right,
59,14,1,1.3664714000005915,['c'],0,right,['8'],4,0.850579400001152,0.2,0,AccFast,11,18,Woman,Right,
0,15,1,1.3666491999993013,['c'],1,left,['8'],4,0.750418499999796,0.1,0,AccAcc,11,18,Woman,Right,
1,15,1,1.2498728999999003,['c'],1,left,['9'],5,0.45062049999978626,0.4,0,AccAcc,11,18,Woman,Right,
2,15,1,0.8162374999992608,['n'],1,right,['0'],6,0.40080500000112806,0.4,0,AccAcc,11,18,Woman,Right,
3,15,1,1.2836186999993515,['n'],1,right,['0'],6,0.4837364000013622,0.2,0,AccAcc,11,18,Woman,Right,
4,15,1,1.199766700001419,['c'],1,left,['8'],4,0.35044789999847126,0.2,0,AccAcc,11,18,Woman,Right,
5,15,1,1.9996310000005906,['n'],1,right,['9'],5,0.6172163000010187,0.1,0,AccAcc,11,18,Woman,Right,
6,15,1,1.68299289999959,['c'],1,left,['8'],4,0.6505146999988938,0.2,0,AccAcc,11,18,Woman,Right,
7,15,1,0.7167846000011195,['c'],1,left,['8'],4,0.7337614000007306,0.4,0,AccAcc,11,18,Woman,Right,
8,15,1,0.8995477000007668,['c'],1,left,['0'],6,0.21716510000078415,0.4,0,AccAcc,11,18,Woman,Right,
9,15,1,0.8159159000006184,['n'],1,right,['0'],6,0.3004160000000411,0.4,0,AccAcc,11,18,Woman,Right,
10,15,1,1.5489273000002868,['n'],1,right,['0'],6,0.3671856000000844,0.4,0,AccAcc,11,18,Woman,Right,
11,15,1,1.1328372999996645,['c'],1,left,['9'],5,0.36708589999943797,0.2,0,AccAcc,11,18,Woman,Right,
12,15,1,0.8995692000007693,['n'],1,right,['0'],6,0.33387890000085463,0.4,0,AccAcc,11,18,Woman,Right,
13,15,1,1.3495337999993353,['n'],1,right,['9'],5,0.6338379999997414,0.1,0,AccAcc,11,18,Woman,Right,
14,15,1,1.8164190000006784,['n'],1,right,['2'],2,1.0670929000007163,0.1,0,AccAcc,11,18,Woman,Right,
15,15,1,0.8999404999995022,['c'],1,left,['9'],5,0.5839796000000206,0.4,0,AccAcc,11,18,Woman,Right,
16,15,1,0.7496814999994967,['c'],1,left,['0'],6,0.31714110000029905,0.4,0,AccAcc,11,18,Woman,Right,
17,15,1,0.8499759000005724,['c'],0,right,['0'],6,0.40039919999981066,0.1,0,AccAcc,11,18,Woman,Right,
18,15,1,0.9161325000004581,['c'],1,left,['0'],6,0.3505019000003813,0.2,0,AccAcc,11,18,Woman,Right,
19,15,1,1.799865700000737,['c'],0,right,['8'],4,1.3837616999990132,0.1,0,AccAcc,11,18,Woman,Right,
20,15,1,2.4160651000001963,['n'],0,left,['9'],5,0.6007647999995243,0.2,0,AccAcc,11,18,Woman,Right,
21,15,1,0.9331139000005351,['c'],1,left,['0'],6,0.4672327000007499,0.2,0,AccAcc,11,18,Woman,Right,
22,15,1,1.6331289999998262,['n'],1,right,['0'],6,0.4671902999998565,0.1,0,AccAcc,11,18,Woman,Right,
23,15,1,0.9662731000007625,['c'],1,left,['9'],5,0.6171024999985093,0.2,0,AccAcc,11,18,Woman,Right,
24,15,1,1.582633399999395,['c'],1,left,['0'],6,0.5507832000002963,0.2,0,AccAcc,11,18,Woman,Right,
25,15,1,2.0163634000000457,['n'],1,right,['8'],4,1.3170343999991019,0.2,0,AccAcc,11,18,Woman,Right,
26,15,1,1.6495054999995773,['n'],1,right,['9'],5,0.5172071000015421,0.2,0,AccAcc,11,18,Woman,Right,
27,15,1,0.916210699999283,['c'],1,left,['0'],6,0.46724340000037046,0.4,0,AccAcc,11,18,Woman,Right,
28,15,1,0.9666240000005928,['n'],1,right,['0'],6,0.20057919999999285,0.4,0,AccAcc,11,18,Woman,Right,
29,15,1,2.199660100000983,['c'],0,right,['9'],5,0.5671452999995381,0.1,0,AccAcc,11,18,Woman,Right,
30,15,1,1.7328372000010859,['c'],1,left,['8'],4,0.5170410000009724,0.2,0,AccAcc,11,18,Woman,Right,
31,15,1,1.1835508000003756,['c'],1,left,['9'],5,0.4506017999992764,0.2,0,AccAcc,11,18,Woman,Right,
32,15,1,3.1828693999996176,['c'],0,right,['8'],4,0.8838285000001633,0.1,0,AccAcc,11,18,Woman,Right,
33,15,1,1.4661938000008377,['n'],1,right,['9'],5,0.46716079999896465,0.2,0,AccAcc,11,18,Woman,Right,
34,15,1,1.548473599999852,['n'],1,right,['9'],5,0.40048749999914435,0.4,0,AccAcc,11,18,Woman,Right,
35,15,1,3.0659888999998657,['n'],1,right,['8'],4,1.4674097999995865,0.1,0,AccAcc,11,18,Woman,Right,
36,15,1,3.1163366999990103,['n'],1,right,['8'],4,0.8004806999997527,0.1,0,AccAcc,11,18,Woman,Right,
37,15,1,2.6327075000008335,['n'],0,left,['8'],4,0.5670064000005368,0.2,0,AccAcc,11,18,Woman,Right,
38,15,1,3.0157959000007395,['n'],1,right,['8'],4,0.5672761999994691,0.2,0,AccAcc,11,18,Woman,Right,
39,15,1,0.9160835999991832,['n'],1,right,['8'],4,0.5338393000001815,0.4,0,AccAcc,11,18,Woman,Right,
40,15,1,3.3662272000001394,['c'],0,right,['8'],4,1.6505332999986422,0.1,0,AccAcc,11,18,Woman,Right,
41,15,1,1.8661085000003368,['c'],0,right,['9'],5,0.6674509000004036,0.2,0,AccAcc,11,18,Woman,Right,
42,15,1,2.766231499999776,['c'],0,right,['3'],3,0.8672119000002567,0.1,0,AccAcc,11,18,Woman,Right,
43,15,1,2.249124900001334,['c'],1,left,['8'],4,0.48382539999875007,0.1,0,AccAcc,11,18,Woman,Right,
44,15,1,3.1998192999999446,['c'],0,right,['8'],4,0.8837311000006594,0.2,0,AccAcc,11,18,Woman,Right,
45,15,1,1.8328824999989592,['c'],1,left,['8'],4,0.3838458999998693,0.4,0,AccAcc,11,18,Woman,Right,
46,15,1,2.4662627999987308,['c'],1,left,['8'],4,0.43394009999974514,0.4,0,AccAcc,11,18,Woman,Right,
47,15,1,2.616224200000943,['c'],1,left,['8'],4,0.46722959999897284,0.4,0,AccAcc,11,18,Woman,Right,
48,15,1,3.366394799999398,['c'],1,left,['8'],4,0.4171943999990617,0.1,0,AccAcc,11,18,Woman,Right,
49,15,1,2.5831718999997975,['n'],0,left,['8'],4,0.3837446000015916,0.4,0,AccAcc,11,18,Woman,Right,
50,15,1,2.332892799999172,['n'],1,right,['9'],5,0.783871799998451,0.4,0,AccAcc,11,18,Woman,Right,
51,15,1,3.466086799999175,['n'],0,left,['9'],5,0.4339085999999952,0.4,0,AccAcc,11,18,Woman,Right,
52,15,1,4.949255800000174,['c'],1,left,['2'],2,1.9340697000006912,0.1,0,AccAcc,11,18,Woman,Right,
53,15,1,1.7661772000010387,['c'],0,right,['8'],4,0.3669875999985379,0.1,0,AccAcc,11,18,Woman,Right,
54,15,1,1.732999400001063,['c'],1,left,['8'],4,0.21711780000077852,0.2,0,AccAcc,11,18,Woman,Right,
55,15,1,1.5321970000004512,['c'],0,right,['8'],4,0.2838272999997571,0.1,0,AccAcc,11,18,Woman,Right,
56,15,1,2.782943599999271,['n'],0,left,['9'],5,0.6171591000002081,0.2,0,AccAcc,11,18,Woman,Right,
57,15,1,2.8493392999989737,['c'],1,left,['1'],1,0.667198199998893,0.1,0,AccAcc,11,18,Woman,Right,
58,15,1,3.1828271000013046,['c'],1,left,['2'],2,0.7838764000007359,0.1,0,AccAcc,11,18,Woman,Right,
59,15,1,0.9662950000001729,['n'],1,right,['8'],4,0.6337777999997343,0.4,0,AccAcc,11,18,Woman,Right,
