withinblocktrial,block,block_repetition,rt,resp,cor,cresp,conf_press,cj,rtconf,coherence,metacognition,slow_trial,manipulation,sub,age,gender,handedness,
0,1,1,2.0828684000007343,['n'],1,right,none,-99,-99,0.5,-99,0,none,38,17,Woman,Right,
1,1,1,0.9347560000005615,['c'],0,right,none,-99,-99,0.5,-99,0,none,38,17,Woman,Right,
2,1,1,0.6858058999987406,['c'],1,left,none,-99,-99,0.5,-99,0,none,38,17,Woman,Right,
3,1,1,1.7177188000005117,['c'],1,left,none,-99,-99,0.5,-99,0,none,38,17,Woman,Right,
4,1,1,1.282559899998887,['n'],1,right,none,-99,-99,0.5,-99,0,none,38,17,Woman,Right,
5,1,1,1.384417699999176,['n'],1,right,none,-99,-99,0.5,-99,0,none,38,17,Woman,Right,
6,1,1,1.3666729999986273,['n'],1,right,none,-99,-99,0.5,-99,0,none,38,17,Woman,Right,
7,1,1,0.884662100001151,['c'],1,left,none,-99,-99,0.5,-99,0,none,38,17,Woman,Right,
8,1,1,1.9170014999999694,['c'],1,left,none,-99,-99,0.5,-99,0,none,38,17,Woman,Right,
9,1,1,1.9660239999993792,['n'],0,left,none,-99,-99,0.5,-99,0,none,38,17,Woman,Right,
10,1,1,1.0504703000005975,['n'],1,right,none,-99,-99,0.5,-99,0,none,38,17,Woman,Right,
11,1,1,1.0852102999997442,['c'],1,left,none,-99,-99,0.5,-99,0,none,38,17,Woman,Right,
12,1,1,1.9831733999999415,['n'],0,left,none,-99,-99,0.5,-99,0,none,38,17,Woman,Right,
13,1,1,1.9665676000004169,['n'],1,right,none,-99,-99,0.5,-99,0,none,38,17,Woman,Right,
14,1,1,1.300321000000622,['c'],1,left,none,-99,-99,0.5,-99,0,none,38,17,Woman,Right,
15,1,1,2.3336357999996835,['n'],1,right,none,-99,-99,0.5,-99,0,none,38,17,Woman,Right,
16,1,1,1.8169434999999794,['n'],1,right,none,-99,-99,0.5,-99,0,none,38,17,Woman,Right,
17,1,1,0.8513515000013285,['n'],1,right,none,-99,-99,0.5,-99,0,none,38,17,Woman,Right,
18,1,1,0.6833805000005668,['c'],1,left,none,-99,-99,0.5,-99,0,none,38,17,Woman,Right,
19,1,1,1.8654899999983172,['c'],1,left,none,-99,-99,0.5,-99,0,none,38,17,Woman,Right,
20,1,1,1.2990970999999263,['n'],1,right,none,-99,-99,0.5,-99,0,none,38,17,Woman,Right,
21,1,1,0.9512575000007928,['c'],1,left,none,-99,-99,0.5,-99,0,none,38,17,Woman,Right,
22,1,1,2.3664743000008457,['n'],0,left,none,-99,-99,0.5,-99,0,none,38,17,Woman,Right,
23,1,1,0.63268269999935,['n'],1,right,none,-99,-99,0.5,-99,0,none,38,17,Woman,Right,
0,1,2,1.9004874000002019,['n'],0,left,none,-99,-99,0.5,-99,0,none,38,17,Woman,Right,
1,1,2,1.3345380000009754,['c'],1,left,none,-99,-99,0.5,-99,0,none,38,17,Woman,Right,
2,1,2,0.6853339999997843,['n'],1,right,none,-99,-99,0.5,-99,0,none,38,17,Woman,Right,
3,1,2,1.28391720000036,['n'],0,left,none,-99,-99,0.5,-99,0,none,38,17,Woman,Right,
4,1,2,0.9341168999999354,['c'],1,left,none,-99,-99,0.5,-99,0,none,38,17,Woman,Right,
5,1,2,2.5172345000009955,['n'],1,right,none,-99,-99,0.5,-99,0,none,38,17,Woman,Right,
6,1,2,1.7495189999990544,['n'],1,right,none,-99,-99,0.5,-99,0,none,38,17,Woman,Right,
7,1,2,0.8674705000012182,['n'],1,right,none,-99,-99,0.5,-99,0,none,38,17,Woman,Right,
8,1,2,0.8003592000004573,['c'],0,right,none,-99,-99,0.5,-99,0,none,38,17,Woman,Right,
9,1,2,1.3012382999986585,['n'],0,left,none,-99,-99,0.5,-99,0,none,38,17,Woman,Right,
10,1,2,2.4175746999990224,['c'],1,left,none,-99,-99,0.5,-99,0,none,38,17,Woman,Right,
11,1,2,1.1345827999994071,['c'],1,left,none,-99,-99,0.5,-99,0,none,38,17,Woman,Right,
12,1,2,1.0344191000003775,['c'],1,left,none,-99,-99,0.5,-99,0,none,38,17,Woman,Right,
13,1,2,1.7993510000014794,['c'],1,left,none,-99,-99,0.5,-99,0,none,38,17,Woman,Right,
14,1,2,0.7683061000007001,['n'],1,right,none,-99,-99,0.5,-99,0,none,38,17,Woman,Right,
15,1,2,0.8013043999999354,['n'],1,right,none,-99,-99,0.5,-99,0,none,38,17,Woman,Right,
16,1,2,1.2839492000002792,['n'],1,right,none,-99,-99,0.5,-99,0,none,38,17,Woman,Right,
17,1,2,1.9006110000009357,['n'],1,right,none,-99,-99,0.5,-99,0,none,38,17,Woman,Right,
18,1,2,0.8679164000004675,['c'],1,left,none,-99,-99,0.5,-99,0,none,38,17,Woman,Right,
19,1,2,2.2998993000001065,['c'],1,left,none,-99,-99,0.5,-99,0,none,38,17,Woman,Right,
20,1,2,0.9505730000000767,['n'],1,right,none,-99,-99,0.5,-99,0,none,38,17,Woman,Right,
21,1,2,1.2673921000005066,['n'],1,right,none,-99,-99,0.5,-99,0,none,38,17,Woman,Right,
22,1,2,1.1017875999987155,['n'],1,right,none,-99,-99,0.5,-99,0,none,38,17,Woman,Right,
23,1,2,0.9999888999991526,['c'],1,left,none,-99,-99,0.5,-99,0,none,38,17,Woman,Right,
0,1,3,1.901147900000069,['n'],0,left,none,-99,-99,0.5,-99,0,none,38,17,Woman,Right,
1,1,3,1.034487299999455,['c'],1,left,none,-99,-99,0.5,-99,0,none,38,17,Woman,Right,
2,1,3,1.450507600000492,['n'],1,right,none,-99,-99,0.5,-99,0,none,38,17,Woman,Right,
3,1,3,1.9840399000004254,['c'],0,right,none,-99,-99,0.5,-99,0,none,38,17,Woman,Right,
4,1,3,0.8991865000007238,['c'],1,left,none,-99,-99,0.5,-99,0,none,38,17,Woman,Right,
5,1,3,1.1506011000001308,['n'],1,right,none,-99,-99,0.5,-99,0,none,38,17,Woman,Right,
6,1,3,2.250417799999923,['n'],1,right,none,-99,-99,0.5,-99,0,none,38,17,Woman,Right,
7,1,3,1.1328780000003462,['n'],1,right,none,-99,-99,0.5,-99,0,none,38,17,Woman,Right,
8,1,3,0.9507020000000921,['c'],1,left,none,-99,-99,0.5,-99,0,none,38,17,Woman,Right,
9,1,3,0.8676888000009058,['c'],1,left,none,-99,-99,0.5,-99,0,none,38,17,Woman,Right,
10,1,3,0.868202100000417,['c'],1,left,none,-99,-99,0.5,-99,0,none,38,17,Woman,Right,
11,1,3,0.7010941999997158,['c'],1,left,none,-99,-99,0.5,-99,0,none,38,17,Woman,Right,
12,1,3,0.6512485000002926,['n'],1,right,none,-99,-99,0.5,-99,0,none,38,17,Woman,Right,
13,1,3,1.3005044000001362,['n'],1,right,none,-99,-99,0.5,-99,0,none,38,17,Woman,Right,
14,1,3,0.6014238999996451,['n'],1,right,none,-99,-99,0.5,-99,0,none,38,17,Woman,Right,
15,1,3,0.5508699999991222,['c'],1,left,none,-99,-99,0.5,-99,0,none,38,17,Woman,Right,
16,1,3,0.6175380000004225,['c'],1,left,none,-99,-99,0.5,-99,0,none,38,17,Woman,Right,
17,1,3,0.7669697000001179,['c'],1,left,none,-99,-99,0.5,-99,0,none,38,17,Woman,Right,
18,1,3,0.6506649999992078,['n'],1,right,none,-99,-99,0.5,-99,0,none,38,17,Woman,Right,
19,1,3,0.5501332000003458,['c'],1,left,none,-99,-99,0.5,-99,0,none,38,17,Woman,Right,
20,1,3,0.5181900000006863,['n'],1,right,none,-99,-99,0.5,-99,0,none,38,17,Woman,Right,
21,1,3,0.4848771000015404,['c'],1,left,none,-99,-99,0.5,-99,0,none,38,17,Woman,Right,
22,1,3,0.5338013000000501,['n'],1,right,none,-99,-99,0.5,-99,0,none,38,17,Woman,Right,
23,1,3,0.650618100000429,['n'],1,right,none,-99,-99,0.5,-99,0,none,38,17,Woman,Right,
0,2,1,1.2514509000011458,['n'],1,right,none,-99,-99,0.2,-99,0,none,38,17,Woman,Right,
1,2,1,0.8006774000004953,['n'],1,right,none,-99,-99,0.1,-99,0,none,38,17,Woman,Right,
2,2,1,0.8836924000006547,['n'],1,right,none,-99,-99,0.1,-99,0,none,38,17,Woman,Right,
3,2,1,0.5681528000004619,['c'],1,left,none,-99,-99,0.4,-99,0,none,38,17,Woman,Right,
4,2,1,1.3665631000003486,['n'],0,left,none,-99,-99,0.4,-99,0,none,38,17,Woman,Right,
5,2,1,0.7009058000003279,['n'],1,right,none,-99,-99,0.1,-99,0,none,38,17,Woman,Right,
6,2,1,0.6665749000003416,['n'],1,right,none,-99,-99,0.2,-99,0,none,38,17,Woman,Right,
7,2,1,0.7495407000005798,['c'],1,left,none,-99,-99,0.4,-99,0,none,38,17,Woman,Right,
8,2,1,0.649510499999451,['n'],1,right,none,-99,-99,0.2,-99,0,none,38,17,Woman,Right,
9,2,1,0.9670428999997966,['c'],1,left,none,-99,-99,0.1,-99,0,none,38,17,Woman,Right,
10,2,1,0.6012547999998787,['n'],1,right,none,-99,-99,0.2,-99,0,none,38,17,Woman,Right,
11,2,1,1.0501687999985734,['n'],0,left,none,-99,-99,0.2,-99,0,none,38,17,Woman,Right,
12,2,1,1.5319321999995736,['n'],0,left,none,-99,-99,0.1,-99,0,none,38,17,Woman,Right,
13,2,1,0.7846501000003627,['c'],1,left,none,-99,-99,0.4,-99,0,none,38,17,Woman,Right,
14,2,1,0.7671559999998863,['n'],1,right,none,-99,-99,0.1,-99,0,none,38,17,Woman,Right,
15,2,1,1.6341572000001179,['c'],1,left,none,-99,-99,0.2,-99,0,none,38,17,Woman,Right,
16,2,1,1.6839798999990307,['c'],1,left,none,-99,-99,0.4,-99,0,none,38,17,Woman,Right,
17,2,1,0.8012957000009919,['c'],1,left,none,-99,-99,0.4,-99,0,none,38,17,Woman,Right,
18,2,1,0.9013477999997122,['c'],1,left,none,-99,-99,0.4,-99,0,none,38,17,Woman,Right,
19,2,1,1.1494782999998279,['c'],0,right,none,-99,-99,0.1,-99,0,none,38,17,Woman,Right,
20,2,1,0.766306400000758,['n'],0,left,none,-99,-99,0.2,-99,0,none,38,17,Woman,Right,
21,2,1,0.6501771999992343,['n'],1,right,none,-99,-99,0.4,-99,0,none,38,17,Woman,Right,
22,2,1,1.868526700000075,['c'],0,right,none,-99,-99,0.2,-99,0,none,38,17,Woman,Right,
23,2,1,1.5845970999998826,['c'],0,right,none,-99,-99,0.1,-99,0,none,38,17,Woman,Right,
0,3,1,0.9678029999995488,['n'],1,right,['e'],1,2.6588648999986617,0.2,1,0,none,38,17,Woman,Right,
1,3,1,3.284820700000637,['n'],1,right,['u'],0,1.3722718999997596,0.1,0,0,none,38,17,Woman,Right,
2,3,1,2.451126400001158,['c'],1,left,['e'],1,0.794005499999912,0.1,1,0,none,38,17,Woman,Right,
3,3,1,1.0846074000000954,['c'],1,left,['e'],1,0.6776628000006895,0.4,1,0,none,38,17,Woman,Right,
4,3,1,1.4680422000001272,['n'],0,left,['u'],0,0.5189482000005228,0.2,1,0,none,38,17,Woman,Right,
5,3,1,1.7677905000000464,['n'],1,right,['e'],1,1.1376149999996414,0.4,1,0,none,38,17,Woman,Right,
6,3,1,4.316904100000102,['n'],1,right,['u'],0,1.1022902999993676,0.1,0,0,none,38,17,Woman,Right,
7,3,1,1.5173534999994445,['c'],1,left,['u'],0,0.5400073999990127,0.1,0,0,none,38,17,Woman,Right,
8,3,1,3.567170199999964,['c'],1,left,['e'],1,0.5265001000007032,0.2,1,0,none,38,17,Woman,Right,
9,3,1,2.134007999999085,['n'],0,left,['u'],0,0.9390865000004851,0.1,1,0,none,38,17,Woman,Right,
10,3,1,2.851452799999606,['n'],1,right,['e'],1,0.938095900000917,0.2,1,0,none,38,17,Woman,Right,
11,3,1,2.4516316000008374,['n'],1,right,['u'],0,1.4327322999997705,0.1,0,0,none,38,17,Woman,Right,
12,3,1,0.8160298000002513,['c'],1,left,['e'],1,0.40615539999998873,0.2,1,0,none,38,17,Woman,Right,
13,3,1,1.4511473999991722,['c'],1,left,['e'],1,0.417556100001093,0.4,1,0,none,38,17,Woman,Right,
14,3,1,2.284577899999931,['c'],1,left,['u'],0,0.2040880999993533,0.4,0,0,none,38,17,Woman,Right,
15,3,1,2.7513201000001573,['n'],1,right,['e'],1,1.6605015999994066,0.4,1,0,none,38,17,Woman,Right,
16,3,1,1.2175208999997267,['n'],1,right,['u'],0,0.24062450000019453,0.1,0,0,none,38,17,Woman,Right,
17,3,1,3.934186899999986,['c'],1,left,['e'],1,0.24000160000105097,0.4,1,0,none,38,17,Woman,Right,
18,3,1,1.5507637000009709,['c'],1,left,['u'],0,0.8149725000002945,0.4,0,0,none,38,17,Woman,Right,
19,3,1,1.4019058000012592,['n'],1,right,['e'],1,0.39661229999910574,0.2,1,0,none,38,17,Woman,Right,
20,3,1,1.5681332999993174,['n'],1,right,['u'],0,0.292165599999862,0.4,0,0,none,38,17,Woman,Right,
21,3,1,1.2173012999992352,['c'],1,left,['e'],1,0.30240709999998217,0.1,1,0,none,38,17,Woman,Right,
22,3,1,1.5501392999995005,['c'],0,right,['u'],0,0.7154364999987592,0.2,1,0,none,38,17,Woman,Right,
23,3,1,0.76776129999962,['c'],0,right,['e'],1,0.5818103999990853,0.2,0,0,none,38,17,Woman,Right,
0,4,1,2.001432200000636,['c'],0,right,['u'],0,1.67751970000063,0.2,1,0,AccFast,38,17,Woman,Right,
1,4,1,1.5004327000006015,['n'],1,right,['e'],1,1.0405176000003848,0.2,1,0,AccFast,38,17,Woman,Right,
2,4,1,2.0008058000003075,['n'],1,right,['e'],1,0.9376339999998891,0.1,1,0,AccFast,38,17,Woman,Right,
3,4,1,2.2515413999990415,['c'],1,left,['u'],0,0.8287126000013814,0.1,0,0,AccFast,38,17,Woman,Right,
4,4,1,1.3671744000002946,['n'],1,right,['e'],1,0.27892879999853903,0.4,1,0,AccFast,38,17,Woman,Right,
5,4,1,3.201290400000289,['n'],1,right,['e'],1,0.1583069999996951,0.2,1,0,AccFast,38,17,Woman,Right,
6,4,1,1.9180956999989576,['c'],1,left,['u'],0,0.36603090000062366,0.1,0,0,AccFast,38,17,Woman,Right,
7,4,1,2.416992399999799,['c'],1,left,['e'],1,0.1448660000005475,0.1,1,0,AccFast,38,17,Woman,Right,
8,4,1,2.0845824999996694,['n'],1,right,['e'],1,0.8740154000006441,0.4,1,0,AccFast,38,17,Woman,Right,
9,4,1,1.5005337000002328,['c'],1,left,['u'],0,0.6381163999994897,0.1,0,0,AccFast,38,17,Woman,Right,
10,4,1,2.7330951999992976,['c'],1,left,['e'],1,0.8576994000013656,0.1,1,0,AccFast,38,17,Woman,Right,
11,4,1,2.035508299999492,['n'],1,right,['u'],0,1.1928915999997116,0.4,0,0,AccFast,38,17,Woman,Right,
12,4,1,2.882583099999465,['c'],1,left,['e'],1,0.24906920000103128,0.4,1,0,AccFast,38,17,Woman,Right,
13,4,1,3.0182557000007364,['n'],0,left,['u'],0,0.7920135999993363,0.4,1,0,AccFast,38,17,Woman,Right,
14,4,1,2.7164231999995536,['c'],1,left,['e'],1,1.05575300000055,0.2,1,0,AccFast,38,17,Woman,Right,
15,4,1,2.5344428999997035,['n'],1,right,['u'],0,0.6900585000003048,0.1,0,0,AccFast,38,17,Woman,Right,
16,4,1,3.417036899998493,['c'],1,left,['e'],1,0.4966303999990487,0.4,1,0,AccFast,38,17,Woman,Right,
17,4,1,2.0848099000013463,['n'],1,right,['u'],0,0.90771660000064,0.2,0,0,AccFast,38,17,Woman,Right,
18,4,1,1.4011683000007906,['c'],1,left,['e'],1,0.2579795000001468,0.2,1,0,AccFast,38,17,Woman,Right,
19,4,1,3.268028800001048,['n'],1,right,['e'],1,0.19983309999952326,0.2,1,0,AccFast,38,17,Woman,Right,
20,4,1,0.8839489000001777,['c'],1,left,['e'],1,0.1267681999997876,0.2,1,0,AccFast,38,17,Woman,Right,
21,4,1,3.6350868999998056,['n'],1,right,['e'],1,0.4592336999994586,0.2,1,0,AccFast,38,17,Woman,Right,
22,4,1,2.3341405000010127,['c'],1,left,['u'],0,0.15838719999919704,0.1,0,0,AccFast,38,17,Woman,Right,
23,4,1,2.5511817000005976,['n'],0,left,['u'],0,0.5969466000005923,0.2,1,0,AccFast,38,17,Woman,Right,
24,4,1,4.067450700000336,['c'],1,left,['u'],0,0.14077639999959501,0.2,0,0,AccFast,38,17,Woman,Right,
25,4,1,2.1350323999995453,['n'],0,left,['u'],0,0.5164884999994683,0.2,1,0,AccFast,38,17,Woman,Right,
26,4,1,4.151744200000394,['c'],0,right,['e'],1,0.26857229999950505,0.1,0,0,AccFast,38,17,Woman,Right,
27,4,1,2.4012378999996145,['n'],1,right,['u'],0,0.21225219999905676,0.1,0,0,AccFast,38,17,Woman,Right,
28,4,1,2.901009900000645,['n'],1,right,['e'],1,0.5699626000005082,0.1,1,0,AccFast,38,17,Woman,Right,
29,4,1,0.7684589999989839,['n'],1,right,['u'],0,0.2468572999987373,0.4,0,0,AccFast,38,17,Woman,Right,
30,4,1,1.351366599999892,['c'],1,left,['e'],1,0.3291607999999542,0.4,1,0,AccFast,38,17,Woman,Right,
31,4,1,1.583850999999413,['n'],1,right,['u'],0,0.590924799998902,0.2,0,0,AccFast,38,17,Woman,Right,
32,4,1,2.8842884000005142,['c'],1,left,['u'],0,0.3748425000012503,0.4,0,0,AccFast,38,17,Woman,Right,
33,4,1,5.000215999998545,x,-99,right,none,-99,-99,0.2,-99,1,AccFast,38,17,Woman,Right,
34,4,1,1.034605400000146,['n'],1,right,['u'],0,0.4119031999998697,0.4,0,0,AccFast,38,17,Woman,Right,
35,4,1,1.2003760999996302,['c'],0,right,['e'],1,0.23752039999999397,0.1,0,0,AccFast,38,17,Woman,Right,
36,4,1,1.350914600001488,['c'],1,left,['e'],1,0.5926091000001179,0.4,1,0,AccFast,38,17,Woman,Right,
37,4,1,1.4843560999997862,['n'],1,right,['e'],1,0.2082974999993894,0.1,1,0,AccFast,38,17,Woman,Right,
38,4,1,1.7343866000010166,['n'],1,right,['u'],0,0.2771913999986282,0.2,0,0,AccFast,38,17,Woman,Right,
39,4,1,1.001642000001084,['c'],1,left,['e'],1,0.22876019999966957,0.2,1,0,AccFast,38,17,Woman,Right,
40,4,1,1.05089659999976,['n'],1,right,['e'],1,0.33967200000006414,0.1,1,0,AccFast,38,17,Woman,Right,
41,4,1,1.0339825999999448,['n'],1,right,['u'],0,0.22331819999999425,0.2,0,0,AccFast,38,17,Woman,Right,
42,4,1,1.0172779999993509,['c'],1,left,['e'],1,0.2722453000005771,0.4,1,0,AccFast,38,17,Woman,Right,
43,4,1,1.4348600000012084,['n'],1,right,['u'],0,0.2066703000000416,0.4,0,0,AccFast,38,17,Woman,Right,
44,4,1,1.4672633999998652,['c'],1,left,['e'],1,0.3505568000000494,0.2,1,0,AccFast,38,17,Woman,Right,
45,4,1,1.216398799999297,['c'],1,left,['e'],1,0.1626018999995722,0.4,1,0,AccFast,38,17,Woman,Right,
46,4,1,1.0348425000011048,['c'],1,left,['e'],1,0.3561219999992318,0.2,1,0,AccFast,38,17,Woman,Right,
47,4,1,1.2182511999999406,['n'],0,left,['u'],0,0.32783670000026177,0.1,1,0,AccFast,38,17,Woman,Right,
48,4,1,1.0519667999997182,['c'],1,left,['u'],0,0.27542019999964396,0.4,0,0,AccFast,38,17,Woman,Right,
49,4,1,1.134614299999157,['n'],1,right,['e'],1,0.22163699999873643,0.4,1,0,AccFast,38,17,Woman,Right,
50,4,1,2.617099799999778,['n'],1,right,['u'],0,0.2387135999997554,0.1,0,0,AccFast,38,17,Woman,Right,
51,4,1,0.7513056999996479,['c'],1,left,['e'],1,0.18569380000008096,0.4,1,0,AccFast,38,17,Woman,Right,
52,4,1,0.9508028000000195,['c'],0,right,['e'],1,0.17469170000003942,0.4,0,0,AccFast,38,17,Woman,Right,
53,4,1,1.5499297000005754,['n'],0,left,['u'],0,0.36495060000015656,0.1,1,0,AccFast,38,17,Woman,Right,
54,4,1,1.1840207000004739,['c'],1,left,['e'],1,0.352600899999743,0.1,1,0,AccFast,38,17,Woman,Right,
55,4,1,1.3515155999994022,['n'],1,right,['e'],1,0.3349416000000929,0.2,1,0,AccFast,38,17,Woman,Right,
56,4,1,1.118126299999858,['c'],1,left,['e'],1,0.8392377000000124,0.1,1,0,AccFast,38,17,Woman,Right,
57,4,1,1.8176424000012048,['c'],1,left,['u'],0,0.31993470000088564,0.4,0,0,AccFast,38,17,Woman,Right,
58,4,1,0.8680573000001459,['n'],1,right,['u'],0,0.338665299999775,0.1,0,0,AccFast,38,17,Woman,Right,
59,4,1,2.550532999999632,['c'],0,right,['u'],0,0.8017136999987997,0.4,1,0,AccFast,38,17,Woman,Right,
0,5,1,1.2346579000004567,['n'],1,right,['u'],0,2.7905947000017477,0.4,0,0,AccAcc,38,17,Woman,Right,
1,5,1,1.084438500000033,['c'],1,left,['e'],1,4.542657300000428,0.4,1,0,AccAcc,38,17,Woman,Right,
2,5,1,1.9847831999995833,['c'],1,left,['u'],0,1.6445786000003864,0.4,0,0,AccAcc,38,17,Woman,Right,
3,5,1,2.8845619999992778,['c'],1,left,['e'],1,0.7624887999991188,0.1,1,0,AccAcc,38,17,Woman,Right,
4,5,1,1.4013801000000967,['n'],0,left,['u'],0,3.270139399999607,0.1,1,0,AccAcc,38,17,Woman,Right,
5,5,1,3.0174870000009832,['n'],1,right,['u'],0,4.573634800000946,0.1,0,0,AccAcc,38,17,Woman,Right,
6,5,1,2.267042900000888,['c'],1,left,['e'],1,2.783014500000718,0.2,1,0,AccAcc,38,17,Woman,Right,
7,5,1,1.0510238000006211,['n'],1,right,['e'],1,4.184434999999212,0.4,1,0,AccAcc,38,17,Woman,Right,
8,5,1,1.7510087999999087,['n'],0,left,['u'],0,2.669863399998576,0.2,1,0,AccAcc,38,17,Woman,Right,
9,5,1,1.717201199999181,['c'],0,right,['u'],0,1.841045799999847,0.2,1,0,AccAcc,38,17,Woman,Right,
10,5,1,1.2498336999997264,['n'],1,right,['e'],1,0.9054426000002422,0.4,1,0,AccAcc,38,17,Woman,Right,
11,5,1,2.583381600001303,['c'],0,right,['u'],0,1.7921658999985084,0.4,1,0,AccAcc,38,17,Woman,Right,
12,5,1,4.917607599998519,['n'],1,right,['u'],0,2.50206419999995,0.4,0,0,AccAcc,38,17,Woman,Right,
13,5,1,1.2177714000008564,['c'],1,left,['e'],1,0.8839128999989043,0.4,1,0,AccAcc,38,17,Woman,Right,
14,5,1,2.5173697999998694,['c'],1,left,['u'],0,3.0543911999993725,0.2,0,0,AccAcc,38,17,Woman,Right,
15,5,1,1.000414100000853,['c'],1,left,['u'],0,3.0069134999994276,0.4,0,0,AccAcc,38,17,Woman,Right,
16,5,1,1.7344298999996681,['n'],0,left,['u'],0,3.156207699999868,0.1,1,0,AccAcc,38,17,Woman,Right,
17,5,1,1.0339556999988417,['c'],1,left,['e'],1,2.847530499999266,0.2,1,0,AccAcc,38,17,Woman,Right,
18,5,1,2.1005896999995457,['n'],1,right,['u'],0,1.8843143000012788,0.2,0,0,AccAcc,38,17,Woman,Right,
19,5,1,5.0153448000000935,x,-99,right,none,-99,-99,0.4,-99,1,AccAcc,38,17,Woman,Right,
20,5,1,0.9506584000009752,['n'],1,right,['u'],0,1.2232059999987541,0.4,0,0,AccAcc,38,17,Woman,Right,
21,5,1,2.367264400001659,['c'],0,right,['e'],1,1.1786943999995856,0.1,0,0,AccAcc,38,17,Woman,Right,
22,5,1,2.8350774999998976,['c'],1,left,['u'],0,2.4122807000003377,0.2,0,0,AccAcc,38,17,Woman,Right,
23,5,1,2.61807890000091,['n'],1,right,['u'],0,1.7656145000000834,0.2,0,0,AccAcc,38,17,Woman,Right,
24,5,1,1.9856299000002764,['c'],0,right,['e'],1,0.6743517000013526,0.1,0,0,AccAcc,38,17,Woman,Right,
25,5,1,5.015907999999399,x,-99,right,none,-99,-99,0.2,-99,1,AccAcc,38,17,Woman,Right,
26,5,1,1.4512241000011272,['n'],1,right,['u'],0,0.5380440999997518,0.2,0,0,AccAcc,38,17,Woman,Right,
27,5,1,1.532964500000162,['c'],1,left,['e'],1,0.8903250000003027,0.4,1,0,AccAcc,38,17,Woman,Right,
28,5,1,1.0828658000009455,['n'],0,left,['u'],0,1.182070200000453,0.1,1,0,AccAcc,38,17,Woman,Right,
29,5,1,1.5664928000005602,['c'],0,right,['u'],0,1.0746488999993744,0.2,1,0,AccAcc,38,17,Woman,Right,
30,5,1,1.1175235999999131,['n'],1,right,['e'],1,0.9580260999991879,0.4,1,0,AccAcc,38,17,Woman,Right,
31,5,1,2.3848293000010017,['c'],1,left,['u'],0,1.354142000000138,0.1,0,0,AccAcc,38,17,Woman,Right,
32,5,1,1.3334217999999964,['c'],1,left,['e'],1,0.6579342999993969,0.4,1,0,AccAcc,38,17,Woman,Right,
33,5,1,1.0508307999989484,['c'],1,left,['u'],0,0.5754566000014165,0.4,0,0,AccAcc,38,17,Woman,Right,
34,5,1,1.5482070000016392,['c'],0,right,['u'],0,1.006432500000301,0.1,1,0,AccAcc,38,17,Woman,Right,
35,5,1,1.0509272999988752,['n'],0,left,['e'],1,0.7815778000003775,0.1,0,0,AccAcc,38,17,Woman,Right,
36,5,1,1.2681021999997029,['n'],1,right,['u'],0,0.7026287000007869,0.1,0,0,AccAcc,38,17,Woman,Right,
37,5,1,1.201051500000176,['c'],1,left,['e'],1,0.8201499999995576,0.1,1,0,AccAcc,38,17,Woman,Right,
38,5,1,2.183973100000003,['n'],1,right,['u'],0,0.23862829999961832,0.2,0,0,AccAcc,38,17,Woman,Right,
39,5,1,2.7844700000005105,['c'],1,left,['u'],0,0.9044833000007202,0.2,0,0,AccAcc,38,17,Woman,Right,
40,5,1,0.766485999998622,['n'],1,right,['e'],1,0.9369146000008186,0.4,1,0,AccAcc,38,17,Woman,Right,
41,5,1,0.7682215999993787,['c'],1,left,['u'],0,0.5023369000009552,0.4,0,0,AccAcc,38,17,Woman,Right,
42,5,1,1.8670636000006198,['n'],0,left,['u'],0,2.858848300000318,0.1,1,0,AccAcc,38,17,Woman,Right,
43,5,1,2.08432719999837,['c'],0,right,['e'],1,4.295450999999957,0.1,0,0,AccAcc,38,17,Woman,Right,
44,5,1,2.133260300000984,['n'],1,right,['u'],0,1.2417086000004929,0.2,0,0,AccAcc,38,17,Woman,Right,
45,5,1,1.266885099999854,['c'],1,left,['e'],1,1.6238919000006717,0.2,1,0,AccAcc,38,17,Woman,Right,
46,5,1,1.3841663000002882,['c'],1,left,['u'],0,1.5858642999992298,0.2,0,0,AccAcc,38,17,Woman,Right,
47,5,1,1.9493765000006533,['n'],0,left,['u'],0,0.8723268000012467,0.1,1,0,AccAcc,38,17,Woman,Right,
48,5,1,1.6685720000004949,['c'],0,right,['e'],1,0.9158037000015611,0.1,0,0,AccAcc,38,17,Woman,Right,
49,5,1,2.384370100000524,['n'],0,left,['u'],0,0.9623357000000397,0.4,1,0,AccAcc,38,17,Woman,Right,
50,5,1,1.7502473000004102,['c'],0,right,['e'],1,4.296068200001173,0.2,0,0,AccAcc,38,17,Woman,Right,
51,5,1,0.7999681000001146,['c'],0,right,['u'],0,2.494897000000492,0.1,1,0,AccAcc,38,17,Woman,Right,
52,5,1,1.933842899999945,['c'],0,right,['u'],0,1.136290899999949,0.1,1,0,AccAcc,38,17,Woman,Right,
53,5,1,2.8178722000011476,['n'],0,left,['u'],0,1.4766579999995884,0.2,1,0,AccAcc,38,17,Woman,Right,
54,5,1,1.1517156999998406,['c'],1,left,['e'],1,2.206274200001644,0.4,1,0,AccAcc,38,17,Woman,Right,
55,5,1,2.5665035999991233,['c'],1,left,['u'],0,1.0750406999995903,0.2,0,0,AccAcc,38,17,Woman,Right,
56,5,1,1.833627099998921,['c'],1,left,['u'],0,0.9447843999987526,0.1,0,0,AccAcc,38,17,Woman,Right,
57,5,1,2.651207399998384,['n'],1,right,['e'],1,2.3078150000001187,0.2,1,0,AccAcc,38,17,Woman,Right,
58,5,1,2.5680680999994365,['c'],0,right,['u'],0,2.1319748000005347,0.4,1,0,AccAcc,38,17,Woman,Right,
59,5,1,1.817594599999211,['c'],0,right,['e'],1,0.5684165000002395,0.1,0,0,AccAcc,38,17,Woman,Right,
0,6,1,1.2678341999999247,['n'],1,right,['e'],1,4.100954400000774,0.4,1,0,FastAcc,38,17,Woman,Right,
1,6,1,1.2513786000017717,['c'],1,left,['e'],1,4.674341500000082,0.2,1,0,FastAcc,38,17,Woman,Right,
2,6,1,0.4678868999999395,['c'],1,left,['u'],0,2.1192948000007164,0.4,0,0,FastAcc,38,17,Woman,Right,
3,6,1,1.2342150999993464,['n'],1,right,['u'],0,4.675436699999409,0.2,0,0,FastAcc,38,17,Woman,Right,
4,6,1,1.2342229999994743,['n'],1,right,['e'],1,2.010288200001014,0.4,1,0,FastAcc,38,17,Woman,Right,
5,6,1,1.0676364000009926,['c'],1,left,['e'],1,3.010016000000178,0.1,1,0,FastAcc,38,17,Woman,Right,
6,6,1,2.3508573999988585,['n'],0,left,['u'],0,4.847238400001515,0.1,1,0,FastAcc,38,17,Woman,Right,
7,6,1,1.3323765000004641,['n'],1,right,['u'],0,4.203396899998552,0.1,0,0,FastAcc,38,17,Woman,Right,
8,6,1,1.3338839999996708,['c'],0,right,['u'],0,2.912132199999178,0.1,1,0,FastAcc,38,17,Woman,Right,
9,6,1,1.7504513000003499,['n'],1,right,['e'],1,3.399772099999609,0.1,1,0,FastAcc,38,17,Woman,Right,
10,6,1,2.017136099999334,['c'],1,left,['u'],0,4.577325899999778,0.1,0,0,FastAcc,38,17,Woman,Right,
11,6,1,2.1016429999999673,['n'],0,left,['e'],1,2.153347699999358,0.2,0,0,FastAcc,38,17,Woman,Right,
12,6,1,1.0340267999999924,['n'],1,right,['e'],1,3.724589699999342,0.4,1,0,FastAcc,38,17,Woman,Right,
13,6,1,1.0180773000010959,['c'],1,left,['e'],1,4.273934599999848,0.4,1,0,FastAcc,38,17,Woman,Right,
14,6,1,0.9510747000003903,['c'],1,left,['e'],1,2.8519372999999177,0.4,1,0,FastAcc,38,17,Woman,Right,
15,6,1,2.1170308999990084,['n'],1,right,['e'],1,2.2718175999998493,0.2,1,0,FastAcc,38,17,Woman,Right,
16,6,1,2.1840248000007705,['c'],1,left,['e'],1,4.224277900000743,0.2,1,0,FastAcc,38,17,Woman,Right,
17,6,1,1.6181701000004978,['n'],1,right,['u'],0,4.378147600000375,0.1,0,0,FastAcc,38,17,Woman,Right,
18,6,1,2.915896700000303,['n'],0,left,['e'],1,2.3941136000012193,0.4,0,0,FastAcc,38,17,Woman,Right,
19,6,1,2.118199900000036,['c'],0,right,['u'],0,1.2551880000009987,0.2,1,0,FastAcc,38,17,Woman,Right,
20,6,1,0.6503318999984913,['n'],1,right,['e'],1,2.413590500000282,0.2,1,0,FastAcc,38,17,Woman,Right,
21,6,1,1.4342367999997805,['c'],1,left,['e'],1,1.8301134000012098,0.2,1,0,FastAcc,38,17,Woman,Right,
22,6,1,2.0343364000000292,['n'],1,right,['e'],1,4.302196400001776,0.1,1,0,FastAcc,38,17,Woman,Right,
23,6,1,0.6844989000001078,['c'],1,left,['e'],1,4.233464999999342,0.4,1,0,FastAcc,38,17,Woman,Right,
24,6,1,1.2671602000009443,['n'],1,right,['e'],1,2.928040599999804,0.1,1,0,FastAcc,38,17,Woman,Right,
25,6,1,1.15049050000016,['n'],0,left,['u'],0,1.5512326000007306,0.1,1,0,FastAcc,38,17,Woman,Right,
26,6,1,0.8177763000003324,['n'],1,right,['e'],1,4.355132499998945,0.4,1,0,FastAcc,38,17,Woman,Right,
27,6,1,0.8180842999991,['n'],1,right,['e'],1,4.262997499999983,0.2,1,0,FastAcc,38,17,Woman,Right,
28,6,1,0.7327036999995471,['c'],1,left,['u'],0,4.2744142999999895,0.1,0,0,FastAcc,38,17,Woman,Right,
29,6,1,1.0672321999991254,['n'],1,right,['e'],1,2.414924799999426,0.1,1,0,FastAcc,38,17,Woman,Right,
30,6,1,1.4833954000005178,['n'],1,right,['u'],0,1.6702707999993436,0.1,0,0,FastAcc,38,17,Woman,Right,
31,6,1,1.2681160000011005,['n'],0,left,['u'],0,1.666512199999488,0.2,1,0,FastAcc,38,17,Woman,Right,
32,6,1,0.9175753999988956,['n'],0,left,['e'],1,1.757586400000946,0.1,0,0,FastAcc,38,17,Woman,Right,
33,6,1,1.633602300000348,['c'],1,left,['u'],0,2.2809262000009767,0.1,0,0,FastAcc,38,17,Woman,Right,
34,6,1,1.6513510999993741,['n'],0,left,['e'],1,2.2216521999998804,0.4,0,0,FastAcc,38,17,Woman,Right,
35,6,1,2.1180258999993384,['c'],0,right,['u'],0,1.9871527000013884,0.4,1,0,FastAcc,38,17,Woman,Right,
36,6,1,0.7680830000008427,['c'],1,left,['e'],1,1.3358773999989353,0.4,1,0,FastAcc,38,17,Woman,Right,
37,6,1,0.9171380999996472,['c'],1,left,['e'],1,1.1209684999994352,0.4,1,0,FastAcc,38,17,Woman,Right,
38,6,1,1.1179922000010265,['c'],1,left,['u'],0,1.9130127999997057,0.2,0,0,FastAcc,38,17,Woman,Right,
39,6,1,2.8346590000001015,['n'],0,left,['u'],0,3.133479399999487,0.2,1,0,FastAcc,38,17,Woman,Right,
40,6,1,2.0508043999998335,['n'],1,right,['e'],1,5.217090199999802,0.1,1,0,FastAcc,38,17,Woman,Right,
41,6,1,0.8181273999998666,['n'],1,right,['e'],1,2.9144075000003795,0.2,1,0,FastAcc,38,17,Woman,Right,
42,6,1,0.43385569999918516,['c'],1,left,['e'],1,3.3270229999998264,0.4,1,0,FastAcc,38,17,Woman,Right,
43,6,1,0.7843355000004522,['c'],1,left,['e'],1,1.197575099999085,0.4,1,0,FastAcc,38,17,Woman,Right,
44,6,1,0.5010020999998233,['n'],1,right,['u'],0,1.227824600000531,0.1,0,0,FastAcc,38,17,Woman,Right,
45,6,1,0.5847559000012552,['n'],1,right,['e'],1,1.7670024999988527,0.4,1,0,FastAcc,38,17,Woman,Right,
46,6,1,1.0010782000008476,['n'],1,right,['u'],0,1.449914799999533,0.4,0,0,FastAcc,38,17,Woman,Right,
47,6,1,1.6506129999997938,['c'],0,right,['u'],0,0.9922576000008121,0.2,1,0,FastAcc,38,17,Woman,Right,
48,6,1,1.7514575999994122,['n'],1,right,['e'],1,1.429524400000446,0.4,1,0,FastAcc,38,17,Woman,Right,
49,6,1,1.3690279000002192,['n'],1,right,['u'],0,1.0638610999994853,0.4,0,0,FastAcc,38,17,Woman,Right,
50,6,1,1.534935100000439,['c'],0,right,['e'],1,1.2022023999998055,0.1,0,0,FastAcc,38,17,Woman,Right,
51,6,1,1.7514616000007663,['n'],0,left,['u'],0,2.574583800000255,0.1,1,0,FastAcc,38,17,Woman,Right,
52,6,1,1.4516931999987719,['n'],1,right,['e'],1,0.9127865000009479,0.2,1,0,FastAcc,38,17,Woman,Right,
53,6,1,1.1670495999987907,['c'],1,left,['e'],1,1.5517744999997376,0.4,1,0,FastAcc,38,17,Woman,Right,
54,6,1,1.384683700000096,['n'],1,right,['u'],0,1.021330499999749,0.2,0,0,FastAcc,38,17,Woman,Right,
55,6,1,1.6832432999999583,['c'],1,left,['e'],1,0.8687346999995498,0.2,1,0,FastAcc,38,17,Woman,Right,
56,6,1,1.1171144999989338,['n'],1,right,['e'],1,1.4298567000005278,0.2,1,0,FastAcc,38,17,Woman,Right,
57,6,1,2.384287900000345,['c'],1,left,['u'],0,1.0878637000005256,0.1,0,0,FastAcc,38,17,Woman,Right,
58,6,1,1.267979899999773,['c'],1,left,['u'],0,2.1802594999990106,0.2,0,0,FastAcc,38,17,Woman,Right,
59,6,1,2.2178008999999292,['c'],1,left,['e'],1,0.7909175999993749,0.2,1,0,FastAcc,38,17,Woman,Right,
0,7,1,0.6512660999997024,['n'],1,right,['e'],1,0.6524872000009054,0.4,1,0,FastFast,38,17,Woman,Right,
1,7,1,1.7172707000008813,['c'],1,left,['u'],0,0.19204930000159948,0.2,0,0,FastFast,38,17,Woman,Right,
2,7,1,1.2850731999988056,['c'],1,left,['e'],1,0.18359909999890078,0.2,1,0,FastFast,38,17,Woman,Right,
3,7,1,1.151189300000624,['n'],1,right,['e'],1,0.21293119999972987,0.1,1,0,FastFast,38,17,Woman,Right,
4,7,1,0.9513576999997895,['c'],0,right,['e'],1,0.40825370000129624,0.1,0,0,FastFast,38,17,Woman,Right,
5,7,1,1.3847046000009868,['c'],0,right,['u'],0,0.13130000000091968,0.1,1,0,FastFast,38,17,Woman,Right,
6,7,1,0.9009765999999217,['n'],1,right,['e'],1,0.1090251999994507,0.4,1,0,FastFast,38,17,Woman,Right,
7,7,1,0.8838820000000851,['c'],1,left,['e'],1,0.13520509999943897,0.4,1,0,FastFast,38,17,Woman,Right,
8,7,1,1.0014570000003005,['c'],1,left,['u'],0,0.17189090000101714,0.4,0,0,FastFast,38,17,Woman,Right,
9,7,1,0.8346791999993002,['n'],1,right,['e'],1,0.24637110000003304,0.4,1,0,FastFast,38,17,Woman,Right,
10,7,1,0.8662335999997595,['c'],0,right,['e'],1,0.18946580000010727,0.1,0,0,FastFast,38,17,Woman,Right,
11,7,1,0.7994474999995873,['n'],1,right,['e'],1,0.21560049999970943,0.4,1,0,FastFast,38,17,Woman,Right,
12,7,1,0.8844018999989203,['c'],1,left,['u'],0,0.20509519999905024,0.1,0,0,FastFast,38,17,Woman,Right,
13,7,1,1.2016093000002002,['n'],1,right,['u'],0,0.24726360000022396,0.1,0,0,FastFast,38,17,Woman,Right,
14,7,1,0.6509192000012263,['c'],1,left,['e'],1,0.1655378000014025,0.2,1,0,FastFast,38,17,Woman,Right,
15,7,1,1.2003113999999186,['c'],0,right,['u'],0,0.40201779999915743,0.1,1,0,FastFast,38,17,Woman,Right,
16,7,1,1.351201099998434,['c'],1,left,['u'],0,0.10960049999994226,0.1,0,0,FastFast,38,17,Woman,Right,
17,7,1,0.7678326000004745,['c'],1,left,['e'],1,0.14126930000020366,0.4,1,0,FastFast,38,17,Woman,Right,
18,7,1,1.2175035999989632,['n'],0,left,['u'],0,0.5694155000001047,0.1,1,0,FastFast,38,17,Woman,Right,
19,7,1,1.0510075000001962,['n'],1,right,['u'],0,0.21895930000027874,0.1,0,0,FastFast,38,17,Woman,Right,
20,7,1,1.2848372999997082,['n'],0,left,['u'],0,0.5133050000004005,0.1,1,0,FastFast,38,17,Woman,Right,
21,7,1,0.8176669999993464,['c'],1,left,['e'],1,0.2062619000007544,0.2,1,0,FastFast,38,17,Woman,Right,
22,7,1,0.6679024999993999,['c'],1,left,['e'],1,0.20583299999998417,0.4,1,0,FastFast,38,17,Woman,Right,
23,7,1,0.9179712000004656,['c'],1,left,['e'],1,0.1154220999997051,0.4,1,0,FastFast,38,17,Woman,Right,
24,7,1,1.1013422999985778,['n'],1,right,['e'],1,0.11688180000055581,0.2,1,0,FastFast,38,17,Woman,Right,
25,7,1,1.0497261000000435,['c'],1,left,['u'],0,0.34616790000109177,0.1,0,0,FastFast,38,17,Woman,Right,
26,7,1,1.2512467999986256,['c'],1,left,['e'],1,0.15561909999996715,0.2,1,0,FastFast,38,17,Woman,Right,
27,7,1,1.0339038000001892,['c'],1,left,['u'],0,0.12651329999971495,0.2,0,0,FastFast,38,17,Woman,Right,
28,7,1,2.3166449000000284,['n'],0,left,['u'],0,0.7204297999996925,0.4,1,0,FastFast,38,17,Woman,Right,
29,7,1,0.8179523999988305,['n'],1,right,['u'],0,0.308627800000977,0.4,0,0,FastFast,38,17,Woman,Right,
30,7,1,0.9511643999994703,['n'],1,right,['u'],0,0.2288905999994313,0.2,0,0,FastFast,38,17,Woman,Right,
31,7,1,0.8832725000011123,['c'],1,left,['e'],1,0.1873347000000649,0.1,1,0,FastFast,38,17,Woman,Right,
32,7,1,1.0002377000000706,['c'],1,left,['e'],1,0.6053375999999844,0.4,1,0,FastFast,38,17,Woman,Right,
33,7,1,1.0322827999989386,['n'],1,right,['u'],0,0.4798606000003929,0.4,0,0,FastFast,38,17,Woman,Right,
34,7,1,1.4845139999997627,['n'],1,right,['e'],1,0.14651860000049055,0.2,1,0,FastFast,38,17,Woman,Right,
35,7,1,1.582966199999646,['c'],1,left,['u'],0,0.09500069999921834,0.2,0,0,FastFast,38,17,Woman,Right,
36,7,1,1.9843765999994503,['n'],1,right,['u'],0,0.17417110000133107,0.1,0,0,FastFast,38,17,Woman,Right,
37,7,1,0.7351544000011927,['c'],0,right,['e'],1,0.23624329999984184,0.4,0,0,FastFast,38,17,Woman,Right,
38,7,1,0.5337779000001319,['c'],1,left,['e'],1,0.17571499999939988,0.2,1,0,FastFast,38,17,Woman,Right,
39,7,1,0.867989000000307,['n'],0,left,['e'],1,0.24880119999943417,0.2,0,0,FastFast,38,17,Woman,Right,
40,7,1,0.88448359999893,['c'],1,left,['e'],1,0.22174839999934193,0.4,1,0,FastFast,38,17,Woman,Right,
41,7,1,1.2166995999996288,['c'],1,left,['u'],0,0.1034923000006529,0.4,0,0,FastFast,38,17,Woman,Right,
42,7,1,1.618156700000327,['n'],0,left,['u'],0,0.18073010000080103,0.2,1,0,FastFast,38,17,Woman,Right,
43,7,1,1.5345139999990351,['n'],0,left,['u'],0,0.16205089999857591,0.2,1,0,FastFast,38,17,Woman,Right,
44,7,1,1.5841381000009278,['n'],1,right,['u'],0,0.3023618000006536,0.2,0,0,FastFast,38,17,Woman,Right,
45,7,1,0.6510268000001815,['n'],1,right,['e'],1,0.1865338999996311,0.4,1,0,FastFast,38,17,Woman,Right,
46,7,1,2.2351333999995404,['c'],0,right,['u'],0,0.2686162999998487,0.1,1,0,FastFast,38,17,Woman,Right,
47,7,1,1.5679214000010688,['c'],1,left,['u'],0,0.10133500000119966,0.2,0,0,FastFast,38,17,Woman,Right,
48,7,1,1.4176650999997946,['c'],0,right,['u'],0,0.07479369999964547,0.1,1,0,FastFast,38,17,Woman,Right,
49,7,1,1.0671465000013995,['n'],1,right,['u'],0,0.16034339999896474,0.2,0,0,FastFast,38,17,Woman,Right,
50,7,1,1.0680303999997705,['n'],1,right,['u'],0,0.17738769999959914,0.2,0,0,FastFast,38,17,Woman,Right,
51,7,1,1.001635599999645,['n'],1,right,['e'],1,0.10123829999974987,0.1,1,0,FastFast,38,17,Woman,Right,
52,7,1,1.3006442000005336,['c'],0,right,['e'],1,0.2716316000005463,0.4,0,0,FastFast,38,17,Woman,Right,
53,7,1,1.0173764999999548,['c'],1,left,['e'],1,0.19027550000100746,0.4,1,0,FastFast,38,17,Woman,Right,
54,7,1,1.001325100000031,['n'],1,right,['u'],0,0.19317990000126883,0.2,0,0,FastFast,38,17,Woman,Right,
55,7,1,1.9500428999999713,['c'],0,right,['e'],1,0.19138679999923625,0.1,0,0,FastFast,38,17,Woman,Right,
56,7,1,0.9856283999997686,['c'],1,left,['e'],1,0.2097622000001138,0.1,1,0,FastFast,38,17,Woman,Right,
57,7,1,1.467190199999095,['n'],1,right,['u'],0,0.17756480000025476,0.2,0,0,FastFast,38,17,Woman,Right,
58,7,1,1.0015383999998448,['c'],1,left,['e'],1,0.13323659999878146,0.1,1,0,FastFast,38,17,Woman,Right,
59,7,1,1.2184303000012733,['n'],1,right,['u'],0,0.09817529999963881,0.4,0,0,FastFast,38,17,Woman,Right,
0,8,1,1.5011111000003439,['n'],0,left,['u'],0,0.5888911999991251,0.1,1,0,AccFast,38,17,Woman,Right,
1,8,1,0.9180613999997149,['n'],1,right,['e'],1,0.0990150999987236,0.2,1,0,AccFast,38,17,Woman,Right,
2,8,1,1.0514751999999135,['c'],0,right,['e'],1,0.1992152000002534,0.4,0,0,AccFast,38,17,Woman,Right,
3,8,1,0.9676576999991084,['n'],1,right,['u'],0,0.12268459999904735,0.2,0,0,AccFast,38,17,Woman,Right,
4,8,1,0.9014161000013701,['c'],0,right,['u'],0,0.6604210999994393,0.4,1,0,AccFast,38,17,Woman,Right,
5,8,1,0.851504100000966,['n'],1,right,['e'],1,0.12260559999958787,0.4,1,0,AccFast,38,17,Woman,Right,
6,8,1,1.0513274000004458,['n'],1,right,['e'],1,0.30220620000000054,0.2,1,0,AccFast,38,17,Woman,Right,
7,8,1,1.2341734999990877,['c'],1,left,['u'],0,0.17931040000075882,0.4,0,0,AccFast,38,17,Woman,Right,
8,8,1,1.2005614999998215,['n'],0,left,['u'],0,0.2223435999985668,0.2,1,0,AccFast,38,17,Woman,Right,
9,8,1,1.485430599999745,['c'],1,left,['u'],0,0.15659319999940635,0.2,0,0,AccFast,38,17,Woman,Right,
10,8,1,1.3183612000011635,['n'],1,right,['u'],0,0.27619289999893226,0.1,0,0,AccFast,38,17,Woman,Right,
11,8,1,1.1680813999992097,['n'],1,right,['u'],0,0.1892201999999088,0.1,0,0,AccFast,38,17,Woman,Right,
12,8,1,0.9018125000002328,['c'],1,left,['e'],1,0.3721302000012656,0.2,1,0,AccFast,38,17,Woman,Right,
13,8,1,0.9180556000010256,['n'],1,right,['e'],1,0.1958996000012121,0.1,1,0,AccFast,38,17,Woman,Right,
14,8,1,1.8844456000006176,['c'],0,right,['e'],1,0.226033599999937,0.2,0,0,AccFast,38,17,Woman,Right,
15,8,1,0.8508411000002525,['c'],1,left,['e'],1,0.29783710000083374,0.4,1,0,AccFast,38,17,Woman,Right,
16,8,1,1.28511140000046,['n'],1,right,['e'],1,0.5887551000014355,0.2,1,0,AccFast,38,17,Woman,Right,
17,8,1,1.1512546999983897,['n'],0,left,['u'],0,0.1856593000011344,0.4,1,0,AccFast,38,17,Woman,Right,
18,8,1,0.8500958000004175,['c'],1,left,['e'],1,0.11437060000025667,0.2,1,0,AccFast,38,17,Woman,Right,
19,8,1,0.7838635999996768,['n'],1,right,['e'],1,0.1287090999994689,0.2,1,0,AccFast,38,17,Woman,Right,
20,8,1,1.383247100000517,['n'],0,left,['u'],0,0.1352296999993996,0.1,1,0,AccFast,38,17,Woman,Right,
21,8,1,1.7677390000008018,['c'],0,right,['e'],1,0.2847196000002441,0.1,0,0,AccFast,38,17,Woman,Right,
22,8,1,0.9342257000007521,['n'],1,right,['u'],0,0.31838520000019344,0.4,0,0,AccFast,38,17,Woman,Right,
23,8,1,0.8665464000005159,['n'],1,right,['e'],1,0.20924439999907918,0.1,1,0,AccFast,38,17,Woman,Right,
24,8,1,1.5667023999994854,['n'],1,right,['u'],0,0.12532920000012382,0.2,0,0,AccFast,38,17,Woman,Right,
25,8,1,0.9171597000004112,['c'],1,left,['e'],1,0.1506251999999222,0.4,1,0,AccFast,38,17,Woman,Right,
26,8,1,1.3011578000005102,['c'],1,left,['e'],1,0.17411399999946298,0.2,1,0,AccFast,38,17,Woman,Right,
27,8,1,1.6012073999991117,['n'],0,left,['u'],0,0.3458616999996593,0.1,1,0,AccFast,38,17,Woman,Right,
28,8,1,1.1672014000014315,['n'],1,right,['u'],0,0.07942840000032447,0.4,0,0,AccFast,38,17,Woman,Right,
29,8,1,1.7843983999991906,['c'],1,left,['e'],1,0.13515340000049036,0.1,1,0,AccFast,38,17,Woman,Right,
30,8,1,0.7503281999997853,['c'],1,left,['e'],1,0.15004450000014913,0.4,1,0,AccFast,38,17,Woman,Right,
31,8,1,1.1845587000007072,['c'],1,left,['u'],0,0.43499680000059016,0.1,0,0,AccFast,38,17,Woman,Right,
32,8,1,1.8327905000005558,['n'],1,right,['u'],0,0.1241786000009597,0.4,0,0,AccFast,38,17,Woman,Right,
33,8,1,1.0676595000004454,['n'],1,right,['e'],1,0.15762940000058734,0.4,1,0,AccFast,38,17,Woman,Right,
34,8,1,2.2506978000001254,['n'],1,right,['u'],0,0.2399224000000686,0.4,0,0,AccFast,38,17,Woman,Right,
35,8,1,1.4167252000006556,['n'],1,right,['e'],1,0.30466789999991306,0.4,1,0,AccFast,38,17,Woman,Right,
36,8,1,1.849077799999577,['n'],1,right,['e'],1,2.5900649999985035,0.1,1,0,AccFast,38,17,Woman,Right,
37,8,1,1.5013801000004605,['n'],0,left,['e'],1,0.2039690999990853,0.2,0,0,AccFast,38,17,Woman,Right,
38,8,1,1.6346260999998776,['c'],1,left,['u'],0,0.08514620000096329,0.1,0,0,AccFast,38,17,Woman,Right,
39,8,1,1.0504937999994581,['n'],1,right,['e'],1,0.12187750000157394,0.4,1,0,AccFast,38,17,Woman,Right,
40,8,1,1.2510895000013988,['c'],0,right,['u'],0,0.10136210000018764,0.1,1,0,AccFast,38,17,Woman,Right,
41,8,1,1.0179122999998071,['n'],1,right,['e'],1,0.10702309999942372,0.2,1,0,AccFast,38,17,Woman,Right,
42,8,1,1.3343590999993467,['c'],0,right,['u'],0,0.08403899999939313,0.2,1,0,AccFast,38,17,Woman,Right,
43,8,1,1.3687400000017078,['c'],1,left,['e'],1,0.09229090000008,0.4,1,0,AccFast,38,17,Woman,Right,
44,8,1,1.3182565000006434,['n'],0,left,['u'],0,0.2305103999988205,0.1,1,0,AccFast,38,17,Woman,Right,
45,8,1,1.301399499998297,['n'],0,left,['e'],1,0.17151519999970333,0.2,0,0,AccFast,38,17,Woman,Right,
46,8,1,0.6509820999999647,['c'],1,left,['e'],1,0.1092529999987164,0.1,1,0,AccFast,38,17,Woman,Right,
47,8,1,1.0512826000012865,['c'],1,left,['u'],0,0.16142150000086986,0.4,0,0,AccFast,38,17,Woman,Right,
48,8,1,0.967474700000821,['n'],1,right,['e'],1,0.1989266000000498,0.2,1,0,AccFast,38,17,Woman,Right,
49,8,1,1.6845542999999452,['c'],0,right,['u'],0,0.6859168000009959,0.2,1,0,AccFast,38,17,Woman,Right,
50,8,1,0.7848512000000483,['c'],1,left,['e'],1,0.21369849999973667,0.2,1,0,AccFast,38,17,Woman,Right,
51,8,1,0.9012488000007579,['n'],0,left,['u'],0,0.7955899000007776,0.1,1,0,AccFast,38,17,Woman,Right,
52,8,1,2.9324802000010095,['n'],0,left,['e'],1,0.12221929999941494,0.4,0,0,AccFast,38,17,Woman,Right,
53,8,1,1.8005229000009422,['c'],1,left,['u'],0,0.06216780000067956,0.1,0,0,AccFast,38,17,Woman,Right,
54,8,1,0.5845288000000437,['c'],1,left,['e'],1,0.08636870000009367,0.4,1,0,AccFast,38,17,Woman,Right,
55,8,1,0.98451009999917,['n'],1,right,['e'],1,0.04615589999957592,0.2,1,0,AccFast,38,17,Woman,Right,
56,8,1,1.2995955000005779,['n'],0,left,['u'],0,0.12365959999988263,0.1,1,0,AccFast,38,17,Woman,Right,
57,8,1,1.0854686000002403,['c'],1,left,['u'],0,0.10910669999975653,0.4,0,0,AccFast,38,17,Woman,Right,
58,8,1,1.0346963000010874,['n'],1,right,['u'],0,0.2573850000007951,0.1,0,0,AccFast,38,17,Woman,Right,
59,8,1,1.4505285999985063,['n'],0,left,['u'],0,0.4637431999999535,0.1,1,0,AccFast,38,17,Woman,Right,
0,9,1,1.1511344999998983,['n'],0,left,['u'],0,1.723219199999221,0.1,1,0,AccAcc,38,17,Woman,Right,
1,9,1,1.6509764000002178,['c'],1,left,['u'],0,1.2550220000011905,0.2,0,0,AccAcc,38,17,Woman,Right,
2,9,1,1.234841100000267,['n'],1,right,['u'],0,1.237855400000626,0.1,0,0,AccAcc,38,17,Woman,Right,
3,9,1,1.4844828000004782,['c'],1,left,['e'],1,3.1479804999999033,0.4,1,0,AccAcc,38,17,Woman,Right,
4,9,1,1.051003500000661,['n'],0,left,['u'],0,0.4386964999994234,0.2,1,0,AccAcc,38,17,Woman,Right,
5,9,1,0.5822805000007065,['c'],1,left,['e'],1,2.9133528000002116,0.4,1,0,AccAcc,38,17,Woman,Right,
6,9,1,1.3825472000007721,['c'],0,right,['u'],0,1.3040111999998771,0.1,1,0,AccAcc,38,17,Woman,Right,
7,9,1,1.218292699999438,['c'],1,left,['e'],1,0.16427810000095633,0.4,1,0,AccAcc,38,17,Woman,Right,
8,9,1,2.2012377999999444,['n'],1,right,['u'],0,1.95994889999929,0.1,0,0,AccAcc,38,17,Woman,Right,
9,9,1,1.1004857000007178,['n'],1,right,['e'],1,5.184573399999863,0.1,1,0,AccAcc,38,17,Woman,Right,
10,9,1,0.985004399999525,['n'],0,left,['u'],0,1.4367042999983823,0.1,1,0,AccAcc,38,17,Woman,Right,
11,9,1,1.050515599999926,['n'],0,left,['u'],0,0.6839325000000827,0.2,1,0,AccAcc,38,17,Woman,Right,
12,9,1,1.4512026000011247,['n'],1,right,['u'],0,0.29654110000046785,0.2,0,0,AccAcc,38,17,Woman,Right,
13,9,1,1.2169958999984374,['c'],1,left,['e'],1,0.36636450000150944,0.4,1,0,AccAcc,38,17,Woman,Right,
14,9,1,1.2337662999998429,['c'],1,left,['e'],1,5.345328100000188,0.4,1,0,AccAcc,38,17,Woman,Right,
15,9,1,0.6681554999995569,['c'],1,left,['e'],1,4.690642599998682,0.4,1,0,AccAcc,38,17,Woman,Right,
16,9,1,1.4181282999998075,['n'],1,right,['u'],0,1.265520099999776,0.2,0,0,AccAcc,38,17,Woman,Right,
17,9,1,1.7677702000000863,['n'],0,left,['u'],0,2.250549200000023,0.4,1,0,AccAcc,38,17,Woman,Right,
18,9,1,2.2514393999990716,['c'],0,right,['u'],0,1.721147700000074,0.1,1,0,AccAcc,38,17,Woman,Right,
19,9,1,1.6842242000002443,['c'],1,left,['u'],0,0.5796291999995447,0.4,0,0,AccAcc,38,17,Woman,Right,
20,9,1,0.7186144999996031,['n'],1,right,['e'],1,3.377911999999924,0.2,1,0,AccAcc,38,17,Woman,Right,
21,9,1,1.6844782999996823,['n'],1,right,['e'],1,1.3858809000012116,0.1,1,0,AccAcc,38,17,Woman,Right,
22,9,1,0.9846173000005365,['n'],1,right,['e'],1,3.8215884000001097,0.2,1,0,AccAcc,38,17,Woman,Right,
23,9,1,1.6014527999996062,['c'],1,left,['e'],1,3.1276688999987527,0.2,1,0,AccAcc,38,17,Woman,Right,
24,9,1,1.5332718000008754,['n'],1,right,['u'],0,4.8322514000010415,0.4,0,0,AccAcc,38,17,Woman,Right,
25,9,1,2.901065900001413,['c'],1,left,['e'],1,0.1258417000008194,0.1,1,0,AccAcc,38,17,Woman,Right,
26,9,1,1.8675098000003345,['n'],1,right,['u'],0,4.9929154999990715,0.2,0,0,AccAcc,38,17,Woman,Right,
27,9,1,1.467567699999563,['n'],1,right,['e'],1,4.465670300000056,0.1,1,0,AccAcc,38,17,Woman,Right,
28,9,1,1.4187215000001743,['c'],1,left,['u'],0,6.298341799998525,0.2,0,0,AccAcc,38,17,Woman,Right,
29,9,1,1.2667194999994535,['n'],1,right,['u'],0,3.5986971000002086,0.1,0,0,AccAcc,38,17,Woman,Right,
30,9,1,2.00053090000074,['n'],1,right,['u'],0,4.352005299999291,0.1,0,0,AccAcc,38,17,Woman,Right,
31,9,1,1.1519337000008818,['n'],1,right,['e'],1,4.214722599999732,0.1,1,0,AccAcc,38,17,Woman,Right,
32,9,1,1.584441799999695,['n'],1,right,['u'],0,1.1534043999999994,0.2,0,0,AccAcc,38,17,Woman,Right,
33,9,1,0.6002680000001419,['c'],1,left,['e'],1,2.8135853999992833,0.4,1,0,AccAcc,38,17,Woman,Right,
34,9,1,0.6840247999989515,['n'],1,right,['e'],1,3.7962149000013596,0.4,1,0,AccAcc,38,17,Woman,Right,
35,9,1,0.6010836000004929,['n'],1,right,['u'],0,1.7509839000013017,0.1,0,0,AccAcc,38,17,Woman,Right,
36,9,1,0.9685796000012488,['c'],1,left,['e'],1,1.2447058000016114,0.4,1,0,AccAcc,38,17,Woman,Right,
37,9,1,2.084619200000816,['n'],1,right,['e'],1,1.6102446999993845,0.4,1,0,AccAcc,38,17,Woman,Right,
38,9,1,1.2182948999998189,['n'],1,right,['e'],1,1.8200522999995883,0.4,1,0,AccAcc,38,17,Woman,Right,
39,9,1,1.0353448999994725,['c'],1,left,['e'],1,2.188374199999089,0.4,1,0,AccAcc,38,17,Woman,Right,
40,9,1,0.7676350000001548,['c'],1,left,['e'],1,3.5290566999992734,0.4,1,0,AccAcc,38,17,Woman,Right,
41,9,1,1.2323085999996692,['n'],1,right,['e'],1,2.6863415999996505,0.1,1,0,AccAcc,38,17,Woman,Right,
42,9,1,1.0179819999993924,['n'],1,right,['u'],0,0.9394952999991801,0.4,0,0,AccAcc,38,17,Woman,Right,
43,9,1,0.9683371999999508,['n'],0,left,['u'],0,2.3696055000000342,0.1,1,0,AccAcc,38,17,Woman,Right,
44,9,1,2.2354395000002114,['c'],1,left,['u'],0,2.668374599999879,0.2,0,0,AccAcc,38,17,Woman,Right,
45,9,1,0.5510420999999042,['c'],1,left,['u'],0,3.326618999999482,0.2,0,0,AccAcc,38,17,Woman,Right,
46,9,1,0.9999690999993618,['n'],0,left,['u'],0,2.244649099999151,0.2,1,0,AccAcc,38,17,Woman,Right,
47,9,1,1.0349002000002656,['n'],1,right,['u'],0,2.292578399999911,0.2,0,0,AccAcc,38,17,Woman,Right,
48,9,1,1.666753499999686,['c'],1,left,['e'],1,4.184892699999182,0.4,1,0,AccAcc,38,17,Woman,Right,
49,9,1,0.7512017999997624,['n'],1,right,['e'],1,2.997819000000163,0.2,1,0,AccAcc,38,17,Woman,Right,
50,9,1,0.816047800000888,['n'],1,right,['u'],0,2.2568877000012435,0.1,0,0,AccAcc,38,17,Woman,Right,
51,9,1,1.5325146000013774,['c'],1,left,['e'],1,1.3401241000010486,0.2,1,0,AccAcc,38,17,Woman,Right,
52,9,1,1.4345615000001999,['n'],1,right,['u'],0,1.6146312999990187,0.1,0,0,AccAcc,38,17,Woman,Right,
53,9,1,1.6006101999992097,['n'],0,left,['u'],0,1.5524547000004532,0.2,1,0,AccAcc,38,17,Woman,Right,
54,9,1,0.9831510000003618,['c'],1,left,['e'],1,1.4228724999993574,0.1,1,0,AccAcc,38,17,Woman,Right,
55,9,1,1.4506805000000895,['n'],1,right,['u'],0,1.5973431000002165,0.1,0,0,AccAcc,38,17,Woman,Right,
56,9,1,1.501229900000908,['c'],0,right,['e'],1,2.9956357999999454,0.2,0,0,AccAcc,38,17,Woman,Right,
57,9,1,1.1671535999994376,['n'],1,right,['e'],1,4.015607999999702,0.2,1,0,AccAcc,38,17,Woman,Right,
58,9,1,1.7009230999992724,['n'],0,left,['u'],0,2.173820199999682,0.4,1,0,AccAcc,38,17,Woman,Right,
59,9,1,2.2341569000000163,['c'],1,left,['e'],1,3.7923178000000917,0.4,1,0,AccAcc,38,17,Woman,Right,
0,10,1,0.7346423999988474,['n'],0,left,['e'],1,1.8763535999987653,0.1,0,0,FastAcc,38,17,Woman,Right,
1,10,1,1.1008404000003793,['n'],1,right,['u'],0,1.520174199999019,0.2,0,0,FastAcc,38,17,Woman,Right,
2,10,1,0.5333698999984335,['c'],1,left,['u'],0,1.201184399998965,0.1,0,0,FastAcc,38,17,Woman,Right,
3,10,1,0.4179803000006359,['n'],1,right,['u'],0,0.8820408999999927,0.1,0,0,FastAcc,38,17,Woman,Right,
4,10,1,0.8348194000009244,['n'],1,right,['e'],1,1.071863699999085,0.1,1,0,FastAcc,38,17,Woman,Right,
5,10,1,0.9180052000010619,['n'],1,right,['e'],1,2.2585806000006414,0.2,1,0,FastAcc,38,17,Woman,Right,
6,10,1,0.36872650000077556,['c'],0,right,['u'],0,1.5326774999994086,0.4,1,0,FastAcc,38,17,Woman,Right,
7,10,1,0.6845131999998557,['n'],1,right,['e'],1,2.966199399999823,0.4,1,0,FastAcc,38,17,Woman,Right,
8,10,1,0.48554970000077446,['c'],1,left,['e'],1,2.6227687999999034,0.1,1,0,FastAcc,38,17,Woman,Right,
9,10,1,2.0010756000010588,['n'],1,right,['u'],0,2.3765889999995125,0.2,0,0,FastAcc,38,17,Woman,Right,
10,10,1,2.767610999999306,['n'],1,right,['u'],0,1.9179782000010164,0.2,0,0,FastAcc,38,17,Woman,Right,
11,10,1,0.7844043999994028,['c'],0,right,['u'],0,1.4924465000003693,0.2,1,0,FastAcc,38,17,Woman,Right,
12,10,1,0.6012263000011444,['c'],1,left,['e'],1,2.323469599999953,0.4,1,0,FastAcc,38,17,Woman,Right,
13,10,1,0.8851885000003676,['c'],1,left,['e'],1,1.6218241000005946,0.4,1,0,FastAcc,38,17,Woman,Right,
14,10,1,0.9345281000005343,['c'],1,left,['e'],1,5.2343989000000875,0.2,1,0,FastAcc,38,17,Woman,Right,
15,10,1,0.583467099999325,['n'],1,right,['e'],1,3.532679600000847,0.2,1,0,FastAcc,38,17,Woman,Right,
16,10,1,0.8847422999988339,['n'],0,left,['e'],1,3.4224179000011645,0.1,0,0,FastAcc,38,17,Woman,Right,
17,10,1,0.9510972999996739,['n'],0,left,['u'],0,3.250302100001136,0.2,1,0,FastAcc,38,17,Woman,Right,
18,10,1,1.5676848999992217,['n'],0,left,['e'],1,3.5082934999991267,0.2,0,0,FastAcc,38,17,Woman,Right,
19,10,1,1.7010969999992085,['n'],0,left,['e'],1,1.3509262000006856,0.2,0,0,FastAcc,38,17,Woman,Right,
20,10,1,2.083754700001009,['n'],0,left,['u'],0,1.3276280999998562,0.4,1,0,FastAcc,38,17,Woman,Right,
21,10,1,0.40229550000003655,['c'],1,left,['e'],1,2.2057234999992943,0.2,1,0,FastAcc,38,17,Woman,Right,
22,10,1,0.36763429999882646,['n'],1,right,['e'],1,4.265913700000965,0.4,1,0,FastAcc,38,17,Woman,Right,
23,10,1,1.3172570999995514,['n'],1,right,['e'],1,4.316829400000643,0.1,1,0,FastAcc,38,17,Woman,Right,
24,10,1,0.9001428000010492,['n'],1,right,['e'],1,3.3268471000010322,0.4,1,0,FastAcc,38,17,Woman,Right,
25,10,1,1.217788500000097,['c'],1,left,['u'],0,4.076154099999258,0.4,0,0,FastAcc,38,17,Woman,Right,
26,10,1,0.5167480999989493,['n'],1,right,['e'],1,2.3116436999989673,0.4,1,0,FastAcc,38,17,Woman,Right,
27,10,1,0.7342743999997765,['n'],1,right,['u'],0,6.464617800000269,0.2,0,0,FastAcc,38,17,Woman,Right,
28,10,1,1.1676401999993686,['c'],1,left,['e'],1,1.298052000000098,0.1,1,0,FastAcc,38,17,Woman,Right,
29,10,1,0.6345179999989341,['c'],1,left,['e'],1,3.30283640000016,0.4,1,0,FastAcc,38,17,Woman,Right,
30,10,1,0.4511980000006588,['n'],0,left,['u'],0,3.3315677999999025,0.4,1,0,FastAcc,38,17,Woman,Right,
31,10,1,0.8677039999984117,['n'],0,left,['u'],0,3.246073800000886,0.4,1,0,FastAcc,38,17,Woman,Right,
32,10,1,1.8010558999994828,['n'],1,right,['e'],1,2.8707548000002134,0.4,1,0,FastAcc,38,17,Woman,Right,
33,10,1,1.3671383000000787,['n'],1,right,['u'],0,2.9280904999995983,0.4,0,0,FastAcc,38,17,Woman,Right,
34,10,1,1.8680000999993354,['c'],0,right,['u'],0,1.9874672000005376,0.2,1,0,FastAcc,38,17,Woman,Right,
35,10,1,1.5509407999998075,['c'],1,left,['u'],0,1.7843642000007094,0.1,0,0,FastAcc,38,17,Woman,Right,
36,10,1,0.31768129999909434,['n'],0,left,['u'],0,1.4467414999999164,0.2,1,0,FastAcc,38,17,Woman,Right,
37,10,1,0.5513370999997278,['c'],1,left,['e'],1,3.6570121999993717,0.4,1,0,FastAcc,38,17,Woman,Right,
38,10,1,1.4506151999994472,['n'],1,right,['e'],1,2.367683299999044,0.1,1,0,FastAcc,38,17,Woman,Right,
39,10,1,0.4677767000011954,['c'],1,left,['e'],1,2.1768576000013127,0.2,1,0,FastAcc,38,17,Woman,Right,
40,10,1,2.9845065000008617,['n'],0,left,['u'],0,2.245341699999699,0.2,1,0,FastAcc,38,17,Woman,Right,
41,10,1,1.1847123999996256,['c'],1,left,['u'],0,1.390729000000647,0.1,0,0,FastAcc,38,17,Woman,Right,
42,10,1,0.6514511999994284,['n'],1,right,['e'],1,2.527739700000893,0.2,1,0,FastAcc,38,17,Woman,Right,
43,10,1,1.4845267000000604,['c'],1,left,['u'],0,2.210331899999801,0.1,0,0,FastAcc,38,17,Woman,Right,
44,10,1,0.6178714999987278,['c'],1,left,['e'],1,2.0039565000006405,0.4,1,0,FastAcc,38,17,Woman,Right,
45,10,1,2.183205600000292,['c'],1,left,['u'],0,3.0083942000001116,0.4,0,0,FastAcc,38,17,Woman,Right,
46,10,1,0.6843582000001334,['n'],1,right,['e'],1,2.0943898999994417,0.4,1,0,FastAcc,38,17,Woman,Right,
47,10,1,1.117715300000782,['n'],1,right,['u'],0,3.120812699999078,0.4,0,0,FastAcc,38,17,Woman,Right,
48,10,1,0.5515548000003037,['c'],0,right,['u'],0,4.1607647000000725,0.1,1,0,FastAcc,38,17,Woman,Right,
49,10,1,1.3679432000008092,['n'],1,right,['e'],1,2.1827296999999817,0.1,1,0,FastAcc,38,17,Woman,Right,
50,10,1,0.7671344000009412,['n'],1,right,['e'],1,3.1071271000000706,0.1,1,0,FastAcc,38,17,Woman,Right,
51,10,1,0.7845491000007314,['n'],1,right,['e'],1,2.443039100000533,0.4,1,0,FastAcc,38,17,Woman,Right,
52,10,1,0.8179681999990862,['c'],0,right,['u'],0,2.1868627999992896,0.1,1,0,FastAcc,38,17,Woman,Right,
53,10,1,1.002055000000837,['n'],0,left,['e'],1,1.246421100000589,0.2,0,0,FastAcc,38,17,Woman,Right,
54,10,1,0.817705899999055,['c'],0,right,['u'],0,1.8534743000000162,0.2,1,0,FastAcc,38,17,Woman,Right,
55,10,1,1.3343306000006123,['n'],1,right,['u'],0,1.4889928999982658,0.1,0,0,FastAcc,38,17,Woman,Right,
56,10,1,0.9839019000010012,['c'],1,left,['e'],1,2.8006882000008773,0.1,1,0,FastAcc,38,17,Woman,Right,
57,10,1,1.549062199999753,['n'],0,left,['u'],0,1.7655150000009598,0.1,1,0,FastAcc,38,17,Woman,Right,
58,10,1,0.6847077000002173,['n'],1,right,['e'],1,3.5902022999998735,0.2,1,0,FastAcc,38,17,Woman,Right,
59,10,1,0.8180764000007912,['n'],0,left,['u'],0,1.6720229000002291,0.1,1,0,FastAcc,38,17,Woman,Right,
0,11,1,0.8353540999996767,['n'],1,right,['e'],1,0.35403670000050624,0.1,1,0,FastFast,38,17,Woman,Right,
1,11,1,0.717826400001286,['n'],1,right,['e'],1,0.23332399999890185,0.4,1,0,FastFast,38,17,Woman,Right,
2,11,1,0.5681156000009651,['c'],1,left,['e'],1,0.20359780000035244,0.2,1,0,FastFast,38,17,Woman,Right,
3,11,1,0.5673850000002858,['c'],1,left,['e'],1,0.1914320999985648,0.4,1,0,FastFast,38,17,Woman,Right,
4,11,1,0.80083470000136,['n'],1,right,['e'],1,0.2344983000002685,0.1,1,0,FastFast,38,17,Woman,Right,
5,11,1,0.867256699999416,['n'],1,right,['u'],0,0.19242909999957192,0.1,0,0,FastFast,38,17,Woman,Right,
6,11,1,0.7176462000006723,['c'],0,right,['e'],1,0.2865402000006725,0.1,0,0,FastFast,38,17,Woman,Right,
7,11,1,0.8013136999998096,['c'],1,left,['e'],1,0.277534700000615,0.4,1,0,FastFast,38,17,Woman,Right,
8,11,1,0.7509073000001081,['n'],1,right,['e'],1,0.2231298999995488,0.4,1,0,FastFast,38,17,Woman,Right,
9,11,1,0.7666700999998284,['c'],1,left,['e'],1,0.18668719999914174,0.1,1,0,FastFast,38,17,Woman,Right,
10,11,1,0.7515235000009852,['n'],0,left,['u'],0,0.18297699999857286,0.1,1,0,FastFast,38,17,Woman,Right,
11,11,1,0.7344465000005584,['n'],1,right,['u'],0,0.21259269999973185,0.2,0,0,FastFast,38,17,Woman,Right,
12,11,1,0.4513092000015604,['n'],1,right,['e'],1,0.18795370000043476,0.1,1,0,FastFast,38,17,Woman,Right,
13,11,1,0.8833586999990075,['n'],1,right,['e'],1,0.11616619999949762,0.2,1,0,FastFast,38,17,Woman,Right,
14,11,1,0.7671907000003557,['c'],1,left,['e'],1,0.14659779999965394,0.4,1,0,FastFast,38,17,Woman,Right,
15,11,1,0.6839388999997027,['c'],1,left,['e'],1,0.21159570000054373,0.1,1,0,FastFast,38,17,Woman,Right,
16,11,1,0.701052599999457,['c'],1,left,['e'],1,0.14493850000144448,0.4,1,0,FastFast,38,17,Woman,Right,
17,11,1,0.6849242999996932,['n'],1,right,['u'],0,0.7059921000000031,0.4,0,0,FastFast,38,17,Woman,Right,
18,11,1,0.6842804000007163,['n'],1,right,['e'],1,0.20489330000054906,0.4,1,0,FastFast,38,17,Woman,Right,
19,11,1,1.0511060999997426,['c'],1,left,['u'],0,0.1089812999998685,0.2,0,0,FastFast,38,17,Woman,Right,
20,11,1,1.018189699998402,['c'],1,left,['e'],1,0.17873020000115503,0.4,1,0,FastFast,38,17,Woman,Right,
21,11,1,0.7342379999990953,['n'],0,left,['u'],0,0.16108940000049188,0.1,1,0,FastFast,38,17,Woman,Right,
22,11,1,0.518153799999709,['n'],1,right,['e'],1,0.18387219999931403,0.1,1,0,FastFast,38,17,Woman,Right,
23,11,1,1.3686262999999599,['n'],1,right,['e'],1,0.9081726000003982,0.4,1,0,FastFast,38,17,Woman,Right,
24,11,1,0.8501279000010982,['c'],1,left,['u'],0,0.20069299999886425,0.2,0,0,FastFast,38,17,Woman,Right,
25,11,1,1.165129099999831,['c'],1,left,['e'],1,0.16578500000105123,0.4,1,0,FastFast,38,17,Woman,Right,
26,11,1,1.1510608000007778,['n'],0,left,['u'],0,0.1937314000006154,0.2,1,0,FastFast,38,17,Woman,Right,
27,11,1,1.1691019000008964,['c'],1,left,['e'],1,0.1580365999998321,0.2,1,0,FastFast,38,17,Woman,Right,
28,11,1,0.7678971000004822,['n'],0,left,['e'],1,0.15561440000055882,0.2,0,0,FastFast,38,17,Woman,Right,
29,11,1,1.1512889000005089,['c'],1,left,['u'],0,0.15388239999992948,0.1,0,0,FastFast,38,17,Woman,Right,
30,11,1,1.184463899999173,['n'],0,left,['e'],1,0.16701350000039383,0.2,0,0,FastFast,38,17,Woman,Right,
31,11,1,0.9679450999992696,['c'],1,left,['u'],0,0.14017729999977746,0.2,0,0,FastFast,38,17,Woman,Right,
32,11,1,1.20154249999905,['n'],1,right,['u'],0,0.15270800000143936,0.2,0,0,FastFast,38,17,Woman,Right,
33,11,1,1.099488100000599,['n'],0,left,['e'],1,0.39378469999974186,0.1,0,0,FastFast,38,17,Woman,Right,
34,11,1,1.3846069000010175,['c'],0,right,['u'],0,0.5167576999992889,0.2,1,0,FastFast,38,17,Woman,Right,
35,11,1,0.8507432000005792,['n'],0,left,['u'],0,0.2244661000004271,0.2,1,0,FastFast,38,17,Woman,Right,
36,11,1,0.9681789000005665,['c'],1,left,['e'],1,0.17920050000066112,0.1,1,0,FastFast,38,17,Woman,Right,
37,11,1,0.9499226000007184,['n'],1,right,['e'],1,0.1209486999996443,0.4,1,0,FastFast,38,17,Woman,Right,
38,11,1,0.7183275000006688,['c'],1,left,['e'],1,0.12118069999996806,0.4,1,0,FastFast,38,17,Woman,Right,
39,11,1,0.9172709999984363,['c'],1,left,['u'],0,0.11407619999954477,0.2,0,0,FastFast,38,17,Woman,Right,
40,11,1,0.8339799999994284,['n'],1,right,['e'],1,0.11012879999907454,0.4,1,0,FastFast,38,17,Woman,Right,
41,11,1,1.050597999999809,['c'],1,left,['e'],1,0.1626060000016878,0.2,1,0,FastFast,38,17,Woman,Right,
42,11,1,0.8182092999995803,['n'],0,left,['u'],0,0.173485499999515,0.1,1,0,FastFast,38,17,Woman,Right,
43,11,1,0.7835223000001861,['n'],1,right,['e'],1,0.16997989999981655,0.2,1,0,FastFast,38,17,Woman,Right,
44,11,1,1.2164295000002312,['n'],1,right,['u'],0,0.1339867000006052,0.2,0,0,FastFast,38,17,Woman,Right,
45,11,1,1.1008467000010569,['c'],1,left,['u'],0,0.07009939999989001,0.1,0,0,FastFast,38,17,Woman,Right,
46,11,1,0.7013038999994023,['c'],1,left,['e'],1,0.08982279999872844,0.4,1,0,FastFast,38,17,Woman,Right,
47,11,1,0.8183767000009539,['n'],0,left,['u'],0,0.18354990000079852,0.1,1,0,FastFast,38,17,Woman,Right,
48,11,1,0.8328411000002234,['c'],0,right,['e'],1,0.17838320000009844,0.1,0,0,FastFast,38,17,Woman,Right,
49,11,1,1.0665234999996756,['n'],1,right,['e'],1,0.19534329999987676,0.1,1,0,FastFast,38,17,Woman,Right,
50,11,1,1.0678294999997888,['c'],0,right,['e'],1,0.08203929999945103,0.2,0,0,FastFast,38,17,Woman,Right,
51,11,1,1.0347935000008874,['n'],1,right,['e'],1,0.23175930000070366,0.2,1,0,FastFast,38,17,Woman,Right,
52,11,1,0.8826982999999018,['n'],1,right,['e'],1,0.3340869000003295,0.4,1,0,FastFast,38,17,Woman,Right,
53,11,1,0.7514496999992843,['n'],1,right,['e'],1,0.1962370999990526,0.1,1,0,FastFast,38,17,Woman,Right,
54,11,1,0.8173247000013362,['n'],1,right,['e'],1,0.18987720000041008,0.4,1,0,FastFast,38,17,Woman,Right,
55,11,1,0.6507811999999831,['c'],1,left,['e'],1,0.28678620000027877,0.2,1,0,FastFast,38,17,Woman,Right,
56,11,1,0.7517222000005859,['n'],1,right,['e'],1,0.13579519999984768,0.1,1,0,FastFast,38,17,Woman,Right,
57,11,1,0.6848324000002322,['c'],0,right,['e'],1,0.18518480000057025,0.4,0,0,FastFast,38,17,Woman,Right,
58,11,1,1.4682391000005737,['n'],1,right,['u'],0,0.18563579999863578,0.4,0,0,FastFast,38,17,Woman,Right,
59,11,1,0.6010943999990559,['c'],0,right,['u'],0,0.15638550000039686,0.4,1,0,FastFast,38,17,Woman,Right,
0,12,1,0.6997058000015386,['n'],1,right,['e'],1,0.618275499999072,0.4,1,0,AccFast,38,17,Woman,Right,
1,12,1,0.6346574999988661,['c'],1,left,['e'],1,0.13770790000126,0.4,1,0,AccFast,38,17,Woman,Right,
2,12,1,0.8182268999989901,['c'],1,left,['e'],1,0.16590749999886611,0.2,1,0,AccFast,38,17,Woman,Right,
3,12,1,0.6182827000011457,['n'],1,right,['u'],0,0.2167704000003141,0.2,0,0,AccFast,38,17,Woman,Right,
4,12,1,0.5519548000011127,['n'],1,right,['u'],0,0.17231790000005276,0.2,0,0,AccFast,38,17,Woman,Right,
5,12,1,1.284612700001162,['c'],0,right,['u'],0,0.10062960000141175,0.1,1,0,AccFast,38,17,Woman,Right,
6,12,1,0.566643699999986,['n'],1,right,['e'],1,0.14098070000000007,0.2,1,0,AccFast,38,17,Woman,Right,
7,12,1,0.8013614999999845,['n'],1,right,['e'],1,0.1851379999989149,0.2,1,0,AccFast,38,17,Woman,Right,
8,12,1,0.7320777000004455,['c'],1,left,['u'],0,0.07218720000128087,0.1,0,0,AccFast,38,17,Woman,Right,
9,12,1,0.8694376000003103,['n'],0,left,['u'],0,0.21203179999974964,0.4,1,0,AccFast,38,17,Woman,Right,
10,12,1,0.6835334999996121,['c'],1,left,['u'],0,0.2587518000000273,0.1,0,0,AccFast,38,17,Woman,Right,
11,12,1,0.6835847999991529,['c'],1,left,['e'],1,0.19077629999992496,0.4,1,0,AccFast,38,17,Woman,Right,
12,12,1,0.9677780000001803,['n'],1,right,['e'],1,0.11514189999979862,0.1,1,0,AccFast,38,17,Woman,Right,
13,12,1,1.0352155999989918,['n'],0,left,['u'],0,0.1351924999999028,0.1,1,0,AccFast,38,17,Woman,Right,
14,12,1,0.9173013999989053,['c'],1,left,['u'],0,0.2395302000004449,0.4,0,0,AccFast,38,17,Woman,Right,
15,12,1,0.6173311000002286,['n'],1,right,['e'],1,0.27176499999950465,0.4,1,0,AccFast,38,17,Woman,Right,
16,12,1,0.78369770000063,['n'],1,right,['u'],0,0.23202779999883205,0.4,0,0,AccFast,38,17,Woman,Right,
17,12,1,0.7010520999992877,['n'],1,right,['e'],1,0.22892230000070413,0.2,1,0,AccFast,38,17,Woman,Right,
18,12,1,0.6848799999988842,['n'],0,left,['e'],1,0.194501300000411,0.2,0,0,AccFast,38,17,Woman,Right,
19,12,1,0.7175349000008282,['c'],0,right,['u'],0,0.12878920000002836,0.2,1,0,AccFast,38,17,Woman,Right,
20,12,1,0.7666938000002119,['n'],1,right,['e'],1,0.2068859999999404,0.4,1,0,AccFast,38,17,Woman,Right,
21,12,1,0.8014745000000403,['c'],1,left,['u'],0,0.21727450000071258,0.1,0,0,AccFast,38,17,Woman,Right,
22,12,1,0.8840916999997717,['n'],0,left,['e'],1,0.30354559999977937,0.2,0,0,AccFast,38,17,Woman,Right,
23,12,1,0.6178552000001218,['n'],1,right,['e'],1,0.2851895000003424,0.4,1,0,AccFast,38,17,Woman,Right,
24,12,1,0.8331053999991127,['n'],1,right,['e'],1,0.22747549999985495,0.4,1,0,AccFast,38,17,Woman,Right,
25,12,1,1.1840585000009014,['n'],1,right,['e'],1,0.22115800000028685,0.1,1,0,AccFast,38,17,Woman,Right,
26,12,1,1.0005638999991788,['c'],0,right,['u'],0,0.1745669000010821,0.1,1,0,AccFast,38,17,Woman,Right,
27,12,1,0.9517584000004717,['n'],1,right,['e'],1,0.18017069999950763,0.2,1,0,AccFast,38,17,Woman,Right,
28,12,1,0.935209199999008,['n'],0,left,['u'],0,0.3937896000006731,0.2,1,0,AccFast,38,17,Woman,Right,
29,12,1,0.8018630999995366,['c'],1,left,['e'],1,0.17287360000045737,0.4,1,0,AccFast,38,17,Woman,Right,
30,12,1,0.9517118000003393,['c'],1,left,['e'],1,0.1462697000006301,0.4,1,0,AccFast,38,17,Woman,Right,
31,12,1,0.7676131000007445,['c'],1,left,['e'],1,0.1118389000002935,0.4,1,0,AccFast,38,17,Woman,Right,
32,12,1,0.7675734999993438,['c'],1,left,['e'],1,0.12674839999999676,0.4,1,0,AccFast,38,17,Woman,Right,
33,12,1,1.1513587000008556,['n'],0,left,['u'],0,0.20644389999870327,0.4,1,0,AccFast,38,17,Woman,Right,
34,12,1,0.4516036000004533,['n'],0,left,['e'],1,0.1667987999990146,0.1,0,0,AccFast,38,17,Woman,Right,
35,12,1,0.6680378000000928,['n'],1,right,['e'],1,0.15152070000112872,0.1,1,0,AccFast,38,17,Woman,Right,
36,12,1,0.6680694000006042,['c'],1,left,['u'],0,0.21720020000066143,0.2,0,0,AccFast,38,17,Woman,Right,
37,12,1,0.750238000000536,['c'],1,left,['u'],0,0.21277989999907732,0.2,0,0,AccFast,38,17,Woman,Right,
38,12,1,0.6690749999997934,['c'],1,left,['e'],1,0.13168769999901997,0.4,1,0,AccFast,38,17,Woman,Right,
39,12,1,0.5515961999990395,['n'],1,right,['u'],0,0.3625304999986838,0.1,0,0,AccFast,38,17,Woman,Right,
40,12,1,0.8508610999997472,['c'],0,right,['u'],0,0.17207600000074308,0.1,1,0,AccFast,38,17,Woman,Right,
41,12,1,0.8178084000010131,['n'],1,right,['u'],0,0.24699320000036096,0.1,0,0,AccFast,38,17,Woman,Right,
42,12,1,0.8683409000004758,['n'],0,left,['u'],0,0.15661550000004354,0.2,1,0,AccFast,38,17,Woman,Right,
43,12,1,0.6002975000010338,['c'],1,left,['e'],1,0.19274760000007518,0.1,1,0,AccFast,38,17,Woman,Right,
44,12,1,0.717579800000749,['n'],1,right,['e'],1,0.23925150000104622,0.2,1,0,AccFast,38,17,Woman,Right,
45,12,1,0.8340138000003208,['n'],0,left,['e'],1,0.1505789000002551,0.1,0,0,AccFast,38,17,Woman,Right,
46,12,1,0.8671219999996538,['c'],1,left,['u'],0,0.2721444999988307,0.2,0,0,AccFast,38,17,Woman,Right,
47,12,1,0.7349400000002788,['n'],0,left,['u'],0,0.20244930000080785,0.1,1,0,AccFast,38,17,Woman,Right,
48,12,1,1.0334638000003906,['n'],1,right,['e'],1,0.2359902999996848,0.4,1,0,AccFast,38,17,Woman,Right,
49,12,1,0.6343974999999773,['n'],1,right,['u'],0,0.31516279999959806,0.2,0,0,AccFast,38,17,Woman,Right,
50,12,1,0.6168436999996629,['c'],1,left,['e'],1,0.19998540000051435,0.4,1,0,AccFast,38,17,Woman,Right,
51,12,1,0.750747300000512,['n'],1,right,['e'],1,0.13350249999894004,0.1,1,0,AccFast,38,17,Woman,Right,
52,12,1,0.8669643000012002,['n'],1,right,['e'],1,0.19054719999985537,0.1,1,0,AccFast,38,17,Woman,Right,
53,12,1,0.7349272000010387,['n'],1,right,['e'],1,0.18794049999996787,0.1,1,0,AccFast,38,17,Woman,Right,
54,12,1,1.0016274999998132,['n'],0,left,['e'],1,0.19095070000003034,0.2,0,0,AccFast,38,17,Woman,Right,
55,12,1,0.8012819000014133,['n'],1,right,['e'],1,0.37781119999999646,0.4,1,0,AccFast,38,17,Woman,Right,
56,12,1,0.7666267000004154,['c'],0,right,['e'],1,0.31964999999945576,0.2,0,0,AccFast,38,17,Woman,Right,
57,12,1,0.6851653000012448,['n'],0,left,['u'],0,0.16896570000062638,0.1,1,0,AccFast,38,17,Woman,Right,
58,12,1,0.8511636000002909,['c'],0,right,['u'],0,0.08245150000038848,0.2,1,0,AccFast,38,17,Woman,Right,
59,12,1,0.5845785000001342,['c'],1,left,['e'],1,0.13809009999931732,0.4,1,0,AccFast,38,17,Woman,Right,
0,13,1,0.9005674999989424,['n'],0,left,['u'],0,1.27233299999898,0.1,1,0,AccAcc,38,17,Woman,Right,
1,13,1,0.7008511000003637,['c'],1,left,['e'],1,2.651971400000548,0.4,1,0,AccAcc,38,17,Woman,Right,
2,13,1,0.9846214000008331,['n'],1,right,['e'],1,2.4452303999987635,0.2,1,0,AccAcc,38,17,Woman,Right,
3,13,1,0.3676608000005217,['c'],0,right,['u'],0,2.862996199999543,0.2,1,0,AccAcc,38,17,Woman,Right,
4,13,1,0.534524099999544,['n'],1,right,['e'],1,2.153483199999755,0.2,1,0,AccAcc,38,17,Woman,Right,
5,13,1,1.3011217999992368,['n'],0,left,['e'],1,0.20991499999945518,0.4,0,0,AccAcc,38,17,Woman,Right,
6,13,1,1.0345859999997629,['c'],1,left,['e'],1,1.9236313000001246,0.4,1,0,AccAcc,38,17,Woman,Right,
7,13,1,0.8842430999993667,['c'],1,left,['e'],1,2.3576615000001766,0.2,1,0,AccAcc,38,17,Woman,Right,
8,13,1,0.5678184999997029,['n'],1,right,['e'],1,1.2839740999988862,0.4,1,0,AccAcc,38,17,Woman,Right,
9,13,1,1.1180630999988352,['n'],1,right,['e'],1,0.24543240000093647,0.4,1,0,AccAcc,38,17,Woman,Right,
10,13,1,0.9176357999986067,['n'],0,left,['e'],1,0.16976380000050995,0.1,0,0,AccAcc,38,17,Woman,Right,
11,13,1,1.2165005999995628,['c'],1,left,['u'],0,1.5081024000010075,0.1,0,0,AccAcc,38,17,Woman,Right,
12,13,1,2.0346181000004435,['n'],1,right,['e'],1,0.12092659999871103,0.2,1,0,AccAcc,38,17,Woman,Right,
13,13,1,4.934308800000508,['n'],0,left,['e'],1,0.8336538000003202,0.1,0,0,AccAcc,38,17,Woman,Right,
14,13,1,0.9008684000000358,['n'],1,right,['e'],1,0.2545782000015606,0.4,1,0,AccAcc,38,17,Woman,Right,
15,13,1,0.8680055000004359,['c'],1,left,['u'],0,1.476328900000226,0.2,0,0,AccAcc,38,17,Woman,Right,
16,13,1,0.8172498999992968,['n'],1,right,['e'],1,1.5472967000005156,0.2,1,0,AccAcc,38,17,Woman,Right,
17,13,1,0.8337745999997423,['c'],0,right,['u'],0,1.1184680000005756,0.2,1,0,AccAcc,38,17,Woman,Right,
18,13,1,0.8838651999994909,['n'],1,right,['e'],1,0.12875100000019302,0.1,1,0,AccAcc,38,17,Woman,Right,
19,13,1,1.0689259999999194,['n'],1,right,['u'],0,1.827155999999377,0.4,0,0,AccAcc,38,17,Woman,Right,
20,13,1,1.0167070000006788,['n'],1,right,['u'],0,2.4522256999989622,0.1,0,0,AccAcc,38,17,Woman,Right,
21,13,1,1.1677894000004017,['c'],0,right,['u'],0,0.9830196000002616,0.1,1,0,AccAcc,38,17,Woman,Right,
22,13,1,0.4675587000001542,['n'],0,left,['u'],0,1.7262304999985645,0.4,1,0,AccAcc,38,17,Woman,Right,
23,13,1,0.5680103000013332,['c'],1,left,['e'],1,3.3655020000005607,0.1,1,0,AccAcc,38,17,Woman,Right,
24,13,1,0.8172971000003599,['c'],1,left,['e'],1,1.168580600000496,0.4,1,0,AccAcc,38,17,Woman,Right,
25,13,1,0.8506606999999349,['n'],1,right,['e'],1,1.3301859000002878,0.2,1,0,AccAcc,38,17,Woman,Right,
26,13,1,0.8169750999986718,['c'],1,left,['u'],0,1.086702399999922,0.1,0,0,AccAcc,38,17,Woman,Right,
27,13,1,0.9012404999994033,['n'],1,right,['e'],1,1.3775921000014932,0.4,1,0,AccAcc,38,17,Woman,Right,
28,13,1,0.6338463000010961,['c'],1,left,['e'],1,1.2842291000015393,0.4,1,0,AccAcc,38,17,Woman,Right,
29,13,1,0.4511621000001469,['n'],1,right,['e'],1,1.4249287000002369,0.4,1,0,AccAcc,38,17,Woman,Right,
30,13,1,0.4845088999991276,['c'],1,left,['e'],1,0.9672282999999879,0.1,1,0,AccAcc,38,17,Woman,Right,
31,13,1,0.5513011000002734,['n'],1,right,['e'],1,0.8770019999992655,0.2,1,0,AccAcc,38,17,Woman,Right,
32,13,1,0.767236599998796,['c'],1,left,['e'],1,1.133948099999543,0.4,1,0,AccAcc,38,17,Woman,Right,
33,13,1,0.46727930000088236,['n'],1,right,['u'],0,1.0089875000012398,0.1,0,0,AccAcc,38,17,Woman,Right,
34,13,1,0.7178784999996424,['c'],1,left,['e'],1,1.4858492000003025,0.4,1,0,AccAcc,38,17,Woman,Right,
35,13,1,0.6016013999997085,['n'],1,right,['u'],0,0.8929537999993045,0.2,0,0,AccAcc,38,17,Woman,Right,
36,13,1,0.6677519000004395,['n'],1,right,['e'],1,1.041843400000289,0.1,1,0,AccAcc,38,17,Woman,Right,
37,13,1,0.8182902999997168,['n'],0,left,['u'],0,0.8255563000002439,0.2,1,0,AccAcc,38,17,Woman,Right,
38,13,1,0.6349234999997861,['c'],1,left,['u'],0,1.025693900000988,0.2,0,0,AccAcc,38,17,Woman,Right,
39,13,1,0.4848869999987073,['c'],1,left,['e'],1,0.8880601000000752,0.4,1,0,AccAcc,38,17,Woman,Right,
40,13,1,0.41818790000070294,['n'],0,left,['e'],1,1.0303877999995166,0.1,0,0,AccAcc,38,17,Woman,Right,
41,13,1,0.8172197999992932,['n'],1,right,['e'],1,0.9267637000011746,0.2,1,0,AccAcc,38,17,Woman,Right,
42,13,1,0.4832959999985178,['c'],1,left,['e'],1,0.7462829999985843,0.4,1,0,AccAcc,38,17,Woman,Right,
43,13,1,0.48494790000040666,['n'],0,left,['e'],1,0.8901279999990948,0.1,0,0,AccAcc,38,17,Woman,Right,
44,13,1,0.5844183999997767,['c'],1,left,['e'],1,1.2817025000003923,0.2,1,0,AccAcc,38,17,Woman,Right,
45,13,1,0.35114400000020396,['n'],1,right,['u'],0,0.7866902999994636,0.2,0,0,AccAcc,38,17,Woman,Right,
46,13,1,0.3677642000002379,['c'],0,right,['u'],0,1.0789072000006854,0.1,1,0,AccAcc,38,17,Woman,Right,
47,13,1,0.7665068999995128,['n'],1,right,['u'],0,0.6872211999998399,0.1,0,0,AccAcc,38,17,Woman,Right,
48,13,1,0.5835212000001775,['c'],1,left,['e'],1,0.5747631000012916,0.2,1,0,AccAcc,38,17,Woman,Right,
49,13,1,0.8516142000007676,['n'],0,left,['u'],0,0.6643343999985518,0.2,1,0,AccAcc,38,17,Woman,Right,
50,13,1,0.7014660999993794,['c'],1,left,['u'],0,0.6759653000008257,0.2,0,0,AccAcc,38,17,Woman,Right,
51,13,1,0.7345136000003549,['n'],0,left,['u'],0,0.6863111000002391,0.1,1,0,AccAcc,38,17,Woman,Right,
52,13,1,0.5835038000004715,['n'],1,right,['e'],1,1.134685700000773,0.4,1,0,AccAcc,38,17,Woman,Right,
53,13,1,0.8517601999992621,['n'],1,right,['e'],1,1.0410465000004478,0.4,1,0,AccAcc,38,17,Woman,Right,
54,13,1,0.4684531999992032,['c'],0,right,['u'],0,0.8074202000007062,0.1,1,0,AccAcc,38,17,Woman,Right,
55,13,1,0.6837530000011611,['n'],1,right,['e'],1,0.8461279000002833,0.4,1,0,AccAcc,38,17,Woman,Right,
56,13,1,0.933903700000883,['n'],1,right,['u'],0,0.7299571000003198,0.1,0,0,AccAcc,38,17,Woman,Right,
57,13,1,0.6337831000000733,['n'],1,right,['e'],1,0.5327298000011069,0.2,1,0,AccAcc,38,17,Woman,Right,
58,13,1,1.1181172999986302,['c'],1,left,['u'],0,1.0131359999995766,0.1,0,0,AccAcc,38,17,Woman,Right,
59,13,1,0.8009399000002304,['c'],1,left,['e'],1,0.7349647000010009,0.4,1,0,AccAcc,38,17,Woman,Right,
0,14,1,0.6343501999999717,['n'],0,left,['u'],0,1.427662699999928,0.1,1,0,FastAcc,38,17,Woman,Right,
1,14,1,0.36940839999988384,['c'],1,left,['e'],1,1.358714100000725,0.4,1,0,FastAcc,38,17,Woman,Right,
2,14,1,0.5345344000015757,['c'],1,left,['u'],0,1.349598499999047,0.4,0,0,FastAcc,38,17,Woman,Right,
3,14,1,0.3348772999997891,['n'],0,left,['u'],0,1.0126012000000628,0.2,1,0,FastAcc,38,17,Woman,Right,
4,14,1,0.36699120000048424,['n'],1,right,['e'],1,0.7033364999988407,0.1,1,0,FastAcc,38,17,Woman,Right,
5,14,1,0.9015815999991901,['c'],1,left,['e'],1,1.041780600000493,0.1,1,0,FastAcc,38,17,Woman,Right,
6,14,1,0.6353577000008954,['n'],1,right,['u'],0,0.6734977000014624,0.2,0,0,FastAcc,38,17,Woman,Right,
7,14,1,0.915380999998888,['n'],0,left,['u'],0,1.0139255999984016,0.1,1,0,FastAcc,38,17,Woman,Right,
8,14,1,0.6180341999988741,['n'],1,right,['e'],1,0.6772130999997898,0.4,1,0,FastAcc,38,17,Woman,Right,
9,14,1,0.5850607000011223,['n'],1,right,['e'],1,0.7415297999996255,0.4,1,0,FastAcc,38,17,Woman,Right,
10,14,1,1.2675175000003946,['n'],1,right,['e'],1,0.488107699999091,0.1,1,0,FastAcc,38,17,Woman,Right,
11,14,1,0.9017965000002732,['c'],1,left,['e'],1,0.5468585999988136,0.4,1,0,FastAcc,38,17,Woman,Right,
12,14,1,0.8496546000005765,['n'],1,right,['e'],1,0.7502739000010479,0.2,1,0,FastAcc,38,17,Woman,Right,
13,14,1,0.7509786000009626,['c'],1,left,['e'],1,0.8194376999999804,0.2,1,0,FastAcc,38,17,Woman,Right,
14,14,1,0.9504963999988831,['n'],1,right,['u'],0,0.8630892999990465,0.1,0,0,FastAcc,38,17,Woman,Right,
15,14,1,1.4007067999991705,['n'],0,left,['e'],1,0.5990971999999601,0.2,0,0,FastAcc,38,17,Woman,Right,
16,14,1,0.7515800000001036,['n'],1,right,['e'],1,0.707378000000972,0.4,1,0,FastAcc,38,17,Woman,Right,
17,14,1,0.46826619999956165,['c'],1,left,['e'],1,1.2868022000002384,0.4,1,0,FastAcc,38,17,Woman,Right,
18,14,1,0.584105300000374,['c'],1,left,['e'],1,1.5985189999992144,0.1,1,0,FastAcc,38,17,Woman,Right,
19,14,1,0.6344618999992235,['n'],1,right,['u'],0,0.9835298999987572,0.1,0,0,FastAcc,38,17,Woman,Right,
20,14,1,0.6500654999999824,['n'],1,right,['e'],1,1.6726149000005535,0.2,1,0,FastAcc,38,17,Woman,Right,
21,14,1,0.8008402999985265,['n'],0,left,['u'],0,1.83225019999918,0.2,1,0,FastAcc,38,17,Woman,Right,
22,14,1,1.2673861999992369,['c'],1,left,['u'],0,1.1986827999990055,0.2,0,0,FastAcc,38,17,Woman,Right,
23,14,1,0.684662899999239,['c'],1,left,['e'],1,1.525792200000069,0.4,1,0,FastAcc,38,17,Woman,Right,
24,14,1,1.434701899999709,['n'],1,right,['e'],1,2.050098400000934,0.4,1,0,FastAcc,38,17,Woman,Right,
25,14,1,0.8345802000003459,['n'],1,right,['u'],0,1.3612111999991612,0.1,0,0,FastAcc,38,17,Woman,Right,
26,14,1,0.45055669999965176,['c'],1,left,['e'],1,1.739551399999982,0.2,1,0,FastAcc,38,17,Woman,Right,
27,14,1,0.6020296000006056,['n'],1,right,['e'],1,2.3853750999987824,0.2,1,0,FastAcc,38,17,Woman,Right,
28,14,1,0.5678064999992785,['n'],1,right,['e'],1,1.5170068000006722,0.4,1,0,FastAcc,38,17,Woman,Right,
29,14,1,1.218085999998948,['c'],1,left,['e'],1,1.4741520999996283,0.4,1,0,FastAcc,38,17,Woman,Right,
30,14,1,0.6173180999994656,['n'],0,left,['u'],0,1.729249100000743,0.1,1,0,FastAcc,38,17,Woman,Right,
31,14,1,0.5337247000006755,['n'],1,right,['u'],0,0.8730327000012039,0.2,0,0,FastAcc,38,17,Woman,Right,
32,14,1,0.46828110000024026,['n'],1,right,['e'],1,0.8218442999987019,0.1,1,0,FastAcc,38,17,Woman,Right,
33,14,1,0.6509829999995418,['c'],1,left,['e'],1,1.2132894999995187,0.4,1,0,FastAcc,38,17,Woman,Right,
34,14,1,0.8180974999995669,['c'],1,left,['u'],0,0.5905683000000863,0.4,0,0,FastAcc,38,17,Woman,Right,
35,14,1,0.8012223999994603,['n'],0,left,['e'],1,0.5535392999991018,0.1,0,0,FastAcc,38,17,Woman,Right,
36,14,1,0.85126610000043,['n'],1,right,['u'],0,0.6117907999996532,0.2,0,0,FastAcc,38,17,Woman,Right,
37,14,1,0.5348220999985642,['n'],1,right,['e'],1,0.42390180000074906,0.4,1,0,FastAcc,38,17,Woman,Right,
38,14,1,0.7676397999985056,['n'],1,right,['u'],0,0.8428969000015059,0.4,0,0,FastAcc,38,17,Woman,Right,
39,14,1,0.8846249999987776,['c'],1,left,['e'],1,0.9364753999998356,0.2,1,0,FastAcc,38,17,Woman,Right,
40,14,1,0.9175759000008838,['c'],1,left,['u'],0,1.9211350999994465,0.4,0,0,FastAcc,38,17,Woman,Right,
41,14,1,2.033402199998818,['n'],0,left,['e'],1,3.397749300000214,0.1,0,0,FastAcc,38,17,Woman,Right,
42,14,1,0.5676633999992191,['n'],1,right,['u'],0,3.1295681999999942,0.4,0,0,FastAcc,38,17,Woman,Right,
43,14,1,0.9011877999982971,['c'],1,left,['e'],1,1.0665231000002677,0.4,1,0,FastAcc,38,17,Woman,Right,
44,14,1,0.8177229000011721,['n'],1,right,['u'],0,1.0578034999998636,0.2,0,0,FastAcc,38,17,Woman,Right,
45,14,1,1.6346056000002136,['n'],0,left,['u'],0,1.1767574999994395,0.1,1,0,FastAcc,38,17,Woman,Right,
46,14,1,0.7846756999988429,['c'],1,left,['u'],0,0.9889328999997815,0.1,0,0,FastAcc,38,17,Woman,Right,
47,14,1,0.6171645000013086,['c'],0,right,['e'],1,0.8153441999984352,0.1,0,0,FastAcc,38,17,Woman,Right,
48,14,1,0.751008000001093,['n'],1,right,['u'],0,1.4436478999996325,0.1,0,0,FastAcc,38,17,Woman,Right,
49,14,1,0.801612399998703,['c'],1,left,['u'],0,1.1160249000004114,0.2,0,0,FastAcc,38,17,Woman,Right,
50,14,1,0.700642699999662,['n'],1,right,['u'],0,1.2857685999988462,0.2,0,0,FastAcc,38,17,Woman,Right,
51,14,1,1.1346527000005153,['c'],1,left,['e'],1,2.0072725000009086,0.1,1,0,FastAcc,38,17,Woman,Right,
52,14,1,0.8011870000009367,['n'],1,right,['e'],1,1.3857705000009446,0.4,1,0,FastAcc,38,17,Woman,Right,
53,14,1,0.6181837999993149,['c'],1,left,['e'],1,1.340103000000454,0.1,1,0,FastAcc,38,17,Woman,Right,
54,14,1,0.617233999999371,['c'],1,left,['u'],0,1.2164119000008213,0.2,0,0,FastAcc,38,17,Woman,Right,
55,14,1,0.7175793999995221,['n'],1,right,['e'],1,0.901479999998628,0.1,1,0,FastAcc,38,17,Woman,Right,
56,14,1,0.9336571999992884,['c'],0,right,['u'],0,0.8311553000003187,0.4,1,0,FastAcc,38,17,Woman,Right,
57,14,1,0.8178807999993296,['n'],1,right,['e'],1,0.6709885000000213,0.2,1,0,FastAcc,38,17,Woman,Right,
58,14,1,0.9838960999986739,['n'],1,right,['e'],1,0.559153599999263,0.2,1,0,FastAcc,38,17,Woman,Right,
59,14,1,1.4013052999998763,['n'],1,right,['e'],1,0.2756440000011935,0.2,1,0,FastAcc,38,17,Woman,Right,
0,15,1,0.6860842999994929,['n'],1,right,['e'],1,0.39125609999973676,0.4,1,0,FastFast,38,17,Woman,Right,
1,15,1,0.8862709999993967,['n'],1,right,['u'],0,0.19870860000082757,0.1,0,0,FastFast,38,17,Woman,Right,
2,15,1,1.1497860999988916,['c'],0,right,['e'],1,0.1955227999987983,0.1,0,0,FastFast,38,17,Woman,Right,
3,15,1,1.2159105999999156,['n'],0,left,['e'],1,0.5580840000002354,0.4,0,0,FastFast,38,17,Woman,Right,
4,15,1,1.601031399999556,['n'],0,left,['e'],1,0.3611448999999993,0.4,0,0,FastFast,38,17,Woman,Right,
5,15,1,0.7518304999994143,['c'],1,left,['e'],1,0.25537380000059784,0.4,1,0,FastFast,38,17,Woman,Right,
6,15,1,0.9342329999999492,['n'],0,left,['u'],0,0.16216890000032436,0.4,1,0,FastFast,38,17,Woman,Right,
7,15,1,0.733101899999383,['n'],0,left,['e'],1,0.16051249999873107,0.1,0,0,FastFast,38,17,Woman,Right,
8,15,1,0.819367099998999,['c'],1,left,['u'],0,0.18804920000002312,0.1,0,0,FastFast,38,17,Woman,Right,
9,15,1,0.9346452999998291,['n'],1,right,['e'],1,0.12961269999868819,0.2,1,0,FastFast,38,17,Woman,Right,
10,15,1,1.3516399000000092,['n'],0,left,['e'],1,0.15273049999996147,0.1,0,0,FastFast,38,17,Woman,Right,
11,15,1,1.0676750000002357,['c'],0,right,['u'],0,0.31425990000025195,0.2,1,0,FastFast,38,17,Woman,Right,
12,15,1,1.1514662000008684,['c'],0,right,['e'],1,0.20992570000089472,0.2,0,0,FastFast,38,17,Woman,Right,
13,15,1,0.9179917000001296,['c'],1,left,['e'],1,0.21554029999970226,0.4,1,0,FastFast,38,17,Woman,Right,
14,15,1,0.7181027999995422,['n'],0,left,['e'],1,0.3882534000003943,0.1,0,0,FastFast,38,17,Woman,Right,
15,15,1,1.1513033000010182,['c'],1,left,['u'],0,0.24923610000041663,0.4,0,0,FastFast,38,17,Woman,Right,
16,15,1,0.9500263000008999,['n'],1,right,['e'],1,0.13964169999962905,0.1,1,0,FastFast,38,17,Woman,Right,
17,15,1,0.6506946999998036,['n'],0,left,['e'],1,0.2384517999998934,0.4,0,0,FastFast,38,17,Woman,Right,
18,15,1,0.6169847000001027,['c'],1,left,['e'],1,0.22268869999970775,0.2,1,0,FastFast,38,17,Woman,Right,
19,15,1,0.9021546999993006,['n'],1,right,['u'],0,0.1324356999994052,0.2,0,0,FastFast,38,17,Woman,Right,
20,15,1,1.0516556999991735,['n'],1,right,['e'],1,0.08714449999934004,0.2,1,0,FastFast,38,17,Woman,Right,
21,15,1,1.1518431000004057,['n'],0,left,['e'],1,0.23222209999948973,0.1,0,0,FastFast,38,17,Woman,Right,
22,15,1,0.8830078999999387,['c'],1,left,['e'],1,0.20602560000043013,0.4,1,0,FastFast,38,17,Woman,Right,
23,15,1,1.068114899999273,['n'],1,right,['u'],0,0.4294313999998849,0.4,0,0,FastFast,38,17,Woman,Right,
24,15,1,1.0662169000006543,['c'],1,left,['u'],0,0.13308669999969425,0.2,0,0,FastFast,38,17,Woman,Right,
25,15,1,1.0342254000006506,['c'],1,left,['u'],0,0.1520817000000534,0.2,0,0,FastFast,38,17,Woman,Right,
26,15,1,1.4000506000011228,['c'],1,left,['u'],0,0.26758779999909166,0.1,0,0,FastFast,38,17,Woman,Right,
27,15,1,1.3686244999989867,['n'],1,right,['e'],1,0.07684830000107468,0.1,1,0,FastFast,38,17,Woman,Right,
28,15,1,1.3182618000009825,['n'],1,right,['e'],1,0.24756729999899107,0.4,1,0,FastFast,38,17,Woman,Right,
29,15,1,1.1666251000006014,['c'],0,right,['u'],0,0.11367600000085076,0.2,1,0,FastFast,38,17,Woman,Right,
30,15,1,0.584616800000731,['c'],1,left,['e'],1,0.13520599999901606,0.2,1,0,FastFast,38,17,Woman,Right,
31,15,1,0.8669265000007726,['n'],1,right,['e'],1,0.11411780000162253,0.4,1,0,FastFast,38,17,Woman,Right,
32,15,1,0.9346217999991495,['n'],0,left,['u'],0,0.0733261000004859,0.1,1,0,FastFast,38,17,Woman,Right,
33,15,1,0.8346237000005203,['n'],1,right,['e'],1,0.08813589999954274,0.2,1,0,FastFast,38,17,Woman,Right,
34,15,1,1.0344977999993716,['c'],0,right,['u'],0,0.07780040000034205,0.1,1,0,FastFast,38,17,Woman,Right,
35,15,1,0.884105000001,['n'],1,right,['u'],0,0.13793830000031448,0.2,0,0,FastFast,38,17,Woman,Right,
36,15,1,0.6017424000001483,['n'],1,right,['e'],1,0.1267547999996168,0.4,1,0,FastFast,38,17,Woman,Right,
37,15,1,1.0517085999999836,['n'],1,right,['e'],1,0.19450599999981932,0.2,1,0,FastFast,38,17,Woman,Right,
38,15,1,0.9512717999987217,['c'],1,left,['e'],1,0.18351710000024468,0.1,1,0,FastFast,38,17,Woman,Right,
39,15,1,1.067592199999126,['n'],1,right,['u'],0,0.039830899999287794,0.2,0,0,FastFast,38,17,Woman,Right,
40,15,1,1.2846908000010444,['n'],1,right,['e'],1,0.06935639999937848,0.2,1,0,FastFast,38,17,Woman,Right,
41,15,1,1.3497638999997434,['n'],1,right,['e'],1,0.1436647999998968,0.4,1,0,FastFast,38,17,Woman,Right,
42,15,1,1.067694900000788,['n'],1,right,['e'],1,0.16114809999999125,0.2,1,0,FastFast,38,17,Woman,Right,
43,15,1,0.7668111999992107,['c'],1,left,['e'],1,1.0709002999992663,0.2,1,0,FastFast,38,17,Woman,Right,
44,15,1,0.6504141999994317,['c'],1,left,['e'],1,0.15647100000023784,0.1,1,0,FastFast,38,17,Woman,Right,
45,15,1,0.9667061000000103,['c'],1,left,['u'],0,0.08281209999950079,0.4,0,0,FastFast,38,17,Woman,Right,
46,15,1,1.0012546999987535,['n'],1,right,['e'],1,0.08874959999957355,0.1,1,0,FastFast,38,17,Woman,Right,
47,15,1,0.7678046999990329,['c'],1,left,['e'],1,0.15389869999853545,0.1,1,0,FastFast,38,17,Woman,Right,
48,15,1,1.0323023999990255,['n'],1,right,['u'],0,0.10961759999918286,0.1,0,0,FastFast,38,17,Woman,Right,
49,15,1,0.8180971000001591,['c'],0,right,['u'],0,0.10639239999909478,0.1,1,0,FastFast,38,17,Woman,Right,
50,15,1,0.7178199000009045,['n'],1,right,['u'],0,0.18720899999971152,0.2,0,0,FastFast,38,17,Woman,Right,
51,15,1,1.035302700000102,['n'],1,right,['e'],1,0.33280550000017683,0.2,1,0,FastFast,38,17,Woman,Right,
52,15,1,0.9665953000003356,['n'],0,left,['u'],0,0.12395920000017213,0.1,1,0,FastFast,38,17,Woman,Right,
53,15,1,0.850494999998773,['n'],0,left,['u'],0,0.15045699999973294,0.4,1,0,FastFast,38,17,Woman,Right,
54,15,1,1.334359399999812,['c'],1,left,['e'],1,0.12563289999889093,0.4,1,0,FastFast,38,17,Woman,Right,
55,15,1,0.9164990999997826,['c'],1,left,['u'],0,0.1030174999996234,0.2,0,0,FastFast,38,17,Woman,Right,
56,15,1,0.5847730999994383,['n'],1,right,['e'],1,0.15742320000026666,0.4,1,0,FastFast,38,17,Woman,Right,
57,15,1,0.8014150999988487,['c'],1,left,['e'],1,0.1216019999992568,0.4,1,0,FastFast,38,17,Woman,Right,
58,15,1,0.9180225000000064,['c'],1,left,['e'],1,0.1466015999994852,0.1,1,0,FastFast,38,17,Woman,Right,
59,15,1,0.6511996999997791,['c'],0,right,['u'],0,0.724996300001294,0.4,1,0,FastFast,38,17,Woman,Right,
