withinblocktrial,block,block_repetition,rt,resp,cor,cresp,conf_press,cj,rtconf,coherence,metacognition,slow_trial,manipulation,sub,age,gender,handedness,
0,1,1,1.7502845999988494,['c'],1,left,none,-99,-99,0.5,-99,0,none,37,18,Man,Right,
1,1,1,1.1336875000015425,['c'],1,left,none,-99,-99,0.5,-99,0,none,37,18,Man,Right,
2,1,1,0.8346574000024702,['c'],1,left,none,-99,-99,0.5,-99,0,none,37,18,Man,Right,
3,1,1,1.4831317999996827,['n'],0,left,none,-99,-99,0.5,-99,0,none,37,18,Man,Right,
4,1,1,0.7180129999978817,['n'],1,right,none,-99,-99,0.5,-99,0,none,37,18,Man,Right,
5,1,1,0.6338505000021541,['n'],1,right,none,-99,-99,0.5,-99,0,none,37,18,Man,Right,
6,1,1,1.333220500000607,['c'],0,right,none,-99,-99,0.5,-99,0,none,37,18,Man,Right,
7,1,1,0.9665630999988934,['n'],1,right,none,-99,-99,0.5,-99,0,none,37,18,Man,Right,
8,1,1,0.933276300002035,['n'],1,right,none,-99,-99,0.5,-99,0,none,37,18,Man,Right,
9,1,1,0.8167546000004222,['c'],1,left,none,-99,-99,0.5,-99,0,none,37,18,Man,Right,
10,1,1,0.5833340999997745,['c'],1,left,none,-99,-99,0.5,-99,0,none,37,18,Man,Right,
11,1,1,0.6349611000005098,['c'],1,left,none,-99,-99,0.5,-99,0,none,37,18,Man,Right,
12,1,1,0.684845600000699,['c'],1,left,none,-99,-99,0.5,-99,0,none,37,18,Man,Right,
13,1,1,0.5846923999997671,['n'],1,right,none,-99,-99,0.5,-99,0,none,37,18,Man,Right,
14,1,1,0.7173484000013559,['n'],0,left,none,-99,-99,0.5,-99,0,none,37,18,Man,Right,
15,1,1,0.5338674999984505,['c'],1,left,none,-99,-99,0.5,-99,0,none,37,18,Man,Right,
16,1,1,0.5671991999988677,['n'],1,right,none,-99,-99,0.5,-99,0,none,37,18,Man,Right,
17,1,1,0.5842890000021725,['c'],1,left,none,-99,-99,0.5,-99,0,none,37,18,Man,Right,
18,1,1,1.1328419000019494,['n'],1,right,none,-99,-99,0.5,-99,0,none,37,18,Man,Right,
19,1,1,0.5500652000009723,['n'],1,right,none,-99,-99,0.5,-99,0,none,37,18,Man,Right,
20,1,1,0.618980900002498,['n'],0,left,none,-99,-99,0.5,-99,0,none,37,18,Man,Right,
21,1,1,0.6668171999990591,['n'],1,right,none,-99,-99,0.5,-99,0,none,37,18,Man,Right,
22,1,1,0.516666699997586,['n'],1,right,none,-99,-99,0.5,-99,0,none,37,18,Man,Right,
23,1,1,0.5010091999974975,['n'],1,right,none,-99,-99,0.5,-99,0,none,37,18,Man,Right,
0,1,2,0.7504464000012376,['n'],0,left,none,-99,-99,0.5,-99,0,none,37,18,Man,Right,
1,1,2,0.6350748000004387,['c'],1,left,none,-99,-99,0.5,-99,0,none,37,18,Man,Right,
2,1,2,0.4838195000011183,['n'],1,right,none,-99,-99,0.5,-99,0,none,37,18,Man,Right,
3,1,2,0.5505818999990879,['c'],1,left,none,-99,-99,0.5,-99,0,none,37,18,Man,Right,
4,1,2,0.6169463000005635,['n'],0,left,none,-99,-99,0.5,-99,0,none,37,18,Man,Right,
5,1,2,0.5349236999973073,['n'],1,right,none,-99,-99,0.5,-99,0,none,37,18,Man,Right,
6,1,2,0.6171470000008412,['n'],1,right,none,-99,-99,0.5,-99,0,none,37,18,Man,Right,
7,1,2,0.5843145000035292,['n'],1,right,none,-99,-99,0.5,-99,0,none,37,18,Man,Right,
8,1,2,0.5002065999979095,['c'],1,left,none,-99,-99,0.5,-99,0,none,37,18,Man,Right,
9,1,2,0.5169222000004083,['n'],1,right,none,-99,-99,0.5,-99,0,none,37,18,Man,Right,
10,1,2,0.4661424999976589,['n'],1,right,none,-99,-99,0.5,-99,0,none,37,18,Man,Right,
11,1,2,0.4166702999973495,['c'],1,left,none,-99,-99,0.5,-99,0,none,37,18,Man,Right,
12,1,2,0.3831638000010571,['n'],0,left,none,-99,-99,0.5,-99,0,none,37,18,Man,Right,
13,1,2,0.5501914999986184,['n'],1,right,none,-99,-99,0.5,-99,0,none,37,18,Man,Right,
14,1,2,0.48390110000036657,['c'],1,left,none,-99,-99,0.5,-99,0,none,37,18,Man,Right,
15,1,2,0.417109399997571,['n'],1,right,none,-99,-99,0.5,-99,0,none,37,18,Man,Right,
16,1,2,0.4985713999994914,['n'],1,right,none,-99,-99,0.5,-99,0,none,37,18,Man,Right,
17,1,2,0.4686503000011726,['c'],1,left,none,-99,-99,0.5,-99,0,none,37,18,Man,Right,
18,1,2,0.6001409999989846,['n'],0,left,none,-99,-99,0.5,-99,0,none,37,18,Man,Right,
19,1,2,0.5343037999991793,['n'],1,right,none,-99,-99,0.5,-99,0,none,37,18,Man,Right,
20,1,2,0.5165656000026502,['c'],1,left,none,-99,-99,0.5,-99,0,none,37,18,Man,Right,
21,1,2,0.4842687999989721,['n'],1,right,none,-99,-99,0.5,-99,0,none,37,18,Man,Right,
22,1,2,0.4495643000009295,['n'],1,right,none,-99,-99,0.5,-99,0,none,37,18,Man,Right,
23,1,2,0.3679989999982354,['n'],0,left,none,-99,-99,0.5,-99,0,none,37,18,Man,Right,
0,1,3,0.5837255000005825,['n'],1,right,none,-99,-99,0.5,-99,0,none,37,18,Man,Right,
1,1,3,0.5338031999999657,['n'],1,right,none,-99,-99,0.5,-99,0,none,37,18,Man,Right,
2,1,3,0.40061639999839826,['c'],1,left,none,-99,-99,0.5,-99,0,none,37,18,Man,Right,
3,1,3,0.5660991000004287,['n'],0,left,none,-99,-99,0.5,-99,0,none,37,18,Man,Right,
4,1,3,0.4671770999993896,['c'],1,left,none,-99,-99,0.5,-99,0,none,37,18,Man,Right,
5,1,3,0.43254220000017085,['n'],1,right,none,-99,-99,0.5,-99,0,none,37,18,Man,Right,
6,1,3,0.39989549999882,['c'],1,left,none,-99,-99,0.5,-99,0,none,37,18,Man,Right,
7,1,3,0.3844423000009556,['n'],1,right,none,-99,-99,0.5,-99,0,none,37,18,Man,Right,
8,1,3,0.3979179000016302,['c'],0,right,none,-99,-99,0.5,-99,0,none,37,18,Man,Right,
9,1,3,0.46731870000076015,['n'],1,right,none,-99,-99,0.5,-99,0,none,37,18,Man,Right,
10,1,3,0.4989674999997078,['c'],1,left,none,-99,-99,0.5,-99,0,none,37,18,Man,Right,
11,1,3,0.43383230000108597,['n'],1,right,none,-99,-99,0.5,-99,0,none,37,18,Man,Right,
12,1,3,0.4327598999989277,['c'],1,left,none,-99,-99,0.5,-99,0,none,37,18,Man,Right,
13,1,3,0.30113970000093104,['n'],0,left,none,-99,-99,0.5,-99,0,none,37,18,Man,Right,
14,1,3,0.5172588999994332,['n'],1,right,none,-99,-99,0.5,-99,0,none,37,18,Man,Right,
15,1,3,0.4173503999991226,['c'],1,left,none,-99,-99,0.5,-99,0,none,37,18,Man,Right,
16,1,3,0.3676393999994616,['n'],1,right,none,-99,-99,0.5,-99,0,none,37,18,Man,Right,
17,1,3,0.4023190000007162,['c'],1,left,none,-99,-99,0.5,-99,0,none,37,18,Man,Right,
18,1,3,0.5338990000018384,['c'],1,left,none,-99,-99,0.5,-99,0,none,37,18,Man,Right,
19,1,3,0.6336241999997583,['n'],0,left,none,-99,-99,0.5,-99,0,none,37,18,Man,Right,
20,1,3,0.43486660000053234,['n'],1,right,none,-99,-99,0.5,-99,0,none,37,18,Man,Right,
21,1,3,0.4326583000001847,['n'],1,right,none,-99,-99,0.5,-99,0,none,37,18,Man,Right,
22,1,3,0.6672328999993624,['n'],1,right,none,-99,-99,0.5,-99,0,none,37,18,Man,Right,
23,1,3,0.6011472999998659,['c'],1,left,none,-99,-99,0.5,-99,0,none,37,18,Man,Right,
0,1,4,0.5341859999971348,['n'],1,right,none,-99,-99,0.5,-99,0,none,37,18,Man,Right,
1,1,4,0.4511106000027212,['c'],1,left,none,-99,-99,0.5,-99,0,none,37,18,Man,Right,
2,1,4,0.5332778000010876,['n'],1,right,none,-99,-99,0.5,-99,0,none,37,18,Man,Right,
3,1,4,0.5833280000006198,['c'],1,left,none,-99,-99,0.5,-99,0,none,37,18,Man,Right,
4,1,4,0.4502831999998307,['n'],1,right,none,-99,-99,0.5,-99,0,none,37,18,Man,Right,
5,1,4,0.36713629999940167,['c'],1,left,none,-99,-99,0.5,-99,0,none,37,18,Man,Right,
6,1,4,0.582172400001582,['n'],1,right,none,-99,-99,0.5,-99,0,none,37,18,Man,Right,
7,1,4,0.4680865000009362,['n'],1,right,none,-99,-99,0.5,-99,0,none,37,18,Man,Right,
8,1,4,0.4004932000025292,['n'],1,right,none,-99,-99,0.5,-99,0,none,37,18,Man,Right,
9,1,4,0.40061559999958263,['c'],0,right,none,-99,-99,0.5,-99,0,none,37,18,Man,Right,
10,1,4,0.3997114999983751,['c'],1,left,none,-99,-99,0.5,-99,0,none,37,18,Man,Right,
11,1,4,0.4680427999992389,['c'],1,left,none,-99,-99,0.5,-99,0,none,37,18,Man,Right,
12,1,4,0.43293399999674875,['c'],1,left,none,-99,-99,0.5,-99,0,none,37,18,Man,Right,
13,1,4,0.33381680000093183,['n'],1,right,none,-99,-99,0.5,-99,0,none,37,18,Man,Right,
14,1,4,0.3336901000002399,['n'],0,left,none,-99,-99,0.5,-99,0,none,37,18,Man,Right,
15,1,4,0.4506872000019939,['n'],0,left,none,-99,-99,0.5,-99,0,none,37,18,Man,Right,
16,1,4,0.8831599000004644,['c'],1,left,none,-99,-99,0.5,-99,0,none,37,18,Man,Right,
17,1,4,0.5001660999987507,['n'],1,right,none,-99,-99,0.5,-99,0,none,37,18,Man,Right,
18,1,4,0.43497130000105244,['c'],1,left,none,-99,-99,0.5,-99,0,none,37,18,Man,Right,
19,1,4,0.5003586999991967,['n'],1,right,none,-99,-99,0.5,-99,0,none,37,18,Man,Right,
20,1,4,0.5323493000032613,['n'],1,right,none,-99,-99,0.5,-99,0,none,37,18,Man,Right,
21,1,4,0.3320759000016551,['c'],1,left,none,-99,-99,0.5,-99,0,none,37,18,Man,Right,
22,1,4,0.4992870000023686,['c'],1,left,none,-99,-99,0.5,-99,0,none,37,18,Man,Right,
23,1,4,0.5337695999987773,['n'],1,right,none,-99,-99,0.5,-99,0,none,37,18,Man,Right,
0,2,1,4.233944799998426,['n'],0,left,none,-99,-99,0.1,-99,0,none,37,18,Man,Right,
1,2,1,0.7518075999978464,['c'],0,right,none,-99,-99,0.2,-99,0,none,37,18,Man,Right,
2,2,1,3.266375800001697,"['n', 'c']",1,right,none,-99,-99,0.2,-99,0,none,37,18,Man,Right,
3,2,1,0.6347897999985435,"['n', 'c']",0,left,none,-99,-99,0.2,-99,0,none,37,18,Man,Right,
4,2,1,3.017673599999398,['n'],0,left,none,-99,-99,0.2,-99,0,none,37,18,Man,Right,
5,2,1,1.0497448999994958,['c'],1,left,none,-99,-99,0.1,-99,0,none,37,18,Man,Right,
6,2,1,1.3837149999999383,['n'],1,right,none,-99,-99,0.2,-99,0,none,37,18,Man,Right,
7,2,1,1.4008530999999493,['n'],1,right,none,-99,-99,0.2,-99,0,none,37,18,Man,Right,
8,2,1,2.765801999998075,['c'],0,right,none,-99,-99,0.4,-99,0,none,37,18,Man,Right,
9,2,1,0.9513703000011446,['c'],1,left,none,-99,-99,0.4,-99,0,none,37,18,Man,Right,
10,2,1,1.2177814999995462,['n'],1,right,none,-99,-99,0.1,-99,0,none,37,18,Man,Right,
11,2,1,1.8667477999988478,['n'],0,left,none,-99,-99,0.4,-99,0,none,37,18,Man,Right,
12,2,1,1.6013910999972722,['c'],1,left,none,-99,-99,0.4,-99,0,none,37,18,Man,Right,
13,2,1,1.4837642999991658,['c'],0,right,none,-99,-99,0.4,-99,0,none,37,18,Man,Right,
14,2,1,3.084426000001258,['n'],0,left,none,-99,-99,0.4,-99,0,none,37,18,Man,Right,
15,2,1,1.1178921999999147,['c'],1,left,none,-99,-99,0.1,-99,0,none,37,18,Man,Right,
16,2,1,1.1663601000000199,['c'],1,left,none,-99,-99,0.1,-99,0,none,37,18,Man,Right,
17,2,1,1.5004787999969267,['n'],1,right,none,-99,-99,0.1,-99,0,none,37,18,Man,Right,
18,2,1,1.0664174999983516,['c'],0,right,none,-99,-99,0.2,-99,0,none,37,18,Man,Right,
19,2,1,1.6664061000010406,['n'],1,right,none,-99,-99,0.4,-99,0,none,37,18,Man,Right,
20,2,1,1.133884599999874,['n'],1,right,none,-99,-99,0.1,-99,0,none,37,18,Man,Right,
21,2,1,1.8672169999990729,['n'],1,right,none,-99,-99,0.4,-99,0,none,37,18,Man,Right,
22,2,1,0.800482099999499,['c'],1,left,none,-99,-99,0.1,-99,0,none,37,18,Man,Right,
23,2,1,0.7005277999996906,['c'],1,left,none,-99,-99,0.2,-99,0,none,37,18,Man,Right,
0,3,1,1.717588200001046,['n'],0,left,['u'],1,3.8035725000008824,0.1,0,0,none,37,18,Man,Right,
1,3,1,3.600534500001231,['n'],0,left,['e'],0,1.2104596999997739,0.1,1,0,none,37,18,Man,Right,
2,3,1,0.8338279000017792,['n'],1,right,['u'],1,0.6077301000004809,0.4,1,0,none,37,18,Man,Right,
3,3,1,0.5677376000021468,['c'],1,left,['e'],0,0.37525299999833805,0.2,0,0,none,37,18,Man,Right,
4,3,1,1.5342928999998549,['c'],0,right,['e'],0,0.8501169999981357,0.1,1,0,none,37,18,Man,Right,
5,3,1,1.2679366000011214,['n'],0,left,['u'],1,0.6754027999995742,0.2,0,0,none,37,18,Man,Right,
6,3,1,0.9660354999978154,['c'],1,left,['u'],1,0.37752650000038557,0.2,1,0,none,37,18,Man,Right,
7,3,1,1.3851828000006208,['n'],1,right,['u'],1,0.2803505999982008,0.2,1,0,none,37,18,Man,Right,
8,3,1,1.834060799999861,['n'],1,right,['e'],0,0.3141882000018086,0.2,0,0,none,37,18,Man,Right,
9,3,1,2.0673764999992272,['n'],0,left,['u'],1,0.2893992999997863,0.4,0,0,none,37,18,Man,Right,
10,3,1,0.6659187000004749,['c'],1,left,['u'],1,0.29096019999997225,0.4,1,0,none,37,18,Man,Right,
11,3,1,2.532936499999778,['c'],1,left,['e'],0,0.2635941999978968,0.1,0,0,none,37,18,Man,Right,
12,3,1,3.1007582999991428,['c'],0,right,['e'],0,0.3591186000012385,0.1,1,0,none,37,18,Man,Right,
13,3,1,1.784554500001832,['n'],0,left,['e'],0,0.312184200000047,0.2,1,0,none,37,18,Man,Right,
14,3,1,1.0680966999971133,['n'],1,right,['u'],1,0.24787199999991572,0.4,1,0,none,37,18,Man,Right,
15,3,1,0.7676958000010927,['n'],1,right,['u'],1,0.24548500000310014,0.1,1,0,none,37,18,Man,Right,
16,3,1,1.3512570999992022,['n'],1,right,['u'],1,0.26846840000143857,0.4,1,0,none,37,18,Man,Right,
17,3,1,1.1015994000008504,['n'],0,left,['u'],1,0.26821840000047814,0.4,0,0,none,37,18,Man,Right,
18,3,1,1.9510140999991563,['n'],1,right,['u'],1,0.21781499999997322,0.4,1,0,none,37,18,Man,Right,
19,3,1,2.2679788999994344,['c'],0,right,['e'],0,0.8769723000004888,0.2,1,0,none,37,18,Man,Right,
20,3,1,1.7678181999981462,['c'],0,right,['u'],1,0.4099105999994208,0.2,0,0,none,37,18,Man,Right,
21,3,1,0.8678217999986373,['n'],0,left,['u'],1,0.25377149999985704,0.4,0,0,none,37,18,Man,Right,
22,3,1,1.3846094000000448,['n'],0,left,['u'],1,0.22656780000033905,0.1,0,0,none,37,18,Man,Right,
23,3,1,1.3011660999982269,['c'],0,right,['u'],1,0.36417470000014873,0.1,0,0,none,37,18,Man,Right,
0,4,1,5.000346200002241,x,-99,left,none,-99,-99,0.2,-99,1,AccFast,37,18,Man,Right,
1,4,1,1.0845202000018617,['n'],0,left,['u'],1,0.8991447000007611,0.2,0,0,AccFast,37,18,Man,Right,
2,4,1,2.217745500001911,['c'],0,right,['u'],1,0.47381209999730345,0.2,0,0,AccFast,37,18,Man,Right,
3,4,1,2.100595299998531,['c'],1,left,['u'],1,0.08524670000042534,0.4,1,0,AccFast,37,18,Man,Right,
4,4,1,1.8846116999993683,['n'],0,left,['e'],0,0.1043729999983043,0.4,1,0,AccFast,37,18,Man,Right,
5,4,1,1.484154199999466,['n'],0,left,['u'],1,0.10750030000053812,0.4,0,0,AccFast,37,18,Man,Right,
6,4,1,1.7499220999998215,['n'],0,left,['u'],1,0.13273130000015954,0.2,0,0,AccFast,37,18,Man,Right,
7,4,1,1.7513237000021036,['c'],1,left,['e'],0,0.23503150000033202,0.4,0,0,AccFast,37,18,Man,Right,
8,4,1,1.8180872000011732,['c'],1,left,['u'],1,0.07588420000320184,0.4,1,0,AccFast,37,18,Man,Right,
9,4,1,0.8173418000005768,['n'],1,right,['u'],1,0.12241720000019995,0.2,1,0,AccFast,37,18,Man,Right,
10,4,1,3.9158233999987715,['n'],0,left,['e'],0,0.25322159999996074,0.1,1,0,AccFast,37,18,Man,Right,
11,4,1,2.351295199998276,['c'],0,right,['u'],1,0.07116479999967851,0.2,0,0,AccFast,37,18,Man,Right,
12,4,1,1.6515748999991047,['c'],0,right,['u'],1,0.06830219999756082,0.1,0,0,AccFast,37,18,Man,Right,
13,4,1,1.6179115000013553,['n'],0,left,['u'],1,0.08298110000032466,0.1,0,0,AccFast,37,18,Man,Right,
14,4,1,2.1169097000019974,['c'],1,left,['u'],1,0.10989640000116196,0.2,1,0,AccFast,37,18,Man,Right,
15,4,1,2.6010862000002817,['n'],1,right,['u'],1,0.06842820000019856,0.4,1,0,AccFast,37,18,Man,Right,
16,4,1,2.351352900001075,['c'],1,left,['u'],1,0.05389339999965159,0.4,1,0,AccFast,37,18,Man,Right,
17,4,1,2.5498017000027176,['c'],0,right,['u'],1,0.09619240000029095,0.2,0,0,AccFast,37,18,Man,Right,
18,4,1,3.5342942000024777,['n'],1,right,['e'],0,0.12959789999877103,0.1,0,0,AccFast,37,18,Man,Right,
19,4,1,1.4678399000003992,['c'],1,left,['u'],1,0.13198370000100113,0.4,1,0,AccFast,37,18,Man,Right,
20,4,1,0.7667165999991994,['c'],1,left,['u'],1,0.019328099999256665,0.4,1,0,AccFast,37,18,Man,Right,
21,4,1,1.084411199997703,['n'],1,right,['u'],1,0.08881130000008852,0.4,1,0,AccFast,37,18,Man,Right,
22,4,1,2.05109629999788,['n'],1,right,['u'],1,0.10169839999798569,0.1,1,0,AccFast,37,18,Man,Right,
23,4,1,3.1838533000009193,['c'],0,right,['u'],1,0.06956689999788068,0.2,0,0,AccFast,37,18,Man,Right,
24,4,1,3.0839496000007784,['c'],1,left,['u'],1,0.07381100000202423,0.1,1,0,AccFast,37,18,Man,Right,
25,4,1,2.6678796999985934,['c'],1,left,['u'],1,0.07866540000031819,0.1,1,0,AccFast,37,18,Man,Right,
26,4,1,3.9501627999998163,['c'],1,left,['u'],1,0.048190299999987474,0.1,1,0,AccFast,37,18,Man,Right,
27,4,1,3.215865999998641,['n'],1,right,['u'],1,0.09759330000088084,0.4,1,0,AccFast,37,18,Man,Right,
28,4,1,2.500961300000199,['n'],1,right,['e'],0,0.12294079999992391,0.2,0,0,AccFast,37,18,Man,Right,
29,4,1,2.6003813999996055,['n'],1,right,['u'],1,0.016785200001322664,0.4,1,0,AccFast,37,18,Man,Right,
30,4,1,1.5342316999995091,['n'],0,left,['u'],1,0.06883569999990868,0.1,0,0,AccFast,37,18,Man,Right,
31,4,1,2.968316999998933,['c'],0,right,['e'],0,1.5182072999996308,0.1,1,0,AccFast,37,18,Man,Right,
32,4,1,1.4337321000020893,['c'],1,left,['e'],0,0.04269950000161771,0.4,0,0,AccFast,37,18,Man,Right,
33,4,1,2.9661746000019775,['c'],0,right,['u'],1,0.0060345999991113786,0.1,0,0,AccFast,37,18,Man,Right,
34,4,1,2.583222699999169,['n'],1,right,['u'],1,0.9923045999967144,0.4,1,0,AccFast,37,18,Man,Right,
35,4,1,1.6012652999997954,['c'],0,right,['u'],1,0.012150399998063222,0.2,0,0,AccFast,37,18,Man,Right,
36,4,1,1.5168928999992204,['c'],1,left,['u'],1,0.001357999997708248,0.2,1,0,AccFast,37,18,Man,Right,
37,4,1,2.6499379000015324,['c'],1,left,['e'],0,0.05716979999851901,0.1,0,0,AccFast,37,18,Man,Right,
38,4,1,1.9841556999999739,['c'],1,left,['u'],1,0.05894569999873056,0.1,1,0,AccFast,37,18,Man,Right,
39,4,1,3.1177644999988843,['n'],1,right,['e'],0,0.11008619999847724,0.2,0,0,AccFast,37,18,Man,Right,
40,4,1,1.734830299999885,['n'],0,left,['u'],1,0.08760800000163727,0.1,0,0,AccFast,37,18,Man,Right,
41,4,1,1.634823200001847,['n'],1,right,['u'],1,0.08506180000040331,0.4,1,0,AccFast,37,18,Man,Right,
42,4,1,1.1841412000030687,['n'],1,right,['u'],1,0.08467620000010356,0.1,1,0,AccFast,37,18,Man,Right,
43,4,1,2.9489972999981546,['c'],1,left,['e'],0,0.09444409999923664,0.1,0,0,AccFast,37,18,Man,Right,
44,4,1,1.215575300000637,['c'],1,left,['e'],0,0.12506889999713167,0.4,0,0,AccFast,37,18,Man,Right,
45,4,1,1.2348812999989605,['n'],1,right,['u'],1,0.07222010000259615,0.2,1,0,AccFast,37,18,Man,Right,
46,4,1,0.9347189000000071,['n'],0,left,['u'],1,0.06678929999907268,0.2,0,0,AccFast,37,18,Man,Right,
47,4,1,1.168174899998121,['c'],1,left,['e'],0,0.1155694000008225,0.4,0,0,AccFast,37,18,Man,Right,
48,4,1,1.2338488999994297,['n'],1,right,['u'],1,0.0803328000001784,0.1,1,0,AccFast,37,18,Man,Right,
49,4,1,0.8171508000014001,['n'],1,right,['u'],1,0.07832560000315425,0.2,1,0,AccFast,37,18,Man,Right,
50,4,1,1.1671129999995173,['n'],1,right,['u'],1,0.0467108000011649,0.2,1,0,AccFast,37,18,Man,Right,
51,4,1,3.117806500002189,['n'],1,right,['e'],0,0.019079300000157673,0.4,0,0,AccFast,37,18,Man,Right,
52,4,1,1.5677001000003656,['n'],1,right,['u'],1,0.021665699998266064,0.1,1,0,AccFast,37,18,Man,Right,
53,4,1,2.1346101999988605,['c'],0,right,['e'],0,0.03406100000211154,0.2,1,0,AccFast,37,18,Man,Right,
54,4,1,1.549892799997906,['c'],1,left,['u'],1,0.0697491999999329,0.4,1,0,AccFast,37,18,Man,Right,
55,4,1,1.118120800001634,['c'],1,left,['u'],1,0.040140499997505685,0.2,1,0,AccFast,37,18,Man,Right,
56,4,1,1.0022524000014528,['c'],1,left,['u'],1,0.08113370000137365,0.2,1,0,AccFast,37,18,Man,Right,
57,4,1,1.9840349000005517,['n'],1,right,['e'],0,0.09719089999998687,0.1,0,0,AccFast,37,18,Man,Right,
58,4,1,1.9172951000000467,['n'],1,right,['e'],0,0.08292630000141799,0.1,0,0,AccFast,37,18,Man,Right,
59,4,1,0.9845251999977336,['n'],1,right,['u'],1,0.10712520000015502,0.4,1,0,AccFast,37,18,Man,Right,
0,5,1,2.68520239999998,['c'],1,left,['u'],1,0.7805550000011863,0.4,1,0,AccAcc,37,18,Man,Right,
1,5,1,2.2347898999978497,['c'],1,left,['u'],1,0.34261049999986426,0.2,1,0,AccAcc,37,18,Man,Right,
2,5,1,3.684253399998852,['n'],1,right,['e'],0,0.5525301999987278,0.1,0,0,AccAcc,37,18,Man,Right,
3,5,1,3.3008733999995457,['n'],1,right,['e'],0,2.1770266000021365,0.4,0,0,AccAcc,37,18,Man,Right,
4,5,1,1.8002626999987115,['n'],1,right,['u'],1,0.3573969999997644,0.4,1,0,AccAcc,37,18,Man,Right,
5,5,1,2.1007953000007547,['c'],1,left,['e'],0,1.2058859999997367,0.4,0,0,AccAcc,37,18,Man,Right,
6,5,1,2.701411599999119,['c'],0,right,['u'],1,0.31651160000183154,0.1,0,0,AccAcc,37,18,Man,Right,
7,5,1,3.2670246999987285,['c'],0,right,['e'],0,0.30354950000037206,0.1,1,0,AccAcc,37,18,Man,Right,
8,5,1,1.8013069000007818,['n'],1,right,['u'],1,0.3179872000000614,0.1,1,0,AccAcc,37,18,Man,Right,
9,5,1,2.7013650000008056,['n'],0,left,['u'],1,0.4239132000002428,0.1,0,0,AccAcc,37,18,Man,Right,
10,5,1,1.8340243999991799,['n'],1,right,['u'],1,0.4323328999998921,0.2,1,0,AccAcc,37,18,Man,Right,
11,5,1,5.0000853999990795,x,-99,right,none,-99,-99,0.2,-99,1,AccAcc,37,18,Man,Right,
12,5,1,1.4846101000002818,['n'],0,left,['u'],1,0.43309840000074473,0.1,0,0,AccAcc,37,18,Man,Right,
13,5,1,1.5179032000014558,['c'],1,left,['u'],1,0.517486500000814,0.4,1,0,AccAcc,37,18,Man,Right,
14,5,1,3.3496292000018,['c'],0,right,['e'],0,0.47830180000164546,0.4,1,0,AccAcc,37,18,Man,Right,
15,5,1,3.2180010000010952,['c'],0,right,['e'],0,0.4288847000025271,0.1,1,0,AccAcc,37,18,Man,Right,
16,5,1,1.1674405000012484,['n'],1,right,['u'],1,0.527317200001562,0.4,1,0,AccAcc,37,18,Man,Right,
17,5,1,4.35019789999933,['n'],0,left,['e'],0,0.41533200000048964,0.1,1,0,AccAcc,37,18,Man,Right,
18,5,1,3.3341808000004676,['n'],0,left,['u'],1,0.47599170000103186,0.1,0,0,AccAcc,37,18,Man,Right,
19,5,1,4.033964400001423,['c'],1,left,['e'],0,0.7786783000010473,0.4,0,0,AccAcc,37,18,Man,Right,
20,5,1,1.4502482999996573,['n'],1,right,['u'],1,0.4522523999985424,0.4,1,0,AccAcc,37,18,Man,Right,
21,5,1,2.6678757000008773,['n'],1,right,['e'],0,0.3937363999975787,0.1,0,0,AccAcc,37,18,Man,Right,
22,5,1,3.4180277999985265,['c'],0,right,['e'],0,0.9486175999991246,0.2,1,0,AccAcc,37,18,Man,Right,
23,5,1,2.833721200000582,['n'],0,left,['u'],1,0.7997298999980558,0.4,0,0,AccAcc,37,18,Man,Right,
24,5,1,2.4838765999993484,['n'],1,right,['e'],0,0.9110680999983742,0.2,0,0,AccAcc,37,18,Man,Right,
25,5,1,1.7179414000020188,['n'],0,left,['u'],1,0.440891999998712,0.4,0,0,AccAcc,37,18,Man,Right,
26,5,1,1.6510326999996323,['n'],1,right,['u'],1,0.4880658999973093,0.2,1,0,AccAcc,37,18,Man,Right,
27,5,1,1.3326066999979957,['c'],1,left,['e'],0,0.5618458999997529,0.4,0,0,AccAcc,37,18,Man,Right,
28,5,1,3.767650000001595,['c'],1,left,['u'],1,0.35897859999749926,0.2,1,0,AccAcc,37,18,Man,Right,
29,5,1,1.3343941000021005,['c'],1,left,['u'],1,0.5030196000006981,0.4,1,0,AccAcc,37,18,Man,Right,
30,5,1,2.951367699999537,['n'],1,right,['u'],1,0.49466129999927944,0.2,1,0,AccAcc,37,18,Man,Right,
31,5,1,1.2183832000009716,['n'],1,right,['u'],1,0.6531661999979406,0.4,1,0,AccAcc,37,18,Man,Right,
32,5,1,3.383827100002236,['n'],1,right,['e'],0,0.462561000000278,0.1,0,0,AccAcc,37,18,Man,Right,
33,5,1,1.5667138999997405,['c'],0,right,['e'],0,0.4803887999987637,0.2,1,0,AccAcc,37,18,Man,Right,
34,5,1,2.08429089999845,['n'],1,right,['u'],1,0.3956889000000956,0.2,1,0,AccAcc,37,18,Man,Right,
35,5,1,1.818436000001384,['c'],1,left,['e'],0,0.6290609999996377,0.4,0,0,AccAcc,37,18,Man,Right,
36,5,1,5.016707400001906,x,-99,right,none,-99,-99,0.1,-99,1,AccAcc,37,18,Man,Right,
37,5,1,3.049546600002941,['n'],1,right,['e'],0,1.007365599998593,0.2,0,0,AccAcc,37,18,Man,Right,
38,5,1,3.3842823000013595,['n'],1,right,['u'],1,0.610256500000105,0.2,1,0,AccAcc,37,18,Man,Right,
39,5,1,2.21585050000067,['n'],1,right,['e'],0,0.34141230000022915,0.1,0,0,AccAcc,37,18,Man,Right,
40,5,1,4.385522500000661,['c'],1,left,['e'],0,1.0341724999998405,0.1,0,0,AccAcc,37,18,Man,Right,
41,5,1,2.017608800000744,['c'],1,left,['e'],0,0.402692500003468,0.1,0,0,AccAcc,37,18,Man,Right,
42,5,1,5.016658799999277,x,-99,left,none,-99,-99,0.1,-99,1,AccAcc,37,18,Man,Right,
43,5,1,2.0343317999977444,['c'],1,left,['e'],0,0.36615469999742345,0.2,0,0,AccAcc,37,18,Man,Right,
44,5,1,3.56730460000108,['c'],1,left,['e'],0,0.9797031000016432,0.1,0,0,AccAcc,37,18,Man,Right,
45,5,1,2.0341268999982276,['n'],1,right,['e'],0,0.3975721999995585,0.2,0,0,AccAcc,37,18,Man,Right,
46,5,1,5.000120300002891,x,-99,left,none,-99,-99,0.1,-99,1,AccAcc,37,18,Man,Right,
47,5,1,2.3844919000002847,['c'],1,left,['e'],0,1.0839308999966306,0.2,0,0,AccAcc,37,18,Man,Right,
48,5,1,3.917336599999544,['c'],1,left,['e'],0,0.3757565000014438,0.1,0,0,AccAcc,37,18,Man,Right,
49,5,1,1.1022932000014407,['c'],1,left,['u'],1,0.30224319999979343,0.4,1,0,AccAcc,37,18,Man,Right,
50,5,1,2.767838200001279,['c'],1,left,['u'],1,0.7102013000003353,0.2,1,0,AccAcc,37,18,Man,Right,
51,5,1,1.684870700002648,['c'],1,left,['u'],1,0.39326770000116085,0.2,1,0,AccAcc,37,18,Man,Right,
52,5,1,1.0013471000020218,['n'],1,right,['u'],1,0.43632419999994454,0.4,1,0,AccAcc,37,18,Man,Right,
53,5,1,0.6180581000007805,['n'],1,right,['u'],1,0.3005565999992541,0.4,1,0,AccAcc,37,18,Man,Right,
54,5,1,0.7678500999973039,['n'],1,right,['u'],1,0.308358499998576,0.4,1,0,AccAcc,37,18,Man,Right,
55,5,1,1.2508922000015446,['n'],1,right,['u'],1,0.6006333000004815,0.4,1,0,AccAcc,37,18,Man,Right,
56,5,1,0.8005831000009493,['c'],1,left,['u'],1,0.5153009999994538,0.1,1,0,AccAcc,37,18,Man,Right,
57,5,1,1.4672736000029545,['n'],0,left,['e'],0,0.518834099999367,0.2,1,0,AccAcc,37,18,Man,Right,
58,5,1,1.1346800999999687,['c'],1,left,['u'],1,0.4543176000006497,0.2,1,0,AccAcc,37,18,Man,Right,
59,5,1,0.7677250999986427,['c'],1,left,['u'],1,0.40835279999737395,0.2,1,0,AccAcc,37,18,Man,Right,
0,6,1,0.7347337999999581,['c'],1,left,['e'],0,1.273152800000389,0.4,0,0,FastAcc,37,18,Man,Right,
1,6,1,1.0508459000011499,['n'],0,left,['e'],0,0.830889599998045,0.4,1,0,FastAcc,37,18,Man,Right,
2,6,1,0.5843366000008245,['n'],1,right,['u'],1,0.23254369999995106,0.4,1,0,FastAcc,37,18,Man,Right,
3,6,1,0.5674249000003329,['c'],1,left,['u'],1,0.5708150999998907,0.2,1,0,FastAcc,37,18,Man,Right,
4,6,1,1.2837783000031777,['n'],0,left,['e'],0,0.563582700000552,0.2,1,0,FastAcc,37,18,Man,Right,
5,6,1,0.6996397999973851,['n'],1,right,['u'],1,0.5469162999979744,0.1,1,0,FastAcc,37,18,Man,Right,
6,6,1,0.5508286000003864,['c'],1,left,['u'],1,0.8252819000008458,0.2,1,0,FastAcc,37,18,Man,Right,
7,6,1,0.8344637999980478,['n'],0,left,['e'],0,0.48956100000214064,0.4,1,0,FastAcc,37,18,Man,Right,
8,6,1,0.6678643000013835,['n'],0,left,['e'],0,1.2620147000016004,0.2,1,0,FastAcc,37,18,Man,Right,
9,6,1,0.9509821999999986,['c'],1,left,['e'],0,0.6322072000002663,0.1,0,0,FastAcc,37,18,Man,Right,
10,6,1,1.4178866000002017,['n'],1,right,['e'],0,0.6321250000000873,0.1,0,0,FastAcc,37,18,Man,Right,
11,6,1,0.3845675999982632,['n'],0,left,['e'],0,0.8500144999998156,0.4,1,0,FastAcc,37,18,Man,Right,
12,6,1,0.5844877000017732,['c'],1,left,['u'],1,0.45893100000103004,0.2,1,0,FastAcc,37,18,Man,Right,
13,6,1,0.3840316999994684,['n'],1,right,['u'],1,0.6996742000010272,0.4,1,0,FastAcc,37,18,Man,Right,
14,6,1,0.40125309999712044,['c'],0,right,['u'],1,0.9142791999984183,0.1,0,0,FastAcc,37,18,Man,Right,
15,6,1,0.5848101999981736,['n'],1,right,['u'],1,0.6486855000002834,0.2,1,0,FastAcc,37,18,Man,Right,
16,6,1,0.4991062000008242,['c'],0,right,['e'],0,0.6382370000028459,0.2,1,0,FastAcc,37,18,Man,Right,
17,6,1,0.43435800000224845,['n'],1,right,['u'],1,0.5966862999994191,0.2,1,0,FastAcc,37,18,Man,Right,
18,6,1,0.5176756000000751,['c'],1,left,['u'],1,0.7782995999987179,0.2,1,0,FastAcc,37,18,Man,Right,
19,6,1,0.36783419999846956,['n'],1,right,['e'],0,0.6230359000001044,0.1,0,0,FastAcc,37,18,Man,Right,
20,6,1,0.5342239999990852,['c'],1,left,['u'],1,0.6115084000011848,0.2,1,0,FastAcc,37,18,Man,Right,
21,6,1,0.44869679999828804,['n'],0,left,['e'],0,0.9564933000001474,0.4,1,0,FastAcc,37,18,Man,Right,
22,6,1,0.7001767000001564,['n'],1,right,['u'],1,0.3481960999997682,0.4,1,0,FastAcc,37,18,Man,Right,
23,6,1,1.8678834999991523,['c'],0,right,['e'],0,0.47012439999889466,0.1,1,0,FastAcc,37,18,Man,Right,
24,6,1,0.400541200000589,['n'],1,right,['e'],0,0.5649689000019862,0.1,0,0,FastAcc,37,18,Man,Right,
25,6,1,0.4496861999978137,['n'],0,left,['e'],0,0.5753666000018711,0.1,1,0,FastAcc,37,18,Man,Right,
26,6,1,0.4852629999986675,['n'],1,right,['u'],1,0.43889389999822015,0.2,1,0,FastAcc,37,18,Man,Right,
27,6,1,0.4680726999977196,['n'],1,right,['u'],1,0.309162199999264,0.4,1,0,FastAcc,37,18,Man,Right,
28,6,1,0.3345947999987402,['c'],1,left,['u'],1,0.49400539999987814,0.1,1,0,FastAcc,37,18,Man,Right,
29,6,1,0.6178968999993231,['c'],1,left,['u'],1,0.43645029999970575,0.1,1,0,FastAcc,37,18,Man,Right,
30,6,1,0.41770440000254894,['n'],1,right,['u'],1,0.37271940000209725,0.1,1,0,FastAcc,37,18,Man,Right,
31,6,1,1.0003963999988628,['n'],1,right,['e'],0,0.6091087000022526,0.1,0,0,FastAcc,37,18,Man,Right,
32,6,1,0.7164240999991307,['n'],1,right,['u'],1,0.382223000000522,0.4,1,0,FastAcc,37,18,Man,Right,
33,6,1,0.7170082000011462,['c'],1,left,['e'],0,0.40434129999994184,0.1,0,0,FastAcc,37,18,Man,Right,
34,6,1,0.6344471000011254,['c'],1,left,['e'],0,0.7013340000012249,0.2,0,0,FastAcc,37,18,Man,Right,
35,6,1,0.6013598999998067,['c'],1,left,['u'],1,0.2997877999987395,0.2,1,0,FastAcc,37,18,Man,Right,
36,6,1,0.4850438000030408,['c'],1,left,['u'],1,0.5106104999977106,0.1,1,0,FastAcc,37,18,Man,Right,
37,6,1,0.4673858999994991,['n'],1,right,['u'],1,0.4422770000019227,0.1,1,0,FastAcc,37,18,Man,Right,
38,6,1,0.4668654000015522,['n'],1,right,['u'],1,0.5693389999978535,0.2,1,0,FastAcc,37,18,Man,Right,
39,6,1,0.5504772000022058,['c'],1,left,['u'],1,0.38221640000119805,0.4,1,0,FastAcc,37,18,Man,Right,
40,6,1,0.5171181000005163,['c'],1,left,['e'],0,0.47644320000108564,0.2,0,0,FastAcc,37,18,Man,Right,
41,6,1,0.5347340000007534,['c'],1,left,['u'],1,0.26276299999881303,0.4,1,0,FastAcc,37,18,Man,Right,
42,6,1,0.41763990000254125,['n'],0,left,['u'],1,0.3337443999989773,0.1,0,0,FastAcc,37,18,Man,Right,
43,6,1,0.48345289999997476,['n'],1,right,['u'],1,0.2875163999997312,0.4,1,0,FastAcc,37,18,Man,Right,
44,6,1,0.6347709999972722,['c'],0,right,['e'],0,0.6850821999978507,0.2,1,0,FastAcc,37,18,Man,Right,
45,6,1,0.6344232000010379,['n'],1,right,['u'],1,0.23480940000081318,0.2,1,0,FastAcc,37,18,Man,Right,
46,6,1,0.4006779000010283,['n'],1,right,['u'],1,0.3396470000006957,0.4,1,0,FastAcc,37,18,Man,Right,
47,6,1,0.46779379999861703,['n'],1,right,['u'],1,0.358001399999921,0.1,1,0,FastAcc,37,18,Man,Right,
48,6,1,0.6016417999999248,['n'],0,left,['u'],1,0.450104100000317,0.1,0,0,FastAcc,37,18,Man,Right,
49,6,1,0.7339999000032549,['n'],0,left,['e'],0,0.34129329999996116,0.2,1,0,FastAcc,37,18,Man,Right,
50,6,1,0.5670162999995227,['n'],1,right,['u'],1,0.2602405999969051,0.4,1,0,FastAcc,37,18,Man,Right,
51,6,1,0.41786140000112937,['n'],1,right,['u'],1,0.42712720000054105,0.4,1,0,FastAcc,37,18,Man,Right,
52,6,1,0.7158683000016026,['n'],1,right,['u'],1,0.3687271000017063,0.1,1,0,FastAcc,37,18,Man,Right,
53,6,1,1.2343180999996548,['c'],1,left,['e'],0,0.5465984000002209,0.4,0,0,FastAcc,37,18,Man,Right,
54,6,1,0.7665930000002845,['n'],1,right,['u'],1,0.320182700001169,0.4,1,0,FastAcc,37,18,Man,Right,
55,6,1,0.6844921999982034,['c'],1,left,['u'],1,0.36260050000055344,0.4,1,0,FastAcc,37,18,Man,Right,
56,6,1,1.1505106999975396,['c'],1,left,['e'],0,0.40017400000215275,0.2,0,0,FastAcc,37,18,Man,Right,
57,6,1,0.48385570000027656,['n'],1,right,['e'],0,0.6071737999991456,0.4,0,0,FastAcc,37,18,Man,Right,
58,6,1,0.4996606000022439,['n'],1,right,['e'],0,0.9348174999977346,0.1,0,0,FastAcc,37,18,Man,Right,
59,6,1,0.5676211000027251,['c'],1,left,['u'],1,0.3479342999999062,0.2,1,0,FastAcc,37,18,Man,Right,
0,7,1,2.1840080999972997,['c'],1,left,['u'],1,0.44155680000039865,0.4,1,0,FastFast,37,18,Man,Right,
1,7,1,0.5003069999984291,['n'],1,right,['u'],1,0.3105472000024747,0.4,1,0,FastFast,37,18,Man,Right,
2,7,1,0.4845940999985032,['c'],1,left,['u'],1,0.20160129999931087,0.4,1,0,FastFast,37,18,Man,Right,
3,7,1,0.5016171999996004,['n'],0,left,['u'],1,0.23970510000071954,0.2,0,0,FastFast,37,18,Man,Right,
4,7,1,0.46772909999708645,['n'],1,right,['e'],0,0.18202540000129375,0.2,0,0,FastFast,37,18,Man,Right,
5,7,1,0.3670563999985461,['c'],1,left,['u'],1,0.22602879999976722,0.4,1,0,FastFast,37,18,Man,Right,
6,7,1,0.3850261000006867,['n'],0,left,['e'],0,0.28434999999808497,0.2,1,0,FastFast,37,18,Man,Right,
7,7,1,0.38438849999874947,['c'],0,right,['e'],0,0.5480836999995518,0.2,1,0,FastFast,37,18,Man,Right,
8,7,1,0.5678124999976717,['n'],1,right,['u'],1,0.2816765999996278,0.1,1,0,FastFast,37,18,Man,Right,
9,7,1,0.584671000000526,['n'],0,left,['u'],1,0.6171556000008422,0.4,0,0,FastFast,37,18,Man,Right,
10,7,1,0.9172063000005437,['n'],1,right,['e'],0,0.1744014999967476,0.2,0,0,FastFast,37,18,Man,Right,
11,7,1,0.5835329000001366,['n'],1,right,['e'],0,0.40334710000024643,0.1,0,0,FastFast,37,18,Man,Right,
12,7,1,0.6339112999994541,['c'],1,left,['u'],1,0.12346370000159368,0.4,1,0,FastFast,37,18,Man,Right,
13,7,1,0.5014474999989034,['n'],0,left,['u'],1,0.3253078000016103,0.1,0,0,FastFast,37,18,Man,Right,
14,7,1,0.5681285999999091,['n'],1,right,['u'],1,0.46888920000128564,0.2,1,0,FastFast,37,18,Man,Right,
15,7,1,0.6168018999997003,['n'],1,right,['u'],1,0.219820800000889,0.1,1,0,FastFast,37,18,Man,Right,
16,7,1,0.8680964000013773,['c'],0,right,['e'],0,0.17801640000107,0.2,1,0,FastFast,37,18,Man,Right,
17,7,1,0.7017529000004288,['n'],1,right,['u'],1,0.14571199999772944,0.2,1,0,FastFast,37,18,Man,Right,
18,7,1,0.4347985999993398,['n'],0,left,['u'],1,0.18859860000156914,0.1,0,0,FastFast,37,18,Man,Right,
19,7,1,0.7344459000014467,['c'],0,right,['e'],0,0.09033260000069276,0.1,1,0,FastFast,37,18,Man,Right,
20,7,1,0.6679058999980043,['c'],1,left,['e'],0,0.11039819999859901,0.1,0,0,FastFast,37,18,Man,Right,
21,7,1,0.7172697999994853,['c'],1,left,['e'],0,0.09615879999910248,0.1,0,0,FastFast,37,18,Man,Right,
22,7,1,0.6514667999981612,['c'],1,left,['e'],0,0.11636690000159433,0.4,0,0,FastFast,37,18,Man,Right,
23,7,1,0.5182356000004802,['n'],0,left,['u'],1,0.12515869999697316,0.4,0,0,FastFast,37,18,Man,Right,
24,7,1,1.1162888999970164,['n'],1,right,['e'],0,0.09436389999973471,0.2,0,0,FastFast,37,18,Man,Right,
25,7,1,0.9511696000008669,['c'],0,right,['e'],0,0.11939189999975497,0.4,1,0,FastFast,37,18,Man,Right,
26,7,1,1.4676214999999502,['c'],1,left,['u'],1,0.05884409999998752,0.4,1,0,FastFast,37,18,Man,Right,
27,7,1,0.8176746999997704,['c'],0,right,['u'],1,0.1068890000024112,0.2,0,0,FastFast,37,18,Man,Right,
28,7,1,0.8667859999986831,['n'],1,right,['u'],1,0.07004280000182916,0.4,1,0,FastFast,37,18,Man,Right,
29,7,1,1.2013074999995297,['c'],0,right,['u'],1,1.1733791000006022,0.1,0,0,FastFast,37,18,Man,Right,
30,7,1,0.7504284999995434,['c'],1,left,['e'],0,0.10754050000105053,0.4,0,0,FastFast,37,18,Man,Right,
31,7,1,0.6180852000034065,['c'],1,left,['e'],0,0.08111079999798676,0.4,0,0,FastFast,37,18,Man,Right,
32,7,1,1.4177065000003495,['c'],0,right,['u'],1,0.10386120000111987,0.1,0,0,FastFast,37,18,Man,Right,
33,7,1,0.9013338000004296,['c'],0,right,['u'],1,0.11329910000131349,0.4,0,0,FastFast,37,18,Man,Right,
34,7,1,0.8349452000002202,['n'],0,left,['u'],1,0.14165800000046147,0.1,0,0,FastFast,37,18,Man,Right,
35,7,1,1.2508841000017128,['n'],1,right,['e'],0,0.10520980000001146,0.1,0,0,FastFast,37,18,Man,Right,
36,7,1,0.7179593999971985,['c'],0,right,['u'],1,0.05841820000205189,0.2,0,0,FastFast,37,18,Man,Right,
37,7,1,0.8176093000001856,['n'],1,right,['u'],1,0.15393000000040047,0.2,1,0,FastFast,37,18,Man,Right,
38,7,1,0.7511845999979414,['n'],1,right,['u'],1,0.1050814000009268,0.4,1,0,FastFast,37,18,Man,Right,
39,7,1,1.2510618999986036,['n'],0,left,['u'],1,0.052990399999544024,0.1,0,0,FastFast,37,18,Man,Right,
40,7,1,1.0012344000024314,['n'],1,right,['u'],1,0.07687939999959781,0.2,1,0,FastFast,37,18,Man,Right,
41,7,1,0.9843743999990693,['n'],1,right,['u'],1,0.1020624000011594,0.4,1,0,FastFast,37,18,Man,Right,
42,7,1,0.817929600001662,['n'],0,left,['u'],1,0.08283600000140723,0.2,0,0,FastFast,37,18,Man,Right,
43,7,1,1.0668845999971381,['n'],0,left,['u'],1,0.1351522999975714,0.2,0,0,FastFast,37,18,Man,Right,
44,7,1,1.2012266000019736,['n'],0,left,['e'],0,0.11606250000113505,0.1,1,0,FastFast,37,18,Man,Right,
45,7,1,0.6846722999980557,['c'],1,left,['u'],1,0.05446300000039628,0.2,1,0,FastFast,37,18,Man,Right,
46,7,1,0.5999728999995568,['c'],0,right,['u'],1,0.07977290000053472,0.1,0,0,FastFast,37,18,Man,Right,
47,7,1,1.3846478999985266,['c'],1,left,['e'],0,0.10256830000071204,0.1,0,0,FastFast,37,18,Man,Right,
48,7,1,0.784780399997544,['n'],0,left,['u'],1,0.1492465999981505,0.4,0,0,FastFast,37,18,Man,Right,
49,7,1,1.5174656000017421,['n'],0,left,['e'],0,0.13297310000052676,0.1,1,0,FastFast,37,18,Man,Right,
50,7,1,0.70123969999986,['c'],1,left,['u'],1,0.11749249999775202,0.2,1,0,FastFast,37,18,Man,Right,
51,7,1,0.684729900000093,['n'],1,right,['u'],1,0.10460120000061579,0.2,1,0,FastFast,37,18,Man,Right,
52,7,1,0.6842300999996951,['n'],1,right,['u'],1,0.09205210000072839,0.2,1,0,FastFast,37,18,Man,Right,
53,7,1,0.9678817999993043,['n'],1,right,['u'],1,0.03605809999862686,0.4,1,0,FastFast,37,18,Man,Right,
54,7,1,1.0505790999995952,['n'],1,right,['u'],1,0.05877110000074026,0.4,1,0,FastFast,37,18,Man,Right,
55,7,1,0.7165499000002455,['c'],1,left,['u'],1,0.0942951000033645,0.2,1,0,FastFast,37,18,Man,Right,
56,7,1,0.5346815000011702,['c'],1,left,['u'],1,0.08820330000162357,0.4,1,0,FastFast,37,18,Man,Right,
57,7,1,0.7176922999969975,['n'],1,right,['u'],1,0.1382768000003125,0.1,1,0,FastFast,37,18,Man,Right,
58,7,1,0.8674791999983427,['n'],0,left,['u'],1,0.06837540000196896,0.1,0,0,FastFast,37,18,Man,Right,
59,7,1,1.1512979999970412,['n'],0,left,['e'],0,0.1820557999999437,0.1,1,0,FastFast,37,18,Man,Right,
0,8,1,2.751242900001671,['n'],1,right,['u'],1,0.0682952999995905,0.2,1,0,AccFast,37,18,Man,Right,
1,8,1,0.9676719999988563,['c'],1,left,['u'],1,0.12470009999742615,0.2,1,0,AccFast,37,18,Man,Right,
2,8,1,1.1006010999990394,['n'],1,right,['e'],0,0.0786024000008183,0.2,0,0,AccFast,37,18,Man,Right,
3,8,1,0.8012054999999236,['n'],1,right,['u'],1,0.09340960000190535,0.2,1,0,AccFast,37,18,Man,Right,
4,8,1,1.0175127999973483,['n'],1,right,['u'],1,0.09974230000079842,0.2,1,0,AccFast,37,18,Man,Right,
5,8,1,1.168006100000639,['n'],1,right,['u'],1,0.09961419999672216,0.2,1,0,AccFast,37,18,Man,Right,
6,8,1,1.0847093999982462,['n'],1,right,['u'],1,0.24651889999950072,0.4,1,0,AccFast,37,18,Man,Right,
7,8,1,0.9841493000021728,['n'],0,left,['u'],1,0.11926669999957085,0.1,0,0,AccFast,37,18,Man,Right,
8,8,1,1.26702369999839,['n'],0,left,['e'],0,0.0990421000024071,0.4,1,0,AccFast,37,18,Man,Right,
9,8,1,0.784477599998354,['c'],1,left,['u'],1,0.08155419999820879,0.2,1,0,AccFast,37,18,Man,Right,
10,8,1,0.8338553000030515,['c'],0,right,['u'],1,0.49499309999737306,0.1,0,0,AccFast,37,18,Man,Right,
11,8,1,1.017698699997709,['c'],0,right,['u'],1,0.10091079999983776,0.4,0,0,AccFast,37,18,Man,Right,
12,8,1,0.917258600002242,['c'],0,right,['u'],1,0.15836810000109836,0.2,0,0,AccFast,37,18,Man,Right,
13,8,1,1.5175751999995555,['n'],1,right,['e'],0,0.4140460999988136,0.1,0,0,AccFast,37,18,Man,Right,
14,8,1,1.4013646999992488,['n'],0,left,['u'],1,0.3117478000021947,0.1,0,0,AccFast,37,18,Man,Right,
15,8,1,0.901252999999997,['n'],1,right,['u'],1,0.12139770000067074,0.1,1,0,AccFast,37,18,Man,Right,
16,8,1,0.9017972999972699,['n'],1,right,['u'],1,0.13094120000096154,0.4,1,0,AccFast,37,18,Man,Right,
17,8,1,1.7015912999995635,['c'],0,right,['e'],0,0.6842675000007148,0.1,1,0,AccFast,37,18,Man,Right,
18,8,1,0.900489200001175,['c'],1,left,['u'],1,0.06324859999949695,0.1,1,0,AccFast,37,18,Man,Right,
19,8,1,0.9684435000017402,['n'],1,right,['u'],1,0.12020090000078198,0.1,1,0,AccFast,37,18,Man,Right,
20,8,1,0.8183036000009452,['c'],1,left,['u'],1,0.05349630000273464,0.4,1,0,AccFast,37,18,Man,Right,
21,8,1,2.4012199999997392,['c'],0,right,['e'],0,0.02180700000099023,0.2,1,0,AccFast,37,18,Man,Right,
22,8,1,1.251079599998775,['c'],1,left,['e'],0,0.03748229999837349,0.4,0,0,AccFast,37,18,Man,Right,
23,8,1,2.3177342000017234,['n'],1,right,['e'],0,0.057901899999706075,0.4,0,0,AccFast,37,18,Man,Right,
24,8,1,3.083731099999568,['n'],0,left,['u'],1,0.07905390000087209,0.2,0,0,AccFast,37,18,Man,Right,
25,8,1,1.049924099999771,['n'],0,left,['u'],1,0.0682812000013655,0.2,0,0,AccFast,37,18,Man,Right,
26,8,1,1.3005424000002677,['c'],1,left,['u'],1,0.0477247000017087,0.2,1,0,AccFast,37,18,Man,Right,
27,8,1,1.0661529999997583,['c'],0,right,['u'],1,0.07003169999734382,0.1,0,0,AccFast,37,18,Man,Right,
28,8,1,0.8678337999990617,['c'],1,left,['u'],1,0.09845370000039111,0.2,1,0,AccFast,37,18,Man,Right,
29,8,1,0.68467149999924,['c'],1,left,['u'],1,0.11711749999813037,0.2,1,0,AccFast,37,18,Man,Right,
30,8,1,0.7178023999986181,['c'],1,left,['u'],1,0.11837709999963408,0.4,1,0,AccFast,37,18,Man,Right,
31,8,1,0.7678721000011137,['c'],1,left,['u'],1,0.10151169999880949,0.4,1,0,AccFast,37,18,Man,Right,
32,8,1,1.2179629999991448,['c'],0,right,['u'],1,0.09883819999959087,0.1,0,0,AccFast,37,18,Man,Right,
33,8,1,0.918165000002773,['c'],0,right,['u'],1,0.09324559999731719,0.4,0,0,AccFast,37,18,Man,Right,
34,8,1,1.1336757999997644,['c'],0,right,['u'],1,0.07819459999882383,0.1,0,0,AccFast,37,18,Man,Right,
35,8,1,1.184841599999345,['c'],1,left,['u'],1,0.0785308000013174,0.2,1,0,AccFast,37,18,Man,Right,
36,8,1,0.7841375999996671,['c'],1,left,['u'],1,0.09430699999938952,0.1,1,0,AccFast,37,18,Man,Right,
37,8,1,2.251366500000586,['c'],1,left,['u'],1,0.08367999999973108,0.1,1,0,AccFast,37,18,Man,Right,
38,8,1,2.25050530000226,['c'],0,right,['e'],0,0.29654159999699914,0.1,1,0,AccFast,37,18,Man,Right,
39,8,1,0.9511915000002773,['c'],1,left,['u'],1,0.08889730000009877,0.4,1,0,AccFast,37,18,Man,Right,
40,8,1,0.9516730000032112,['n'],0,left,['e'],0,0.2418309999993653,0.1,1,0,AccFast,37,18,Man,Right,
41,8,1,0.9012034000006679,['n'],0,left,['e'],0,0.1511480000008305,0.2,1,0,AccFast,37,18,Man,Right,
42,8,1,0.7179436999977042,['n'],0,left,['e'],0,0.1824220000016794,0.1,1,0,AccFast,37,18,Man,Right,
43,8,1,0.8012901000001875,['c'],1,left,['u'],1,0.06529899999804911,0.4,1,0,AccFast,37,18,Man,Right,
44,8,1,1.2504795999993803,['c'],1,left,['e'],0,0.1269672000016726,0.1,0,0,AccFast,37,18,Man,Right,
45,8,1,0.7672874000018055,['c'],0,right,['e'],0,0.18994419999944512,0.2,1,0,AccFast,37,18,Man,Right,
46,8,1,1.7838142999971751,['c'],1,left,['e'],0,0.16170969999802765,0.1,0,0,AccFast,37,18,Man,Right,
47,8,1,0.7173054000013508,['n'],1,right,['u'],1,0.08070989999760059,0.4,1,0,AccFast,37,18,Man,Right,
48,8,1,0.48531139999977313,['n'],1,right,['u'],1,0.10831289999987348,0.4,1,0,AccFast,37,18,Man,Right,
49,8,1,0.7014649999982794,['c'],1,left,['u'],1,0.19062440000197967,0.4,1,0,AccFast,37,18,Man,Right,
50,8,1,0.7166236999983084,['c'],0,right,['u'],1,0.09372340000118129,0.2,0,0,AccFast,37,18,Man,Right,
51,8,1,0.7511774999984482,['c'],0,right,['u'],1,0.11023579999891808,0.1,0,0,AccFast,37,18,Man,Right,
52,8,1,0.7334746999986237,['n'],1,right,['u'],1,0.07890869999755523,0.4,1,0,AccFast,37,18,Man,Right,
53,8,1,1.0513417000001937,['n'],1,right,['u'],1,0.06766779999816208,0.4,1,0,AccFast,37,18,Man,Right,
54,8,1,2.7008065999980317,['n'],0,left,['e'],0,0.08875139999872772,0.1,1,0,AccFast,37,18,Man,Right,
55,8,1,0.8509880999990855,['c'],1,left,['u'],1,0.08484590000080061,0.4,1,0,AccFast,37,18,Man,Right,
56,8,1,1.1342297000010149,['c'],1,left,['u'],1,0.054519000001164386,0.2,1,0,AccFast,37,18,Man,Right,
57,8,1,1.4006345000016154,['n'],1,right,['e'],0,0.015042900002299575,0.2,0,0,AccFast,37,18,Man,Right,
58,8,1,1.1343581000000995,['c'],1,left,['u'],1,0.05101959999956307,0.4,1,0,AccFast,37,18,Man,Right,
59,8,1,3.649674199998117,['n'],1,right,['e'],0,0.09825669999918318,0.4,0,0,AccFast,37,18,Man,Right,
0,9,1,1.1678324999993492,['c'],1,left,['u'],1,0.789760199997545,0.4,1,0,AccAcc,37,18,Man,Right,
1,9,1,1.7341047000008984,['c'],0,right,['u'],1,0.4351470000001427,0.2,0,0,AccAcc,37,18,Man,Right,
2,9,1,0.8510365000001912,['c'],1,left,['u'],1,0.43448129999887897,0.4,1,0,AccAcc,37,18,Man,Right,
3,9,1,2.667318499999965,['n'],1,right,['e'],0,0.6967975000006845,0.1,0,0,AccAcc,37,18,Man,Right,
4,9,1,2.4001300999989326,['n'],1,right,['u'],1,0.5435207000009541,0.2,1,0,AccAcc,37,18,Man,Right,
5,9,1,0.784221300000354,['n'],1,right,['u'],1,0.621125599998777,0.4,1,0,AccAcc,37,18,Man,Right,
6,9,1,1.3011769000004278,['n'],0,left,['e'],0,0.4668190999982471,0.2,1,0,AccAcc,37,18,Man,Right,
7,9,1,1.2839879999992263,['n'],1,right,['u'],1,0.43113029999949504,0.4,1,0,AccAcc,37,18,Man,Right,
8,9,1,1.0180982000019867,['n'],0,left,['u'],1,0.5195089000008011,0.1,0,0,AccAcc,37,18,Man,Right,
9,9,1,1.8179539000011573,['n'],1,right,['u'],1,0.5408453999989433,0.2,1,0,AccAcc,37,18,Man,Right,
10,9,1,2.3350366999984544,['n'],1,right,['u'],1,0.6044268000005104,0.1,1,0,AccAcc,37,18,Man,Right,
11,9,1,4.0506487999991805,['n'],1,right,['u'],1,1.0136703999996826,0.4,1,0,AccAcc,37,18,Man,Right,
12,9,1,3.6170760999993945,['c'],0,right,['e'],0,0.5426282999978866,0.4,1,0,AccAcc,37,18,Man,Right,
13,9,1,1.8515232999998261,['c'],1,left,['e'],0,0.5618914999977278,0.2,0,0,AccAcc,37,18,Man,Right,
14,9,1,2.5011961000018346,['n'],1,right,['u'],1,0.37776360000134446,0.4,1,0,AccAcc,37,18,Man,Right,
15,9,1,3.766875600002095,['c'],1,left,['e'],0,0.6153976000023249,0.4,0,0,AccAcc,37,18,Man,Right,
16,9,1,2.600720200000069,['n'],1,right,['e'],0,0.6332507000006444,0.4,0,0,AccAcc,37,18,Man,Right,
17,9,1,4.233182299998589,['n'],0,left,['e'],0,0.45774949999758974,0.2,1,0,AccAcc,37,18,Man,Right,
18,9,1,3.751455999998143,['c'],0,right,['e'],0,0.5798179000012169,0.2,1,0,AccAcc,37,18,Man,Right,
19,9,1,5.016542900000786,x,-99,right,none,-99,-99,0.1,-99,1,AccAcc,37,18,Man,Right,
20,9,1,3.8996368999978586,['c'],1,left,['e'],0,2.18965659999958,0.2,0,0,AccAcc,37,18,Man,Right,
21,9,1,3.2170478999978513,['c'],1,left,['u'],1,0.7126251000008779,0.4,1,0,AccAcc,37,18,Man,Right,
22,9,1,1.317350900000747,['c'],1,left,['u'],1,0.5216703999976744,0.4,1,0,AccAcc,37,18,Man,Right,
23,9,1,1.5171158999983163,['n'],1,right,['e'],0,0.5706777000013972,0.2,0,0,AccAcc,37,18,Man,Right,
24,9,1,1.2844638000024133,['n'],1,right,['e'],0,0.5949519000023429,0.2,0,0,AccAcc,37,18,Man,Right,
25,9,1,2.0010173000009672,['c'],1,left,['u'],1,0.49365259999831324,0.4,1,0,AccAcc,37,18,Man,Right,
26,9,1,1.9688034999999218,['n'],0,left,['e'],0,0.5582804999976361,0.2,1,0,AccAcc,37,18,Man,Right,
27,9,1,4.666237599998567,['n'],1,right,['e'],0,0.5443669999986014,0.1,0,0,AccAcc,37,18,Man,Right,
28,9,1,3.8331745000032242,['n'],1,right,['u'],1,0.5644523999981175,0.2,1,0,AccAcc,37,18,Man,Right,
29,9,1,2.1847333000005165,['c'],1,left,['e'],0,0.44069799999851966,0.2,0,0,AccAcc,37,18,Man,Right,
30,9,1,3.6012889000012365,['c'],0,right,['e'],0,0.9061301000001549,0.2,1,0,AccAcc,37,18,Man,Right,
31,9,1,1.3177895999979228,['c'],1,left,['u'],1,0.4839990999971633,0.4,1,0,AccAcc,37,18,Man,Right,
32,9,1,2.851237700000638,['c'],1,left,['e'],0,0.5451071999996202,0.1,0,0,AccAcc,37,18,Man,Right,
33,9,1,2.6338051999991876,['c'],1,left,['u'],1,0.7567090000011376,0.2,1,0,AccAcc,37,18,Man,Right,
34,9,1,1.3343391000016709,['c'],1,left,['u'],1,0.3555955999981961,0.2,1,0,AccAcc,37,18,Man,Right,
35,9,1,2.750037199999497,['c'],1,left,['e'],0,0.47427340000285767,0.2,0,0,AccAcc,37,18,Man,Right,
36,9,1,1.4013068999993266,['n'],0,left,['e'],0,0.5617632000030426,0.1,1,0,AccAcc,37,18,Man,Right,
37,9,1,2.017511399997602,['c'],1,left,['u'],1,0.30105039999762084,0.2,1,0,AccAcc,37,18,Man,Right,
38,9,1,3.482960900000762,['n'],0,left,['e'],0,0.6646925999993982,0.1,1,0,AccAcc,37,18,Man,Right,
39,9,1,2.6664388999997755,['c'],0,right,['e'],0,0.6145730999996886,0.1,1,0,AccAcc,37,18,Man,Right,
40,9,1,3.7342481999985466,['n'],0,left,['e'],0,0.6503127000032691,0.4,1,0,AccAcc,37,18,Man,Right,
41,9,1,2.3010954999990645,['n'],0,left,['u'],1,0.5347599999986414,0.1,0,0,AccAcc,37,18,Man,Right,
42,9,1,2.0344851999980165,['n'],0,left,['e'],0,1.2665966999993543,0.4,1,0,AccAcc,37,18,Man,Right,
43,9,1,1.1176585000030173,['n'],1,right,['e'],0,0.4058304999998654,0.1,0,0,AccAcc,37,18,Man,Right,
44,9,1,1.1506659999977273,['n'],1,right,['u'],1,0.47407830000156537,0.1,1,0,AccAcc,37,18,Man,Right,
45,9,1,4.900889600001392,['c'],0,right,['e'],0,0.5342773999982455,0.1,1,0,AccAcc,37,18,Man,Right,
46,9,1,5.016078700002254,x,-99,right,none,-99,-99,0.2,-99,1,AccAcc,37,18,Man,Right,
47,9,1,1.6341093000010005,['n'],1,right,['u'],1,0.6525225000004866,0.4,1,0,AccAcc,37,18,Man,Right,
48,9,1,1.6016093999969598,['c'],1,left,['e'],0,0.5650787000013224,0.1,0,0,AccAcc,37,18,Man,Right,
49,9,1,1.183593400000973,['c'],1,left,['e'],0,0.5616960000006657,0.4,0,0,AccAcc,37,18,Man,Right,
50,9,1,2.918074400000478,['c'],1,left,['u'],1,0.45728539999981876,0.1,1,0,AccAcc,37,18,Man,Right,
51,9,1,1.117774999998801,['c'],1,left,['u'],1,0.6531575000008161,0.1,1,0,AccAcc,37,18,Man,Right,
52,9,1,2.70107089999874,['c'],1,left,['u'],1,0.5857490999987931,0.1,1,0,AccAcc,37,18,Man,Right,
53,9,1,1.9344883999983722,['n'],1,right,['u'],1,0.9674822000015411,0.2,1,0,AccAcc,37,18,Man,Right,
54,9,1,3.5344942000010633,['n'],1,right,['e'],0,0.4861473000019032,0.1,0,0,AccAcc,37,18,Man,Right,
55,9,1,0.9508031999976083,['n'],1,right,['u'],1,0.5274275000010675,0.4,1,0,AccAcc,37,18,Man,Right,
56,9,1,5.000195699998585,x,-99,right,none,-99,-99,0.1,-99,1,AccAcc,37,18,Man,Right,
57,9,1,4.566562399999384,['n'],1,right,['u'],1,0.6096443999995245,0.4,1,0,AccAcc,37,18,Man,Right,
58,9,1,2.1190367999988666,['n'],1,right,['u'],1,1.031664300000557,0.4,1,0,AccAcc,37,18,Man,Right,
59,9,1,1.7338588000020536,['c'],1,left,['u'],1,0.7154023999974015,0.1,1,0,AccAcc,37,18,Man,Right,
0,10,1,0.6175882999996247,['c'],1,left,['u'],1,1.9334656999999424,0.4,1,0,FastAcc,37,18,Man,Right,
1,10,1,0.33415080000122543,['n'],1,right,['u'],1,1.0134907999999996,0.1,1,0,FastAcc,37,18,Man,Right,
2,10,1,0.38401689999955124,['c'],1,left,['e'],0,0.8955943000000843,0.2,0,0,FastAcc,37,18,Man,Right,
3,10,1,0.35074689999964903,['n'],1,right,['u'],1,0.8958431999999448,0.4,1,0,FastAcc,37,18,Man,Right,
4,10,1,0.3840082999995502,['c'],1,left,['u'],1,0.9108298999999533,0.2,1,0,FastAcc,37,18,Man,Right,
5,10,1,0.5013289000016812,['c'],1,left,['u'],1,0.761326600000757,0.2,1,0,FastAcc,37,18,Man,Right,
6,10,1,0.41821819999677246,['c'],0,right,['e'],0,0.6688558000023477,0.2,1,0,FastAcc,37,18,Man,Right,
7,10,1,0.36829349999970873,['n'],1,right,['u'],1,0.5658455999982834,0.4,1,0,FastAcc,37,18,Man,Right,
8,10,1,1.0825567000028968,['n'],1,right,['u'],1,0.8075621999996656,0.1,1,0,FastAcc,37,18,Man,Right,
9,10,1,0.4018242999991344,['c'],1,left,['e'],0,0.6808106999997108,0.1,0,0,FastAcc,37,18,Man,Right,
10,10,1,0.31809200000134297,['n'],0,left,['e'],0,1.026785199999722,0.4,1,0,FastAcc,37,18,Man,Right,
11,10,1,0.468349800001306,['c'],1,left,['u'],1,0.5699342000007164,0.4,1,0,FastAcc,37,18,Man,Right,
12,10,1,0.5849150000030932,['n'],1,right,['u'],1,0.7822742000025755,0.2,1,0,FastAcc,37,18,Man,Right,
13,10,1,0.5512667999973928,['c'],1,left,['u'],1,1.8034050000023853,0.2,1,0,FastAcc,37,18,Man,Right,
14,10,1,1.1172965000005206,['c'],1,left,['e'],0,1.4983701999990444,0.1,0,0,FastAcc,37,18,Man,Right,
15,10,1,1.0170011000009254,['c'],1,left,['e'],0,0.9361993000020448,0.1,0,0,FastAcc,37,18,Man,Right,
16,10,1,0.5340157999999064,['c'],1,left,['u'],1,0.3987686999971629,0.2,1,0,FastAcc,37,18,Man,Right,
17,10,1,0.5011744999974326,['n'],1,right,['u'],1,1.2131044999987353,0.4,1,0,FastAcc,37,18,Man,Right,
18,10,1,0.4336702000000514,['c'],0,right,['u'],1,1.0054691000004823,0.1,0,0,FastAcc,37,18,Man,Right,
19,10,1,0.4344386000011582,['n'],1,right,['e'],0,0.8064746000018204,0.1,0,0,FastAcc,37,18,Man,Right,
20,10,1,0.6506077000012738,['c'],1,left,['e'],0,1.0226306000004115,0.1,0,0,FastAcc,37,18,Man,Right,
21,10,1,0.3843864999980724,['n'],0,left,['u'],1,0.633793599998171,0.1,0,0,FastAcc,37,18,Man,Right,
22,10,1,0.4183760000014445,['n'],1,right,['u'],1,0.6894452999986243,0.2,1,0,FastAcc,37,18,Man,Right,
23,10,1,0.4514535000016622,['c'],1,left,['u'],1,0.6463175999997475,0.4,1,0,FastAcc,37,18,Man,Right,
24,10,1,0.41641010000239476,['n'],0,left,['e'],0,0.7028952000000572,0.1,1,0,FastAcc,37,18,Man,Right,
25,10,1,0.41790469999978086,['n'],1,right,['u'],1,0.8036885999972583,0.1,1,0,FastAcc,37,18,Man,Right,
26,10,1,0.6006856999993033,['c'],1,left,['e'],0,0.7500103999991552,0.2,0,0,FastAcc,37,18,Man,Right,
27,10,1,0.6009063000019523,['n'],1,right,['e'],0,0.9545991000013601,0.4,0,0,FastAcc,37,18,Man,Right,
28,10,1,0.5003687999997055,['n'],1,right,['u'],1,0.45096689999991213,0.4,1,0,FastAcc,37,18,Man,Right,
29,10,1,0.48316260000137845,['c'],1,left,['u'],1,0.6560935999987123,0.2,1,0,FastAcc,37,18,Man,Right,
30,10,1,0.36660940000001574,['n'],0,left,['e'],0,0.890002000000095,0.1,1,0,FastAcc,37,18,Man,Right,
31,10,1,0.4181752000004053,['c'],1,left,['e'],0,1.1438830999977654,0.4,0,0,FastAcc,37,18,Man,Right,
32,10,1,0.6176517999992939,['n'],1,right,['u'],1,0.6442518999974709,0.4,1,0,FastAcc,37,18,Man,Right,
33,10,1,0.4509381999996549,['n'],1,right,['u'],1,0.7633296000021801,0.2,1,0,FastAcc,37,18,Man,Right,
34,10,1,0.5010789999978442,['c'],1,left,['u'],1,0.6510118000005605,0.4,1,0,FastAcc,37,18,Man,Right,
35,10,1,0.4510578000008536,['n'],1,right,['u'],1,0.7210759999979928,0.4,1,0,FastAcc,37,18,Man,Right,
36,10,1,0.5336566000005405,['n'],1,right,['u'],1,0.8176201999995101,0.1,1,0,FastAcc,37,18,Man,Right,
37,10,1,0.43440449999980046,['c'],1,left,['e'],0,1.0579709000012372,0.4,0,0,FastAcc,37,18,Man,Right,
38,10,1,0.6344637000001967,['n'],0,left,['u'],1,0.9129547999982606,0.2,0,0,FastAcc,37,18,Man,Right,
39,10,1,0.767141399999673,['n'],0,left,['e'],0,0.7038792999992438,0.2,1,0,FastAcc,37,18,Man,Right,
40,10,1,0.6345228000027419,['c'],0,right,['u'],1,0.9407877999983612,0.1,0,0,FastAcc,37,18,Man,Right,
41,10,1,0.6509296000003815,['c'],1,left,['u'],1,0.800024600001052,0.4,1,0,FastAcc,37,18,Man,Right,
42,10,1,0.5007147999967856,['n'],1,right,['u'],1,0.5421222000004491,0.4,1,0,FastAcc,37,18,Man,Right,
43,10,1,0.5017176999972435,['c'],0,right,['e'],0,0.6951941000006627,0.2,1,0,FastAcc,37,18,Man,Right,
44,10,1,0.4010238999981084,['n'],1,right,['u'],1,0.7655230000018491,0.1,1,0,FastAcc,37,18,Man,Right,
45,10,1,0.5342514000003575,['n'],1,right,['u'],1,0.5559494000008272,0.2,1,0,FastAcc,37,18,Man,Right,
46,10,1,0.5009400000017195,['n'],1,right,['u'],1,0.5482671999998274,0.4,1,0,FastAcc,37,18,Man,Right,
47,10,1,0.35059739999996964,['n'],1,right,['e'],0,1.1865031000015733,0.4,0,0,FastAcc,37,18,Man,Right,
48,10,1,0.48536109999986365,['n'],0,left,['e'],0,0.8344881999983045,0.2,1,0,FastAcc,37,18,Man,Right,
49,10,1,0.3007543000021542,['c'],1,left,['e'],0,0.9198446000009426,0.1,0,0,FastAcc,37,18,Man,Right,
50,10,1,0.3832853000021714,['n'],1,right,['u'],1,0.5023540999973193,0.2,1,0,FastAcc,37,18,Man,Right,
51,10,1,0.5844801999992342,['c'],1,left,['u'],1,0.636735600000975,0.4,1,0,FastAcc,37,18,Man,Right,
52,10,1,0.5010374999983469,['n'],1,right,['u'],1,0.7389511000001221,0.1,1,0,FastAcc,37,18,Man,Right,
53,10,1,0.41786320000028354,['n'],1,right,['u'],1,0.7578541999973822,0.4,1,0,FastAcc,37,18,Man,Right,
54,10,1,0.5180307000009634,['c'],0,right,['e'],0,0.9656342000016593,0.1,1,0,FastAcc,37,18,Man,Right,
55,10,1,0.46704160000081174,['n'],1,right,['u'],1,0.6719826999978977,0.2,1,0,FastAcc,37,18,Man,Right,
56,10,1,0.46823760000188486,['n'],0,left,['e'],0,0.7567933000027551,0.1,1,0,FastAcc,37,18,Man,Right,
57,10,1,0.4179805999992823,['c'],1,left,['u'],1,0.5680481000017608,0.2,1,0,FastAcc,37,18,Man,Right,
58,10,1,0.6491629000011017,['n'],0,left,['e'],0,0.8575281000012183,0.1,1,0,FastAcc,37,18,Man,Right,
59,10,1,0.48237259999950766,['n'],1,right,['u'],1,0.6953255999978865,0.2,1,0,FastAcc,37,18,Man,Right,
0,11,1,0.7011184999973921,['n'],0,left,['u'],1,0.18551669999942533,0.4,0,0,FastFast,37,18,Man,Right,
1,11,1,0.6014996000012616,['n'],1,right,['u'],1,0.2372085999995761,0.4,1,0,FastFast,37,18,Man,Right,
2,11,1,0.4009661000018241,['n'],1,right,['u'],1,0.14953009999953792,0.2,1,0,FastFast,37,18,Man,Right,
3,11,1,0.3677624999982072,['n'],1,right,['u'],1,0.147177400001965,0.4,1,0,FastFast,37,18,Man,Right,
4,11,1,0.3838603999975021,['c'],0,right,['u'],1,0.11265210000055959,0.4,0,0,FastFast,37,18,Man,Right,
5,11,1,0.38466840000182856,['n'],0,left,['u'],1,0.17394490000151563,0.2,0,0,FastFast,37,18,Man,Right,
6,11,1,0.4345276999993075,['n'],0,left,['u'],1,0.16850870000052964,0.2,0,0,FastFast,37,18,Man,Right,
7,11,1,0.4841028999981063,['n'],0,left,['u'],1,0.049140899998747045,0.2,0,0,FastFast,37,18,Man,Right,
8,11,1,0.7676901999984693,['n'],0,left,['e'],0,0.994205700000748,0.1,1,0,FastFast,37,18,Man,Right,
9,11,1,0.8683038999988639,['c'],1,left,['e'],0,0.13867780000146013,0.1,0,0,FastFast,37,18,Man,Right,
10,11,1,0.3846168000018224,['n'],0,left,['u'],1,0.10466829999859328,0.2,0,0,FastFast,37,18,Man,Right,
11,11,1,0.6837258999985352,['n'],0,left,['e'],0,0.09146809999947436,0.4,1,0,FastFast,37,18,Man,Right,
12,11,1,0.5512189000000944,['n'],1,right,['u'],1,0.05214219999834313,0.2,1,0,FastFast,37,18,Man,Right,
13,11,1,0.8174577999998291,['c'],1,left,['e'],0,0.06814019999728771,0.1,0,0,FastFast,37,18,Man,Right,
14,11,1,0.7168285000007018,['c'],1,left,['e'],0,0.07170459999906598,0.1,0,0,FastFast,37,18,Man,Right,
15,11,1,0.6674630000015895,['n'],1,right,['u'],1,0.09212750000006054,0.4,1,0,FastFast,37,18,Man,Right,
16,11,1,0.6492268999973021,['n'],0,left,['u'],1,0.08125139999901876,0.2,0,0,FastFast,37,18,Man,Right,
17,11,1,0.701177999999345,['c'],0,right,['u'],1,0.0838858999995864,0.1,0,0,FastFast,37,18,Man,Right,
18,11,1,0.6352273000011337,['n'],1,right,['u'],1,0.07314580000092974,0.4,1,0,FastFast,37,18,Man,Right,
19,11,1,0.5510606999996526,['n'],1,right,['u'],1,0.03471759999956703,0.4,1,0,FastFast,37,18,Man,Right,
20,11,1,0.6847443000006024,['c'],1,left,['u'],1,0.08816660000229604,0.4,1,0,FastFast,37,18,Man,Right,
21,11,1,0.5512645000017073,['n'],1,right,['u'],1,0.08107359999848995,0.4,1,0,FastFast,37,18,Man,Right,
22,11,1,0.700106100000994,['n'],1,right,['u'],1,0.372811899997032,0.1,1,0,FastFast,37,18,Man,Right,
23,11,1,0.6347183999969275,['n'],1,right,['u'],1,0.06242249999922933,0.4,1,0,FastFast,37,18,Man,Right,
24,11,1,0.6011728000012226,['c'],1,left,['u'],1,0.07015859999955865,0.2,1,0,FastFast,37,18,Man,Right,
25,11,1,0.800526600000012,['n'],0,left,['u'],1,0.054631199996947544,0.1,0,0,FastFast,37,18,Man,Right,
26,11,1,0.36815459999706945,['n'],1,right,['u'],1,0.4393579999996291,0.4,1,0,FastFast,37,18,Man,Right,
27,11,1,0.46756400000231224,['c'],1,left,['e'],0,0.10157229999822448,0.2,0,0,FastFast,37,18,Man,Right,
28,11,1,0.7352914000002784,['n'],1,right,['u'],1,0.007457899999280926,0.1,1,0,FastFast,37,18,Man,Right,
29,11,1,0.7007367000005615,['n'],0,left,['e'],0,0.06077960000038729,0.1,1,0,FastFast,37,18,Man,Right,
30,11,1,0.4833446999982698,['n'],0,left,['e'],0,0.1228147000001627,0.2,1,0,FastFast,37,18,Man,Right,
31,11,1,0.5186114999996789,['c'],0,right,['u'],1,0.24260469999717316,0.4,0,0,FastFast,37,18,Man,Right,
32,11,1,0.6007140999972762,['n'],1,right,['u'],1,0.0689849000009417,0.2,1,0,FastFast,37,18,Man,Right,
33,11,1,0.7016384999988077,['n'],0,left,['u'],1,0.11909580000065034,0.1,0,0,FastFast,37,18,Man,Right,
34,11,1,0.5680393000002368,['n'],0,left,['e'],0,0.11040930000308435,0.1,1,0,FastFast,37,18,Man,Right,
35,11,1,0.9836542000011832,['c'],0,right,['e'],0,0.06920209999952931,0.4,1,0,FastFast,37,18,Man,Right,
36,11,1,0.6845618000006652,['n'],0,left,['e'],0,0.12169539999740664,0.1,1,0,FastFast,37,18,Man,Right,
37,11,1,0.4849348999996437,['n'],1,right,['u'],1,0.06772410000121454,0.4,1,0,FastFast,37,18,Man,Right,
38,11,1,0.6512024000003294,['c'],1,left,['u'],1,0.08943790000193985,0.4,1,0,FastFast,37,18,Man,Right,
39,11,1,0.38411180000184686,['c'],0,right,['u'],1,0.056795800002873875,0.1,0,0,FastFast,37,18,Man,Right,
40,11,1,0.6175818000010622,['c'],0,right,['e'],0,0.08046900000044843,0.2,1,0,FastFast,37,18,Man,Right,
41,11,1,0.7512644000016735,['n'],1,right,['e'],0,0.08132779999868944,0.2,0,0,FastFast,37,18,Man,Right,
42,11,1,0.8001282000004721,['c'],1,left,['e'],0,0.2249874999979511,0.1,0,0,FastFast,37,18,Man,Right,
43,11,1,0.7012634000020626,['n'],0,left,['u'],1,0.04597949999879347,0.2,0,0,FastFast,37,18,Man,Right,
44,11,1,0.7504083000021637,['c'],0,right,['e'],0,0.12826459999996587,0.1,1,0,FastFast,37,18,Man,Right,
45,11,1,0.650866899999528,['c'],0,right,['e'],0,0.09921480000048177,0.2,1,0,FastFast,37,18,Man,Right,
46,11,1,0.66615979999915,['c'],1,left,['e'],0,0.11893359999885433,0.2,0,0,FastFast,37,18,Man,Right,
47,11,1,0.46801480000067386,['c'],1,left,['u'],1,0.09814099999857717,0.2,1,0,FastFast,37,18,Man,Right,
48,11,1,0.5332598999993934,['c'],1,left,['u'],1,0.13963610000064364,0.1,1,0,FastFast,37,18,Man,Right,
49,11,1,0.4840866999984428,['n'],1,right,['e'],0,0.13216730000203825,0.4,0,0,FastFast,37,18,Man,Right,
50,11,1,0.5680458999995608,['n'],1,right,['u'],1,0.12297849999958999,0.1,1,0,FastFast,37,18,Man,Right,
51,11,1,0.5679467000009026,['n'],1,right,['u'],1,0.4975441000024148,0.1,1,0,FastFast,37,18,Man,Right,
52,11,1,0.8852778000000399,['c'],1,left,['u'],1,0.12454860000070767,0.4,1,0,FastFast,37,18,Man,Right,
53,11,1,0.7676831999997376,['c'],0,right,['u'],1,0.0917172000008577,0.1,0,0,FastFast,37,18,Man,Right,
54,11,1,0.5682629999973869,['c'],1,left,['u'],1,0.46784870000192313,0.4,1,0,FastFast,37,18,Man,Right,
55,11,1,0.8681723000008787,['c'],1,left,['u'],1,0.09709579999980633,0.1,1,0,FastFast,37,18,Man,Right,
56,11,1,0.8004862000016146,['n'],0,left,['e'],0,0.07958559999678982,0.2,1,0,FastFast,37,18,Man,Right,
57,11,1,0.7347924999994575,['n'],1,right,['e'],0,0.09735340000042925,0.2,0,0,FastFast,37,18,Man,Right,
58,11,1,0.9343081999977585,['c'],0,right,['e'],0,0.07397150000178954,0.4,1,0,FastFast,37,18,Man,Right,
59,11,1,0.8680313000004389,['c'],0,right,['e'],0,0.0877236999986053,0.2,1,0,FastFast,37,18,Man,Right,
0,12,1,1.350743599999987,['n'],1,right,['u'],1,0.33912210000198684,0.2,1,0,AccFast,37,18,Man,Right,
1,12,1,2.8011307999986457,['c'],0,right,['e'],0,0.04030899999997928,0.1,1,0,AccFast,37,18,Man,Right,
2,12,1,1.251072999999451,['n'],1,right,['e'],0,0.08771989999877405,0.1,0,0,AccFast,37,18,Man,Right,
3,12,1,1.2509544999993523,['n'],1,right,['e'],0,0.276292900001863,0.2,0,0,AccFast,37,18,Man,Right,
4,12,1,1.0162744000008388,['n'],1,right,['u'],1,0.1646790000013425,0.4,1,0,AccFast,37,18,Man,Right,
5,12,1,1.6847526999990805,['c'],1,left,['e'],0,0.12448959999892395,0.2,0,0,AccFast,37,18,Man,Right,
6,12,1,1.4844505000000936,['n'],1,right,['u'],1,0.07839140000214684,0.2,1,0,AccFast,37,18,Man,Right,
7,12,1,1.8331445000003441,['n'],0,left,['u'],1,0.020811800000956282,0.1,0,0,AccFast,37,18,Man,Right,
8,12,1,1.017770800001017,['n'],0,left,['u'],1,0.07734530000016093,0.1,0,0,AccFast,37,18,Man,Right,
9,12,1,1.9338806000014301,['c'],1,left,['e'],0,0.43142250000164495,0.2,0,0,AccFast,37,18,Man,Right,
10,12,1,0.850886399999581,['c'],1,left,['e'],0,0.06274280000070576,0.4,0,0,AccFast,37,18,Man,Right,
11,12,1,0.9180508000026748,['n'],1,right,['u'],1,0.12132539999947767,0.4,1,0,AccFast,37,18,Man,Right,
12,12,1,0.8014022000024852,['n'],1,right,['u'],1,0.10286549999727868,0.4,1,0,AccFast,37,18,Man,Right,
13,12,1,0.9176265999994939,['c'],1,left,['u'],1,0.160625100001198,0.4,1,0,AccFast,37,18,Man,Right,
14,12,1,1.4011280999984592,['c'],1,left,['e'],0,0.06889800000135438,0.4,0,0,AccFast,37,18,Man,Right,
15,12,1,1.11791539999831,['n'],1,right,['e'],0,0.24809979999918141,0.1,0,0,AccFast,37,18,Man,Right,
16,12,1,1.2683911999993143,['n'],0,left,['u'],1,0.14153209999858518,0.1,0,0,AccFast,37,18,Man,Right,
17,12,1,1.0016510000023118,['c'],1,left,['e'],0,0.06678050000118674,0.2,0,0,AccFast,37,18,Man,Right,
18,12,1,1.1845181999997294,['n'],1,right,['u'],1,0.13092340000002878,0.2,1,0,AccFast,37,18,Man,Right,
19,12,1,1.134838399997534,['c'],1,left,['u'],1,0.06664669999736361,0.1,1,0,AccFast,37,18,Man,Right,
20,12,1,2.63394100000005,['n'],1,right,['u'],1,0.009932599998137448,0.4,1,0,AccFast,37,18,Man,Right,
21,12,1,1.3670347000006586,['c'],1,left,['u'],1,0.05235750000065309,0.1,1,0,AccFast,37,18,Man,Right,
22,12,1,1.8013580000006186,['c'],1,left,['u'],1,0.07681869999942137,0.4,1,0,AccFast,37,18,Man,Right,
23,12,1,1.1504674000025261,['n'],1,right,['u'],1,0.046365800000785384,0.2,1,0,AccFast,37,18,Man,Right,
24,12,1,0.8349602999987837,['c'],1,left,['u'],1,0.093349800001306,0.2,1,0,AccFast,37,18,Man,Right,
25,12,1,1.3503435000020545,['c'],1,left,['u'],1,0.05463469999813242,0.1,1,0,AccFast,37,18,Man,Right,
26,12,1,1.816113900000346,['n'],1,right,['u'],1,0.04671719999896595,0.4,1,0,AccFast,37,18,Man,Right,
27,12,1,3.4176002999993216,['n'],1,right,['u'],1,0.03799340000114171,0.1,1,0,AccFast,37,18,Man,Right,
28,12,1,1.634459799999604,['n'],1,right,['e'],0,0.08593480000126874,0.4,0,0,AccFast,37,18,Man,Right,
29,12,1,1.3510099000013724,['n'],0,left,['e'],0,0.07880450000084238,0.1,1,0,AccFast,37,18,Man,Right,
30,12,1,2.6844478999992134,['n'],1,right,['e'],0,0.13051260000065668,0.4,0,0,AccFast,37,18,Man,Right,
31,12,1,2.0514227999992727,['c'],1,left,['u'],1,0.10991570000260253,0.1,1,0,AccFast,37,18,Man,Right,
32,12,1,1.2018395000013697,['c'],1,left,['e'],0,0.07620450000104029,0.4,0,0,AccFast,37,18,Man,Right,
33,12,1,0.7342463999993925,['c'],0,right,['e'],0,0.09419330000309856,0.2,1,0,AccFast,37,18,Man,Right,
34,12,1,0.9170469999990019,['n'],1,right,['e'],0,0.08866089999719406,0.2,0,0,AccFast,37,18,Man,Right,
35,12,1,0.7346269999979995,['n'],1,right,['u'],1,0.10645619999922928,0.4,1,0,AccFast,37,18,Man,Right,
36,12,1,0.7344327000027988,['n'],1,right,['u'],1,0.13913460000185296,0.2,1,0,AccFast,37,18,Man,Right,
37,12,1,1.0679401999987022,['n'],1,right,['u'],1,0.15762159999940195,0.4,1,0,AccFast,37,18,Man,Right,
38,12,1,0.7513298000012583,['n'],1,right,['u'],1,0.12391469999784022,0.4,1,0,AccFast,37,18,Man,Right,
39,12,1,2.217627599999105,['n'],1,right,['u'],1,0.1289945999997144,0.1,1,0,AccFast,37,18,Man,Right,
40,12,1,2.5508144000014,['c'],1,left,['u'],1,0.040208499998698244,0.2,1,0,AccFast,37,18,Man,Right,
41,12,1,1.6014162000028591,['n'],0,left,['e'],0,0.12155609999899752,0.2,1,0,AccFast,37,18,Man,Right,
42,12,1,2.850169299999834,['c'],1,left,['u'],1,0.05303519999870332,0.2,1,0,AccFast,37,18,Man,Right,
43,12,1,1.4510685999994166,['n'],1,right,['e'],0,0.10786100000041188,0.1,0,0,AccFast,37,18,Man,Right,
44,12,1,0.9180809000026784,['c'],1,left,['u'],1,0.06907329999739886,0.4,1,0,AccFast,37,18,Man,Right,
45,12,1,1.2511954000001424,['c'],1,left,['e'],0,0.22663480000119307,0.1,0,0,AccFast,37,18,Man,Right,
46,12,1,0.9688143000021228,['n'],0,left,['e'],0,0.19813649999923655,0.1,1,0,AccFast,37,18,Man,Right,
47,12,1,0.9342030000007071,['c'],1,left,['e'],0,0.18670159999965108,0.2,0,0,AccFast,37,18,Man,Right,
48,12,1,1.1178775999978825,['c'],1,left,['e'],0,0.16908610000245972,0.1,0,0,AccFast,37,18,Man,Right,
49,12,1,0.9337339999983669,['n'],1,right,['e'],0,0.11153209999974933,0.4,0,0,AccFast,37,18,Man,Right,
50,12,1,0.7674373999980162,['n'],1,right,['e'],0,0.12700340000083088,0.4,0,0,AccFast,37,18,Man,Right,
51,12,1,2.4012408000016876,['n'],1,right,['e'],0,0.07712750000064261,0.1,0,0,AccFast,37,18,Man,Right,
52,12,1,2.0678179999995336,['c'],1,left,['e'],0,0.011319500001263805,0.2,0,0,AccFast,37,18,Man,Right,
53,12,1,2.000713800000085,['c'],1,left,['e'],0,0.044156300002214266,0.2,0,0,AccFast,37,18,Man,Right,
54,12,1,1.5171421000013652,['c'],0,right,['e'],0,1.7921692000018083,0.1,1,0,AccFast,37,18,Man,Right,
55,12,1,2.8676400000003923,['c'],1,left,['u'],1,0.248998400002165,0.4,1,0,AccFast,37,18,Man,Right,
56,12,1,1.3002369999994698,['c'],1,left,['u'],1,0.14208990000042832,0.2,1,0,AccFast,37,18,Man,Right,
57,12,1,1.73452990000078,['c'],0,right,['u'],1,0.10211929999786662,0.1,0,0,AccFast,37,18,Man,Right,
58,12,1,2.250840699998662,['n'],1,right,['u'],1,0.041454099999100436,0.4,1,0,AccFast,37,18,Man,Right,
59,12,1,2.1009874000010313,['c'],1,left,['u'],1,0.0706599000004644,0.2,1,0,AccFast,37,18,Man,Right,
0,13,1,3.5330614000013156,['n'],1,right,['e'],0,0.8085525000024063,0.1,0,0,AccAcc,37,18,Man,Right,
1,13,1,3.0340623000010964,['n'],0,left,['e'],0,0.5130773999990197,0.1,1,0,AccAcc,37,18,Man,Right,
2,13,1,4.133635299996968,['c'],1,left,['e'],0,0.9216971999994712,0.1,0,0,AccAcc,37,18,Man,Right,
3,13,1,2.233471700001246,['n'],0,left,['e'],0,0.3507200999993074,0.1,1,0,AccAcc,37,18,Man,Right,
4,13,1,2.2335601999984647,['c'],0,right,['e'],0,0.5855555000016466,0.1,1,0,AccAcc,37,18,Man,Right,
5,13,1,3.2007459999986168,['c'],0,right,['e'],0,1.3489875999985088,0.4,1,0,AccAcc,37,18,Man,Right,
6,13,1,2.3349199000003864,['n'],0,left,['u'],1,0.5961836999995285,0.1,0,0,AccAcc,37,18,Man,Right,
7,13,1,3.850213800000347,['n'],0,left,['e'],0,1.0609599000017624,0.2,1,0,AccAcc,37,18,Man,Right,
8,13,1,3.018117899999197,['n'],1,right,['e'],0,0.3729332000002614,0.4,0,0,AccAcc,37,18,Man,Right,
9,13,1,1.6343274999999267,['n'],1,right,['e'],0,1.271308900002623,0.4,0,0,AccAcc,37,18,Man,Right,
10,13,1,1.0512487999985751,['n'],1,right,['u'],1,0.5248236999977962,0.4,1,0,AccAcc,37,18,Man,Right,
11,13,1,3.0509748000004038,['n'],1,right,['e'],0,0.6410443999993731,0.1,0,0,AccAcc,37,18,Man,Right,
12,13,1,1.0847310999997717,['c'],1,left,['u'],1,0.5588310000021011,0.4,1,0,AccAcc,37,18,Man,Right,
13,13,1,1.5172639999982493,['n'],1,right,['e'],0,0.5265498999979172,0.2,0,0,AccAcc,37,18,Man,Right,
14,13,1,1.033868700000312,['n'],1,right,['u'],1,0.5314222000015434,0.4,1,0,AccAcc,37,18,Man,Right,
15,13,1,0.8003872000008414,['c'],1,left,['u'],1,0.5922272000025259,0.4,1,0,AccAcc,37,18,Man,Right,
16,13,1,1.1858372000024247,['c'],1,left,['u'],1,0.6839917999968748,0.2,1,0,AccAcc,37,18,Man,Right,
17,13,1,2.6334468999993987,['n'],1,right,['u'],1,0.9063550999999279,0.2,1,0,AccAcc,37,18,Man,Right,
18,13,1,0.9842251999980363,['c'],1,left,['u'],1,0.7046460999990813,0.2,1,0,AccAcc,37,18,Man,Right,
19,13,1,1.4169911999997566,['c'],1,left,['u'],1,0.8464922000021033,0.2,1,0,AccAcc,37,18,Man,Right,
20,13,1,1.3010415000026114,['n'],1,right,['u'],1,0.714937299999292,0.4,1,0,AccAcc,37,18,Man,Right,
21,13,1,1.367111699997622,['n'],1,right,['u'],1,0.7622561999996833,0.2,1,0,AccAcc,37,18,Man,Right,
22,13,1,1.018047599998681,['n'],1,right,['u'],1,0.6291187000024365,0.4,1,0,AccAcc,37,18,Man,Right,
23,13,1,1.7653661000003922,['c'],0,right,['e'],0,0.5526031000008516,0.1,1,0,AccAcc,37,18,Man,Right,
24,13,1,1.5168922000011662,['n'],1,right,['u'],1,0.6314612000023772,0.2,1,0,AccAcc,37,18,Man,Right,
25,13,1,2.250584199999139,['n'],1,right,['u'],1,0.7265200999972876,0.4,1,0,AccAcc,37,18,Man,Right,
26,13,1,2.2011808000024757,['n'],1,right,['u'],1,0.7083948999970744,0.1,1,0,AccAcc,37,18,Man,Right,
27,13,1,2.0177915999993274,['n'],1,right,['u'],1,0.9544433000010031,0.2,1,0,AccAcc,37,18,Man,Right,
28,13,1,2.7818194999999832,['n'],0,left,['u'],1,0.7445447999998578,0.1,0,0,AccAcc,37,18,Man,Right,
29,13,1,1.8515470999991521,['c'],1,left,['u'],1,0.6907571999981883,0.4,1,0,AccAcc,37,18,Man,Right,
30,13,1,1.0832359000014549,['n'],1,right,['u'],1,0.6712594000018726,0.4,1,0,AccAcc,37,18,Man,Right,
31,13,1,1.6012023000002955,['n'],0,left,['e'],0,0.5505293999995047,0.2,1,0,AccAcc,37,18,Man,Right,
32,13,1,1.8844463000023097,['n'],1,right,['e'],0,1.2393966000017826,0.2,0,0,AccAcc,37,18,Man,Right,
33,13,1,1.4840357999964908,['c'],1,left,['u'],1,0.6054081999973278,0.2,1,0,AccAcc,37,18,Man,Right,
34,13,1,1.0656243999983417,['c'],0,right,['u'],1,0.7818832999982988,0.2,0,0,AccAcc,37,18,Man,Right,
35,13,1,1.2673914000006334,['c'],1,left,['u'],1,0.7655258000013418,0.1,1,0,AccAcc,37,18,Man,Right,
36,13,1,1.451146500003233,['c'],1,left,['u'],1,0.727592100000038,0.2,1,0,AccAcc,37,18,Man,Right,
37,13,1,1.8679536999989068,['c'],0,right,['e'],0,0.8504461999982595,0.1,1,0,AccAcc,37,18,Man,Right,
38,13,1,1.38483510000151,['n'],1,right,['e'],0,0.6355754000032903,0.2,0,0,AccAcc,37,18,Man,Right,
39,13,1,1.467739799998526,['c'],1,left,['u'],1,0.7460642000005464,0.2,1,0,AccAcc,37,18,Man,Right,
40,13,1,1.6833771000019624,['c'],0,right,['u'],1,0.7155405000012252,0.2,0,0,AccAcc,37,18,Man,Right,
41,13,1,1.4510491000000911,['c'],1,left,['u'],1,0.6789387999997416,0.1,1,0,AccAcc,37,18,Man,Right,
42,13,1,1.4678970999993908,['c'],1,left,['u'],1,0.7081517000005988,0.4,1,0,AccAcc,37,18,Man,Right,
43,13,1,1.3013016000004427,['n'],0,left,['e'],0,0.7258974000033049,0.1,1,0,AccAcc,37,18,Man,Right,
44,13,1,1.9852733999978227,['n'],1,right,['u'],1,0.7003901999996742,0.4,1,0,AccAcc,37,18,Man,Right,
45,13,1,1.2009365000012622,['n'],1,right,['u'],1,0.7547009999980219,0.2,1,0,AccAcc,37,18,Man,Right,
46,13,1,1.1510721999984526,['n'],1,right,['u'],1,0.7291942000010749,0.4,1,0,AccAcc,37,18,Man,Right,
47,13,1,1.4499657999986084,['n'],0,left,['u'],1,0.6133716000003915,0.1,0,0,AccAcc,37,18,Man,Right,
48,13,1,1.5504178999981377,['n'],0,left,['u'],1,0.7040562000001955,0.1,0,0,AccAcc,37,18,Man,Right,
49,13,1,1.7667354999975942,['n'],0,left,['e'],0,0.6079280999983894,0.1,1,0,AccAcc,37,18,Man,Right,
50,13,1,2.6011452000020654,['c'],1,left,['u'],1,0.8024351999993087,0.4,1,0,AccAcc,37,18,Man,Right,
51,13,1,2.2664612000007764,['c'],1,left,['e'],0,0.7951197000002139,0.2,0,0,AccAcc,37,18,Man,Right,
52,13,1,0.8016965999995591,['c'],1,left,['u'],1,0.5093655999990006,0.4,1,0,AccAcc,37,18,Man,Right,
53,13,1,0.7677819999989879,['c'],1,left,['u'],1,0.669025999999576,0.4,1,0,AccAcc,37,18,Man,Right,
54,13,1,1.5678694999987783,['c'],0,right,['e'],0,0.8541862000020046,0.1,1,0,AccAcc,37,18,Man,Right,
55,13,1,1.1675789000000805,['n'],1,right,['u'],1,1.0961482000020624,0.4,1,0,AccAcc,37,18,Man,Right,
56,13,1,1.6838420999993104,['c'],1,left,['e'],0,1.3710588000030839,0.1,0,0,AccAcc,37,18,Man,Right,
57,13,1,0.8346663000011176,['c'],1,left,['u'],1,0.6936722999998892,0.4,1,0,AccAcc,37,18,Man,Right,
58,13,1,1.150560599999153,['c'],1,left,['u'],1,0.7026989999976649,0.2,1,0,AccAcc,37,18,Man,Right,
59,13,1,0.8344845000028727,['c'],0,right,['u'],1,0.6438569000019925,0.1,0,0,AccAcc,37,18,Man,Right,
0,14,1,0.634814599998208,['n'],0,left,['e'],0,0.7212490999991132,0.4,1,0,FastAcc,37,18,Man,Right,
1,14,1,0.4514065000003029,['c'],1,left,['u'],1,0.7406956000013452,0.1,1,0,FastAcc,37,18,Man,Right,
2,14,1,0.43495400000028894,['n'],1,right,['u'],1,0.7130838999983098,0.4,1,0,FastAcc,37,18,Man,Right,
3,14,1,0.48435669999889797,['c'],0,right,['u'],1,0.794812299998739,0.2,0,0,FastAcc,37,18,Man,Right,
4,14,1,0.3847155000003113,['n'],1,right,['e'],0,0.9111376000000746,0.2,0,0,FastAcc,37,18,Man,Right,
5,14,1,0.4007266000007803,['c'],0,right,['e'],0,0.6207819000010204,0.1,1,0,FastAcc,37,18,Man,Right,
6,14,1,0.8341144999976677,['c'],0,right,['e'],0,1.189894800001639,0.2,1,0,FastAcc,37,18,Man,Right,
7,14,1,0.7842339000017091,['c'],0,right,['u'],1,1.0332950999982131,0.4,0,0,FastAcc,37,18,Man,Right,
8,14,1,0.5677895000007993,['c'],1,left,['u'],1,0.42735569999786094,0.2,1,0,FastAcc,37,18,Man,Right,
9,14,1,0.6003254999995988,['c'],1,left,['u'],1,0.5489015999992262,0.1,1,0,FastAcc,37,18,Man,Right,
10,14,1,1.0848059999989346,['n'],1,right,['e'],0,0.56610179999916,0.4,0,0,FastAcc,37,18,Man,Right,
11,14,1,0.6848014999995939,['c'],0,right,['e'],0,0.9821590999999898,0.2,1,0,FastAcc,37,18,Man,Right,
12,14,1,0.6175564999975904,['c'],0,right,['e'],0,0.968828900000517,0.4,1,0,FastAcc,37,18,Man,Right,
13,14,1,0.6677970000018831,['n'],1,right,['u'],1,1.33786709999913,0.2,1,0,FastAcc,37,18,Man,Right,
14,14,1,0.6501368999997794,['n'],1,right,['u'],1,0.797458999997616,0.4,1,0,FastAcc,37,18,Man,Right,
15,14,1,1.1008829000020341,['n'],0,left,['u'],1,0.6755339000010281,0.1,0,0,FastAcc,37,18,Man,Right,
16,14,1,1.051157300000341,['c'],1,left,['u'],1,0.9448566999999457,0.2,1,0,FastAcc,37,18,Man,Right,
17,14,1,0.8015568000009807,['n'],1,right,['e'],0,0.8292562999995425,0.2,0,0,FastAcc,37,18,Man,Right,
18,14,1,0.8342019000010623,['n'],0,left,['e'],0,0.9731713000001037,0.2,1,0,FastAcc,37,18,Man,Right,
19,14,1,0.7838488999987021,['c'],1,left,['u'],1,0.810293599999568,0.2,1,0,FastAcc,37,18,Man,Right,
20,14,1,1.6849902000030852,['n'],1,right,['u'],1,0.4574453999994148,0.4,1,0,FastAcc,37,18,Man,Right,
21,14,1,1.7677517999982229,['c'],1,left,['u'],1,0.8344012999987171,0.2,1,0,FastAcc,37,18,Man,Right,
22,14,1,0.31739029999880586,['c'],1,left,['u'],1,1.8471033000023453,0.1,1,0,FastAcc,37,18,Man,Right,
23,14,1,0.7163340000006428,['n'],1,right,['e'],0,0.7393182999985584,0.1,0,0,FastAcc,37,18,Man,Right,
24,14,1,0.8675565000012284,['c'],1,left,['u'],1,0.645068199999514,0.4,1,0,FastAcc,37,18,Man,Right,
25,14,1,0.4506747000014002,['c'],1,left,['u'],1,1.0514365999988513,0.2,1,0,FastAcc,37,18,Man,Right,
26,14,1,0.8008630000003905,['n'],1,right,['u'],1,0.611841199999617,0.4,1,0,FastAcc,37,18,Man,Right,
27,14,1,0.6345608000010543,['c'],1,left,['e'],0,0.7240309000007983,0.1,0,0,FastAcc,37,18,Man,Right,
28,14,1,0.6016257999981462,['c'],0,right,['u'],1,0.9778124000004027,0.2,0,0,FastAcc,37,18,Man,Right,
29,14,1,0.7847207000013441,['c'],1,left,['e'],0,0.9901441999973031,0.1,0,0,FastAcc,37,18,Man,Right,
30,14,1,1.0508085999972536,['c'],1,left,['e'],0,0.9591220000002068,0.1,0,0,FastAcc,37,18,Man,Right,
31,14,1,1.4165186999998696,['c'],0,right,['e'],0,0.7079513999997289,0.1,1,0,FastAcc,37,18,Man,Right,
32,14,1,1.5334844999997586,['n'],1,right,['u'],1,0.7009900999983074,0.4,1,0,FastAcc,37,18,Man,Right,
33,14,1,2.633673699998326,['n'],1,right,['e'],0,0.6173057000014524,0.1,0,0,FastAcc,37,18,Man,Right,
34,14,1,1.4175848000013502,['c'],1,left,['u'],1,1.8993392000011227,0.4,1,0,FastAcc,37,18,Man,Right,
35,14,1,2.8841542000009213,['n'],0,left,['e'],0,0.7339858000013919,0.1,1,0,FastAcc,37,18,Man,Right,
36,14,1,0.3178156999965722,['n'],1,right,['e'],0,0.7583282000014151,0.1,0,0,FastAcc,37,18,Man,Right,
37,14,1,0.6011767999989388,['c'],1,left,['e'],0,0.8346655999994255,0.4,0,0,FastAcc,37,18,Man,Right,
38,14,1,0.5829281999976956,['c'],1,left,['e'],0,0.5564594999996189,0.2,0,0,FastAcc,37,18,Man,Right,
39,14,1,0.501295800000662,['n'],0,left,['e'],0,0.46863130000201636,0.1,1,0,FastAcc,37,18,Man,Right,
40,14,1,0.6175211000008858,['n'],1,right,['u'],1,0.5397383999988961,0.4,1,0,FastAcc,37,18,Man,Right,
41,14,1,0.5009271000017179,['c'],1,left,['u'],1,0.6285559999996622,0.4,1,0,FastAcc,37,18,Man,Right,
42,14,1,0.48426260000269394,['n'],1,right,['u'],1,0.618591499998729,0.4,1,0,FastAcc,37,18,Man,Right,
43,14,1,0.6498636999967857,['n'],1,right,['e'],0,0.7303400999990117,0.4,0,0,FastAcc,37,18,Man,Right,
44,14,1,0.4839583000029961,['n'],1,right,['e'],0,1.1650320000007923,0.1,0,0,FastAcc,37,18,Man,Right,
45,14,1,0.81742469999881,['c'],1,left,['e'],0,0.8467529000008653,0.2,0,0,FastAcc,37,18,Man,Right,
46,14,1,0.9843585999988136,['c'],1,left,['e'],0,0.4398325999973167,0.1,0,0,FastAcc,37,18,Man,Right,
47,14,1,1.2009414999993169,['n'],1,right,['e'],0,1.0808036000016727,0.1,0,0,FastAcc,37,18,Man,Right,
48,14,1,0.8004123000027903,['n'],0,left,['e'],0,0.7199398999982805,0.4,1,0,FastAcc,37,18,Man,Right,
49,14,1,0.9013183999995817,['n'],1,right,['u'],1,0.545782599998347,0.1,1,0,FastAcc,37,18,Man,Right,
50,14,1,0.6176985999991302,['c'],0,right,['e'],0,0.4373018999976921,0.2,1,0,FastAcc,37,18,Man,Right,
51,14,1,0.601929200001905,['n'],1,right,['e'],0,0.4302685999973619,0.2,0,0,FastAcc,37,18,Man,Right,
52,14,1,0.5843478999995568,['c'],1,left,['u'],1,0.535898799997085,0.4,1,0,FastAcc,37,18,Man,Right,
53,14,1,0.6842825999992783,['n'],0,left,['e'],0,0.9543491000003996,0.1,1,0,FastAcc,37,18,Man,Right,
54,14,1,0.6352009000001999,['c'],1,left,['e'],0,0.7326601999993727,0.1,0,0,FastAcc,37,18,Man,Right,
55,14,1,0.9006563999973878,['c'],0,right,['e'],0,0.717661800001224,0.2,1,0,FastAcc,37,18,Man,Right,
56,14,1,0.2838895999993838,['c'],1,left,['e'],0,0.6165574999977252,0.2,0,0,FastAcc,37,18,Man,Right,
57,14,1,0.5172568000016327,['c'],1,left,['u'],1,0.44503980000081356,0.4,1,0,FastAcc,37,18,Man,Right,
58,14,1,0.5179257999989204,['c'],1,left,['u'],1,0.5684054999983346,0.2,1,0,FastAcc,37,18,Man,Right,
59,14,1,0.40115199999854667,['n'],1,right,['u'],1,0.5323094999985187,0.4,1,0,FastAcc,37,18,Man,Right,
0,15,1,0.5181251000030898,['n'],1,right,['u'],1,0.10154230000262032,0.1,1,0,FastFast,37,18,Man,Right,
1,15,1,0.567799999997078,['c'],1,left,['u'],1,0.3652235000008659,0.4,1,0,FastFast,37,18,Man,Right,
2,15,1,0.6678222000009555,['n'],0,left,['e'],0,0.10230779999983497,0.1,1,0,FastFast,37,18,Man,Right,
3,15,1,0.5513250000003609,['c'],1,left,['e'],0,0.11037469999791938,0.2,0,0,FastFast,37,18,Man,Right,
4,15,1,0.46880769999916083,['c'],1,left,['e'],0,0.12191899999743327,0.2,0,0,FastFast,37,18,Man,Right,
5,15,1,0.5999458000005689,['n'],1,right,['u'],1,0.09624310000072,0.2,1,0,FastFast,37,18,Man,Right,
6,15,1,0.4005028999999922,['c'],0,right,['u'],1,0.061901199998828815,0.2,0,0,FastFast,37,18,Man,Right,
7,15,1,0.5016935999992711,['c'],0,right,['e'],0,0.345193900000595,0.1,1,0,FastFast,37,18,Man,Right,
8,15,1,0.601341899997351,['c'],1,left,['u'],1,0.14967930000057095,0.4,1,0,FastFast,37,18,Man,Right,
9,15,1,0.4846596999996109,['n'],1,right,['u'],1,0.25459330000012415,0.1,1,0,FastFast,37,18,Man,Right,
10,15,1,0.4666149000004225,['n'],0,left,['e'],0,0.13286130000051344,0.2,1,0,FastFast,37,18,Man,Right,
11,15,1,0.650868900000205,['c'],1,left,['e'],0,0.18320979999771225,0.1,0,0,FastFast,37,18,Man,Right,
12,15,1,0.5676977999974042,['n'],1,right,['e'],0,0.267672499998298,0.2,0,0,FastFast,37,18,Man,Right,
13,15,1,0.5348043000012694,['n'],1,right,['u'],1,0.23772189999726834,0.4,1,0,FastFast,37,18,Man,Right,
14,15,1,0.6005353000000468,['c'],1,left,['u'],1,0.07891449999806355,0.4,1,0,FastFast,37,18,Man,Right,
15,15,1,0.917749799999001,['n'],1,right,['e'],0,0.05722329999844078,0.1,0,0,FastFast,37,18,Man,Right,
16,15,1,0.666442100002314,['c'],0,right,['u'],1,0.06297550000090268,0.2,0,0,FastFast,37,18,Man,Right,
17,15,1,0.584133299998939,['n'],1,right,['e'],0,0.13522550000197953,0.1,0,0,FastFast,37,18,Man,Right,
18,15,1,0.5678808999982721,['c'],1,left,['e'],0,0.07734890000210726,0.2,0,0,FastFast,37,18,Man,Right,
19,15,1,0.5177561000018613,['n'],1,right,['u'],1,0.12011179999899468,0.4,1,0,FastFast,37,18,Man,Right,
20,15,1,0.3847434000017529,['c'],1,left,['u'],1,0.10265720000097645,0.4,1,0,FastFast,37,18,Man,Right,
21,15,1,0.4513033999974141,['n'],0,left,['u'],1,0.09887689999959548,0.1,0,0,FastFast,37,18,Man,Right,
22,15,1,0.6012626999981876,['n'],1,right,['e'],0,0.10513050000008661,0.2,0,0,FastFast,37,18,Man,Right,
23,15,1,0.5502311000018381,['n'],1,right,['e'],0,0.12937570000212872,0.4,0,0,FastFast,37,18,Man,Right,
24,15,1,0.417908700001135,['n'],1,right,['u'],1,0.12546669999937876,0.2,1,0,FastFast,37,18,Man,Right,
25,15,1,0.5679356000000553,['c'],1,left,['u'],1,0.08453560000270954,0.2,1,0,FastFast,37,18,Man,Right,
26,15,1,0.4837106000013591,['n'],1,right,['u'],1,0.11255050000181654,0.4,1,0,FastFast,37,18,Man,Right,
27,15,1,0.6342289999993227,['c'],1,left,['u'],1,0.08413519999885466,0.2,1,0,FastFast,37,18,Man,Right,
28,15,1,0.6845416999967711,['c'],1,left,['u'],1,0.1044478000003437,0.2,1,0,FastFast,37,18,Man,Right,
29,15,1,0.450499900001887,['n'],1,right,['u'],1,0.1160057000015513,0.1,1,0,FastFast,37,18,Man,Right,
30,15,1,0.5511444000003394,['c'],1,left,['u'],1,0.2037631000021065,0.2,1,0,FastFast,37,18,Man,Right,
31,15,1,0.46816170000238344,['n'],1,right,['e'],0,0.291194399997039,0.4,0,0,FastFast,37,18,Man,Right,
32,15,1,0.5173485999985132,['c'],0,right,['e'],0,0.11752660000274773,0.1,1,0,FastFast,37,18,Man,Right,
33,15,1,0.851116899997578,['c'],0,right,['e'],0,0.11340470000141067,0.4,1,0,FastFast,37,18,Man,Right,
34,15,1,2.084352599998965,['c'],1,left,['e'],0,0.12377480000213836,0.1,0,0,FastFast,37,18,Man,Right,
35,15,1,0.7348066000013205,['n'],1,right,['e'],0,0.09191719999944326,0.2,0,0,FastFast,37,18,Man,Right,
36,15,1,1.1165608000010252,['c'],0,right,['e'],0,0.09476290000020526,0.4,1,0,FastFast,37,18,Man,Right,
37,15,1,0.8674916999989364,['c'],1,left,['e'],0,0.13837840000269352,0.1,0,0,FastFast,37,18,Man,Right,
38,15,1,0.901263800002198,['c'],1,left,['e'],0,0.09935129999939818,0.4,0,0,FastFast,37,18,Man,Right,
39,15,1,0.5502299999971001,['n'],1,right,['e'],0,0.10818749999816646,0.1,0,0,FastFast,37,18,Man,Right,
40,15,1,0.9845132999980706,['n'],0,left,['e'],0,0.09898579999935464,0.1,1,0,FastFast,37,18,Man,Right,
41,15,1,0.7677054999985558,['n'],0,left,['e'],0,0.13043350000225473,0.2,1,0,FastFast,37,18,Man,Right,
42,15,1,0.6512392000004184,['n'],1,right,['u'],1,0.11759689999962575,0.4,1,0,FastFast,37,18,Man,Right,
43,15,1,0.584687099999428,['c'],1,left,['e'],0,0.13961129999734112,0.4,0,0,FastFast,37,18,Man,Right,
44,15,1,1.1511816999991424,['n'],1,right,['e'],0,0.15459019999980228,0.1,0,0,FastFast,37,18,Man,Right,
45,15,1,1.3512231999993674,['c'],0,right,['u'],1,0.11300880000271718,0.1,0,0,FastFast,37,18,Man,Right,
46,15,1,0.4679716999999073,['n'],1,right,['u'],1,0.05981259999680333,0.2,1,0,FastFast,37,18,Man,Right,
47,15,1,0.6345529000027454,['n'],1,right,['u'],1,0.050815000002330635,0.4,1,0,FastFast,37,18,Man,Right,
48,15,1,0.5343777000016416,['c'],1,left,['u'],1,0.11048599999776343,0.1,1,0,FastFast,37,18,Man,Right,
49,15,1,0.5012105999994674,['n'],0,left,['u'],1,0.05632360000163317,0.2,0,0,FastFast,37,18,Man,Right,
50,15,1,0.6514094000012847,['n'],0,left,['e'],0,0.07841589999952703,0.4,1,0,FastFast,37,18,Man,Right,
51,15,1,0.7846013999987917,['c'],0,right,['u'],1,0.07803540000168141,0.2,0,0,FastFast,37,18,Man,Right,
52,15,1,0.665942299998278,['n'],0,left,['e'],0,0.11561800000345102,0.2,1,0,FastFast,37,18,Man,Right,
53,15,1,0.9336741999977676,['c'],1,left,['e'],0,0.043227999998634914,0.1,0,0,FastFast,37,18,Man,Right,
54,15,1,1.233809099998325,['c'],0,right,['e'],0,0.15494089999992866,0.1,1,0,FastFast,37,18,Man,Right,
55,15,1,0.8509871999995084,['n'],0,left,['e'],0,0.11760110000250279,0.1,1,0,FastFast,37,18,Man,Right,
56,15,1,0.7837925999992876,['c'],1,left,['e'],0,0.1316794000013033,0.4,0,0,FastFast,37,18,Man,Right,
57,15,1,0.7670302999977139,['c'],1,left,['u'],1,0.12970340000174474,0.4,1,0,FastFast,37,18,Man,Right,
58,15,1,0.6497201999991375,['n'],0,left,['u'],1,0.1654926000010164,0.4,0,0,FastFast,37,18,Man,Right,
59,15,1,0.8498773999999685,['c'],0,right,['u'],1,0.15910079999957816,0.4,0,0,FastFast,37,18,Man,Right,
