withinblocktrial,block,block_repetition,rt,resp,cor,cresp,conf_press,cj,rtconf,coherence,slow_trial,manipulation,sub,age,gender,handedness,
0,1,1,1.0343690999998216,['c'],1,left,none,-99,-99,0.5,0,none,32,18,Woman,Right,
1,1,1,0.7337496999989526,['c'],1,left,none,-99,-99,0.5,0,none,32,18,Woman,Right,
2,1,1,0.5843920999996044,['n'],1,right,none,-99,-99,0.5,0,none,32,18,Woman,Right,
3,1,1,0.5333568999994895,['c'],1,left,none,-99,-99,0.5,0,none,32,18,Woman,Right,
4,1,1,0.6012056999989,['n'],1,right,none,-99,-99,0.5,0,none,32,18,Woman,Right,
5,1,1,0.6847207999999227,['c'],1,left,none,-99,-99,0.5,0,none,32,18,Woman,Right,
6,1,1,0.7834270000003016,['n'],1,right,none,-99,-99,0.5,0,none,32,18,Woman,Right,
7,1,1,0.9663188000013179,['n'],1,right,none,-99,-99,0.5,0,none,32,18,Woman,Right,
8,1,1,0.7005361999999877,['c'],1,left,none,-99,-99,0.5,0,none,32,18,Woman,Right,
9,1,1,0.5837482000006275,['n'],1,right,none,-99,-99,0.5,0,none,32,18,Woman,Right,
10,1,1,0.6007183000001532,['n'],1,right,none,-99,-99,0.5,0,none,32,18,Woman,Right,
11,1,1,0.6660275000012916,['n'],1,right,none,-99,-99,0.5,0,none,32,18,Woman,Right,
12,1,1,0.4839217999997345,['n'],1,right,none,-99,-99,0.5,0,none,32,18,Woman,Right,
13,1,1,0.6494879000001674,['c'],1,left,none,-99,-99,0.5,0,none,32,18,Woman,Right,
14,1,1,0.9155582999992475,['n'],1,right,none,-99,-99,0.5,0,none,32,18,Woman,Right,
15,1,1,0.6996333999995841,['n'],1,right,none,-99,-99,0.5,0,none,32,18,Woman,Right,
16,1,1,0.5836523999987548,['c'],0,right,none,-99,-99,0.5,0,none,32,18,Woman,Right,
17,1,1,0.6004788999998709,['c'],1,left,none,-99,-99,0.5,0,none,32,18,Woman,Right,
18,1,1,0.6330782000004547,['c'],1,left,none,-99,-99,0.5,0,none,32,18,Woman,Right,
19,1,1,1.2334504999998899,['c'],1,left,none,-99,-99,0.5,0,none,32,18,Woman,Right,
20,1,1,0.8179170000003069,['c'],1,left,none,-99,-99,0.5,0,none,32,18,Woman,Right,
21,1,1,0.48409730000093987,['c'],1,left,none,-99,-99,0.5,0,none,32,18,Woman,Right,
22,1,1,0.6339777000011964,['n'],1,right,none,-99,-99,0.5,0,none,32,18,Woman,Right,
23,1,1,0.5671232000004238,['c'],1,left,none,-99,-99,0.5,0,none,32,18,Woman,Right,
0,2,1,2.7336951999986923,['c'],1,left,none,-99,-99,0.1,0,none,32,18,Woman,Right,
1,2,1,0.5506399999994755,['n'],1,right,none,-99,-99,0.2,0,none,32,18,Woman,Right,
2,2,1,0.6009116999994149,['n'],1,right,none,-99,-99,0.2,0,none,32,18,Woman,Right,
3,2,1,0.43356910000147764,['c'],1,left,none,-99,-99,0.4,0,none,32,18,Woman,Right,
4,2,1,0.4665423999995255,['n'],1,right,none,-99,-99,0.1,0,none,32,18,Woman,Right,
5,2,1,0.6824722000001202,['n'],1,right,none,-99,-99,0.2,0,none,32,18,Woman,Right,
6,2,1,0.48341790000085894,['c'],1,left,none,-99,-99,0.2,0,none,32,18,Woman,Right,
7,2,1,0.45074879999992845,['c'],1,left,none,-99,-99,0.1,0,none,32,18,Woman,Right,
8,2,1,0.6671291999991809,['n'],1,right,none,-99,-99,0.2,0,none,32,18,Woman,Right,
9,2,1,0.5003600000000006,['n'],1,right,none,-99,-99,0.4,0,none,32,18,Woman,Right,
10,2,1,0.4997714000000997,['c'],1,left,none,-99,-99,0.2,0,none,32,18,Woman,Right,
11,2,1,0.45133999999961816,['n'],1,right,none,-99,-99,0.4,0,none,32,18,Woman,Right,
12,2,1,0.5179337999998097,['n'],1,right,none,-99,-99,0.2,0,none,32,18,Woman,Right,
13,2,1,0.8825725999995484,['c'],0,right,none,-99,-99,0.1,0,none,32,18,Woman,Right,
14,2,1,0.46768080000038026,['c'],1,left,none,-99,-99,0.4,0,none,32,18,Woman,Right,
15,2,1,0.5010267999987263,['c'],1,left,none,-99,-99,0.1,0,none,32,18,Woman,Right,
16,2,1,0.617521800000759,['c'],1,left,none,-99,-99,0.4,0,none,32,18,Woman,Right,
17,2,1,0.5007888000000094,['c'],1,left,none,-99,-99,0.4,0,none,32,18,Woman,Right,
18,2,1,0.5337868000005983,['c'],1,left,none,-99,-99,0.4,0,none,32,18,Woman,Right,
19,2,1,0.4835179000001517,['n'],1,right,none,-99,-99,0.4,0,none,32,18,Woman,Right,
20,2,1,0.4678426999998919,['c'],0,right,none,-99,-99,0.1,0,none,32,18,Woman,Right,
21,2,1,0.4661362000006193,['c'],1,left,none,-99,-99,0.2,0,none,32,18,Woman,Right,
22,2,1,0.6837289000013698,['n'],1,right,none,-99,-99,0.1,0,none,32,18,Woman,Right,
23,2,1,0.4835385000005772,['c'],1,left,none,-99,-99,0.1,0,none,32,18,Woman,Right,
0,3,1,1.2676830000000336,['c'],1,left,['0'],1,1.683242799999789,0.4,0,none,32,18,Woman,Right,
1,3,1,2.0839774000014586,['n'],1,right,['9'],2,1.9681309999996301,0.1,0,none,32,18,Woman,Right,
2,3,1,0.9012743999992381,['n'],0,left,['2'],5,2.367529099999956,0.1,0,none,32,18,Woman,Right,
3,3,1,0.7349034999988362,['c'],1,left,['2'],5,1.1501396999992721,0.4,0,none,32,18,Woman,Right,
4,3,1,1.0342789999995148,['n'],1,right,['8'],3,1.385252500000206,0.2,0,none,32,18,Woman,Right,
5,3,1,0.7149606000002677,['n'],1,right,['2'],5,0.9174873000010848,0.4,0,none,32,18,Woman,Right,
6,3,1,0.7997897000004741,['c'],0,right,['1'],6,0.7509005000010802,0.1,0,none,32,18,Woman,Right,
7,3,1,1.4165706999992835,['c'],1,left,['0'],1,0.8674238999992667,0.2,0,none,32,18,Woman,Right,
8,3,1,1.5011532999997144,['c'],0,right,['9'],2,1.2657727000005252,0.1,0,none,32,18,Woman,Right,
9,3,1,1.7513550000003306,['n'],1,right,['9'],2,0.7849224999990838,0.4,0,none,32,18,Woman,Right,
10,3,1,2.867002999999386,['c'],1,left,['3'],4,1.251507599999968,0.1,0,none,32,18,Woman,Right,
11,3,1,1.3004548999997496,['n'],1,right,['8'],3,1.6522657000004983,0.2,0,none,32,18,Woman,Right,
12,3,1,1.766540900000109,['c'],0,right,['2'],5,1.0507310000011785,0.1,0,none,32,18,Woman,Right,
13,3,1,1.7007785999994667,['c'],1,left,['9'],2,3.050904300000184,0.2,0,none,32,18,Woman,Right,
14,3,1,0.884471699999267,['c'],1,left,['1'],6,0.6680004999998346,0.4,0,none,32,18,Woman,Right,
15,3,1,0.7339931999995315,['c'],1,left,['1'],6,0.8348555000011402,0.2,0,none,32,18,Woman,Right,
16,3,1,0.6842398000007961,['c'],1,left,['1'],6,0.36645839999982854,0.4,0,none,32,18,Woman,Right,
17,3,1,0.9830622000008589,['c'],1,left,['1'],6,0.3347307999993063,0.4,0,none,32,18,Woman,Right,
18,3,1,1.4507266000000527,['c'],1,left,['1'],6,0.6182525999993231,0.2,0,none,32,18,Woman,Right,
19,3,1,0.8326215999986744,['c'],1,left,['1'],6,0.4187096000005113,0.4,0,none,32,18,Woman,Right,
20,3,1,1.6177833000001556,['n'],1,right,['3'],4,1.6177961000012147,0.2,0,none,32,18,Woman,Right,
21,3,1,0.78252639999846,['n'],1,right,['3'],4,0.9843632000010984,0.2,0,none,32,18,Woman,Right,
22,3,1,1.30017929999849,['n'],1,right,['3'],4,0.6675558999995701,0.1,0,none,32,18,Woman,Right,
23,3,1,0.7510349000003771,['n'],1,right,['3'],4,0.6679333000010956,0.1,0,none,32,18,Woman,Right,
0,4,1,1.0505656999994244,['n'],1,right,['8'],3,3.366103300000759,0.4,0,AccFast,32,18,Woman,Right,
1,4,1,2.3840548999996827,['n'],1,right,['2'],5,2.3001163999997516,0.4,0,AccFast,32,18,Woman,Right,
2,4,1,1.0512202999998408,['c'],1,left,['2'],5,1.6509991999992053,0.2,0,AccFast,32,18,Woman,Right,
3,4,1,1.0504032999997435,['c'],1,left,['3'],4,1.1846268000008422,0.4,0,AccFast,32,18,Woman,Right,
4,4,1,2.1844634000008227,['c'],1,left,['9'],2,0.23520600000119884,0.1,0,AccFast,32,18,Woman,Right,
5,4,1,2.117472899999484,['n'],1,right,['9'],2,0.4519939000001614,0.1,0,AccFast,32,18,Woman,Right,
6,4,1,1.6333341999998083,['c'],0,right,['2'],5,0.18451289999939036,0.1,0,AccFast,32,18,Woman,Right,
7,4,1,1.567341200001465,['c'],1,left,['2'],5,0.734769899998355,0.4,0,AccFast,32,18,Woman,Right,
8,4,1,1.5834966000002169,['n'],1,right,['9'],2,0.21869739999965532,0.2,0,AccFast,32,18,Woman,Right,
9,4,1,1.450193999999101,['n'],0,left,['9'],2,0.1346157999996649,0.1,0,AccFast,32,18,Woman,Right,
10,4,1,2.8839011000000028,['c'],1,left,['8'],3,0.4670419000012771,0.4,0,AccFast,32,18,Woman,Right,
11,4,1,0.7162663999988581,['c'],1,left,['9'],2,0.16879080000035174,0.4,0,AccFast,32,18,Woman,Right,
12,4,1,0.9825369999998657,['n'],0,left,['9'],2,0.18551450000086334,0.1,0,AccFast,32,18,Woman,Right,
13,4,1,0.9842222999996011,['c'],1,left,['9'],2,0.1841082999999344,0.2,0,AccFast,32,18,Woman,Right,
14,4,1,1.150317300000097,['c'],1,left,['2'],5,0.1335319999998319,0.4,0,AccFast,32,18,Woman,Right,
15,4,1,1.4009120000009716,['n'],1,right,['1'],6,0.1689987999998266,0.4,0,AccFast,32,18,Woman,Right,
16,4,1,0.916511299999911,['n'],1,right,['1'],6,0.1516894999986107,0.4,0,AccFast,32,18,Woman,Right,
17,4,1,1.050899899999422,['n'],1,right,['1'],6,0.3013650000011694,0.2,0,AccFast,32,18,Woman,Right,
18,4,1,1.0161996999995608,['n'],1,right,['1'],6,0.1353595000000496,0.2,0,AccFast,32,18,Woman,Right,
19,4,1,1.8493717000001197,['c'],1,left,['1'],6,0.6340462000007392,0.1,0,AccFast,32,18,Woman,Right,
20,4,1,1.7007847999993828,['n'],0,left,['2'],5,0.35119850000046426,0.2,0,AccFast,32,18,Woman,Right,
21,4,1,2.199165300000459,['c'],1,left,['9'],2,0.15132749999975204,0.2,0,AccFast,32,18,Woman,Right,
22,4,1,1.1336811000001035,['n'],1,right,['9'],2,0.15130150000004505,0.4,0,AccFast,32,18,Woman,Right,
23,4,1,1.5997720000013942,['n'],1,right,['9'],2,0.08307480000075884,0.1,0,AccFast,32,18,Woman,Right,
24,4,1,1.518034999999145,['n'],1,right,['2'],5,0.16671039999891946,0.2,0,AccFast,32,18,Woman,Right,
25,4,1,0.7330236999987392,['c'],1,left,['1'],6,0.16891899999973248,0.2,0,AccFast,32,18,Woman,Right,
26,4,1,0.7663675000003423,['n'],1,right,['1'],6,0.2182145999995555,0.4,0,AccFast,32,18,Woman,Right,
27,4,1,1.2508754999998928,['n'],1,right,['1'],6,0.4178972000008798,0.1,0,AccFast,32,18,Woman,Right,
28,4,1,1.715384200000699,['c'],1,left,['1'],6,0.10212719999981346,0.1,0,AccFast,32,18,Woman,Right,
29,4,1,1.783578700000362,['n'],0,left,['0'],1,0.16806520000136516,0.1,0,AccFast,32,18,Woman,Right,
30,4,1,1.2842031000000134,['n'],1,right,['9'],2,0.167851400001382,0.2,0,AccFast,32,18,Woman,Right,
31,4,1,1.867172500000379,['n'],1,right,['1'],6,0.05173289999947883,0.4,0,AccFast,32,18,Woman,Right,
32,4,1,1.01699329999974,['c'],1,left,['1'],6,0.13418219999948633,0.2,0,AccFast,32,18,Woman,Right,
33,4,1,1.9675426999983756,['n'],1,right,['9'],2,0.16799270000046818,0.2,0,AccFast,32,18,Woman,Right,
34,4,1,1.7331813000000693,['c'],1,left,['9'],2,0.13485600000058184,0.1,0,AccFast,32,18,Woman,Right,
35,4,1,1.2832507000002806,['c'],1,left,['1'],6,0.1851384000001417,0.4,0,AccFast,32,18,Woman,Right,
36,4,1,0.7671974000004411,['c'],1,left,['1'],6,0.15082690000053844,0.2,0,AccFast,32,18,Woman,Right,
37,4,1,1.2508517000005668,['n'],1,right,['1'],6,0.2511417000005167,0.4,0,AccFast,32,18,Woman,Right,
38,4,1,0.9495489000000816,['n'],1,right,['1'],6,0.2520317000016803,0.4,0,AccFast,32,18,Woman,Right,
39,4,1,1.5156181000002107,['c'],1,left,['9'],2,0.1526616000010108,0.1,0,AccFast,32,18,Woman,Right,
40,4,1,1.316469600000346,['n'],1,right,['9'],2,0.13488020000113465,0.1,0,AccFast,32,18,Woman,Right,
41,4,1,1.265339600000516,['n'],0,left,['0'],1,0.16883959999904619,0.1,0,AccFast,32,18,Woman,Right,
42,4,1,2.2668453000005684,['n'],1,right,['0'],1,0.2510645000002114,0.1,0,AccFast,32,18,Woman,Right,
43,4,1,3.6345208999991883,['c'],1,left,['9'],2,0.167202399999951,0.2,0,AccFast,32,18,Woman,Right,
44,4,1,1.3841377000007924,['n'],1,right,['0'],1,0.21817879999980505,0.4,0,AccFast,32,18,Woman,Right,
45,4,1,1.3326342000000295,['c'],1,left,['2'],5,0.16857679999884567,0.4,0,AccFast,32,18,Woman,Right,
46,4,1,1.9998991999982536,['c'],1,left,['9'],2,0.25159480000002077,0.2,0,AccFast,32,18,Woman,Right,
47,4,1,0.9666665999993711,['n'],1,right,['1'],6,0.3338648999997531,0.4,0,AccFast,32,18,Woman,Right,
48,4,1,1.9160444999997708,['n'],1,right,['9'],2,0.18466049999915413,0.2,0,AccFast,32,18,Woman,Right,
49,4,1,2.383866100000887,['n'],0,left,['9'],2,0.7503715999991982,0.1,0,AccFast,32,18,Woman,Right,
50,4,1,1.1669931999986147,['n'],1,right,['2'],5,0.18480730000010226,0.2,0,AccFast,32,18,Woman,Right,
51,4,1,1.6001677999993262,['c'],0,right,['2'],5,0.13507729999946605,0.1,0,AccFast,32,18,Woman,Right,
52,4,1,3.299920599998586,['c'],1,left,['9'],2,0.4013916000003519,0.1,0,AccFast,32,18,Woman,Right,
53,4,1,1.365786799999114,['c'],1,left,['9'],2,0.13547939999989467,0.4,0,AccFast,32,18,Woman,Right,
54,4,1,1.7340957000014896,['c'],0,right,['9'],2,0.11888660000113305,0.2,0,AccFast,32,18,Woman,Right,
55,4,1,0.8502453999990394,['c'],0,right,['0'],1,0.15096410000114702,0.1,0,AccFast,32,18,Woman,Right,
56,4,1,1.2837339999987307,['n'],1,right,['1'],6,0.3016040000002249,0.4,0,AccFast,32,18,Woman,Right,
57,4,1,0.9842201999999816,['n'],1,right,['1'],6,0.2018960999994306,0.2,0,AccFast,32,18,Woman,Right,
58,4,1,1.8319572000000335,['c'],1,left,['9'],2,0.13418689999889466,0.1,0,AccFast,32,18,Woman,Right,
59,4,1,1.8344144000002416,['c'],1,left,['0'],1,0.16862089999995078,0.2,0,AccFast,32,18,Woman,Right,
0,5,1,1.9346019999993587,['n'],1,right,['0'],1,2.516570600000705,0.1,0,AccAcc,32,18,Woman,Right,
1,5,1,1.2826881999990292,['n'],0,left,['9'],2,1.2521159999996598,0.1,0,AccAcc,32,18,Woman,Right,
2,5,1,0.5831629000003886,['n'],1,right,['1'],6,0.8679427999995823,0.4,0,AccAcc,32,18,Woman,Right,
3,5,1,0.9003413999998884,['c'],1,left,['1'],6,0.568185000000085,0.1,0,AccAcc,32,18,Woman,Right,
4,5,1,1.7145140000011452,['c'],1,left,['3'],4,0.6187423000010313,0.1,0,AccAcc,32,18,Woman,Right,
5,5,1,1.3663310000010824,['c'],1,left,['1'],6,1.2167616999995516,0.4,0,AccAcc,32,18,Woman,Right,
6,5,1,3.584011400000236,['c'],1,left,['3'],4,1.3160980000011477,0.4,0,AccAcc,32,18,Woman,Right,
7,5,1,0.8491063999990729,['n'],1,right,['2'],5,0.9510049000000436,0.2,0,AccAcc,32,18,Woman,Right,
8,5,1,1.117241699999795,['c'],1,left,['2'],5,1.0191040999998222,0.4,0,AccAcc,32,18,Woman,Right,
9,5,1,0.9830693999992945,['n'],1,right,['1'],6,0.568235700000514,0.4,0,AccAcc,32,18,Woman,Right,
10,5,1,1.850074100000711,['c'],1,left,['3'],4,1.6013010999995458,0.2,0,AccAcc,32,18,Woman,Right,
11,5,1,0.6665777999987768,['n'],1,right,['1'],6,0.3175020000016957,0.4,0,AccAcc,32,18,Woman,Right,
12,5,1,0.9998878999995213,['c'],1,left,['2'],5,0.6346541999992041,0.4,0,AccAcc,32,18,Woman,Right,
13,5,1,0.7180038999995304,['n'],1,right,['1'],6,0.7665957999997772,0.4,0,AccAcc,32,18,Woman,Right,
14,5,1,0.7665491000007023,['n'],1,right,['1'],6,0.4023486000005505,0.2,0,AccAcc,32,18,Woman,Right,
15,5,1,1.6668155999996088,['n'],1,right,['1'],6,0.6180589000014152,0.4,0,AccAcc,32,18,Woman,Right,
16,5,1,2.4995352999994793,['c'],1,left,['9'],2,0.6013015000007726,0.1,0,AccAcc,32,18,Woman,Right,
17,5,1,1.0166669999998703,['n'],1,right,['3'],4,1.3675106999999116,0.4,0,AccAcc,32,18,Woman,Right,
18,5,1,1.9335292000014306,['n'],0,left,['0'],1,0.5013192999995226,0.1,0,AccAcc,32,18,Woman,Right,
19,5,1,1.600297100001626,['n'],1,right,['9'],2,0.9855059999990772,0.4,0,AccAcc,32,18,Woman,Right,
20,5,1,2.132664400000067,['c'],1,left,['3'],4,0.4839633000010508,0.2,0,AccAcc,32,18,Woman,Right,
21,5,1,1.282406099999207,['c'],1,left,['3'],4,0.9188931999997294,0.2,0,AccAcc,32,18,Woman,Right,
22,5,1,0.9829169000004185,['c'],1,left,['2'],5,0.7514289999999164,0.4,0,AccAcc,32,18,Woman,Right,
23,5,1,1.8662167000002228,['n'],1,right,['0'],1,1.3507915999998659,0.1,0,AccAcc,32,18,Woman,Right,
24,5,1,2.751231000000189,['n'],1,right,['9'],2,0.584826600001179,0.1,0,AccAcc,32,18,Woman,Right,
25,5,1,1.816980199999307,['n'],1,right,['9'],2,0.4017244999995455,0.2,0,AccAcc,32,18,Woman,Right,
26,5,1,3.9657162000003154,['n'],1,right,['9'],2,0.9855771999991703,0.2,0,AccAcc,32,18,Woman,Right,
27,5,1,4.417315099999541,['n'],0,left,['8'],3,1.7846466999999393,0.1,0,AccAcc,32,18,Woman,Right,
28,5,1,1.4496097000010195,['n'],1,right,['3'],4,0.6498026000008394,0.2,0,AccAcc,32,18,Woman,Right,
29,5,1,3.3175423000011506,['n'],1,right,['8'],3,1.601121099998636,0.2,0,AccAcc,32,18,Woman,Right,
30,5,1,2.150115700000242,['n'],1,right,['3'],4,1.0350667000002431,0.2,0,AccAcc,32,18,Woman,Right,
31,5,1,1.2991762999990897,['c'],1,left,['3'],4,1.3360486000001401,0.2,0,AccAcc,32,18,Woman,Right,
32,5,1,2.4157532999997784,['c'],1,left,['9'],2,1.2517896999997902,0.1,0,AccAcc,32,18,Woman,Right,
33,5,1,1.965976599998612,['c'],1,left,['8'],3,0.5341571999997541,0.1,0,AccAcc,32,18,Woman,Right,
34,5,1,1.0995416000005207,['c'],1,left,['3'],4,1.2013591999984783,0.2,0,AccAcc,32,18,Woman,Right,
35,5,1,1.3327591000015673,['n'],1,right,['8'],3,0.5676186000000598,0.1,0,AccAcc,32,18,Woman,Right,
36,5,1,1.0659704999998212,['c'],1,left,['2'],5,0.5356269000003522,0.4,0,AccAcc,32,18,Woman,Right,
37,5,1,0.700062900001285,['c'],1,left,['2'],5,0.5678553000016109,0.4,0,AccAcc,32,18,Woman,Right,
38,5,1,1.4506175000005896,['n'],1,right,['2'],5,0.6499745000000985,0.4,0,AccAcc,32,18,Woman,Right,
39,5,1,2.150875100000121,['n'],1,right,['9'],2,1.7345592000001488,0.1,0,AccAcc,32,18,Woman,Right,
40,5,1,1.0670126999993954,['c'],1,left,['3'],4,0.4349196999992273,0.4,0,AccAcc,32,18,Woman,Right,
41,5,1,2.466884100000243,['c'],0,right,['9'],2,1.0164089000008971,0.1,0,AccAcc,32,18,Woman,Right,
42,5,1,1.0854036000000633,['c'],1,left,['9'],2,0.533493200000521,0.2,0,AccAcc,32,18,Woman,Right,
43,5,1,1.333060299999488,['n'],1,right,['3'],4,0.6840154000001348,0.1,0,AccAcc,32,18,Woman,Right,
44,5,1,2.1341370999998617,['n'],1,right,['3'],4,0.3353236000002653,0.4,0,AccAcc,32,18,Woman,Right,
45,5,1,1.8161562999994203,['n'],1,right,['8'],3,1.2019802000013442,0.1,0,AccAcc,32,18,Woman,Right,
46,5,1,3.3326015999991796,['n'],1,right,['9'],2,1.399832700000843,0.2,0,AccAcc,32,18,Woman,Right,
47,5,1,2.067430700000841,['c'],1,left,['3'],4,1.9667786999998498,0.2,0,AccAcc,32,18,Woman,Right,
48,5,1,1.8676086000014038,['c'],0,right,['8'],3,1.601793899999393,0.1,0,AccAcc,32,18,Woman,Right,
49,5,1,1.5001125000017055,['c'],1,left,['3'],4,0.9680182000010973,0.1,0,AccAcc,32,18,Woman,Right,
50,5,1,1.7176460999999108,['c'],1,left,['8'],3,0.9006878000000142,0.2,0,AccAcc,32,18,Woman,Right,
51,5,1,0.7667141999991145,['c'],1,left,['1'],6,0.5681155999991461,0.4,0,AccAcc,32,18,Woman,Right,
52,5,1,1.3495316999997158,['c'],1,left,['2'],5,0.4511344000002282,0.2,0,AccAcc,32,18,Woman,Right,
53,5,1,1.6003800999988016,['c'],1,left,['3'],4,0.46660419999898295,0.1,0,AccAcc,32,18,Woman,Right,
54,5,1,1.917081199999302,['n'],1,right,['3'],4,0.8514577999994799,0.2,0,AccAcc,32,18,Woman,Right,
55,5,1,1.417172200001005,['n'],1,right,['3'],4,0.33362729999862495,0.4,0,AccAcc,32,18,Woman,Right,
56,5,1,1.6004250999994838,['n'],1,right,['9'],2,0.9678487000001041,0.1,0,AccAcc,32,18,Woman,Right,
57,5,1,0.8828997000000527,['n'],1,right,['2'],5,0.7853993999997329,0.4,0,AccAcc,32,18,Woman,Right,
58,5,1,1.9664501999995991,['c'],1,left,['2'],5,0.9346506000001682,0.2,0,AccAcc,32,18,Woman,Right,
59,5,1,1.6343772000000172,['c'],1,left,['3'],4,0.9179036000004999,0.2,0,AccAcc,32,18,Woman,Right,
0,6,1,0.7667596000010235,['c'],1,left,['1'],6,1.3345231000002968,0.4,0,FastAcc,32,18,Woman,Right,
1,6,1,0.5492700000013429,['c'],1,left,['1'],6,0.6025995999989391,0.4,0,FastAcc,32,18,Woman,Right,
2,6,1,0.4992108999995253,['c'],1,left,['1'],6,0.23574200000075507,0.4,0,FastAcc,32,18,Woman,Right,
3,6,1,0.6841829000004509,['c'],1,left,['1'],6,0.1514523999994708,0.1,0,FastAcc,32,18,Woman,Right,
4,6,1,0.8991861999984394,['c'],1,left,['2'],5,0.7509565000000293,0.2,0,FastAcc,32,18,Woman,Right,
5,6,1,0.6010009000001446,['n'],1,right,['1'],6,0.9002015000005485,0.4,0,FastAcc,32,18,Woman,Right,
6,6,1,0.45058740000058606,['n'],1,right,['1'],6,0.6659740000013699,0.2,0,FastAcc,32,18,Woman,Right,
7,6,1,0.9016503999991983,['c'],1,left,['3'],4,0.8018225000014354,0.2,0,FastAcc,32,18,Woman,Right,
8,6,1,1.0000983999998425,['n'],1,right,['3'],4,1.1019458999999188,0.2,0,FastAcc,32,18,Woman,Right,
9,6,1,0.7837130000007164,['c'],1,left,['3'],4,0.7011712000003172,0.1,0,FastAcc,32,18,Woman,Right,
10,6,1,1.5170383999993646,['n'],0,left,['8'],3,1.1502373999992415,0.2,0,FastAcc,32,18,Woman,Right,
11,6,1,1.3667986000000383,['c'],0,right,['8'],3,0.883390100001634,0.1,0,FastAcc,32,18,Woman,Right,
12,6,1,0.5843694999985019,['n'],1,right,['2'],5,2.350011700000323,0.4,0,FastAcc,32,18,Woman,Right,
13,6,1,1.0175374999998894,['c'],1,left,['0'],1,1.1173538000002736,0.1,0,FastAcc,32,18,Woman,Right,
14,6,1,0.8329413999999815,['c'],1,left,['0'],1,1.1186432000013156,0.1,0,FastAcc,32,18,Woman,Right,
15,6,1,0.6165430000000924,['c'],0,right,['9'],2,0.9353738000008889,0.1,0,FastAcc,32,18,Woman,Right,
16,6,1,0.6324917999991158,['c'],1,left,['3'],4,0.8015022999989014,0.4,0,FastAcc,32,18,Woman,Right,
17,6,1,1.5666727000007086,['c'],0,right,['8'],3,1.218858199999886,0.1,0,FastAcc,32,18,Woman,Right,
18,6,1,0.9497841000011249,['c'],0,right,['9'],2,0.5513565999990533,0.2,0,FastAcc,32,18,Woman,Right,
19,6,1,1.4837224999992031,['c'],1,left,['8'],3,0.4012658999999985,0.1,0,FastAcc,32,18,Woman,Right,
20,6,1,0.6162026000001788,['c'],1,left,['1'],6,0.8853218000003835,0.4,0,FastAcc,32,18,Woman,Right,
21,6,1,1.4497435000012047,['n'],1,right,['2'],5,1.1683069999999134,0.4,0,FastAcc,32,18,Woman,Right,
22,6,1,1.1336771999995108,['n'],1,right,['8'],3,0.8996667999999772,0.2,0,FastAcc,32,18,Woman,Right,
23,6,1,0.9354598999998416,['c'],1,left,['2'],5,0.8511619000000792,0.2,0,FastAcc,32,18,Woman,Right,
24,6,1,0.5169600999997783,['n'],1,right,['2'],5,0.7004778999998962,0.2,0,FastAcc,32,18,Woman,Right,
25,6,1,0.49959020000096643,['n'],1,right,['2'],5,0.667138700000578,0.2,0,FastAcc,32,18,Woman,Right,
26,6,1,0.9511911000008695,['n'],1,right,['0'],1,0.5682252999995399,0.2,0,FastAcc,32,18,Woman,Right,
27,6,1,0.5174375999995391,['c'],1,left,['1'],6,0.8181593000008434,0.4,0,FastAcc,32,18,Woman,Right,
28,6,1,0.9828750000015134,['n'],1,right,['8'],3,1.6668518999995285,0.2,0,FastAcc,32,18,Woman,Right,
29,6,1,0.7345645999994304,['c'],0,right,['8'],3,1.1181569999989733,0.1,0,FastAcc,32,18,Woman,Right,
30,6,1,0.7334528000010323,['c'],0,right,['9'],2,1.1182747999991989,0.2,0,FastAcc,32,18,Woman,Right,
31,6,1,0.5335749999994732,['c'],1,left,['1'],6,0.8009399999991729,0.4,0,FastAcc,32,18,Woman,Right,
32,6,1,0.8169190000007802,['c'],1,left,['1'],6,0.3683290000008128,0.4,0,FastAcc,32,18,Woman,Right,
33,6,1,0.6843499999995402,['c'],1,left,['1'],6,0.5834760999987338,0.4,0,FastAcc,32,18,Woman,Right,
34,6,1,0.5846165000002657,['c'],1,left,['1'],6,0.23473029999877326,0.4,0,FastAcc,32,18,Woman,Right,
35,6,1,0.45012510000015027,['c'],1,left,['1'],6,0.5179050999995525,0.4,0,FastAcc,32,18,Woman,Right,
36,6,1,0.750586199999816,['n'],1,right,['1'],6,0.3834843999993609,0.2,0,FastAcc,32,18,Woman,Right,
37,6,1,0.5500133000005007,['c'],1,left,['1'],6,0.2682304000009026,0.4,0,FastAcc,32,18,Woman,Right,
38,6,1,1.0170304999992368,['n'],1,right,['9'],2,1.7014686000002257,0.2,0,FastAcc,32,18,Woman,Right,
39,6,1,0.6173027000004367,['c'],1,left,['2'],5,0.8336132000004,0.2,0,FastAcc,32,18,Woman,Right,
40,6,1,1.1171342999987246,['n'],1,right,['9'],2,0.6668048000010458,0.1,0,FastAcc,32,18,Woman,Right,
41,6,1,1.732908199999656,['n'],0,left,['9'],2,0.7347121000002517,0.1,0,FastAcc,32,18,Woman,Right,
42,6,1,1.1831817000002047,['c'],0,right,['8'],3,1.0521797999990667,0.1,0,FastAcc,32,18,Woman,Right,
43,6,1,0.9175587000008818,['c'],0,right,['8'],3,0.6513181999998778,0.1,0,FastAcc,32,18,Woman,Right,
44,6,1,1.117447299999185,['n'],1,right,['2'],5,1.6160847999999532,0.4,0,FastAcc,32,18,Woman,Right,
45,6,1,0.7496609000008903,['c'],1,left,['2'],5,0.7014935000006517,0.1,0,FastAcc,32,18,Woman,Right,
46,6,1,0.9670905000002676,['n'],1,right,['2'],5,0.7170416000008117,0.1,0,FastAcc,32,18,Woman,Right,
47,6,1,1.4993094999990717,['n'],1,right,['9'],2,0.5687448000007862,0.1,0,FastAcc,32,18,Woman,Right,
48,6,1,0.7167821000002732,['c'],1,left,['9'],2,0.900196300000971,0.2,0,FastAcc,32,18,Woman,Right,
49,6,1,0.734052799998608,['c'],1,left,['3'],4,0.7516780999994808,0.1,0,FastAcc,32,18,Woman,Right,
50,6,1,0.6818018000012671,['c'],1,left,['8'],3,0.6016724000000977,0.1,0,FastAcc,32,18,Woman,Right,
51,6,1,0.7832504000016343,['n'],1,right,['8'],3,0.5687783000012132,0.1,0,FastAcc,32,18,Woman,Right,
52,6,1,0.9328513000000385,['c'],1,left,['3'],4,0.7841506000004301,0.2,0,FastAcc,32,18,Woman,Right,
53,6,1,1.084805200000119,['n'],1,right,['1'],6,0.9010848999987502,0.4,0,FastAcc,32,18,Woman,Right,
54,6,1,0.5503513000003295,['n'],1,right,['1'],6,0.26667559999987134,0.2,0,FastAcc,32,18,Woman,Right,
55,6,1,0.7334467000000586,['n'],1,right,['1'],6,0.15088379999906465,0.4,0,FastAcc,32,18,Woman,Right,
56,6,1,1.267684200000076,['c'],1,left,['8'],3,0.16832349999822327,0.4,0,FastAcc,32,18,Woman,Right,
57,6,1,1.0157214000009844,['c'],1,left,['8'],3,0.1525311999994301,0.1,0,FastAcc,32,18,Woman,Right,
58,6,1,1.0989716999993107,['n'],1,right,['3'],4,0.43527349999931175,0.2,0,FastAcc,32,18,Woman,Right,
59,6,1,0.5504328999995778,['n'],1,right,['3'],4,0.18392519999906654,0.4,0,FastAcc,32,18,Woman,Right,
0,7,1,0.817970800000694,['c'],0,right,['3'],4,0.767208600000231,0.1,0,FastFast,32,18,Woman,Right,
1,7,1,1.4164569999993546,['n'],1,right,['8'],3,0.1841246999993018,0.2,0,FastFast,32,18,Woman,Right,
2,7,1,0.7497849999999744,['c'],1,left,['3'],4,0.40170690000013565,0.4,0,FastFast,32,18,Woman,Right,
3,7,1,0.6166321000000607,['c'],1,left,['2'],5,0.23470579999957408,0.1,0,FastFast,32,18,Woman,Right,
4,7,1,0.7675011999999697,['c'],1,left,['8'],3,0.40139799999997194,0.1,0,FastFast,32,18,Woman,Right,
5,7,1,0.6839652999988175,['c'],1,left,['0'],1,0.11817490000066755,0.1,0,FastFast,32,18,Woman,Right,
6,7,1,0.8839127999999619,['n'],1,right,['0'],1,0.2512642000001506,0.1,0,FastFast,32,18,Woman,Right,
7,7,1,0.5503463999993983,['c'],1,left,['1'],6,0.26732950000041455,0.4,0,FastFast,32,18,Woman,Right,
8,7,1,1.0169321000012133,['n'],1,right,['2'],5,0.3011189999997441,0.2,0,FastFast,32,18,Woman,Right,
9,7,1,0.7669051000011677,['n'],1,right,['0'],1,0.31809570000041276,0.2,0,FastFast,32,18,Woman,Right,
10,7,1,1.332241400001294,['c'],1,left,['1'],6,0.3189529000010225,0.2,0,FastFast,32,18,Woman,Right,
11,7,1,0.9338090000001102,['c'],1,left,['9'],2,0.4330953999997291,0.2,0,FastFast,32,18,Woman,Right,
12,7,1,0.9663344000000507,['n'],1,right,['1'],6,0.252727800001594,0.2,0,FastFast,32,18,Woman,Right,
13,7,1,0.6493792999990546,['n'],1,right,['1'],6,0.23358790000020235,0.1,0,FastFast,32,18,Woman,Right,
14,7,1,0.7014823999998043,['c'],1,left,['1'],6,0.1335813000005146,0.2,0,FastFast,32,18,Woman,Right,
15,7,1,0.7327154999984486,['n'],0,left,['1'],6,0.2188055999995413,0.1,0,FastFast,32,18,Woman,Right,
16,7,1,0.9507014000009804,['c'],1,left,['8'],3,0.33535999999912747,0.1,0,FastFast,32,18,Woman,Right,
17,7,1,0.8174514000002091,['n'],1,right,['9'],2,0.450993099999323,0.1,0,FastFast,32,18,Woman,Right,
18,7,1,1.0171331000001373,['n'],1,right,['1'],6,0.6333699999995588,0.4,0,FastFast,32,18,Woman,Right,
19,7,1,0.8013346999996429,['c'],1,left,['2'],5,0.3003631999999925,0.2,0,FastFast,32,18,Woman,Right,
20,7,1,0.6010939999996481,['n'],1,right,['2'],5,0.334264200000689,0.4,0,FastFast,32,18,Woman,Right,
21,7,1,0.9837544000001799,['c'],1,left,['9'],2,0.3178115999999136,0.2,0,FastFast,32,18,Woman,Right,
22,7,1,0.9661958000015147,['c'],1,left,['0'],1,0.4674141999985295,0.2,0,FastFast,32,18,Woman,Right,
23,7,1,1.0838019999991957,['c'],1,left,['9'],2,0.2848684999989928,0.1,0,FastFast,32,18,Woman,Right,
24,7,1,0.8675879999991594,['c'],1,left,['9'],2,0.1669824000000517,0.1,0,FastFast,32,18,Woman,Right,
25,7,1,1.000891199999387,['n'],1,right,['2'],5,0.25086559999908786,0.2,0,FastFast,32,18,Woman,Right,
26,7,1,0.9671895999999833,['n'],1,right,['9'],2,0.18466649999936635,0.1,0,FastFast,32,18,Woman,Right,
27,7,1,1.0988429999997607,['c'],1,left,['9'],2,0.5008199999992939,0.2,0,FastFast,32,18,Woman,Right,
28,7,1,0.8166995999999926,['c'],1,left,['9'],2,0.1353992999993352,0.1,0,FastFast,32,18,Woman,Right,
29,7,1,1.0167792000011104,['n'],1,right,['2'],5,0.2841948000004777,0.4,0,FastFast,32,18,Woman,Right,
30,7,1,0.7339255999995657,['c'],1,left,['9'],2,0.5524053999997705,0.2,0,FastFast,32,18,Woman,Right,
31,7,1,0.9840435000005527,['n'],0,left,['8'],3,0.41820089999964694,0.2,0,FastFast,32,18,Woman,Right,
32,7,1,1.149766599999566,['n'],1,right,['8'],3,0.23478869999962626,0.1,0,FastFast,32,18,Woman,Right,
33,7,1,0.5491132000006473,['c'],1,left,['2'],5,0.3687573999995948,0.4,0,FastFast,32,18,Woman,Right,
34,7,1,0.7005185999987589,['c'],1,left,['2'],5,0.26841869999952905,0.4,0,FastFast,32,18,Woman,Right,
35,7,1,0.7658026000008249,['c'],1,left,['2'],5,0.20251879999887024,0.4,0,FastFast,32,18,Woman,Right,
36,7,1,1.0678130999986024,['n'],1,right,['9'],2,0.38539590000073076,0.2,0,FastFast,32,18,Woman,Right,
37,7,1,1.082412399999157,['n'],1,right,['8'],3,0.2679181999992579,0.2,0,FastFast,32,18,Woman,Right,
38,7,1,1.1995155999993585,['c'],1,left,['2'],5,0.4687837000001309,0.1,0,FastFast,32,18,Woman,Right,
39,7,1,1.3338128000013967,['c'],1,left,['9'],2,0.28446029999940947,0.4,0,FastFast,32,18,Woman,Right,
40,7,1,0.9170680000006541,['n'],1,right,['3'],4,0.551680699998542,0.1,0,FastFast,32,18,Woman,Right,
41,7,1,1.050687499999185,['n'],1,right,['8'],3,0.23352730000078736,0.1,0,FastFast,32,18,Woman,Right,
42,7,1,0.6673680999992939,['n'],1,right,['3'],4,0.2842443000008643,0.4,0,FastFast,32,18,Woman,Right,
43,7,1,0.7002264000002469,['n'],1,right,['1'],6,0.31898780000119586,0.4,0,FastFast,32,18,Woman,Right,
44,7,1,0.9162264000005962,['n'],0,left,['9'],2,0.3507315999995626,0.1,0,FastFast,32,18,Woman,Right,
45,7,1,0.9481826999999612,['c'],1,left,['9'],2,0.36771910000061325,0.2,0,FastFast,32,18,Woman,Right,
46,7,1,0.7670168000004196,['n'],1,right,['1'],6,0.5171136999997543,0.4,0,FastFast,32,18,Woman,Right,
47,7,1,0.6006921000007424,['n'],1,right,['1'],6,0.30262840000068536,0.4,0,FastFast,32,18,Woman,Right,
48,7,1,0.949043000000529,['n'],0,left,['9'],2,0.3854095000006055,0.2,0,FastFast,32,18,Woman,Right,
49,7,1,1.3174621000016487,['c'],1,left,['9'],2,0.15178279999963706,0.4,0,FastFast,32,18,Woman,Right,
50,7,1,1.0005044999998063,['c'],1,left,['1'],6,0.6513031000013143,0.4,0,FastFast,32,18,Woman,Right,
51,7,1,0.865288099999816,['n'],1,right,['3'],4,0.5855114999994839,0.2,0,FastFast,32,18,Woman,Right,
52,7,1,0.8505034999998315,['c'],1,left,['2'],5,0.268106200001057,0.4,0,FastFast,32,18,Woman,Right,
53,7,1,0.8819607999994332,['n'],1,right,['2'],5,1.01863400000002,0.4,0,FastFast,32,18,Woman,Right,
54,7,1,0.7501300999992964,['n'],1,right,['2'],5,0.35194269999919925,0.4,0,FastFast,32,18,Woman,Right,
55,7,1,0.8164054999997461,['n'],1,right,['2'],5,0.7671127000012348,0.2,0,FastFast,32,18,Woman,Right,
56,7,1,1.1336486999989575,['n'],1,right,['2'],5,0.13492109999970126,0.1,0,FastFast,32,18,Woman,Right,
57,7,1,0.8003151999982947,['n'],1,right,['9'],2,0.1680424000005587,0.1,0,FastFast,32,18,Woman,Right,
58,7,1,0.5677923999992345,['n'],1,right,['2'],5,0.385069800000565,0.4,0,FastFast,32,18,Woman,Right,
59,7,1,0.6004169000007096,['n'],1,right,['2'],5,0.134812399999646,0.4,0,FastFast,32,18,Woman,Right,
0,8,1,1.6659300000010262,['c'],1,left,['9'],2,0.15202899999894726,0.2,0,AccFast,32,18,Woman,Right,
1,8,1,1.499640999998519,['c'],1,left,['9'],2,0.11901740000030259,0.1,0,AccFast,32,18,Woman,Right,
2,8,1,1.6497887000004994,['c'],0,right,['9'],2,0.16879719999997178,0.1,0,AccFast,32,18,Woman,Right,
3,8,1,1.416353499998877,['c'],1,left,['2'],5,0.1354661000004853,0.4,0,AccFast,32,18,Woman,Right,
4,8,1,1.1338914999996632,['c'],1,left,['0'],1,0.1341021999996883,0.2,0,AccFast,32,18,Woman,Right,
5,8,1,2.067267399999764,['c'],0,right,['0'],1,0.3346958000001905,0.1,0,AccFast,32,18,Woman,Right,
6,8,1,0.8676779999987048,['c'],1,left,['0'],1,0.05157839999992575,0.4,0,AccFast,32,18,Woman,Right,
7,8,1,0.6997380999982852,['n'],1,right,['0'],1,0.11834280000039143,0.2,0,AccFast,32,18,Woman,Right,
8,8,1,2.0000868999995873,['c'],1,left,['3'],4,0.25017939999997907,0.2,0,AccFast,32,18,Woman,Right,
9,8,1,0.9177233000009437,['c'],1,left,['3'],4,0.11798689999886847,0.4,0,AccFast,32,18,Woman,Right,
10,8,1,2.4346745000002556,['n'],0,left,['3'],4,0.09967099999994389,0.1,0,AccFast,32,18,Woman,Right,
11,8,1,1.1854330000005575,['c'],0,right,['9'],2,0.08353600000009465,0.2,0,AccFast,32,18,Woman,Right,
12,8,1,0.9509727999993629,['n'],1,right,['9'],2,0.13478700000086974,0.2,0,AccFast,32,18,Woman,Right,
13,8,1,1.1158704999998008,['c'],1,left,['3'],4,0.1347191999993811,0.1,0,AccFast,32,18,Woman,Right,
14,8,1,1.6492720999995072,['c'],0,right,['3'],4,0.16764580000017304,0.2,0,AccFast,32,18,Woman,Right,
15,8,1,0.9501256000003195,['c'],0,right,['9'],2,0.06875450000006822,0.1,0,AccFast,32,18,Woman,Right,
16,8,1,0.8504680000005465,['c'],1,left,['9'],2,0.13302809999913734,0.2,0,AccFast,32,18,Woman,Right,
17,8,1,1.2496993000004295,['n'],1,right,['9'],2,0.1519401999994443,0.1,0,AccFast,32,18,Woman,Right,
18,8,1,1.1833353999991232,['n'],0,left,['9'],2,0.03490559999954712,0.1,0,AccFast,32,18,Woman,Right,
19,8,1,2.1171671000010974,['n'],0,left,['9'],2,0.16909010000017588,0.4,0,AccFast,32,18,Woman,Right,
20,8,1,1.0006477999995695,['n'],0,left,['0'],1,0.13355439999941154,0.1,0,AccFast,32,18,Woman,Right,
21,8,1,1.783980000000156,['c'],1,left,['0'],1,0.10121719999915513,0.1,0,AccFast,32,18,Woman,Right,
22,8,1,1.2501225000014529,['c'],1,left,['0'],1,0.06728670000120474,0.2,0,AccFast,32,18,Woman,Right,
23,8,1,0.6667926000009174,['c'],1,left,['0'],1,0.21710469999925408,0.2,0,AccFast,32,18,Woman,Right,
24,8,1,1.8509291000009398,['c'],1,left,['3'],4,0.11808469999959925,0.4,0,AccFast,32,18,Woman,Right,
25,8,1,1.483598200000415,['n'],1,right,['3'],4,0.06804689999989932,0.2,0,AccFast,32,18,Woman,Right,
26,8,1,1.5177813999998762,['n'],1,right,['3'],4,0.883471199998894,0.4,0,AccFast,32,18,Woman,Right,
27,8,1,0.6997604999996838,['c'],1,left,['2'],5,0.5854887000004965,0.4,0,AccFast,32,18,Woman,Right,
28,8,1,0.7335726000001159,['c'],1,left,['2'],5,0.11843039999985194,0.2,0,AccFast,32,18,Woman,Right,
29,8,1,0.7672354000005726,['n'],1,right,['9'],2,0.1686866000000009,0.2,0,AccFast,32,18,Woman,Right,
30,8,1,0.8994548999999097,['n'],1,right,['2'],5,0.035001200001715915,0.4,0,AccFast,32,18,Woman,Right,
31,8,1,1.249328500000047,['c'],1,left,['2'],5,0.18421790000138571,0.1,0,AccFast,32,18,Woman,Right,
32,8,1,1.1007527000001573,['c'],1,left,['2'],5,0.7515750999991724,0.4,0,AccFast,32,18,Woman,Right,
33,8,1,0.7341904000004433,['n'],0,left,['2'],5,0.10025619999942137,0.1,0,AccFast,32,18,Woman,Right,
34,8,1,0.9169826999986981,['c'],1,left,['2'],5,0.08363090000057127,0.2,0,AccFast,32,18,Woman,Right,
35,8,1,0.8000513999995746,['n'],1,right,['2'],5,0.03500669999993988,0.4,0,AccFast,32,18,Woman,Right,
36,8,1,0.5992773999987548,['n'],1,right,['2'],5,0.11934079999991809,0.2,0,AccFast,32,18,Woman,Right,
37,8,1,2.0003171999996994,['c'],1,left,['9'],2,0.5002975999996124,0.4,0,AccFast,32,18,Woman,Right,
38,8,1,0.7171909999997297,['c'],1,left,['9'],2,0.5843865999995614,0.1,0,AccFast,32,18,Woman,Right,
39,8,1,1.1504698999997345,['n'],1,right,['2'],5,0.10083719999965979,0.4,0,AccFast,32,18,Woman,Right,
40,8,1,1.0166265000007115,['n'],1,right,['2'],5,0.05184539999936533,0.4,0,AccFast,32,18,Woman,Right,
41,8,1,0.98360589999902,['n'],1,right,['2'],5,0.034161499999754597,0.1,0,AccFast,32,18,Woman,Right,
42,8,1,0.8832378999995854,['n'],1,right,['1'],6,0.15155380000032892,0.4,0,AccFast,32,18,Woman,Right,
43,8,1,2.03272780000043,['c'],1,left,['9'],2,0.38552379999964614,0.2,0,AccFast,32,18,Woman,Right,
44,8,1,1.0161372000002302,['n'],1,right,['8'],3,0.1689325999996072,0.1,0,AccFast,32,18,Woman,Right,
45,8,1,0.633179200000086,['c'],1,left,['9'],2,0.11823089999961667,0.4,0,AccFast,32,18,Woman,Right,
46,8,1,0.6825555000013992,['c'],1,left,['2'],5,0.15206419999958598,0.4,0,AccFast,32,18,Woman,Right,
47,8,1,1.4170697000008659,['n'],1,right,['3'],4,0.4511320000001433,0.2,0,AccFast,32,18,Woman,Right,
48,8,1,1.2159761000002618,['c'],0,right,['3'],4,0.1353822000000946,0.1,0,AccFast,32,18,Woman,Right,
49,8,1,0.8833754999996017,['c'],0,right,['9'],2,0.16739270000107354,0.4,0,AccFast,32,18,Woman,Right,
50,8,1,1.199899600000208,['c'],0,right,['9'],2,0.06794049999916751,0.1,0,AccFast,32,18,Woman,Right,
51,8,1,1.1507258999990881,['n'],1,right,['9'],2,0.10209880000002158,0.2,0,AccFast,32,18,Woman,Right,
52,8,1,1.000330799999574,['c'],1,left,['0'],1,0.7349391000007017,0.1,0,AccFast,32,18,Woman,Right,
53,8,1,1.4503120000008494,['n'],1,right,['2'],5,0.06825170000047365,0.4,0,AccFast,32,18,Woman,Right,
54,8,1,1.2825473000011698,['c'],1,left,['9'],2,0.0676911000009568,0.1,0,AccFast,32,18,Woman,Right,
55,8,1,1.2161606999998185,['c'],0,right,['0'],1,0.05196020000039425,0.2,0,AccFast,32,18,Woman,Right,
56,8,1,1.732421599999725,['n'],1,right,['9'],2,0.018468899999788846,0.1,0,AccFast,32,18,Woman,Right,
57,8,1,2.0828059000014036,['n'],1,right,['8'],3,0.11834269999962999,0.2,0,AccFast,32,18,Woman,Right,
58,8,1,1.0506839999998192,['n'],1,right,['2'],5,0.23486179999963497,0.4,0,AccFast,32,18,Woman,Right,
59,8,1,1.4670327000003454,['n'],1,right,['2'],5,0.19960849999915808,0.4,0,AccFast,32,18,Woman,Right,
0,9,1,1.8004177999991953,['c'],1,left,['8'],3,1.318492200000037,0.1,0,AccAcc,32,18,Woman,Right,
1,9,1,1.0510763999991468,['n'],1,right,['2'],5,0.5834519,0.4,0,AccAcc,32,18,Woman,Right,
2,9,1,1.3663097999997262,['c'],0,right,['0'],1,0.6847056999995402,0.2,0,AccAcc,32,18,Woman,Right,
3,9,1,2.116976200000863,['c'],0,right,['9'],2,0.9182838000015181,0.2,0,AccAcc,32,18,Woman,Right,
4,9,1,1.332437300001402,['c'],1,left,['2'],5,1.00054099999943,0.4,0,AccAcc,32,18,Woman,Right,
5,9,1,2.617436700000326,['c'],1,left,['9'],2,1.2846434999992198,0.2,0,AccAcc,32,18,Woman,Right,
6,9,1,1.2344751999989967,['c'],1,left,['2'],5,0.9515811999990547,0.2,0,AccAcc,32,18,Woman,Right,
7,9,1,1.2009331999997812,['c'],1,left,['3'],4,0.6160708000006707,0.4,0,AccAcc,32,18,Woman,Right,
8,9,1,2.401013700000476,['n'],1,right,['8'],3,1.0000104000009742,0.2,0,AccAcc,32,18,Woman,Right,
9,9,1,1.950871899998674,['c'],0,right,['2'],5,1.833116699999664,0.2,0,AccAcc,32,18,Woman,Right,
10,9,1,1.1339282000008097,['n'],1,right,['2'],5,1.2010835999990377,0.4,0,AccAcc,32,18,Woman,Right,
11,9,1,1.4158982999997534,['c'],1,left,['3'],4,1.5502813000002789,0.2,0,AccAcc,32,18,Woman,Right,
12,9,1,1.3330838000001677,['n'],1,right,['8'],3,0.852536999998847,0.1,0,AccAcc,32,18,Woman,Right,
13,9,1,1.1170875999996497,['c'],1,left,['8'],3,0.9503784000007727,0.2,0,AccAcc,32,18,Woman,Right,
14,9,1,1.7332722999999532,['c'],1,left,['0'],1,0.784714499999609,0.1,0,AccAcc,32,18,Woman,Right,
15,9,1,0.9829859000001306,['n'],1,right,['2'],5,0.5333755999999994,0.4,0,AccAcc,32,18,Woman,Right,
16,9,1,0.6501569000010932,['c'],1,left,['2'],5,0.4175169999998616,0.2,0,AccAcc,32,18,Woman,Right,
17,9,1,0.9516849999999977,['c'],1,left,['2'],5,0.5673329999990528,0.2,0,AccAcc,32,18,Woman,Right,
18,9,1,0.9998058000001038,['n'],1,right,['2'],5,0.6513519000000088,0.4,0,AccAcc,32,18,Woman,Right,
19,9,1,0.8159105999984604,['n'],1,right,['2'],5,0.13463410000076692,0.4,0,AccAcc,32,18,Woman,Right,
20,9,1,0.7004992000001948,['c'],0,right,['2'],5,0.167956299999787,0.1,0,AccAcc,32,18,Woman,Right,
21,9,1,1.0834993999997096,['c'],0,right,['9'],2,0.1351131000010355,0.1,0,AccAcc,32,18,Woman,Right,
22,9,1,0.9671048000000155,['c'],1,left,['9'],2,0.15121059999910358,0.4,0,AccAcc,32,18,Woman,Right,
23,9,1,1.0687193000012485,['n'],1,right,['2'],5,0.13603329999932612,0.1,0,AccAcc,32,18,Woman,Right,
24,9,1,1.7003616000001784,['c'],1,left,['9'],2,0.40156260000003385,0.1,0,AccAcc,32,18,Woman,Right,
25,9,1,1.5169937999999092,['n'],1,right,['9'],2,0.416299300000901,0.2,0,AccAcc,32,18,Woman,Right,
26,9,1,2.233311500000127,['n'],0,left,['9'],2,0.5170820999992429,0.1,0,AccAcc,32,18,Woman,Right,
27,9,1,1.1837180999991688,['n'],1,right,['9'],2,0.48529769999913697,0.1,0,AccAcc,32,18,Woman,Right,
28,9,1,0.7674967000002653,['n'],1,right,['9'],2,0.3836983000001055,0.4,0,AccAcc,32,18,Woman,Right,
29,9,1,0.8176151000006939,['n'],1,right,['9'],2,0.13339780000023893,0.4,0,AccAcc,32,18,Woman,Right,
30,9,1,1.5155524000001606,['n'],1,right,['9'],2,0.20237859999906505,0.1,0,AccAcc,32,18,Woman,Right,
31,9,1,1.3823824999999488,['c'],1,left,['3'],4,1.3020600999989256,0.1,0,AccAcc,32,18,Woman,Right,
32,9,1,1.4678960000001098,['c'],1,left,['3'],4,0.2833249999985128,0.1,0,AccAcc,32,18,Woman,Right,
33,9,1,1.0668568999990384,['n'],1,right,['3'],4,0.9336531000008108,0.4,0,AccAcc,32,18,Woman,Right,
34,9,1,1.2164708000000246,['c'],1,left,['3'],4,0.30157060000055935,0.1,0,AccAcc,32,18,Woman,Right,
35,9,1,1.23305849999997,['n'],1,right,['9'],2,0.26709909999954107,0.1,0,AccAcc,32,18,Woman,Right,
36,9,1,1.0680897000002005,['n'],1,right,['8'],3,0.2841515999989497,0.2,0,AccAcc,32,18,Woman,Right,
37,9,1,1.3169443999995565,['c'],1,left,['3'],4,0.4181912000003649,0.2,0,AccAcc,32,18,Woman,Right,
38,9,1,0.6998765000007552,['c'],1,left,['2'],5,0.6341960999998264,0.2,0,AccAcc,32,18,Woman,Right,
39,9,1,1.033140600000479,['c'],1,left,['2'],5,1.0496760000005452,0.2,0,AccAcc,32,18,Woman,Right,
40,9,1,1.0687792000007903,['c'],1,left,['2'],5,0.5329431999998633,0.1,0,AccAcc,32,18,Woman,Right,
41,9,1,0.8690232999997534,['c'],1,left,['2'],5,0.20185249999849475,0.4,0,AccAcc,32,18,Woman,Right,
42,9,1,1.766694500000085,['c'],0,right,['9'],2,0.3174078999982157,0.1,0,AccAcc,32,18,Woman,Right,
43,9,1,0.9499414000001707,['n'],1,right,['8'],3,0.700569099999484,0.1,0,AccAcc,32,18,Woman,Right,
44,9,1,1.4829945000001317,['c'],1,left,['9'],2,0.801109500000166,0.2,0,AccAcc,32,18,Woman,Right,
45,9,1,0.8345491000000038,['n'],1,right,['2'],5,0.6849867000000813,0.4,0,AccAcc,32,18,Woman,Right,
46,9,1,1.2323885999994673,['c'],1,left,['2'],5,0.5021948000012344,0.2,0,AccAcc,32,18,Woman,Right,
47,9,1,0.9320201999998972,['n'],1,right,['2'],5,0.28593780000119295,0.4,0,AccAcc,32,18,Woman,Right,
48,9,1,1.4165539000005083,['c'],1,left,['2'],5,0.4009492000004684,0.4,0,AccAcc,32,18,Woman,Right,
49,9,1,1.583403399999952,['c'],1,left,['3'],4,0.9672738000008394,0.4,0,AccAcc,32,18,Woman,Right,
50,9,1,0.8989468999989185,['n'],1,right,['1'],6,0.4186803000011423,0.4,0,AccAcc,32,18,Woman,Right,
51,9,1,1.4841957999997248,['n'],1,right,['9'],2,0.6003787999998167,0.1,0,AccAcc,32,18,Woman,Right,
52,9,1,1.2169881999998324,['n'],1,right,['8'],3,0.6180904000011651,0.4,0,AccAcc,32,18,Woman,Right,
53,9,1,0.9178069000008691,['n'],1,right,['2'],5,0.8660899000005884,0.4,0,AccAcc,32,18,Woman,Right,
54,9,1,1.1176132000000507,['n'],1,right,['9'],2,0.5348523999982717,0.1,0,AccAcc,32,18,Woman,Right,
55,9,1,1.2007728999997198,['c'],1,left,['9'],2,0.30129020000094897,0.2,0,AccAcc,32,18,Woman,Right,
56,9,1,0.9010249999992084,['c'],1,left,['9'],2,0.16834079999898677,0.1,0,AccAcc,32,18,Woman,Right,
57,9,1,1.1176199000001361,['c'],1,left,['2'],5,0.5339411000004475,0.2,0,AccAcc,32,18,Woman,Right,
58,9,1,0.917925900001137,['c'],1,left,['2'],5,0.5347548999998253,0.4,0,AccAcc,32,18,Woman,Right,
59,9,1,1.3344457000002876,['c'],1,left,['2'],5,0.617982399999164,0.2,0,AccAcc,32,18,Woman,Right,
0,10,1,0.634431599999516,['c'],1,left,['9'],2,0.9332592999999179,0.2,0,FastAcc,32,18,Woman,Right,
1,10,1,0.48389419999875827,['n'],1,right,['1'],6,1.0184258999997837,0.4,0,FastAcc,32,18,Woman,Right,
2,10,1,0.5003338999995322,['n'],1,right,['1'],6,0.4851600000001781,0.4,0,FastAcc,32,18,Woman,Right,
3,10,1,0.5336117999995622,['c'],1,left,['1'],6,0.5667122999984713,0.2,0,FastAcc,32,18,Woman,Right,
4,10,1,0.5499003999993874,['c'],1,left,['2'],5,0.4514183999999659,0.4,0,FastAcc,32,18,Woman,Right,
5,10,1,0.7505333999997674,['c'],1,left,['9'],2,0.5677875000001222,0.2,0,FastAcc,32,18,Woman,Right,
6,10,1,0.7164467999991757,['n'],0,left,['9'],2,0.550116700000217,0.1,0,FastAcc,32,18,Woman,Right,
7,10,1,0.8334355000006326,['n'],0,left,['8'],3,0.5501634000011109,0.1,0,FastAcc,32,18,Woman,Right,
8,10,1,0.700371200000518,['n'],1,right,['1'],6,0.35132440000052156,0.4,0,FastAcc,32,18,Woman,Right,
9,10,1,0.6507429000012053,['c'],1,left,['2'],5,0.9502065000015136,0.4,0,FastAcc,32,18,Woman,Right,
10,10,1,0.5346695999996882,['c'],1,left,['3'],4,0.750139499999932,0.1,0,FastAcc,32,18,Woman,Right,
11,10,1,0.8340729999999894,['n'],1,right,['2'],5,0.585121899999649,0.2,0,FastAcc,32,18,Woman,Right,
12,10,1,1.166836600001261,['n'],1,right,['2'],5,1.1845714999999473,0.1,0,FastAcc,32,18,Woman,Right,
13,10,1,1.149216300000262,['c'],1,left,['9'],2,0.7189361000000645,0.1,0,FastAcc,32,18,Woman,Right,
14,10,1,0.7168739999997342,['n'],1,right,['9'],2,0.6854281000014453,0.1,0,FastAcc,32,18,Woman,Right,
15,10,1,0.7670631000000867,['c'],1,left,['3'],4,1.3680468999991717,0.1,0,FastAcc,32,18,Woman,Right,
16,10,1,0.5661749000009877,['c'],1,left,['9'],2,1.450511999999435,0.2,0,FastAcc,32,18,Woman,Right,
17,10,1,0.7180497999997897,['n'],1,right,['8'],3,0.6685887000003277,0.2,0,FastAcc,32,18,Woman,Right,
18,10,1,0.5160670999994181,['c'],0,right,['8'],3,0.7181087999997544,0.2,0,FastAcc,32,18,Woman,Right,
19,10,1,0.733734600000389,['c'],1,left,['8'],3,0.4339073000010103,0.2,0,FastAcc,32,18,Woman,Right,
20,10,1,0.6667030000007799,['n'],1,right,['2'],5,0.9840608999984397,0.4,0,FastAcc,32,18,Woman,Right,
21,10,1,0.6501769000005879,['c'],0,right,['3'],4,0.9849285000000236,0.2,0,FastAcc,32,18,Woman,Right,
22,10,1,0.6840566999999282,['c'],1,left,['3'],4,0.5841860000000452,0.2,0,FastAcc,32,18,Woman,Right,
23,10,1,0.515473600000405,['c'],1,left,['2'],5,0.6526497999984713,0.4,0,FastAcc,32,18,Woman,Right,
24,10,1,1.0672634999991715,['c'],1,left,['3'],4,0.46833970000079717,0.1,0,FastAcc,32,18,Woman,Right,
25,10,1,1.332314100000076,['n'],1,right,['8'],3,0.9353004000004148,0.1,0,FastAcc,32,18,Woman,Right,
26,10,1,0.6827028000006976,['n'],1,right,['9'],2,0.8515468999994482,0.1,0,FastAcc,32,18,Woman,Right,
27,10,1,0.7652533000000403,['n'],1,right,['3'],4,0.5349060999997164,0.1,0,FastAcc,32,18,Woman,Right,
28,10,1,0.8319095999995625,['c'],1,left,['2'],5,0.6346211999989464,0.4,0,FastAcc,32,18,Woman,Right,
29,10,1,0.767854100000477,['n'],1,right,['1'],6,0.30001629999969737,0.4,0,FastAcc,32,18,Woman,Right,
30,10,1,0.6334865999997419,['c'],1,left,['1'],6,0.5832817000009527,0.4,0,FastAcc,32,18,Woman,Right,
31,10,1,0.6842553999995289,['n'],1,right,['3'],4,1.4001636000011786,0.1,0,FastAcc,32,18,Woman,Right,
32,10,1,0.8505894000008993,['n'],1,right,['0'],1,1.1338783999999578,0.1,0,FastAcc,32,18,Woman,Right,
33,10,1,0.6334084999998595,['c'],1,left,['1'],6,0.4509431999995286,0.4,0,FastAcc,32,18,Woman,Right,
34,10,1,0.7170065000009345,['n'],1,right,['9'],2,1.0013337999989744,0.2,0,FastAcc,32,18,Woman,Right,
35,10,1,0.6663368999998056,['n'],1,right,['3'],4,0.6344160000007832,0.2,0,FastAcc,32,18,Woman,Right,
36,10,1,1.0178960000012012,['n'],1,right,['8'],3,0.93290209999941,0.1,0,FastAcc,32,18,Woman,Right,
37,10,1,0.7684023000001616,['c'],1,left,['3'],4,0.5665682999988348,0.4,0,FastAcc,32,18,Woman,Right,
38,10,1,0.6332926000013686,['n'],0,left,['2'],5,0.9695216999989498,0.2,0,FastAcc,32,18,Woman,Right,
39,10,1,0.5831233000008069,['n'],0,left,['9'],2,0.5007865000006859,0.1,0,FastAcc,32,18,Woman,Right,
40,10,1,0.5511100999992777,['c'],1,left,['8'],3,0.6669167000000016,0.4,0,FastAcc,32,18,Woman,Right,
41,10,1,0.6503435000013269,['n'],1,right,['3'],4,0.4515228999989631,0.4,0,FastAcc,32,18,Woman,Right,
42,10,1,0.5655654999991384,['n'],1,right,['2'],5,0.4346191999993607,0.2,0,FastAcc,32,18,Woman,Right,
43,10,1,0.5659128999996028,['c'],1,left,['2'],5,0.984156599999551,0.2,0,FastAcc,32,18,Woman,Right,
44,10,1,0.4998255999998946,['c'],1,left,['1'],6,0.5361529999991035,0.2,0,FastAcc,32,18,Woman,Right,
45,10,1,0.6657219999997324,['n'],1,right,['1'],6,0.800430300001608,0.4,0,FastAcc,32,18,Woman,Right,
46,10,1,1.3495932999994693,['n'],1,right,['1'],6,1.0526840999991691,0.4,0,FastAcc,32,18,Woman,Right,
47,10,1,1.6658055000007153,['c'],0,right,['8'],3,1.6841542000001937,0.1,0,FastAcc,32,18,Woman,Right,
48,10,1,0.9671969999999419,['n'],1,right,['2'],5,0.9174779000004492,0.2,0,FastAcc,32,18,Woman,Right,
49,10,1,0.8497916000014811,['n'],1,right,['2'],5,0.8008074999997916,0.2,0,FastAcc,32,18,Woman,Right,
50,10,1,0.6999030999995739,['c'],1,left,['3'],4,1.0360486999998102,0.1,0,FastAcc,32,18,Woman,Right,
51,10,1,0.5825647999990906,['c'],1,left,['1'],6,0.6006863999991765,0.4,0,FastAcc,32,18,Woman,Right,
52,10,1,0.8995987999987847,['c'],1,left,['8'],3,0.768211099999462,0.1,0,FastAcc,32,18,Woman,Right,
53,10,1,0.6670967999998538,['n'],1,right,['2'],5,0.7519986999996036,0.4,0,FastAcc,32,18,Woman,Right,
54,10,1,0.5660031000006711,['n'],1,right,['8'],3,0.6005242000010185,0.4,0,FastAcc,32,18,Woman,Right,
55,10,1,0.48450359999878856,['c'],1,left,['3'],4,0.45004060000064783,0.1,0,FastAcc,32,18,Woman,Right,
56,10,1,0.7001932000002853,['c'],1,left,['3'],4,0.16871139999966545,0.2,0,FastAcc,32,18,Woman,Right,
57,10,1,0.7157164000000193,['n'],1,right,['3'],4,0.28599559999929625,0.2,0,FastAcc,32,18,Woman,Right,
58,10,1,1.0482224000006681,['n'],1,right,['3'],4,0.06948559999909776,0.4,0,FastAcc,32,18,Woman,Right,
59,10,1,1.383131799999319,['c'],1,left,['8'],3,0.11661159999857773,0.1,0,FastAcc,32,18,Woman,Right,
0,11,1,0.7844686999997066,['c'],1,left,['8'],3,0.9015580999985104,0.1,0,FastFast,32,18,Woman,Right,
1,11,1,0.4842631000010442,['c'],1,left,['3'],4,0.6329192999983206,0.2,0,FastFast,32,18,Woman,Right,
2,11,1,1.1996789000004355,['c'],0,right,['9'],2,0.11776509999981499,0.2,0,FastFast,32,18,Woman,Right,
3,11,1,1.0004906999984087,['c'],1,left,['9'],2,0.21887679999963439,0.1,0,FastFast,32,18,Woman,Right,
4,11,1,0.8836955000006128,['c'],0,right,['9'],2,0.2513056999996479,0.2,0,FastFast,32,18,Woman,Right,
5,11,1,0.6170053000005282,['c'],1,left,['2'],5,0.3670012999991741,0.2,0,FastFast,32,18,Woman,Right,
6,11,1,0.717248799999652,['c'],1,left,['2'],5,0.1681955999993079,0.1,0,FastFast,32,18,Woman,Right,
7,11,1,0.6992054000002099,['n'],1,right,['2'],5,0.21874550000029558,0.4,0,FastFast,32,18,Woman,Right,
8,11,1,0.9172381999997015,['c'],0,right,['9'],2,0.13361649999933434,0.2,0,FastFast,32,18,Woman,Right,
9,11,1,0.7167384000003949,['c'],0,right,['9'],2,0.0848057000002882,0.1,0,FastFast,32,18,Woman,Right,
10,11,1,0.8165402000013273,['c'],0,right,['9'],2,0.06870100000014645,0.1,0,FastFast,32,18,Woman,Right,
11,11,1,0.7159725000001345,['n'],1,right,['2'],5,0.15136150000034831,0.4,0,FastFast,32,18,Woman,Right,
12,11,1,0.9836408999999549,['n'],1,right,['9'],2,0.16789650000100664,0.1,0,FastFast,32,18,Woman,Right,
13,11,1,1.0675049000001309,['n'],0,left,['9'],2,0.15056819999881554,0.2,0,FastFast,32,18,Woman,Right,
14,11,1,1.115602800000488,['c'],1,left,['2'],5,0.20166400000016438,0.4,0,FastFast,32,18,Woman,Right,
15,11,1,1.017254000000321,['n'],1,right,['9'],2,0.08478540000032808,0.1,0,FastFast,32,18,Woman,Right,
16,11,1,1.0338241000008566,['n'],1,right,['9'],2,0.1668035000002419,0.1,0,FastFast,32,18,Woman,Right,
17,11,1,0.8176504999992176,['n'],1,right,['2'],5,0.10177440000006754,0.2,0,FastFast,32,18,Woman,Right,
18,11,1,0.7185874999995576,['c'],1,left,['2'],5,0.45130110000172863,0.1,0,FastFast,32,18,Woman,Right,
19,11,1,0.8654477000000043,['c'],0,right,['3'],4,0.7362312000004749,0.2,0,FastFast,32,18,Woman,Right,
20,11,1,0.6832199999989825,['c'],1,left,['3'],4,0.11617310000110592,0.2,0,FastFast,32,18,Woman,Right,
21,11,1,0.7021174999990762,['n'],1,right,['2'],5,0.20044960000086576,0.2,0,FastFast,32,18,Woman,Right,
22,11,1,0.8165002000005188,['c'],1,left,['2'],5,0.13526329999876907,0.1,0,FastFast,32,18,Woman,Right,
23,11,1,0.8153963000004296,['n'],0,left,['9'],2,0.10223039999982575,0.1,0,FastFast,32,18,Woman,Right,
24,11,1,0.7164787000001525,['c'],1,left,['9'],2,0.3013740999995207,0.4,0,FastFast,32,18,Woman,Right,
25,11,1,0.7002776999997877,['c'],1,left,['3'],4,0.3013897000000725,0.4,0,FastFast,32,18,Woman,Right,
26,11,1,0.6340782000006584,['n'],1,right,['9'],2,0.24989149999964866,0.2,0,FastFast,32,18,Woman,Right,
27,11,1,0.8343686999996862,['c'],1,left,['2'],5,0.13483330000053684,0.2,0,FastFast,32,18,Woman,Right,
28,11,1,0.8831365999994887,['c'],1,left,['2'],5,0.15091079999911017,0.4,0,FastFast,32,18,Woman,Right,
29,11,1,0.9670699000016612,['c'],1,left,['2'],5,0.1509444999992411,0.4,0,FastFast,32,18,Woman,Right,
30,11,1,1.1337886000001163,['n'],1,right,['8'],3,0.6329351000003953,0.1,0,FastFast,32,18,Woman,Right,
31,11,1,0.8829705999996804,['n'],1,right,['1'],6,0.16658300000017334,0.4,0,FastFast,32,18,Woman,Right,
32,11,1,1.65112980000049,['c'],1,left,['1'],6,0.16682930000024498,0.4,0,FastFast,32,18,Woman,Right,
33,11,1,1.367016700000022,['n'],1,right,['2'],5,0.41829370000050403,0.2,0,FastFast,32,18,Woman,Right,
34,11,1,0.8162373000013758,['n'],1,right,['1'],6,0.15199770000072022,0.4,0,FastFast,32,18,Woman,Right,
35,11,1,0.850579399999333,['c'],1,left,['2'],5,0.3666533999985404,0.2,0,FastFast,32,18,Woman,Right,
36,11,1,0.917335500000263,['c'],0,right,['9'],2,0.1349078000002919,0.1,0,FastFast,32,18,Woman,Right,
37,11,1,1.1491110999995726,['n'],1,right,['9'],2,0.15089939999961643,0.1,0,FastFast,32,18,Woman,Right,
38,11,1,1.2176940999997896,['n'],1,right,['2'],5,0.08380919999945036,0.4,0,FastFast,32,18,Woman,Right,
39,11,1,0.9671455000006972,['n'],1,right,['9'],2,0.11872080000102869,0.2,0,FastFast,32,18,Woman,Right,
40,11,1,1.2846000999998068,['n'],1,right,['9'],2,0.48450250000132655,0.1,0,FastFast,32,18,Woman,Right,
41,11,1,0.967322199998307,['c'],1,left,['1'],6,0.3013511999997718,0.4,0,FastFast,32,18,Woman,Right,
42,11,1,0.716356499999165,['c'],1,left,['9'],2,0.6512629999997444,0.1,0,FastFast,32,18,Woman,Right,
43,11,1,0.6677791000001889,['c'],1,left,['3'],4,0.5344930000010208,0.1,0,FastFast,32,18,Woman,Right,
44,11,1,0.6171165999985533,['c'],1,left,['2'],5,1.0179392000009102,0.4,0,FastFast,32,18,Woman,Right,
45,11,1,1.033635999998296,['n'],1,right,['3'],4,0.9344565000010334,0.1,0,FastFast,32,18,Woman,Right,
46,11,1,1.2319709000003058,['n'],1,right,['1'],6,0.18493069999931322,0.2,0,FastFast,32,18,Woman,Right,
47,11,1,0.884584299999915,['c'],1,left,['1'],6,0.11798180000005232,0.4,0,FastFast,32,18,Woman,Right,
48,11,1,1.3342592999997578,['n'],1,right,['9'],2,0.01874159999897529,0.2,0,FastFast,32,18,Woman,Right,
49,11,1,0.882976900000358,['c'],1,left,['9'],2,0.11757140000008803,0.2,0,FastFast,32,18,Woman,Right,
50,11,1,0.8502515999989555,['c'],1,left,['1'],6,0.08424399999967136,0.4,0,FastFast,32,18,Woman,Right,
51,11,1,0.8515600999999151,['c'],1,left,['8'],3,0.20059960000071442,0.2,0,FastFast,32,18,Woman,Right,
52,11,1,0.9153509999996459,['c'],1,left,['8'],3,0.10188660000130767,0.1,0,FastFast,32,18,Woman,Right,
53,11,1,0.9496781999987434,['c'],1,left,['8'],3,0.06885270000020682,0.4,0,FastFast,32,18,Woman,Right,
54,11,1,0.5325338000002375,['n'],1,right,['1'],6,0.6009792000004381,0.4,0,FastFast,32,18,Woman,Right,
55,11,1,0.6178560000007565,['n'],1,right,['1'],6,0.0844558999997389,0.2,0,FastFast,32,18,Woman,Right,
56,11,1,0.7654836000001524,['c'],1,left,['1'],6,0.10089230000085081,0.4,0,FastFast,32,18,Woman,Right,
57,11,1,0.6522898000002897,['n'],1,right,['1'],6,0.10224519999974291,0.4,0,FastFast,32,18,Woman,Right,
58,11,1,1.0838284000001295,['n'],1,right,['9'],2,0.1671437999993941,0.1,0,FastFast,32,18,Woman,Right,
59,11,1,0.6675556000009237,['c'],1,left,['9'],2,0.18358970000008412,0.4,0,FastFast,32,18,Woman,Right,
0,12,1,2.1677574000004824,['c'],1,left,['9'],2,0.16805569999996806,0.2,0,AccFast,32,18,Woman,Right,
1,12,1,0.9335900000005495,['c'],1,left,['9'],2,0.135624700000335,0.1,0,AccFast,32,18,Woman,Right,
2,12,1,0.7507869000000937,['n'],1,right,['1'],6,0.3346452000005229,0.4,0,AccFast,32,18,Woman,Right,
3,12,1,1.049992000000202,['n'],1,right,['1'],6,0.08475180000095861,0.2,0,AccFast,32,18,Woman,Right,
4,12,1,0.9672749999990629,['c'],1,left,['2'],5,0.03449130000080913,0.1,0,AccFast,32,18,Woman,Right,
5,12,1,0.8664662000010139,['c'],1,left,['1'],6,0.15201249999881838,0.2,0,AccFast,32,18,Woman,Right,
6,12,1,1.4166702999991685,['n'],1,right,['9'],2,0.9690043999999034,0.1,0,AccFast,32,18,Woman,Right,
7,12,1,1.015838099998291,['n'],1,right,['1'],6,0.06875480000053358,0.4,0,AccFast,32,18,Woman,Right,
8,12,1,1.1493119999995542,['n'],1,right,['9'],2,0.06868140000005951,0.1,0,AccFast,32,18,Woman,Right,
9,12,1,0.9500820000012027,['n'],0,left,['2'],5,0.35118580000016664,0.1,0,AccFast,32,18,Woman,Right,
10,12,1,0.8511517999995704,['c'],1,left,['2'],5,0.13537739999992482,0.2,0,AccFast,32,18,Woman,Right,
11,12,1,0.633548100000553,['n'],1,right,['1'],6,0.3182324999997945,0.4,0,AccFast,32,18,Woman,Right,
12,12,1,0.9847618000003422,['c'],1,left,['2'],5,0.11724099999992177,0.2,0,AccFast,32,18,Woman,Right,
13,12,1,0.9841922000014165,['c'],1,left,['2'],5,0.7335965999991458,0.1,0,AccFast,32,18,Woman,Right,
14,12,1,1.0008249999991676,['c'],1,left,['2'],5,0.018103300000802847,0.2,0,AccFast,32,18,Woman,Right,
15,12,1,0.6169881000005262,['c'],1,left,['2'],5,0.3679957000003924,0.1,0,AccFast,32,18,Woman,Right,
16,12,1,1.1341432999997778,['c'],0,right,['0'],1,1.1009111000003031,0.2,0,AccFast,32,18,Woman,Right,
17,12,1,1.0504044000008435,['n'],1,right,['2'],5,0.3170534000000771,0.1,0,AccFast,32,18,Woman,Right,
18,12,1,1.4325814000003447,['c'],1,left,['3'],4,1.1671807000002445,0.1,0,AccFast,32,18,Woman,Right,
19,12,1,0.7180334000004223,['n'],1,right,['2'],5,0.21786269999938668,0.1,0,AccFast,32,18,Woman,Right,
20,12,1,1.1326307999988785,['c'],1,left,['2'],5,0.9352030999998533,0.4,0,AccFast,32,18,Woman,Right,
21,12,1,1.2169518999999127,['c'],0,right,['9'],2,0.7664074999993318,0.1,0,AccFast,32,18,Woman,Right,
22,12,1,1.000470699998914,['n'],1,right,['2'],5,0.6674086999992142,0.4,0,AccFast,32,18,Woman,Right,
23,12,1,1.18287170000076,['c'],1,left,['2'],5,0.9503531999998813,0.4,0,AccFast,32,18,Woman,Right,
24,12,1,1.2167349999999715,['n'],1,right,['2'],5,0.5668336999988242,0.4,0,AccFast,32,18,Woman,Right,
25,12,1,1.9672573000007105,['n'],1,right,['9'],2,1.0501580000000104,0.2,0,AccFast,32,18,Woman,Right,
26,12,1,0.8009192999998049,['c'],0,right,['9'],2,0.3845034999994823,0.1,0,AccFast,32,18,Woman,Right,
27,12,1,0.7506314999991446,['c'],0,right,['9'],2,0.11851709999973536,0.4,0,AccFast,32,18,Woman,Right,
28,12,1,0.8341061000010086,['c'],1,left,['9'],2,0.034897100000307546,0.2,0,AccFast,32,18,Woman,Right,
29,12,1,0.6664731999990181,['c'],1,left,['2'],5,0.1180356999993819,0.2,0,AccFast,32,18,Woman,Right,
30,12,1,1.1667001000005257,['n'],1,right,['9'],2,0.1346317999996245,0.2,0,AccFast,32,18,Woman,Right,
31,12,1,0.6167741999997816,['c'],1,left,['9'],2,0.10182130000066536,0.4,0,AccFast,32,18,Woman,Right,
32,12,1,0.8506009000011545,['c'],0,right,['9'],2,0.05155019999983779,0.4,0,AccFast,32,18,Woman,Right,
33,12,1,0.6659773999999743,['c'],1,left,['9'],2,2.2499953000005917,0.4,0,AccFast,32,18,Woman,Right,
34,12,1,1.21798310000122,['n'],1,right,['2'],5,0.25143910000042524,0.4,0,AccFast,32,18,Woman,Right,
35,12,1,0.9170604000009916,['n'],1,right,['2'],5,0.3501359000001685,0.2,0,AccFast,32,18,Woman,Right,
36,12,1,0.6009441000005609,['c'],1,left,['2'],5,0.21841950000089128,0.2,0,AccFast,32,18,Woman,Right,
37,12,1,0.9180218000001332,['c'],1,left,['2'],5,0.15141809999840916,0.2,0,AccFast,32,18,Woman,Right,
38,12,1,0.7835780999994313,['c'],0,right,['2'],5,0.13485789999867848,0.1,0,AccFast,32,18,Woman,Right,
39,12,1,0.8160549000003812,['c'],1,left,['2'],5,0.16761500000029628,0.4,0,AccFast,32,18,Woman,Right,
40,12,1,0.6841502000006585,['c'],1,left,['2'],5,0.2012006000004476,0.1,0,AccFast,32,18,Woman,Right,
41,12,1,0.8177520999997796,['c'],1,left,['2'],5,0.9334204000006139,0.4,0,AccFast,32,18,Woman,Right,
42,12,1,0.7500638000001345,['n'],1,right,['9'],2,1.0016579999992246,0.2,0,AccFast,32,18,Woman,Right,
43,12,1,2.1333489999997255,['n'],1,right,['9'],2,0.11737580000044545,0.1,0,AccFast,32,18,Woman,Right,
44,12,1,1.6830329000003985,['c'],1,left,['9'],2,0.20144059999984165,0.2,0,AccFast,32,18,Woman,Right,
45,12,1,0.9004002000001492,['c'],1,left,['9'],2,0.06827359999988403,0.4,0,AccFast,32,18,Woman,Right,
46,12,1,0.9482800000005227,['c'],1,left,['2'],5,0.05194060000030731,0.4,0,AccFast,32,18,Woman,Right,
47,12,1,0.8170919999993203,['c'],1,left,['2'],5,0.7344655000015337,0.2,0,AccFast,32,18,Woman,Right,
48,12,1,1.0333907999993244,['n'],1,right,['2'],5,0.10222969999995257,0.4,0,AccFast,32,18,Woman,Right,
49,12,1,1.382775899999615,['c'],1,left,['2'],5,0.10232859999996435,0.1,0,AccFast,32,18,Woman,Right,
50,12,1,0.7170256999997946,['c'],1,left,['2'],5,0.10128590000022086,0.4,0,AccFast,32,18,Woman,Right,
51,12,1,0.5494639000007737,['c'],1,left,['2'],5,0.16825470000003406,0.1,0,AccFast,32,18,Woman,Right,
52,12,1,0.6835775999988982,['n'],1,right,['2'],5,0.11815290000049572,0.2,0,AccFast,32,18,Woman,Right,
53,12,1,1.1494253000000754,['c'],0,right,['2'],5,0.050933400001667906,0.1,0,AccFast,32,18,Woman,Right,
54,12,1,1.1837267999999312,['c'],0,right,['9'],2,0.13511670000116283,0.1,0,AccFast,32,18,Woman,Right,
55,12,1,0.700369000000137,['c'],0,right,['0'],1,0.18482140000014624,0.2,0,AccFast,32,18,Woman,Right,
56,12,1,1.0489759000010963,['c'],0,right,['0'],1,1.0178190000005998,0.2,0,AccFast,32,18,Woman,Right,
57,12,1,0.7333601999998791,['n'],1,right,['2'],5,0.36873650000052294,0.4,0,AccFast,32,18,Woman,Right,
58,12,1,1.000481099999888,['c'],1,left,['2'],5,0.38461029999962193,0.4,0,AccFast,32,18,Woman,Right,
59,12,1,1.1153690999999526,['c'],0,right,['0'],1,0.5189867999997659,0.1,0,AccFast,32,18,Woman,Right,
0,13,1,1.149337500000911,['c'],0,right,['9'],2,0.7175406999995175,0.4,0,AccAcc,32,18,Woman,Right,
1,13,1,0.7856820999986667,['n'],1,right,['9'],2,0.31611569999950007,0.1,0,AccAcc,32,18,Woman,Right,
2,13,1,0.6666022999997949,['c'],0,right,['9'],2,0.5010067000002891,0.2,0,AccAcc,32,18,Woman,Right,
3,13,1,0.6342452999997477,['c'],1,left,['2'],5,0.7515650000004825,0.2,0,AccAcc,32,18,Woman,Right,
4,13,1,0.9673863000007259,['c'],0,right,['2'],5,0.4513452999999572,0.1,0,AccAcc,32,18,Woman,Right,
5,13,1,1.8669645999998465,['n'],1,right,['8'],3,0.8659452000010788,0.2,0,AccAcc,32,18,Woman,Right,
6,13,1,0.7830092999993212,['n'],1,right,['2'],5,0.30022180000014487,0.2,0,AccAcc,32,18,Woman,Right,
7,13,1,0.6856922000006307,['c'],1,left,['2'],5,0.5835148000005574,0.4,0,AccAcc,32,18,Woman,Right,
8,13,1,1.298458600000231,['n'],1,right,['1'],6,0.7675333999995928,0.4,0,AccAcc,32,18,Woman,Right,
9,13,1,0.8500291999989713,['n'],0,left,['9'],2,0.4513141999996151,0.1,0,AccAcc,32,18,Woman,Right,
10,13,1,0.7004363999985799,['n'],1,right,['9'],2,0.4668636999995215,0.2,0,AccAcc,32,18,Woman,Right,
11,13,1,0.8681323000000702,['c'],1,left,['2'],5,0.44988480000029085,0.4,0,AccAcc,32,18,Woman,Right,
12,13,1,0.6006023999998433,['n'],1,right,['2'],5,0.5186045999998896,0.2,0,AccAcc,32,18,Woman,Right,
13,13,1,0.8986404999996012,['n'],1,right,['9'],2,0.3347329999996873,0.1,0,AccAcc,32,18,Woman,Right,
14,13,1,0.7678675999995903,['c'],1,left,['3'],4,0.4517606999997952,0.2,0,AccAcc,32,18,Woman,Right,
15,13,1,0.6164743000008457,['c'],1,left,['1'],6,0.3677189999998518,0.2,0,AccAcc,32,18,Woman,Right,
16,13,1,0.7010133999992831,['n'],1,right,['1'],6,0.5328890000000683,0.4,0,AccAcc,32,18,Woman,Right,
17,13,1,0.8846821999995882,['n'],1,right,['9'],2,0.3000384999995731,0.1,0,AccAcc,32,18,Woman,Right,
18,13,1,1.1645982999998523,['n'],1,right,['8'],3,0.5176269000003231,0.1,0,AccAcc,32,18,Woman,Right,
19,13,1,0.9829432999995333,['n'],1,right,['2'],5,0.48419660000035947,0.4,0,AccAcc,32,18,Woman,Right,
20,13,1,1.5169127000008302,['c'],1,left,['3'],4,0.5354731999996147,0.2,0,AccAcc,32,18,Woman,Right,
21,13,1,1.1832193000009283,['c'],1,left,['3'],4,0.3344980999991094,0.1,0,AccAcc,32,18,Woman,Right,
22,13,1,1.1504131000001507,['c'],1,left,['2'],5,0.36761789999945904,0.4,0,AccAcc,32,18,Woman,Right,
23,13,1,1.1003362000010384,['c'],1,left,['2'],5,0.2176562999993621,0.2,0,AccAcc,32,18,Woman,Right,
24,13,1,0.6842455999994854,['c'],1,left,['9'],2,0.5334738999990805,0.1,0,AccAcc,32,18,Woman,Right,
25,13,1,0.9678507000007812,['c'],1,left,['9'],2,0.38498299999992014,0.1,0,AccAcc,32,18,Woman,Right,
26,13,1,0.7162549999993644,['c'],1,left,['2'],5,0.40201170000000275,0.4,0,AccAcc,32,18,Woman,Right,
27,13,1,0.9996384000005492,['n'],1,right,['9'],2,0.3509496000006038,0.1,0,AccAcc,32,18,Woman,Right,
28,13,1,0.9685645999998087,['n'],1,right,['3'],4,0.2333448999997927,0.4,0,AccAcc,32,18,Woman,Right,
29,13,1,0.8172718000005261,['n'],1,right,['2'],5,0.25138439999864204,0.2,0,AccAcc,32,18,Woman,Right,
30,13,1,1.0160140999996656,['n'],1,right,['2'],5,0.18458930000088003,0.4,0,AccAcc,32,18,Woman,Right,
31,13,1,1.2494793999994727,['n'],1,right,['2'],5,0.9675094000012905,0.1,0,AccAcc,32,18,Woman,Right,
32,13,1,1.767875900000945,['n'],1,right,['9'],2,0.16628990000026533,0.1,0,AccAcc,32,18,Woman,Right,
33,13,1,1.1003087000008236,['n'],1,right,['9'],2,0.36760530000174185,0.2,0,AccAcc,32,18,Woman,Right,
34,13,1,0.7659908000005089,['c'],1,left,['2'],5,0.31797259999984817,0.4,0,AccAcc,32,18,Woman,Right,
35,13,1,1.018305400000827,['c'],0,right,['8'],3,1.0332594999999856,0.1,0,AccAcc,32,18,Woman,Right,
36,13,1,0.8664461000007577,['n'],1,right,['1'],6,0.43424859999868204,0.4,0,AccAcc,32,18,Woman,Right,
37,13,1,1.033233599999221,['n'],1,right,['0'],1,0.351023900000655,0.1,0,AccAcc,32,18,Woman,Right,
38,13,1,0.8841479999991861,['n'],1,right,['3'],4,0.7686854000003223,0.1,0,AccAcc,32,18,Woman,Right,
39,13,1,0.7667907000013656,['c'],1,left,['3'],4,0.3513069999989966,0.2,0,AccAcc,32,18,Woman,Right,
40,13,1,0.5176097999992635,['c'],1,left,['1'],6,0.5015097999985301,0.4,0,AccAcc,32,18,Woman,Right,
41,13,1,0.50029750000067,['c'],1,left,['1'],6,0.23450120000052266,0.2,0,AccAcc,32,18,Woman,Right,
42,13,1,0.5995738000001438,['c'],1,left,['1'],6,0.16814510000040173,0.1,0,AccAcc,32,18,Woman,Right,
43,13,1,1.250345100001141,['n'],1,right,['3'],4,0.4347832000003109,0.2,0,AccAcc,32,18,Woman,Right,
44,13,1,1.1662319000006391,['c'],1,left,['3'],4,0.38442530000065744,0.2,0,AccAcc,32,18,Woman,Right,
45,13,1,0.7828692000002775,['c'],1,left,['2'],5,0.23466800000096555,0.4,0,AccAcc,32,18,Woman,Right,
46,13,1,0.748582999998689,['c'],1,left,['1'],6,0.18470349999915925,0.4,0,AccAcc,32,18,Woman,Right,
47,13,1,1.2509984000007535,['c'],1,left,['1'],6,0.2848482999997941,0.4,0,AccAcc,32,18,Woman,Right,
48,13,1,0.9840844000009383,['c'],1,left,['1'],6,0.18337270000120043,0.2,0,AccAcc,32,18,Woman,Right,
49,13,1,0.8344974000010552,['c'],1,left,['2'],5,0.15159250000033353,0.2,0,AccAcc,32,18,Woman,Right,
50,13,1,0.916968799998358,['n'],1,right,['1'],6,0.30023290000099223,0.4,0,AccAcc,32,18,Woman,Right,
51,13,1,0.9497590999999375,['n'],1,right,['0'],1,0.13495729999885953,0.1,0,AccAcc,32,18,Woman,Right,
52,13,1,1.5662920999984635,['n'],1,right,['9'],2,1.2348298000015347,0.2,0,AccAcc,32,18,Woman,Right,
53,13,1,0.7503857000010612,['c'],1,left,['9'],2,0.1508837000001222,0.1,0,AccAcc,32,18,Woman,Right,
54,13,1,0.8329776000009588,['c'],1,left,['3'],4,0.15127320000101463,0.4,0,AccAcc,32,18,Woman,Right,
55,13,1,0.6504530999991402,['c'],1,left,['2'],5,0.3851004999996803,0.4,0,AccAcc,32,18,Woman,Right,
56,13,1,0.9836233999994874,['c'],1,left,['9'],2,0.9178516000010859,0.1,0,AccAcc,32,18,Woman,Right,
57,13,1,1.0998283999997511,['n'],0,left,['9'],2,0.43468229999962205,0.1,0,AccAcc,32,18,Woman,Right,
58,13,1,0.6837228000003961,['n'],1,right,['1'],6,0.30149770000025455,0.2,0,AccAcc,32,18,Woman,Right,
59,13,1,0.6335614999989048,['c'],1,left,['2'],5,0.2669913000008819,0.4,0,AccAcc,32,18,Woman,Right,
0,14,1,0.7676009999995586,['c'],1,left,['2'],5,1.4847692000003008,0.2,0,FastAcc,32,18,Woman,Right,
1,14,1,0.6174501000004966,['n'],1,right,['2'],5,0.5012251000007382,0.4,0,FastAcc,32,18,Woman,Right,
2,14,1,0.7670082000004186,['c'],1,left,['3'],4,1.4012414999997418,0.1,0,FastAcc,32,18,Woman,Right,
3,14,1,0.6490530999999464,['c'],1,left,['9'],2,0.38502429999971355,0.2,0,FastAcc,32,18,Woman,Right,
4,14,1,0.5329456999988906,['c'],1,left,['3'],4,0.7512851999999839,0.4,0,FastAcc,32,18,Woman,Right,
5,14,1,0.6669775999998819,['n'],1,right,['8'],3,0.45119639999938954,0.1,0,FastAcc,32,18,Woman,Right,
6,14,1,0.8009584999999788,['n'],1,right,['3'],4,0.6350285999997141,0.4,0,FastAcc,32,18,Woman,Right,
7,14,1,0.7834173999999621,['n'],1,right,['3'],4,0.21796220000032918,0.2,0,FastAcc,32,18,Woman,Right,
8,14,1,0.6350956999995105,['n'],1,right,['2'],5,0.7680507000004582,0.1,0,FastAcc,32,18,Woman,Right,
9,14,1,0.5841896000001725,['c'],1,left,['2'],5,0.48488019999967946,0.2,0,FastAcc,32,18,Woman,Right,
10,14,1,0.9004491999985476,['n'],1,right,['0'],1,0.9680062000006728,0.1,0,FastAcc,32,18,Woman,Right,
11,14,1,0.9670759000000544,['n'],1,right,['9'],2,0.8172907999996823,0.2,0,FastAcc,32,18,Woman,Right,
12,14,1,1.1667268000001059,['c'],0,right,['3'],4,0.6847029000000475,0.1,0,FastAcc,32,18,Woman,Right,
13,14,1,2.0502964000006614,['c'],1,left,['2'],5,0.7328084999990097,0.4,0,FastAcc,32,18,Woman,Right,
14,14,1,0.7514226999992388,['c'],1,left,['3'],4,0.9682080000002316,0.1,0,FastAcc,32,18,Woman,Right,
15,14,1,1.017343499999697,['c'],0,right,['3'],4,0.7175535000005766,0.1,0,FastAcc,32,18,Woman,Right,
16,14,1,0.8674601999991864,['n'],1,right,['3'],4,0.9852104000001418,0.4,0,FastAcc,32,18,Woman,Right,
17,14,1,0.6509946000005584,['n'],1,right,['3'],4,0.434684500000003,0.4,0,FastAcc,32,18,Woman,Right,
18,14,1,1.1341959000001225,['n'],0,left,['9'],2,0.6674989999992249,0.1,0,FastAcc,32,18,Woman,Right,
19,14,1,1.099006599999484,['n'],0,left,['9'],2,1.0348371000000043,0.1,0,FastAcc,32,18,Woman,Right,
20,14,1,0.9673573000000033,['c'],1,left,['3'],4,2.151071400001456,0.4,0,FastAcc,32,18,Woman,Right,
21,14,1,0.5171593999984907,['n'],1,right,['9'],2,0.8016232999998465,0.2,0,FastAcc,32,18,Woman,Right,
22,14,1,0.5164646999983233,['c'],1,left,['8'],3,0.8515800999994099,0.2,0,FastAcc,32,18,Woman,Right,
23,14,1,0.4499662999987777,['c'],1,left,['2'],5,0.5020870000007562,0.4,0,FastAcc,32,18,Woman,Right,
24,14,1,0.449397800000952,['c'],1,left,['2'],5,0.5187150000001566,0.1,0,FastAcc,32,18,Woman,Right,
25,14,1,0.6503955999996833,['n'],1,right,['2'],5,0.518456599998899,0.1,0,FastAcc,32,18,Woman,Right,
26,14,1,0.8504837000000407,['n'],1,right,['2'],5,0.7680875999994896,0.2,0,FastAcc,32,18,Woman,Right,
27,14,1,0.7333400000006804,['c'],1,left,['9'],2,0.6846502999997028,0.4,0,FastAcc,32,18,Woman,Right,
28,14,1,1.0830349000007118,['c'],1,left,['8'],3,0.8687984999996843,0.2,0,FastAcc,32,18,Woman,Right,
29,14,1,1.0175183000010293,['n'],1,right,['9'],2,0.46734310000101686,0.2,0,FastAcc,32,18,Woman,Right,
30,14,1,0.7345067000005656,['c'],1,left,['8'],3,0.4845855000003212,0.2,0,FastAcc,32,18,Woman,Right,
31,14,1,0.6004078999994817,['c'],1,left,['1'],6,0.15090880000025209,0.4,0,FastAcc,32,18,Woman,Right,
32,14,1,0.6677877000001899,['c'],1,left,['1'],6,0.3348587000000407,0.4,0,FastAcc,32,18,Woman,Right,
33,14,1,0.616982999999891,['c'],0,right,['9'],2,1.1345760000003793,0.1,0,FastAcc,32,18,Woman,Right,
34,14,1,0.517615200000364,['c'],1,left,['8'],3,0.6506253999996261,0.2,0,FastAcc,32,18,Woman,Right,
35,14,1,0.599577800001498,['n'],1,right,['1'],6,0.6527912000001379,0.4,0,FastAcc,32,18,Woman,Right,
36,14,1,0.8834303999992699,['n'],1,right,['2'],5,0.6181100999983755,0.1,0,FastAcc,32,18,Woman,Right,
37,14,1,0.5677085999996052,['n'],1,right,['1'],6,0.7679052000003139,0.4,0,FastAcc,32,18,Woman,Right,
38,14,1,0.5837646999989374,['n'],1,right,['1'],6,0.4523183000001154,0.4,0,FastAcc,32,18,Woman,Right,
39,14,1,0.8501981999997952,['n'],1,right,['9'],2,1.0854034000003594,0.1,0,FastAcc,32,18,Woman,Right,
40,14,1,0.6673570000002655,['n'],1,right,['2'],5,0.6348345000005793,0.2,0,FastAcc,32,18,Woman,Right,
41,14,1,0.7839996999991854,['n'],1,right,['2'],5,0.7179047999998147,0.1,0,FastAcc,32,18,Woman,Right,
42,14,1,0.6161890999992465,['c'],1,left,['2'],5,0.7681694999992033,0.4,0,FastAcc,32,18,Woman,Right,
43,14,1,0.8496646999992663,['c'],1,left,['8'],3,0.8497709000002942,0.2,0,FastAcc,32,18,Woman,Right,
44,14,1,0.8499815999985003,['n'],1,right,['2'],5,1.1685397000001103,0.4,0,FastAcc,32,18,Woman,Right,
45,14,1,1.1504700999994384,['c'],1,left,['9'],2,0.8834837000013067,0.1,0,FastAcc,32,18,Woman,Right,
46,14,1,0.7672129999991739,['c'],1,left,['8'],3,0.734576200000447,0.1,0,FastAcc,32,18,Woman,Right,
47,14,1,0.8504457000017283,['c'],1,left,['8'],3,1.2682018000014068,0.2,0,FastAcc,32,18,Woman,Right,
48,14,1,0.6835460000002058,['c'],1,left,['8'],3,0.7847935999998299,0.1,0,FastAcc,32,18,Woman,Right,
49,14,1,1.433160799999314,['c'],1,left,['3'],4,0.6846648000009736,0.4,0,FastAcc,32,18,Woman,Right,
50,14,1,1.4836962000008498,['c'],1,left,['3'],4,0.8513318999994226,0.2,0,FastAcc,32,18,Woman,Right,
51,14,1,0.5510847000005015,['n'],1,right,['2'],5,0.568131899999571,0.4,0,FastAcc,32,18,Woman,Right,
52,14,1,0.5337165999990248,['n'],1,right,['1'],6,0.5344344999994064,0.4,0,FastAcc,32,18,Woman,Right,
53,14,1,1.7008428999997705,['n'],1,right,['2'],5,0.9512558000005811,0.2,0,FastAcc,32,18,Woman,Right,
54,14,1,0.7836499999993976,['c'],1,left,['9'],2,1.5344851999998355,0.1,0,FastAcc,32,18,Woman,Right,
55,14,1,0.5507062999986374,['c'],1,left,['2'],5,1.134495500000412,0.2,0,FastAcc,32,18,Woman,Right,
56,14,1,0.9836139999988518,['n'],1,right,['8'],3,1.0514661999986856,0.1,0,FastAcc,32,18,Woman,Right,
57,14,1,0.8165691000012885,['n'],1,right,['3'],4,0.9177604999986215,0.2,0,FastAcc,32,18,Woman,Right,
58,14,1,1.2335769000001164,['n'],1,right,['3'],4,0.6843090000002121,0.2,0,FastAcc,32,18,Woman,Right,
59,14,1,1.0673966000013024,['c'],1,left,['2'],5,0.7511211000000912,0.4,0,FastAcc,32,18,Woman,Right,
0,15,1,0.5172425000000658,['c'],1,left,['1'],6,0.38383539999995264,0.4,0,FastFast,32,18,Woman,Right,
1,15,1,0.6827525999997306,['c'],1,left,['8'],3,0.6687991999988299,0.1,0,FastFast,32,18,Woman,Right,
2,15,1,0.5323263999998744,['c'],1,left,['9'],2,0.63538779999908,0.2,0,FastFast,32,18,Woman,Right,
3,15,1,0.5509272999988752,['n'],1,right,['1'],6,0.4179786000004242,0.2,0,FastFast,32,18,Woman,Right,
4,15,1,0.5680666000007477,['c'],1,left,['1'],6,0.4183152000005066,0.2,0,FastFast,32,18,Woman,Right,
5,15,1,0.816342899999654,['c'],0,right,['8'],3,0.6183022999994137,0.1,0,FastFast,32,18,Woman,Right,
6,15,1,0.5509060000003956,['n'],1,right,['1'],6,0.5178017999987787,0.4,0,FastFast,32,18,Woman,Right,
7,15,1,0.8171165000003384,['n'],0,left,['9'],2,0.5014804999991611,0.1,0,FastFast,32,18,Woman,Right,
8,15,1,0.6339342999999644,['c'],1,left,['1'],6,0.5680615000001126,0.4,0,FastFast,32,18,Woman,Right,
9,15,1,0.5504182000004221,['c'],1,left,['1'],6,0.45158550000087416,0.4,0,FastFast,32,18,Woman,Right,
10,15,1,0.8833116999994672,['n'],1,right,['2'],5,0.6998502000005828,0.4,0,FastFast,32,18,Woman,Right,
11,15,1,0.8516557999992074,['n'],0,left,['9'],2,0.3511567000005016,0.1,0,FastFast,32,18,Woman,Right,
12,15,1,0.5672090000007302,['c'],1,left,['2'],5,0.63466519999929,0.4,0,FastFast,32,18,Woman,Right,
13,15,1,0.7673457999990205,['c'],1,left,['1'],6,0.5347411000002467,0.2,0,FastFast,32,18,Woman,Right,
14,15,1,0.6494306000004144,['n'],1,right,['1'],6,0.7345476000009512,0.4,0,FastFast,32,18,Woman,Right,
15,15,1,0.767915799999173,['n'],0,left,['9'],2,0.4513442000006762,0.1,0,FastFast,32,18,Woman,Right,
16,15,1,0.5994884000010643,['c'],1,left,['2'],5,0.6348889000000781,0.4,0,FastFast,32,18,Woman,Right,
17,15,1,0.6001907000008941,['n'],1,right,['1'],6,0.40107130000069446,0.2,0,FastFast,32,18,Woman,Right,
18,15,1,0.5663330999996106,['n'],1,right,['2'],5,0.5184353000004194,0.2,0,FastFast,32,18,Woman,Right,
19,15,1,0.5501787000011973,['n'],1,right,['9'],2,0.31811299999935727,0.2,0,FastFast,32,18,Woman,Right,
20,15,1,0.6163933000007091,['c'],1,left,['9'],2,0.36841590000040014,0.1,0,FastFast,32,18,Woman,Right,
21,15,1,0.6996094999994966,['n'],1,right,['1'],6,0.217750599998908,0.4,0,FastFast,32,18,Woman,Right,
22,15,1,0.733800699999847,['n'],0,left,['9'],2,0.16841310000017984,0.1,0,FastFast,32,18,Woman,Right,
23,15,1,0.5336010999999417,['c'],1,left,['9'],2,0.21844059999966703,0.4,0,FastFast,32,18,Woman,Right,
24,15,1,0.567129200000636,['c'],1,left,['1'],6,0.15039230000002135,0.4,0,FastFast,32,18,Woman,Right,
25,15,1,0.9670674000008148,['n'],1,right,['2'],5,0.6845725999992283,0.4,0,FastFast,32,18,Woman,Right,
26,15,1,0.833984099999725,['n'],1,right,['9'],2,0.18500459999995655,0.1,0,FastFast,32,18,Woman,Right,
27,15,1,0.7659602999992785,['c'],1,left,['2'],5,0.16889979999905336,0.2,0,FastFast,32,18,Woman,Right,
28,15,1,0.6838365999992675,['n'],1,right,['2'],5,0.20197550000011688,0.2,0,FastFast,32,18,Woman,Right,
29,15,1,0.8838839000000007,['c'],1,left,['9'],2,0.11866510000072594,0.1,0,FastFast,32,18,Woman,Right,
30,15,1,0.6332094999997935,['c'],1,left,['2'],5,0.3014599999987695,0.4,0,FastFast,32,18,Woman,Right,
31,15,1,1.100146799999493,['n'],1,right,['2'],5,0.301231800000096,0.1,0,FastFast,32,18,Woman,Right,
32,15,1,0.6337942000009207,['n'],1,right,['2'],5,0.3010496000006242,0.4,0,FastFast,32,18,Woman,Right,
33,15,1,0.5669186000013724,['c'],1,left,['9'],2,0.3180093000009947,0.1,0,FastFast,32,18,Woman,Right,
34,15,1,0.8178924000003462,['c'],0,right,['8'],3,0.5515474000003451,0.2,0,FastFast,32,18,Woman,Right,
35,15,1,0.7667505999997957,['c'],1,left,['2'],5,0.38511970000035944,0.4,0,FastFast,32,18,Woman,Right,
36,15,1,0.5672279999998864,['c'],1,left,['2'],5,0.26798969999981637,0.1,0,FastFast,32,18,Woman,Right,
37,15,1,1.0504235999997036,['n'],1,right,['2'],5,0.30146529999910854,0.4,0,FastFast,32,18,Woman,Right,
38,15,1,0.7997593000000052,['c'],0,right,['2'],5,0.267153299999336,0.1,0,FastFast,32,18,Woman,Right,
39,15,1,0.8663629000002402,['c'],1,left,['9'],2,0.1849320000001171,0.1,0,FastFast,32,18,Woman,Right,
40,15,1,0.6829256999990321,['c'],0,right,['9'],2,0.33438810000006924,0.1,0,FastFast,32,18,Woman,Right,
41,15,1,0.933119400000578,['c'],1,left,['9'],2,0.13464740000017628,0.1,0,FastFast,32,18,Woman,Right,
42,15,1,0.9158360999990691,['n'],1,right,['9'],2,0.16835560000072292,0.2,0,FastFast,32,18,Woman,Right,
43,15,1,0.9177349000001414,['c'],1,left,['9'],2,0.36827440000161005,0.2,0,FastFast,32,18,Woman,Right,
44,15,1,0.7157244999998511,['c'],1,left,['2'],5,0.2010059000003821,0.4,0,FastFast,32,18,Woman,Right,
45,15,1,0.7155726999990293,['n'],1,right,['2'],5,0.1684146999996301,0.2,0,FastFast,32,18,Woman,Right,
46,15,1,0.9836799999993673,['c'],0,right,['9'],2,0.13485790000049747,0.2,0,FastFast,32,18,Woman,Right,
47,15,1,0.6503852000005281,['n'],1,right,['2'],5,0.15127050000046438,0.4,0,FastFast,32,18,Woman,Right,
48,15,1,1.000459500000943,['n'],0,left,['9'],2,0.18459710000024643,0.1,0,FastFast,32,18,Woman,Right,
49,15,1,0.8330304000010074,['c'],1,left,['9'],2,0.1693025000004127,0.2,0,FastFast,32,18,Woman,Right,
50,15,1,0.8505349999995815,['c'],1,left,['2'],5,0.134647999999288,0.2,0,FastFast,32,18,Woman,Right,
51,15,1,0.7169412000002922,['n'],1,right,['3'],4,0.3517061000002286,0.1,0,FastFast,32,18,Woman,Right,
52,15,1,0.9987707000000228,['c'],0,right,['3'],4,0.15078290000019479,0.1,0,FastFast,32,18,Woman,Right,
53,15,1,0.8690862000003108,['n'],1,right,['9'],2,0.21790789999977278,0.2,0,FastFast,32,18,Woman,Right,
54,15,1,0.7006052999986423,['n'],1,right,['0'],1,0.1336907999993855,0.4,0,FastFast,32,18,Woman,Right,
55,15,1,1.0842085999993287,['n'],1,right,['9'],2,0.1013333999999304,0.2,0,FastFast,32,18,Woman,Right,
56,15,1,0.9830898000000161,['n'],1,right,['0'],1,0.5512441999999282,0.2,0,FastFast,32,18,Woman,Right,
57,15,1,0.95049569999901,['n'],1,right,['9'],2,0.3168253999992885,0.1,0,FastFast,32,18,Woman,Right,
58,15,1,1.31768430000011,['c'],0,right,['9'],2,0.5678924000003462,0.4,0,FastFast,32,18,Woman,Right,
59,15,1,0.5163967999997112,['c'],1,left,['1'],6,0.18479309999929683,0.2,0,FastFast,32,18,Woman,Right,
