withinblocktrial,block,block_repetition,rt,resp,cor,cresp,conf_press,cj,rtconf,coherence,slow_trial,manipulation,sub,age,gender,handedness,
0,1,1,2.817490199999156,['c'],0,right,none,-99,-99,0.5,0,none,33,22,Woman,Right,
1,1,1,1.7680734000005032,['n'],1,right,none,-99,-99,0.5,0,none,33,22,Woman,Right,
2,1,1,2.68198029999985,['n'],1,right,none,-99,-99,0.5,0,none,33,22,Woman,Right,
3,1,1,1.0500307000002067,['n'],1,right,none,-99,-99,0.5,0,none,33,22,Woman,Right,
4,1,1,0.9998596999994334,['c'],1,left,none,-99,-99,0.5,0,none,33,22,Woman,Right,
5,1,1,0.800223600001118,['n'],1,right,none,-99,-99,0.5,0,none,33,22,Woman,Right,
6,1,1,0.8498754000011104,['c'],1,left,none,-99,-99,0.5,0,none,33,22,Woman,Right,
7,1,1,0.7672109999984968,['n'],1,right,none,-99,-99,0.5,0,none,33,22,Woman,Right,
8,1,1,0.8011141999995743,['n'],1,right,none,-99,-99,0.5,0,none,33,22,Woman,Right,
9,1,1,0.6677564000001439,['c'],1,left,none,-99,-99,0.5,0,none,33,22,Woman,Right,
10,1,1,1.067275100000188,['n'],0,left,none,-99,-99,0.5,0,none,33,22,Woman,Right,
11,1,1,0.8342092999992019,['c'],1,left,none,-99,-99,0.5,0,none,33,22,Woman,Right,
12,1,1,1.133681899998919,['n'],1,right,none,-99,-99,0.5,0,none,33,22,Woman,Right,
13,1,1,0.5677666999999929,['c'],1,left,none,-99,-99,0.5,0,none,33,22,Woman,Right,
14,1,1,0.45161989999905927,['n'],1,right,none,-99,-99,0.5,0,none,33,22,Woman,Right,
15,1,1,0.7994397000002209,['n'],1,right,none,-99,-99,0.5,0,none,33,22,Woman,Right,
16,1,1,0.6343840999998065,['c'],1,left,none,-99,-99,0.5,0,none,33,22,Woman,Right,
17,1,1,0.5510971999992762,['n'],1,right,none,-99,-99,0.5,0,none,33,22,Woman,Right,
18,1,1,0.5512231000011525,['c'],1,left,none,-99,-99,0.5,0,none,33,22,Woman,Right,
19,1,1,0.598699399999532,['n'],1,right,none,-99,-99,0.5,0,none,33,22,Woman,Right,
20,1,1,0.5502909999995609,['c'],1,left,none,-99,-99,0.5,0,none,33,22,Woman,Right,
21,1,1,0.6164976999989449,['c'],1,left,none,-99,-99,0.5,0,none,33,22,Woman,Right,
22,1,1,0.6168053000001237,['c'],1,left,none,-99,-99,0.5,0,none,33,22,Woman,Right,
23,1,1,0.6501069999994797,['c'],1,left,none,-99,-99,0.5,0,none,33,22,Woman,Right,
0,2,1,0.5667212999996991,['c'],1,left,none,-99,-99,0.4,0,none,33,22,Woman,Right,
1,2,1,0.5512899999994261,['n'],1,right,none,-99,-99,0.1,0,none,33,22,Woman,Right,
2,2,1,0.6010899000011705,['n'],0,left,none,-99,-99,0.2,0,none,33,22,Woman,Right,
3,2,1,0.4344279999986611,['c'],1,left,none,-99,-99,0.2,0,none,33,22,Woman,Right,
4,2,1,0.6325255000010657,['c'],1,left,none,-99,-99,0.2,0,none,33,22,Woman,Right,
5,2,1,0.4502397000014753,['c'],0,right,none,-99,-99,0.1,0,none,33,22,Woman,Right,
6,2,1,0.6675386000006256,['c'],1,left,none,-99,-99,0.1,0,none,33,22,Woman,Right,
7,2,1,0.4686048999992636,['n'],1,right,none,-99,-99,0.4,0,none,33,22,Woman,Right,
8,2,1,0.5509151999995083,['n'],1,right,none,-99,-99,0.4,0,none,33,22,Woman,Right,
9,2,1,0.49885790000007546,['c'],1,left,none,-99,-99,0.1,0,none,33,22,Woman,Right,
10,2,1,0.5003826000011031,['n'],1,right,none,-99,-99,0.2,0,none,33,22,Woman,Right,
11,2,1,0.8837599999988015,['c'],0,right,none,-99,-99,0.1,0,none,33,22,Woman,Right,
12,2,1,0.5831863999992493,['c'],1,left,none,-99,-99,0.4,0,none,33,22,Woman,Right,
13,2,1,0.48407229999975243,['c'],1,left,none,-99,-99,0.4,0,none,33,22,Woman,Right,
14,2,1,0.7012634000002436,['n'],1,right,none,-99,-99,0.4,0,none,33,22,Woman,Right,
15,2,1,0.6671099999985017,['n'],1,right,none,-99,-99,0.1,0,none,33,22,Woman,Right,
16,2,1,0.43435710000085237,['c'],0,right,none,-99,-99,0.1,0,none,33,22,Woman,Right,
17,2,1,0.5003916999994544,['n'],1,right,none,-99,-99,0.2,0,none,33,22,Woman,Right,
18,2,1,0.6163324000008288,['c'],1,left,none,-99,-99,0.2,0,none,33,22,Woman,Right,
19,2,1,0.5166367999991053,['c'],1,left,none,-99,-99,0.4,0,none,33,22,Woman,Right,
20,2,1,0.6839794999996229,['c'],1,left,none,-99,-99,0.2,0,none,33,22,Woman,Right,
21,2,1,0.5001066000004357,['n'],1,right,none,-99,-99,0.2,0,none,33,22,Woman,Right,
22,2,1,0.6009733000009874,['n'],1,right,none,-99,-99,0.4,0,none,33,22,Woman,Right,
23,2,1,0.5178753999989567,['c'],1,left,none,-99,-99,0.1,0,none,33,22,Woman,Right,
0,3,1,0.5833775999999489,['n'],0,left,['2'],2,3.1343551999998454,0.1,0,none,33,22,Woman,Right,
1,3,1,0.682813299999907,['n'],0,left,['8'],4,2.3669102000003477,0.1,0,none,33,22,Woman,Right,
2,3,1,0.9663311000003887,['c'],1,left,['3'],3,2.3671481999990647,0.4,0,none,33,22,Woman,Right,
3,3,1,1.0508363999997528,['n'],1,right,['9'],5,1.833712399999058,0.1,0,none,33,22,Woman,Right,
4,3,1,0.7162702999994508,['c'],1,left,['9'],5,1.1845984999999928,0.4,0,none,33,22,Woman,Right,
5,3,1,1.1316095999991376,['n'],0,left,['3'],3,2.1011099999996077,0.2,0,none,33,22,Woman,Right,
6,3,1,0.7507436000014422,['n'],0,left,['8'],4,2.366451199999574,0.1,0,none,33,22,Woman,Right,
7,3,1,1.1006342000000586,['c'],0,right,['1'],1,2.102593900001011,0.4,0,none,33,22,Woman,Right,
8,3,1,1.098184399999809,['n'],1,right,['0'],6,1.2525990000012825,0.4,0,none,33,22,Woman,Right,
9,3,1,1.166807500001596,['c'],0,right,['8'],4,1.602200499999526,0.4,0,none,33,22,Woman,Right,
10,3,1,1.266213200000493,['n'],1,right,['3'],3,1.3178938000000926,0.4,0,none,33,22,Woman,Right,
11,3,1,1.4336550000007264,['c'],1,left,['8'],4,1.3845662999992783,0.2,0,none,33,22,Woman,Right,
12,3,1,2.3154850999999326,['n'],1,right,['2'],2,1.6686165999999503,0.2,0,none,33,22,Woman,Right,
13,3,1,0.8834753000010096,['n'],1,right,['1'],1,1.6508278000001155,0.4,0,none,33,22,Woman,Right,
14,3,1,1.2508896999988792,['c'],0,right,['3'],3,3.2174400000003516,0.2,0,none,33,22,Woman,Right,
15,3,1,1.3833396000009088,['n'],0,left,['8'],4,1.483216700000412,0.1,0,none,33,22,Woman,Right,
16,3,1,1.3172420999999304,['n'],1,right,['8'],4,1.1012484000002587,0.1,0,none,33,22,Woman,Right,
17,3,1,2.2992582000006223,['n'],1,right,['2'],2,1.3520346999994217,0.2,0,none,33,22,Woman,Right,
18,3,1,1.3001174000000901,['n'],0,left,['3'],3,1.8011556000001292,0.4,0,none,33,22,Woman,Right,
19,3,1,1.3987997000003816,['n'],0,left,['8'],4,1.3336077999992995,0.2,0,none,33,22,Woman,Right,
20,3,1,3.833669200001168,['n'],0,left,['3'],3,1.1841022000007797,0.1,0,none,33,22,Woman,Right,
21,3,1,1.1510589999998047,['n'],0,left,['3'],3,1.966355399999884,0.1,0,none,33,22,Woman,Right,
22,3,1,1.8173170999998547,['n'],1,right,['8'],4,1.10134300000027,0.2,0,none,33,22,Woman,Right,
23,3,1,0.8988984000006894,['n'],1,right,['9'],5,1.5010825999997905,0.2,0,none,33,22,Woman,Right,
0,4,1,0.868895399999019,['n'],1,right,['8'],4,3.0507651999996597,0.1,0,AccFast,33,22,Woman,Right,
1,4,1,1.0671791000004305,['n'],1,right,['8'],4,1.2512182999998913,0.2,0,AccFast,33,22,Woman,Right,
2,4,1,1.8839593000011519,['c'],1,left,['3'],3,0.8001172000003862,0.4,0,AccFast,33,22,Woman,Right,
3,4,1,0.7496719999999186,['n'],1,right,['8'],4,1.318430499999522,0.1,0,AccFast,33,22,Woman,Right,
4,4,1,0.899326500000825,['c'],1,left,['3'],3,1.0190847000012582,0.2,0,AccFast,33,22,Woman,Right,
5,4,1,0.8824498000012682,['n'],0,left,['9'],5,1.7510572999999567,0.4,0,AccFast,33,22,Woman,Right,
6,4,1,1.3823133999994752,['n'],0,left,['8'],4,1.101898800001436,0.2,0,AccFast,33,22,Woman,Right,
7,4,1,1.784022100000584,['n'],0,left,['3'],3,1.3848343000008754,0.1,0,AccFast,33,22,Woman,Right,
8,4,1,0.8999283000011928,['c'],1,left,['2'],2,1.2016452999996545,0.1,0,AccFast,33,22,Woman,Right,
9,4,1,0.8487598000010621,['n'],1,right,['9'],5,1.1351280999988376,0.2,0,AccFast,33,22,Woman,Right,
10,4,1,0.6837655000017548,['n'],1,right,['9'],5,0.6671482000001561,0.4,0,AccFast,33,22,Woman,Right,
11,4,1,1.0495442999999796,['c'],1,left,['9'],5,1.385536100000536,0.2,0,AccFast,33,22,Woman,Right,
12,4,1,0.8986248000001069,['n'],0,left,['3'],3,0.8866877999989811,0.4,0,AccFast,33,22,Woman,Right,
13,4,1,0.5491120999995474,['n'],1,right,['0'],6,0.9354383000008966,0.2,0,AccFast,33,22,Woman,Right,
14,4,1,0.5672756000003574,['n'],1,right,['8'],4,1.416310100001283,0.4,0,AccFast,33,22,Woman,Right,
15,4,1,0.7516563999997743,['n'],0,left,['8'],4,0.8676842000004399,0.1,0,AccFast,33,22,Woman,Right,
16,4,1,0.6829698000001372,['n'],1,right,['3'],3,0.8853512999994564,0.2,0,AccFast,33,22,Woman,Right,
17,4,1,0.44807699999910255,['c'],1,left,['8'],4,1.1174389000007068,0.2,0,AccFast,33,22,Woman,Right,
18,4,1,0.8515447999998287,['c'],1,left,['8'],4,0.8012620999998035,0.4,0,AccFast,33,22,Woman,Right,
19,4,1,0.8845774000001256,['n'],0,left,['9'],5,1.1010428999998112,0.4,0,AccFast,33,22,Woman,Right,
20,4,1,0.9504518000012467,['n'],1,right,['9'],5,0.6163003000001481,0.1,0,AccFast,33,22,Woman,Right,
21,4,1,0.9508108000009088,['c'],1,left,['3'],3,0.8663581000000704,0.4,0,AccFast,33,22,Woman,Right,
22,4,1,1.1176184999985708,['n'],1,right,['8'],4,1.6677674000002298,0.2,0,AccFast,33,22,Woman,Right,
23,4,1,0.7508589999997639,['n'],0,left,['8'],4,0.6004296999999497,0.2,0,AccFast,33,22,Woman,Right,
24,4,1,1.0678107000003365,['n'],1,right,['8'],4,0.717855499999132,0.4,0,AccFast,33,22,Woman,Right,
25,4,1,1.3323166999998648,['c'],0,right,['3'],3,2.1671871000016836,0.1,0,AccFast,33,22,Woman,Right,
26,4,1,4.417783099999724,['c'],1,left,['8'],4,0.9513859999988199,0.4,0,AccFast,33,22,Woman,Right,
27,4,1,5.015305299999454,x,-99,left,none,-99,-99,0.1,1,AccFast,33,22,Woman,Right,
28,4,1,1.1673326999989513,['n'],1,right,['8'],4,0.784876700001405,0.1,0,AccFast,33,22,Woman,Right,
29,4,1,0.6163269999997283,['n'],1,right,['8'],4,1.018529300001319,0.2,0,AccFast,33,22,Woman,Right,
30,4,1,0.733233900000414,['c'],1,left,['3'],3,1.1827417000004061,0.2,0,AccFast,33,22,Woman,Right,
31,4,1,1.1842522000006284,['n'],1,right,['8'],4,0.7500643000003038,0.1,0,AccFast,33,22,Woman,Right,
32,4,1,1.3672218000010616,['n'],1,right,['8'],4,0.5992908999996871,0.2,0,AccFast,33,22,Woman,Right,
33,4,1,1.6001223000002938,['n'],0,left,['2'],2,1.7192799000004015,0.1,0,AccFast,33,22,Woman,Right,
34,4,1,0.9819974000001821,['n'],0,left,['8'],4,1.266721799998777,0.1,0,AccFast,33,22,Woman,Right,
35,4,1,1.2009730999998283,['c'],1,left,['3'],3,0.7356865000001562,0.1,0,AccFast,33,22,Woman,Right,
36,4,1,0.9513776000003418,['n'],1,right,['8'],4,0.7680333000007522,0.4,0,AccFast,33,22,Woman,Right,
37,4,1,0.9170409999987896,['c'],1,left,['8'],4,1.1844264999999723,0.2,0,AccFast,33,22,Woman,Right,
38,4,1,0.9343675000000076,['n'],1,right,['3'],3,1.185579900000448,0.1,0,AccFast,33,22,Woman,Right,
39,4,1,0.882277000000613,['c'],1,left,['9'],5,0.9521289999993314,0.4,0,AccFast,33,22,Woman,Right,
40,4,1,1.6334845000001224,['n'],0,left,['3'],3,1.4506985999996687,0.1,0,AccFast,33,22,Woman,Right,
41,4,1,1.5352611999987857,['n'],0,left,['2'],2,2.2328445999992255,0.2,0,AccFast,33,22,Woman,Right,
42,4,1,1.1508283000002848,['n'],1,right,['3'],3,1.2668696999990061,0.1,0,AccFast,33,22,Woman,Right,
43,4,1,1.5340726000013092,['n'],1,right,['9'],5,0.7332899000011821,0.4,0,AccFast,33,22,Woman,Right,
44,4,1,2.282877700001336,['c'],0,right,['2'],2,0.9347567999993771,0.1,0,AccFast,33,22,Woman,Right,
45,4,1,1.2659676000002946,['n'],1,right,['8'],4,1.6004608999992342,0.2,0,AccFast,33,22,Woman,Right,
46,4,1,0.6829719000015757,['c'],1,left,['8'],4,1.4338304000011703,0.4,0,AccFast,33,22,Woman,Right,
47,4,1,1.9821355000003678,['n'],1,right,['3'],3,1.336234800000966,0.2,0,AccFast,33,22,Woman,Right,
48,4,1,1.1161443000000872,['n'],1,right,['8'],4,1.2850653000004968,0.1,0,AccFast,33,22,Woman,Right,
49,4,1,0.6837369999993825,['c'],1,left,['9'],5,1.4502267999996548,0.2,0,AccFast,33,22,Woman,Right,
50,4,1,1.1663462000014988,['n'],1,right,['9'],5,0.9344342000003962,0.4,0,AccFast,33,22,Woman,Right,
51,4,1,1.4493404000004375,['c'],0,right,['8'],4,1.3658154999993712,0.1,0,AccFast,33,22,Woman,Right,
52,4,1,0.8347206999987975,['n'],1,right,['9'],5,0.834520500000508,0.2,0,AccFast,33,22,Woman,Right,
53,4,1,1.633404000000155,['c'],1,left,['8'],4,1.251900499999465,0.1,0,AccFast,33,22,Woman,Right,
54,4,1,1.4334460999998555,['n'],1,right,['0'],6,0.983095499999763,0.4,0,AccFast,33,22,Woman,Right,
55,4,1,1.8667863000009675,['n'],0,left,['1'],1,1.3517363999999361,0.4,0,AccFast,33,22,Woman,Right,
56,4,1,1.3663751000003685,['n'],0,left,['9'],5,0.8849553000000014,0.4,0,AccFast,33,22,Woman,Right,
57,4,1,0.8490715000007185,['n'],1,right,['9'],5,1.0852154000003793,0.4,0,AccFast,33,22,Woman,Right,
58,4,1,1.7002534000002925,['n'],1,right,['9'],5,0.6168483000001288,0.2,0,AccFast,33,22,Woman,Right,
59,4,1,0.9825435000002471,['c'],1,left,['2'],2,0.535164299999451,0.4,0,AccFast,33,22,Woman,Right,
0,5,1,1.516017500000089,['n'],1,right,['8'],4,2.851506499999232,0.1,0,AccAcc,33,22,Woman,Right,
1,5,1,1.2993198999993183,['n'],1,right,['2'],2,1.4343962000002648,0.1,0,AccAcc,33,22,Woman,Right,
2,5,1,2.33228660000168,['c'],1,left,['3'],3,0.9019548999986,0.1,0,AccAcc,33,22,Woman,Right,
3,5,1,0.8180769000009604,['n'],1,right,['9'],5,1.4006960000006075,0.4,0,AccAcc,33,22,Woman,Right,
4,5,1,0.8679357999990316,['c'],1,left,['9'],5,0.950777799998832,0.4,0,AccAcc,33,22,Woman,Right,
5,5,1,2.166726600000402,['c'],1,left,['2'],2,0.6839490000002115,0.2,0,AccAcc,33,22,Woman,Right,
6,5,1,1.0165694000006624,['c'],1,left,['0'],6,0.9686235999997734,0.4,0,AccAcc,33,22,Woman,Right,
7,5,1,1.3341440000003786,['n'],1,right,['9'],5,1.5510291000009602,0.4,0,AccAcc,33,22,Woman,Right,
8,5,1,2.3995716000008542,['c'],0,right,['2'],2,0.8499513000006118,0.2,0,AccAcc,33,22,Woman,Right,
9,5,1,1.4323031999992963,['n'],1,right,['8'],4,1.3525635999994847,0.1,0,AccAcc,33,22,Woman,Right,
10,5,1,0.8009825000008277,['n'],1,right,['0'],6,0.5178544999998849,0.4,0,AccAcc,33,22,Woman,Right,
11,5,1,1.1817321999988053,['c'],1,left,['9'],5,1.7343595000002097,0.1,0,AccAcc,33,22,Woman,Right,
12,5,1,3.0653314999999566,['c'],1,left,['2'],2,0.9187715999996726,0.2,0,AccAcc,33,22,Woman,Right,
13,5,1,0.684172999999646,['n'],1,right,['9'],5,0.8517307999991317,0.4,0,AccAcc,33,22,Woman,Right,
14,5,1,3.0824969000004785,['n'],1,right,['1'],1,0.6527936000002228,0.2,0,AccAcc,33,22,Woman,Right,
15,5,1,2.3993549999995594,['n'],0,left,['2'],2,1.0844443999994837,0.1,0,AccAcc,33,22,Woman,Right,
16,5,1,3.048616600000969,['n'],0,left,['3'],3,1.2181970000001456,0.1,0,AccAcc,33,22,Woman,Right,
17,5,1,0.8164962000009837,['c'],1,left,['8'],4,1.3334821999997075,0.4,0,AccAcc,33,22,Woman,Right,
18,5,1,1.9496083000012732,['c'],1,left,['8'],4,0.7020009999996546,0.2,0,AccAcc,33,22,Woman,Right,
19,5,1,2.648785899998984,['n'],0,left,['3'],3,1.3507779000010487,0.1,0,AccAcc,33,22,Woman,Right,
20,5,1,2.9168104000000312,['n'],0,left,['3'],3,0.8841398999993544,0.2,0,AccAcc,33,22,Woman,Right,
21,5,1,1.2511289000012766,['n'],1,right,['8'],4,0.9022030000014638,0.2,0,AccAcc,33,22,Woman,Right,
22,5,1,1.0310257000001002,['c'],1,left,['8'],4,0.8857850000003964,0.4,0,AccAcc,33,22,Woman,Right,
23,5,1,2.31413959999918,['n'],0,left,['2'],2,1.9193493999991915,0.1,0,AccAcc,33,22,Woman,Right,
24,5,1,1.6340192000006937,['n'],0,left,['3'],3,2.185123499999463,0.1,0,AccAcc,33,22,Woman,Right,
25,5,1,2.8818970000011177,['n'],0,left,['1'],1,1.5512330999990809,0.2,0,AccAcc,33,22,Woman,Right,
26,5,1,1.9998825000002398,['n'],1,right,['9'],5,1.2353732000010496,0.2,0,AccAcc,33,22,Woman,Right,
27,5,1,1.5001604000008228,['c'],1,left,['8'],4,1.1509747000000061,0.2,0,AccAcc,33,22,Woman,Right,
28,5,1,2.332548399999723,['n'],0,left,['8'],4,0.9001970000008441,0.1,0,AccAcc,33,22,Woman,Right,
29,5,1,1.6517700999993394,['n'],0,left,['9'],5,0.8007275999989361,0.2,0,AccAcc,33,22,Woman,Right,
30,5,1,1.0676124999990861,['n'],1,right,['9'],5,0.9349806999998691,0.2,0,AccAcc,33,22,Woman,Right,
31,5,1,1.1335085000009713,['n'],1,right,['8'],4,1.1510729999990872,0.4,0,AccAcc,33,22,Woman,Right,
32,5,1,1.0008400000006077,['c'],1,left,['9'],5,1.5171374999990803,0.4,0,AccAcc,33,22,Woman,Right,
33,5,1,2.449763399999938,['n'],1,right,['2'],2,1.1011995000008028,0.2,0,AccAcc,33,22,Woman,Right,
34,5,1,0.8678436000009242,['n'],1,right,['9'],5,0.5683602999997674,0.4,0,AccAcc,33,22,Woman,Right,
35,5,1,2.1988474000008864,['n'],1,right,['3'],3,1.2173003999996581,0.2,0,AccAcc,33,22,Woman,Right,
36,5,1,1.9003857999996399,['n'],1,right,['8'],4,1.6177449999995588,0.2,0,AccAcc,33,22,Woman,Right,
37,5,1,1.3165289999997185,['c'],1,left,['9'],5,1.134467299998505,0.4,0,AccAcc,33,22,Woman,Right,
38,5,1,1.0001816999993025,['n'],1,right,['8'],4,0.9679704999998648,0.4,0,AccAcc,33,22,Woman,Right,
39,5,1,1.0509489000014582,['c'],1,left,['8'],4,1.3340103000009549,0.4,0,AccAcc,33,22,Woman,Right,
40,5,1,1.3828544000007241,['n'],1,right,['8'],4,2.2010214000001724,0.1,0,AccAcc,33,22,Woman,Right,
41,5,1,2.0827778999992006,['c'],1,left,['2'],2,0.9502487999998266,0.2,0,AccAcc,33,22,Woman,Right,
42,5,1,1.0342589000010776,['c'],1,left,['8'],4,1.0013724000000366,0.1,0,AccAcc,33,22,Woman,Right,
43,5,1,2.1334159999987605,['n'],1,right,['9'],5,2.0832152999992104,0.1,0,AccAcc,33,22,Woman,Right,
44,5,1,1.1826173000008566,['c'],1,left,['3'],3,1.5849472999998397,0.4,0,AccAcc,33,22,Woman,Right,
45,5,1,1.8169816000008723,['n'],1,right,['3'],3,0.6845499000010022,0.1,0,AccAcc,33,22,Woman,Right,
46,5,1,0.8667430999994394,['n'],1,right,['0'],6,0.6679311000007147,0.4,0,AccAcc,33,22,Woman,Right,
47,5,1,1.6829125000003842,['n'],1,right,['3'],3,1.2346426999993128,0.1,0,AccAcc,33,22,Woman,Right,
48,5,1,0.7333714000014879,['n'],1,right,['8'],4,0.6687446000014461,0.4,0,AccAcc,33,22,Woman,Right,
49,5,1,2.39987519999886,['n'],0,left,['1'],1,1.4018768000005366,0.1,0,AccAcc,33,22,Woman,Right,
50,5,1,1.3837634999999864,['c'],1,left,['2'],2,0.9836327000011806,0.4,0,AccAcc,33,22,Woman,Right,
51,5,1,3.41685569999936,['c'],0,right,['2'],2,0.7025634000001446,0.1,0,AccAcc,33,22,Woman,Right,
52,5,1,2.265606000000844,['n'],0,left,['2'],2,0.850655000000188,0.2,0,AccAcc,33,22,Woman,Right,
53,5,1,2.3663890000007086,['n'],1,right,['8'],4,1.0182815000007395,0.2,0,AccAcc,33,22,Woman,Right,
54,5,1,1.0015242999998009,['n'],1,right,['8'],4,0.8014323999996122,0.4,0,AccAcc,33,22,Woman,Right,
55,5,1,0.9656342999987828,['n'],1,right,['9'],5,0.9518620999988343,0.4,0,AccAcc,33,22,Woman,Right,
56,5,1,2.415117900000041,['c'],0,right,['3'],3,0.6859911999999895,0.2,0,AccAcc,33,22,Woman,Right,
57,5,1,1.600035299999945,['c'],1,left,['8'],4,0.5849054999998771,0.1,0,AccAcc,33,22,Woman,Right,
58,5,1,2.9331675000012183,['c'],1,left,['8'],4,1.0671145999986038,0.1,0,AccAcc,33,22,Woman,Right,
59,5,1,1.5501303000000917,['n'],1,right,['3'],3,0.8335801999983232,0.2,0,AccAcc,33,22,Woman,Right,
0,6,1,0.9160230000015872,['c'],1,left,['8'],4,1.1680042999996658,0.4,0,FastAcc,33,22,Woman,Right,
1,6,1,1.264953500000047,['n'],1,right,['3'],3,1.0860546000003524,0.1,0,FastAcc,33,22,Woman,Right,
2,6,1,1.9166504000004352,['n'],0,left,['9'],5,0.6855192000002717,0.1,0,FastAcc,33,22,Woman,Right,
3,6,1,2.250895199998922,['n'],0,left,['8'],4,1.0667129999983445,0.1,0,FastAcc,33,22,Woman,Right,
4,6,1,2.0825844000009965,['n'],0,left,['8'],4,0.5687006999996811,0.1,0,FastAcc,33,22,Woman,Right,
5,6,1,1.448690600000191,['n'],1,right,['8'],4,0.8850198000000091,0.2,0,FastAcc,33,22,Woman,Right,
6,6,1,2.8321833000009065,['c'],0,right,['3'],3,2.08429839999917,0.1,0,FastAcc,33,22,Woman,Right,
7,6,1,0.9674443999992945,['c'],1,left,['9'],5,1.1518273999990924,0.4,0,FastAcc,33,22,Woman,Right,
8,6,1,3.0509818000009545,['n'],1,right,['2'],2,1.4178922000010061,0.1,0,FastAcc,33,22,Woman,Right,
9,6,1,0.9836754999996629,['c'],1,left,['9'],5,1.0842833000006067,0.4,0,FastAcc,33,22,Woman,Right,
10,6,1,2.1673252000000502,['n'],0,left,['8'],4,1.0677542999983416,0.1,0,FastAcc,33,22,Woman,Right,
11,6,1,1.249152000000322,['c'],1,left,['9'],5,1.3518248000000312,0.2,0,FastAcc,33,22,Woman,Right,
12,6,1,2.267665000001216,['n'],0,left,['9'],5,0.8507529000016802,0.4,0,FastAcc,33,22,Woman,Right,
13,6,1,1.2837210999987292,['n'],1,right,['9'],5,0.517508099999759,0.2,0,FastAcc,33,22,Woman,Right,
14,6,1,2.267270799999096,['n'],1,right,['9'],5,0.6845460000004095,0.2,0,FastAcc,33,22,Woman,Right,
15,6,1,0.9001618000002054,['c'],1,left,['2'],2,0.9178003999986686,0.2,0,FastAcc,33,22,Woman,Right,
16,6,1,2.2828357000016695,['n'],0,left,['3'],3,1.3182005999988178,0.1,0,FastAcc,33,22,Woman,Right,
17,6,1,1.0329697000015585,['n'],1,right,['8'],4,0.9017394000002241,0.1,0,FastAcc,33,22,Woman,Right,
18,6,1,2.3668096999990667,['n'],0,left,['8'],4,1.6329256999997597,0.2,0,FastAcc,33,22,Woman,Right,
19,6,1,1.150891799999954,['c'],1,left,['9'],5,0.5183098000015889,0.2,0,FastAcc,33,22,Woman,Right,
20,6,1,1.3320724999994127,['n'],1,right,['9'],5,0.6021022999993875,0.1,0,FastAcc,33,22,Woman,Right,
21,6,1,1.6999096999988978,['n'],1,right,['9'],5,0.6014587999998184,0.1,0,FastAcc,33,22,Woman,Right,
22,6,1,0.7147144000009575,['n'],1,right,['8'],4,1.202332299999398,0.1,0,FastAcc,33,22,Woman,Right,
23,6,1,1.0186094000000594,['n'],1,right,['0'],6,0.7509577000000718,0.4,0,FastAcc,33,22,Woman,Right,
24,6,1,1.249058100000184,['n'],1,right,['0'],6,0.8352729999987787,0.4,0,FastAcc,33,22,Woman,Right,
25,6,1,0.8329004000006535,['n'],1,right,['9'],5,1.0673089000010805,0.4,0,FastAcc,33,22,Woman,Right,
26,6,1,0.8993037000000186,['c'],1,left,['9'],5,0.6847017000000051,0.4,0,FastAcc,33,22,Woman,Right,
27,6,1,1.5008137999993778,['n'],1,right,['3'],3,0.8494950999993307,0.2,0,FastAcc,33,22,Woman,Right,
28,6,1,0.8839028000002145,['n'],1,right,['8'],4,0.9351506999992125,0.4,0,FastAcc,33,22,Woman,Right,
29,6,1,1.6657694000004994,['c'],1,left,['2'],2,0.8692843999997422,0.1,0,FastAcc,33,22,Woman,Right,
30,6,1,2.4326759000014135,['n'],0,left,['2'],2,0.8851451999998972,0.2,0,FastAcc,33,22,Woman,Right,
31,6,1,2.732305499999711,['n'],1,right,['9'],5,1.0189241999996739,0.1,0,FastAcc,33,22,Woman,Right,
32,6,1,1.2152810000006866,['c'],1,left,['9'],5,0.9857057999997778,0.4,0,FastAcc,33,22,Woman,Right,
33,6,1,0.6657711999996536,['n'],1,right,['9'],5,0.617214600000807,0.4,0,FastAcc,33,22,Woman,Right,
34,6,1,1.2160377000000153,['c'],1,left,['2'],2,1.10221570000067,0.2,0,FastAcc,33,22,Woman,Right,
35,6,1,1.5506332999993901,['n'],1,right,['8'],4,1.050062700000126,0.4,0,FastAcc,33,22,Woman,Right,
36,6,1,1.5671351000000868,['n'],0,left,['9'],5,0.7835510000004433,0.2,0,FastAcc,33,22,Woman,Right,
37,6,1,0.8827816000011808,['c'],1,left,['9'],5,1.1521222999999736,0.2,0,FastAcc,33,22,Woman,Right,
38,6,1,1.3648938000005728,['n'],0,left,['3'],3,1.4690725999989809,0.2,0,FastAcc,33,22,Woman,Right,
39,6,1,0.9172928999996657,['n'],1,right,['9'],5,0.7844561000001704,0.4,0,FastAcc,33,22,Woman,Right,
40,6,1,2.267579100000148,['n'],1,right,['9'],5,0.7167954000015015,0.1,0,FastAcc,33,22,Woman,Right,
41,6,1,1.5001353999996354,['n'],1,right,['2'],2,0.5345058000002609,0.1,0,FastAcc,33,22,Woman,Right,
42,6,1,2.817285199998878,['n'],0,left,['9'],5,0.8496287000016309,0.1,0,FastAcc,33,22,Woman,Right,
43,6,1,1.5989597000007052,['c'],1,left,['8'],4,1.435606299999563,0.2,0,FastAcc,33,22,Woman,Right,
44,6,1,0.7001872999990155,['n'],1,right,['8'],4,0.8831016999993153,0.4,0,FastAcc,33,22,Woman,Right,
45,6,1,1.4509636999991926,['n'],1,right,['8'],4,0.9490470000000641,0.2,0,FastAcc,33,22,Woman,Right,
46,6,1,1.1846847999986494,['c'],1,left,['3'],3,1.0512810000000172,0.2,0,FastAcc,33,22,Woman,Right,
47,6,1,1.5329779000003327,['c'],1,left,['8'],4,1.1507201999993413,0.4,0,FastAcc,33,22,Woman,Right,
48,6,1,1.4834432000006927,['n'],1,right,['9'],5,1.068001000001459,0.2,0,FastAcc,33,22,Woman,Right,
49,6,1,1.8982329000009486,['c'],1,left,['1'],1,1.483566000000792,0.4,0,FastAcc,33,22,Woman,Right,
50,6,1,2.4005973000002996,['c'],1,left,['2'],2,0.7010682000000088,0.1,0,FastAcc,33,22,Woman,Right,
51,6,1,0.8995238000006793,['n'],1,right,['8'],4,0.8853773999999248,0.2,0,FastAcc,33,22,Woman,Right,
52,6,1,0.917641599999115,['c'],1,left,['8'],4,0.7840064000010898,0.1,0,FastAcc,33,22,Woman,Right,
53,6,1,1.4178176000004896,['n'],0,left,['8'],4,0.6493301000009524,0.2,0,FastAcc,33,22,Woman,Right,
54,6,1,1.634828500000367,['n'],1,right,['3'],3,1.0666225000004488,0.1,0,FastAcc,33,22,Woman,Right,
55,6,1,1.0672637999996368,['n'],1,right,['8'],4,1.0356210999998439,0.4,0,FastAcc,33,22,Woman,Right,
56,6,1,0.7664806000011595,['n'],1,right,['8'],4,0.5346568999993906,0.4,0,FastAcc,33,22,Woman,Right,
57,6,1,0.7678054999996675,['c'],1,left,['8'],4,0.8345152999991114,0.4,0,FastAcc,33,22,Woman,Right,
58,6,1,2.9985942999992403,['n'],1,right,['9'],5,0.9340047000005143,0.2,0,FastAcc,33,22,Woman,Right,
59,6,1,0.816442499999539,['n'],1,right,['9'],5,0.43366749999950116,0.4,0,FastAcc,33,22,Woman,Right,
0,7,1,1.0007982999995875,['n'],0,left,['8'],4,0.7847407000008388,0.1,0,FastFast,33,22,Woman,Right,
1,7,1,0.566868700001578,['c'],1,left,['8'],4,0.5175335000003543,0.4,0,FastFast,33,22,Woman,Right,
2,7,1,1.4842705999999453,['n'],1,right,['3'],3,0.25153469999895606,0.1,0,FastFast,33,22,Woman,Right,
3,7,1,0.5166988000000856,['c'],1,left,['0'],6,0.5851120999996056,0.4,0,FastFast,33,22,Woman,Right,
4,7,1,0.7985898999995698,['n'],0,left,['8'],4,0.6516468000008899,0.2,0,FastFast,33,22,Woman,Right,
5,7,1,1.2171152999999322,['n'],0,left,['3'],3,0.9845366999998078,0.1,0,FastFast,33,22,Woman,Right,
6,7,1,1.0661522999998851,['c'],1,left,['0'],6,0.8348669000006339,0.2,0,FastFast,33,22,Woman,Right,
7,7,1,1.2664000999993732,['c'],1,left,['8'],4,1.4515898000008747,0.2,0,FastFast,33,22,Woman,Right,
8,7,1,1.4005367000008846,['c'],1,left,['2'],2,0.9163905000004888,0.1,0,FastFast,33,22,Woman,Right,
9,7,1,0.8675485000003391,['n'],1,right,['8'],4,0.6670458999997209,0.1,0,FastFast,33,22,Woman,Right,
10,7,1,1.567748200001006,['n'],1,right,['8'],4,0.5844515999997384,0.1,0,FastFast,33,22,Woman,Right,
11,7,1,0.7336152999996557,['n'],1,right,['8'],4,0.4012531000007584,0.2,0,FastFast,33,22,Woman,Right,
12,7,1,1.2496766000003845,['c'],1,left,['3'],3,0.535207699998864,0.1,0,FastFast,33,22,Woman,Right,
13,7,1,1.2319568000002619,['c'],0,right,['2'],2,0.4179634000010992,0.1,0,FastFast,33,22,Woman,Right,
14,7,1,1.0162182000003668,['c'],1,left,['8'],4,0.6521597999999358,0.1,0,FastFast,33,22,Woman,Right,
15,7,1,1.6834467000007862,['n'],0,left,['9'],5,0.9345322999997734,0.2,0,FastFast,33,22,Woman,Right,
16,7,1,1.1324775000011869,['n'],1,right,['9'],5,0.4361153000008926,0.2,0,FastFast,33,22,Woman,Right,
17,7,1,0.8847538999998505,['n'],1,right,['9'],5,0.3846655000015744,0.4,0,FastFast,33,22,Woman,Right,
18,7,1,1.0322725000005448,['c'],1,left,['2'],2,0.368870499998593,0.1,0,FastFast,33,22,Woman,Right,
19,7,1,1.4823959999994258,['n'],0,left,['2'],2,0.9998730000006617,0.4,0,FastFast,33,22,Woman,Right,
20,7,1,0.8324705999984872,['n'],1,right,['9'],5,0.5023297000007005,0.4,0,FastFast,33,22,Woman,Right,
21,7,1,1.0496413999990182,['n'],1,right,['8'],4,0.3672988999987865,0.1,0,FastFast,33,22,Woman,Right,
22,7,1,2.2176163000003726,['n'],1,right,['3'],3,0.6341345999990153,0.2,0,FastFast,33,22,Woman,Right,
23,7,1,0.6173386999998911,['c'],1,left,['9'],5,0.46796749999884923,0.4,0,FastFast,33,22,Woman,Right,
24,7,1,0.8342378000015742,['c'],1,left,['9'],5,0.3678065999993123,0.4,0,FastFast,33,22,Woman,Right,
25,7,1,2.167179500000202,['c'],1,left,['3'],3,1.099341099999947,0.2,0,FastFast,33,22,Woman,Right,
26,7,1,1.8174894000003405,['n'],1,right,['2'],2,0.717274799999359,0.1,0,FastFast,33,22,Woman,Right,
27,7,1,0.816733399999066,['n'],1,right,['9'],5,0.31645099999877857,0.1,0,FastFast,33,22,Woman,Right,
28,7,1,0.7165370999991865,['c'],1,left,['2'],2,0.8852941999994073,0.2,0,FastFast,33,22,Woman,Right,
29,7,1,0.9827632000015001,['n'],1,right,['8'],4,1.4185562000002392,0.1,0,FastFast,33,22,Woman,Right,
30,7,1,0.9503005999995366,['n'],1,right,['8'],4,0.9179339000002074,0.2,0,FastFast,33,22,Woman,Right,
31,7,1,1.0009461999998166,['c'],1,left,['9'],5,1.0512275000000955,0.4,0,FastFast,33,22,Woman,Right,
32,7,1,1.1994598999990558,['n'],1,right,['2'],2,1.118672599999627,0.2,0,FastFast,33,22,Woman,Right,
33,7,1,1.9510637000003044,['c'],0,right,['8'],4,1.1680355000007694,0.2,0,FastFast,33,22,Woman,Right,
34,7,1,1.133996800001114,['n'],1,right,['9'],5,0.9680912000003445,0.2,0,FastFast,33,22,Woman,Right,
35,7,1,0.8493221000007907,['c'],1,left,['9'],5,0.6014283999993495,0.4,0,FastFast,33,22,Woman,Right,
36,7,1,1.0016854999994393,['n'],1,right,['8'],4,0.8512456999997084,0.2,0,FastFast,33,22,Woman,Right,
37,7,1,1.5338289000010263,['n'],1,right,['3'],3,0.6847352000004321,0.4,0,FastFast,33,22,Woman,Right,
38,7,1,1.8829249999998865,['n'],1,right,['8'],4,0.5679018000009819,0.4,0,FastFast,33,22,Woman,Right,
39,7,1,0.9840337000005093,['n'],1,right,['8'],4,0.5515254000001732,0.1,0,FastFast,33,22,Woman,Right,
40,7,1,0.8675190000012662,['c'],1,left,['8'],4,0.8013104000001476,0.2,0,FastFast,33,22,Woman,Right,
41,7,1,1.3002622000003612,['n'],1,right,['2'],2,0.5340052999999898,0.1,0,FastFast,33,22,Woman,Right,
42,7,1,1.200259699999151,['n'],1,right,['3'],3,0.600049399999989,0.1,0,FastFast,33,22,Woman,Right,
43,7,1,0.8005063000000519,['n'],1,right,['9'],5,0.7679143999994267,0.4,0,FastFast,33,22,Woman,Right,
44,7,1,0.8998418999999558,['c'],1,left,['8'],4,0.8853178999997908,0.4,0,FastFast,33,22,Woman,Right,
45,7,1,1.0507193999983429,['n'],1,right,['9'],5,0.7353696000009222,0.2,0,FastFast,33,22,Woman,Right,
46,7,1,1.1506883000001835,['n'],1,right,['9'],5,0.4170641999990039,0.2,0,FastFast,33,22,Woman,Right,
47,7,1,1.2489839000008942,['c'],1,left,['3'],3,0.7014590999988286,0.2,0,FastFast,33,22,Woman,Right,
48,7,1,1.5823318000002473,['n'],1,right,['8'],4,1.118503800000326,0.2,0,FastFast,33,22,Woman,Right,
49,7,1,1.0174014999993233,['c'],1,left,['3'],3,0.6188029000004462,0.2,0,FastFast,33,22,Woman,Right,
50,7,1,1.0173669000014343,['c'],1,left,['9'],5,0.6679051999999501,0.4,0,FastFast,33,22,Woman,Right,
51,7,1,1.7167281000001822,['n'],1,right,['9'],5,0.6512899999997899,0.1,0,FastFast,33,22,Woman,Right,
52,7,1,1.3832285000007687,['n'],0,left,['3'],3,0.3998852999993687,0.1,0,FastFast,33,22,Woman,Right,
53,7,1,0.8337584999990213,['c'],1,left,['3'],3,0.35175359999993816,0.4,0,FastFast,33,22,Woman,Right,
54,7,1,0.6838741000010486,['c'],1,left,['8'],4,0.5347236999987217,0.4,0,FastFast,33,22,Woman,Right,
55,7,1,0.8508494000016071,['c'],1,left,['8'],4,0.318644699998913,0.4,0,FastFast,33,22,Woman,Right,
56,7,1,1.19893570000022,['c'],1,left,['9'],5,0.9188024999984918,0.4,0,FastFast,33,22,Woman,Right,
57,7,1,0.8150609000003897,['n'],1,right,['8'],4,0.40052079999986745,0.1,0,FastFast,33,22,Woman,Right,
58,7,1,0.7178593000007822,['c'],1,left,['8'],4,0.602475300000151,0.4,0,FastFast,33,22,Woman,Right,
59,7,1,0.6840147000002617,['n'],1,right,['0'],6,0.78441919999932,0.4,0,FastFast,33,22,Woman,Right,
0,8,1,0.7682000999993761,['n'],1,right,['8'],4,0.48464269999931275,0.4,0,AccFast,33,22,Woman,Right,
1,8,1,0.7999913999992714,['n'],1,right,['9'],5,0.5021157999999559,0.1,0,AccFast,33,22,Woman,Right,
2,8,1,0.733740100000432,['c'],1,left,['9'],5,0.9171187000010832,0.4,0,AccFast,33,22,Woman,Right,
3,8,1,0.7824512000006507,['n'],1,right,['8'],4,0.8523735999988276,0.2,0,AccFast,33,22,Woman,Right,
4,8,1,1.5001443000001018,['n'],0,left,['3'],3,0.5013587000012194,0.2,0,AccFast,33,22,Woman,Right,
5,8,1,1.0504947999997967,['n'],0,left,['9'],5,0.7516672999990988,0.1,0,AccFast,33,22,Woman,Right,
6,8,1,0.7338763999996445,['c'],1,left,['2'],2,0.3013327000007848,0.2,0,AccFast,33,22,Woman,Right,
7,8,1,0.7835407000002306,['n'],1,right,['9'],5,0.5167275000003428,0.1,0,AccFast,33,22,Woman,Right,
8,8,1,0.8502884999998059,['n'],0,left,['8'],4,1.3996929999993881,0.2,0,AccFast,33,22,Woman,Right,
9,8,1,1.450315000000046,['c'],1,left,['8'],4,0.567355300001509,0.1,0,AccFast,33,22,Woman,Right,
10,8,1,0.6669824999989942,['n'],1,right,['0'],6,0.5512892999995529,0.1,0,AccFast,33,22,Woman,Right,
11,8,1,0.7337642999991658,['n'],0,left,['2'],2,1.301194099998611,0.2,0,AccFast,33,22,Woman,Right,
12,8,1,1.0655917000003683,['n'],0,left,['9'],5,0.6179040999995777,0.4,0,AccFast,33,22,Woman,Right,
13,8,1,1.1171836000012263,['n'],1,right,['9'],5,0.43328810000093654,0.2,0,AccFast,33,22,Woman,Right,
14,8,1,0.8509170999986964,['c'],1,left,['9'],5,0.33491850000064005,0.4,0,AccFast,33,22,Woman,Right,
15,8,1,1.1001993999998376,['n'],0,left,['3'],3,0.5494663000008586,0.1,0,AccFast,33,22,Woman,Right,
16,8,1,1.0014948999996705,['n'],1,right,['3'],3,0.36690420000013546,0.4,0,AccFast,33,22,Woman,Right,
17,8,1,2.41703729999972,['c'],0,right,['2'],2,0.48471260000042093,0.1,0,AccFast,33,22,Woman,Right,
18,8,1,1.116822100000718,['n'],1,right,['8'],4,1.4011475999996037,0.2,0,AccFast,33,22,Woman,Right,
19,8,1,1.0322271000004548,['n'],0,left,['8'],4,0.41874710000047344,0.1,0,AccFast,33,22,Woman,Right,
20,8,1,1.1829552999988664,['c'],1,left,['8'],4,1.0838145999987319,0.2,0,AccFast,33,22,Woman,Right,
21,8,1,1.2173743000003014,['n'],1,right,['3'],3,0.633756799999901,0.1,0,AccFast,33,22,Woman,Right,
22,8,1,1.0503661000002467,['n'],1,right,['8'],4,0.9828312000008737,0.2,0,AccFast,33,22,Woman,Right,
23,8,1,0.801250099999379,['n'],1,right,['8'],4,0.4177409000003536,0.2,0,AccFast,33,22,Woman,Right,
24,8,1,0.933177799999612,['n'],1,right,['9'],5,0.6859600000007049,0.2,0,AccFast,33,22,Woman,Right,
25,8,1,1.3001263000005565,['n'],0,left,['9'],5,0.46719040000061796,0.4,0,AccFast,33,22,Woman,Right,
26,8,1,1.6484102999984316,['n'],0,left,['3'],3,0.8518807000000379,0.2,0,AccFast,33,22,Woman,Right,
27,8,1,1.9335828000002948,['n'],1,right,['2'],2,2.183136400000876,0.1,0,AccFast,33,22,Woman,Right,
28,8,1,2.399956100000054,['c'],1,left,['8'],4,0.900614800000767,0.1,0,AccFast,33,22,Woman,Right,
29,8,1,0.7987155999999231,['n'],1,right,['8'],4,0.33424600000034843,0.4,0,AccFast,33,22,Woman,Right,
30,8,1,0.9009200999989844,['n'],1,right,['8'],4,0.30141360000015993,0.4,0,AccFast,33,22,Woman,Right,
31,8,1,1.1002273000012792,['n'],1,right,['3'],3,0.616729999999734,0.4,0,AccFast,33,22,Woman,Right,
32,8,1,1.9837422000000515,['n'],1,right,['8'],4,0.3015243999998347,0.1,0,AccFast,33,22,Woman,Right,
33,8,1,1.1506969000001845,['c'],1,left,['3'],3,0.3015078000007634,0.4,0,AccFast,33,22,Woman,Right,
34,8,1,0.8342919000006077,['c'],0,right,['8'],4,0.4182719000000361,0.1,0,AccFast,33,22,Woman,Right,
35,8,1,2.432452299999568,['n'],0,left,['8'],4,0.3857150999992882,0.1,0,AccFast,33,22,Woman,Right,
36,8,1,1.0991168999989895,['c'],1,left,['8'],4,0.4855232999998407,0.2,0,AccFast,33,22,Woman,Right,
37,8,1,1.5496836999991501,['n'],0,left,['3'],3,1.1510714999985794,0.1,0,AccFast,33,22,Woman,Right,
38,8,1,1.5996696000001975,['c'],1,left,['9'],5,0.7012565999993967,0.2,0,AccFast,33,22,Woman,Right,
39,8,1,1.5325322999997297,['c'],1,left,['3'],3,0.8014463999988948,0.1,0,AccFast,33,22,Woman,Right,
40,8,1,1.865303499998845,['c'],1,left,['8'],4,0.8850421999995888,0.2,0,AccFast,33,22,Woman,Right,
41,8,1,0.9668881000015972,['n'],1,right,['0'],6,0.3340134999998554,0.4,0,AccFast,33,22,Woman,Right,
42,8,1,1.2847617999996146,['n'],1,right,['1'],1,0.9679216999993514,0.2,0,AccFast,33,22,Woman,Right,
43,8,1,1.2988394999993034,['n'],0,left,['2'],2,0.9852737000001071,0.1,0,AccFast,33,22,Woman,Right,
44,8,1,1.1667462999994314,['n'],1,right,['8'],4,0.7339327999998204,0.2,0,AccFast,33,22,Woman,Right,
45,8,1,1.848565199999939,['n'],0,left,['2'],2,1.0677059999998164,0.2,0,AccFast,33,22,Woman,Right,
46,8,1,2.101218700001482,['c'],1,left,['3'],3,0.8330293999988498,0.1,0,AccFast,33,22,Woman,Right,
47,8,1,0.9676701000007597,['n'],1,right,['9'],5,0.4334902000009606,0.2,0,AccFast,33,22,Woman,Right,
48,8,1,0.8335595999997167,['n'],1,right,['9'],5,0.4357540000000881,0.4,0,AccFast,33,22,Woman,Right,
49,8,1,1.151633600000423,['c'],1,left,['0'],6,0.718683900000542,0.4,0,AccFast,33,22,Woman,Right,
50,8,1,0.8821388000014849,['c'],1,left,['9'],5,0.4687685999997484,0.4,0,AccFast,33,22,Woman,Right,
51,8,1,0.8998599999995349,['n'],1,right,['9'],5,0.48435219999919354,0.1,0,AccFast,33,22,Woman,Right,
52,8,1,2.6498253000008845,['n'],0,left,['3'],3,1.0168028000007325,0.1,0,AccFast,33,22,Woman,Right,
53,8,1,1.2681723999994574,['n'],1,right,['9'],5,0.5664960000012798,0.4,0,AccFast,33,22,Woman,Right,
54,8,1,0.7849203999994643,['n'],1,right,['9'],5,0.6162758999998914,0.4,0,AccFast,33,22,Woman,Right,
55,8,1,0.8516085999999632,['c'],1,left,['3'],3,0.9328427999989799,0.4,0,AccFast,33,22,Woman,Right,
56,8,1,1.0996787000003678,['n'],1,right,['8'],4,1.117175400000633,0.2,0,AccFast,33,22,Woman,Right,
57,8,1,0.8489097999990918,['n'],1,right,['9'],5,0.3508267999986856,0.4,0,AccFast,33,22,Woman,Right,
58,8,1,1.149800099999993,['c'],1,left,['9'],5,0.3836406000009447,0.4,0,AccFast,33,22,Woman,Right,
59,8,1,1.283237100000406,['n'],1,right,['9'],5,0.33545049999884213,0.4,0,AccFast,33,22,Woman,Right,
0,9,1,3.2330748999993375,['c'],1,left,['3'],3,2.4665502999996534,0.1,0,AccAcc,33,22,Woman,Right,
1,9,1,0.8000376999989385,['n'],1,right,['8'],4,1.2012393999993947,0.1,0,AccAcc,33,22,Woman,Right,
2,9,1,0.7650596000003134,['n'],1,right,['8'],4,0.5342853000001924,0.1,0,AccAcc,33,22,Woman,Right,
3,9,1,0.9152688999984093,['c'],1,left,['8'],4,0.6855257999995956,0.1,0,AccAcc,33,22,Woman,Right,
4,9,1,0.9845244000007369,['n'],0,left,['8'],4,0.7349004000006971,0.1,0,AccAcc,33,22,Woman,Right,
5,9,1,0.9158218000011402,['c'],1,left,['9'],5,0.4340456999998423,0.2,0,AccAcc,33,22,Woman,Right,
6,9,1,1.2835983999993914,['n'],0,left,['9'],5,0.4004538000008324,0.2,0,AccAcc,33,22,Woman,Right,
7,9,1,0.9325962000002619,['c'],1,left,['9'],5,0.43428080000012415,0.4,0,AccAcc,33,22,Woman,Right,
8,9,1,2.000402800000302,['n'],1,right,['8'],4,0.9835204999999405,0.2,0,AccAcc,33,22,Woman,Right,
9,9,1,1.3519068999994488,['n'],0,left,['8'],4,0.6166259000001446,0.2,0,AccAcc,33,22,Woman,Right,
10,9,1,1.0500491999991937,['c'],1,left,['8'],4,0.8500860999993165,0.4,0,AccAcc,33,22,Woman,Right,
11,9,1,1.0185700000001816,['n'],1,right,['8'],4,0.3512577000001329,0.2,0,AccAcc,33,22,Woman,Right,
12,9,1,1.4662824999995792,['n'],0,left,['2'],2,1.4829614000009315,0.1,0,AccAcc,33,22,Woman,Right,
13,9,1,0.9983633000010741,['n'],1,right,['2'],2,0.40219149999938963,0.1,0,AccAcc,33,22,Woman,Right,
14,9,1,1.2988960000002407,['n'],0,left,['3'],3,1.6670391999996355,0.2,0,AccAcc,33,22,Woman,Right,
15,9,1,0.8189218000006804,['n'],1,right,['9'],5,0.917810199998712,0.4,0,AccAcc,33,22,Woman,Right,
16,9,1,0.8997288999999,['c'],1,left,['9'],5,0.9681357999997999,0.4,0,AccAcc,33,22,Woman,Right,
17,9,1,1.465986699999121,['n'],0,left,['9'],5,0.71938930000033,0.1,0,AccAcc,33,22,Woman,Right,
18,9,1,0.79872129999967,['c'],1,left,['9'],5,1.1690276999997877,0.4,0,AccAcc,33,22,Woman,Right,
19,9,1,1.0988209000006464,['n'],1,right,['9'],5,0.3186592000001838,0.2,0,AccAcc,33,22,Woman,Right,
20,9,1,0.9328665000011824,['n'],1,right,['9'],5,0.3509147999993729,0.2,0,AccAcc,33,22,Woman,Right,
21,9,1,0.7347451999994519,['n'],1,right,['9'],5,0.33392649999950663,0.2,0,AccAcc,33,22,Woman,Right,
22,9,1,1.2005230999984633,['n'],1,right,['3'],3,0.9673712000003434,0.2,0,AccAcc,33,22,Woman,Right,
23,9,1,0.9684945999997581,['n'],1,right,['8'],4,1.7342827000011312,0.4,0,AccAcc,33,22,Woman,Right,
24,9,1,0.9152634999991278,['n'],0,left,['8'],4,0.6027727000000596,0.2,0,AccAcc,33,22,Woman,Right,
25,9,1,0.9655137000008835,['n'],1,right,['9'],5,0.6192907000004197,0.4,0,AccAcc,33,22,Woman,Right,
26,9,1,1.7501069999998435,['c'],0,right,['3'],3,0.8327982000009797,0.1,0,AccAcc,33,22,Woman,Right,
27,9,1,1.9158787000014854,['c'],1,left,['2'],2,0.6187982000010379,0.2,0,AccAcc,33,22,Woman,Right,
28,9,1,2.5666093999989243,['c'],1,left,['2'],2,0.2996084999995219,0.4,0,AccAcc,33,22,Woman,Right,
29,9,1,1.6836707999991631,['n'],0,left,['8'],4,1.1501065000011295,0.4,0,AccAcc,33,22,Woman,Right,
30,9,1,1.1652044000002206,['n'],1,right,['3'],3,0.7675699999999779,0.1,0,AccAcc,33,22,Woman,Right,
31,9,1,1.6827534000003652,['n'],0,left,['3'],3,1.184262500000841,0.2,0,AccAcc,33,22,Woman,Right,
32,9,1,2.884270100001231,['c'],1,left,['3'],3,2.117703599999004,0.4,0,AccAcc,33,22,Woman,Right,
33,9,1,2.9486256999989564,['n'],0,left,['8'],4,0.7853491000005306,0.1,0,AccAcc,33,22,Woman,Right,
34,9,1,0.784743599999274,['n'],1,right,['9'],5,0.834649200000058,0.1,0,AccAcc,33,22,Woman,Right,
35,9,1,1.3154062000012345,['n'],1,right,['0'],6,1.0848263999996561,0.4,0,AccAcc,33,22,Woman,Right,
36,9,1,2.3984925000004296,['n'],1,right,['8'],4,0.8188080999989324,0.1,0,AccAcc,33,22,Woman,Right,
37,9,1,1.200096399999893,['n'],1,right,['8'],4,0.5180099999997765,0.2,0,AccAcc,33,22,Woman,Right,
38,9,1,1.2667176999984804,['c'],1,left,['0'],6,0.7517587000002095,0.4,0,AccAcc,33,22,Woman,Right,
39,9,1,1.4186261000013474,['c'],1,left,['9'],5,1.117930600001273,0.4,0,AccAcc,33,22,Woman,Right,
40,9,1,1.3499577999991743,['n'],1,right,['8'],4,0.8351552000003721,0.4,0,AccAcc,33,22,Woman,Right,
41,9,1,1.682776499999818,['n'],1,right,['8'],4,0.7021165000005567,0.4,0,AccAcc,33,22,Woman,Right,
42,9,1,1.2836833000001207,['n'],1,right,['8'],4,0.4680031999996572,0.2,0,AccAcc,33,22,Woman,Right,
43,9,1,0.9836491999994905,['n'],1,right,['8'],4,0.4513182999999117,0.4,0,AccAcc,33,22,Woman,Right,
44,9,1,1.7500094000006357,['n'],1,right,['8'],4,0.45014310000078694,0.1,0,AccAcc,33,22,Woman,Right,
45,9,1,0.9173855999997613,['n'],1,right,['9'],5,0.6192085999991832,0.4,0,AccAcc,33,22,Woman,Right,
46,9,1,2.649765699999989,['c'],1,left,['2'],2,0.6514057000003959,0.1,0,AccAcc,33,22,Woman,Right,
47,9,1,1.9489787000002252,['c'],1,left,['2'],2,0.3522737999992387,0.2,0,AccAcc,33,22,Woman,Right,
48,9,1,1.050144700000601,['n'],1,right,['9'],5,0.5347426999996969,0.1,0,AccAcc,33,22,Woman,Right,
49,9,1,1.532099300000482,['n'],0,left,['2'],2,0.8854197000000568,0.2,0,AccAcc,33,22,Woman,Right,
50,9,1,1.5833954000008816,['c'],1,left,['3'],3,1.0511961999982304,0.4,0,AccAcc,33,22,Woman,Right,
51,9,1,1.2001572999997734,['n'],1,right,['9'],5,0.5332982999989326,0.1,0,AccAcc,33,22,Woman,Right,
52,9,1,1.9999729999999545,['n'],0,left,['9'],5,0.7346149000004516,0.1,0,AccAcc,33,22,Woman,Right,
53,9,1,1.484171799998876,['n'],1,right,['3'],3,0.7851116000001639,0.2,0,AccAcc,33,22,Woman,Right,
54,9,1,1.132285800000318,['n'],0,left,['3'],3,0.8193927000011172,0.4,0,AccAcc,33,22,Woman,Right,
55,9,1,1.3151377000012872,['c'],1,left,['2'],2,0.9842265999996016,0.2,0,AccAcc,33,22,Woman,Right,
56,9,1,1.5832637999992585,['c'],0,right,['9'],5,1.0845523999996658,0.2,0,AccAcc,33,22,Woman,Right,
57,9,1,1.599071399999957,['c'],1,left,['3'],3,1.4333299999998417,0.1,0,AccAcc,33,22,Woman,Right,
58,9,1,1.200699099999838,['n'],1,right,['9'],5,0.6850126999997883,0.4,0,AccAcc,33,22,Woman,Right,
59,9,1,2.4002976000010676,['n'],1,right,['3'],3,0.8331704000011086,0.1,0,AccAcc,33,22,Woman,Right,
0,10,1,0.7172728999994433,['n'],1,right,['9'],5,0.4345577999993111,0.2,0,FastAcc,33,22,Woman,Right,
1,10,1,0.6676238000000012,['c'],1,left,['9'],5,0.38471389999904204,0.4,0,FastAcc,33,22,Woman,Right,
2,10,1,0.7512033999992127,['n'],1,right,['9'],5,0.633438799999567,0.4,0,FastAcc,33,22,Woman,Right,
3,10,1,0.6178601999999955,['c'],1,left,['9'],5,0.4350100999999995,0.1,0,FastAcc,33,22,Woman,Right,
4,10,1,0.5503840000001219,['n'],1,right,['9'],5,0.6168428000000858,0.2,0,FastAcc,33,22,Woman,Right,
5,10,1,1.9833292000002984,['n'],1,right,['3'],3,0.6694126000002143,0.2,0,FastAcc,33,22,Woman,Right,
6,10,1,0.6996486999996705,['c'],0,right,['3'],3,0.40042580000044836,0.1,0,FastAcc,33,22,Woman,Right,
7,10,1,0.8006925000008778,['c'],1,left,['9'],5,0.5175206000003527,0.4,0,FastAcc,33,22,Woman,Right,
8,10,1,1.3498352999995404,['n'],1,right,['3'],3,0.8512126000005082,0.2,0,FastAcc,33,22,Woman,Right,
9,10,1,1.3845447000003333,['n'],1,right,['8'],4,0.9334088999985397,0.2,0,FastAcc,33,22,Woman,Right,
10,10,1,1.4007277000000613,['c'],1,left,['2'],2,0.41824739999901794,0.1,0,FastAcc,33,22,Woman,Right,
11,10,1,1.2156506999999692,['c'],1,left,['0'],6,0.41858569999931206,0.1,0,FastAcc,33,22,Woman,Right,
12,10,1,1.3659149000013713,['n'],1,right,['9'],5,1.2007429000004777,0.2,0,FastAcc,33,22,Woman,Right,
13,10,1,0.9505731999997806,['c'],1,left,['3'],3,0.5502267000010761,0.1,0,FastAcc,33,22,Woman,Right,
14,10,1,0.86752929999966,['n'],1,right,['9'],5,0.616814400000294,0.4,0,FastAcc,33,22,Woman,Right,
15,10,1,0.916122999999061,['n'],1,right,['9'],5,0.35140010000031907,0.2,0,FastAcc,33,22,Woman,Right,
16,10,1,0.8510306999996828,['n'],1,right,['9'],5,0.48465849999956845,0.4,0,FastAcc,33,22,Woman,Right,
17,10,1,1.367318599999635,['c'],1,left,['9'],5,0.3000513000006322,0.1,0,FastAcc,33,22,Woman,Right,
18,10,1,1.5164406999992934,['n'],0,left,['3'],3,1.0848647999991954,0.2,0,FastAcc,33,22,Woman,Right,
19,10,1,1.9173244000012346,['c'],1,left,['2'],2,0.8346292000005633,0.2,0,FastAcc,33,22,Woman,Right,
20,10,1,1.6825511999995797,['c'],1,left,['2'],2,0.41735069999958796,0.4,0,FastAcc,33,22,Woman,Right,
21,10,1,1.8826024000009056,['c'],0,right,['3'],3,1.0336423000007926,0.2,0,FastAcc,33,22,Woman,Right,
22,10,1,1.4828125999993063,['n'],1,right,['9'],5,0.40196819999982836,0.1,0,FastAcc,33,22,Woman,Right,
23,10,1,0.5343296999999438,['n'],1,right,['8'],4,0.7174255000008998,0.4,0,FastAcc,33,22,Woman,Right,
24,10,1,0.6668524999986403,['c'],1,left,['3'],3,0.4003090999995038,0.4,0,FastAcc,33,22,Woman,Right,
25,10,1,1.2666449999996985,['n'],1,right,['8'],4,0.6689440999998624,0.1,0,FastAcc,33,22,Woman,Right,
26,10,1,0.6995236000002478,['c'],1,left,['8'],4,0.36768189999929746,0.4,0,FastAcc,33,22,Woman,Right,
27,10,1,0.9158418999995774,['c'],1,left,['8'],4,0.4175709999999526,0.4,0,FastAcc,33,22,Woman,Right,
28,10,1,1.799369400001524,['c'],1,left,['3'],3,1.433593000001565,0.2,0,FastAcc,33,22,Woman,Right,
29,10,1,1.5677666999999929,['c'],1,left,['3'],3,0.8679668000004312,0.2,0,FastAcc,33,22,Woman,Right,
30,10,1,1.0328628999996,['n'],1,right,['8'],4,0.6013827000006131,0.4,0,FastAcc,33,22,Woman,Right,
31,10,1,1.6665130000001227,['n'],1,right,['2'],2,1.2849325999995926,0.2,0,FastAcc,33,22,Woman,Right,
32,10,1,1.764761799999178,['n'],1,right,['8'],4,0.6673811999989994,0.4,0,FastAcc,33,22,Woman,Right,
33,10,1,0.8682737999988603,['c'],1,left,['8'],4,0.4000574999990931,0.2,0,FastAcc,33,22,Woman,Right,
34,10,1,1.5161588000009942,['n'],1,right,['3'],3,0.5188662999989901,0.1,0,FastAcc,33,22,Woman,Right,
35,10,1,1.066717099998641,['c'],1,left,['8'],4,0.6181284000012965,0.1,0,FastAcc,33,22,Woman,Right,
36,10,1,1.7664975999996386,['n'],1,right,['3'],3,0.8677426000012929,0.1,0,FastAcc,33,22,Woman,Right,
37,10,1,1.0005383999996411,['n'],1,right,['9'],5,0.6503687000003993,0.1,0,FastAcc,33,22,Woman,Right,
38,10,1,1.866735499999777,['n'],0,left,['3'],3,1.0511702000003424,0.1,0,FastAcc,33,22,Woman,Right,
39,10,1,0.8668782000004285,['c'],1,left,['3'],3,0.8509338999992906,0.1,0,FastAcc,33,22,Woman,Right,
40,10,1,0.9170379000006506,['n'],0,left,['8'],4,0.43483329999980924,0.2,0,FastAcc,33,22,Woman,Right,
41,10,1,1.0994635999995808,['c'],1,left,['8'],4,0.417724900000394,0.4,0,FastAcc,33,22,Woman,Right,
42,10,1,2.116899700000431,['n'],1,right,['8'],4,0.5514255999987654,0.1,0,FastAcc,33,22,Woman,Right,
43,10,1,0.6501784000010957,['c'],0,right,['3'],3,1.0011969000006502,0.2,0,FastAcc,33,22,Woman,Right,
44,10,1,0.9507905000009487,['n'],1,right,['8'],4,0.6844903000001068,0.2,0,FastAcc,33,22,Woman,Right,
45,10,1,0.9336096999995789,['c'],1,left,['8'],4,0.6679315000001225,0.4,0,FastAcc,33,22,Woman,Right,
46,10,1,0.8166046000005736,['n'],1,right,['8'],4,0.4001029999999446,0.4,0,FastAcc,33,22,Woman,Right,
47,10,1,1.4170388000002276,['c'],1,left,['3'],3,0.9179710000007617,0.1,0,FastAcc,33,22,Woman,Right,
48,10,1,0.9501524999996036,['n'],1,right,['2'],2,0.5500969999993686,0.4,0,FastAcc,33,22,Woman,Right,
49,10,1,1.7173775999999634,['n'],1,right,['8'],4,0.9012068000010913,0.1,0,FastAcc,33,22,Woman,Right,
50,10,1,0.9330623000005289,['c'],1,left,['9'],5,0.317960000000312,0.4,0,FastAcc,33,22,Woman,Right,
51,10,1,1.1667584999995597,['c'],1,left,['3'],3,0.783127599999716,0.1,0,FastAcc,33,22,Woman,Right,
52,10,1,0.5831646000006003,['c'],1,left,['9'],5,0.5185947000009037,0.4,0,FastAcc,33,22,Woman,Right,
53,10,1,0.6171758000000409,['c'],1,left,['9'],5,0.33468639999955485,0.4,0,FastAcc,33,22,Woman,Right,
54,10,1,1.3666850999998132,['n'],0,left,['2'],2,0.8353920999998081,0.2,0,FastAcc,33,22,Woman,Right,
55,10,1,1.2010238000002573,['n'],1,right,['8'],4,0.41780629999993835,0.2,0,FastAcc,33,22,Woman,Right,
56,10,1,1.7497927000003983,['c'],1,left,['3'],3,0.8519771000010223,0.4,0,FastAcc,33,22,Woman,Right,
57,10,1,0.6499277999992046,['c'],0,right,['3'],3,0.6181417999996484,0.1,0,FastAcc,33,22,Woman,Right,
58,10,1,1.3980250000004162,['c'],0,right,['9'],5,1.4693021000002773,0.1,0,FastAcc,33,22,Woman,Right,
59,10,1,1.049929600001633,['c'],1,left,['9'],5,0.9351383000011992,0.2,0,FastAcc,33,22,Woman,Right,
0,11,1,1.300609699999768,['n'],1,right,['9'],5,0.7182952000002842,0.2,0,FastFast,33,22,Woman,Right,
1,11,1,0.45095840000067255,['c'],1,left,['9'],5,0.6187135000000126,0.4,0,FastFast,33,22,Woman,Right,
2,11,1,0.7170463000002201,['c'],0,right,['2'],2,0.683840899999268,0.1,0,FastFast,33,22,Woman,Right,
3,11,1,0.8341307999999117,['c'],1,left,['2'],2,0.33367510000061884,0.1,0,FastFast,33,22,Woman,Right,
4,11,1,0.8009738999990077,['n'],1,right,['2'],2,0.8501119000011386,0.2,0,FastFast,33,22,Woman,Right,
5,11,1,0.8507515000001149,['n'],1,right,['8'],4,0.899929000001066,0.1,0,FastFast,33,22,Woman,Right,
6,11,1,0.7176393999998254,['n'],1,right,['8'],4,0.5347050000000309,0.2,0,FastFast,33,22,Woman,Right,
7,11,1,1.018061900000248,['n'],1,right,['9'],5,0.5513934999999037,0.2,0,FastFast,33,22,Woman,Right,
8,11,1,0.9485810000005586,['n'],0,left,['3'],3,0.7007558999994217,0.4,0,FastFast,33,22,Woman,Right,
9,11,1,0.7514771999994991,['c'],1,left,['9'],5,0.8026867000007769,0.1,0,FastFast,33,22,Woman,Right,
10,11,1,1.0335814999998547,['c'],0,right,['3'],3,1.151511499998378,0.4,0,FastFast,33,22,Woman,Right,
11,11,1,0.717436800001451,['n'],1,right,['8'],4,0.35218990000066697,0.2,0,FastFast,33,22,Woman,Right,
12,11,1,0.7000588000009884,['n'],1,right,['8'],4,0.3671936000009737,0.4,0,FastFast,33,22,Woman,Right,
13,11,1,0.8672659000003478,['c'],1,left,['9'],5,0.6345328999996127,0.4,0,FastFast,33,22,Woman,Right,
14,11,1,1.0511420000002545,['c'],1,left,['9'],5,0.4181308999995963,0.1,0,FastFast,33,22,Woman,Right,
15,11,1,1.0174078000000009,['c'],1,left,['8'],4,0.7845001000005141,0.4,0,FastFast,33,22,Woman,Right,
16,11,1,0.9658213999991858,['n'],1,right,['8'],4,0.30178520000117715,0.4,0,FastFast,33,22,Woman,Right,
17,11,1,1.367081700000199,['n'],0,left,['3'],3,1.034814100001313,0.1,0,FastFast,33,22,Woman,Right,
18,11,1,0.7834858999995049,['n'],0,left,['9'],5,0.6014513000009174,0.1,0,FastFast,33,22,Woman,Right,
19,11,1,0.9817548000009992,['n'],0,left,['2'],2,0.7684606000002532,0.4,0,FastFast,33,22,Woman,Right,
20,11,1,1.4328076000001602,['c'],1,left,['8'],4,0.6019877999988239,0.1,0,FastFast,33,22,Woman,Right,
21,11,1,0.8823457999988022,['n'],1,right,['9'],5,0.3687112999996316,0.2,0,FastFast,33,22,Woman,Right,
22,11,1,0.8166330999993079,['c'],1,left,['9'],5,0.38472530000035476,0.1,0,FastFast,33,22,Woman,Right,
23,11,1,1.0835452000010264,['c'],0,right,['8'],4,0.43450660000053176,0.1,0,FastFast,33,22,Woman,Right,
24,11,1,1.8166130999998131,['c'],0,right,['2'],2,1.2844556000000011,0.2,0,FastFast,33,22,Woman,Right,
25,11,1,1.7989857000011398,['n'],1,right,['3'],3,1.018635999998878,0.2,0,FastFast,33,22,Woman,Right,
26,11,1,1.350458400000207,['c'],0,right,['8'],4,0.8163799999983894,0.1,0,FastFast,33,22,Woman,Right,
27,11,1,0.7504343000000517,['n'],1,right,['8'],4,0.6493919999993523,0.4,0,FastFast,33,22,Woman,Right,
28,11,1,2.167450799999642,['n'],1,right,['3'],3,0.46800249999978405,0.2,0,FastFast,33,22,Woman,Right,
29,11,1,0.5835628000004363,['n'],1,right,['8'],4,0.9664895999994769,0.4,0,FastFast,33,22,Woman,Right,
30,11,1,0.9340726000009454,['c'],1,left,['8'],4,0.3016012000007322,0.4,0,FastFast,33,22,Woman,Right,
31,11,1,0.9514966999995522,['n'],1,right,['9'],5,0.2675533000001451,0.4,0,FastFast,33,22,Woman,Right,
32,11,1,0.950363699999798,['c'],1,left,['8'],4,0.41721640000105253,0.2,0,FastFast,33,22,Woman,Right,
33,11,1,0.7333089000003383,['n'],1,right,['9'],5,0.31896899999992456,0.1,0,FastFast,33,22,Woman,Right,
34,11,1,0.649320099999386,['c'],1,left,['8'],4,0.3355573999997432,0.2,0,FastFast,33,22,Woman,Right,
35,11,1,0.8642522999998619,['c'],1,left,['9'],5,0.3021387999997387,0.4,0,FastFast,33,22,Woman,Right,
36,11,1,0.9828910999985965,['c'],1,left,['9'],5,0.33478809999905934,0.2,0,FastFast,33,22,Woman,Right,
37,11,1,0.7313981999996031,['n'],1,right,['2'],2,0.26958120000017516,0.4,0,FastFast,33,22,Woman,Right,
38,11,1,1.3652392000003601,['c'],1,left,['2'],2,0.6167112000002817,0.2,0,FastFast,33,22,Woman,Right,
39,11,1,1.6003961999995227,['c'],1,left,['8'],4,0.7507865999996284,0.2,0,FastFast,33,22,Woman,Right,
40,11,1,0.9680394000006345,['c'],1,left,['9'],5,0.9003386999993381,0.4,0,FastFast,33,22,Woman,Right,
41,11,1,1.2001327999987552,['n'],0,left,['9'],5,0.3343165999995108,0.1,0,FastFast,33,22,Woman,Right,
42,11,1,1.5499523999988014,['n'],0,left,['2'],2,0.552751300001546,0.1,0,FastFast,33,22,Woman,Right,
43,11,1,0.6146420999994007,['c'],1,left,['9'],5,0.3842433000008896,0.2,0,FastFast,33,22,Woman,Right,
44,11,1,0.7171297000004415,['n'],1,right,['8'],4,0.46586969999953,0.4,0,FastFast,33,22,Woman,Right,
45,11,1,1.0522796000004746,['c'],1,left,['2'],2,0.5849109000009776,0.1,0,FastFast,33,22,Woman,Right,
46,11,1,1.0319565999998304,['n'],0,left,['8'],4,0.7507406000004266,0.2,0,FastFast,33,22,Woman,Right,
47,11,1,0.683906799999022,['n'],1,right,['3'],3,0.7840408000010939,0.1,0,FastFast,33,22,Woman,Right,
48,11,1,1.0351933000001736,['n'],0,left,['3'],3,0.4846956000001228,0.1,0,FastFast,33,22,Woman,Right,
49,11,1,1.000787200000559,['n'],1,right,['8'],4,0.5511227000006329,0.1,0,FastFast,33,22,Woman,Right,
50,11,1,1.0656997999994928,['c'],1,left,['8'],4,0.9675963999998203,0.1,0,FastFast,33,22,Woman,Right,
51,11,1,0.6496179000005213,['n'],1,right,['8'],4,0.4521437999992486,0.2,0,FastFast,33,22,Woman,Right,
52,11,1,1.7507321999983105,['n'],1,right,['8'],4,0.41808119999950577,0.2,0,FastFast,33,22,Woman,Right,
53,11,1,1.1661378999997396,['c'],0,right,['8'],4,0.7170050000004267,0.2,0,FastFast,33,22,Woman,Right,
54,11,1,0.6493615999988833,['n'],1,right,['9'],5,0.8340492000006634,0.4,0,FastFast,33,22,Woman,Right,
55,11,1,0.9660582999986218,['c'],1,left,['9'],5,0.3507049999989249,0.4,0,FastFast,33,22,Woman,Right,
56,11,1,1.0170110000017303,['n'],1,right,['0'],6,0.33338609999918845,0.4,0,FastFast,33,22,Woman,Right,
57,11,1,0.983777999999802,['c'],1,left,['9'],5,0.5526754000002256,0.2,0,FastFast,33,22,Woman,Right,
58,11,1,0.6840307000002213,['n'],1,right,['9'],5,0.30216119999931834,0.4,0,FastFast,33,22,Woman,Right,
59,11,1,1.0649871999994502,['n'],0,left,['8'],4,0.5840874000004987,0.1,0,FastFast,33,22,Woman,Right,
0,12,1,1.0844010999990132,['n'],1,right,['8'],4,0.8184048999992228,0.4,0,AccFast,33,22,Woman,Right,
1,12,1,0.533578700000362,['n'],1,right,['9'],5,0.4346612000008463,0.2,0,AccFast,33,22,Woman,Right,
2,12,1,0.6006575999999768,['n'],1,right,['9'],5,0.4019889000010153,0.4,0,AccFast,33,22,Woman,Right,
3,12,1,0.999385600000096,['c'],0,right,['8'],4,0.9346764999991137,0.1,0,AccFast,33,22,Woman,Right,
4,12,1,1.2664604000001418,['n'],1,right,['8'],4,0.450207899999441,0.2,0,AccFast,33,22,Woman,Right,
5,12,1,0.7009115999990172,['n'],1,right,['9'],5,0.46785500000078173,0.4,0,AccFast,33,22,Woman,Right,
6,12,1,1.1008615999999165,['c'],1,left,['8'],4,0.43426739999995334,0.2,0,AccFast,33,22,Woman,Right,
7,12,1,0.7835113999990426,['c'],1,left,['8'],4,0.3516106999995827,0.4,0,AccFast,33,22,Woman,Right,
8,12,1,0.832908899999893,['c'],1,left,['2'],2,0.8831657999999152,0.4,0,AccFast,33,22,Woman,Right,
9,12,1,1.6840563000005204,['n'],0,left,['8'],4,0.7010313000009774,0.2,0,AccFast,33,22,Woman,Right,
10,12,1,0.6169475000006059,['c'],1,left,['8'],4,0.40170109999962733,0.4,0,AccFast,33,22,Woman,Right,
11,12,1,0.7999290999996447,['n'],1,right,['8'],4,0.43471930000123393,0.4,0,AccFast,33,22,Woman,Right,
12,12,1,0.9842833000002429,['c'],0,right,['2'],2,0.9845420000001468,0.2,0,AccFast,33,22,Woman,Right,
13,12,1,0.6002911999985372,['c'],0,right,['1'],1,1.3675292000007175,0.4,0,AccFast,33,22,Woman,Right,
14,12,1,0.9504113999992114,['n'],1,right,['8'],4,0.8348535000004631,0.4,0,AccFast,33,22,Woman,Right,
15,12,1,0.8499752000006993,['c'],1,left,['8'],4,0.48422670000036305,0.2,0,AccFast,33,22,Woman,Right,
16,12,1,0.8173641999983374,['c'],1,left,['8'],4,0.5679283999998006,0.2,0,AccFast,33,22,Woman,Right,
17,12,1,0.7999677999996493,['c'],0,right,['8'],4,0.43527109999922686,0.1,0,AccFast,33,22,Woman,Right,
18,12,1,0.8671675000005052,['n'],0,left,['3'],3,0.7013702999993257,0.4,0,AccFast,33,22,Woman,Right,
19,12,1,0.9166898999992554,['c'],0,right,['3'],3,0.4848142999999254,0.4,0,AccFast,33,22,Woman,Right,
20,12,1,2.083563599999252,['n'],0,left,['8'],4,0.8012607999989996,0.2,0,AccFast,33,22,Woman,Right,
21,12,1,1.7665377000012086,['n'],1,right,['3'],3,0.8678402000005008,0.1,0,AccFast,33,22,Woman,Right,
22,12,1,1.450077199999214,['c'],1,left,['3'],3,0.6516249000014795,0.1,0,AccFast,33,22,Woman,Right,
23,12,1,0.9839940000001661,['c'],1,left,['3'],3,0.5677438000002439,0.4,0,AccFast,33,22,Woman,Right,
24,12,1,1.1338601999996172,['n'],1,right,['8'],4,0.4846041000000696,0.1,0,AccFast,33,22,Woman,Right,
25,12,1,0.9660326999983226,['c'],1,left,['8'],4,0.5345699999998033,0.2,0,AccFast,33,22,Woman,Right,
26,12,1,0.9168237000012596,['n'],1,right,['8'],4,0.33464230000026873,0.1,0,AccFast,33,22,Woman,Right,
27,12,1,1.3167527000005066,['n'],0,left,['8'],4,0.6347210999992967,0.1,0,AccFast,33,22,Woman,Right,
28,12,1,0.9833586000004289,['c'],0,right,['2'],2,1.0013739999994868,0.1,0,AccFast,33,22,Woman,Right,
29,12,1,1.018460100000084,['c'],1,left,['8'],4,0.36779419999948004,0.1,0,AccFast,33,22,Woman,Right,
30,12,1,3.899165799999537,['c'],1,left,['2'],2,1.0682329999999638,0.2,0,AccFast,33,22,Woman,Right,
31,12,1,0.9169381000010617,['c'],1,left,['8'],4,0.3834232000008342,0.4,0,AccFast,33,22,Woman,Right,
32,12,1,1.4174915999992663,['n'],0,left,['8'],4,0.33477620000121533,0.2,0,AccFast,33,22,Woman,Right,
33,12,1,0.7835085999995499,['c'],1,left,['8'],4,0.4178413999998156,0.1,0,AccFast,33,22,Woman,Right,
34,12,1,1.017686399998638,['n'],1,right,['9'],5,0.4013106999991578,0.4,0,AccFast,33,22,Woman,Right,
35,12,1,1.4664712000012514,['c'],0,right,['8'],4,1.401330800001233,0.1,0,AccFast,33,22,Woman,Right,
36,12,1,0.9320370999994338,['c'],1,left,['8'],4,0.2838462999989133,0.2,0,AccFast,33,22,Woman,Right,
37,12,1,1.1508599999997386,['c'],1,left,['8'],4,0.4663836999989144,0.2,0,AccFast,33,22,Woman,Right,
38,12,1,1.050208399999974,['n'],1,right,['9'],5,0.6502516000000469,0.4,0,AccFast,33,22,Woman,Right,
39,12,1,1.866132999999536,['c'],1,left,['8'],4,1.0005756999998994,0.2,0,AccFast,33,22,Woman,Right,
40,12,1,0.7502827000007528,['c'],0,right,['8'],4,0.5013139999991836,0.2,0,AccFast,33,22,Woman,Right,
41,12,1,1.0164457999999286,['c'],1,left,['3'],3,0.8344044999994367,0.1,0,AccFast,33,22,Woman,Right,
42,12,1,0.8829828999987512,['c'],1,left,['9'],5,0.5181647999997949,0.4,0,AccFast,33,22,Woman,Right,
43,12,1,1.0485846000010497,['n'],1,right,['8'],4,0.6356448000005912,0.4,0,AccFast,33,22,Woman,Right,
44,12,1,1.5155036999985896,['n'],1,right,['2'],2,0.3838296000012633,0.1,0,AccFast,33,22,Woman,Right,
45,12,1,1.3340435000009165,['n'],1,right,['2'],2,1.1502041999992798,0.1,0,AccFast,33,22,Woman,Right,
46,12,1,0.7342104999988806,['n'],0,left,['2'],2,1.2683144000002358,0.2,0,AccFast,33,22,Woman,Right,
47,12,1,0.7323670999994647,['n'],1,right,['9'],5,0.517688799998723,0.4,0,AccFast,33,22,Woman,Right,
48,12,1,1.0156575000000885,['n'],0,left,['9'],5,0.5352043000002595,0.1,0,AccFast,33,22,Woman,Right,
49,12,1,0.9674983999993856,['n'],1,right,['8'],4,0.41842410000026575,0.1,0,AccFast,33,22,Woman,Right,
50,12,1,0.7003233000014006,['n'],0,left,['8'],4,0.4850950999989436,0.2,0,AccFast,33,22,Woman,Right,
51,12,1,1.9000961000001553,['c'],1,left,['2'],2,0.7173442999992403,0.1,0,AccFast,33,22,Woman,Right,
52,12,1,0.6510586000003968,['n'],1,right,['9'],5,0.5164150000000518,0.4,0,AccFast,33,22,Woman,Right,
53,12,1,1.4006943000003957,['n'],1,right,['9'],5,0.40132549999907496,0.2,0,AccFast,33,22,Woman,Right,
54,12,1,1.2487879999989673,['n'],0,left,['9'],5,0.5501964000013686,0.1,0,AccFast,33,22,Woman,Right,
55,12,1,0.7508386999998038,['n'],1,right,['9'],5,0.46678609999980836,0.2,0,AccFast,33,22,Woman,Right,
56,12,1,1.3004507000005106,['n'],0,left,['2'],2,0.5847130000001926,0.1,0,AccFast,33,22,Woman,Right,
57,12,1,0.6836230999997497,['n'],1,right,['9'],5,0.4848373000004358,0.2,0,AccFast,33,22,Woman,Right,
58,12,1,1.016723799999454,['n'],0,left,['2'],2,0.8836816999992152,0.1,0,AccFast,33,22,Woman,Right,
59,12,1,0.8177916000004188,['n'],1,right,['9'],5,0.5182266000010713,0.4,0,AccFast,33,22,Woman,Right,
0,13,1,1.2167650000010326,['n'],1,right,['9'],5,1.7009612999991077,0.4,0,AccAcc,33,22,Woman,Right,
1,13,1,0.984140299999126,['n'],0,left,['9'],5,1.051684000000023,0.2,0,AccAcc,33,22,Woman,Right,
2,13,1,1.0834333000002516,['n'],1,right,['9'],5,0.7346355999998195,0.4,0,AccAcc,33,22,Woman,Right,
3,13,1,1.2335542000000714,['n'],1,right,['9'],5,0.6013406000001851,0.4,0,AccAcc,33,22,Woman,Right,
4,13,1,1.2007654000008188,['c'],1,left,['0'],6,0.7683598000003258,0.4,0,AccAcc,33,22,Woman,Right,
5,13,1,0.9168285000014293,['c'],1,left,['0'],6,0.6677070999994612,0.4,0,AccAcc,33,22,Woman,Right,
6,13,1,1.0829702999999427,['n'],1,right,['8'],4,0.8179400999997597,0.4,0,AccAcc,33,22,Woman,Right,
7,13,1,1.6666134000006423,['c'],0,right,['2'],2,0.6341343999993114,0.4,0,AccAcc,33,22,Woman,Right,
8,13,1,1.2340796000007686,['c'],0,right,['3'],3,0.46799449999889475,0.1,0,AccAcc,33,22,Woman,Right,
9,13,1,1.1335398999999597,['c'],1,left,['8'],4,0.41660179999962565,0.2,0,AccAcc,33,22,Woman,Right,
10,13,1,1.4841234000014083,['n'],1,right,['2'],2,0.6832898000011483,0.1,0,AccAcc,33,22,Woman,Right,
11,13,1,1.400966499999413,['n'],1,right,['3'],3,1.0514278000009654,0.1,0,AccAcc,33,22,Woman,Right,
12,13,1,1.1147650000002614,['n'],1,right,['9'],5,0.5675969000003533,0.4,0,AccAcc,33,22,Woman,Right,
13,13,1,1.3988972999995894,['n'],1,right,['3'],3,0.9000947000004089,0.1,0,AccAcc,33,22,Woman,Right,
14,13,1,0.9832984000004217,['n'],1,right,['8'],4,0.6844779000002745,0.1,0,AccAcc,33,22,Woman,Right,
15,13,1,1.5496444000000338,['c'],1,left,['2'],2,1.1019628000012744,0.4,0,AccAcc,33,22,Woman,Right,
16,13,1,0.9488806000008481,['c'],1,left,['3'],3,0.8857353999992483,0.4,0,AccAcc,33,22,Woman,Right,
17,13,1,0.8157333999988623,['n'],1,right,['9'],5,0.6169832000014139,0.2,0,AccAcc,33,22,Woman,Right,
18,13,1,1.2830589999994118,['c'],1,left,['8'],4,0.6010845999990124,0.2,0,AccAcc,33,22,Woman,Right,
19,13,1,0.8686813999993319,['c'],1,left,['8'],4,0.6503619999984949,0.2,0,AccAcc,33,22,Woman,Right,
20,13,1,1.1508819999999105,['n'],1,right,['9'],5,0.3848278000004939,0.4,0,AccAcc,33,22,Woman,Right,
21,13,1,0.9320922999995673,['c'],1,left,['9'],5,0.33342050000101153,0.4,0,AccAcc,33,22,Woman,Right,
22,13,1,2.0508225000012317,['c'],1,left,['3'],3,0.5180227000000741,0.1,0,AccAcc,33,22,Woman,Right,
23,13,1,0.832221100001334,['c'],1,left,['8'],4,0.9511215999991691,0.2,0,AccAcc,33,22,Woman,Right,
24,13,1,2.4316696999994747,['n'],0,left,['3'],3,0.9504121000009036,0.1,0,AccAcc,33,22,Woman,Right,
25,13,1,1.0180175000004965,['n'],1,right,['9'],5,0.6835813999987295,0.4,0,AccAcc,33,22,Woman,Right,
26,13,1,1.0327505000004749,['n'],1,right,['9'],5,0.383506899999702,0.2,0,AccAcc,33,22,Woman,Right,
27,13,1,1.434468100000231,['n'],1,right,['8'],4,0.5001757999998517,0.2,0,AccAcc,33,22,Woman,Right,
28,13,1,1.1670871999995143,['n'],1,right,['8'],4,0.46822419999989506,0.4,0,AccAcc,33,22,Woman,Right,
29,13,1,0.9669462000001658,['n'],1,right,['8'],4,0.6845380000013392,0.2,0,AccAcc,33,22,Woman,Right,
30,13,1,1.0337037000008422,['c'],1,left,['3'],3,0.6336852999993425,0.2,0,AccAcc,33,22,Woman,Right,
31,13,1,1.46604490000027,['n'],1,right,['8'],4,0.5173885000003793,0.2,0,AccAcc,33,22,Woman,Right,
32,13,1,1.533181999999215,['n'],1,right,['8'],4,0.5340950999998313,0.2,0,AccAcc,33,22,Woman,Right,
33,13,1,1.1832769000011467,['n'],0,left,['8'],4,0.417591800000082,0.2,0,AccAcc,33,22,Woman,Right,
34,13,1,2.499448800001119,['n'],0,left,['8'],4,0.8356971999983216,0.4,0,AccAcc,33,22,Woman,Right,
35,13,1,0.9673258999991958,['n'],1,right,['8'],4,0.4509471000001213,0.4,0,AccAcc,33,22,Woman,Right,
36,13,1,2.2143307000005734,['n'],1,right,['9'],5,0.45080249999955413,0.1,0,AccAcc,33,22,Woman,Right,
37,13,1,2.866781099999571,['n'],0,left,['3'],3,0.867443799999819,0.1,0,AccAcc,33,22,Woman,Right,
38,13,1,1.1156803000012587,['c'],1,left,['2'],2,0.6170062000001053,0.4,0,AccAcc,33,22,Woman,Right,
39,13,1,0.8494503000001714,['n'],1,right,['9'],5,0.4004758999999467,0.2,0,AccAcc,33,22,Woman,Right,
40,13,1,2.2496426999987307,['n'],1,right,['8'],4,0.7011151000006066,0.1,0,AccAcc,33,22,Woman,Right,
41,13,1,1.182311700000355,['c'],1,left,['8'],4,0.467832799999087,0.1,0,AccAcc,33,22,Woman,Right,
42,13,1,2.049346499999956,['n'],0,left,['3'],3,0.9340307000002213,0.1,0,AccAcc,33,22,Woman,Right,
43,13,1,1.5665255000003526,['n'],1,right,['2'],2,0.4679118000003655,0.1,0,AccAcc,33,22,Woman,Right,
44,13,1,2.0500496000004205,['c'],1,left,['3'],3,0.8340074000007007,0.1,0,AccAcc,33,22,Woman,Right,
45,13,1,1.0495874999996886,['n'],1,right,['9'],5,0.4342202999996516,0.1,0,AccAcc,33,22,Woman,Right,
46,13,1,1.1498885000000882,['n'],1,right,['9'],5,0.4336892999999691,0.2,0,AccAcc,33,22,Woman,Right,
47,13,1,1.5160921000006056,['n'],0,left,['8'],4,0.4348336000002746,0.2,0,AccAcc,33,22,Woman,Right,
48,13,1,1.066547599999467,['c'],1,left,['8'],4,0.8846020000000863,0.4,0,AccAcc,33,22,Woman,Right,
49,13,1,1.43317449999995,['n'],0,left,['8'],4,1.568297400001029,0.4,0,AccAcc,33,22,Woman,Right,
50,13,1,1.0489260000013019,['c'],1,left,['2'],2,0.9675673999990977,0.4,0,AccAcc,33,22,Woman,Right,
51,13,1,2.115332200000921,['n'],1,right,['8'],4,1.7680191000017658,0.2,0,AccAcc,33,22,Woman,Right,
52,13,1,1.5663629999999102,['n'],0,left,['3'],3,2.352017400000477,0.1,0,AccAcc,33,22,Woman,Right,
53,13,1,1.3004094999996596,['n'],0,left,['8'],4,0.7338821000012103,0.1,0,AccAcc,33,22,Woman,Right,
54,13,1,1.1321158000009746,['n'],0,left,['3'],3,1.1668853999999556,0.1,0,AccAcc,33,22,Woman,Right,
55,13,1,1.3341816000011022,['n'],0,left,['8'],4,0.6183540999991237,0.2,0,AccAcc,33,22,Woman,Right,
56,13,1,1.583445299998857,['n'],0,left,['3'],3,1.2009784000001673,0.2,0,AccAcc,33,22,Woman,Right,
57,13,1,1.3657499000000826,['n'],1,right,['8'],4,0.41889309999896795,0.1,0,AccAcc,33,22,Woman,Right,
58,13,1,0.916326200000185,['n'],1,right,['9'],5,0.4007324000012886,0.2,0,AccAcc,33,22,Woman,Right,
59,13,1,1.5167079999991984,['n'],0,left,['8'],4,0.8848195000009582,0.1,0,AccAcc,33,22,Woman,Right,
0,14,1,0.7345055000005232,['c'],1,left,['8'],4,1.5670766000002914,0.4,0,FastAcc,33,22,Woman,Right,
1,14,1,0.8838950999997905,['n'],1,right,['8'],4,0.4847868000015296,0.2,0,FastAcc,33,22,Woman,Right,
2,14,1,0.7672251000003598,['c'],1,left,['8'],4,0.7179089999990538,0.4,0,FastAcc,33,22,Woman,Right,
3,14,1,0.8169082000003982,['n'],1,right,['8'],4,1.0012272999993002,0.4,0,FastAcc,33,22,Woman,Right,
4,14,1,2.0500158999984706,['c'],1,left,['2'],2,1.3680322999989585,0.2,0,FastAcc,33,22,Woman,Right,
5,14,1,1.5664338000005955,['n'],1,right,['8'],4,2.617440300000453,0.1,0,FastAcc,33,22,Woman,Right,
6,14,1,0.8502511999995477,['c'],1,left,['8'],4,0.5344823000014003,0.2,0,FastAcc,33,22,Woman,Right,
7,14,1,0.9173566999998002,['n'],1,right,['8'],4,0.4333762000005663,0.4,0,FastAcc,33,22,Woman,Right,
8,14,1,1.1333190000004834,['c'],1,left,['3'],3,0.41780780000044615,0.1,0,FastAcc,33,22,Woman,Right,
9,14,1,1.78394230000049,['n'],1,right,['3'],3,0.46805029999995895,0.2,0,FastAcc,33,22,Woman,Right,
10,14,1,1.3339314999993803,['n'],1,right,['8'],4,0.41865039999902365,0.2,0,FastAcc,33,22,Woman,Right,
11,14,1,1.3661141000011412,['n'],1,right,['8'],4,0.40077240000027814,0.2,0,FastAcc,33,22,Woman,Right,
12,14,1,1.3169261000002734,['c'],1,left,['9'],5,0.5179654000003211,0.4,0,FastAcc,33,22,Woman,Right,
13,14,1,0.8837476999997307,['c'],1,left,['9'],5,0.3182454999987385,0.1,0,FastAcc,33,22,Woman,Right,
14,14,1,1.1169262000003073,['n'],1,right,['9'],5,0.3846527000005153,0.4,0,FastAcc,33,22,Woman,Right,
15,14,1,1.3653649000007135,['c'],0,right,['3'],3,0.7520889000006719,0.2,0,FastAcc,33,22,Woman,Right,
16,14,1,1.0165503999996872,['c'],1,left,['8'],4,0.33462909999980184,0.2,0,FastAcc,33,22,Woman,Right,
17,14,1,1.0833870000005845,['c'],0,right,['8'],4,0.4348110999999335,0.1,0,FastAcc,33,22,Woman,Right,
18,14,1,0.9845865000006597,['c'],0,right,['3'],3,1.817937099998744,0.1,0,FastAcc,33,22,Woman,Right,
19,14,1,1.3667805000004591,['n'],0,left,['8'],4,0.5514043999992282,0.1,0,FastAcc,33,22,Woman,Right,
20,14,1,1.550922200000059,['n'],1,right,['8'],4,0.48463579999952344,0.2,0,FastAcc,33,22,Woman,Right,
21,14,1,0.9834003000014491,['c'],1,left,['8'],4,0.8675583000003826,0.4,0,FastAcc,33,22,Woman,Right,
22,14,1,0.7515167000001384,['c'],1,left,['8'],4,0.4850458000000799,0.1,0,FastAcc,33,22,Woman,Right,
23,14,1,1.933357599998999,['c'],0,right,['2'],2,0.9012583999992785,0.2,0,FastAcc,33,22,Woman,Right,
24,14,1,1.8004648000005545,['n'],1,right,['8'],4,1.101133199999822,0.1,0,FastAcc,33,22,Woman,Right,
25,14,1,0.9336812999990798,['c'],1,left,['9'],5,0.4013852999996743,0.4,0,FastAcc,33,22,Woman,Right,
26,14,1,0.749900599999819,['c'],1,left,['9'],5,0.33479609999994864,0.4,0,FastAcc,33,22,Woman,Right,
27,14,1,0.799598600000536,['c'],1,left,['9'],5,0.6679091999994853,0.4,0,FastAcc,33,22,Woman,Right,
28,14,1,1.4161094000010053,['c'],1,left,['8'],4,0.600037500000326,0.4,0,FastAcc,33,22,Woman,Right,
29,14,1,2.3674924000006285,['c'],0,right,['2'],2,1.5513903999999457,0.1,0,FastAcc,33,22,Woman,Right,
30,14,1,1.5500750000010157,['n'],1,right,['8'],4,0.5166918999984773,0.2,0,FastAcc,33,22,Woman,Right,
31,14,1,1.4845129000004817,['n'],0,left,['8'],4,0.584837399999742,0.1,0,FastAcc,33,22,Woman,Right,
32,14,1,1.1001829999986512,['c'],1,left,['3'],3,0.9005994999988616,0.1,0,FastAcc,33,22,Woman,Right,
33,14,1,1.6509433000010176,['n'],1,right,['8'],4,0.46792439999990165,0.2,0,FastAcc,33,22,Woman,Right,
34,14,1,1.250186900000699,['n'],0,left,['8'],4,0.3334128000005876,0.1,0,FastAcc,33,22,Woman,Right,
35,14,1,0.8162134000012884,['c'],1,left,['8'],4,0.2854774000006728,0.2,0,FastAcc,33,22,Woman,Right,
36,14,1,1.0004590999997163,['n'],1,right,['9'],5,0.45062180000059016,0.2,0,FastAcc,33,22,Woman,Right,
37,14,1,0.9174481999998534,['c'],1,left,['9'],5,0.3506161000004795,0.4,0,FastAcc,33,22,Woman,Right,
38,14,1,1.2994376999995438,['n'],1,right,['0'],6,0.5013572999996541,0.4,0,FastAcc,33,22,Woman,Right,
39,14,1,1.1815671999993356,['n'],1,right,['9'],5,0.367469799999526,0.4,0,FastAcc,33,22,Woman,Right,
40,14,1,1.7010129999998753,['n'],0,left,['2'],2,0.6844595999991725,0.1,0,FastAcc,33,22,Woman,Right,
41,14,1,0.8003917000005458,['n'],1,right,['9'],5,0.29985020000094664,0.1,0,FastAcc,33,22,Woman,Right,
42,14,1,2.06728479999947,['n'],1,right,['3'],3,0.8996766000000207,0.1,0,FastAcc,33,22,Woman,Right,
43,14,1,1.1998858999995718,['c'],1,left,['2'],2,0.8666312999994261,0.2,0,FastAcc,33,22,Woman,Right,
44,14,1,0.8008293000002595,['n'],1,right,['9'],5,0.31776170000011916,0.2,0,FastAcc,33,22,Woman,Right,
45,14,1,0.9836138999999093,['c'],1,left,['9'],5,0.3001947000011569,0.4,0,FastAcc,33,22,Woman,Right,
46,14,1,0.7325615999998263,['n'],1,right,['9'],5,0.36576459999923827,0.4,0,FastAcc,33,22,Woman,Right,
47,14,1,1.1687397000005149,['n'],0,left,['9'],5,0.30081969999992,0.1,0,FastAcc,33,22,Woman,Right,
48,14,1,1.3169391000010364,['c'],1,left,['9'],5,0.8179519000004802,0.1,0,FastAcc,33,22,Woman,Right,
49,14,1,1.2001063999996404,['n'],1,right,['8'],4,0.4180594999997993,0.1,0,FastAcc,33,22,Woman,Right,
50,14,1,0.782933000000412,['n'],1,right,['3'],3,0.8688619999993534,0.2,0,FastAcc,33,22,Woman,Right,
51,14,1,1.2841512000013608,['c'],1,left,['8'],4,0.6512217999988934,0.4,0,FastAcc,33,22,Woman,Right,
52,14,1,0.7344347999987804,['c'],1,left,['8'],4,0.4014029000009032,0.4,0,FastAcc,33,22,Woman,Right,
53,14,1,0.9001812999995309,['n'],0,left,['8'],4,0.3347706000004109,0.1,0,FastAcc,33,22,Woman,Right,
54,14,1,0.8835665000005974,['n'],1,right,['8'],4,0.3350183000002289,0.2,0,FastAcc,33,22,Woman,Right,
55,14,1,0.8835466000000451,['n'],0,left,['8'],4,0.4846449999986362,0.1,0,FastAcc,33,22,Woman,Right,
56,14,1,0.8339599999999336,['n'],1,right,['9'],5,0.6177955999992264,0.4,0,FastAcc,33,22,Woman,Right,
57,14,1,1.4168900000004214,['c'],1,left,['8'],4,0.5506860000004963,0.4,0,FastAcc,33,22,Woman,Right,
58,14,1,1.0168130999991263,['n'],1,right,['9'],5,0.5181122000012692,0.2,0,FastAcc,33,22,Woman,Right,
59,14,1,1.0327414000003046,['n'],1,right,['8'],4,0.6514105999995081,0.2,0,FastAcc,33,22,Woman,Right,
0,15,1,0.8007558999997855,['n'],1,right,['8'],4,0.48402569999962,0.1,0,FastFast,33,22,Woman,Right,
1,15,1,0.566547399999763,['n'],1,right,['8'],4,0.31688600000052247,0.4,0,FastFast,33,22,Woman,Right,
2,15,1,1.0651840999998967,['n'],1,right,['9'],5,0.40269590000025346,0.4,0,FastFast,33,22,Woman,Right,
3,15,1,1.2008916000013414,['n'],0,left,['3'],3,0.33326280000073893,0.1,0,FastFast,33,22,Woman,Right,
4,15,1,0.6179081999998743,['n'],1,right,['9'],5,0.41785039999922446,0.4,0,FastFast,33,22,Woman,Right,
5,15,1,0.7334739999987505,['n'],0,left,['9'],5,0.3015522999994573,0.1,0,FastFast,33,22,Woman,Right,
6,15,1,0.7669200000000274,['n'],1,right,['8'],4,0.36837240000022575,0.2,0,FastFast,33,22,Woman,Right,
7,15,1,0.7327710000008665,['c'],0,right,['3'],3,0.26868150000154856,0.1,0,FastFast,33,22,Woman,Right,
8,15,1,1.3183552999998938,['n'],1,right,['3'],3,0.634592899999916,0.4,0,FastFast,33,22,Woman,Right,
9,15,1,1.5507323000001634,['n'],1,right,['2'],2,0.6847385999990365,0.1,0,FastFast,33,22,Woman,Right,
10,15,1,1.1661967000000004,['n'],1,right,['8'],4,0.3681996999985131,0.1,0,FastFast,33,22,Woman,Right,
11,15,1,0.7001734000004944,['n'],1,right,['8'],4,0.43340680000073917,0.2,0,FastFast,33,22,Woman,Right,
12,15,1,0.6008490000003803,['c'],1,left,['8'],4,0.40144279999913124,0.4,0,FastFast,33,22,Woman,Right,
13,15,1,0.6502380999991146,['n'],1,right,['8'],4,0.3331385000001319,0.4,0,FastFast,33,22,Woman,Right,
14,15,1,0.8159116000006179,['n'],1,right,['8'],4,0.2841837999985728,0.2,0,FastFast,33,22,Woman,Right,
15,15,1,0.9018063000003167,['c'],1,left,['8'],4,0.23277880000023288,0.1,0,FastFast,33,22,Woman,Right,
16,15,1,0.6832582000006369,['c'],1,left,['8'],4,0.25199810000049183,0.1,0,FastFast,33,22,Woman,Right,
17,15,1,0.6653494999991381,['c'],1,left,['9'],5,0.5021115000017744,0.4,0,FastFast,33,22,Woman,Right,
18,15,1,0.8834963999997854,['c'],1,left,['9'],5,0.3344909000006737,0.4,0,FastFast,33,22,Woman,Right,
19,15,1,0.6666771000000153,['n'],1,right,['9'],5,0.2513450999995257,0.4,0,FastFast,33,22,Woman,Right,
20,15,1,1.3004272999987734,['n'],1,right,['8'],4,1.5000408999985666,0.4,0,FastFast,33,22,Woman,Right,
21,15,1,0.5676342999995541,['n'],1,right,['0'],6,0.617204899999706,0.4,0,FastFast,33,22,Woman,Right,
22,15,1,0.9170064999998431,['n'],1,right,['2'],2,0.6177017000009073,0.4,0,FastFast,33,22,Woman,Right,
23,15,1,0.9815348000010999,['n'],0,left,['2'],2,0.5859954000006837,0.2,0,FastFast,33,22,Woman,Right,
24,15,1,1.9154665999994904,['n'],0,left,['8'],4,0.535389299999224,0.1,0,FastFast,33,22,Woman,Right,
25,15,1,0.5837141000010888,['n'],0,left,['8'],4,0.3847384000000602,0.1,0,FastFast,33,22,Woman,Right,
26,15,1,0.8007066999998642,['n'],1,right,['8'],4,0.5346188999992592,0.1,0,FastFast,33,22,Woman,Right,
27,15,1,0.5662891000010859,['n'],1,right,['8'],4,0.5846861000009085,0.2,0,FastFast,33,22,Woman,Right,
28,15,1,1.883574999999837,['c'],0,right,['3'],3,0.318205499999749,0.1,0,FastFast,33,22,Woman,Right,
29,15,1,0.6666154000013194,['c'],1,left,['8'],4,0.7511408000009396,0.2,0,FastFast,33,22,Woman,Right,
30,15,1,0.7843905000008817,['n'],1,right,['8'],4,0.28473719999965397,0.2,0,FastFast,33,22,Woman,Right,
31,15,1,1.3826843000006193,['n'],1,right,['8'],4,0.31803429999854416,0.2,0,FastFast,33,22,Woman,Right,
32,15,1,1.4833220000000438,['n'],0,left,['9'],5,0.3678928999997879,0.2,0,FastFast,33,22,Woman,Right,
33,15,1,0.7832311000001937,['c'],1,left,['9'],5,0.4013974999998027,0.4,0,FastFast,33,22,Woman,Right,
34,15,1,0.9171881999991456,['c'],1,left,['3'],3,0.3000986000006378,0.2,0,FastFast,33,22,Woman,Right,
35,15,1,0.7011615000010352,['n'],1,right,['8'],4,0.4182223999996495,0.4,0,FastFast,33,22,Woman,Right,
36,15,1,0.7006179999989399,['n'],0,left,['9'],5,0.3326718999996956,0.2,0,FastFast,33,22,Woman,Right,
37,15,1,1.2020116000003327,['c'],0,right,['3'],3,0.3847238999987894,0.4,0,FastFast,33,22,Woman,Right,
38,15,1,0.8676000000014028,['c'],0,right,['8'],4,0.2847517999998672,0.1,0,FastFast,33,22,Woman,Right,
39,15,1,0.700797400000738,['n'],1,right,['8'],4,0.3514343999995617,0.2,0,FastFast,33,22,Woman,Right,
40,15,1,0.6156888999994408,['n'],1,right,['8'],4,0.2687165000006644,0.1,0,FastFast,33,22,Woman,Right,
41,15,1,1.383472299999994,['n'],0,left,['2'],2,1.2169240999992326,0.2,0,FastFast,33,22,Woman,Right,
42,15,1,0.8336396000013337,['n'],1,right,['2'],2,0.31794710000031046,0.2,0,FastFast,33,22,Woman,Right,
43,15,1,2.049843900000269,['c'],0,right,['3'],3,0.6346453000005567,0.1,0,FastFast,33,22,Woman,Right,
44,15,1,1.7002351000010094,['n'],0,left,['8'],4,0.5345968999990873,0.1,0,FastFast,33,22,Woman,Right,
45,15,1,0.8167744000002131,['c'],1,left,['9'],5,0.6847897999996349,0.4,0,FastFast,33,22,Woman,Right,
46,15,1,1.1503047000005608,['c'],1,left,['3'],3,0.5513117000009515,0.2,0,FastFast,33,22,Woman,Right,
47,15,1,0.6680377000011504,['c'],1,left,['8'],4,0.31805350000104227,0.1,0,FastFast,33,22,Woman,Right,
48,15,1,0.7336250999996992,['n'],1,right,['8'],4,0.3180029999984981,0.2,0,FastFast,33,22,Woman,Right,
49,15,1,1.2314853999996558,['c'],1,left,['3'],3,0.8018965000010212,0.1,0,FastFast,33,22,Woman,Right,
50,15,1,0.667048799999975,['n'],0,left,['8'],4,0.3012743999988743,0.2,0,FastFast,33,22,Woman,Right,
51,15,1,0.8331058000003395,['c'],1,left,['8'],4,0.284779300000082,0.4,0,FastFast,33,22,Woman,Right,
52,15,1,1.183674300000348,['n'],0,left,['8'],4,0.4348031000008632,0.2,0,FastFast,33,22,Woman,Right,
53,15,1,0.6668190000000322,['c'],1,left,['8'],4,0.3014235999999073,0.2,0,FastFast,33,22,Woman,Right,
54,15,1,0.38366339999993215,['n'],0,left,['8'],4,0.38539010000022245,0.1,0,FastFast,33,22,Woman,Right,
55,15,1,0.4678430000003573,['c'],1,left,['8'],4,0.5179896999998164,0.4,0,FastFast,33,22,Woman,Right,
56,15,1,1.2835890000005747,['c'],1,left,['3'],3,0.7179027000001952,0.1,0,FastFast,33,22,Woman,Right,
57,15,1,1.082223299999896,['n'],0,left,['2'],2,0.30205129999922065,0.2,0,FastFast,33,22,Woman,Right,
58,15,1,0.6325521999988268,['n'],1,right,['9'],5,0.3000138999996125,0.4,0,FastFast,33,22,Woman,Right,
59,15,1,0.7329974000003858,['c'],1,left,['9'],5,0.25212220000139496,0.4,0,FastFast,33,22,Woman,Right,
