withinblocktrial,block,block_repetition,rt,resp,cor,cresp,conf_press,cj,rtconf,coherence,slow_trial,manipulation,sub,age,gender,handedness,
0,1,1,4.116322600000785,['n'],1,right,none,-99,-99,0.5,0,none,34,18,Woman,Right,
1,1,1,1.0159760000005917,['c'],1,left,none,-99,-99,0.5,0,none,34,18,Woman,Right,
2,1,1,0.8166617000006227,['c'],1,left,none,-99,-99,0.5,0,none,34,18,Woman,Right,
3,1,1,1.6839049999998679,['c'],1,left,none,-99,-99,0.5,0,none,34,18,Woman,Right,
4,1,1,0.9674272000011115,['n'],0,left,none,-99,-99,0.5,0,none,34,18,Woman,Right,
5,1,1,1.6338783000010153,['n'],1,right,none,-99,-99,0.5,0,none,34,18,Woman,Right,
6,1,1,1.1487072999989323,['c'],1,left,none,-99,-99,0.5,0,none,34,18,Woman,Right,
7,1,1,0.8499603999989631,['c'],1,left,none,-99,-99,0.5,0,none,34,18,Woman,Right,
8,1,1,0.9326223999996728,['c'],1,left,none,-99,-99,0.5,0,none,34,18,Woman,Right,
9,1,1,0.8504216999990604,['n'],1,right,none,-99,-99,0.5,0,none,34,18,Woman,Right,
10,1,1,0.8846097000005102,['c'],0,right,none,-99,-99,0.5,0,none,34,18,Woman,Right,
11,1,1,2.1825139000011404,['n'],1,right,none,-99,-99,0.5,0,none,34,18,Woman,Right,
12,1,1,0.9501583999990544,['c'],0,right,none,-99,-99,0.5,0,none,34,18,Woman,Right,
13,1,1,1.4663890000010724,['n'],1,right,none,-99,-99,0.5,0,none,34,18,Woman,Right,
14,1,1,1.2997788000011496,['n'],1,right,none,-99,-99,0.5,0,none,34,18,Woman,Right,
15,1,1,0.9495093999994424,['c'],1,left,none,-99,-99,0.5,0,none,34,18,Woman,Right,
16,1,1,2.5666740000015125,['n'],1,right,none,-99,-99,0.5,0,none,34,18,Woman,Right,
17,1,1,1.3007422000009683,['n'],1,right,none,-99,-99,0.5,0,none,34,18,Woman,Right,
18,1,1,0.8667752000001201,['c'],1,left,none,-99,-99,0.5,0,none,34,18,Woman,Right,
19,1,1,0.750336299999617,['n'],1,right,none,-99,-99,0.5,0,none,34,18,Woman,Right,
20,1,1,0.7507872999995016,['c'],1,left,none,-99,-99,0.5,0,none,34,18,Woman,Right,
21,1,1,0.9169187000006787,['n'],0,left,none,-99,-99,0.5,0,none,34,18,Woman,Right,
22,1,1,0.8158171000013681,['n'],1,right,none,-99,-99,0.5,0,none,34,18,Woman,Right,
23,1,1,0.5835107999992033,['c'],1,left,none,-99,-99,0.5,0,none,34,18,Woman,Right,
0,1,2,1.1845721999998204,['n'],1,right,none,-99,-99,0.5,0,none,34,18,Woman,Right,
1,1,2,0.716820399999051,['c'],1,left,none,-99,-99,0.5,0,none,34,18,Woman,Right,
2,1,2,0.8009567000008246,['n'],0,left,none,-99,-99,0.5,0,none,34,18,Woman,Right,
3,1,2,0.9502948999997898,['c'],1,left,none,-99,-99,0.5,0,none,34,18,Woman,Right,
4,1,2,0.5496213999995234,['c'],1,left,none,-99,-99,0.5,0,none,34,18,Woman,Right,
5,1,2,0.585571899999195,['n'],1,right,none,-99,-99,0.5,0,none,34,18,Woman,Right,
6,1,2,0.5677651000005426,['n'],1,right,none,-99,-99,0.5,0,none,34,18,Woman,Right,
7,1,2,0.8007618999999977,['n'],1,right,none,-99,-99,0.5,0,none,34,18,Woman,Right,
8,1,2,0.4681948999987071,['c'],1,left,none,-99,-99,0.5,0,none,34,18,Woman,Right,
9,1,2,0.5334449000001769,['n'],1,right,none,-99,-99,0.5,0,none,34,18,Woman,Right,
10,1,2,0.6328112999999576,['n'],1,right,none,-99,-99,0.5,0,none,34,18,Woman,Right,
11,1,2,0.7178462000010768,['n'],0,left,none,-99,-99,0.5,0,none,34,18,Woman,Right,
12,1,2,1.916397800001505,['c'],1,left,none,-99,-99,0.5,0,none,34,18,Woman,Right,
13,1,2,0.9655935999999201,['n'],1,right,none,-99,-99,0.5,0,none,34,18,Woman,Right,
14,1,2,0.5512987000001885,['n'],1,right,none,-99,-99,0.5,0,none,34,18,Woman,Right,
15,1,2,0.5988267000011547,['n'],1,right,none,-99,-99,0.5,0,none,34,18,Woman,Right,
16,1,2,0.5500596999991103,['c'],1,left,none,-99,-99,0.5,0,none,34,18,Woman,Right,
17,1,2,0.5825366999997641,['n'],1,right,none,-99,-99,0.5,0,none,34,18,Woman,Right,
18,1,2,0.4670145000000048,['c'],1,left,none,-99,-99,0.5,0,none,34,18,Woman,Right,
19,1,2,0.5172683000000688,['c'],1,left,none,-99,-99,0.5,0,none,34,18,Woman,Right,
20,1,2,0.4845330999996804,['n'],1,right,none,-99,-99,0.5,0,none,34,18,Woman,Right,
21,1,2,0.4834422000003542,['c'],1,left,none,-99,-99,0.5,0,none,34,18,Woman,Right,
22,1,2,0.3845230000006268,['n'],1,right,none,-99,-99,0.5,0,none,34,18,Woman,Right,
23,1,2,0.5007163999998738,['n'],0,left,none,-99,-99,0.5,0,none,34,18,Woman,Right,
0,2,1,0.7842521000002307,['n'],1,right,none,-99,-99,0.2,0,none,34,18,Woman,Right,
1,2,1,1.100815200001307,['c'],0,right,none,-99,-99,0.1,0,none,34,18,Woman,Right,
2,2,1,0.915922899999714,['n'],1,right,none,-99,-99,0.1,0,none,34,18,Woman,Right,
3,2,1,0.6330109999998967,['n'],1,right,none,-99,-99,0.4,0,none,34,18,Woman,Right,
4,2,1,0.7842789000005723,['c'],0,right,none,-99,-99,0.4,0,none,34,18,Woman,Right,
5,2,1,0.9991117999998096,['c'],0,right,none,-99,-99,0.4,0,none,34,18,Woman,Right,
6,2,1,1.7661143999994238,['c'],1,left,none,-99,-99,0.2,0,none,34,18,Woman,Right,
7,2,1,0.6996684999994613,['n'],1,right,none,-99,-99,0.4,0,none,34,18,Woman,Right,
8,2,1,0.6327617000006285,['n'],1,right,none,-99,-99,0.1,0,none,34,18,Woman,Right,
9,2,1,0.7669214000015927,['n'],1,right,none,-99,-99,0.1,0,none,34,18,Woman,Right,
10,2,1,0.7517426000013074,['n'],0,left,none,-99,-99,0.2,0,none,34,18,Woman,Right,
11,2,1,0.6009208999985276,['c'],1,left,none,-99,-99,0.4,0,none,34,18,Woman,Right,
12,2,1,0.6171520000007149,['c'],1,left,none,-99,-99,0.4,0,none,34,18,Woman,Right,
13,2,1,0.5677634000003309,['n'],1,right,none,-99,-99,0.1,0,none,34,18,Woman,Right,
14,2,1,0.5492453999995632,['c'],0,right,none,-99,-99,0.1,0,none,34,18,Woman,Right,
15,2,1,0.46661499999936495,['n'],0,left,none,-99,-99,0.4,0,none,34,18,Woman,Right,
16,2,1,0.9348511999996845,['c'],1,left,none,-99,-99,0.2,0,none,34,18,Woman,Right,
17,2,1,0.8512850000006438,['n'],0,left,none,-99,-99,0.1,0,none,34,18,Woman,Right,
18,2,1,0.7349311000016314,['c'],1,left,none,-99,-99,0.2,0,none,34,18,Woman,Right,
19,2,1,0.6490704999996524,['c'],1,left,none,-99,-99,0.1,0,none,34,18,Woman,Right,
20,2,1,0.6506831999995484,['c'],1,left,none,-99,-99,0.2,0,none,34,18,Woman,Right,
21,2,1,0.7507696000011492,['n'],1,right,none,-99,-99,0.4,0,none,34,18,Woman,Right,
22,2,1,1.866654200000994,['n'],0,left,none,-99,-99,0.2,0,none,34,18,Woman,Right,
23,2,1,0.8503606000012951,['c'],1,left,none,-99,-99,0.2,0,none,34,18,Woman,Right,
0,3,1,1.249964499998896,['c'],1,left,['2'],5,2.168323699999746,0.4,0,none,34,18,Woman,Right,
1,3,1,1.5008355999998457,['n'],1,right,['3'],4,2.13488949999919,0.1,0,none,34,18,Woman,Right,
2,3,1,2.24894839999979,['n'],1,right,['8'],3,3.1181441999997332,0.1,0,none,34,18,Woman,Right,
3,3,1,2.7512000000006083,['n'],1,right,['8'],3,1.3682152000001224,0.2,0,none,34,18,Woman,Right,
4,3,1,1.1189687000005506,['c'],0,right,['3'],4,0.8839532999991206,0.1,0,none,34,18,Woman,Right,
5,3,1,1.183898400000544,['c'],1,left,['2'],5,0.6361111000005621,0.4,0,none,34,18,Woman,Right,
6,3,1,1.3005039999989094,['n'],1,right,['2'],5,2.3010315999999875,0.2,0,none,34,18,Woman,Right,
7,3,1,1.1493492999998125,['c'],1,left,['2'],5,0.8353538000010303,0.1,0,none,34,18,Woman,Right,
8,3,1,1.6673243999994156,['n'],1,right,['2'],5,1.4174770999998145,0.2,0,none,34,18,Woman,Right,
9,3,1,1.5334225000005972,['c'],1,left,['2'],5,1.0177865999994538,0.2,0,none,34,18,Woman,Right,
10,3,1,1.2000903000007384,['c'],1,left,['1'],6,0.8180014000008669,0.4,0,none,34,18,Woman,Right,
11,3,1,1.033891399998538,['n'],1,right,['1'],6,0.7836452999999892,0.4,0,none,34,18,Woman,Right,
12,3,1,1.1667292000001908,['c'],1,left,['1'],6,0.7689772000012454,0.4,0,none,34,18,Woman,Right,
13,3,1,1.2824490999992122,['c'],1,left,['1'],6,2.035354900001039,0.2,0,none,34,18,Woman,Right,
14,3,1,0.9324870000000374,['n'],1,right,['1'],6,0.8013276000001497,0.4,0,none,34,18,Woman,Right,
15,3,1,2.0332001999995555,['n'],0,left,['3'],4,2.500417600000219,0.1,0,none,34,18,Woman,Right,
16,3,1,1.1172256000008929,['n'],0,left,['3'],4,0.7683012999987113,0.1,0,none,34,18,Woman,Right,
17,3,1,1.3670170999994298,['n'],1,right,['3'],4,1.952230299999428,0.2,0,none,34,18,Woman,Right,
18,3,1,1.4323586000009527,['n'],0,left,['8'],3,0.6519146000009641,0.2,0,none,34,18,Woman,Right,
19,3,1,1.2187095000008412,['n'],1,right,['3'],4,0.44959410000046773,0.1,0,none,34,18,Woman,Right,
20,3,1,1.1501361000009638,['c'],1,left,['3'],4,1.2016070999998192,0.4,0,none,34,18,Woman,Right,
21,3,1,1.5339136999991752,['n'],1,right,['3'],4,1.4180317999998806,0.2,0,none,34,18,Woman,Right,
22,3,1,1.100119700000505,['n'],1,right,['3'],4,1.1681212000003143,0.4,0,none,34,18,Woman,Right,
23,3,1,1.5663597999991907,['c'],1,left,['3'],4,0.7675024999989546,0.1,0,none,34,18,Woman,Right,
0,4,1,2.5330209999992803,['n'],1,right,['2'],5,0.25185030000102415,0.4,0,AccFast,34,18,Woman,Right,
1,4,1,3.300416000000041,['c'],1,left,['2'],5,0.24952440000015486,0.2,0,AccFast,34,18,Woman,Right,
2,4,1,0.9840932999995857,['n'],0,left,['3'],4,0.3855062000002363,0.2,0,AccFast,34,18,Woman,Right,
3,4,1,1.6320973000001686,['n'],1,right,['2'],5,0.2354286999998294,0.4,0,AccFast,34,18,Woman,Right,
4,4,1,1.3497062000005826,['n'],1,right,['8'],3,0.3673030000009021,0.2,0,AccFast,34,18,Woman,Right,
5,4,1,0.9185445000002801,['c'],1,left,['3'],4,0.26854000000093947,0.2,0,AccFast,34,18,Woman,Right,
6,4,1,0.8334790999997495,['n'],1,right,['2'],5,0.3670756999999867,0.4,0,AccFast,34,18,Woman,Right,
7,4,1,1.2175913000010041,['n'],0,left,['1'],6,0.351301800001238,0.2,0,AccFast,34,18,Woman,Right,
8,4,1,0.9830691999995906,['c'],1,left,['2'],5,0.650017800000569,0.2,0,AccFast,34,18,Woman,Right,
9,4,1,0.7496126000005461,['n'],1,right,['3'],4,0.30282640000041283,0.2,0,AccFast,34,18,Woman,Right,
10,4,1,0.9999935000014375,['n'],0,left,['2'],5,0.3348470000000816,0.1,0,AccFast,34,18,Woman,Right,
11,4,1,1.1835887000015646,['n'],1,right,['3'],4,0.3013370999997278,0.4,0,AccFast,34,18,Woman,Right,
12,4,1,1.298591299999316,['n'],1,right,['8'],3,0.2527119999995193,0.1,0,AccFast,34,18,Woman,Right,
13,4,1,0.9817540000003646,['n'],1,right,['2'],5,0.21904540000105044,0.4,0,AccFast,34,18,Woman,Right,
14,4,1,1.3495853999993415,['c'],1,left,['8'],3,0.551896900000429,0.1,0,AccFast,34,18,Woman,Right,
15,4,1,1.1158522000005178,['n'],0,left,['8'],3,0.16757070000130625,0.2,0,AccFast,34,18,Woman,Right,
16,4,1,0.9825749000010546,['c'],1,left,['3'],4,0.23576989999855869,0.4,0,AccFast,34,18,Woman,Right,
17,4,1,0.8010871999995288,['n'],0,left,['2'],5,0.2512695999994321,0.2,0,AccFast,34,18,Woman,Right,
18,4,1,1.0006559000012203,['c'],1,left,['2'],5,0.268533500000558,0.4,0,AccFast,34,18,Woman,Right,
19,4,1,0.9168960000006336,['n'],1,right,['2'],5,0.2347602999998344,0.4,0,AccFast,34,18,Woman,Right,
20,4,1,0.7671345999988262,['n'],1,right,['2'],5,0.24995569999919098,0.4,0,AccFast,34,18,Woman,Right,
21,4,1,0.9009484999987762,['n'],1,right,['1'],6,0.38514759999998205,0.4,0,AccFast,34,18,Woman,Right,
22,4,1,0.9007204000008642,['n'],1,right,['2'],5,0.28514820000054897,0.4,0,AccFast,34,18,Woman,Right,
23,4,1,1.066569200000231,['c'],1,left,['8'],3,0.25175439999839,0.1,0,AccFast,34,18,Woman,Right,
24,4,1,0.7006090999984735,['c'],1,left,['2'],5,0.2501371000016661,0.4,0,AccFast,34,18,Woman,Right,
25,4,1,1.6177697000002809,['n'],1,right,['8'],3,0.23464729999977862,0.4,0,AccFast,34,18,Woman,Right,
26,4,1,1.0842041000014433,['c'],1,left,['2'],5,0.251825800000006,0.4,0,AccFast,34,18,Woman,Right,
27,4,1,1.3517642000006163,['n'],0,left,['9'],2,0.23329160000139382,0.2,0,AccFast,34,18,Woman,Right,
28,4,1,1.3343284000002313,['n'],1,right,['9'],2,0.2515669999993406,0.2,0,AccFast,34,18,Woman,Right,
29,4,1,0.8347688000012567,['c'],1,left,['9'],2,0.23310510000010254,0.1,0,AccFast,34,18,Woman,Right,
30,4,1,0.7172157000004518,['n'],1,right,['3'],4,0.2838221000001795,0.2,0,AccFast,34,18,Woman,Right,
31,4,1,1.0541747999996005,['c'],1,left,['3'],4,0.26811019999877317,0.2,0,AccFast,34,18,Woman,Right,
32,4,1,0.9844451999997545,['c'],1,left,['8'],3,0.267952599999262,0.1,0,AccFast,34,18,Woman,Right,
33,4,1,0.9005551999998715,['c'],1,left,['8'],3,0.3015512999991188,0.4,0,AccFast,34,18,Woman,Right,
34,4,1,0.884375399999044,['c'],0,right,['8'],3,0.7192560999992565,0.1,0,AccFast,34,18,Woman,Right,
35,4,1,3.6168542000013986,['n'],0,left,['0'],1,1.1012369000000035,0.1,0,AccFast,34,18,Woman,Right,
36,4,1,1.1504205000001093,['n'],0,left,['9'],2,0.2339752000007138,0.1,0,AccFast,34,18,Woman,Right,
37,4,1,1.0675093999998353,['c'],1,left,['8'],3,0.5335493000002316,0.4,0,AccFast,34,18,Woman,Right,
38,4,1,0.7818294999997306,['n'],0,left,['3'],4,0.31751900000017486,0.2,0,AccFast,34,18,Woman,Right,
39,4,1,1.0498758999983693,['n'],1,right,['3'],4,0.2685832000006485,0.4,0,AccFast,34,18,Woman,Right,
40,4,1,1.2991900999986683,['c'],1,left,['3'],4,0.2671088000006421,0.1,0,AccFast,34,18,Woman,Right,
41,4,1,0.8829989000005298,['n'],0,left,['8'],3,0.2520098000004509,0.2,0,AccFast,34,18,Woman,Right,
42,4,1,1.6838002999993478,['n'],1,right,['2'],5,0.28459790000124485,0.2,0,AccFast,34,18,Woman,Right,
43,4,1,1.033926000000065,['c'],0,right,['8'],3,0.2343821000013122,0.1,0,AccFast,34,18,Woman,Right,
44,4,1,0.7508811999996396,['n'],0,left,['3'],4,0.19950209999842627,0.2,0,AccFast,34,18,Woman,Right,
45,4,1,1.0350146000000677,['c'],0,right,['8'],3,0.23375970000051893,0.2,0,AccFast,34,18,Woman,Right,
46,4,1,0.9014709000002767,['n'],1,right,['8'],3,0.20277700000042387,0.1,0,AccFast,34,18,Woman,Right,
47,4,1,1.5820519000008062,['n'],1,right,['9'],2,0.3848511999985931,0.1,0,AccFast,34,18,Woman,Right,
48,4,1,0.8496052999998938,['n'],1,right,['0'],1,0.3357771999999386,0.1,0,AccFast,34,18,Woman,Right,
49,4,1,1.334220799999457,['n'],1,right,['8'],3,0.25185380000039004,0.2,0,AccFast,34,18,Woman,Right,
50,4,1,1.0989411999998993,['c'],0,right,['8'],3,0.23561069999959727,0.1,0,AccFast,34,18,Woman,Right,
51,4,1,2.2344021999997494,['n'],0,left,['8'],3,0.08471800000006624,0.1,0,AccFast,34,18,Woman,Right,
52,4,1,0.917349400000603,['n'],1,right,['8'],3,0.1500488999990921,0.1,0,AccFast,34,18,Woman,Right,
53,4,1,1.1002393999988271,['c'],0,right,['8'],3,0.1685514000000694,0.4,0,AccFast,34,18,Woman,Right,
54,4,1,4.08338619999995,['c'],1,left,['3'],4,0.19948289999956614,0.4,0,AccFast,34,18,Woman,Right,
55,4,1,2.0666332000000693,['n'],1,right,['8'],3,0.21793369999977585,0.1,0,AccFast,34,18,Woman,Right,
56,4,1,1.7179014999983337,['c'],1,left,['9'],2,0.18470590000106313,0.1,0,AccFast,34,18,Woman,Right,
57,4,1,0.86838809999972,['n'],0,left,['9'],2,0.31737000000066473,0.1,0,AccFast,34,18,Woman,Right,
58,4,1,1.033308500000203,['n'],1,right,['3'],4,1.2690746999996918,0.4,0,AccFast,34,18,Woman,Right,
59,4,1,3.0496720999999525,['n'],1,right,['8'],3,0.7181352999996307,0.2,0,AccFast,34,18,Woman,Right,
0,5,1,2.948808099999951,['c'],1,left,['2'],5,1.2525121999988187,0.4,0,AccAcc,34,18,Woman,Right,
1,5,1,1.3336504999988392,['n'],1,right,['1'],6,1.1844765000005282,0.2,0,AccAcc,34,18,Woman,Right,
2,5,1,3.6507017000003543,['n'],1,right,['8'],3,0.3670925000005809,0.2,0,AccAcc,34,18,Woman,Right,
3,5,1,1.7169767000013962,['c'],1,left,['3'],4,0.7182430000011664,0.2,0,AccAcc,34,18,Woman,Right,
4,5,1,1.2658845000005385,['c'],1,left,['1'],6,0.4013462000002619,0.4,0,AccAcc,34,18,Woman,Right,
5,5,1,5.015867800000706,x,-99,right,none,-99,-99,0.2,1,AccAcc,34,18,Woman,Right,
6,5,1,1.0843194000008225,['n'],1,right,['3'],4,0.93367649999891,0.2,0,AccAcc,34,18,Woman,Right,
7,5,1,0.9163542000005691,['c'],1,left,['2'],5,0.8178441000000021,0.4,0,AccAcc,34,18,Woman,Right,
8,5,1,0.8677062000006117,['n'],0,left,['2'],5,0.8676362000005611,0.1,0,AccAcc,34,18,Woman,Right,
9,5,1,0.9004095000000234,['c'],0,right,['2'],5,1.018022899999778,0.4,0,AccAcc,34,18,Woman,Right,
10,5,1,0.9500140000000101,['c'],0,right,['1'],6,0.3660736000001634,0.2,0,AccAcc,34,18,Woman,Right,
11,5,1,1.133061100001214,['n'],1,right,['1'],6,0.6832465999996202,0.4,0,AccAcc,34,18,Woman,Right,
12,5,1,0.9008997999990243,['c'],1,left,['1'],6,0.3505961999999272,0.4,0,AccAcc,34,18,Woman,Right,
13,5,1,0.9673827000005986,['c'],1,left,['1'],6,0.4503568999989511,0.1,0,AccAcc,34,18,Woman,Right,
14,5,1,1.235399099999995,['n'],1,right,['2'],5,0.7346505999994406,0.2,0,AccAcc,34,18,Woman,Right,
15,5,1,1.0005254999996396,['c'],0,right,['2'],5,0.616448800001308,0.1,0,AccAcc,34,18,Woman,Right,
16,5,1,0.8841292000015528,['c'],0,right,['3'],4,0.36715209999965737,0.1,0,AccAcc,34,18,Woman,Right,
17,5,1,0.8341799000008905,['c'],0,right,['1'],6,0.26813530000072205,0.4,0,AccAcc,34,18,Woman,Right,
18,5,1,0.8837359000008291,['n'],1,right,['1'],6,0.5668415000000095,0.4,0,AccAcc,34,18,Woman,Right,
19,5,1,0.9831429999994725,['c'],1,left,['2'],5,0.4348939000010432,0.2,0,AccAcc,34,18,Woman,Right,
20,5,1,1.500401499999498,['c'],0,right,['8'],3,0.9011418999998568,0.2,0,AccAcc,34,18,Woman,Right,
21,5,1,1.6510233000008157,['n'],1,right,['8'],3,1.0191342999987683,0.4,0,AccAcc,34,18,Woman,Right,
22,5,1,0.8669463000005635,['c'],1,left,['3'],4,0.9682754999994359,0.1,0,AccAcc,34,18,Woman,Right,
23,5,1,1.1827806000001146,['n'],1,right,['3'],4,0.6170975000004546,0.4,0,AccAcc,34,18,Woman,Right,
24,5,1,1.0007982999995875,['c'],1,left,['2'],5,0.3843630999999732,0.1,0,AccAcc,34,18,Woman,Right,
25,5,1,1.3504419999990205,['n'],1,right,['8'],3,0.28453819999958796,0.4,0,AccAcc,34,18,Woman,Right,
26,5,1,0.9830908000003546,['c'],1,left,['2'],5,0.41917800000010175,0.4,0,AccAcc,34,18,Woman,Right,
27,5,1,1.3003437999996095,['n'],1,right,['2'],5,0.8672885999985738,0.2,0,AccAcc,34,18,Woman,Right,
28,5,1,2.0157526999992115,['n'],1,right,['8'],3,0.5689641999997548,0.1,0,AccAcc,34,18,Woman,Right,
29,5,1,1.7150992999995651,['c'],1,left,['9'],2,1.2175747999990563,0.1,0,AccAcc,34,18,Woman,Right,
30,5,1,1.3514599999998609,['n'],1,right,['3'],4,0.3999607999994623,0.2,0,AccAcc,34,18,Woman,Right,
31,5,1,0.951391099999455,['c'],1,left,['3'],4,0.4170057999999699,0.2,0,AccAcc,34,18,Woman,Right,
32,5,1,1.2317775999999867,['n'],1,right,['3'],4,0.5685404999985622,0.4,0,AccAcc,34,18,Woman,Right,
33,5,1,1.1335952999997971,['c'],1,left,['2'],5,0.3678584999997838,0.1,0,AccAcc,34,18,Woman,Right,
34,5,1,0.9487750999996933,['c'],1,left,['3'],4,0.3692248000006657,0.2,0,AccAcc,34,18,Woman,Right,
35,5,1,0.8680133999987447,['c'],1,left,['2'],5,0.3180348999994749,0.1,0,AccAcc,34,18,Woman,Right,
36,5,1,0.866405400000076,['c'],1,left,['2'],5,0.4167507999991358,0.1,0,AccAcc,34,18,Woman,Right,
37,5,1,0.7180399999997462,['n'],1,right,['3'],4,0.4680078000001231,0.2,0,AccAcc,34,18,Woman,Right,
38,5,1,1.4846102999999857,['c'],0,right,['8'],3,0.7678891000014119,0.1,0,AccAcc,34,18,Woman,Right,
39,5,1,1.86676240000088,['c'],0,right,['9'],2,0.9354285999997956,0.1,0,AccAcc,34,18,Woman,Right,
40,5,1,1.5676354999995965,['n'],1,right,['8'],3,1.0846599000014976,0.2,0,AccAcc,34,18,Woman,Right,
41,5,1,1.2171745999985433,['c'],1,left,['3'],4,1.1849650000003749,0.4,0,AccAcc,34,18,Woman,Right,
42,5,1,0.8997197999997297,['c'],1,left,['2'],5,0.33470370000031835,0.4,0,AccAcc,34,18,Woman,Right,
43,5,1,1.1327903000001243,['c'],1,left,['1'],6,0.36802799999895797,0.4,0,AccAcc,34,18,Woman,Right,
44,5,1,2.166996099998869,['c'],1,left,['8'],3,0.7337704000001395,0.4,0,AccAcc,34,18,Woman,Right,
45,5,1,1.2501425000009476,['n'],1,right,['3'],4,1.0346793999997317,0.2,0,AccAcc,34,18,Woman,Right,
46,5,1,0.9507217999998829,['c'],1,left,['3'],4,0.284759899999699,0.2,0,AccAcc,34,18,Woman,Right,
47,5,1,0.8984933000010642,['n'],1,right,['3'],4,0.43397430000004533,0.1,0,AccAcc,34,18,Woman,Right,
48,5,1,1.5844008999993093,['n'],0,left,['9'],2,0.6667213999990054,0.2,0,AccAcc,34,18,Woman,Right,
49,5,1,1.0491504000001441,['n'],1,right,['9'],2,0.9181337999998505,0.1,0,AccAcc,34,18,Woman,Right,
50,5,1,1.417648200000258,['c'],1,left,['0'],1,0.48472729999957664,0.1,0,AccAcc,34,18,Woman,Right,
51,5,1,1.3986287000006996,['n'],0,left,['9'],2,0.9024355000001378,0.2,0,AccAcc,34,18,Woman,Right,
52,5,1,1.2322079999994457,['n'],1,right,['2'],5,1.0026690999984567,0.4,0,AccAcc,34,18,Woman,Right,
53,5,1,1.73226380000051,['c'],1,left,['0'],1,0.8690941000004386,0.1,0,AccAcc,34,18,Woman,Right,
54,5,1,1.5,['n'],1,right,['9'],2,0.6337247999999818,0.1,0,AccAcc,34,18,Woman,Right,
55,5,1,1.6171783000008872,['n'],0,left,['9'],2,0.5510947999991913,0.1,0,AccAcc,34,18,Woman,Right,
56,5,1,1.415016700000706,['c'],1,left,['3'],4,0.7180956000011065,0.2,0,AccAcc,34,18,Woman,Right,
57,5,1,0.8846200999996654,['c'],1,left,['2'],5,1.0179553999987547,0.4,0,AccAcc,34,18,Woman,Right,
58,5,1,1.2840343999996549,['n'],0,left,['3'],4,1.5501218999997946,0.1,0,AccAcc,34,18,Woman,Right,
59,5,1,0.8172795999998925,['n'],1,right,['3'],4,0.4832445000010921,0.4,0,AccAcc,34,18,Woman,Right,
0,6,1,0.8155335000010382,['c'],0,right,['2'],5,2.334082800000033,0.2,0,FastAcc,34,18,Woman,Right,
1,6,1,0.5005720000008296,['n'],1,right,['9'],2,1.867795500000284,0.1,0,FastAcc,34,18,Woman,Right,
2,6,1,0.7167903000008664,['n'],1,right,['3'],4,1.0847553000003245,0.4,0,FastAcc,34,18,Woman,Right,
3,6,1,0.6001519000001281,['n'],1,right,['3'],4,1.6509212000000844,0.2,0,FastAcc,34,18,Woman,Right,
4,6,1,0.5005519999995158,['c'],1,left,['2'],5,1.0182230999998865,0.4,0,FastAcc,34,18,Woman,Right,
5,6,1,0.3983666000003723,['n'],1,right,['3'],4,1.267380299999786,0.1,0,FastAcc,34,18,Woman,Right,
6,6,1,0.5679101000005176,['c'],1,left,['2'],5,1.1848052999994252,0.1,0,FastAcc,34,18,Woman,Right,
7,6,1,0.5008760999990045,['n'],1,right,['1'],6,1.067932900001324,0.2,0,FastAcc,34,18,Woman,Right,
8,6,1,0.733733700000812,['c'],0,right,['9'],2,1.3165163000012399,0.2,0,FastAcc,34,18,Woman,Right,
9,6,1,0.6496831999993447,['c'],1,left,['2'],5,1.1014420999999857,0.2,0,FastAcc,34,18,Woman,Right,
10,6,1,0.40035790000001725,['n'],0,left,['2'],5,1.1346733999998833,0.1,0,FastAcc,34,18,Woman,Right,
11,6,1,0.40097359999890614,['c'],1,left,['1'],6,0.8327792000000045,0.4,0,FastAcc,34,18,Woman,Right,
12,6,1,0.4512142000003223,['n'],1,right,['1'],6,0.7527205000005779,0.1,0,FastAcc,34,18,Woman,Right,
13,6,1,0.6997962999994343,['n'],1,right,['9'],2,1.2501261999987037,0.2,0,FastAcc,34,18,Woman,Right,
14,6,1,0.48334780000004685,['c'],1,left,['2'],5,0.9187863999995898,0.1,0,FastAcc,34,18,Woman,Right,
15,6,1,0.5997743000007176,['n'],0,left,['8'],3,1.185253300000113,0.1,0,FastAcc,34,18,Woman,Right,
16,6,1,0.5325128000004042,['c'],0,right,['8'],3,1.283861899999465,0.1,0,FastAcc,34,18,Woman,Right,
17,6,1,0.45152280000002065,['n'],0,left,['0'],1,0.9994464999999764,0.2,0,FastAcc,34,18,Woman,Right,
18,6,1,0.45180189999882714,['c'],1,left,['2'],5,0.9496364000005997,0.4,0,FastAcc,34,18,Woman,Right,
19,6,1,0.5017624000010983,['n'],1,right,['8'],3,1.383989300000394,0.1,0,FastAcc,34,18,Woman,Right,
20,6,1,0.41866029999982857,['c'],1,left,['3'],4,1.0331845000000612,0.2,0,FastAcc,34,18,Woman,Right,
21,6,1,0.398801999999705,['n'],1,right,['9'],2,1.9360114000010071,0.1,0,FastAcc,34,18,Woman,Right,
22,6,1,0.7650518999998894,['n'],1,right,['3'],4,1.0013092999997752,0.4,0,FastAcc,34,18,Woman,Right,
23,6,1,0.35162689999924623,['n'],1,right,['3'],4,1.6999930000001768,0.2,0,FastAcc,34,18,Woman,Right,
24,6,1,0.4690924000005907,['c'],0,right,['8'],3,1.5996441999996023,0.4,0,FastAcc,34,18,Woman,Right,
25,6,1,0.4828180999993492,['n'],0,left,['0'],1,0.8838685999999143,0.1,0,FastAcc,34,18,Woman,Right,
26,6,1,0.5512564000000566,['n'],1,right,['2'],5,1.1992571000009775,0.4,0,FastAcc,34,18,Woman,Right,
27,6,1,1.5667339999999967,['c'],1,left,['1'],6,1.4857907999994495,0.2,0,FastAcc,34,18,Woman,Right,
28,6,1,0.7821203000003152,['c'],0,right,['2'],5,0.6860529999994469,0.1,0,FastAcc,34,18,Woman,Right,
29,6,1,0.5166640999996162,['c'],1,left,['1'],6,0.6667220999988785,0.1,0,FastAcc,34,18,Woman,Right,
30,6,1,0.8356488999997964,['c'],0,right,['3'],4,0.9001668000000791,0.1,0,FastAcc,34,18,Woman,Right,
31,6,1,0.5833364000009169,['c'],0,right,['2'],5,0.5673717000008764,0.1,0,FastAcc,34,18,Woman,Right,
32,6,1,0.5673100000003615,['c'],1,left,['3'],4,0.8677864000001136,0.1,0,FastAcc,34,18,Woman,Right,
33,6,1,0.5338578999999299,['c'],1,left,['3'],4,0.9829948999995395,0.4,0,FastAcc,34,18,Woman,Right,
34,6,1,0.9016441000003397,['c'],0,right,['3'],4,1.3179505999996763,0.1,0,FastAcc,34,18,Woman,Right,
35,6,1,0.6828445000010106,['n'],0,left,['8'],3,1.0844940999995742,0.1,0,FastAcc,34,18,Woman,Right,
36,6,1,0.6167519999999058,['n'],1,right,['2'],5,2.634068900000784,0.4,0,FastAcc,34,18,Woman,Right,
37,6,1,0.7503205000011803,['c'],1,left,['2'],5,0.6335242000004655,0.4,0,FastAcc,34,18,Woman,Right,
38,6,1,0.7845838000012009,['c'],1,left,['2'],5,1.9334496999999828,0.4,0,FastAcc,34,18,Woman,Right,
39,6,1,0.5993562000003294,['n'],0,left,['8'],3,2.1336615000000165,0.2,0,FastAcc,34,18,Woman,Right,
40,6,1,0.6164551000001666,['c'],1,left,['9'],2,0.5856275999994978,0.1,0,FastAcc,34,18,Woman,Right,
41,6,1,0.6666623000000982,['c'],1,left,['3'],4,0.5008796999991318,0.4,0,FastAcc,34,18,Woman,Right,
42,6,1,0.5169219999988854,['n'],1,right,['3'],4,0.3340448999988439,0.2,0,FastAcc,34,18,Woman,Right,
43,6,1,1.2351106999994954,['n'],1,right,['2'],5,0.9347539999998844,0.4,0,FastAcc,34,18,Woman,Right,
44,6,1,0.8990865999985544,['c'],0,right,['8'],3,0.7504461999997147,0.4,0,FastAcc,34,18,Woman,Right,
45,6,1,0.6166763999990508,['n'],0,left,['9'],2,1.166879100001097,0.4,0,FastAcc,34,18,Woman,Right,
46,6,1,0.7009851000002527,['n'],1,right,['3'],4,1.2168380999992223,0.2,0,FastAcc,34,18,Woman,Right,
47,6,1,0.6848691000013787,['c'],1,left,['3'],4,0.532588999998552,0.2,0,FastAcc,34,18,Woman,Right,
48,6,1,0.5501194000007672,['c'],1,left,['8'],3,0.41791509999893606,0.2,0,FastAcc,34,18,Woman,Right,
49,6,1,0.7170399999995425,['n'],1,right,['2'],5,1.0348335999988194,0.4,0,FastAcc,34,18,Woman,Right,
50,6,1,0.5511777000010625,['n'],0,left,['8'],3,0.768561699998827,0.2,0,FastAcc,34,18,Woman,Right,
51,6,1,0.7994746000003943,['c'],1,left,['3'],4,1.784287399999812,0.2,0,FastAcc,34,18,Woman,Right,
52,6,1,1.0673007999994297,['n'],0,left,['9'],2,1.2846900999993522,0.2,0,FastAcc,34,18,Woman,Right,
53,6,1,0.8487922999993316,['n'],1,right,['3'],4,1.6008025999999518,0.2,0,FastAcc,34,18,Woman,Right,
54,6,1,0.9838904999996885,['n'],0,left,['9'],2,1.5678998000003048,0.1,0,FastAcc,34,18,Woman,Right,
55,6,1,0.5336774999996123,['n'],1,right,['2'],5,2.350796499998978,0.4,0,FastAcc,34,18,Woman,Right,
56,6,1,0.7845317999999679,['c'],1,left,['3'],4,1.5514225000006263,0.4,0,FastAcc,34,18,Woman,Right,
57,6,1,0.33325350000086473,['n'],0,left,['9'],2,1.3847416000007797,0.4,0,FastAcc,34,18,Woman,Right,
58,6,1,0.5511525999991136,['n'],1,right,['3'],4,1.0160257000006823,0.2,0,FastAcc,34,18,Woman,Right,
59,6,1,0.5680318999984593,['n'],1,right,['3'],4,1.2843589000003703,0.4,0,FastAcc,34,18,Woman,Right,
0,7,1,0.6992119999995339,['n'],0,left,['3'],4,0.31878469999901426,0.1,0,FastFast,34,18,Woman,Right,
1,7,1,0.5839052999999694,['n'],1,right,['3'],4,0.23357260000011593,0.4,0,FastFast,34,18,Woman,Right,
2,7,1,0.7512604999992618,['n'],0,left,['9'],2,0.3344230000002426,0.1,0,FastFast,34,18,Woman,Right,
3,7,1,0.5658966999999393,['c'],0,right,['2'],5,0.25143019999995886,0.4,0,FastFast,34,18,Woman,Right,
4,7,1,1.5665912999993452,['c'],1,left,['3'],4,1.0006095999997342,0.4,0,FastFast,34,18,Woman,Right,
5,7,1,0.7176473000017722,['c'],1,left,['3'],4,0.6003394999988814,0.4,0,FastFast,34,18,Woman,Right,
6,7,1,0.9843156999995699,['c'],1,left,['2'],5,0.7166835000007268,0.2,0,FastFast,34,18,Woman,Right,
7,7,1,0.7836573000004137,['n'],1,right,['1'],6,0.6332795999987866,0.4,0,FastFast,34,18,Woman,Right,
8,7,1,0.616364399998929,['c'],0,right,['3'],4,0.26937069999985397,0.2,0,FastFast,34,18,Woman,Right,
9,7,1,0.5333482000005461,['n'],1,right,['8'],3,0.4688618000000133,0.2,0,FastFast,34,18,Woman,Right,
10,7,1,0.6318665000017063,['c'],1,left,['3'],4,0.6522626000005403,0.2,0,FastFast,34,18,Woman,Right,
11,7,1,0.6000272000001132,['n'],1,right,['2'],5,0.3685652000003756,0.1,0,FastFast,34,18,Woman,Right,
12,7,1,0.916867199999615,['c'],0,right,['8'],3,0.7017880000003061,0.1,0,FastFast,34,18,Woman,Right,
13,7,1,0.7183499000002485,['c'],1,left,['8'],3,0.25015450000137207,0.2,0,FastFast,34,18,Woman,Right,
14,7,1,0.6501576000009663,['n'],0,left,['3'],4,0.3021989000008034,0.1,0,FastFast,34,18,Woman,Right,
15,7,1,0.9679065000000264,['c'],0,right,['0'],1,0.2500599000013608,0.2,0,FastFast,34,18,Woman,Right,
16,7,1,0.7997126000009303,['n'],1,right,['2'],5,0.801751900000454,0.4,0,FastFast,34,18,Woman,Right,
17,7,1,0.46690879999914614,['n'],1,right,['8'],3,0.5181432999997924,0.1,0,FastFast,34,18,Woman,Right,
18,7,1,0.6509767999996257,['n'],1,right,['2'],5,1.0513078000003588,0.4,0,FastFast,34,18,Woman,Right,
19,7,1,0.6154016999989835,['n'],1,right,['1'],6,0.26907980000032694,0.1,0,FastFast,34,18,Woman,Right,
20,7,1,0.833955899999637,['c'],1,left,['3'],4,0.3350102999993396,0.2,0,FastFast,34,18,Woman,Right,
21,7,1,0.6839899000005971,['c'],1,left,['1'],6,0.29948349999904167,0.1,0,FastFast,34,18,Woman,Right,
22,7,1,0.6673636000014085,['n'],1,right,['1'],6,0.4008434999996098,0.4,0,FastFast,34,18,Woman,Right,
23,7,1,0.8176879999991797,['c'],1,left,['1'],6,0.25138200000037614,0.2,0,FastFast,34,18,Woman,Right,
24,7,1,0.8836451000006491,['c'],0,right,['9'],2,0.30076159999953234,0.2,0,FastFast,34,18,Woman,Right,
25,7,1,0.6840215000011085,['c'],1,left,['2'],5,0.6012949999985722,0.2,0,FastFast,34,18,Woman,Right,
26,7,1,0.616039799999271,['c'],1,left,['2'],5,0.2528180000008433,0.4,0,FastFast,34,18,Woman,Right,
27,7,1,0.7844695000003412,['c'],1,left,['1'],6,0.318090900000243,0.4,0,FastFast,34,18,Woman,Right,
28,7,1,1.184362099998907,['c'],1,left,['2'],5,0.31694769999921846,0.2,0,FastFast,34,18,Woman,Right,
29,7,1,0.6508173000001989,['c'],1,left,['3'],4,0.2347552999999607,0.2,0,FastFast,34,18,Woman,Right,
30,7,1,0.9481184999985999,['n'],0,left,['9'],2,0.30194979999942007,0.1,0,FastFast,34,18,Woman,Right,
31,7,1,0.8843973999992158,['n'],1,right,['2'],5,0.31790319999890926,0.4,0,FastFast,34,18,Woman,Right,
32,7,1,0.6845843999999488,['c'],1,left,['2'],5,0.4348784000012529,0.4,0,FastFast,34,18,Woman,Right,
33,7,1,0.8819863999997324,['n'],1,right,['9'],2,0.38570830000026035,0.1,0,FastFast,34,18,Woman,Right,
34,7,1,0.5821791999987909,['n'],1,right,['2'],5,0.669522500000312,0.4,0,FastFast,34,18,Woman,Right,
35,7,1,0.851239200001146,['c'],1,left,['3'],4,0.3345513000003848,0.1,0,FastFast,34,18,Woman,Right,
36,7,1,0.7344482999997126,['n'],0,left,['3'],4,0.3494540000010602,0.2,0,FastFast,34,18,Woman,Right,
37,7,1,0.9681961000005685,['c'],1,left,['9'],2,0.28421049999997194,0.2,0,FastFast,34,18,Woman,Right,
38,7,1,1.1676065999999992,['c'],1,left,['8'],3,0.6835726000008435,0.2,0,FastFast,34,18,Woman,Right,
39,7,1,0.768406799999866,['n'],1,right,['3'],4,0.2507800000003044,0.4,0,FastFast,34,18,Woman,Right,
40,7,1,0.7839559000003646,['n'],1,right,['2'],5,0.2832622000005358,0.4,0,FastFast,34,18,Woman,Right,
41,7,1,0.5843937999998161,['n'],1,right,['2'],5,0.2686295000003156,0.2,0,FastFast,34,18,Woman,Right,
42,7,1,0.482701700000689,['c'],1,left,['1'],6,0.9846391999999469,0.2,0,FastFast,34,18,Woman,Right,
43,7,1,0.7177147000002151,['n'],1,right,['1'],6,0.2178146000005654,0.1,0,FastFast,34,18,Woman,Right,
44,7,1,0.7002226999993582,['c'],1,left,['1'],6,0.23311680000006163,0.4,0,FastFast,34,18,Woman,Right,
45,7,1,0.5327239999987796,['n'],1,right,['2'],5,0.48498799999833864,0.2,0,FastFast,34,18,Woman,Right,
46,7,1,0.7005000999997719,['n'],1,right,['3'],4,0.2837519999993674,0.2,0,FastFast,34,18,Woman,Right,
47,7,1,0.6674801000008301,['c'],1,left,['2'],5,0.43293699999958335,0.4,0,FastFast,34,18,Woman,Right,
48,7,1,0.569082599999092,['n'],1,right,['2'],5,0.2666121000002022,0.1,0,FastFast,34,18,Woman,Right,
49,7,1,0.6003891000000294,['c'],1,left,['3'],4,0.3327590999997483,0.1,0,FastFast,34,18,Woman,Right,
50,7,1,0.60117419999915,['n'],1,right,['3'],4,0.249235299999782,0.4,0,FastFast,34,18,Woman,Right,
51,7,1,0.7838463000007323,['c'],0,right,['3'],4,0.8507860999998229,0.2,0,FastFast,34,18,Woman,Right,
52,7,1,1.4650901000004524,['c'],0,right,['8'],3,0.3019384999988688,0.1,0,FastFast,34,18,Woman,Right,
53,7,1,1.1172194999999192,['c'],1,left,['3'],4,0.3520390000012412,0.1,0,FastFast,34,18,Woman,Right,
54,7,1,0.8658959999993385,['n'],0,left,['2'],5,0.36768580000170914,0.1,0,FastFast,34,18,Woman,Right,
55,7,1,0.6503233000003092,['n'],1,right,['2'],5,0.3346891000001051,0.4,0,FastFast,34,18,Woman,Right,
56,7,1,0.7515648000007786,['c'],0,right,['3'],4,0.24947620000057213,0.4,0,FastFast,34,18,Woman,Right,
57,7,1,0.9845282000005682,['n'],1,right,['9'],2,0.2857524999999441,0.1,0,FastFast,34,18,Woman,Right,
58,7,1,1.0836818000007042,['n'],0,left,['9'],2,0.3180642999996053,0.1,0,FastFast,34,18,Woman,Right,
59,7,1,1.0493695000004664,['c'],1,left,['3'],4,0.20201099999940197,0.1,0,FastFast,34,18,Woman,Right,
0,8,1,1.9841712999987067,['n'],1,right,['8'],3,0.8345352000014827,0.2,0,AccFast,34,18,Woman,Right,
1,8,1,1.716281799999706,['c'],1,left,['3'],4,0.21754719999989902,0.2,0,AccFast,34,18,Woman,Right,
2,8,1,1.0841846000002988,['n'],1,right,['3'],4,0.1840816999992967,0.1,0,AccFast,34,18,Woman,Right,
3,8,1,0.8171743999992032,['n'],1,right,['2'],5,0.20021389999965322,0.4,0,AccFast,34,18,Woman,Right,
4,8,1,1.0510106999990967,['c'],1,left,['1'],6,0.20144259999869973,0.4,0,AccFast,34,18,Woman,Right,
5,8,1,0.8339211000002251,['c'],1,left,['1'],6,0.2512191999994684,0.4,0,AccFast,34,18,Woman,Right,
6,8,1,1.0993858000001637,['c'],1,left,['3'],4,0.23591099999975995,0.1,0,AccFast,34,18,Woman,Right,
7,8,1,0.7824464000004809,['n'],1,right,['3'],4,0.21880220000093686,0.1,0,AccFast,34,18,Woman,Right,
8,8,1,0.8322912000003271,['c'],1,left,['2'],5,0.2517040000002453,0.1,0,AccFast,34,18,Woman,Right,
9,8,1,0.833607700000357,['c'],1,left,['1'],6,0.21846280000136176,0.4,0,AccFast,34,18,Woman,Right,
10,8,1,0.8009240999999747,['n'],1,right,['1'],6,0.2682351000003109,0.4,0,AccFast,34,18,Woman,Right,
11,8,1,0.8166872000001604,['c'],1,left,['1'],6,0.21819810000124562,0.4,0,AccFast,34,18,Woman,Right,
12,8,1,0.6849826999987272,['c'],1,left,['1'],6,0.23315390000061598,0.2,0,AccFast,34,18,Woman,Right,
13,8,1,0.8667043000004924,['n'],0,left,['3'],4,0.4186090000002878,0.1,0,AccFast,34,18,Woman,Right,
14,8,1,0.7342466999998578,['n'],1,right,['2'],5,0.5680727999988449,0.2,0,AccFast,34,18,Woman,Right,
15,8,1,0.7337700999996741,['n'],1,right,['1'],6,0.21797229999901901,0.4,0,AccFast,34,18,Woman,Right,
16,8,1,0.8661701000000903,['c'],0,right,['2'],5,0.3512343999991572,0.2,0,AccFast,34,18,Woman,Right,
17,8,1,0.7668733999998949,['n'],1,right,['3'],4,0.2337905000003957,0.2,0,AccFast,34,18,Woman,Right,
18,8,1,1.1334213000009186,['n'],0,left,['8'],3,0.20184950000111712,0.2,0,AccFast,34,18,Woman,Right,
19,8,1,0.967016299999159,['c'],1,left,['2'],5,0.234494000000268,0.4,0,AccFast,34,18,Woman,Right,
20,8,1,0.5001772999985405,['n'],1,right,['1'],6,0.2500960000015766,0.2,0,AccFast,34,18,Woman,Right,
21,8,1,0.6336963000012474,['n'],1,right,['1'],6,0.801340899999559,0.1,0,AccFast,34,18,Woman,Right,
22,8,1,1.0004330000010668,['c'],1,left,['8'],3,0.9008847000004607,0.4,0,AccFast,34,18,Woman,Right,
23,8,1,0.7493952000004356,['n'],1,right,['2'],5,0.2190783999994892,0.4,0,AccFast,34,18,Woman,Right,
24,8,1,0.8847909000014624,['c'],1,left,['2'],5,0.2004892999993899,0.4,0,AccFast,34,18,Woman,Right,
25,8,1,0.8665625000012369,['n'],0,left,['3'],4,0.2517645999996603,0.1,0,AccFast,34,18,Woman,Right,
26,8,1,0.7012780000004568,['c'],1,left,['2'],5,0.18535789999987173,0.1,0,AccFast,34,18,Woman,Right,
27,8,1,0.7347122999999556,['n'],0,left,['3'],4,0.2174989999984973,0.1,0,AccFast,34,18,Woman,Right,
28,8,1,0.8326950999999099,['n'],1,right,['2'],5,0.18545459999950253,0.4,0,AccFast,34,18,Woman,Right,
29,8,1,0.8675409999996191,['n'],1,right,['1'],6,1.2678821999998036,0.2,0,AccFast,34,18,Woman,Right,
30,8,1,0.6835257000002457,['n'],1,right,['1'],6,0.25150550000034855,0.2,0,AccFast,34,18,Woman,Right,
31,8,1,1.2665132000001904,['n'],0,left,['8'],3,0.6021743999990576,0.1,0,AccFast,34,18,Woman,Right,
32,8,1,1.4339151000003767,['n'],0,left,['9'],2,0.3348368999995728,0.1,0,AccFast,34,18,Woman,Right,
33,8,1,1.0164229999991221,['n'],0,left,['3'],4,0.15212249999967753,0.1,0,AccFast,34,18,Woman,Right,
34,8,1,0.7331607999985863,['n'],0,left,['2'],5,0.18378829999892332,0.1,0,AccFast,34,18,Woman,Right,
35,8,1,1.1178268999992724,['n'],1,right,['2'],5,0.18473960000119405,0.4,0,AccFast,34,18,Woman,Right,
36,8,1,0.8503866000010021,['n'],1,right,['3'],4,0.1683008999989397,0.4,0,AccFast,34,18,Woman,Right,
37,8,1,0.8172211000000971,['n'],1,right,['8'],3,0.20201519999864104,0.2,0,AccFast,34,18,Woman,Right,
38,8,1,0.9671483000001899,['n'],0,left,['9'],2,0.20272839999961434,0.2,0,AccFast,34,18,Woman,Right,
39,8,1,1.1006866999996419,['c'],0,right,['9'],2,0.16668009999921196,0.2,0,AccFast,34,18,Woman,Right,
40,8,1,0.8174788000014814,['n'],1,right,['3'],4,0.3514414000001125,0.4,0,AccFast,34,18,Woman,Right,
41,8,1,0.8342341000006854,['n'],1,right,['3'],4,0.16712870000083058,0.2,0,AccFast,34,18,Woman,Right,
42,8,1,1.1167004999988421,['n'],1,right,['2'],5,0.21807520000038494,0.1,0,AccFast,34,18,Woman,Right,
43,8,1,0.8336842999997316,['n'],1,right,['2'],5,0.2514357000000018,0.2,0,AccFast,34,18,Woman,Right,
44,8,1,1.034515299999839,['n'],1,right,['3'],4,0.26808660000097007,0.4,0,AccFast,34,18,Woman,Right,
45,8,1,2.2332786999995733,['n'],1,right,['3'],4,0.23489359999985027,0.2,0,AccFast,34,18,Woman,Right,
46,8,1,1.299392800001442,['c'],1,left,['3'],4,0.7170685000000958,0.1,0,AccFast,34,18,Woman,Right,
47,8,1,1.1005537000000913,['n'],1,right,['8'],3,0.20136679999995977,0.1,0,AccFast,34,18,Woman,Right,
48,8,1,0.9339941999987786,['c'],1,left,['9'],2,0.21743869999954768,0.2,0,AccFast,34,18,Woman,Right,
49,8,1,1.0832206000013684,['c'],1,left,['2'],5,0.20161109999935434,0.4,0,AccFast,34,18,Woman,Right,
50,8,1,1.533829500000138,['c'],1,left,['8'],3,0.41802629999983765,0.1,0,AccFast,34,18,Woman,Right,
51,8,1,0.8834612999999081,['c'],1,left,['3'],4,0.20136409999940952,0.2,0,AccFast,34,18,Woman,Right,
52,8,1,1.417120400001295,['n'],1,right,['3'],4,0.9003990000001068,0.1,0,AccFast,34,18,Woman,Right,
53,8,1,0.8342333999989933,['c'],0,right,['2'],5,0.11861239999961981,0.1,0,AccFast,34,18,Woman,Right,
54,8,1,1.383360799998627,['n'],1,right,['3'],4,0.25132549999943876,0.4,0,AccFast,34,18,Woman,Right,
55,8,1,0.7671516999998858,['n'],1,right,['3'],4,0.18622639999921375,0.2,0,AccFast,34,18,Woman,Right,
56,8,1,0.7820180999988224,['c'],1,left,['2'],5,0.23445580000043265,0.1,0,AccFast,34,18,Woman,Right,
57,8,1,0.8170704000003752,['c'],1,left,['2'],5,0.2680208000001585,0.4,0,AccFast,34,18,Woman,Right,
58,8,1,1.1331153999999515,['n'],0,left,['0'],1,1.383261199998742,0.4,0,AccFast,34,18,Woman,Right,
59,8,1,0.9184012999994593,['c'],1,left,['2'],5,0.26825929999904474,0.2,0,AccFast,34,18,Woman,Right,
0,9,1,3.9682040000006964,['c'],1,left,['2'],5,3.2661359000012453,0.4,0,AccAcc,34,18,Woman,Right,
1,9,1,1.9819144000011875,['n'],1,right,['8'],3,0.5357414999998582,0.1,0,AccAcc,34,18,Woman,Right,
2,9,1,1.2836210999994364,['c'],1,left,['3'],4,0.3014837999999145,0.2,0,AccAcc,34,18,Woman,Right,
3,9,1,1.7504754000001412,['n'],1,right,['8'],3,1.0336712999996962,0.1,0,AccAcc,34,18,Woman,Right,
4,9,1,0.899494199999026,['n'],1,right,['9'],2,0.7017240000004676,0.4,0,AccAcc,34,18,Woman,Right,
5,9,1,1.5823257000010926,['c'],1,left,['8'],3,2.1336145000004763,0.1,0,AccAcc,34,18,Woman,Right,
6,9,1,1.6332399999992049,['n'],0,left,['9'],2,1.8187695999986317,0.2,0,AccAcc,34,18,Woman,Right,
7,9,1,0.949060199998712,['c'],1,left,['3'],4,0.5195975999995426,0.2,0,AccAcc,34,18,Woman,Right,
8,9,1,1.500130899999931,['n'],0,left,['3'],4,0.449849800001175,0.1,0,AccAcc,34,18,Woman,Right,
9,9,1,1.283823300000222,['n'],1,right,['9'],2,0.5182870999997249,0.1,0,AccAcc,34,18,Woman,Right,
10,9,1,1.3501742999997077,['n'],1,right,['9'],2,0.8681629000002431,0.1,0,AccAcc,34,18,Woman,Right,
11,9,1,0.8000231999994867,['c'],1,left,['2'],5,0.5684673999985534,0.4,0,AccAcc,34,18,Woman,Right,
12,9,1,1.7493415999997524,['n'],0,left,['3'],4,1.202206699999806,0.2,0,AccAcc,34,18,Woman,Right,
13,9,1,0.9835567999998602,['n'],1,right,['2'],5,0.25143520000165154,0.2,0,AccAcc,34,18,Woman,Right,
14,9,1,0.9509813000004215,['n'],1,right,['3'],4,0.20011750000048778,0.1,0,AccAcc,34,18,Woman,Right,
15,9,1,0.9496912000013253,['n'],1,right,['2'],5,0.48575909999999567,0.1,0,AccAcc,34,18,Woman,Right,
16,9,1,0.6493430999998964,['c'],1,left,['2'],5,0.3687576000011177,0.4,0,AccAcc,34,18,Woman,Right,
17,9,1,0.9323756000012509,['n'],0,left,['3'],4,0.23415209999984654,0.1,0,AccAcc,34,18,Woman,Right,
18,9,1,1.468702599999233,['n'],1,right,['2'],5,0.4846287999989727,0.4,0,AccAcc,34,18,Woman,Right,
19,9,1,0.7162788000005094,['n'],1,right,['1'],6,0.2521453000008478,0.2,0,AccAcc,34,18,Woman,Right,
20,9,1,1.450460899999598,['c'],0,right,['3'],4,1.0999288000002707,0.2,0,AccAcc,34,18,Woman,Right,
21,9,1,1.301262199998746,['n'],1,right,['2'],5,0.9002094999996189,0.4,0,AccAcc,34,18,Woman,Right,
22,9,1,0.8186664999993809,['c'],1,left,['1'],6,0.31816170000092825,0.4,0,AccAcc,34,18,Woman,Right,
23,9,1,0.9840270000004239,['c'],0,right,['2'],5,0.38351109999894106,0.2,0,AccAcc,34,18,Woman,Right,
24,9,1,1.0658172000003105,['c'],1,left,['8'],3,1.002361099999689,0.1,0,AccAcc,34,18,Woman,Right,
25,9,1,0.700545300000158,['c'],0,right,['8'],3,1.1676234999995359,0.2,0,AccAcc,34,18,Woman,Right,
26,9,1,2.0812848999994458,['n'],0,left,['8'],3,1.450924799999484,0.2,0,AccAcc,34,18,Woman,Right,
27,9,1,0.8483424000005471,['c'],1,left,['3'],4,0.5847472000004927,0.2,0,AccAcc,34,18,Woman,Right,
28,9,1,0.8836489999994228,['n'],1,right,['3'],4,0.6160502999991877,0.2,0,AccAcc,34,18,Woman,Right,
29,9,1,0.8993854999989708,['c'],1,left,['2'],5,0.3520208999998431,0.1,0,AccAcc,34,18,Woman,Right,
30,9,1,1.1008705999993253,['n'],1,right,['3'],4,0.25279710000177147,0.1,0,AccAcc,34,18,Woman,Right,
31,9,1,0.783630699999776,['n'],1,right,['2'],5,0.25108670000008715,0.4,0,AccAcc,34,18,Woman,Right,
32,9,1,1.0336865000008402,['n'],1,right,['1'],6,0.36784260000058566,0.4,0,AccAcc,34,18,Woman,Right,
33,9,1,1.2494576000008237,['n'],1,right,['2'],5,0.551997599999595,0.4,0,AccAcc,34,18,Woman,Right,
34,9,1,0.9822538000007626,['n'],1,right,['3'],4,0.633594599999924,0.4,0,AccAcc,34,18,Woman,Right,
35,9,1,0.9829555000014807,['n'],1,right,['8'],3,0.8517652000009548,0.2,0,AccAcc,34,18,Woman,Right,
36,9,1,0.96634129999984,['n'],1,right,['3'],4,0.2501929999998538,0.2,0,AccAcc,34,18,Woman,Right,
37,9,1,1.0517733999986376,['c'],1,left,['1'],6,0.2513398999999481,0.4,0,AccAcc,34,18,Woman,Right,
38,9,1,1.267210799998793,['n'],0,left,['3'],4,1.134588500000973,0.1,0,AccAcc,34,18,Woman,Right,
39,9,1,0.6666380000006029,['c'],1,left,['2'],5,0.2833273000014742,0.2,0,AccAcc,34,18,Woman,Right,
40,9,1,1.1511656000002404,['n'],1,right,['8'],3,0.5827525000004243,0.2,0,AccAcc,34,18,Woman,Right,
41,9,1,0.8685065000008763,['n'],1,right,['3'],4,0.23464450000028592,0.4,0,AccAcc,34,18,Woman,Right,
42,9,1,0.983934699999736,['c'],1,left,['1'],6,0.21683669999947597,0.4,0,AccAcc,34,18,Woman,Right,
43,9,1,0.7685518999987835,['c'],1,left,['2'],5,0.2670942999993713,0.4,0,AccAcc,34,18,Woman,Right,
44,9,1,0.9514080999997532,['n'],1,right,['9'],2,0.6827984000010474,0.1,0,AccAcc,34,18,Woman,Right,
45,9,1,0.6846709000001283,['c'],1,left,['1'],6,0.299593100000493,0.2,0,AccAcc,34,18,Woman,Right,
46,9,1,0.7499936999993224,['c'],1,left,['2'],5,0.26746169999933045,0.1,0,AccAcc,34,18,Woman,Right,
47,9,1,0.5663180999999895,['c'],1,left,['2'],5,0.2675349000001006,0.2,0,AccAcc,34,18,Woman,Right,
48,9,1,0.6523121000009269,['c'],1,left,['1'],6,0.2500825999995868,0.4,0,AccAcc,34,18,Woman,Right,
49,9,1,0.7320958999989671,['c'],0,right,['1'],6,0.4849735999996483,0.1,0,AccAcc,34,18,Woman,Right,
50,9,1,0.8991745000002993,['c'],1,left,['1'],6,0.35293280000041705,0.4,0,AccAcc,34,18,Woman,Right,
51,9,1,1.181900300000052,['c'],1,left,['2'],5,0.5007088999991538,0.1,0,AccAcc,34,18,Woman,Right,
52,9,1,1.666932000000088,['c'],1,left,['9'],2,0.8348268000008829,0.1,0,AccAcc,34,18,Woman,Right,
53,9,1,1.1021117999989656,['n'],1,right,['9'],2,0.21847559999878285,0.2,0,AccAcc,34,18,Woman,Right,
54,9,1,1.9158311999999569,['c'],1,left,['2'],5,1.2520583999994415,0.1,0,AccAcc,34,18,Woman,Right,
55,9,1,1.1829022000001714,['n'],1,right,['8'],3,0.5686855000003561,0.1,0,AccAcc,34,18,Woman,Right,
56,9,1,0.6659290000006877,['c'],1,left,['2'],5,0.5194723999993585,0.4,0,AccAcc,34,18,Woman,Right,
57,9,1,1.1008576000003814,['n'],1,right,['2'],5,0.7172671999996965,0.4,0,AccAcc,34,18,Woman,Right,
58,9,1,0.8496469000001525,['n'],1,right,['2'],5,0.40005530000053113,0.4,0,AccAcc,34,18,Woman,Right,
59,9,1,0.7344988000004378,['c'],1,left,['2'],5,0.28588809999928344,0.2,0,AccAcc,34,18,Woman,Right,
0,10,1,0.8344832000002498,['c'],1,left,['8'],3,1.9513623000002553,0.4,0,FastAcc,34,18,Woman,Right,
1,10,1,0.433314199999586,['n'],0,left,['3'],4,1.7011480999990454,0.2,0,FastAcc,34,18,Woman,Right,
2,10,1,0.4338948000004166,['c'],1,left,['2'],5,0.768148299999666,0.1,0,FastAcc,34,18,Woman,Right,
3,10,1,0.4340305999994598,['n'],1,right,['2'],5,1.2514274999994086,0.1,0,FastAcc,34,18,Woman,Right,
4,10,1,0.45150269999976445,['n'],1,right,['1'],6,0.884813499998927,0.4,0,FastAcc,34,18,Woman,Right,
5,10,1,0.3677341999991768,['c'],1,left,['1'],6,1.0993123999996897,0.1,0,FastAcc,34,18,Woman,Right,
6,10,1,0.6845883000005415,['c'],1,left,['1'],6,1.8521534999999858,0.4,0,FastAcc,34,18,Woman,Right,
7,10,1,0.46799210000062885,['n'],0,left,['2'],5,1.384709500000099,0.2,0,FastAcc,34,18,Woman,Right,
8,10,1,0.40073110000048473,['n'],1,right,['8'],3,1.7012087999992218,0.2,0,FastAcc,34,18,Woman,Right,
9,10,1,0.4497197000000597,['c'],0,right,['0'],1,1.3180510999991384,0.1,0,FastAcc,34,18,Woman,Right,
10,10,1,0.45046000000002095,['c'],1,left,['2'],5,1.6671267000001535,0.1,0,FastAcc,34,18,Woman,Right,
11,10,1,0.41698379999979807,['c'],1,left,['1'],6,0.8015792999995028,0.4,0,FastAcc,34,18,Woman,Right,
12,10,1,0.3163662999995722,['n'],1,right,['1'],6,0.7347141999998712,0.4,0,FastAcc,34,18,Woman,Right,
13,10,1,0.5495906000014656,['n'],0,left,['8'],3,1.1341040000006615,0.2,0,FastAcc,34,18,Woman,Right,
14,10,1,0.5512598999994225,['n'],1,right,['2'],5,0.8177945999996155,0.2,0,FastAcc,34,18,Woman,Right,
15,10,1,0.41614539999864064,['c'],1,left,['9'],2,1.619089099998746,0.4,0,FastAcc,34,18,Woman,Right,
16,10,1,0.5171320999997988,['n'],1,right,['2'],5,0.8343263000006118,0.4,0,FastAcc,34,18,Woman,Right,
17,10,1,0.533881500001371,['n'],1,right,['2'],5,0.7021125000010215,0.1,0,FastAcc,34,18,Woman,Right,
18,10,1,0.5994884000010643,['n'],1,right,['3'],4,1.3849139000012656,0.1,0,FastAcc,34,18,Woman,Right,
19,10,1,0.500037900001189,['n'],1,right,['8'],3,1.0514996000001702,0.1,0,FastAcc,34,18,Woman,Right,
20,10,1,0.5334388999999646,['n'],1,right,['3'],4,1.0012889999998151,0.2,0,FastAcc,34,18,Woman,Right,
21,10,1,0.3828269999994518,['n'],0,left,['8'],3,1.666966400000092,0.2,0,FastAcc,34,18,Woman,Right,
22,10,1,0.45089240000015707,['c'],1,left,['2'],5,0.6846142999984295,0.4,0,FastAcc,34,18,Woman,Right,
23,10,1,0.767539399999805,['c'],1,left,['3'],4,2.1178202999999485,0.4,0,FastAcc,34,18,Woman,Right,
24,10,1,0.5841980000004696,['n'],1,right,['2'],5,1.3182442000015726,0.2,0,FastAcc,34,18,Woman,Right,
25,10,1,0.6661771999988559,['n'],1,right,['2'],5,1.8329233000004024,0.1,0,FastAcc,34,18,Woman,Right,
26,10,1,0.6846687000015663,['c'],1,left,['1'],6,1.132611500001076,0.2,0,FastAcc,34,18,Woman,Right,
27,10,1,0.5157994000001054,['n'],1,right,['2'],5,2.635888500000874,0.1,0,FastAcc,34,18,Woman,Right,
28,10,1,0.5341137000013987,['n'],1,right,['3'],4,1.4016052999995736,0.1,0,FastAcc,34,18,Woman,Right,
29,10,1,0.400438499998927,['c'],1,left,['1'],6,0.7846018000000186,0.4,0,FastAcc,34,18,Woman,Right,
30,10,1,0.6503642000006948,['c'],1,left,['1'],6,1.7011224999987462,0.4,0,FastAcc,34,18,Woman,Right,
31,10,1,0.41585549999945215,['n'],0,left,['8'],3,2.085110200001509,0.4,0,FastAcc,34,18,Woman,Right,
32,10,1,0.41666799999984505,['n'],0,left,['8'],3,2.168384699998569,0.2,0,FastAcc,34,18,Woman,Right,
33,10,1,0.43368759999975737,['c'],1,left,['3'],4,1.3512438000016118,0.1,0,FastAcc,34,18,Woman,Right,
34,10,1,0.33371420000003127,['n'],1,right,['3'],4,2.3346247999998013,0.1,0,FastAcc,34,18,Woman,Right,
35,10,1,0.4838736000001518,['c'],1,left,['2'],5,1.5512980999992578,0.1,0,FastAcc,34,18,Woman,Right,
36,10,1,0.5008925999991334,['n'],1,right,['3'],4,2.5678352000013547,0.2,0,FastAcc,34,18,Woman,Right,
37,10,1,0.6672127000001637,['c'],1,left,['2'],5,2.051216800000475,0.4,0,FastAcc,34,18,Woman,Right,
38,10,1,0.3336931000012555,['n'],1,right,['2'],5,1.801463400001012,0.1,0,FastAcc,34,18,Woman,Right,
39,10,1,0.3505747000017436,['n'],1,right,['3'],4,2.4678898000001936,0.1,0,FastAcc,34,18,Woman,Right,
40,10,1,0.45044360000065353,['n'],0,left,['8'],3,1.951528400000825,0.2,0,FastAcc,34,18,Woman,Right,
41,10,1,0.5331793999994261,['c'],1,left,['3'],4,1.3345862000005582,0.4,0,FastAcc,34,18,Woman,Right,
42,10,1,0.3505141999994521,['n'],1,right,['3'],4,1.5677998999999545,0.2,0,FastAcc,34,18,Woman,Right,
43,10,1,0.3491687000005186,['c'],1,left,['8'],3,1.6185693999996147,0.2,0,FastAcc,34,18,Woman,Right,
44,10,1,0.43349600000146893,['n'],0,left,['0'],1,1.3670368999992206,0.1,0,FastAcc,34,18,Woman,Right,
45,10,1,0.43460159999995085,['n'],1,right,['2'],5,1.2998146999998426,0.4,0,FastAcc,34,18,Woman,Right,
46,10,1,0.45031050000034156,['n'],1,right,['1'],6,0.8353016000000935,0.4,0,FastAcc,34,18,Woman,Right,
47,10,1,0.4659695999998803,['n'],0,left,['8'],3,1.6338492999984737,0.2,0,FastAcc,34,18,Woman,Right,
48,10,1,0.5180072000002838,['n'],1,right,['2'],5,1.0334985999998025,0.1,0,FastAcc,34,18,Woman,Right,
49,10,1,0.516875399998753,['n'],0,left,['3'],4,0.8343375000004016,0.2,0,FastAcc,34,18,Woman,Right,
50,10,1,0.6495140999995783,['n'],1,right,['3'],4,0.7501061000002665,0.2,0,FastAcc,34,18,Woman,Right,
51,10,1,0.5663094999999885,['n'],0,left,['2'],5,1.5687362999997276,0.4,0,FastAcc,34,18,Woman,Right,
52,10,1,0.5497785999996267,['n'],1,right,['2'],5,1.5165111000005709,0.1,0,FastAcc,34,18,Woman,Right,
53,10,1,0.38439069999913045,['n'],1,right,['2'],5,0.5679061000009824,0.4,0,FastAcc,34,18,Woman,Right,
54,10,1,0.7003979000000982,['n'],1,right,['3'],4,0.7828427999993437,0.2,0,FastAcc,34,18,Woman,Right,
55,10,1,0.5191417000005458,['n'],0,left,['3'],4,1.7346533999989333,0.1,0,FastAcc,34,18,Woman,Right,
56,10,1,0.6002334999993764,['n'],0,left,['8'],3,2.3677064000003156,0.4,0,FastAcc,34,18,Woman,Right,
57,10,1,0.5335586000001058,['n'],1,right,['2'],5,2.151177899999311,0.4,0,FastAcc,34,18,Woman,Right,
58,10,1,0.4003558999993402,['n'],1,right,['9'],2,2.184864999999263,0.2,0,FastAcc,34,18,Woman,Right,
59,10,1,0.5332222999986698,['n'],1,right,['2'],5,1.1353800000015326,0.2,0,FastAcc,34,18,Woman,Right,
0,11,1,0.8005226999994193,['n'],1,right,['8'],3,0.4180103999988205,0.4,0,FastFast,34,18,Woman,Right,
1,11,1,0.4501228999997693,['c'],1,left,['2'],5,0.40137049999975716,0.1,0,FastFast,34,18,Woman,Right,
2,11,1,0.5004896999998891,['n'],0,left,['2'],5,0.2668140999994648,0.1,0,FastFast,34,18,Woman,Right,
3,11,1,0.5338922000009916,['n'],1,right,['2'],5,0.23486009999942326,0.1,0,FastFast,34,18,Woman,Right,
4,11,1,0.7330220000003465,['n'],0,left,['8'],3,0.5666450999997323,0.2,0,FastFast,34,18,Woman,Right,
5,11,1,1.350221499998952,['c'],1,left,['9'],2,0.1838571000007505,0.1,0,FastFast,34,18,Woman,Right,
6,11,1,0.734157500000947,['c'],1,left,['9'],2,0.2347484000001714,0.4,0,FastFast,34,18,Woman,Right,
7,11,1,0.8492256000008638,['n'],0,left,['0'],1,0.25203329999931157,0.2,0,FastFast,34,18,Woman,Right,
8,11,1,0.7337453000000096,['c'],1,left,['2'],5,0.2832218000003195,0.2,0,FastFast,34,18,Woman,Right,
9,11,1,1.0341874000005191,['n'],1,right,['3'],4,0.30137439999998605,0.4,0,FastFast,34,18,Woman,Right,
10,11,1,0.717244400000709,['c'],1,left,['1'],6,0.23459210000146413,0.4,0,FastFast,34,18,Woman,Right,
11,11,1,0.6504244999996445,['c'],1,left,['2'],5,0.26657689999956347,0.2,0,FastFast,34,18,Woman,Right,
12,11,1,0.7014192000006005,['n'],1,right,['8'],3,0.21795489999931306,0.1,0,FastFast,34,18,Woman,Right,
13,11,1,0.5838459000005969,['c'],1,left,['3'],4,0.3014806999999564,0.2,0,FastFast,34,18,Woman,Right,
14,11,1,0.7002805000010994,['n'],1,right,['2'],5,0.2181564000002254,0.4,0,FastFast,34,18,Woman,Right,
15,11,1,0.6509069999992789,['n'],1,right,['8'],3,0.6845517000001564,0.2,0,FastFast,34,18,Woman,Right,
16,11,1,0.9661859000007098,['n'],1,right,['3'],4,0.23473379999995814,0.2,0,FastFast,34,18,Woman,Right,
17,11,1,0.6843451000004279,['n'],1,right,['3'],4,0.2180394000006345,0.2,0,FastFast,34,18,Woman,Right,
18,11,1,0.832893900000272,['n'],1,right,['2'],5,0.1679349000005459,0.4,0,FastFast,34,18,Woman,Right,
19,11,1,0.7497832999997627,['c'],1,left,['2'],5,0.20145580000098562,0.1,0,FastFast,34,18,Woman,Right,
20,11,1,0.8671203999983845,['n'],1,right,['8'],3,0.6512911000008899,0.1,0,FastFast,34,18,Woman,Right,
21,11,1,0.934177200000704,['c'],1,left,['9'],2,0.33541650000006484,0.1,0,FastFast,34,18,Woman,Right,
22,11,1,0.6172786999995878,['n'],0,left,['3'],4,0.31658969999989495,0.4,0,FastFast,34,18,Woman,Right,
23,11,1,0.9328015999999479,['n'],1,right,['3'],4,0.2007539000005636,0.2,0,FastFast,34,18,Woman,Right,
24,11,1,0.884267399998862,['n'],0,left,['8'],3,0.26812259999860544,0.1,0,FastFast,34,18,Woman,Right,
25,11,1,1.3005169999996724,['n'],1,right,['9'],2,0.5513577000001533,0.1,0,FastFast,34,18,Woman,Right,
26,11,1,0.9168121000002429,['n'],1,right,['9'],2,1.0018060000002151,0.2,0,FastFast,34,18,Woman,Right,
27,11,1,0.6341172000011284,['n'],1,right,['3'],4,0.334817999999359,0.1,0,FastFast,34,18,Woman,Right,
28,11,1,0.4657913999999437,['n'],1,right,['3'],4,0.18529010000020207,0.4,0,FastFast,34,18,Woman,Right,
29,11,1,0.5831983999996737,['n'],0,left,['0'],1,1.1333233000004839,0.4,0,FastFast,34,18,Woman,Right,
30,11,1,0.5677044999993086,['n'],1,right,['2'],5,0.2349530000010418,0.4,0,FastFast,34,18,Woman,Right,
31,11,1,0.6669615999999223,['c'],1,left,['3'],4,0.2182217000008677,0.2,0,FastFast,34,18,Woman,Right,
32,11,1,0.5996764999999868,['n'],1,right,['2'],5,0.2013628000004246,0.4,0,FastFast,34,18,Woman,Right,
33,11,1,0.5337650999990728,['n'],1,right,['2'],5,0.25140660000033677,0.4,0,FastFast,34,18,Woman,Right,
34,11,1,0.6838951999998244,['c'],1,left,['2'],5,0.151745099999971,0.1,0,FastFast,34,18,Woman,Right,
35,11,1,0.5506246999993891,['n'],1,right,['2'],5,0.21710699999857752,0.4,0,FastFast,34,18,Woman,Right,
36,11,1,0.6344833000002836,['c'],1,left,['2'],5,0.18469200000072306,0.2,0,FastFast,34,18,Woman,Right,
37,11,1,0.7650188999996317,['n'],1,right,['1'],6,0.2023200999992696,0.4,0,FastFast,34,18,Woman,Right,
38,11,1,0.6002054000000498,['c'],1,left,['1'],6,0.18494400000054156,0.1,0,FastFast,34,18,Woman,Right,
39,11,1,0.5668703999999707,['c'],1,left,['1'],6,0.21814120000090043,0.4,0,FastFast,34,18,Woman,Right,
40,11,1,0.7673191000012594,['c'],1,left,['2'],5,0.7346591999994416,0.1,0,FastFast,34,18,Woman,Right,
41,11,1,0.617003699999259,['c'],1,left,['1'],6,0.21826900000087335,0.4,0,FastFast,34,18,Woman,Right,
42,11,1,0.5501963000006072,['c'],1,left,['1'],6,0.251566200000525,0.1,0,FastFast,34,18,Woman,Right,
43,11,1,0.7507850999991206,['c'],0,right,['9'],2,1.1836719999992056,0.2,0,FastFast,34,18,Woman,Right,
44,11,1,0.8007897000006778,['c'],1,left,['2'],5,0.20120329999917885,0.2,0,FastFast,34,18,Woman,Right,
45,11,1,0.6004807999997865,['n'],1,right,['3'],4,0.6513368999985687,0.4,0,FastFast,34,18,Woman,Right,
46,11,1,0.6993846999994275,['c'],0,right,['9'],2,0.9168587000003754,0.1,0,FastFast,34,18,Woman,Right,
47,11,1,0.8820883999997022,['n'],0,left,['8'],3,1.3027991999988444,0.2,0,FastFast,34,18,Woman,Right,
48,11,1,0.616133900000932,['n'],1,right,['2'],5,0.2001402000005328,0.2,0,FastFast,34,18,Woman,Right,
49,11,1,1.050365500001135,['n'],1,right,['3'],4,0.21814960000119754,0.1,0,FastFast,34,18,Woman,Right,
50,11,1,0.7659845000016503,['n'],1,right,['8'],3,0.801823300000251,0.1,0,FastFast,34,18,Woman,Right,
51,11,1,0.5505358999998862,['n'],1,right,['2'],5,0.25134240000079444,0.1,0,FastFast,34,18,Woman,Right,
52,11,1,0.4340159000003041,['n'],0,left,['8'],3,0.8513954999998532,0.2,0,FastFast,34,18,Woman,Right,
53,11,1,1.1502903000000515,['n'],1,right,['3'],4,0.7013675999987754,0.4,0,FastFast,34,18,Woman,Right,
54,11,1,0.7819481000005908,['c'],1,left,['3'],4,0.4182046999994782,0.4,0,FastFast,34,18,Woman,Right,
55,11,1,0.8676689999992959,['n'],1,right,['3'],4,0.5180526000003738,0.2,0,FastFast,34,18,Woman,Right,
56,11,1,0.6674889000005351,['n'],1,right,['2'],5,0.1848162999995111,0.2,0,FastFast,34,18,Woman,Right,
57,11,1,1.0337737000008929,['c'],1,left,['8'],3,0.26739830000042275,0.4,0,FastFast,34,18,Woman,Right,
58,11,1,0.5840858999999909,['n'],0,left,['2'],5,0.1835893000006763,0.2,0,FastFast,34,18,Woman,Right,
59,11,1,0.6838905000004161,['c'],1,left,['8'],3,0.25122820000069623,0.1,0,FastFast,34,18,Woman,Right,
0,12,1,2.584577100000388,['n'],1,right,['2'],5,0.2354512000001705,0.2,0,AccFast,34,18,Woman,Right,
1,12,1,1.8009010999994643,['n'],0,left,['2'],5,0.13497470000038447,0.1,0,AccFast,34,18,Woman,Right,
2,12,1,0.8171686000005138,['n'],1,right,['2'],5,0.16800749999856635,0.4,0,AccFast,34,18,Woman,Right,
3,12,1,1.1003323000004457,['c'],1,left,['1'],6,0.20124009999926784,0.1,0,AccFast,34,18,Woman,Right,
4,12,1,0.9680661999991571,['n'],1,right,['3'],4,0.18480810000073689,0.2,0,AccFast,34,18,Woman,Right,
5,12,1,1.0650755999995454,['c'],1,left,['1'],6,0.1860696999992797,0.4,0,AccFast,34,18,Woman,Right,
6,12,1,0.9990562000002683,['n'],1,right,['1'],6,0.23604900000100315,0.2,0,AccFast,34,18,Woman,Right,
7,12,1,0.8665254000006826,['c'],1,left,['8'],3,1.3010849000002054,0.4,0,AccFast,34,18,Woman,Right,
8,12,1,0.9833163999992394,['n'],1,right,['2'],5,0.18574069999885978,0.2,0,AccFast,34,18,Woman,Right,
9,12,1,1.8337661000005028,['n'],1,right,['1'],6,0.1675625999996555,0.4,0,AccFast,34,18,Woman,Right,
10,12,1,1.250494300000355,['c'],0,right,['9'],2,0.21800679999978456,0.2,0,AccFast,34,18,Woman,Right,
11,12,1,0.7172418999998627,['n'],0,left,['9'],2,0.20140709999941464,0.1,0,AccFast,34,18,Woman,Right,
12,12,1,1.1331203999998252,['c'],0,right,['8'],3,0.4346784999997908,0.1,0,AccFast,34,18,Woman,Right,
13,12,1,0.9339607000001706,['n'],1,right,['3'],4,0.1681800000005751,0.1,0,AccFast,34,18,Woman,Right,
14,12,1,0.9499708999992436,['c'],1,left,['3'],4,0.1681074999996781,0.1,0,AccFast,34,18,Woman,Right,
15,12,1,0.8838986999999179,['c'],1,left,['2'],5,0.13459229999898525,0.4,0,AccFast,34,18,Woman,Right,
16,12,1,1.0508943000004365,['n'],1,right,['2'],5,0.21790080000027956,0.2,0,AccFast,34,18,Woman,Right,
17,12,1,0.6839221000009275,['c'],1,left,['2'],5,0.30135490000066056,0.2,0,AccFast,34,18,Woman,Right,
18,12,1,0.949022500000865,['n'],0,left,['9'],2,0.2521552999987762,0.2,0,AccFast,34,18,Woman,Right,
19,12,1,0.617540100000042,['c'],1,left,['9'],2,0.267969999998968,0.1,0,AccFast,34,18,Woman,Right,
20,12,1,0.9005182000000787,['c'],1,left,['2'],5,0.20002759999988484,0.1,0,AccFast,34,18,Woman,Right,
21,12,1,0.7676002000007429,['c'],1,left,['1'],6,0.18466990000160877,0.4,0,AccFast,34,18,Woman,Right,
22,12,1,0.6343182000000525,['c'],1,left,['2'],5,0.21837739999864425,0.1,0,AccFast,34,18,Woman,Right,
23,12,1,1.0826357000005373,['n'],1,right,['3'],4,0.25199830000019574,0.1,0,AccFast,34,18,Woman,Right,
24,12,1,0.7506300999993982,['n'],0,left,['2'],5,0.18428859999949054,0.1,0,AccFast,34,18,Woman,Right,
25,12,1,0.7676126999995176,['n'],1,right,['9'],2,0.3350136000008206,0.1,0,AccFast,34,18,Woman,Right,
26,12,1,0.8157035000003816,['c'],1,left,['3'],4,0.2854151000010461,0.1,0,AccFast,34,18,Woman,Right,
27,12,1,0.5497236999999586,['n'],0,left,['3'],4,0.20141979999971227,0.2,0,AccFast,34,18,Woman,Right,
28,12,1,0.8335531000011542,['n'],1,right,['2'],5,0.23475820000021486,0.4,0,AccFast,34,18,Woman,Right,
29,12,1,0.733535600000323,['c'],1,left,['2'],5,0.20134890000008454,0.4,0,AccFast,34,18,Woman,Right,
30,12,1,0.6151895000002696,['n'],1,right,['3'],4,0.2197204000003694,0.2,0,AccFast,34,18,Woman,Right,
31,12,1,0.7831260000002658,['c'],1,left,['3'],4,0.15135709999958635,0.2,0,AccFast,34,18,Woman,Right,
32,12,1,1.300046199999997,['n'],1,right,['3'],4,0.2006768999999622,0.2,0,AccFast,34,18,Woman,Right,
33,12,1,0.8505159000014828,['c'],1,left,['2'],5,0.20135290000143868,0.4,0,AccFast,34,18,Woman,Right,
34,12,1,1.6837060999987443,['c'],1,left,['1'],6,0.18427320000046166,0.2,0,AccFast,34,18,Woman,Right,
35,12,1,1.065984100001515,['n'],1,right,['1'],6,0.20152369999959774,0.2,0,AccFast,34,18,Woman,Right,
36,12,1,1.0503554999995686,['n'],1,right,['8'],3,0.2176990999996633,0.1,0,AccFast,34,18,Woman,Right,
37,12,1,0.8012750999987475,['n'],1,right,['2'],5,0.16671930000120483,0.4,0,AccFast,34,18,Woman,Right,
38,12,1,0.7668940999992628,['c'],1,left,['1'],6,0.1847736999989138,0.4,0,AccFast,34,18,Woman,Right,
39,12,1,0.8839462000014464,['n'],1,right,['2'],5,0.20135010000012699,0.4,0,AccFast,34,18,Woman,Right,
40,12,1,0.7999766000011732,['c'],1,left,['1'],6,0.16699010000047565,0.1,0,AccFast,34,18,Woman,Right,
41,12,1,0.6509386000016093,['n'],1,right,['2'],5,0.2015899999987596,0.2,0,AccFast,34,18,Woman,Right,
42,12,1,0.8169538000001921,['n'],1,right,['1'],6,0.20149840000158292,0.1,0,AccFast,34,18,Woman,Right,
43,12,1,0.6670416000015393,['n'],1,right,['1'],6,0.5182365000000573,0.4,0,AccFast,34,18,Woman,Right,
44,12,1,1.0670002999995631,['c'],1,left,['2'],5,0.2514283999989857,0.4,0,AccFast,34,18,Woman,Right,
45,12,1,0.8839248999993288,['n'],1,right,['8'],3,0.2846930000014254,0.2,0,AccFast,34,18,Woman,Right,
46,12,1,1.0152771000011853,['c'],1,left,['3'],4,0.21887749999950756,0.1,0,AccFast,34,18,Woman,Right,
47,12,1,0.783881499999552,['n'],1,right,['2'],5,0.18488340000112657,0.2,0,AccFast,34,18,Woman,Right,
48,12,1,0.8828856999989512,['c'],1,left,['2'],5,0.16867920000004233,0.2,0,AccFast,34,18,Woman,Right,
49,12,1,0.6170303999988391,['n'],1,right,['2'],5,0.2680285000005824,0.4,0,AccFast,34,18,Woman,Right,
50,12,1,0.6002681999998458,['n'],1,right,['2'],5,0.2020264999991923,0.4,0,AccFast,34,18,Woman,Right,
51,12,1,0.7002711000004638,['n'],1,right,['2'],5,0.2166813000003458,0.4,0,AccFast,34,18,Woman,Right,
52,12,1,0.7837577000009333,['c'],1,left,['2'],5,0.2180876000002172,0.2,0,AccFast,34,18,Woman,Right,
53,12,1,0.6503179000010277,['c'],1,left,['3'],4,0.20090309999977762,0.4,0,AccFast,34,18,Woman,Right,
54,12,1,0.6678855999998632,['c'],1,left,['3'],4,0.2683211999992636,0.4,0,AccFast,34,18,Woman,Right,
55,12,1,0.7838267000006454,['c'],1,left,['2'],5,0.23252900000079535,0.4,0,AccFast,34,18,Woman,Right,
56,12,1,0.685594200000196,['c'],1,left,['2'],5,0.16811289999895962,0.1,0,AccFast,34,18,Woman,Right,
57,12,1,0.6005528000005143,['n'],1,right,['2'],5,0.3014160999991873,0.1,0,AccFast,34,18,Woman,Right,
58,12,1,0.7149995999989187,['c'],0,right,['8'],3,0.219207500000266,0.2,0,AccFast,34,18,Woman,Right,
59,12,1,0.5001924999996845,['n'],1,right,['3'],4,0.18468279999979131,0.1,0,AccFast,34,18,Woman,Right,
0,13,1,2.3825792000006913,['n'],1,right,['2'],5,1.017541400000482,0.2,0,AccAcc,34,18,Woman,Right,
1,13,1,1.1672473999988142,['c'],1,left,['2'],5,0.9344848000000638,0.2,0,AccAcc,34,18,Woman,Right,
2,13,1,0.9839808000015182,['n'],1,right,['1'],6,0.25120720000086294,0.4,0,AccAcc,34,18,Woman,Right,
3,13,1,1.0171226000002207,['n'],1,right,['8'],3,0.5512109000010241,0.1,0,AccAcc,34,18,Woman,Right,
4,13,1,0.8342219999994995,['n'],1,right,['3'],4,0.30160220000107074,0.1,0,AccAcc,34,18,Woman,Right,
5,13,1,1.1339723000000959,['n'],1,right,['3'],4,0.6334594999989349,0.4,0,AccAcc,34,18,Woman,Right,
6,13,1,0.8170439999994414,['n'],1,right,['2'],5,0.2668489000006957,0.4,0,AccAcc,34,18,Woman,Right,
7,13,1,1.067367199999353,['n'],0,left,['8'],3,1.101325599998745,0.2,0,AccAcc,34,18,Woman,Right,
8,13,1,0.7659658000011405,['n'],1,right,['1'],6,0.5858894000011787,0.4,0,AccAcc,34,18,Woman,Right,
9,13,1,1.033719499999279,['c'],1,left,['2'],5,1.2178380000004836,0.1,0,AccAcc,34,18,Woman,Right,
10,13,1,0.8162420999997266,['c'],1,left,['1'],6,0.31812729999910516,0.4,0,AccAcc,34,18,Woman,Right,
11,13,1,0.7338818999996874,['c'],1,left,['1'],6,0.3166107999986707,0.4,0,AccAcc,34,18,Woman,Right,
12,13,1,0.7841484000000492,['n'],1,right,['2'],5,0.2513846999991074,0.4,0,AccAcc,34,18,Woman,Right,
13,13,1,0.8010470999997779,['c'],1,left,['1'],6,0.2682072000006883,0.2,0,AccAcc,34,18,Woman,Right,
14,13,1,0.950499900000068,['c'],1,left,['2'],5,1.1512235999998666,0.4,0,AccAcc,34,18,Woman,Right,
15,13,1,1.4007956999994349,['n'],1,right,['3'],4,1.050628200000574,0.2,0,AccAcc,34,18,Woman,Right,
16,13,1,1.0172701999999845,['n'],0,left,['3'],4,1.084547400001611,0.1,0,AccAcc,34,18,Woman,Right,
17,13,1,1.100506900000255,['n'],1,right,['3'],4,1.184473799999978,0.1,0,AccAcc,34,18,Woman,Right,
18,13,1,0.9664928999991389,['n'],1,right,['8'],3,1.9677496000003885,0.2,0,AccAcc,34,18,Woman,Right,
19,13,1,1.516856899999766,['n'],1,right,['3'],4,0.7685010000004695,0.2,0,AccAcc,34,18,Woman,Right,
20,13,1,1.3837283000011666,['n'],0,left,['3'],4,0.45001140000022133,0.1,0,AccAcc,34,18,Woman,Right,
21,13,1,1.484088499999416,['c'],1,left,['9'],2,0.9680064999993192,0.1,0,AccAcc,34,18,Woman,Right,
22,13,1,1.5839534000006097,['c'],1,left,['9'],2,1.0012200999990455,0.2,0,AccAcc,34,18,Woman,Right,
23,13,1,0.8329442999984167,['n'],0,left,['0'],1,0.9846098999987589,0.4,0,AccAcc,34,18,Woman,Right,
24,13,1,0.8337534000002051,['c'],1,left,['2'],5,2.0515302999992855,0.2,0,AccAcc,34,18,Woman,Right,
25,13,1,1.4163736000009521,['c'],1,left,['3'],4,0.7660116000006383,0.4,0,AccAcc,34,18,Woman,Right,
26,13,1,1.2182902000004106,['n'],1,right,['8'],3,1.0180830999997852,0.1,0,AccAcc,34,18,Woman,Right,
27,13,1,1.5161196999997628,['c'],0,right,['8'],3,1.8183238999990863,0.2,0,AccAcc,34,18,Woman,Right,
28,13,1,1.5501641999999265,['n'],1,right,['3'],4,1.1005494000000908,0.4,0,AccAcc,34,18,Woman,Right,
29,13,1,0.8831804999990709,['c'],1,left,['2'],5,0.934610899999825,0.4,0,AccAcc,34,18,Woman,Right,
30,13,1,1.5495749000001524,['n'],0,left,['3'],4,2.450991800000338,0.1,0,AccAcc,34,18,Woman,Right,
31,13,1,1.2676730000002863,['n'],1,right,['8'],3,1.1679944999996223,0.1,0,AccAcc,34,18,Woman,Right,
32,13,1,1.199856400000499,['n'],1,right,['2'],5,0.5348653999990347,0.4,0,AccAcc,34,18,Woman,Right,
33,13,1,1.0820268000006763,['c'],1,left,['1'],6,1.7841396000003442,0.4,0,AccAcc,34,18,Woman,Right,
34,13,1,1.2184849999994185,['c'],0,right,['2'],5,1.6677010000003065,0.2,0,AccAcc,34,18,Woman,Right,
35,13,1,1.382723900000201,['c'],1,left,['3'],4,0.7688696999994136,0.1,0,AccAcc,34,18,Woman,Right,
36,13,1,1.0330071999997017,['c'],0,right,['8'],3,0.9011494000005769,0.1,0,AccAcc,34,18,Woman,Right,
37,13,1,1.2342403999991802,['n'],0,left,['9'],2,0.8346985999996832,0.1,0,AccAcc,34,18,Woman,Right,
38,13,1,0.6338481999991927,['c'],1,left,['3'],4,0.5845176999991963,0.1,0,AccAcc,34,18,Woman,Right,
39,13,1,0.8005098999983602,['n'],1,right,['3'],4,1.8344804999996995,0.2,0,AccAcc,34,18,Woman,Right,
40,13,1,0.8659774999996444,['n'],1,right,['8'],3,0.6022897000002558,0.2,0,AccAcc,34,18,Woman,Right,
41,13,1,0.916345800000272,['c'],1,left,['3'],4,1.034589099999721,0.1,0,AccAcc,34,18,Woman,Right,
42,13,1,0.8493607999989763,['c'],1,left,['2'],5,0.7850182000001951,0.2,0,AccAcc,34,18,Woman,Right,
43,13,1,0.8176352999998926,['n'],1,right,['3'],4,0.1999695000013162,0.1,0,AccAcc,34,18,Woman,Right,
44,13,1,1.1831547000001592,['n'],1,right,['9'],2,0.21812230000068666,0.1,0,AccAcc,34,18,Woman,Right,
45,13,1,1.3015967999999702,['n'],1,right,['0'],1,1.0012918000011268,0.4,0,AccAcc,34,18,Woman,Right,
46,13,1,0.8347846000015124,['c'],1,left,['2'],5,0.7511337000014464,0.4,0,AccAcc,34,18,Woman,Right,
47,13,1,0.8837970000004134,['c'],1,left,['3'],4,0.6015265999994881,0.2,0,AccAcc,34,18,Woman,Right,
48,13,1,0.6651369999999588,['c'],1,left,['2'],5,0.30285860000003595,0.4,0,AccAcc,34,18,Woman,Right,
49,13,1,0.9169861000009405,['c'],1,left,['2'],5,0.28421809999963443,0.2,0,AccAcc,34,18,Woman,Right,
50,13,1,1.067180300000473,['c'],1,left,['1'],6,0.9679979000011372,0.2,0,AccAcc,34,18,Woman,Right,
51,13,1,1.8994431999999506,['n'],1,right,['3'],4,1.0515183999996225,0.2,0,AccAcc,34,18,Woman,Right,
52,13,1,0.8831814999994094,['n'],1,right,['3'],4,0.48479740000038873,0.4,0,AccAcc,34,18,Woman,Right,
53,13,1,1.6334537000002456,['n'],1,right,['3'],4,0.6512652000001253,0.4,0,AccAcc,34,18,Woman,Right,
54,13,1,1.4671385000001465,['n'],1,right,['2'],5,1.2010879999997996,0.1,0,AccAcc,34,18,Woman,Right,
55,13,1,1.5656838000013522,['n'],0,left,['8'],3,0.951758900000641,0.2,0,AccAcc,34,18,Woman,Right,
56,13,1,0.833781799999997,['c'],1,left,['2'],5,0.4676693000001251,0.4,0,AccAcc,34,18,Woman,Right,
57,13,1,2.532313699999577,['n'],1,right,['9'],2,0.9690601999991486,0.1,0,AccAcc,34,18,Woman,Right,
58,13,1,1.3006774999994377,['n'],0,left,['0'],1,0.39956359999996494,0.1,0,AccAcc,34,18,Woman,Right,
59,13,1,1.318876999999702,['n'],1,right,['8'],3,1.134586299998773,0.2,0,AccAcc,34,18,Woman,Right,
0,14,1,0.7010489000003872,['n'],1,right,['3'],4,1.8345749999989494,0.4,0,FastAcc,34,18,Woman,Right,
1,14,1,0.38430890000017826,['c'],1,left,['2'],5,1.3512408000005962,0.4,0,FastAcc,34,18,Woman,Right,
2,14,1,0.33442660000036994,['n'],1,right,['2'],5,0.86791009999979,0.1,0,FastAcc,34,18,Woman,Right,
3,14,1,0.5155556999998225,['c'],1,left,['1'],6,0.7190128000002005,0.4,0,FastAcc,34,18,Woman,Right,
4,14,1,0.31517949999943085,['n'],1,right,['3'],4,2.269543300000805,0.2,0,FastAcc,34,18,Woman,Right,
5,14,1,0.38376790000074834,['c'],1,left,['2'],5,1.00117020000107,0.4,0,FastAcc,34,18,Woman,Right,
6,14,1,0.3839676000006875,['n'],1,right,['2'],5,1.5012060000008205,0.1,0,FastAcc,34,18,Woman,Right,
7,14,1,0.517184599999382,['n'],1,right,['2'],5,0.834619000001112,0.4,0,FastAcc,34,18,Woman,Right,
8,14,1,0.6006285999992542,['c'],0,right,['8'],3,1.5507832999992388,0.2,0,FastAcc,34,18,Woman,Right,
9,14,1,0.4987166000009893,['n'],1,right,['8'],3,1.9852840000003198,0.1,0,FastAcc,34,18,Woman,Right,
10,14,1,0.6168734000002587,['c'],1,left,['3'],4,1.7177934999999707,0.1,0,FastAcc,34,18,Woman,Right,
11,14,1,0.45047990000057325,['n'],0,left,['9'],2,1.6687610000008135,0.4,0,FastAcc,34,18,Woman,Right,
12,14,1,0.45059219999893685,['c'],1,left,['3'],4,1.4668001999998523,0.2,0,FastAcc,34,18,Woman,Right,
13,14,1,0.4010616999985359,['n'],0,left,['0'],1,0.9346088000002055,0.4,0,FastAcc,34,18,Woman,Right,
14,14,1,0.7672542999989673,['n'],1,right,['2'],5,1.4009427999990294,0.2,0,FastAcc,34,18,Woman,Right,
15,14,1,0.499680900000385,['c'],1,left,['2'],5,1.6680519000001368,0.4,0,FastAcc,34,18,Woman,Right,
16,14,1,0.533876199999213,['c'],1,left,['1'],6,0.8180214999993041,0.2,0,FastAcc,34,18,Woman,Right,
17,14,1,0.6840488999987429,['n'],1,right,['8'],3,1.2844358999991528,0.1,0,FastAcc,34,18,Woman,Right,
18,14,1,0.4335475999996561,['c'],1,left,['2'],5,0.8850870000005671,0.4,0,FastAcc,34,18,Woman,Right,
19,14,1,0.4670650999996724,['n'],0,left,['9'],2,1.2849265999993804,0.1,0,FastAcc,34,18,Woman,Right,
20,14,1,0.33378040000025067,['c'],0,right,['0'],1,1.0179208000008657,0.4,0,FastAcc,34,18,Woman,Right,
21,14,1,0.5669727000004059,['n'],0,left,['0'],1,0.9179874000001291,0.2,0,FastAcc,34,18,Woman,Right,
22,14,1,0.5840572000015527,['n'],1,right,['3'],4,1.5171871999991708,0.4,0,FastAcc,34,18,Woman,Right,
23,14,1,0.5817435000008118,['c'],1,left,['1'],6,1.0195609999991575,0.4,0,FastAcc,34,18,Woman,Right,
24,14,1,0.749687300000005,['n'],0,left,['9'],2,1.3346130999998422,0.1,0,FastAcc,34,18,Woman,Right,
25,14,1,0.5672190000004775,['n'],1,right,['3'],4,2.9011133999993035,0.4,0,FastAcc,34,18,Woman,Right,
26,14,1,0.667243599998983,['c'],1,left,['2'],5,2.3676950999997644,0.2,0,FastAcc,34,18,Woman,Right,
27,14,1,0.48405210000055376,['n'],0,left,['8'],3,1.5514798999993218,0.1,0,FastAcc,34,18,Woman,Right,
28,14,1,0.5836643000002368,['n'],1,right,['9'],2,0.868144800000664,0.2,0,FastAcc,34,18,Woman,Right,
29,14,1,0.5328018999989581,['c'],1,left,['8'],3,1.1852010000002338,0.1,0,FastAcc,34,18,Woman,Right,
30,14,1,0.7682276000014099,['n'],1,right,['8'],3,1.1503296999999293,0.2,0,FastAcc,34,18,Woman,Right,
31,14,1,1.0668949000009889,['n'],1,right,['3'],4,1.3516573999986576,0.2,0,FastAcc,34,18,Woman,Right,
32,14,1,0.4174172999992152,['c'],0,right,['8'],3,0.9686265000000276,0.2,0,FastAcc,34,18,Woman,Right,
33,14,1,0.8836364999988291,['n'],0,left,['8'],3,1.1339552999997977,0.4,0,FastAcc,34,18,Woman,Right,
34,14,1,0.4340453000004345,['c'],1,left,['3'],4,0.6185064000001148,0.2,0,FastAcc,34,18,Woman,Right,
35,14,1,0.5172259999999369,['n'],0,left,['3'],4,0.499967600000673,0.2,0,FastAcc,34,18,Woman,Right,
36,14,1,0.7000559999996767,['n'],1,right,['8'],3,0.6184938000005786,0.1,0,FastAcc,34,18,Woman,Right,
37,14,1,0.68367870000111,['c'],1,left,['3'],4,0.2848565999993298,0.1,0,FastAcc,34,18,Woman,Right,
38,14,1,0.6502166999998735,['n'],1,right,['8'],3,1.7330782000008185,0.1,0,FastAcc,34,18,Woman,Right,
39,14,1,0.35121759999856295,['n'],1,right,['9'],2,1.4346375999994052,0.1,0,FastAcc,34,18,Woman,Right,
40,14,1,0.5003864000009344,['n'],1,right,['8'],3,2.3849049000000377,0.2,0,FastAcc,34,18,Woman,Right,
41,14,1,0.48449280000022554,['n'],0,left,['0'],1,2.134172199999739,0.1,0,FastAcc,34,18,Woman,Right,
42,14,1,0.5484216999993805,['n'],0,left,['3'],4,1.969396599999527,0.1,0,FastAcc,34,18,Woman,Right,
43,14,1,0.583290800001123,['c'],1,left,['2'],5,0.9172718000008899,0.2,0,FastAcc,34,18,Woman,Right,
44,14,1,0.8677932000009605,['c'],1,left,['1'],6,1.9845443000012892,0.2,0,FastAcc,34,18,Woman,Right,
45,14,1,0.6007964000000356,['c'],1,left,['8'],3,1.4683134999995673,0.1,0,FastAcc,34,18,Woman,Right,
46,14,1,0.5331203000005189,['n'],1,right,['9'],2,1.117734699999346,0.2,0,FastAcc,34,18,Woman,Right,
47,14,1,0.6163368999987142,['c'],0,right,['3'],4,0.7522035000001779,0.1,0,FastAcc,34,18,Woman,Right,
48,14,1,0.632534599999417,['c'],1,left,['3'],4,0.701413999999204,0.1,0,FastAcc,34,18,Woman,Right,
49,14,1,0.6005086999994091,['n'],1,right,['2'],5,0.618063500000062,0.4,0,FastAcc,34,18,Woman,Right,
50,14,1,0.5172660000007454,['n'],1,right,['3'],4,1.1002122999998392,0.4,0,FastAcc,34,18,Woman,Right,
51,14,1,0.5496837999999116,['n'],1,right,['2'],5,1.0013844999994035,0.2,0,FastAcc,34,18,Woman,Right,
52,14,1,0.8161015999994561,['n'],1,right,['8'],3,1.0014711000003444,0.2,0,FastAcc,34,18,Woman,Right,
53,14,1,0.6151762000008603,['n'],1,right,['3'],4,0.6188674999993964,0.4,0,FastAcc,34,18,Woman,Right,
54,14,1,0.7664192000011099,['c'],1,left,['3'],4,0.8350719999998546,0.1,0,FastAcc,34,18,Woman,Right,
55,14,1,0.8172864999996818,['n'],1,right,['8'],3,2.4845418999993854,0.4,0,FastAcc,34,18,Woman,Right,
56,14,1,0.4825199999995675,['c'],1,left,['2'],5,1.2524632000004203,0.4,0,FastAcc,34,18,Woman,Right,
57,14,1,0.4827808999998524,['n'],1,right,['8'],3,2.067624799999976,0.1,0,FastAcc,34,18,Woman,Right,
58,14,1,0.4315016000000469,['n'],1,right,['3'],4,2.0690161000002263,0.4,0,FastAcc,34,18,Woman,Right,
59,14,1,0.6173645999988366,['c'],1,left,['2'],5,0.8186669000006077,0.2,0,FastAcc,34,18,Woman,Right,
0,15,1,0.7010884999999689,['c'],1,left,['3'],4,0.267967799998587,0.1,0,FastFast,34,18,Woman,Right,
1,15,1,0.551106399998389,['n'],1,right,['3'],4,0.2680263999991439,0.1,0,FastFast,34,18,Woman,Right,
2,15,1,0.567316500000743,['c'],1,left,['2'],5,0.1681403999991744,0.1,0,FastFast,34,18,Woman,Right,
3,15,1,0.5004783000003954,['n'],1,right,['2'],5,0.26671750000059546,0.2,0,FastFast,34,18,Woman,Right,
4,15,1,0.5333804999991116,['n'],1,right,['3'],4,0.5688723999992362,0.4,0,FastFast,34,18,Woman,Right,
5,15,1,0.5319156000005023,['n'],1,right,['8'],3,0.3688806999998633,0.2,0,FastFast,34,18,Woman,Right,
6,15,1,0.816295499998887,['n'],1,right,['3'],4,0.1681581000011647,0.2,0,FastFast,34,18,Woman,Right,
7,15,1,0.5838544999987789,['c'],1,left,['2'],5,0.20136149999962072,0.4,0,FastFast,34,18,Woman,Right,
8,15,1,0.6654204000005848,['n'],1,right,['1'],6,0.2691763999991963,0.1,0,FastFast,34,18,Woman,Right,
9,15,1,0.9843980000005104,['c'],0,right,['8'],3,0.65135569999984,0.1,0,FastFast,34,18,Woman,Right,
10,15,1,0.9175320000013016,['n'],1,right,['3'],4,0.20139209999979357,0.4,0,FastFast,34,18,Woman,Right,
11,15,1,0.7502356000004511,['c'],1,left,['3'],4,0.20171250000021246,0.1,0,FastFast,34,18,Woman,Right,
12,15,1,0.8003692000002047,['c'],1,left,['2'],5,0.23454429999947024,0.4,0,FastFast,34,18,Woman,Right,
13,15,1,0.6004295999991882,['n'],0,left,['2'],5,0.21769959999983257,0.2,0,FastFast,34,18,Woman,Right,
14,15,1,0.7176430999988952,['c'],1,left,['3'],4,0.28467230000023847,0.1,0,FastFast,34,18,Woman,Right,
15,15,1,0.8002823999995599,['c'],0,right,['8'],3,0.2181935999997222,0.2,0,FastFast,34,18,Woman,Right,
16,15,1,0.8179679000004398,['n'],1,right,['3'],4,0.2848352999990311,0.4,0,FastFast,34,18,Woman,Right,
17,15,1,0.4325091999999131,['c'],1,left,['2'],5,0.2682201999996323,0.4,0,FastFast,34,18,Woman,Right,
18,15,1,1.1991342000001168,['c'],1,left,['1'],6,0.5019699000004039,0.4,0,FastFast,34,18,Woman,Right,
19,15,1,0.8330513000000792,['n'],1,right,['3'],4,0.16813479999837,0.1,0,FastFast,34,18,Woman,Right,
20,15,1,1.1491858000008506,['c'],0,right,['9'],2,0.2340557000006811,0.2,0,FastFast,34,18,Woman,Right,
21,15,1,0.7023597999996127,['c'],0,right,['9'],2,0.35146959999838145,0.1,0,FastFast,34,18,Woman,Right,
22,15,1,0.7332108999999036,['c'],1,left,['2'],5,0.25008080000043265,0.1,0,FastFast,34,18,Woman,Right,
23,15,1,0.5177590000002965,['n'],1,right,['3'],4,0.21800379999876895,0.4,0,FastFast,34,18,Woman,Right,
24,15,1,0.7170329000000493,['n'],1,right,['2'],5,0.15089900000020862,0.2,0,FastFast,34,18,Woman,Right,
25,15,1,2.2849298000001,['c'],1,left,['1'],6,0.502465999999913,0.4,0,FastFast,34,18,Woman,Right,
26,15,1,0.866559000000052,['n'],1,right,['2'],5,0.18522810000104073,0.2,0,FastFast,34,18,Woman,Right,
27,15,1,0.7984648999990895,['c'],0,right,['8'],3,0.25162619999900926,0.1,0,FastFast,34,18,Woman,Right,
28,15,1,0.8671045999999478,['n'],1,right,['3'],4,0.21758839999893098,0.2,0,FastFast,34,18,Woman,Right,
29,15,1,0.7506646000001638,['c'],1,left,['2'],5,0.2846443000016734,0.2,0,FastFast,34,18,Woman,Right,
30,15,1,0.5670988000001671,['c'],1,left,['2'],5,0.26812900000004447,0.4,0,FastFast,34,18,Woman,Right,
31,15,1,0.48400779999974475,['c'],0,right,['1'],6,0.3014147000012599,0.1,0,FastFast,34,18,Woman,Right,
32,15,1,0.6325634999993781,['c'],1,left,['2'],5,0.21890739999980724,0.2,0,FastFast,34,18,Woman,Right,
33,15,1,0.5002664999992703,['n'],1,right,['2'],5,0.7013323999999557,0.4,0,FastFast,34,18,Woman,Right,
34,15,1,0.6512662000004639,['n'],1,right,['2'],5,0.21912929999962216,0.4,0,FastFast,34,18,Woman,Right,
35,15,1,0.5169354000008752,['c'],1,left,['2'],5,0.24982900000031805,0.4,0,FastFast,34,18,Woman,Right,
36,15,1,0.934549399999014,['c'],1,left,['1'],6,0.1659858000002714,0.2,0,FastFast,34,18,Woman,Right,
37,15,1,1.1011603999995714,['c'],0,right,['9'],2,0.2513317000011739,0.1,0,FastFast,34,18,Woman,Right,
38,15,1,0.7839754999986326,['c'],1,left,['9'],2,0.26799489999939397,0.1,0,FastFast,34,18,Woman,Right,
39,15,1,0.5838767999994161,['c'],1,left,['9'],2,0.33401389999926323,0.1,0,FastFast,34,18,Woman,Right,
40,15,1,0.7169292999988102,['c'],1,left,['8'],3,0.2502366999997321,0.1,0,FastFast,34,18,Woman,Right,
41,15,1,0.8518461999992724,['n'],1,right,['3'],4,0.2681097000004229,0.4,0,FastFast,34,18,Woman,Right,
42,15,1,0.7343273000005865,['n'],1,right,['2'],5,0.20115529999930004,0.4,0,FastFast,34,18,Woman,Right,
43,15,1,0.6172045999992406,['c'],1,left,['1'],6,0.23388239999985672,0.2,0,FastFast,34,18,Woman,Right,
44,15,1,0.6506627000017033,['c'],1,left,['2'],5,0.18434960000013234,0.1,0,FastFast,34,18,Woman,Right,
45,15,1,0.8497062999995251,['c'],1,left,['2'],5,0.16791419999935897,0.1,0,FastFast,34,18,Woman,Right,
46,15,1,0.5493430000005901,['c'],1,left,['3'],4,0.18355179999889515,0.2,0,FastFast,34,18,Woman,Right,
47,15,1,0.6010185000013735,['c'],1,left,['2'],5,0.15271380000012869,0.2,0,FastFast,34,18,Woman,Right,
48,15,1,0.350349999998798,['c'],0,right,['1'],6,0.4513399000006757,0.4,0,FastFast,34,18,Woman,Right,
49,15,1,0.7152227999995375,['c'],1,left,['2'],5,0.13383719999910682,0.4,0,FastFast,34,18,Woman,Right,
50,15,1,0.6184620999993058,['c'],1,left,['1'],6,0.15175189999899885,0.4,0,FastFast,34,18,Woman,Right,
51,15,1,0.5838430000003427,['c'],1,left,['1'],6,0.18451029999960156,0.1,0,FastFast,34,18,Woman,Right,
52,15,1,0.917969299998731,['c'],0,right,['2'],5,0.16637019999870972,0.1,0,FastFast,34,18,Woman,Right,
53,15,1,0.9012753999995766,['c'],0,right,['9'],2,0.1845314000001963,0.2,0,FastFast,34,18,Woman,Right,
54,15,1,0.7680852999983472,['c'],1,left,['0'],1,0.25148649999937334,0.4,0,FastFast,34,18,Woman,Right,
55,15,1,0.6508410999995249,['c'],1,left,['9'],2,1.0679918999994698,0.2,0,FastFast,34,18,Woman,Right,
56,15,1,1.083733100000245,['n'],1,right,['2'],5,0.16806940000060422,0.2,0,FastFast,34,18,Woman,Right,
57,15,1,0.7343271999998251,['n'],1,right,['2'],5,0.23503340000024764,0.4,0,FastFast,34,18,Woman,Right,
58,15,1,0.8682926000001316,['n'],1,right,['3'],4,0.31752919999962614,0.2,0,FastFast,34,18,Woman,Right,
59,15,1,1.03365759999906,['c'],1,left,['2'],5,0.2014139000002615,0.2,0,FastFast,34,18,Woman,Right,
