withinblocktrial,block,block_repetition,rt,resp,cor,cresp,conf_press,cj,rtconf,coherence,slow_trial,manipulation,sub,age,gender,handedness,
0,1,1,3.233143299999938,['n'],1,right,none,-99,-99,0.5,0,none,22,18,Woman,Right,
1,1,1,0.9170183999999608,['c'],1,left,none,-99,-99,0.5,0,none,22,18,Woman,Right,
2,1,1,0.9666725000001861,['n'],1,right,none,-99,-99,0.5,0,none,22,18,Woman,Right,
3,1,1,0.8672251000000415,['n'],1,right,none,-99,-99,0.5,0,none,22,18,Woman,Right,
4,1,1,0.8011817000001429,['n'],1,right,none,-99,-99,0.5,0,none,22,18,Woman,Right,
5,1,1,1.2338578999999754,['c'],0,right,none,-99,-99,0.5,0,none,22,18,Woman,Right,
6,1,1,0.7505859000000328,['n'],1,right,none,-99,-99,0.5,0,none,22,18,Woman,Right,
7,1,1,0.6999824000001809,['c'],1,left,none,-99,-99,0.5,0,none,22,18,Woman,Right,
8,1,1,0.8504118999999264,['n'],0,left,none,-99,-99,0.5,0,none,22,18,Woman,Right,
9,1,1,0.7839635000000271,['n'],0,left,none,-99,-99,0.5,0,none,22,18,Woman,Right,
10,1,1,0.8347076000000015,['n'],1,right,none,-99,-99,0.5,0,none,22,18,Woman,Right,
11,1,1,2.467236200000116,['c'],0,right,none,-99,-99,0.5,0,none,22,18,Woman,Right,
12,1,1,0.7841527000000497,['c'],1,left,none,-99,-99,0.5,0,none,22,18,Woman,Right,
13,1,1,0.6011252999999215,['n'],0,left,none,-99,-99,0.5,0,none,22,18,Woman,Right,
14,1,1,0.9671920000000682,['c'],1,left,none,-99,-99,0.5,0,none,22,18,Woman,Right,
15,1,1,0.6170082999999522,['n'],1,right,none,-99,-99,0.5,0,none,22,18,Woman,Right,
16,1,1,0.6179343999999674,['c'],1,left,none,-99,-99,0.5,0,none,22,18,Woman,Right,
17,1,1,0.6168971000001875,['n'],1,right,none,-99,-99,0.5,0,none,22,18,Woman,Right,
18,1,1,0.7677555000000211,['n'],1,right,none,-99,-99,0.5,0,none,22,18,Woman,Right,
19,1,1,0.5991990999998507,['c'],1,left,none,-99,-99,0.5,0,none,22,18,Woman,Right,
20,1,1,1.1839279000000715,['c'],1,left,none,-99,-99,0.5,0,none,22,18,Woman,Right,
21,1,1,0.8329704999998739,['c'],1,left,none,-99,-99,0.5,0,none,22,18,Woman,Right,
22,1,1,0.5990941000000021,['c'],1,left,none,-99,-99,0.5,0,none,22,18,Woman,Right,
23,1,1,1.0170634999999493,['n'],1,right,none,-99,-99,0.5,0,none,22,18,Woman,Right,
0,1,2,1.1010418999999274,['n'],1,right,none,-99,-99,0.5,0,none,22,18,Woman,Right,
1,1,2,1.098995400000149,['n'],1,right,none,-99,-99,0.5,0,none,22,18,Woman,Right,
2,1,2,0.5331639000000905,['c'],1,left,none,-99,-99,0.5,0,none,22,18,Woman,Right,
3,1,2,0.43543300000010277,['n'],1,right,none,-99,-99,0.5,0,none,22,18,Woman,Right,
4,1,2,0.5517996000000949,['c'],1,left,none,-99,-99,0.5,0,none,22,18,Woman,Right,
5,1,2,0.3683204999999816,['n'],0,left,none,-99,-99,0.5,0,none,22,18,Woman,Right,
6,1,2,0.5172256000000743,['c'],1,left,none,-99,-99,0.5,0,none,22,18,Woman,Right,
7,1,2,0.45052190000001247,['c'],1,left,none,-99,-99,0.5,0,none,22,18,Woman,Right,
8,1,2,0.4172909000001255,['c'],1,left,none,-99,-99,0.5,0,none,22,18,Woman,Right,
9,1,2,0.5008241000000453,['n'],0,left,none,-99,-99,0.5,0,none,22,18,Woman,Right,
10,1,2,0.667310599999837,['n'],1,right,none,-99,-99,0.5,0,none,22,18,Woman,Right,
11,1,2,0.4987532000000101,['c'],0,right,none,-99,-99,0.5,0,none,22,18,Woman,Right,
12,1,2,0.6166730999998435,['c'],1,left,none,-99,-99,0.5,0,none,22,18,Woman,Right,
13,1,2,0.43435189999991053,['n'],1,right,none,-99,-99,0.5,0,none,22,18,Woman,Right,
14,1,2,0.5343704000001708,['n'],1,right,none,-99,-99,0.5,0,none,22,18,Woman,Right,
15,1,2,0.4671802000000298,['c'],1,left,none,-99,-99,0.5,0,none,22,18,Woman,Right,
16,1,2,0.434382800000094,['n'],1,right,none,-99,-99,0.5,0,none,22,18,Woman,Right,
17,1,2,0.41799089999994976,['c'],1,left,none,-99,-99,0.5,0,none,22,18,Woman,Right,
18,1,2,0.3678595999999743,['n'],1,right,none,-99,-99,0.5,0,none,22,18,Woman,Right,
19,1,2,0.5160264999999526,['n'],1,right,none,-99,-99,0.5,0,none,22,18,Woman,Right,
20,1,2,0.4664815000000999,['n'],1,right,none,-99,-99,0.5,0,none,22,18,Woman,Right,
21,1,2,0.535302899999806,['c'],1,left,none,-99,-99,0.5,0,none,22,18,Woman,Right,
22,1,2,0.4830618000000868,['n'],0,left,none,-99,-99,0.5,0,none,22,18,Woman,Right,
23,1,2,0.5175870999999006,['n'],1,right,none,-99,-99,0.5,0,none,22,18,Woman,Right,
0,1,3,1.0664037000001372,['c'],1,left,none,-99,-99,0.5,0,none,22,18,Woman,Right,
1,1,3,1.8841068000001542,['c'],1,left,none,-99,-99,0.5,0,none,22,18,Woman,Right,
2,1,3,0.49958140000012463,['n'],1,right,none,-99,-99,0.5,0,none,22,18,Woman,Right,
3,1,3,0.6170815000000403,['c'],1,left,none,-99,-99,0.5,0,none,22,18,Woman,Right,
4,1,3,0.45118939999997565,['n'],0,left,none,-99,-99,0.5,0,none,22,18,Woman,Right,
5,1,3,0.4673370000000432,['n'],0,left,none,-99,-99,0.5,0,none,22,18,Woman,Right,
6,1,3,0.5484887999998591,['n'],1,right,none,-99,-99,0.5,0,none,22,18,Woman,Right,
7,1,3,0.46805899999981193,['c'],1,left,none,-99,-99,0.5,0,none,22,18,Woman,Right,
8,1,3,0.6676975999998831,['n'],0,left,none,-99,-99,0.5,0,none,22,18,Woman,Right,
9,1,3,0.517820699999902,['n'],1,right,none,-99,-99,0.5,0,none,22,18,Woman,Right,
10,1,3,0.5347347000001719,['n'],1,right,none,-99,-99,0.5,0,none,22,18,Woman,Right,
11,1,3,0.5500127999998767,['n'],1,right,none,-99,-99,0.5,0,none,22,18,Woman,Right,
12,1,3,0.5344158000002608,['n'],1,right,none,-99,-99,0.5,0,none,22,18,Woman,Right,
13,1,3,0.7670450999999048,['n'],1,right,none,-99,-99,0.5,0,none,22,18,Woman,Right,
14,1,3,0.4671281999999337,['n'],1,right,none,-99,-99,0.5,0,none,22,18,Woman,Right,
15,1,3,0.48378090000005614,['n'],0,left,none,-99,-99,0.5,0,none,22,18,Woman,Right,
16,1,3,0.4330616999995982,['n'],0,left,none,-99,-99,0.5,0,none,22,18,Woman,Right,
17,1,3,0.5159576000000925,['n'],1,right,none,-99,-99,0.5,0,none,22,18,Woman,Right,
18,1,3,0.6016821000002892,['c'],1,left,none,-99,-99,0.5,0,none,22,18,Woman,Right,
19,1,3,0.6334873000000698,['n'],1,right,none,-99,-99,0.5,0,none,22,18,Woman,Right,
20,1,3,0.567268299999796,['c'],1,left,none,-99,-99,0.5,0,none,22,18,Woman,Right,
21,1,3,0.5671497999996973,['n'],1,right,none,-99,-99,0.5,0,none,22,18,Woman,Right,
22,1,3,0.5344860000000153,['n'],1,right,none,-99,-99,0.5,0,none,22,18,Woman,Right,
23,1,3,0.4997591999999713,['c'],1,left,none,-99,-99,0.5,0,none,22,18,Woman,Right,
0,1,4,0.7514285000002019,['c'],1,left,none,-99,-99,0.5,0,none,22,18,Woman,Right,
1,1,4,0.4993654999998398,['n'],1,right,none,-99,-99,0.5,0,none,22,18,Woman,Right,
2,1,4,0.5004641000000447,['c'],1,left,none,-99,-99,0.5,0,none,22,18,Woman,Right,
3,1,4,0.617304299999887,['c'],1,left,none,-99,-99,0.5,0,none,22,18,Woman,Right,
4,1,4,0.48469199999999546,['n'],1,right,none,-99,-99,0.5,0,none,22,18,Woman,Right,
5,1,4,0.517115399999966,['n'],1,right,none,-99,-99,0.5,0,none,22,18,Woman,Right,
6,1,4,0.4838366999997561,['c'],1,left,none,-99,-99,0.5,0,none,22,18,Woman,Right,
7,1,4,0.4839019000000917,['n'],1,right,none,-99,-99,0.5,0,none,22,18,Woman,Right,
8,1,4,0.5330979999998817,['n'],1,right,none,-99,-99,0.5,0,none,22,18,Woman,Right,
9,1,4,0.5326144000000568,['n'],1,right,none,-99,-99,0.5,0,none,22,18,Woman,Right,
10,1,4,0.39993060000006153,['c'],1,left,none,-99,-99,0.5,0,none,22,18,Woman,Right,
11,1,4,0.5830989999999474,['c'],1,left,none,-99,-99,0.5,0,none,22,18,Woman,Right,
12,1,4,0.4833365999998023,['c'],1,left,none,-99,-99,0.5,0,none,22,18,Woman,Right,
13,1,4,0.482941899999787,['n'],1,right,none,-99,-99,0.5,0,none,22,18,Woman,Right,
14,1,4,0.5013414000000012,['c'],1,left,none,-99,-99,0.5,0,none,22,18,Woman,Right,
15,1,4,0.6167212000000291,['c'],1,left,none,-99,-99,0.5,0,none,22,18,Woman,Right,
16,1,4,0.5506591999996999,['c'],1,left,none,-99,-99,0.5,0,none,22,18,Woman,Right,
17,1,4,0.5843783999998777,['n'],1,right,none,-99,-99,0.5,0,none,22,18,Woman,Right,
18,1,4,0.5494214000000284,['c'],0,right,none,-99,-99,0.5,0,none,22,18,Woman,Right,
19,1,4,1.0338228000000527,['n'],0,left,none,-99,-99,0.5,0,none,22,18,Woman,Right,
20,1,4,0.4340154999999868,['c'],1,left,none,-99,-99,0.5,0,none,22,18,Woman,Right,
21,1,4,0.46704070000032516,['n'],1,right,none,-99,-99,0.5,0,none,22,18,Woman,Right,
22,1,4,0.49979880000000776,['n'],1,right,none,-99,-99,0.5,0,none,22,18,Woman,Right,
23,1,4,0.5178584999998748,['n'],1,right,none,-99,-99,0.5,0,none,22,18,Woman,Right,
0,2,1,0.7842150999999831,['c'],1,left,none,-99,-99,0.2,0,none,22,18,Woman,Right,
1,2,1,0.8174810999998954,['c'],1,left,none,-99,-99,0.2,0,none,22,18,Woman,Right,
2,2,1,0.5344297999999981,['n'],0,left,none,-99,-99,0.4,0,none,22,18,Woman,Right,
3,2,1,0.48353369999995266,['n'],1,right,none,-99,-99,0.4,0,none,22,18,Woman,Right,
4,2,1,0.5503428000001804,['n'],1,right,none,-99,-99,0.1,0,none,22,18,Woman,Right,
5,2,1,2.699284499999976,['n'],1,right,none,-99,-99,0.4,0,none,22,18,Woman,Right,
6,2,1,0.4510859000001801,['n'],1,right,none,-99,-99,0.2,0,none,22,18,Woman,Right,
7,2,1,0.5170992999996997,['c'],0,right,none,-99,-99,0.2,0,none,22,18,Woman,Right,
8,2,1,0.5008093999999801,['c'],1,left,none,-99,-99,0.1,0,none,22,18,Woman,Right,
9,2,1,0.5511891000001015,['c'],1,left,none,-99,-99,0.4,0,none,22,18,Woman,Right,
10,2,1,1.5180414000001292,['c'],1,left,none,-99,-99,0.1,0,none,22,18,Woman,Right,
11,2,1,0.7177134000003207,['c'],0,right,none,-99,-99,0.1,0,none,22,18,Woman,Right,
12,2,1,2.033558400000402,['c'],1,left,none,-99,-99,0.2,0,none,22,18,Woman,Right,
13,2,1,0.7501274000001104,['c'],1,left,none,-99,-99,0.4,0,none,22,18,Woman,Right,
14,2,1,0.482650399999784,['n'],1,right,none,-99,-99,0.4,0,none,22,18,Woman,Right,
15,2,1,0.682010800000171,['n'],1,right,none,-99,-99,0.2,0,none,22,18,Woman,Right,
16,2,1,1.567259599999943,['c'],1,left,none,-99,-99,0.1,0,none,22,18,Woman,Right,
17,2,1,0.48386789999995017,['n'],1,right,none,-99,-99,0.4,0,none,22,18,Woman,Right,
18,2,1,1.2003365999999005,['n'],0,left,none,-99,-99,0.1,0,none,22,18,Woman,Right,
19,2,1,1.067974200000208,['n'],1,right,none,-99,-99,0.4,0,none,22,18,Woman,Right,
20,2,1,1.0670181999998931,['n'],1,right,none,-99,-99,0.1,0,none,22,18,Woman,Right,
21,2,1,0.7001851999998507,['n'],0,left,none,-99,-99,0.1,0,none,22,18,Woman,Right,
22,2,1,1.8987364999998135,['n'],1,right,none,-99,-99,0.2,0,none,22,18,Woman,Right,
23,2,1,0.7681350000002567,['n'],0,left,none,-99,-99,0.2,0,none,22,18,Woman,Right,
0,3,1,1.450964500000282,['c'],1,left,['2'],5,4.416554999999789,0.2,0,none,22,18,Woman,Right,
1,3,1,5.01524419999987,x,-99,right,none,-99,-99,0.1,1,none,22,18,Woman,Right,
2,3,1,2.151045300000078,['n'],0,left,['9'],2,1.468007899999975,0.1,0,none,22,18,Woman,Right,
3,3,1,4.966308300000037,['n'],0,left,['3'],4,2.9011029999996936,0.1,0,none,22,18,Woman,Right,
4,3,1,2.6001658000000134,['n'],1,right,['2'],5,1.951157399999829,0.1,0,none,22,18,Woman,Right,
5,3,1,0.7837489000003188,['n'],1,right,['2'],5,0.8680892000002132,0.4,0,none,22,18,Woman,Right,
6,3,1,3.2835782000001927,['n'],1,right,['2'],5,1.0514960000000428,0.4,0,none,22,18,Woman,Right,
7,3,1,0.6330634999999347,['n'],1,right,['1'],6,0.5179305000001477,0.4,0,none,22,18,Woman,Right,
8,3,1,0.9842760999999882,['n'],1,right,['1'],6,0.6523803000000044,0.2,0,none,22,18,Woman,Right,
9,3,1,1.066700999999739,['c'],1,left,['1'],6,0.4995141999997941,0.4,0,none,22,18,Woman,Right,
10,3,1,1.366186000000198,['c'],1,left,['2'],5,0.7186668999997892,0.1,0,none,22,18,Woman,Right,
11,3,1,3.3329635000000053,['n'],1,right,['2'],5,1.2679116000003887,0.2,0,none,22,18,Woman,Right,
12,3,1,0.8509749999998348,['c'],1,left,['1'],6,0.6013569000001553,0.2,0,none,22,18,Woman,Right,
13,3,1,1.4170812000002115,['c'],1,left,['1'],6,0.4674389000001611,0.1,0,none,22,18,Woman,Right,
14,3,1,0.6681548000001385,['n'],1,right,['1'],6,0.4514902000000802,0.4,0,none,22,18,Woman,Right,
15,3,1,1.083529400000316,['c'],0,right,['1'],6,0.48463840000022174,0.1,0,none,22,18,Woman,Right,
16,3,1,2.8169048999998267,['n'],1,right,['2'],5,0.534602900000209,0.4,0,none,22,18,Woman,Right,
17,3,1,1.9335793999998714,['c'],1,left,['3'],4,1.2178152000001319,0.2,0,none,22,18,Woman,Right,
18,3,1,1.4663734999999178,['n'],0,left,['2'],5,0.9844585000000734,0.4,0,none,22,18,Woman,Right,
19,3,1,2.117340400000103,['n'],0,left,['9'],2,1.049315100000058,0.2,0,none,22,18,Woman,Right,
20,3,1,2.1506014999999934,['n'],1,right,['2'],5,0.8355507999999645,0.2,0,none,22,18,Woman,Right,
21,3,1,3.4500072000000728,['n'],0,left,['3'],4,0.9346177000002172,0.1,0,none,22,18,Woman,Right,
22,3,1,4.066710900000089,['n'],0,left,['9'],2,0.8847947000003842,0.2,0,none,22,18,Woman,Right,
23,3,1,0.949810399999933,['n'],1,right,['3'],4,0.8014438999998674,0.4,0,none,22,18,Woman,Right,
0,4,1,1.8346291000002566,['n'],1,right,['8'],3,2.2336632999999892,0.4,0,AccAcc,22,18,Woman,Right,
1,4,1,3.315903199999866,['n'],0,left,['8'],3,1.1846246999998584,0.1,0,AccAcc,22,18,Woman,Right,
2,4,1,3.6833404999997583,['c'],1,left,['2'],5,0.7681385000000773,0.2,0,AccAcc,22,18,Woman,Right,
3,4,1,1.983395499999915,['c'],0,right,['3'],4,0.5522638000002189,0.1,0,AccAcc,22,18,Woman,Right,
4,4,1,3.417009700000108,['c'],1,left,['8'],3,0.41838440000037735,0.2,0,AccAcc,22,18,Woman,Right,
5,4,1,2.700023300000339,['n'],0,left,['9'],2,1.2333607000000484,0.1,0,AccAcc,22,18,Woman,Right,
6,4,1,4.068742099999781,['c'],1,left,['2'],5,0.7013863000001948,0.1,0,AccAcc,22,18,Woman,Right,
7,4,1,1.2343353000001116,['n'],1,right,['1'],6,0.8012555000000248,0.4,0,AccAcc,22,18,Woman,Right,
8,4,1,2.88328969999975,['c'],1,left,['3'],4,1.0348024999998415,0.2,0,AccAcc,22,18,Woman,Right,
9,4,1,3.0001562000002195,['n'],1,right,['8'],3,0.9847852999996576,0.1,0,AccAcc,22,18,Woman,Right,
10,4,1,2.3328919000000496,['n'],0,left,['3'],4,0.8176992000003338,0.1,0,AccAcc,22,18,Woman,Right,
11,4,1,1.916228200000205,['n'],0,left,['1'],6,0.6676292000001922,0.4,0,AccAcc,22,18,Woman,Right,
12,4,1,0.7676277000000482,['n'],1,right,['1'],6,0.3513351000001421,0.4,0,AccAcc,22,18,Woman,Right,
13,4,1,1.366811300000336,['c'],1,left,['1'],6,0.36817889999974796,0.1,0,AccAcc,22,18,Woman,Right,
14,4,1,2.1675532999997813,['n'],0,left,['3'],4,2.0849898000001303,0.1,0,AccAcc,22,18,Woman,Right,
15,4,1,1.5672761999999238,['n'],1,right,['2'],5,0.7681529999999839,0.2,0,AccAcc,22,18,Woman,Right,
16,4,1,0.7505453999997371,['n'],1,right,['2'],5,0.41775719999986904,0.4,0,AccAcc,22,18,Woman,Right,
17,4,1,3.383373399999982,['n'],1,right,['1'],6,0.4016025000000809,0.2,0,AccAcc,22,18,Woman,Right,
18,4,1,1.1835005000002639,['c'],1,left,['1'],6,0.3499640999998519,0.2,0,AccAcc,22,18,Woman,Right,
19,4,1,3.8171870000001036,['n'],1,right,['2'],5,1.6844780000001265,0.2,0,AccAcc,22,18,Woman,Right,
20,4,1,2.9478337000000465,['c'],1,left,['1'],6,1.6694265000000996,0.4,0,AccAcc,22,18,Woman,Right,
21,4,1,0.7337901999999303,['n'],1,right,['1'],6,0.5174064999996517,0.4,0,AccAcc,22,18,Woman,Right,
22,4,1,2.800129100000049,['n'],1,right,['8'],3,1.584534000000076,0.1,0,AccAcc,22,18,Woman,Right,
23,4,1,4.199902700000166,['n'],0,left,['8'],3,1.2512234000000717,0.1,0,AccAcc,22,18,Woman,Right,
24,4,1,1.0495395000002645,['c'],1,left,['2'],5,1.1348110999997516,0.4,0,AccAcc,22,18,Woman,Right,
25,4,1,1.900083199999699,['n'],1,right,['2'],5,0.7673076000000947,0.2,0,AccAcc,22,18,Woman,Right,
26,4,1,1.8341998000000785,['n'],1,right,['3'],4,0.4681593000000248,0.2,0,AccAcc,22,18,Woman,Right,
27,4,1,0.9335885999998936,['n'],1,right,['2'],5,0.45129169999972873,0.4,0,AccAcc,22,18,Woman,Right,
28,4,1,0.8502254999998513,['c'],1,left,['1'],6,0.5331532000000152,0.1,0,AccAcc,22,18,Woman,Right,
29,4,1,3.8173138000001927,['n'],1,right,['2'],5,0.8518021999998382,0.1,0,AccAcc,22,18,Woman,Right,
30,4,1,2.0999186000003647,['c'],1,left,['1'],6,0.41808279999986553,0.4,0,AccAcc,22,18,Woman,Right,
31,4,1,5.015555999999833,x,-99,left,none,-99,-99,0.1,1,AccAcc,22,18,Woman,Right,
32,4,1,1.2834904999999708,['c'],1,left,['2'],5,2.4018553999999313,0.2,0,AccAcc,22,18,Woman,Right,
33,4,1,3.050169800000276,['n'],0,left,['9'],2,1.1495331999999507,0.1,0,AccAcc,22,18,Woman,Right,
34,4,1,3.7493835999998737,['c'],1,left,['9'],2,0.6191555000000335,0.4,0,AccAcc,22,18,Woman,Right,
35,4,1,1.4829513999998198,['n'],1,right,['2'],5,1.1685019999999895,0.4,0,AccAcc,22,18,Woman,Right,
36,4,1,4.215816800000084,['c'],1,left,['2'],5,0.7190003999999135,0.4,0,AccAcc,22,18,Woman,Right,
37,4,1,0.7674639000001662,['n'],1,right,['1'],6,0.5513055999999779,0.2,0,AccAcc,22,18,Woman,Right,
38,4,1,1.5666096999998445,['n'],1,right,['2'],5,0.5513810000002195,0.2,0,AccAcc,22,18,Woman,Right,
39,4,1,0.6670773000000736,['n'],1,right,['2'],5,0.418033700000251,0.4,0,AccAcc,22,18,Woman,Right,
40,4,1,3.6000089999997726,['n'],0,left,['9'],2,1.7178706999998212,0.1,0,AccAcc,22,18,Woman,Right,
41,4,1,1.3987952000002224,['c'],1,left,['2'],5,1.0195019000002503,0.2,0,AccAcc,22,18,Woman,Right,
42,4,1,4.082193899999766,['n'],0,left,['9'],2,1.7675755999998728,0.1,0,AccAcc,22,18,Woman,Right,
43,4,1,1.7499456999998984,['n'],1,right,['2'],5,1.0175695999996606,0.4,0,AccAcc,22,18,Woman,Right,
44,4,1,2.7006046000001334,['n'],1,right,['3'],4,1.6840918000002603,0.2,0,AccAcc,22,18,Woman,Right,
45,4,1,3.165866199999982,['n'],1,right,['3'],4,1.0346614000000045,0.4,0,AccAcc,22,18,Woman,Right,
46,4,1,2.4150062999997317,['n'],0,left,['8'],3,0.7178273999998055,0.2,0,AccAcc,22,18,Woman,Right,
47,4,1,3.983716099999583,['n'],1,right,['3'],4,0.7673948000001474,0.2,0,AccAcc,22,18,Woman,Right,
48,4,1,1.1018092999997862,['n'],1,right,['3'],4,0.8678276000000551,0.1,0,AccAcc,22,18,Woman,Right,
49,4,1,1.9510150000000976,['c'],1,left,['2'],5,0.5673673000001145,0.2,0,AccAcc,22,18,Woman,Right,
50,4,1,1.633489499999996,['n'],0,left,['3'],4,0.9012892999999167,0.1,0,AccAcc,22,18,Woman,Right,
51,4,1,1.7003536000001986,['n'],1,right,['2'],5,0.5682062000000769,0.1,0,AccAcc,22,18,Woman,Right,
52,4,1,0.6336859999996705,['n'],1,right,['2'],5,0.6503530999998475,0.4,0,AccAcc,22,18,Woman,Right,
53,4,1,2.3001601000000846,['n'],1,right,['3'],4,2.0673093000000335,0.2,0,AccAcc,22,18,Woman,Right,
54,4,1,0.86802519999992,['n'],1,right,['2'],5,0.5847051000000647,0.4,0,AccAcc,22,18,Woman,Right,
55,4,1,0.5648990999998205,['n'],1,right,['2'],5,0.36760969999977533,0.2,0,AccAcc,22,18,Woman,Right,
56,4,1,2.5155064999999013,['n'],0,left,['2'],5,0.9672550999998748,0.4,0,AccAcc,22,18,Woman,Right,
57,4,1,3.032582099999672,['n'],1,right,['1'],6,0.4009977999999137,0.1,0,AccAcc,22,18,Woman,Right,
58,4,1,1.1169157999997879,['c'],1,left,['1'],6,0.4006648000004134,0.4,0,AccAcc,22,18,Woman,Right,
59,4,1,1.184913499999766,['n'],0,left,['1'],6,0.48289810000005673,0.2,0,AccAcc,22,18,Woman,Right,
0,5,1,1.2841601000000082,['n'],0,left,['2'],5,1.1178867999997237,0.4,0,FastAcc,22,18,Woman,Right,
1,5,1,0.8498107000000346,['n'],0,left,['3'],4,0.7836654000002454,0.4,0,FastAcc,22,18,Woman,Right,
2,5,1,0.5499152000002141,['n'],1,right,['3'],4,0.7013419999998405,0.1,0,FastAcc,22,18,Woman,Right,
3,5,1,4.1992857000000186,['n'],0,left,['8'],3,1.1347657000001163,0.1,0,FastAcc,22,18,Woman,Right,
4,5,1,0.6997271000000183,['n'],0,left,['8'],3,0.40154419999998936,0.2,0,FastAcc,22,18,Woman,Right,
5,5,1,0.567041099999642,['n'],1,right,['8'],3,1.0679638999999952,0.4,0,FastAcc,22,18,Woman,Right,
6,5,1,0.6836600999999973,['c'],1,left,['2'],5,0.6676238000000012,0.2,0,FastAcc,22,18,Woman,Right,
7,5,1,2.166119299999991,['c'],1,left,['3'],4,0.4180039999996552,0.1,0,FastAcc,22,18,Woman,Right,
8,5,1,0.9160322999996424,['c'],1,left,['3'],4,0.8686755999997331,0.2,0,FastAcc,22,18,Woman,Right,
9,5,1,0.8841128000003664,['c'],1,left,['3'],4,0.7343323000000055,0.2,0,FastAcc,22,18,Woman,Right,
10,5,1,0.8342554999999265,['n'],1,right,['2'],5,1.5350900999997066,0.4,0,FastAcc,22,18,Woman,Right,
11,5,1,1.0161004999999932,['n'],0,left,['2'],5,0.9686522000001787,0.2,0,FastAcc,22,18,Woman,Right,
12,5,1,0.7329374999999345,['n'],1,right,['2'],5,0.45216149999987465,0.4,0,FastAcc,22,18,Woman,Right,
13,5,1,0.7160140000000865,['c'],1,left,['1'],6,0.6848929000002499,0.1,0,FastAcc,22,18,Woman,Right,
14,5,1,0.7336075999996865,['n'],1,right,['2'],5,0.6001074999999219,0.2,0,FastAcc,22,18,Woman,Right,
15,5,1,0.7840640999997959,['c'],1,left,['1'],6,0.4337040000000343,0.4,0,FastAcc,22,18,Woman,Right,
16,5,1,1.9341273,['c'],1,left,['8'],3,0.5679473000000144,0.2,0,FastAcc,22,18,Woman,Right,
17,5,1,0.8171277000001282,['n'],1,right,['3'],4,0.4848363999999492,0.2,0,FastAcc,22,18,Woman,Right,
18,5,1,1.4501258999998754,['n'],1,right,['3'],4,1.5174774999995861,0.2,0,FastAcc,22,18,Woman,Right,
19,5,1,3.0154906999996456,['c'],1,left,['2'],5,1.3185465000001386,0.1,0,FastAcc,22,18,Woman,Right,
20,5,1,2.2167812000002414,['c'],1,left,['1'],6,0.3515639000002011,0.4,0,FastAcc,22,18,Woman,Right,
21,5,1,0.8490395999997418,['n'],1,right,['2'],5,0.36872379999977056,0.1,0,FastAcc,22,18,Woman,Right,
22,5,1,0.700521000000208,['n'],1,right,['2'],5,0.3680981000002248,0.4,0,FastAcc,22,18,Woman,Right,
23,5,1,0.8169914000000063,['n'],1,right,['3'],4,1.4839464000001499,0.4,0,FastAcc,22,18,Woman,Right,
24,5,1,0.533798299999944,['c'],1,left,['1'],6,0.3667896000001747,0.1,0,FastAcc,22,18,Woman,Right,
25,5,1,4.500549500000034,['c'],1,left,['3'],4,1.1010094999996909,0.1,0,FastAcc,22,18,Woman,Right,
26,5,1,1.4327708000000712,['n'],0,left,['8'],3,0.7841376999999738,0.1,0,FastAcc,22,18,Woman,Right,
27,5,1,2.332632499999818,['n'],1,right,['2'],5,1.3833859000001212,0.1,0,FastAcc,22,18,Woman,Right,
28,5,1,2.9818960000002335,['n'],1,right,['3'],4,1.31892310000012,0.4,0,FastAcc,22,18,Woman,Right,
29,5,1,1.3508007000000362,['n'],1,right,['3'],4,1.0840084999999817,0.1,0,FastAcc,22,18,Woman,Right,
30,5,1,1.3323338999998668,['n'],1,right,['3'],4,0.433563999999933,0.4,0,FastAcc,22,18,Woman,Right,
31,5,1,0.999319099999866,['n'],1,right,['8'],3,1.3521079000001919,0.2,0,FastAcc,22,18,Woman,Right,
32,5,1,3.4998199000001478,['n'],1,right,['8'],3,1.0512674000001425,0.1,0,FastAcc,22,18,Woman,Right,
33,5,1,3.400743799999873,['n'],0,left,['8'],3,0.484284099999968,0.2,0,FastAcc,22,18,Woman,Right,
34,5,1,0.6846626000001379,['c'],1,left,['1'],6,0.4182290999997349,0.2,0,FastAcc,22,18,Woman,Right,
35,5,1,1.5500056000000768,['c'],1,left,['3'],4,1.183946300000116,0.2,0,FastAcc,22,18,Woman,Right,
36,5,1,0.7004719000001387,['n'],1,right,['3'],4,0.8508526000000529,0.4,0,FastAcc,22,18,Woman,Right,
37,5,1,0.5997176999999283,['c'],1,left,['1'],6,0.3673512000000301,0.4,0,FastAcc,22,18,Woman,Right,
38,5,1,2.1500888000000486,['n'],1,right,['8'],3,0.38456810000025143,0.4,0,FastAcc,22,18,Woman,Right,
39,5,1,0.667085600000064,['c'],1,left,['2'],5,0.36822469999970053,0.2,0,FastAcc,22,18,Woman,Right,
40,5,1,0.7004908999997497,['c'],0,right,['3'],4,0.6845468999999866,0.2,0,FastAcc,22,18,Woman,Right,
41,5,1,0.7335693999998512,['c'],1,left,['2'],5,0.45134860000007393,0.4,0,FastAcc,22,18,Woman,Right,
42,5,1,0.6660517000000254,['c'],1,left,['1'],6,0.41857149999987087,0.1,0,FastAcc,22,18,Woman,Right,
43,5,1,0.8169044999999642,['c'],1,left,['1'],6,0.35052120000000286,0.1,0,FastAcc,22,18,Woman,Right,
44,5,1,0.8173619999997754,['c'],0,right,['0'],1,1.434553699999924,0.4,0,FastAcc,22,18,Woman,Right,
45,5,1,2.750463399999717,['n'],1,right,['2'],5,1.3014302999999927,0.1,0,FastAcc,22,18,Woman,Right,
46,5,1,0.6175634000001082,['c'],1,left,['2'],5,0.7013788000003842,0.4,0,FastAcc,22,18,Woman,Right,
47,5,1,3.0001304000002165,['n'],1,right,['8'],3,0.700206700000308,0.2,0,FastAcc,22,18,Woman,Right,
48,5,1,1.0839621999998599,['n'],1,right,['2'],5,0.6998631999999816,0.2,0,FastAcc,22,18,Woman,Right,
49,5,1,1.750440400000116,['n'],1,right,['3'],4,1.5841930999999931,0.1,0,FastAcc,22,18,Woman,Right,
50,5,1,3.167689899999914,['n'],0,left,['8'],3,1.235090499999842,0.2,0,FastAcc,22,18,Woman,Right,
51,5,1,2.5832344999998895,['n'],1,right,['2'],5,0.5166838000000098,0.1,0,FastAcc,22,18,Woman,Right,
52,5,1,0.7508349999998245,['n'],1,right,['1'],6,0.3848398999998608,0.4,0,FastAcc,22,18,Woman,Right,
53,5,1,1.2170631999997568,['n'],1,right,['2'],5,0.3342859999997927,0.1,0,FastAcc,22,18,Woman,Right,
54,5,1,3.4832124000004114,['n'],0,left,['3'],4,1.7841549999998279,0.2,0,FastAcc,22,18,Woman,Right,
55,5,1,1.082163600000058,['n'],0,left,['3'],4,0.8013160000000425,0.1,0,FastAcc,22,18,Woman,Right,
56,5,1,1.1829502000000502,['n'],1,right,['2'],5,0.6012150999999903,0.4,0,FastAcc,22,18,Woman,Right,
57,5,1,2.4671118999999635,['n'],1,right,['2'],5,0.6013731000002736,0.1,0,FastAcc,22,18,Woman,Right,
58,5,1,0.5177205999998478,['n'],1,right,['2'],5,0.6346026999999594,0.4,0,FastAcc,22,18,Woman,Right,
59,5,1,2.515762200000154,['c'],1,left,['1'],6,0.5688348000003316,0.2,0,FastAcc,22,18,Woman,Right,
0,6,1,1.1827938000001268,['n'],1,right,['2'],5,0.8174833000002764,0.1,0,FastFast,22,18,Woman,Right,
1,6,1,0.48392710000007355,['n'],1,right,['2'],5,0.48478960000011284,0.4,0,FastFast,22,18,Woman,Right,
2,6,1,0.5335033999999723,['c'],1,left,['1'],6,0.3508926000004067,0.4,0,FastFast,22,18,Woman,Right,
3,6,1,0.417109900000014,['n'],1,right,['1'],6,0.3686942999997882,0.4,0,FastFast,22,18,Woman,Right,
4,6,1,0.8168426000002,['n'],1,right,['2'],5,0.4168426000001091,0.2,0,FastFast,22,18,Woman,Right,
5,6,1,0.6503251000003729,['c'],1,left,['2'],5,0.3846211999998559,0.1,0,FastFast,22,18,Woman,Right,
6,6,1,1.4171265999998468,['c'],1,left,['2'],5,0.25173050000012154,0.1,0,FastFast,22,18,Woman,Right,
7,6,1,0.6007853000000978,['n'],1,right,['2'],5,0.4334816000000501,0.1,0,FastFast,22,18,Woman,Right,
8,6,1,0.7677348999995957,['c'],1,left,['1'],6,0.3017328999999336,0.4,0,FastFast,22,18,Woman,Right,
9,6,1,0.4341992999998183,['n'],1,right,['1'],6,0.334761300000082,0.4,0,FastFast,22,18,Woman,Right,
10,6,1,0.48325560000012047,['n'],1,right,['1'],6,0.28504209999982777,0.4,0,FastFast,22,18,Woman,Right,
11,6,1,0.5004410000001371,['c'],1,left,['1'],6,0.2846996000002946,0.4,0,FastFast,22,18,Woman,Right,
12,6,1,1.384961800000383,['n'],0,left,['8'],3,0.3016726999999264,0.2,0,FastFast,22,18,Woman,Right,
13,6,1,0.8167732999995678,['c'],1,left,['2'],5,0.28514099999983955,0.2,0,FastFast,22,18,Woman,Right,
14,6,1,0.6989862999998877,['c'],1,left,['1'],6,0.2677005000000463,0.4,0,FastFast,22,18,Woman,Right,
15,6,1,2.1851873000000523,['n'],0,left,['9'],2,0.9347016000001531,0.2,0,FastFast,22,18,Woman,Right,
16,6,1,1.482922900000176,['n'],1,right,['8'],3,0.31701239999983954,0.1,0,FastFast,22,18,Woman,Right,
17,6,1,1.300941899999998,['c'],1,left,['8'],3,1.1512928999995893,0.1,0,FastFast,22,18,Woman,Right,
18,6,1,1.5000663000000714,['c'],1,left,['3'],4,0.4847664999997505,0.1,0,FastFast,22,18,Woman,Right,
19,6,1,0.6842031999999563,['c'],1,left,['2'],5,0.31801229999973657,0.2,0,FastFast,22,18,Woman,Right,
20,6,1,0.550519400000212,['n'],1,right,['1'],6,0.40140429999974003,0.4,0,FastFast,22,18,Woman,Right,
21,6,1,0.5672658000003139,['n'],1,right,['1'],6,0.40027869999994437,0.4,0,FastFast,22,18,Woman,Right,
22,6,1,1.8674913999998353,['c'],0,right,['2'],5,1.2346298000002207,0.2,0,FastFast,22,18,Woman,Right,
23,6,1,0.7498161999997137,['c'],1,left,['1'],6,0.351653400000032,0.1,0,FastFast,22,18,Woman,Right,
24,6,1,0.9503739000001588,['n'],0,left,['8'],3,0.766719600000215,0.1,0,FastFast,22,18,Woman,Right,
25,6,1,1.267594200000076,['n'],0,left,['8'],3,0.4010691999997107,0.2,0,FastFast,22,18,Woman,Right,
26,6,1,0.8493899000000056,['n'],1,right,['8'],3,0.2851653000002443,0.2,0,FastFast,22,18,Woman,Right,
27,6,1,0.717997700000069,['n'],1,right,['8'],3,0.28516979999994874,0.1,0,FastFast,22,18,Woman,Right,
28,6,1,1.499628600000051,['n'],1,right,['3'],4,0.501356300000225,0.4,0,FastFast,22,18,Woman,Right,
29,6,1,0.7671303000001899,['c'],0,right,['3'],4,0.3348885000000337,0.2,0,FastFast,22,18,Woman,Right,
30,6,1,0.7840771999999561,['c'],1,left,['2'],5,0.35135399999990113,0.4,0,FastFast,22,18,Woman,Right,
31,6,1,0.534758199999942,['c'],1,left,['1'],6,0.2682141000000229,0.2,0,FastFast,22,18,Woman,Right,
32,6,1,2.9836946000000353,['c'],1,left,['2'],5,0.28489470000022266,0.1,0,FastFast,22,18,Woman,Right,
33,6,1,0.5668974000000162,['n'],1,right,['2'],5,0.717946799999936,0.4,0,FastFast,22,18,Woman,Right,
34,6,1,0.634060800000043,['n'],1,right,['1'],6,0.41751479999993535,0.2,0,FastFast,22,18,Woman,Right,
35,6,1,0.8169753000001947,['c'],1,left,['1'],6,0.36830120000013267,0.2,0,FastFast,22,18,Woman,Right,
36,6,1,1.049854499999583,['c'],1,left,['2'],5,0.3181432000001223,0.4,0,FastFast,22,18,Woman,Right,
37,6,1,0.5821750000000065,['n'],1,right,['1'],6,0.41888280000011946,0.2,0,FastFast,22,18,Woman,Right,
38,6,1,0.7341523999998572,['n'],1,right,['1'],6,0.5348063999999795,0.1,0,FastFast,22,18,Woman,Right,
39,6,1,0.750376899999992,['c'],1,left,['1'],6,0.3352428999996846,0.4,0,FastFast,22,18,Woman,Right,
40,6,1,1.9653038000001288,['n'],0,left,['8'],3,0.518409100000099,0.2,0,FastFast,22,18,Woman,Right,
41,6,1,0.8337542999997822,['c'],1,left,['2'],5,0.6338583000001563,0.2,0,FastFast,22,18,Woman,Right,
42,6,1,0.9003234000001612,['c'],0,right,['2'],5,0.5181084000000737,0.1,0,FastFast,22,18,Woman,Right,
43,6,1,0.8841143999998167,['n'],1,right,['2'],5,0.46604759999991074,0.4,0,FastFast,22,18,Woman,Right,
44,6,1,4.8688044000000446,['c'],1,left,['3'],4,0.7511696000001393,0.1,0,FastFast,22,18,Woman,Right,
45,6,1,1.1998623999998017,['n'],0,left,['8'],3,0.7343548000003466,0.1,0,FastFast,22,18,Woman,Right,
46,6,1,1.1157892999999603,['n'],1,right,['2'],5,0.7352335999999013,0.1,0,FastFast,22,18,Woman,Right,
47,6,1,1.3339334000002054,['n'],1,right,['3'],4,0.5163093000001027,0.4,0,FastFast,22,18,Woman,Right,
48,6,1,0.7519959999999628,['n'],1,right,['3'],4,0.5848589000001994,0.2,0,FastFast,22,18,Woman,Right,
49,6,1,0.9839652999999089,['n'],1,right,['3'],4,0.2850115999999616,0.4,0,FastFast,22,18,Woman,Right,
50,6,1,0.6337137999998959,['n'],1,right,['8'],3,0.3521704999998292,0.2,0,FastFast,22,18,Woman,Right,
51,6,1,0.8510125000002517,['c'],1,left,['2'],5,0.3851733999999851,0.4,0,FastFast,22,18,Woman,Right,
52,6,1,0.5654583000000457,['n'],1,right,['3'],4,0.5690343000001121,0.1,0,FastFast,22,18,Woman,Right,
53,6,1,1.9320686999999452,['n'],1,right,['2'],5,0.8525994999999966,0.2,0,FastFast,22,18,Woman,Right,
54,6,1,0.5335681999999906,['n'],0,left,['3'],4,0.48491820000026564,0.1,0,FastFast,22,18,Woman,Right,
55,6,1,0.44965989999991507,['c'],1,left,['3'],4,0.683316300000115,0.1,0,FastFast,22,18,Woman,Right,
56,6,1,0.5334591000000728,['n'],1,right,['2'],5,0.5028127999999015,0.4,0,FastFast,22,18,Woman,Right,
57,6,1,0.5336647999997695,['c'],1,left,['2'],5,0.45138150000002497,0.2,0,FastFast,22,18,Woman,Right,
58,6,1,0.5001712999996926,['n'],1,right,['1'],6,0.4018610000002809,0.2,0,FastFast,22,18,Woman,Right,
59,6,1,0.4501918000000842,['c'],1,left,['1'],6,0.38461129999996047,0.1,0,FastFast,22,18,Woman,Right,
0,7,1,1.3181319999998777,['c'],1,left,['1'],6,0.6676370999998653,0.4,0,AccFast,22,18,Woman,Right,
1,7,1,0.7336755999999696,['c'],1,left,['1'],6,0.318137900000238,0.1,0,AccFast,22,18,Woman,Right,
2,7,1,0.6329642999999123,['c'],1,left,['1'],6,0.2681507000002057,0.2,0,AccFast,22,18,Woman,Right,
3,7,1,0.866934300000139,['n'],1,right,['1'],6,0.31832810000014433,0.1,0,AccFast,22,18,Woman,Right,
4,7,1,2.8498844000000645,['n'],1,right,['8'],3,1.0016700999999557,0.2,0,AccFast,22,18,Woman,Right,
5,7,1,2.449573099999725,['n'],0,left,['1'],6,0.5351206000000275,0.2,0,AccFast,22,18,Woman,Right,
6,7,1,2.315792500000043,['n'],1,right,['1'],6,0.5019364999998288,0.1,0,AccFast,22,18,Woman,Right,
7,7,1,1.216484600000058,['n'],0,left,['1'],6,0.2680811000000176,0.2,0,AccFast,22,18,Woman,Right,
8,7,1,2.96647030000031,['n'],0,left,['2'],5,0.35179629999993267,0.1,0,AccFast,22,18,Woman,Right,
9,7,1,0.717401300000347,['n'],1,right,['2'],5,0.18411809999997786,0.2,0,AccFast,22,18,Woman,Right,
10,7,1,0.8995703999999023,['c'],0,right,['8'],3,0.7506886999999551,0.2,0,AccFast,22,18,Woman,Right,
11,7,1,0.7005116000000271,['c'],1,left,['1'],6,0.2347247999996398,0.4,0,AccFast,22,18,Woman,Right,
12,7,1,1.0165352000003622,['n'],0,left,['2'],5,0.31885890000012296,0.1,0,AccFast,22,18,Woman,Right,
13,7,1,0.9842529000002287,['n'],0,left,['2'],5,0.20135839999966265,0.2,0,AccFast,22,18,Woman,Right,
14,7,1,1.7169263000000683,['c'],1,left,['1'],6,0.6014728000000105,0.4,0,AccFast,22,18,Woman,Right,
15,7,1,5.014456999999766,x,-99,left,none,-99,-99,0.1,1,AccFast,22,18,Woman,Right,
16,7,1,1.1824854000001324,['n'],1,right,['3'],4,1.3006181999999171,0.4,0,AccFast,22,18,Woman,Right,
17,7,1,0.6499794999999722,['n'],1,right,['1'],6,0.40085910000016156,0.4,0,AccFast,22,18,Woman,Right,
18,7,1,3.099098799999865,['c'],1,left,['1'],6,0.4509772999999768,0.2,0,AccFast,22,18,Woman,Right,
19,7,1,0.7672170000000733,['c'],1,left,['1'],6,0.252548299999944,0.4,0,AccFast,22,18,Woman,Right,
20,7,1,1.1687028999999711,['c'],0,right,['2'],5,0.49943549999989045,0.2,0,AccFast,22,18,Woman,Right,
21,7,1,0.6332437999999456,['c'],1,left,['2'],5,0.3010039000000688,0.4,0,AccFast,22,18,Woman,Right,
22,7,1,0.932679200000166,['c'],0,right,['2'],5,0.2680472000001828,0.2,0,AccFast,22,18,Woman,Right,
23,7,1,1.7661527999998725,['c'],0,right,['1'],6,0.4341364000001704,0.4,0,AccFast,22,18,Woman,Right,
24,7,1,0.9168555999999626,['n'],1,right,['2'],5,0.5843838999999207,0.2,0,AccFast,22,18,Woman,Right,
25,7,1,0.8187893999997868,['c'],1,left,['1'],6,0.268250099999932,0.2,0,AccFast,22,18,Woman,Right,
26,7,1,1.9668593000001238,['c'],1,left,['2'],5,0.45105919999969046,0.2,0,AccFast,22,18,Woman,Right,
27,7,1,1.1495911000001797,['c'],0,right,['1'],6,0.2665463000003001,0.1,0,AccFast,22,18,Woman,Right,
28,7,1,0.5674418999997215,['c'],1,left,['1'],6,0.2858258000001115,0.4,0,AccFast,22,18,Woman,Right,
29,7,1,2.6000208000000384,['c'],0,right,['1'],6,0.3014284000000771,0.1,0,AccFast,22,18,Woman,Right,
30,7,1,1.932520100000147,['c'],0,right,['3'],4,0.31875780000018494,0.4,0,AccFast,22,18,Woman,Right,
31,7,1,1.2832146999999168,['n'],1,right,['0'],1,0.4013300000001436,0.4,0,AccFast,22,18,Woman,Right,
32,7,1,3.2998272999998335,['n'],1,right,['8'],3,0.3847319999999854,0.1,0,AccFast,22,18,Woman,Right,
33,7,1,1.8168250000003354,['n'],1,right,['8'],3,0.31798750000007203,0.4,0,AccFast,22,18,Woman,Right,
34,7,1,2.416780199999721,['n'],1,right,['2'],5,1.4168233000000328,0.2,0,AccFast,22,18,Woman,Right,
35,7,1,1.76735299999973,['n'],0,left,['3'],4,0.5847432000000481,0.1,0,AccFast,22,18,Woman,Right,
36,7,1,0.7342776999998932,['n'],0,left,['9'],2,0.934641300000294,0.4,0,AccFast,22,18,Woman,Right,
37,7,1,0.933778699999948,['n'],1,right,['1'],6,0.5015450000000783,0.4,0,AccFast,22,18,Woman,Right,
38,7,1,0.6669734000001881,['n'],1,right,['1'],6,0.26625960000001214,0.4,0,AccFast,22,18,Woman,Right,
39,7,1,0.6827650000000176,['n'],1,right,['1'],6,0.25227470000027097,0.1,0,AccFast,22,18,Woman,Right,
40,7,1,1.0820655999996234,['c'],0,right,['1'],6,0.26910829999997077,0.1,0,AccFast,22,18,Woman,Right,
41,7,1,0.8340370999999323,['c'],1,left,['2'],5,0.2357081999998627,0.2,0,AccFast,22,18,Woman,Right,
42,7,1,0.517267400000037,['c'],1,left,['1'],6,0.28369119999979375,0.4,0,AccFast,22,18,Woman,Right,
43,7,1,0.683677500000158,['c'],1,left,['1'],6,0.20169669999995676,0.2,0,AccFast,22,18,Woman,Right,
44,7,1,0.4820679999997992,['n'],1,right,['1'],6,0.5342786999999589,0.2,0,AccFast,22,18,Woman,Right,
45,7,1,0.8690332999999555,['c'],1,left,['1'],6,0.2513394000002336,0.1,0,AccFast,22,18,Woman,Right,
46,7,1,0.9506514999998217,['n'],1,right,['1'],6,0.28469670000004044,0.4,0,AccFast,22,18,Woman,Right,
47,7,1,0.9828418000001875,['n'],1,right,['2'],5,0.7514759000000595,0.2,0,AccFast,22,18,Woman,Right,
48,7,1,0.7336134000001948,['n'],1,right,['1'],6,0.28463160000001153,0.4,0,AccFast,22,18,Woman,Right,
49,7,1,0.7492346999997608,['c'],1,left,['1'],6,0.40212140000039653,0.1,0,AccFast,22,18,Woman,Right,
50,7,1,0.6997360000000299,['c'],1,left,['1'],6,0.20167520000040895,0.4,0,AccFast,22,18,Woman,Right,
51,7,1,1.8997083999997812,['c'],0,right,['2'],5,0.3674340000002303,0.1,0,AccFast,22,18,Woman,Right,
52,7,1,0.7334670000000187,['c'],1,left,['2'],5,0.21798709999984567,0.1,0,AccFast,22,18,Woman,Right,
53,7,1,0.7828749999998763,['c'],1,left,['1'],6,0.218027500000062,0.4,0,AccFast,22,18,Woman,Right,
54,7,1,0.7835399000000507,['c'],1,left,['1'],6,0.20139199999994162,0.2,0,AccFast,22,18,Woman,Right,
55,7,1,0.5839153000001716,['n'],1,right,['1'],6,0.3684845000002497,0.1,0,AccFast,22,18,Woman,Right,
56,7,1,1.1825456000001395,['c'],0,right,['2'],5,0.16764370000009876,0.1,0,AccFast,22,18,Woman,Right,
57,7,1,0.7007629999998244,['c'],1,left,['1'],6,0.13480129999970814,0.1,0,AccFast,22,18,Woman,Right,
58,7,1,0.567036200000075,['c'],0,right,['1'],6,0.15155239999967307,0.1,0,AccFast,22,18,Woman,Right,
59,7,1,0.8504143000000113,['c'],1,left,['2'],5,0.20145989999991798,0.2,0,AccFast,22,18,Woman,Right,
0,8,1,1.5174347000001944,['c'],1,left,['2'],5,0.651326600000175,0.2,0,AccAcc,22,18,Woman,Right,
1,8,1,1.7839271000002555,['c'],1,left,['2'],5,0.4348630999998022,0.1,0,AccAcc,22,18,Woman,Right,
2,8,1,0.9004973000000973,['c'],0,right,['3'],4,0.4509490000000369,0.2,0,AccAcc,22,18,Woman,Right,
3,8,1,2.3836397000000034,['n'],1,right,['3'],4,0.9015656999999919,0.2,0,AccAcc,22,18,Woman,Right,
4,8,1,0.6653582999997525,['n'],1,right,['2'],5,0.6354903000001286,0.4,0,AccAcc,22,18,Woman,Right,
5,8,1,3.000172300000031,['c'],1,left,['2'],5,0.5849991999998565,0.1,0,AccAcc,22,18,Woman,Right,
6,8,1,3.166446000000178,['c'],0,right,['3'],4,0.5181776000003993,0.1,0,AccAcc,22,18,Woman,Right,
7,8,1,0.8004012000001239,['n'],1,right,['2'],5,0.8680638000000727,0.4,0,AccAcc,22,18,Woman,Right,
8,8,1,1.0168932000001405,['c'],1,left,['1'],6,0.3681082999996761,0.4,0,AccAcc,22,18,Woman,Right,
9,8,1,1.8995592000001125,['c'],1,left,['2'],5,0.33482329999969807,0.2,0,AccAcc,22,18,Woman,Right,
10,8,1,0.6506067999998777,['n'],1,right,['2'],5,0.3177408999999898,0.2,0,AccAcc,22,18,Woman,Right,
11,8,1,0.7669628000003286,['c'],1,left,['1'],6,0.4014593000001696,0.4,0,AccAcc,22,18,Woman,Right,
12,8,1,0.9654986000000463,['c'],1,left,['2'],5,0.5180679000000055,0.4,0,AccAcc,22,18,Woman,Right,
13,8,1,0.6176583999999821,['n'],1,right,['2'],5,0.3521101000001181,0.1,0,AccAcc,22,18,Woman,Right,
14,8,1,1.2315999000002193,['c'],0,right,['2'],5,0.4693772999999055,0.2,0,AccAcc,22,18,Woman,Right,
15,8,1,0.882901099999799,['c'],1,left,['2'],5,0.334519999999884,0.1,0,AccAcc,22,18,Woman,Right,
16,8,1,0.6501063000000613,['c'],1,left,['1'],6,0.3015267999999196,0.4,0,AccAcc,22,18,Woman,Right,
17,8,1,3.583267999999862,['c'],1,left,['1'],6,0.5996889999996711,0.4,0,AccAcc,22,18,Woman,Right,
18,8,1,1.8687260000001515,['n'],1,right,['1'],6,0.3334429999999884,0.2,0,AccAcc,22,18,Woman,Right,
19,8,1,0.9011424000000261,['c'],1,left,['1'],6,0.20148440000002665,0.1,0,AccAcc,22,18,Woman,Right,
20,8,1,0.7497304000003169,['c'],0,right,['2'],5,0.30171510000036506,0.1,0,AccAcc,22,18,Woman,Right,
21,8,1,0.8826368000000002,['c'],1,left,['2'],5,0.2025087000001804,0.4,0,AccAcc,22,18,Woman,Right,
22,8,1,2.8668492000001606,['c'],1,left,['3'],4,0.41817330000003494,0.1,0,AccAcc,22,18,Woman,Right,
23,8,1,0.6010950999998386,['c'],0,right,['1'],6,0.28465700000015204,0.2,0,AccAcc,22,18,Woman,Right,
24,8,1,0.6004611999996996,['c'],1,left,['1'],6,0.267983500000355,0.2,0,AccAcc,22,18,Woman,Right,
25,8,1,0.467760300000009,['n'],1,right,['1'],6,0.3846246999996765,0.2,0,AccAcc,22,18,Woman,Right,
26,8,1,3.0006756000002497,['c'],0,right,['2'],5,0.3347358000000895,0.2,0,AccAcc,22,18,Woman,Right,
27,8,1,0.7324284000001171,['c'],1,left,['1'],6,0.2841862000000219,0.4,0,AccAcc,22,18,Woman,Right,
28,8,1,0.7184794999998303,['c'],1,left,['1'],6,0.25105059999987134,0.1,0,AccAcc,22,18,Woman,Right,
29,8,1,1.4337149000002682,['n'],0,left,['1'],6,0.4178799000001163,0.2,0,AccAcc,22,18,Woman,Right,
30,8,1,0.999775100000079,['n'],0,left,['2'],5,0.40208320000010644,0.4,0,AccAcc,22,18,Woman,Right,
31,8,1,2.9835195000000567,['c'],1,left,['3'],4,0.4856660999998894,0.2,0,AccAcc,22,18,Woman,Right,
32,8,1,1.2666709000000083,['n'],1,right,['3'],4,1.1512852000000748,0.4,0,AccAcc,22,18,Woman,Right,
33,8,1,1.2336549999999988,['c'],0,right,['3'],4,0.4336293999999725,0.1,0,AccAcc,22,18,Woman,Right,
34,8,1,1.517119399999956,['n'],1,right,['2'],5,0.318677100000059,0.1,0,AccAcc,22,18,Woman,Right,
35,8,1,1.383126700000048,['n'],1,right,['8'],3,0.7665096000000631,0.2,0,AccAcc,22,18,Woman,Right,
36,8,1,1.0341788999999153,['n'],1,right,['3'],4,0.29965390000006664,0.2,0,AccAcc,22,18,Woman,Right,
37,8,1,1.217615200000182,['n'],0,left,['3'],4,0.29944380000006277,0.1,0,AccAcc,22,18,Woman,Right,
38,8,1,0.9180811999999605,['n'],1,right,['3'],4,0.31878620000043156,0.4,0,AccAcc,22,18,Woman,Right,
39,8,1,2.217139899999893,['n'],0,left,['3'],4,0.7340159999998832,0.4,0,AccAcc,22,18,Woman,Right,
40,8,1,0.8661184000002322,['n'],0,left,['3'],4,0.33438680000017484,0.1,0,AccAcc,22,18,Woman,Right,
41,8,1,1.5839366999998674,['n'],1,right,['3'],4,0.33457419999967897,0.4,0,AccAcc,22,18,Woman,Right,
42,8,1,1.4996798999995917,['n'],0,left,['3'],4,0.4846289000001889,0.4,0,AccAcc,22,18,Woman,Right,
43,8,1,1.0845924000000196,['n'],1,right,['3'],4,0.3015073999999913,0.2,0,AccAcc,22,18,Woman,Right,
44,8,1,0.6018002000000706,['c'],1,left,['1'],6,0.26684900000009293,0.2,0,AccAcc,22,18,Woman,Right,
45,8,1,0.5670003000000179,['n'],1,right,['1'],6,0.25165949999973236,0.1,0,AccAcc,22,18,Woman,Right,
46,8,1,1.082772499999919,['n'],1,right,['2'],5,0.23519480000004478,0.1,0,AccAcc,22,18,Woman,Right,
47,8,1,2.5168297000000166,['n'],0,left,['1'],6,0.5853038000000197,0.2,0,AccAcc,22,18,Woman,Right,
48,8,1,1.2336772000003293,['n'],1,right,['3'],4,0.40154759999995804,0.2,0,AccAcc,22,18,Woman,Right,
49,8,1,0.7173512999997911,['n'],0,left,['2'],5,0.30117329999984577,0.1,0,AccAcc,22,18,Woman,Right,
50,8,1,0.9996948999996675,['c'],1,left,['2'],5,0.28488279999965016,0.1,0,AccAcc,22,18,Woman,Right,
51,8,1,1.1175320999996075,['n'],1,right,['3'],4,0.6009050000002389,0.1,0,AccAcc,22,18,Woman,Right,
52,8,1,0.5998142000003099,['n'],1,right,['1'],6,0.30125079999970694,0.4,0,AccAcc,22,18,Woman,Right,
53,8,1,1.2671181000000615,['n'],0,left,['2'],5,0.5848571000001357,0.4,0,AccAcc,22,18,Woman,Right,
54,8,1,1.483580499999789,['n'],1,right,['1'],6,0.3000197000001208,0.4,0,AccAcc,22,18,Woman,Right,
55,8,1,0.7166503999997076,['n'],1,right,['1'],6,0.23387030000003506,0.2,0,AccAcc,22,18,Woman,Right,
56,8,1,2.1167851000000155,['n'],0,left,['8'],3,0.3835033000000294,0.1,0,AccAcc,22,18,Woman,Right,
57,8,1,0.9000888000000486,['c'],1,left,['2'],5,0.35090930000023945,0.4,0,AccAcc,22,18,Woman,Right,
58,8,1,0.8176757000001089,['n'],1,right,['2'],5,0.30195910000020376,0.4,0,AccAcc,22,18,Woman,Right,
59,8,1,2.2509323999997832,['n'],1,right,['2'],5,0.3507707000003393,0.1,0,AccAcc,22,18,Woman,Right,
0,9,1,0.8523308000003453,['c'],1,left,['2'],5,1.1511629999999968,0.4,0,FastAcc,22,18,Woman,Right,
1,9,1,0.8173951000003399,['c'],0,right,['3'],4,0.38394289999996545,0.1,0,FastAcc,22,18,Woman,Right,
2,9,1,1.666244800000186,['c'],0,right,['3'],4,0.8845989000001282,0.1,0,FastAcc,22,18,Woman,Right,
3,9,1,0.5171572999997807,['c'],1,left,['1'],6,0.36714679999977307,0.2,0,FastAcc,22,18,Woman,Right,
4,9,1,0.783730099999957,['c'],0,right,['1'],6,0.41822159999992436,0.4,0,FastAcc,22,18,Woman,Right,
5,9,1,0.76676660000021,['n'],1,right,['2'],5,0.45185410000021875,0.4,0,FastAcc,22,18,Woman,Right,
6,9,1,0.6507378000001154,['c'],1,left,['2'],5,0.5841661999997996,0.1,0,FastAcc,22,18,Woman,Right,
7,9,1,1.8499808000001394,['n'],1,right,['3'],4,0.42014049999988856,0.4,0,FastAcc,22,18,Woman,Right,
8,9,1,1.2161117000000559,['n'],1,right,['3'],4,0.45025150000037684,0.2,0,FastAcc,22,18,Woman,Right,
9,9,1,1.4825203000000329,['c'],0,right,['3'],4,0.31903719999991154,0.1,0,FastAcc,22,18,Woman,Right,
10,9,1,1.6342549000000872,['n'],0,left,['3'],4,0.2851974000000155,0.2,0,FastAcc,22,18,Woman,Right,
11,9,1,1.900051699999949,['n'],0,left,['3'],4,0.40146610000010696,0.1,0,FastAcc,22,18,Woman,Right,
12,9,1,1.1338969999997062,['c'],1,left,['3'],4,0.334710399999949,0.1,0,FastAcc,22,18,Woman,Right,
13,9,1,2.266561200000069,['c'],1,left,['3'],4,0.35077880000017103,0.4,0,FastAcc,22,18,Woman,Right,
14,9,1,0.8832167999999001,['n'],1,right,['3'],4,0.3168820999999298,0.2,0,FastAcc,22,18,Woman,Right,
15,9,1,0.7343018999999913,['n'],1,right,['3'],4,0.3335756000001311,0.4,0,FastAcc,22,18,Woman,Right,
16,9,1,0.6508852000001752,['n'],1,right,['2'],5,0.5849455000002308,0.4,0,FastAcc,22,18,Woman,Right,
17,9,1,2.233724700000039,['n'],1,right,['3'],4,1.333578100000068,0.1,0,FastAcc,22,18,Woman,Right,
18,9,1,0.5848631000003479,['c'],1,left,['8'],3,0.9846686999999292,0.2,0,FastAcc,22,18,Woman,Right,
19,9,1,0.7336906000000454,['n'],0,left,['8'],3,0.8349898999999823,0.2,0,FastAcc,22,18,Woman,Right,
20,9,1,0.6490383000000293,['n'],1,right,['2'],5,0.45165869999982533,0.2,0,FastAcc,22,18,Woman,Right,
21,9,1,0.6004790000001776,['n'],1,right,['1'],6,0.6681225000002087,0.4,0,FastAcc,22,18,Woman,Right,
22,9,1,0.917377000000215,['n'],0,left,['1'],6,1.034780999999839,0.2,0,FastAcc,22,18,Woman,Right,
23,9,1,1.416762899999867,['n'],0,left,['2'],5,0.6181704000000536,0.1,0,FastAcc,22,18,Woman,Right,
24,9,1,0.7172723999997288,['n'],1,right,['3'],4,0.5167784000000211,0.1,0,FastAcc,22,18,Woman,Right,
25,9,1,3.750369899999896,['c'],1,left,['8'],3,0.5345778999999311,0.1,0,FastAcc,22,18,Woman,Right,
26,9,1,0.7834805000002234,['n'],0,left,['8'],3,0.4010950000001685,0.2,0,FastAcc,22,18,Woman,Right,
27,9,1,0.6172732999998516,['n'],1,right,['2'],5,0.4182503000001816,0.1,0,FastAcc,22,18,Woman,Right,
28,9,1,0.6671729999998206,['c'],1,left,['3'],4,0.45164089999980206,0.2,0,FastAcc,22,18,Woman,Right,
29,9,1,0.7661880999999084,['c'],1,left,['2'],5,0.26783640000030573,0.2,0,FastAcc,22,18,Woman,Right,
30,9,1,0.5837289000000965,['n'],1,right,['1'],6,0.38514649999979156,0.4,0,FastAcc,22,18,Woman,Right,
31,9,1,2.1829013000001396,['c'],0,right,['2'],5,0.5017092000002776,0.2,0,FastAcc,22,18,Woman,Right,
32,9,1,0.7507911999996395,['c'],1,left,['3'],4,0.9012219000001096,0.4,0,FastAcc,22,18,Woman,Right,
33,9,1,2.083494999999857,['c'],1,left,['2'],5,0.501698199999737,0.4,0,FastAcc,22,18,Woman,Right,
34,9,1,0.5498000000002321,['c'],1,left,['2'],5,0.301475599999776,0.4,0,FastAcc,22,18,Woman,Right,
35,9,1,0.600499800000307,['n'],1,right,['1'],6,0.368363699999918,0.4,0,FastAcc,22,18,Woman,Right,
36,9,1,0.583591399999932,['n'],1,right,['1'],6,0.3678503000001001,0.1,0,FastAcc,22,18,Woman,Right,
37,9,1,1.133654000000206,['c'],1,left,['1'],6,0.4015850999999202,0.4,0,FastAcc,22,18,Woman,Right,
38,9,1,0.5674103000001196,['n'],1,right,['1'],6,0.26826119999986986,0.2,0,FastAcc,22,18,Woman,Right,
39,9,1,0.8673188999996455,['c'],1,left,['1'],6,0.25132510000003094,0.2,0,FastAcc,22,18,Woman,Right,
40,9,1,0.784197899999981,['n'],1,right,['1'],6,0.2845901999999114,0.2,0,FastAcc,22,18,Woman,Right,
41,9,1,1.6330877000000328,['c'],1,left,['1'],6,0.4009990000004109,0.1,0,FastAcc,22,18,Woman,Right,
42,9,1,1.3503396999999495,['c'],1,left,['1'],6,0.30092850000028193,0.1,0,FastAcc,22,18,Woman,Right,
43,9,1,0.9174998000003143,['c'],1,left,['1'],6,0.33441869999978735,0.4,0,FastAcc,22,18,Woman,Right,
44,9,1,1.3511036999998396,['c'],0,right,['1'],6,0.3181995000004463,0.2,0,FastAcc,22,18,Woman,Right,
45,9,1,0.7341592000002493,['c'],1,left,['1'],6,0.30137239999976373,0.1,0,FastAcc,22,18,Woman,Right,
46,9,1,0.6673667000000023,['c'],1,left,['1'],6,0.25000390000013795,0.4,0,FastAcc,22,18,Woman,Right,
47,9,1,1.7330842999999732,['n'],1,right,['1'],6,0.8023567000000185,0.2,0,FastAcc,22,18,Woman,Right,
48,9,1,2.250845399999889,['n'],0,left,['8'],3,0.26832080000031056,0.4,0,FastAcc,22,18,Woman,Right,
49,9,1,0.6336526000000049,['c'],1,left,['2'],5,0.43377490000011676,0.2,0,FastAcc,22,18,Woman,Right,
50,9,1,0.7678473000000849,['c'],1,left,['1'],6,0.2003036000000975,0.2,0,FastAcc,22,18,Woman,Right,
51,9,1,1.8507291000000805,['n'],1,right,['3'],4,0.8357387999999446,0.1,0,FastAcc,22,18,Woman,Right,
52,9,1,0.4503639999998086,['n'],1,right,['1'],6,0.4179599999997663,0.4,0,FastAcc,22,18,Woman,Right,
53,9,1,0.8162079999997331,['n'],0,left,['2'],5,0.33428449999973964,0.1,0,FastAcc,22,18,Woman,Right,
54,9,1,0.6661508000001959,['c'],1,left,['1'],6,0.30089300000008734,0.4,0,FastAcc,22,18,Woman,Right,
55,9,1,0.6176706999999624,['n'],1,right,['2'],5,0.33536019999974087,0.1,0,FastAcc,22,18,Woman,Right,
56,9,1,0.4844895000001088,['n'],1,right,['2'],5,0.34940310000001773,0.2,0,FastAcc,22,18,Woman,Right,
57,9,1,1.0350149000000783,['c'],0,right,['2'],5,0.2329808999998022,0.1,0,FastAcc,22,18,Woman,Right,
58,9,1,0.7844436000000314,['n'],1,right,['2'],5,0.3001427000003787,0.1,0,FastAcc,22,18,Woman,Right,
59,9,1,0.5342302999997628,['n'],1,right,['1'],6,0.3845696999997017,0.4,0,FastAcc,22,18,Woman,Right,
0,10,1,0.5675489000000198,['n'],1,right,['1'],6,0.38427249999995183,0.4,0,FastFast,22,18,Woman,Right,
1,10,1,0.45025319999967905,['n'],1,right,['3'],4,0.6672745999999279,0.1,0,FastFast,22,18,Woman,Right,
2,10,1,0.4520991999997932,['n'],1,right,['8'],3,0.31787519999988945,0.2,0,FastFast,22,18,Woman,Right,
3,10,1,0.49942220000002635,['n'],1,right,['3'],4,0.3354044000002432,0.4,0,FastFast,22,18,Woman,Right,
4,10,1,0.5341630000002624,['n'],1,right,['2'],5,0.31774159999986296,0.2,0,FastFast,22,18,Woman,Right,
5,10,1,0.9665151999997761,['c'],1,left,['1'],6,0.26674370000000636,0.1,0,FastFast,22,18,Woman,Right,
6,10,1,0.5840453000000707,['n'],1,right,['8'],3,0.3684765999996671,0.1,0,FastFast,22,18,Woman,Right,
7,10,1,0.5175097999999707,['n'],1,right,['3'],4,0.2179943999999523,0.1,0,FastFast,22,18,Woman,Right,
8,10,1,0.5003423999996812,['n'],1,right,['1'],6,0.25088929999992615,0.4,0,FastFast,22,18,Woman,Right,
9,10,1,0.6003850000001876,['c'],1,left,['1'],6,0.2674758000002839,0.1,0,FastFast,22,18,Woman,Right,
10,10,1,0.5837567000003219,['n'],0,left,['3'],4,0.30119479999984833,0.1,0,FastFast,22,18,Woman,Right,
11,10,1,0.517244699999992,['n'],1,right,['1'],6,0.3012840999999753,0.2,0,FastFast,22,18,Woman,Right,
12,10,1,1.2498375000000124,['c'],0,right,['1'],6,0.30185500000015963,0.1,0,FastFast,22,18,Woman,Right,
13,10,1,0.6503741000001355,['c'],1,left,['1'],6,0.30054699999982404,0.2,0,FastFast,22,18,Woman,Right,
14,10,1,0.6169666000000689,['c'],1,left,['2'],5,0.35145739999961734,0.4,0,FastFast,22,18,Woman,Right,
15,10,1,0.6171796999997241,['n'],1,right,['2'],5,0.23513920000004873,0.2,0,FastFast,22,18,Woman,Right,
16,10,1,0.6154222999998638,['n'],1,right,['3'],4,0.30197420000013153,0.1,0,FastFast,22,18,Woman,Right,
17,10,1,0.5004241999999977,['n'],1,right,['3'],4,0.20158600000013394,0.1,0,FastFast,22,18,Woman,Right,
18,10,1,0.7837220999999772,['c'],1,left,['1'],6,0.13344820000020263,0.4,0,FastFast,22,18,Woman,Right,
19,10,1,0.5491993999999067,['c'],1,left,['1'],6,0.218498499999896,0.4,0,FastFast,22,18,Woman,Right,
20,10,1,0.49945449999995617,['c'],1,left,['1'],6,0.1854432000000088,0.4,0,FastFast,22,18,Woman,Right,
21,10,1,0.43367650000027425,['n'],1,right,['1'],6,0.2014379000002009,0.4,0,FastFast,22,18,Woman,Right,
22,10,1,0.4994956999998976,['n'],0,left,['0'],1,0.8833233000000291,0.1,0,FastFast,22,18,Woman,Right,
23,10,1,0.7175515000003543,['c'],1,left,['1'],6,0.18485129999999117,0.2,0,FastFast,22,18,Woman,Right,
24,10,1,0.5838183999999274,['c'],1,left,['1'],6,0.1847250000000713,0.2,0,FastFast,22,18,Woman,Right,
25,10,1,0.5005200999999033,['n'],1,right,['1'],6,0.2179601000002549,0.2,0,FastFast,22,18,Woman,Right,
26,10,1,0.46734920000017155,['n'],0,left,['1'],6,0.18523599999980433,0.2,0,FastFast,22,18,Woman,Right,
27,10,1,0.8336706000000049,['c'],1,left,['1'],6,0.1666006999998899,0.2,0,FastFast,22,18,Woman,Right,
28,10,1,0.4178279000002476,['n'],1,right,['1'],6,0.26808989999972255,0.2,0,FastFast,22,18,Woman,Right,
29,10,1,0.4331339000000298,['n'],1,right,['1'],6,0.21801300000015544,0.4,0,FastFast,22,18,Woman,Right,
30,10,1,0.4180931999999302,['c'],1,left,['1'],6,0.18508849999989252,0.2,0,FastFast,22,18,Woman,Right,
31,10,1,0.38347569999996267,['n'],1,right,['1'],6,0.45013020000033066,0.1,0,FastFast,22,18,Woman,Right,
32,10,1,0.5504611000001205,['c'],1,left,['1'],6,0.16797929999984262,0.2,0,FastFast,22,18,Woman,Right,
33,10,1,0.5669537000003402,['c'],1,left,['1'],6,0.23410160000003088,0.1,0,FastFast,22,18,Woman,Right,
34,10,1,0.4174284999999145,['n'],1,right,['1'],6,0.18462869999984832,0.4,0,FastFast,22,18,Woman,Right,
35,10,1,0.4331150000002708,['n'],1,right,['1'],6,0.2682195000002139,0.1,0,FastFast,22,18,Woman,Right,
36,10,1,0.3837826000003588,['n'],1,right,['1'],6,0.2504791999999725,0.4,0,FastFast,22,18,Woman,Right,
37,10,1,0.30046859999993103,['c'],0,right,['1'],6,0.21828340000001845,0.2,0,FastFast,22,18,Woman,Right,
38,10,1,0.550161399999979,['c'],0,right,['1'],6,0.30141239999966274,0.1,0,FastFast,22,18,Woman,Right,
39,10,1,0.5170038999999633,['c'],1,left,['1'],6,0.1510631999999532,0.1,0,FastFast,22,18,Woman,Right,
40,10,1,0.4168925999997555,['n'],0,left,['1'],6,0.2509050000003299,0.1,0,FastFast,22,18,Woman,Right,
41,10,1,0.4664442000002964,['n'],1,right,['1'],6,0.3015771999998833,0.4,0,FastFast,22,18,Woman,Right,
42,10,1,0.3994600000000901,['n'],1,right,['1'],6,0.25167830000009417,0.2,0,FastFast,22,18,Woman,Right,
43,10,1,0.5171319000000949,['n'],1,right,['1'],6,0.2182225000001381,0.4,0,FastFast,22,18,Woman,Right,
44,10,1,0.6503112999998848,['c'],1,left,['1'],6,0.21806100000003426,0.4,0,FastFast,22,18,Woman,Right,
45,10,1,0.5660053999999946,['c'],1,left,['1'],6,0.21807339999986652,0.2,0,FastFast,22,18,Woman,Right,
46,10,1,0.7502386999999544,['c'],1,left,['2'],5,0.25188299999990704,0.2,0,FastFast,22,18,Woman,Right,
47,10,1,0.6992379999996956,['n'],0,left,['2'],5,0.1858763000000181,0.1,0,FastFast,22,18,Woman,Right,
48,10,1,0.5503183000000718,['c'],1,left,['1'],6,0.20138290000022607,0.4,0,FastFast,22,18,Woman,Right,
49,10,1,0.5502813000002789,['c'],1,left,['1'],6,0.20153179999988424,0.4,0,FastFast,22,18,Woman,Right,
50,10,1,0.517986600000313,['n'],0,left,['2'],5,0.41829280000001745,0.4,0,FastFast,22,18,Woman,Right,
51,10,1,0.8328738000000158,['n'],1,right,['1'],6,0.2515834000000723,0.2,0,FastFast,22,18,Woman,Right,
52,10,1,0.40050460000020394,['c'],1,left,['1'],6,0.16807359999984328,0.4,0,FastFast,22,18,Woman,Right,
53,10,1,0.35057129999995595,['n'],1,right,['2'],5,0.25142730000015945,0.2,0,FastFast,22,18,Woman,Right,
54,10,1,0.6666270999999142,['n'],0,left,['3'],4,0.33549379999976736,0.4,0,FastFast,22,18,Woman,Right,
55,10,1,0.5173245999999381,['n'],1,right,['2'],5,1.3513076999997793,0.1,0,FastFast,22,18,Woman,Right,
56,10,1,0.7837857000004078,['n'],1,right,['2'],5,0.18498910000016622,0.1,0,FastFast,22,18,Woman,Right,
57,10,1,0.7504321999999775,['c'],1,left,['2'],5,0.25144879999970726,0.2,0,FastFast,22,18,Woman,Right,
58,10,1,0.7667370000003757,['n'],0,left,['1'],6,0.5016159000001608,0.1,0,FastFast,22,18,Woman,Right,
59,10,1,0.48389959999985876,['n'],0,left,['2'],5,0.4679802999999083,0.4,0,FastFast,22,18,Woman,Right,
0,11,1,0.835061400000086,['c'],1,left,['1'],6,0.33463510000001406,0.4,0,AccFast,22,18,Woman,Right,
1,11,1,0.48437809999995807,['n'],1,right,['1'],6,0.2347234000003482,0.4,0,AccFast,22,18,Woman,Right,
2,11,1,0.4342145000000528,['c'],1,left,['1'],6,0.23474480000004405,0.2,0,AccFast,22,18,Woman,Right,
3,11,1,0.6825599999997394,['n'],1,right,['3'],4,0.23539219999975103,0.4,0,AccFast,22,18,Woman,Right,
4,11,1,0.6175149999999121,['c'],1,left,['1'],6,0.1346667999996498,0.4,0,AccFast,22,18,Woman,Right,
5,11,1,0.48400130000027275,['n'],1,right,['1'],6,0.20134999999982028,0.1,0,AccFast,22,18,Woman,Right,
6,11,1,0.4838572000003296,['n'],1,right,['1'],6,0.21807880000005753,0.4,0,AccFast,22,18,Woman,Right,
7,11,1,0.41717419999986305,['n'],1,right,['1'],6,0.2347829999998794,0.1,0,AccFast,22,18,Woman,Right,
8,11,1,0.9334979000000203,['c'],0,right,['3'],4,0.6848373000002539,0.1,0,AccFast,22,18,Woman,Right,
9,11,1,0.5171572999997807,['n'],1,right,['1'],6,0.23489610000024186,0.4,0,AccFast,22,18,Woman,Right,
10,11,1,0.45098049999978684,['n'],1,right,['1'],6,0.2340049999997973,0.2,0,AccFast,22,18,Woman,Right,
11,11,1,0.48310120000041934,['n'],1,right,['3'],4,0.5515593000000081,0.1,0,AccFast,22,18,Woman,Right,
12,11,1,0.5505984000001263,['n'],1,right,['1'],6,0.23342269999966447,0.4,0,AccFast,22,18,Woman,Right,
13,11,1,0.7174901000003047,['c'],1,left,['1'],6,0.2016676000002917,0.4,0,AccFast,22,18,Woman,Right,
14,11,1,0.5828644000002896,['n'],0,left,['1'],6,0.1680593000000954,0.2,0,AccFast,22,18,Woman,Right,
15,11,1,0.5337553999997908,['n'],1,right,['1'],6,0.21803739999995742,0.1,0,AccFast,22,18,Woman,Right,
16,11,1,0.5337037000003875,['n'],1,right,['1'],6,0.20151910000004136,0.4,0,AccFast,22,18,Woman,Right,
17,11,1,0.433197900000323,['n'],1,right,['1'],6,0.21787829999993846,0.2,0,AccFast,22,18,Woman,Right,
18,11,1,0.6507093000000168,['n'],0,left,['2'],5,0.41656579999971655,0.1,0,AccFast,22,18,Woman,Right,
19,11,1,0.45129560000032143,['n'],1,right,['2'],5,0.1847032999999101,0.2,0,AccFast,22,18,Woman,Right,
20,11,1,0.6175906999997096,['c'],1,left,['1'],6,0.1847075999999106,0.2,0,AccFast,22,18,Woman,Right,
21,11,1,0.49947400000019115,['n'],1,right,['2'],5,0.18475850000004357,0.4,0,AccFast,22,18,Woman,Right,
22,11,1,0.5830809999997655,['n'],0,left,['1'],6,0.19971099999975195,0.4,0,AccFast,22,18,Woman,Right,
23,11,1,0.5859579000002668,['n'],1,right,['2'],5,0.20185600000013437,0.2,0,AccFast,22,18,Woman,Right,
24,11,1,0.8493043999997099,['c'],1,left,['1'],6,0.13525639999988925,0.2,0,AccFast,22,18,Woman,Right,
25,11,1,0.5841130999997404,['c'],1,left,['1'],6,0.13479969999980312,0.4,0,AccFast,22,18,Woman,Right,
26,11,1,1.2330345000000307,['c'],1,left,['1'],6,0.15189289999989342,0.2,0,AccFast,22,18,Woman,Right,
27,11,1,0.451173800000106,['c'],1,left,['1'],6,0.2183261999998649,0.4,0,AccFast,22,18,Woman,Right,
28,11,1,0.43368020000025354,['c'],1,left,['1'],6,0.15161729999999807,0.2,0,AccFast,22,18,Woman,Right,
29,11,1,0.7163917000002584,['n'],1,right,['1'],6,0.21807339999986652,0.2,0,AccFast,22,18,Woman,Right,
30,11,1,1.2338536000002023,['n'],1,right,['1'],6,0.23380170000018552,0.1,0,AccFast,22,18,Woman,Right,
31,11,1,0.9837191999999959,['n'],1,right,['1'],6,0.1851744000000508,0.2,0,AccFast,22,18,Woman,Right,
32,11,1,0.5988604999997733,['n'],0,left,['1'],6,0.2185815999996521,0.4,0,AccFast,22,18,Woman,Right,
33,11,1,0.4828161000000364,['n'],0,left,['1'],6,0.3021745999999439,0.1,0,AccFast,22,18,Woman,Right,
34,11,1,0.6337373000001207,['n'],1,right,['2'],5,0.23468050000019502,0.1,0,AccFast,22,18,Woman,Right,
35,11,1,0.7492878000002747,['n'],1,right,['1'],6,1.251747400000113,0.1,0,AccFast,22,18,Woman,Right,
36,11,1,1.1002395999998953,['c'],1,left,['2'],5,0.46728910000001633,0.1,0,AccFast,22,18,Woman,Right,
37,11,1,0.5005558000002566,['n'],1,right,['1'],6,0.33474759999990056,0.4,0,AccFast,22,18,Woman,Right,
38,11,1,0.6501145000001998,['n'],0,left,['1'],6,0.21735530000023573,0.2,0,AccFast,22,18,Woman,Right,
39,11,1,0.6169546999999511,['n'],0,left,['1'],6,0.2678358000002845,0.2,0,AccFast,22,18,Woman,Right,
40,11,1,1.2835729000003084,['c'],1,left,['2'],5,0.3179936000001362,0.4,0,AccFast,22,18,Woman,Right,
41,11,1,1.9334395000000768,['n'],1,right,['2'],5,0.23491779999994833,0.1,0,AccFast,22,18,Woman,Right,
42,11,1,0.5507663999997021,['n'],0,left,['2'],5,0.21805810000023484,0.1,0,AccFast,22,18,Woman,Right,
43,11,1,1.767004100000122,['n'],1,right,['2'],5,0.23379539999996268,0.1,0,AccFast,22,18,Woman,Right,
44,11,1,0.600025100000039,['c'],0,right,['1'],6,0.2015516999999818,0.1,0,AccFast,22,18,Woman,Right,
45,11,1,0.9501500000001215,['c'],1,left,['2'],5,0.3178704000001744,0.1,0,AccFast,22,18,Woman,Right,
46,11,1,0.7669891999998981,['n'],1,right,['2'],5,0.16857630000004065,0.2,0,AccFast,22,18,Woman,Right,
47,11,1,0.8337037999999666,['n'],0,left,['1'],6,0.18453090000002703,0.2,0,AccFast,22,18,Woman,Right,
48,11,1,0.5837271999998848,['c'],1,left,['1'],6,0.1672367999999551,0.4,0,AccFast,22,18,Woman,Right,
49,11,1,0.5661337000001367,['c'],1,left,['1'],6,0.1684611999999106,0.1,0,AccFast,22,18,Woman,Right,
50,11,1,0.5502842999999302,['c'],1,left,['1'],6,0.1845210000001316,0.2,0,AccFast,22,18,Woman,Right,
51,11,1,0.9835932000000867,['c'],0,right,['1'],6,0.1681365999997979,0.2,0,AccFast,22,18,Woman,Right,
52,11,1,1.534292600000299,['n'],1,right,['8'],3,0.25158049999981813,0.1,0,AccFast,22,18,Woman,Right,
53,11,1,0.6002347999997255,['c'],0,right,['1'],6,0.16916859999992084,0.4,0,AccFast,22,18,Woman,Right,
54,11,1,0.46694179999985863,['c'],1,left,['1'],6,0.3340531999997438,0.2,0,AccFast,22,18,Woman,Right,
55,11,1,0.4330019999997603,['c'],1,left,['1'],6,0.1682912999999644,0.4,0,AccFast,22,18,Woman,Right,
56,11,1,0.6991263999998409,['c'],1,left,['1'],6,0.18420689999993556,0.2,0,AccFast,22,18,Woman,Right,
57,11,1,0.4834519999999429,['c'],1,left,['1'],6,0.16792759999998452,0.1,0,AccFast,22,18,Woman,Right,
58,11,1,0.43377559999998994,['c'],0,right,['1'],6,0.20135529999970458,0.1,0,AccFast,22,18,Woman,Right,
59,11,1,0.7325685999999223,['c'],1,left,['1'],6,0.2686549999998533,0.4,0,AccFast,22,18,Woman,Right,
0,12,1,1.0008508000000802,['c'],1,left,['1'],6,0.3514740000000529,0.4,0,AccAcc,22,18,Woman,Right,
1,12,1,0.7838393000001815,['n'],1,right,['1'],6,0.28457929999967746,0.2,0,AccAcc,22,18,Woman,Right,
2,12,1,1.2331506999998965,['n'],1,right,['1'],6,0.3179116999999678,0.4,0,AccAcc,22,18,Woman,Right,
3,12,1,0.7003779999995459,['c'],1,left,['1'],6,0.36720639999930427,0.1,0,AccAcc,22,18,Woman,Right,
4,12,1,0.6504986999998437,['c'],1,left,['1'],6,0.30168270000012853,0.1,0,AccAcc,22,18,Woman,Right,
5,12,1,0.6163759999999456,['c'],1,left,['1'],6,0.3514033000001291,0.4,0,AccAcc,22,18,Woman,Right,
6,12,1,0.45044249999955355,['c'],1,left,['1'],6,0.43417520000002696,0.4,0,AccAcc,22,18,Woman,Right,
7,12,1,0.8003832999993392,['n'],1,right,['1'],6,0.41800770000008924,0.1,0,AccAcc,22,18,Woman,Right,
8,12,1,0.7337311000001137,['n'],0,left,['2'],5,0.2511484999995446,0.2,0,AccAcc,22,18,Woman,Right,
9,12,1,0.865726299999551,['c'],1,left,['2'],5,0.38400499999988824,0.1,0,AccAcc,22,18,Woman,Right,
10,12,1,0.9675572000005559,['n'],0,left,['2'],5,0.3347462000001542,0.1,0,AccAcc,22,18,Woman,Right,
11,12,1,0.6508302000002004,['n'],1,right,['2'],5,0.2511471000007077,0.2,0,AccAcc,22,18,Woman,Right,
12,12,1,0.8836224999995466,['n'],1,right,['8'],3,0.7181337000001804,0.2,0,AccAcc,22,18,Woman,Right,
13,12,1,0.7495537000004333,['n'],1,right,['2'],5,0.2181207000003269,0.1,0,AccAcc,22,18,Woman,Right,
14,12,1,1.7501885000001494,['c'],1,left,['2'],5,0.2678998999999749,0.4,0,AccAcc,22,18,Woman,Right,
15,12,1,0.551041300000179,['n'],1,right,['2'],5,0.3182329999999638,0.1,0,AccAcc,22,18,Woman,Right,
16,12,1,1.0836187999993854,['n'],0,left,['2'],5,0.25152630000047793,0.1,0,AccAcc,22,18,Woman,Right,
17,12,1,0.9327249000007214,['n'],1,right,['9'],2,0.2841437000006408,0.1,0,AccAcc,22,18,Woman,Right,
18,12,1,0.6177159999997457,['n'],1,right,['9'],2,0.30141010000079405,0.1,0,AccAcc,22,18,Woman,Right,
19,12,1,1.3671912999998312,['n'],1,right,['9'],2,0.2680576000002475,0.2,0,AccAcc,22,18,Woman,Right,
20,12,1,0.867394100000638,['n'],1,right,['9'],2,0.21754520000013144,0.1,0,AccAcc,22,18,Woman,Right,
21,12,1,0.5169794000003094,['n'],1,right,['2'],5,0.6515214999999444,0.4,0,AccAcc,22,18,Woman,Right,
22,12,1,0.5662983000001987,['n'],1,right,['2'],5,0.23513650000040798,0.2,0,AccAcc,22,18,Woman,Right,
23,12,1,0.5995999999995547,['n'],1,right,['2'],5,0.3852382999994006,0.1,0,AccAcc,22,18,Woman,Right,
24,12,1,0.5331126999999469,['n'],1,right,['2'],5,0.21800710000024992,0.4,0,AccAcc,22,18,Woman,Right,
25,12,1,0.600456099999974,['n'],0,left,['2'],5,0.1338327000003119,0.2,0,AccAcc,22,18,Woman,Right,
26,12,1,0.8014702000000398,['c'],0,right,['2'],5,0.25141770000027464,0.1,0,AccAcc,22,18,Woman,Right,
27,12,1,0.7341480999994019,['n'],1,right,['2'],5,0.2520576999995683,0.2,0,AccAcc,22,18,Woman,Right,
28,12,1,0.6001804999996239,['n'],0,left,['2'],5,0.23463650000030611,0.2,0,AccAcc,22,18,Woman,Right,
29,12,1,0.9007474999998522,['n'],0,left,['2'],5,0.20176870000068448,0.1,0,AccAcc,22,18,Woman,Right,
30,12,1,0.6164493000005677,['c'],1,left,['2'],5,0.25102500000048167,0.2,0,AccAcc,22,18,Woman,Right,
31,12,1,2.400461600000199,['c'],1,left,['2'],5,0.31817299999966053,0.2,0,AccAcc,22,18,Woman,Right,
32,12,1,0.7336808999998539,['n'],1,right,['2'],5,0.18429609999930108,0.4,0,AccAcc,22,18,Woman,Right,
33,12,1,0.8331949999992503,['n'],1,right,['2'],5,0.8185467999992397,0.4,0,AccAcc,22,18,Woman,Right,
34,12,1,0.6165229999996882,['c'],1,left,['2'],5,0.15134990000024118,0.4,0,AccAcc,22,18,Woman,Right,
35,12,1,0.8002840999997716,['n'],1,right,['1'],6,0.21811950000028446,0.4,0,AccAcc,22,18,Woman,Right,
36,12,1,0.48406400000021677,['c'],1,left,['1'],6,0.2512737000006382,0.1,0,AccAcc,22,18,Woman,Right,
37,12,1,0.9504440999999133,['n'],0,left,['2'],5,0.16824689999975817,0.2,0,AccAcc,22,18,Woman,Right,
38,12,1,1.0335058999999092,['c'],1,left,['1'],6,0.18514349999986734,0.4,0,AccAcc,22,18,Woman,Right,
39,12,1,0.5344852999996874,['n'],1,right,['1'],6,0.251376899999741,0.4,0,AccAcc,22,18,Woman,Right,
40,12,1,0.8162048000003779,['c'],1,left,['1'],6,0.16877220000060333,0.4,0,AccAcc,22,18,Woman,Right,
41,12,1,0.6175845999996454,['n'],1,right,['1'],6,0.20114939999984927,0.4,0,AccAcc,22,18,Woman,Right,
42,12,1,0.6677095000004556,['n'],1,right,['1'],6,0.23415840000052413,0.2,0,AccAcc,22,18,Woman,Right,
43,12,1,0.48411310000028607,['n'],1,right,['2'],5,0.28481920000012906,0.1,0,AccAcc,22,18,Woman,Right,
44,12,1,0.6167186000002403,['c'],1,left,['1'],6,0.2014952000008634,0.1,0,AccAcc,22,18,Woman,Right,
45,12,1,0.6001163000000815,['c'],1,left,['1'],6,0.1688955999998143,0.4,0,AccAcc,22,18,Woman,Right,
46,12,1,0.44941799999924115,['n'],1,right,['1'],6,0.23617229999945266,0.4,0,AccAcc,22,18,Woman,Right,
47,12,1,0.5350263999998788,['n'],1,right,['2'],5,0.3011922000005143,0.4,0,AccAcc,22,18,Woman,Right,
48,12,1,0.5008831999994072,['n'],1,right,['1'],6,0.1514878999996654,0.2,0,AccAcc,22,18,Woman,Right,
49,12,1,0.7170996000004379,['c'],0,right,['1'],6,0.1352326999995057,0.1,0,AccAcc,22,18,Woman,Right,
50,12,1,0.5170222000006106,['c'],0,right,['1'],6,0.16814250000061293,0.2,0,AccAcc,22,18,Woman,Right,
51,12,1,0.7839816999994582,['c'],1,left,['1'],6,0.1522236000000703,0.4,0,AccAcc,22,18,Woman,Right,
52,12,1,0.8485762999998769,['c'],1,left,['2'],5,0.2010427000004711,0.2,0,AccAcc,22,18,Woman,Right,
53,12,1,0.5683304999993197,['c'],1,left,['1'],6,0.1349355000002106,0.4,0,AccAcc,22,18,Woman,Right,
54,12,1,1.0004687999999078,['c'],1,left,['2'],5,0.28465070000038395,0.2,0,AccAcc,22,18,Woman,Right,
55,12,1,0.7668111000002682,['n'],0,left,['3'],4,0.1850564000005761,0.1,0,AccAcc,22,18,Woman,Right,
56,12,1,0.7170244999997522,['c'],1,left,['3'],4,0.13500029999977414,0.2,0,AccAcc,22,18,Woman,Right,
57,12,1,0.38548640000044543,['n'],0,left,['3'],4,0.2181325999999899,0.1,0,AccAcc,22,18,Woman,Right,
58,12,1,0.6004917000000205,['n'],0,left,['3'],4,0.18513919999986683,0.2,0,AccAcc,22,18,Woman,Right,
59,12,1,0.4670510000005379,['n'],1,right,['2'],5,0.20138580000002548,0.2,0,AccAcc,22,18,Woman,Right,
0,13,1,0.751680899999883,['n'],1,right,['2'],5,0.35156089999964024,0.1,0,FastAcc,22,18,Woman,Right,
1,13,1,0.5838388000001942,['n'],0,left,['3'],4,0.2347964000000502,0.2,0,FastAcc,22,18,Woman,Right,
2,13,1,0.43392519999997603,['n'],1,right,['3'],4,0.18389790000037465,0.1,0,FastAcc,22,18,Woman,Right,
3,13,1,0.5829734999997527,['n'],1,right,['3'],4,0.1841247000002113,0.2,0,FastAcc,22,18,Woman,Right,
4,13,1,0.46650880000015604,['n'],1,right,['2'],5,0.21805779999976949,0.4,0,FastAcc,22,18,Woman,Right,
5,13,1,0.6670308000002478,['c'],1,left,['1'],6,0.15176299999984622,0.4,0,FastAcc,22,18,Woman,Right,
6,13,1,0.6002675999998246,['n'],1,right,['2'],5,0.2514480999998341,0.1,0,FastAcc,22,18,Woman,Right,
7,13,1,0.4344020999997156,['n'],1,right,['2'],5,0.3680985999999393,0.4,0,FastAcc,22,18,Woman,Right,
8,13,1,0.36703229999966425,['n'],1,right,['3'],4,0.13336320000053092,0.2,0,FastAcc,22,18,Woman,Right,
9,13,1,0.6010258000005706,['c'],1,left,['3'],4,0.30139779999990424,0.4,0,FastAcc,22,18,Woman,Right,
10,13,1,0.6177440999999817,['c'],1,left,['3'],4,0.11673030000019935,0.1,0,FastAcc,22,18,Woman,Right,
11,13,1,0.4008921000004193,['n'],1,right,['3'],4,0.1684837000002517,0.2,0,FastAcc,22,18,Woman,Right,
12,13,1,0.41475850000006176,['n'],0,left,['3'],4,0.6688093000002482,0.1,0,FastAcc,22,18,Woman,Right,
13,13,1,0.4004283000003852,['n'],1,right,['3'],4,0.23365869999997813,0.2,0,FastAcc,22,18,Woman,Right,
14,13,1,0.366005299999415,['n'],0,left,['2'],5,0.2178433999997651,0.1,0,FastAcc,22,18,Woman,Right,
15,13,1,0.500312600000143,['c'],1,left,['3'],4,0.1673758999995698,0.4,0,FastAcc,22,18,Woman,Right,
16,13,1,0.5668275999996695,['c'],1,left,['1'],6,0.3179012000000512,0.1,0,FastAcc,22,18,Woman,Right,
17,13,1,0.4501295999998547,['c'],1,left,['1'],6,0.16795029999957478,0.2,0,FastAcc,22,18,Woman,Right,
18,13,1,0.3663520999998582,['c'],1,left,['1'],6,0.21698639999976876,0.4,0,FastAcc,22,18,Woman,Right,
19,13,1,0.8847599000000628,['n'],1,right,['1'],6,0.26845140000023093,0.2,0,FastAcc,22,18,Woman,Right,
20,13,1,0.6171168999999281,['c'],1,left,['1'],6,0.11814279999998689,0.4,0,FastAcc,22,18,Woman,Right,
21,13,1,0.5170014000004812,['n'],1,right,['2'],5,0.2180633999996644,0.2,0,FastAcc,22,18,Woman,Right,
22,13,1,0.5334831000000122,['n'],1,right,['2'],5,0.30195110000022396,0.4,0,FastAcc,22,18,Woman,Right,
23,13,1,0.7341151999999056,['c'],1,left,['1'],6,0.16753390000030777,0.4,0,FastAcc,22,18,Woman,Right,
24,13,1,0.6337949999997363,['n'],1,right,['1'],6,0.2184129999996003,0.2,0,FastAcc,22,18,Woman,Right,
25,13,1,0.4671267000003354,['n'],1,right,['2'],5,0.21800249999978405,0.2,0,FastAcc,22,18,Woman,Right,
26,13,1,0.36692539999967266,['n'],0,left,['1'],6,0.2346131999993304,0.1,0,FastAcc,22,18,Woman,Right,
27,13,1,0.5670274000003701,['n'],0,left,['2'],5,0.2179391999998188,0.1,0,FastAcc,22,18,Woman,Right,
28,13,1,0.4506492000000435,['c'],1,left,['1'],6,0.13429199999973207,0.2,0,FastAcc,22,18,Woman,Right,
29,13,1,0.5680078000004869,['n'],1,right,['1'],6,0.2186056999998982,0.4,0,FastAcc,22,18,Woman,Right,
30,13,1,0.6502608999999211,['n'],0,left,['2'],5,0.21823760000006587,0.1,0,FastAcc,22,18,Woman,Right,
31,13,1,0.4335869999995339,['n'],1,right,['2'],5,0.20146849999946426,0.2,0,FastAcc,22,18,Woman,Right,
32,13,1,0.3834741999999096,['n'],1,right,['1'],6,0.2015756999999212,0.2,0,FastAcc,22,18,Woman,Right,
33,13,1,0.9002862999996069,['c'],1,left,['1'],6,0.1855308000003788,0.4,0,FastAcc,22,18,Woman,Right,
34,13,1,0.45034969999960595,['c'],1,left,['1'],6,0.4512846999996327,0.4,0,FastAcc,22,18,Woman,Right,
35,13,1,0.4835553000002619,['c'],1,left,['1'],6,0.1517124000001786,0.4,0,FastAcc,22,18,Woman,Right,
36,13,1,0.5163483999995151,['n'],1,right,['1'],6,0.20235940000020491,0.2,0,FastAcc,22,18,Woman,Right,
37,13,1,0.4667952999998306,['n'],1,right,['1'],6,0.13342499999998836,0.4,0,FastAcc,22,18,Woman,Right,
38,13,1,0.5833858999994845,['c'],1,left,['1'],6,0.13446180000028107,0.1,0,FastAcc,22,18,Woman,Right,
39,13,1,0.7497804999993605,['n'],1,right,['1'],6,0.16675070000019332,0.1,0,FastAcc,22,18,Woman,Right,
40,13,1,0.4512737000004563,['c'],0,right,['1'],6,0.16787139999996725,0.2,0,FastAcc,22,18,Woman,Right,
41,13,1,0.4674230999999054,['n'],0,left,['1'],6,0.15207480000026408,0.1,0,FastAcc,22,18,Woman,Right,
42,13,1,0.4508366999998543,['n'],0,left,['1'],6,0.1847858000000997,0.2,0,FastAcc,22,18,Woman,Right,
43,13,1,0.5335211000001436,['n'],1,right,['1'],6,0.18484429999989516,0.1,0,FastAcc,22,18,Woman,Right,
44,13,1,0.5170699000000241,['n'],1,right,['1'],6,0.1846400000003996,0.2,0,FastAcc,22,18,Woman,Right,
45,13,1,0.4666501000001517,['n'],1,right,['1'],6,0.16724450000037905,0.4,0,FastAcc,22,18,Woman,Right,
46,13,1,0.6338673000000199,['c'],1,left,['1'],6,0.1512986000007004,0.1,0,FastAcc,22,18,Woman,Right,
47,13,1,0.38301919999958045,['c'],0,right,['2'],5,0.25145140000040556,0.2,0,FastAcc,22,18,Woman,Right,
48,13,1,0.36715650000041933,['n'],0,left,['8'],3,0.3338690000000497,0.1,0,FastAcc,22,18,Woman,Right,
49,13,1,0.3323782999996183,['n'],0,left,['8'],3,0.4173369999998613,0.4,0,FastAcc,22,18,Woman,Right,
50,13,1,1.100868300000002,['n'],0,left,['3'],4,0.23482650000005378,0.2,0,FastAcc,22,18,Woman,Right,
51,13,1,0.40067720000024565,['n'],1,right,['8'],3,0.23348900000019057,0.2,0,FastAcc,22,18,Woman,Right,
52,13,1,0.43420009999954345,['n'],1,right,['8'],3,0.2521230000002106,0.1,0,FastAcc,22,18,Woman,Right,
53,13,1,0.6509273000001485,['n'],1,right,['1'],6,0.26811259999976755,0.4,0,FastAcc,22,18,Woman,Right,
54,13,1,0.7670520000001488,['c'],0,right,['3'],4,0.15133260000038717,0.1,0,FastAcc,22,18,Woman,Right,
55,13,1,0.31658930000048713,['c'],1,left,['2'],5,0.16821410000011383,0.4,0,FastAcc,22,18,Woman,Right,
56,13,1,0.5672012000004543,['n'],1,right,['2'],5,0.718167099999846,0.1,0,FastAcc,22,18,Woman,Right,
57,13,1,0.46726609999950597,['n'],0,left,['2'],5,0.13467649999984133,0.4,0,FastAcc,22,18,Woman,Right,
58,13,1,0.41513949999989563,['n'],0,left,['1'],6,0.2354367000007187,0.4,0,FastAcc,22,18,Woman,Right,
59,13,1,0.4673760999994556,['c'],1,left,['1'],6,0.15138129999922967,0.1,0,FastAcc,22,18,Woman,Right,
0,14,1,1.2341145000000324,['n'],1,right,['8'],3,0.18356310000035592,0.1,0,FastFast,22,18,Woman,Right,
1,14,1,0.401420600000165,['n'],1,right,['8'],3,0.1351009999998496,0.1,0,FastFast,22,18,Woman,Right,
2,14,1,0.4840840999995635,['n'],1,right,['8'],3,0.15072180000061053,0.4,0,FastFast,22,18,Woman,Right,
3,14,1,0.5675549000006868,['n'],1,right,['2'],5,0.18514289999984612,0.1,0,FastFast,22,18,Woman,Right,
4,14,1,0.33462890000009793,['n'],1,right,['3'],4,0.10155589999976655,0.4,0,FastFast,22,18,Woman,Right,
5,14,1,0.41707469999983005,['n'],1,right,['1'],6,0.20131429999946704,0.4,0,FastFast,22,18,Woman,Right,
6,14,1,0.7668266999999105,['n'],0,left,['3'],4,0.13472789999923407,0.1,0,FastFast,22,18,Woman,Right,
7,14,1,0.4338659999993979,['c'],1,left,['1'],6,0.13470929999948567,0.2,0,FastFast,22,18,Woman,Right,
8,14,1,0.36728880000009667,['c'],1,left,['2'],5,0.18463709999923594,0.4,0,FastFast,22,18,Woman,Right,
9,14,1,0.45065559999966354,['c'],1,left,['9'],2,0.9667623000004824,0.1,0,FastFast,22,18,Woman,Right,
10,14,1,0.732850999999755,['n'],1,right,['2'],5,0.13445640000009007,0.2,0,FastFast,22,18,Woman,Right,
11,14,1,0.4834776999996393,['n'],1,right,['1'],6,0.18416900000011083,0.2,0,FastFast,22,18,Woman,Right,
12,14,1,0.7499611000002915,['n'],0,left,['3'],4,0.18538449999959994,0.1,0,FastFast,22,18,Woman,Right,
13,14,1,0.6006474000005255,['n'],0,left,['3'],4,0.20153389999995852,0.2,0,FastFast,22,18,Woman,Right,
14,14,1,0.45030560000031983,['n'],1,right,['3'],4,0.15095560000008845,0.2,0,FastFast,22,18,Woman,Right,
15,14,1,0.40058309999949415,['n'],0,left,['3'],4,0.1678377999996883,0.4,0,FastFast,22,18,Woman,Right,
16,14,1,1.217506200000571,['c'],1,left,['1'],6,0.11803130000043893,0.4,0,FastFast,22,18,Woman,Right,
17,14,1,0.6838226000008945,['c'],1,left,['1'],6,0.11790370000016992,0.1,0,FastFast,22,18,Woman,Right,
18,14,1,0.36656940000011673,['c'],0,right,['1'],6,0.15132230000017444,0.1,0,FastFast,22,18,Woman,Right,
19,14,1,0.4004150999999183,['n'],1,right,['0'],1,0.1847431999995024,0.4,0,FastFast,22,18,Woman,Right,
20,14,1,0.6170692000005147,['c'],1,left,['1'],6,0.10155500000018947,0.4,0,FastFast,22,18,Woman,Right,
21,14,1,0.5332208999998329,['c'],0,right,['1'],6,0.15197859999989305,0.1,0,FastFast,22,18,Woman,Right,
22,14,1,0.534324999999626,['n'],1,right,['1'],6,0.1684530000002269,0.4,0,FastFast,22,18,Woman,Right,
23,14,1,0.3674110000001747,['c'],1,left,['1'],6,0.15268879999985074,0.4,0,FastFast,22,18,Woman,Right,
24,14,1,0.28360649999922316,['n'],1,right,['1'],6,0.16806460000043444,0.2,0,FastFast,22,18,Woman,Right,
25,14,1,0.28250519999983226,['c'],0,right,['1'],6,0.1517999999996391,0.4,0,FastFast,22,18,Woman,Right,
26,14,1,0.3676783000000796,['n'],1,right,['1'],6,0.2175411999996868,0.1,0,FastFast,22,18,Woman,Right,
27,14,1,0.7338004000002911,['n'],0,left,['1'],6,0.15097379999951954,0.1,0,FastFast,22,18,Woman,Right,
28,14,1,0.5671048000003793,['n'],1,right,['1'],6,0.13462230000004638,0.2,0,FastFast,22,18,Woman,Right,
29,14,1,0.4349333000000115,['c'],1,left,['1'],6,0.13359399999990273,0.2,0,FastFast,22,18,Woman,Right,
30,14,1,0.41673009999976784,['c'],1,left,['1'],6,0.13333660000080272,0.4,0,FastFast,22,18,Woman,Right,
31,14,1,0.46596670000053564,['c'],1,left,['1'],6,0.1854327999999441,0.2,0,FastFast,22,18,Woman,Right,
32,14,1,0.5336451000002853,['c'],0,right,['1'],6,0.11838660000012169,0.1,0,FastFast,22,18,Woman,Right,
33,14,1,0.6827826999997342,['c'],0,right,['1'],6,0.1523116000007576,0.2,0,FastFast,22,18,Woman,Right,
34,14,1,0.6672422999999981,['c'],1,left,['1'],6,0.15057680000063556,0.2,0,FastFast,22,18,Woman,Right,
35,14,1,0.38401429999976244,['c'],1,left,['2'],5,0.1513543999999456,0.4,0,FastFast,22,18,Woman,Right,
36,14,1,0.38320569999996223,['c'],0,right,['2'],5,0.21811020000041026,0.1,0,FastFast,22,18,Woman,Right,
37,14,1,0.5670896999999968,['c'],1,left,['2'],5,0.11864090000017313,0.2,0,FastFast,22,18,Woman,Right,
38,14,1,0.9175192000002426,['c'],0,right,['2'],5,0.16697410000051605,0.4,0,FastFast,22,18,Woman,Right,
39,14,1,0.5165039999992587,['c'],1,left,['2'],5,0.15205079999941518,0.4,0,FastFast,22,18,Woman,Right,
40,14,1,1.6495610000001761,['c'],1,left,['2'],5,0.16810139999961393,0.1,0,FastFast,22,18,Woman,Right,
41,14,1,0.6497595000000729,['n'],0,left,['8'],3,0.11815529999967112,0.1,0,FastFast,22,18,Woman,Right,
42,14,1,0.5174920999997994,['n'],1,right,['2'],5,0.2014021999993929,0.4,0,FastFast,22,18,Woman,Right,
43,14,1,0.566510599999674,['c'],0,right,['2'],5,0.16848250000020926,0.2,0,FastFast,22,18,Woman,Right,
44,14,1,0.6995737999995981,['c'],1,left,['2'],5,0.15208820000043488,0.2,0,FastFast,22,18,Woman,Right,
45,14,1,0.5837972999997874,['c'],1,left,['2'],5,0.1678300000003219,0.2,0,FastFast,22,18,Woman,Right,
46,14,1,1.8662789999998495,['n'],0,left,['2'],5,0.3516343000001143,0.4,0,FastFast,22,18,Woman,Right,
47,14,1,0.650340099999994,['n'],1,right,['2'],5,0.15007880000030127,0.1,0,FastFast,22,18,Woman,Right,
48,14,1,0.5338624000005439,['n'],0,left,['2'],5,0.16812409999965894,0.1,0,FastFast,22,18,Woman,Right,
49,14,1,0.6675242999999682,['c'],1,left,['1'],6,0.1010989000005793,0.2,0,FastFast,22,18,Woman,Right,
50,14,1,0.4814974999999322,['c'],0,right,['1'],6,0.20310190000054718,0.2,0,FastFast,22,18,Woman,Right,
51,14,1,0.6164473999997426,['n'],1,right,['1'],6,0.15103569999973843,0.2,0,FastFast,22,18,Woman,Right,
52,14,1,0.4007028000005448,['n'],1,right,['1'],6,0.21809570000004896,0.1,0,FastFast,22,18,Woman,Right,
53,14,1,0.6984671000000162,['c'],1,left,['1'],6,0.15098149999994348,0.1,0,FastFast,22,18,Woman,Right,
54,14,1,0.4833795000004102,['c'],1,left,['1'],6,0.16762110000036046,0.4,0,FastFast,22,18,Woman,Right,
55,14,1,0.6852631000001566,['c'],1,left,['1'],6,0.15182040000036068,0.2,0,FastFast,22,18,Woman,Right,
56,14,1,0.7839592999998786,['n'],0,left,['3'],4,0.1180608000004213,0.4,0,FastFast,22,18,Woman,Right,
57,14,1,0.7996121000005587,['n'],1,right,['1'],6,0.1860569000000396,0.4,0,FastFast,22,18,Woman,Right,
58,14,1,0.8673011999999289,['n'],1,right,['3'],4,0.10138660000029631,0.2,0,FastFast,22,18,Woman,Right,
59,14,1,0.6509163999999146,['n'],1,right,['3'],4,0.15236999999979162,0.1,0,FastFast,22,18,Woman,Right,
0,15,1,1.2172157000004518,['n'],1,right,['2'],5,0.20155389999945328,0.2,0,AccFast,22,18,Woman,Right,
1,15,1,0.4664228000001458,['c'],1,left,['1'],6,0.18415310000000318,0.2,0,AccFast,22,18,Woman,Right,
2,15,1,0.4508830000004309,['n'],1,right,['1'],6,0.15067569999973784,0.2,0,AccFast,22,18,Woman,Right,
3,15,1,0.6664792000001398,['c'],1,left,['1'],6,0.1354645999999775,0.2,0,AccFast,22,18,Woman,Right,
4,15,1,0.8837469000000056,['n'],0,left,['3'],4,0.11828379999951721,0.4,0,AccFast,22,18,Woman,Right,
5,15,1,0.7005596999997579,['c'],1,left,['3'],4,0.13466029999926832,0.4,0,AccFast,22,18,Woman,Right,
6,15,1,0.5500218000006498,['n'],1,right,['3'],4,0.20175229999949806,0.2,0,AccFast,22,18,Woman,Right,
7,15,1,0.5175524999995105,['n'],1,right,['3'],4,0.16790229999969597,0.1,0,AccFast,22,18,Woman,Right,
8,15,1,0.5343321000000287,['n'],0,left,['2'],5,0.20085710000057588,0.1,0,AccFast,22,18,Woman,Right,
9,15,1,0.6673077000004923,['c'],1,left,['3'],4,0.20084109999970678,0.4,0,AccFast,22,18,Woman,Right,
10,15,1,0.7170512000002418,['c'],1,left,['1'],6,0.1502465999992637,0.2,0,AccFast,22,18,Woman,Right,
11,15,1,0.5829151999996611,['n'],1,right,['1'],6,0.20080940000025294,0.1,0,AccFast,22,18,Woman,Right,
12,15,1,0.5501051999999618,['n'],1,right,['1'],6,0.184613200000058,0.4,0,AccFast,22,18,Woman,Right,
13,15,1,0.5505464999996548,['n'],1,right,['1'],6,0.16786570000022039,0.2,0,AccFast,22,18,Woman,Right,
14,15,1,0.7502439999998387,['n'],1,right,['2'],5,0.19990359999974316,0.4,0,AccFast,22,18,Woman,Right,
15,15,1,0.550245299999915,['n'],1,right,['2'],5,0.18580959999962943,0.1,0,AccFast,22,18,Woman,Right,
16,15,1,0.4160590000001321,['n'],0,left,['2'],5,0.23617300000023533,0.1,0,AccFast,22,18,Woman,Right,
17,15,1,0.8327701000007437,['n'],0,left,['3'],4,0.16811839999991207,0.1,0,AccFast,22,18,Woman,Right,
18,15,1,0.38389569999981177,['n'],1,right,['3'],4,0.15015479999965464,0.4,0,AccFast,22,18,Woman,Right,
19,15,1,0.45043190000069444,['n'],0,left,['2'],5,0.30018679999921005,0.4,0,AccFast,22,18,Woman,Right,
20,15,1,0.5007735999997749,['n'],1,right,['3'],4,0.13471969999955036,0.1,0,AccFast,22,18,Woman,Right,
21,15,1,0.46673400000054244,['n'],1,right,['3'],4,0.1854896999993798,0.1,0,AccFast,22,18,Woman,Right,
22,15,1,0.949422599999707,['n'],0,left,['2'],5,0.1352487000003748,0.4,0,AccFast,22,18,Woman,Right,
23,15,1,0.5003582000008464,['n'],1,right,['2'],5,0.16799139999966428,0.2,0,AccFast,22,18,Woman,Right,
24,15,1,1.0502852000008716,['n'],1,right,['2'],5,0.20156630000019504,0.1,0,AccFast,22,18,Woman,Right,
25,15,1,0.6837967000001299,['c'],1,left,['2'],5,0.15145120000033785,0.1,0,AccFast,22,18,Woman,Right,
26,15,1,0.4836169999998674,['c'],1,left,['1'],6,0.1514456999993854,0.4,0,AccFast,22,18,Woman,Right,
27,15,1,0.8487930999999662,['n'],0,left,['0'],1,0.8676128000006429,0.4,0,AccFast,22,18,Woman,Right,
28,15,1,0.49981819999993604,['n'],0,left,['1'],6,0.18553670000073907,0.1,0,AccFast,22,18,Woman,Right,
29,15,1,0.6170386000003418,['n'],1,right,['1'],6,0.2016693999994459,0.1,0,AccFast,22,18,Woman,Right,
30,15,1,0.8501685999999609,['n'],0,left,['2'],5,0.13382559999990917,0.2,0,AccFast,22,18,Woman,Right,
31,15,1,0.499456000000464,['c'],1,left,['1'],6,0.152231799999754,0.4,0,AccFast,22,18,Woman,Right,
32,15,1,0.5499504999997953,['c'],1,left,['1'],6,0.10023159999946074,0.2,0,AccFast,22,18,Woman,Right,
33,15,1,0.4844067999993058,['c'],1,left,['1'],6,0.1359597999999096,0.2,0,AccFast,22,18,Woman,Right,
34,15,1,0.43380319999960193,['n'],1,right,['1'],6,0.33469569999942905,0.2,0,AccFast,22,18,Woman,Right,
35,15,1,0.41725010000027396,['n'],1,right,['1'],6,0.767965500000173,0.2,0,AccFast,22,18,Woman,Right,
36,15,1,0.7992407000001549,['n'],1,right,['1'],6,0.16853469999932713,0.4,0,AccFast,22,18,Woman,Right,
37,15,1,0.5000011000001905,['n'],1,right,['1'],6,0.16813829999955487,0.1,0,AccFast,22,18,Woman,Right,
38,15,1,0.49915539999983594,['n'],1,right,['1'],6,0.11769450000065262,0.2,0,AccFast,22,18,Woman,Right,
39,15,1,0.7169336999995721,['c'],1,left,['1'],6,0.1016023000001951,0.4,0,AccFast,22,18,Woman,Right,
40,15,1,0.3832782999998017,['c'],1,left,['1'],6,0.13345870000011928,0.4,0,AccFast,22,18,Woman,Right,
41,15,1,0.38394530000005034,['c'],1,left,['1'],6,0.16812769999978627,0.2,0,AccFast,22,18,Woman,Right,
42,15,1,0.46859540000059496,['c'],1,left,['1'],6,0.16809879999982513,0.1,0,AccFast,22,18,Woman,Right,
43,15,1,0.44958370000040304,['c'],1,left,['2'],5,0.15131190000010974,0.4,0,AccFast,22,18,Woman,Right,
44,15,1,0.5672371000000567,['n'],1,right,['1'],6,0.16863660000035452,0.4,0,AccFast,22,18,Woman,Right,
45,15,1,0.5839934999994512,['n'],1,right,['1'],6,0.13463549999960378,0.4,0,AccFast,22,18,Woman,Right,
46,15,1,0.36722829999962414,['c'],0,right,['1'],6,0.13442759999998088,0.1,0,AccFast,22,18,Woman,Right,
47,15,1,0.5832123000000138,['c'],1,left,['1'],6,0.15147679999972752,0.2,0,AccFast,22,18,Woman,Right,
48,15,1,1.7007537999998021,['c'],1,left,['2'],5,0.1672680000001492,0.2,0,AccFast,22,18,Woman,Right,
49,15,1,0.8828301000003194,['c'],0,right,['2'],5,0.11806679999972403,0.2,0,AccFast,22,18,Woman,Right,
50,15,1,0.7332460999996329,['c'],0,right,['2'],5,0.1333656000006158,0.2,0,AccFast,22,18,Woman,Right,
51,15,1,0.8510203000005276,['c'],0,right,['2'],5,0.1835815000004004,0.1,0,AccFast,22,18,Woman,Right,
52,15,1,0.8172950999996829,['c'],1,left,['2'],5,0.16683199999988574,0.4,0,AccFast,22,18,Woman,Right,
53,15,1,1.1344686000002184,['c'],0,right,['3'],4,0.15157530000033148,0.1,0,AccFast,22,18,Woman,Right,
54,15,1,0.8164539999997942,['c'],0,right,['3'],4,0.11798910000015894,0.1,0,AccFast,22,18,Woman,Right,
55,15,1,0.8499480000000403,['n'],1,right,['8'],3,0.16904199999953562,0.1,0,AccFast,22,18,Woman,Right,
56,15,1,0.8501501999999164,['n'],0,left,['3'],4,0.10150329999942187,0.2,0,AccFast,22,18,Woman,Right,
57,15,1,1.0161201000000801,['n'],0,left,['3'],4,0.13555079999969166,0.4,0,AccFast,22,18,Woman,Right,
58,15,1,0.6340107999994871,['n'],1,right,['3'],4,0.1514286000001448,0.4,0,AccFast,22,18,Woman,Right,
59,15,1,0.6832748000006177,['n'],0,left,['3'],4,0.15162620000046445,0.1,0,AccFast,22,18,Woman,Right,
