withinblocktrial,block,block_repetition,rt,resp,cor,cresp,conf_press,cj,rtconf,coherence,slow_trial,manipulation,sub,age,gender,handedness,
0,1,1,2.2343137000000297,['c'],0,right,none,-99,-99,0.5,0,none,25,18,Woman,Right,
1,1,1,1.1837672999999995,['n'],0,left,none,-99,-99,0.5,0,none,25,18,Woman,Right,
2,1,1,1.0667472000000089,['c'],0,right,none,-99,-99,0.5,0,none,25,18,Woman,Right,
3,1,1,0.9673655000001418,['c'],0,right,none,-99,-99,0.5,0,none,25,18,Woman,Right,
4,1,1,1.2329445000000305,['n'],0,left,none,-99,-99,0.5,0,none,25,18,Woman,Right,
5,1,1,1.0525763999999072,['c'],0,right,none,-99,-99,0.5,0,none,25,18,Woman,Right,
6,1,1,0.616866200000004,['c'],1,left,none,-99,-99,0.5,0,none,25,18,Woman,Right,
7,1,1,1.8831876000001557,['n'],0,left,none,-99,-99,0.5,0,none,25,18,Woman,Right,
8,1,1,1.0670531999999184,['n'],1,right,none,-99,-99,0.5,0,none,25,18,Woman,Right,
9,1,1,0.9341102000000774,['n'],1,right,none,-99,-99,0.5,0,none,25,18,Woman,Right,
10,1,1,1.0343050000001313,['n'],1,right,none,-99,-99,0.5,0,none,25,18,Woman,Right,
11,1,1,1.0675023000001147,['n'],0,left,none,-99,-99,0.5,0,none,25,18,Woman,Right,
12,1,1,1.1165631999999732,['n'],0,left,none,-99,-99,0.5,0,none,25,18,Woman,Right,
13,1,1,1.066530499999999,['c'],1,left,none,-99,-99,0.5,0,none,25,18,Woman,Right,
14,1,1,0.9002849999999398,['c'],0,right,none,-99,-99,0.5,0,none,25,18,Woman,Right,
15,1,1,0.6663863999999649,['c'],1,left,none,-99,-99,0.5,0,none,25,18,Woman,Right,
16,1,1,0.8508577000000059,['c'],0,right,none,-99,-99,0.5,0,none,25,18,Woman,Right,
17,1,1,0.9678337000000283,['c'],0,right,none,-99,-99,0.5,0,none,25,18,Woman,Right,
18,1,1,0.9668274000000565,['n'],0,left,none,-99,-99,0.5,0,none,25,18,Woman,Right,
19,1,1,0.7328443999999763,['c'],0,right,none,-99,-99,0.5,0,none,25,18,Woman,Right,
20,1,1,0.7513601999999082,['c'],1,left,none,-99,-99,0.5,0,none,25,18,Woman,Right,
21,1,1,0.7003841999999167,['c'],0,right,none,-99,-99,0.5,0,none,25,18,Woman,Right,
22,1,1,0.6325827999999092,['c'],1,left,none,-99,-99,0.5,0,none,25,18,Woman,Right,
23,1,1,0.6842073999998775,['c'],1,left,none,-99,-99,0.5,0,none,25,18,Woman,Right,
0,1,2,0.9341729000000214,['c'],1,left,none,-99,-99,0.5,0,none,25,18,Woman,Right,
1,1,2,1.4000068999998803,['c'],0,right,none,-99,-99,0.5,0,none,25,18,Woman,Right,
2,1,2,0.6337215000000924,['c'],1,left,none,-99,-99,0.5,0,none,25,18,Woman,Right,
3,1,2,0.749912600000016,['c'],0,right,none,-99,-99,0.5,0,none,25,18,Woman,Right,
4,1,2,0.7503037000001314,['c'],1,left,none,-99,-99,0.5,0,none,25,18,Woman,Right,
5,1,2,0.9997163999998975,['n'],1,right,none,-99,-99,0.5,0,none,25,18,Woman,Right,
6,1,2,3.284373799999912,['c'],1,left,none,-99,-99,0.5,0,none,25,18,Woman,Right,
7,1,2,2.716082500000084,['c'],0,right,none,-99,-99,0.5,0,none,25,18,Woman,Right,
8,1,2,1.2505480999998326,['n'],1,right,none,-99,-99,0.5,0,none,25,18,Woman,Right,
9,1,2,1.8500821999998607,['n'],0,left,none,-99,-99,0.5,0,none,25,18,Woman,Right,
10,1,2,0.899752000000035,['c'],0,right,none,-99,-99,0.5,0,none,25,18,Woman,Right,
11,1,2,0.7335745000000315,['c'],0,right,none,-99,-99,0.5,0,none,25,18,Woman,Right,
12,1,2,0.43374949999997625,['c'],0,right,none,-99,-99,0.5,0,none,25,18,Woman,Right,
13,1,2,0.5995922999998129,['c'],1,left,none,-99,-99,0.5,0,none,25,18,Woman,Right,
14,1,2,0.949841699999979,['c'],1,left,none,-99,-99,0.5,0,none,25,18,Woman,Right,
15,1,2,0.568254700000125,['c'],1,left,none,-99,-99,0.5,0,none,25,18,Woman,Right,
16,1,2,0.6836556999999175,['c'],1,left,none,-99,-99,0.5,0,none,25,18,Woman,Right,
17,1,2,0.7513526000000184,['c'],1,left,none,-99,-99,0.5,0,none,25,18,Woman,Right,
18,1,2,0.701158200000009,['c'],0,right,none,-99,-99,0.5,0,none,25,18,Woman,Right,
19,1,2,1.0668044000001373,['c'],0,right,none,-99,-99,0.5,0,none,25,18,Woman,Right,
20,1,2,0.8005470000000514,['c'],1,left,none,-99,-99,0.5,0,none,25,18,Woman,Right,
21,1,2,0.7011629999999514,['c'],1,left,none,-99,-99,0.5,0,none,25,18,Woman,Right,
22,1,2,0.7333337000000029,['c'],0,right,none,-99,-99,0.5,0,none,25,18,Woman,Right,
23,1,2,0.5177966000001106,['c'],0,right,none,-99,-99,0.5,0,none,25,18,Woman,Right,
0,1,3,1.1336581999998998,['c'],0,right,none,-99,-99,0.5,0,none,25,18,Woman,Right,
1,1,3,0.5172536000000036,['c'],1,left,none,-99,-99,0.5,0,none,25,18,Woman,Right,
2,1,3,0.7000103999998828,['c'],1,left,none,-99,-99,0.5,0,none,25,18,Woman,Right,
3,1,3,0.5499219999999241,['c'],0,right,none,-99,-99,0.5,0,none,25,18,Woman,Right,
4,1,3,0.5176575000000412,['c'],0,right,none,-99,-99,0.5,0,none,25,18,Woman,Right,
5,1,3,0.6161334000000807,['c'],1,left,none,-99,-99,0.5,0,none,25,18,Woman,Right,
6,1,3,1.600338800000145,['c'],1,left,none,-99,-99,0.5,0,none,25,18,Woman,Right,
7,1,3,1.5507970999999543,['n'],0,left,none,-99,-99,0.5,0,none,25,18,Woman,Right,
8,1,3,0.7173960000000079,['c'],0,right,none,-99,-99,0.5,0,none,25,18,Woman,Right,
9,1,3,0.6679378999999699,['c'],0,right,none,-99,-99,0.5,0,none,25,18,Woman,Right,
10,1,3,1.1162791000001562,['c'],1,left,none,-99,-99,0.5,0,none,25,18,Woman,Right,
11,1,3,1.1169299999999112,['n'],0,left,none,-99,-99,0.5,0,none,25,18,Woman,Right,
12,1,3,0.9835067000001345,['n'],0,left,none,-99,-99,0.5,0,none,25,18,Woman,Right,
13,1,3,1.5323413000000983,['c'],1,left,none,-99,-99,0.5,0,none,25,18,Woman,Right,
14,1,3,1.9660412999999153,['c'],0,right,none,-99,-99,0.5,0,none,25,18,Woman,Right,
15,1,3,3.099725099999887,['n'],0,left,none,-99,-99,0.5,0,none,25,18,Woman,Right,
16,1,3,1.3326987000000372,['c'],0,right,none,-99,-99,0.5,0,none,25,18,Woman,Right,
17,1,3,2.4503723000000264,['c'],0,right,none,-99,-99,0.5,0,none,25,18,Woman,Right,
18,1,3,1.3828588999999738,['c'],0,right,none,-99,-99,0.5,0,none,25,18,Woman,Right,
19,1,3,1.5010446999999658,['c'],0,right,none,-99,-99,0.5,0,none,25,18,Woman,Right,
20,1,3,2.433803399999988,['c'],0,right,none,-99,-99,0.5,0,none,25,18,Woman,Right,
21,1,3,1.6494511999999304,['n'],1,right,none,-99,-99,0.5,0,none,25,18,Woman,Right,
22,1,3,1.8169216000001143,['n'],0,left,none,-99,-99,0.5,0,none,25,18,Woman,Right,
23,1,3,0.8502071999998861,['c'],1,left,none,-99,-99,0.5,0,none,25,18,Woman,Right,
0,1,4,0.7013749000000189,['c'],1,left,none,-99,-99,0.5,0,none,25,18,Woman,Right,
1,1,4,0.6831449000001157,['c'],1,left,none,-99,-99,0.5,0,none,25,18,Woman,Right,
2,1,4,0.8341929000000619,['n'],1,right,none,-99,-99,0.5,0,none,25,18,Woman,Right,
3,1,4,1.0010145000001103,['c'],0,right,none,-99,-99,0.5,0,none,25,18,Woman,Right,
4,1,4,1.4328875000001062,['c'],0,right,none,-99,-99,0.5,0,none,25,18,Woman,Right,
5,1,4,0.7676937999999609,['n'],1,right,none,-99,-99,0.5,0,none,25,18,Woman,Right,
6,1,4,1.2837349999999788,['n'],0,left,none,-99,-99,0.5,0,none,25,18,Woman,Right,
7,1,4,1.3671088000000964,['c'],0,right,none,-99,-99,0.5,0,none,25,18,Woman,Right,
8,1,4,1.449260699999968,['n'],1,right,none,-99,-99,0.5,0,none,25,18,Woman,Right,
9,1,4,1.0664649000000281,['n'],1,right,none,-99,-99,0.5,0,none,25,18,Woman,Right,
10,1,4,0.9996263999998973,['c'],1,left,none,-99,-99,0.5,0,none,25,18,Woman,Right,
11,1,4,1.1012616999998954,['c'],1,left,none,-99,-99,0.5,0,none,25,18,Woman,Right,
12,1,4,1.116814100000056,['c'],0,right,none,-99,-99,0.5,0,none,25,18,Woman,Right,
13,1,4,0.7496909999999843,['n'],0,left,none,-99,-99,0.5,0,none,25,18,Woman,Right,
14,1,4,0.5672191999999541,['n'],0,left,none,-99,-99,0.5,0,none,25,18,Woman,Right,
15,1,4,1.4683255999998437,['c'],1,left,none,-99,-99,0.5,0,none,25,18,Woman,Right,
16,1,4,1.651132299999972,['c'],1,left,none,-99,-99,0.5,0,none,25,18,Woman,Right,
17,1,4,1.5672830000000886,['c'],0,right,none,-99,-99,0.5,0,none,25,18,Woman,Right,
18,1,4,0.6337392000000364,['n'],0,left,none,-99,-99,0.5,0,none,25,18,Woman,Right,
19,1,4,0.5338517000000138,['c'],1,left,none,-99,-99,0.5,0,none,25,18,Woman,Right,
20,1,4,0.767785700000104,['c'],0,right,none,-99,-99,0.5,0,none,25,18,Woman,Right,
21,1,4,0.39946679999980006,['c'],0,right,none,-99,-99,0.5,0,none,25,18,Woman,Right,
22,1,4,0.45118780000007064,['n'],1,right,none,-99,-99,0.5,0,none,25,18,Woman,Right,
23,1,4,0.482048500000019,['n'],0,left,none,-99,-99,0.5,0,none,25,18,Woman,Right,
0,1,5,0.8679471000000376,['c'],1,left,none,-99,-99,0.5,0,none,25,18,Woman,Right,
1,1,5,1.133543500000087,['c'],1,left,none,-99,-99,0.5,0,none,25,18,Woman,Right,
2,1,5,1.1353235999999924,['c'],1,left,none,-99,-99,0.5,0,none,25,18,Woman,Right,
3,1,5,0.8011490000001231,['c'],1,left,none,-99,-99,0.5,0,none,25,18,Woman,Right,
4,1,5,0.7671933999999965,['c'],0,right,none,-99,-99,0.5,0,none,25,18,Woman,Right,
5,1,5,0.6510358000000451,['n'],1,right,none,-99,-99,0.5,0,none,25,18,Woman,Right,
6,1,5,0.7667026999999962,['n'],1,right,none,-99,-99,0.5,0,none,25,18,Woman,Right,
7,1,5,0.6677667000001293,['n'],1,right,none,-99,-99,0.5,0,none,25,18,Woman,Right,
8,1,5,0.700267599999961,['n'],0,left,none,-99,-99,0.5,0,none,25,18,Woman,Right,
9,1,5,0.5485228000000006,['c'],0,right,none,-99,-99,0.5,0,none,25,18,Woman,Right,
10,1,5,0.4175287999999,['c'],1,left,none,-99,-99,0.5,0,none,25,18,Woman,Right,
11,1,5,1.0830292000000554,['n'],0,left,none,-99,-99,0.5,0,none,25,18,Woman,Right,
12,1,5,0.5174979999999323,['c'],1,left,none,-99,-99,0.5,0,none,25,18,Woman,Right,
13,1,5,0.6168357000001379,['n'],1,right,none,-99,-99,0.5,0,none,25,18,Woman,Right,
14,1,5,0.7344077999998717,['c'],0,right,none,-99,-99,0.5,0,none,25,18,Woman,Right,
15,1,5,1.3008453999998437,['c'],1,left,none,-99,-99,0.5,0,none,25,18,Woman,Right,
16,1,5,1.4005620000000363,['c'],0,right,none,-99,-99,0.5,0,none,25,18,Woman,Right,
17,1,5,1.4164704000002075,['n'],0,left,none,-99,-99,0.5,0,none,25,18,Woman,Right,
18,1,5,1.3171744999999646,['c'],1,left,none,-99,-99,0.5,0,none,25,18,Woman,Right,
19,1,5,1.0844469999999546,['c'],1,left,none,-99,-99,0.5,0,none,25,18,Woman,Right,
20,1,5,1.38329449999992,['c'],0,right,none,-99,-99,0.5,0,none,25,18,Woman,Right,
21,1,5,1.3844217000000754,['c'],0,right,none,-99,-99,0.5,0,none,25,18,Woman,Right,
22,1,5,0.6003580000001421,['n'],1,right,none,-99,-99,0.5,0,none,25,18,Woman,Right,
23,1,5,0.43347990000006575,['n'],1,right,none,-99,-99,0.5,0,none,25,18,Woman,Right,
0,1,6,1.6172953000000234,['n'],0,left,none,-99,-99,0.5,0,none,25,18,Woman,Right,
1,1,6,0.7337382000000616,['c'],0,right,none,-99,-99,0.5,0,none,25,18,Woman,Right,
2,1,6,1.283724599999914,['c'],0,right,none,-99,-99,0.5,0,none,25,18,Woman,Right,
3,1,6,1.333473099999992,['c'],1,left,none,-99,-99,0.5,0,none,25,18,Woman,Right,
4,1,6,0.6343881000000238,['n'],0,left,none,-99,-99,0.5,0,none,25,18,Woman,Right,
5,1,6,1.2669337999998334,['c'],0,right,none,-99,-99,0.5,0,none,25,18,Woman,Right,
6,1,6,1.3508721000000605,['c'],1,left,none,-99,-99,0.5,0,none,25,18,Woman,Right,
7,1,6,1.084219399999938,['c'],1,left,none,-99,-99,0.5,0,none,25,18,Woman,Right,
8,1,6,0.8325729999999112,['c'],0,right,none,-99,-99,0.5,0,none,25,18,Woman,Right,
9,1,6,0.8177378999998837,['n'],0,left,none,-99,-99,0.5,0,none,25,18,Woman,Right,
10,1,6,1.4179262000000108,['n'],0,left,none,-99,-99,0.5,0,none,25,18,Woman,Right,
11,1,6,2.1169067000000723,['n'],1,right,none,-99,-99,0.5,0,none,25,18,Woman,Right,
12,1,6,1.2168426000000636,['c'],0,right,none,-99,-99,0.5,0,none,25,18,Woman,Right,
13,1,6,1.8841116999999485,['c'],1,left,none,-99,-99,0.5,0,none,25,18,Woman,Right,
14,1,6,1.5991593000001103,['c'],0,right,none,-99,-99,0.5,0,none,25,18,Woman,Right,
15,1,6,1.2840318999999454,['c'],0,right,none,-99,-99,0.5,0,none,25,18,Woman,Right,
16,1,6,0.7670204999999441,['c'],1,left,none,-99,-99,0.5,0,none,25,18,Woman,Right,
17,1,6,0.9837155000000166,['c'],1,left,none,-99,-99,0.5,0,none,25,18,Woman,Right,
18,1,6,1.2993037999999615,['c'],1,left,none,-99,-99,0.5,0,none,25,18,Woman,Right,
19,1,6,0.8829984999999851,['c'],0,right,none,-99,-99,0.5,0,none,25,18,Woman,Right,
20,1,6,0.48581830000011905,['c'],0,right,none,-99,-99,0.5,0,none,25,18,Woman,Right,
21,1,6,0.48361960000011095,['n'],1,right,none,-99,-99,0.5,0,none,25,18,Woman,Right,
22,1,6,1.1002799999998842,['c'],1,left,none,-99,-99,0.5,0,none,25,18,Woman,Right,
23,1,6,1.3501057000000856,['c'],0,right,none,-99,-99,0.5,0,none,25,18,Woman,Right,
0,1,7,1.4849049000001742,['c'],1,left,none,-99,-99,0.5,0,none,25,18,Woman,Right,
1,1,7,0.35114120000002913,['c'],1,left,none,-99,-99,0.5,0,none,25,18,Woman,Right,
2,1,7,3.01541589999988,['c'],0,right,none,-99,-99,0.5,0,none,25,18,Woman,Right,
3,1,7,0.9669667999999092,['n'],1,right,none,-99,-99,0.5,0,none,25,18,Woman,Right,
4,1,7,1.1991696000000047,['c'],1,left,none,-99,-99,0.5,0,none,25,18,Woman,Right,
5,1,7,1.0494471000001795,['c'],0,right,none,-99,-99,0.5,0,none,25,18,Woman,Right,
6,1,7,1.4342492999999195,['c'],0,right,none,-99,-99,0.5,0,none,25,18,Woman,Right,
7,1,7,1.0669475000001967,['c'],1,left,none,-99,-99,0.5,0,none,25,18,Woman,Right,
8,1,7,1.3495949000000564,['c'],1,left,none,-99,-99,0.5,0,none,25,18,Woman,Right,
9,1,7,0.8985377999999855,['c'],1,left,none,-99,-99,0.5,0,none,25,18,Woman,Right,
10,1,7,1.1348855999999614,['c'],1,left,none,-99,-99,0.5,0,none,25,18,Woman,Right,
11,1,7,0.5172546999999668,['n'],1,right,none,-99,-99,0.5,0,none,25,18,Woman,Right,
12,1,7,0.8337283999999272,['c'],0,right,none,-99,-99,0.5,0,none,25,18,Woman,Right,
13,1,7,0.4501070000001164,['c'],1,left,none,-99,-99,0.5,0,none,25,18,Woman,Right,
14,1,7,0.86708990000011,['c'],0,right,none,-99,-99,0.5,0,none,25,18,Woman,Right,
15,1,7,0.5838427999999567,['c'],1,left,none,-99,-99,0.5,0,none,25,18,Woman,Right,
16,1,7,1.3502498000000287,['n'],0,left,none,-99,-99,0.5,0,none,25,18,Woman,Right,
17,1,7,1.0336545000000115,['c'],1,left,none,-99,-99,0.5,0,none,25,18,Woman,Right,
18,1,7,0.7344196999999895,['c'],0,right,none,-99,-99,0.5,0,none,25,18,Woman,Right,
19,1,7,0.8834084000000075,['c'],0,right,none,-99,-99,0.5,0,none,25,18,Woman,Right,
20,1,7,0.6677187000000231,['n'],0,left,none,-99,-99,0.5,0,none,25,18,Woman,Right,
21,1,7,0.9147978000000876,['c'],0,right,none,-99,-99,0.5,0,none,25,18,Woman,Right,
22,1,7,0.6501437000001715,['c'],0,right,none,-99,-99,0.5,0,none,25,18,Woman,Right,
23,1,7,1.6509310999999798,['n'],1,right,none,-99,-99,0.5,0,none,25,18,Woman,Right,
0,1,8,0.88259979999998,['c'],0,right,none,-99,-99,0.5,0,none,25,18,Woman,Right,
1,1,8,1.3837462999999843,['n'],1,right,none,-99,-99,0.5,0,none,25,18,Woman,Right,
2,1,8,1.3677170999999362,['c'],0,right,none,-99,-99,0.5,0,none,25,18,Woman,Right,
3,1,8,1.9835058000001027,['n'],1,right,none,-99,-99,0.5,0,none,25,18,Woman,Right,
4,1,8,1.749972200000002,['c'],0,right,none,-99,-99,0.5,0,none,25,18,Woman,Right,
5,1,8,0.968011800000113,['c'],1,left,none,-99,-99,0.5,0,none,25,18,Woman,Right,
6,1,8,1.384576799999877,['n'],1,right,none,-99,-99,0.5,0,none,25,18,Woman,Right,
7,1,8,2.1667664999999943,['c'],1,left,none,-99,-99,0.5,0,none,25,18,Woman,Right,
8,1,8,1.1669868999999835,['n'],0,left,none,-99,-99,0.5,0,none,25,18,Woman,Right,
9,1,8,1.1503371999999672,['c'],0,right,none,-99,-99,0.5,0,none,25,18,Woman,Right,
10,1,8,1.63163940000004,['c'],1,left,none,-99,-99,0.5,0,none,25,18,Woman,Right,
11,1,8,1.5172708000000057,['c'],1,left,none,-99,-99,0.5,0,none,25,18,Woman,Right,
12,1,8,0.733727399999907,['c'],1,left,none,-99,-99,0.5,0,none,25,18,Woman,Right,
13,1,8,0.5344080999998368,['c'],1,left,none,-99,-99,0.5,0,none,25,18,Woman,Right,
14,1,8,1.0851333000000523,['c'],0,right,none,-99,-99,0.5,0,none,25,18,Woman,Right,
15,1,8,0.9334512000000359,['c'],1,left,none,-99,-99,0.5,0,none,25,18,Woman,Right,
16,1,8,0.6009854999999789,['c'],1,left,none,-99,-99,0.5,0,none,25,18,Woman,Right,
17,1,8,0.9336591999999655,['n'],1,right,none,-99,-99,0.5,0,none,25,18,Woman,Right,
18,1,8,0.9677394000000277,['c'],0,right,none,-99,-99,0.5,0,none,25,18,Woman,Right,
19,1,8,0.6012583000001541,['c'],0,right,none,-99,-99,0.5,0,none,25,18,Woman,Right,
20,1,8,0.48420499999997446,['c'],1,left,none,-99,-99,0.5,0,none,25,18,Woman,Right,
21,1,8,0.749584700000014,['c'],1,left,none,-99,-99,0.5,0,none,25,18,Woman,Right,
22,1,8,0.49930779999999686,['c'],0,right,none,-99,-99,0.5,0,none,25,18,Woman,Right,
23,1,8,0.4675956999999471,['n'],0,left,none,-99,-99,0.5,0,none,25,18,Woman,Right,
0,1,9,0.5669603999999708,['c'],1,left,none,-99,-99,0.5,0,none,25,18,Woman,Right,
1,1,9,0.583794399999988,['c'],0,right,none,-99,-99,0.5,0,none,25,18,Woman,Right,
2,1,9,0.6345633999999336,['n'],1,right,none,-99,-99,0.5,0,none,25,18,Woman,Right,
3,1,9,0.8175708999999642,['n'],0,left,none,-99,-99,0.5,0,none,25,18,Woman,Right,
4,1,9,0.8163584000001265,['c'],0,right,none,-99,-99,0.5,0,none,25,18,Woman,Right,
5,1,9,0.3670962999999574,['c'],0,right,none,-99,-99,0.5,0,none,25,18,Woman,Right,
6,1,9,1.166799600000104,['n'],0,left,none,-99,-99,0.5,0,none,25,18,Woman,Right,
7,1,9,3.6671577999998135,['c'],1,left,none,-99,-99,0.5,0,none,25,18,Woman,Right,
8,1,9,0.6677772000000459,['c'],0,right,none,-99,-99,0.5,0,none,25,18,Woman,Right,
9,1,9,3.467138099999829,['c'],1,left,none,-99,-99,0.5,0,none,25,18,Woman,Right,
10,1,9,0.8506105000001298,['c'],0,right,none,-99,-99,0.5,0,none,25,18,Woman,Right,
11,1,9,1.1335277999999107,['c'],0,right,none,-99,-99,0.5,0,none,25,18,Woman,Right,
12,1,9,0.6670277000000624,['c'],1,left,none,-99,-99,0.5,0,none,25,18,Woman,Right,
13,1,9,0.7506232000000637,['c'],0,right,none,-99,-99,0.5,0,none,25,18,Woman,Right,
14,1,9,0.6002825000000485,['n'],0,left,none,-99,-99,0.5,0,none,25,18,Woman,Right,
15,1,9,1.2673153000000639,['c'],0,right,none,-99,-99,0.5,0,none,25,18,Woman,Right,
16,1,9,2.4493671000000177,['c'],0,right,none,-99,-99,0.5,0,none,25,18,Woman,Right,
17,1,9,1.1012160000000222,['c'],0,right,none,-99,-99,0.5,0,none,25,18,Woman,Right,
18,1,9,0.6507701000000452,['c'],0,right,none,-99,-99,0.5,0,none,25,18,Woman,Right,
19,1,9,0.9666779000001497,['c'],1,left,none,-99,-99,0.5,0,none,25,18,Woman,Right,
20,1,9,0.7334836999998515,['c'],1,left,none,-99,-99,0.5,0,none,25,18,Woman,Right,
21,1,9,0.8002876999998989,['c'],1,left,none,-99,-99,0.5,0,none,25,18,Woman,Right,
22,1,9,0.6509157999998934,['c'],1,left,none,-99,-99,0.5,0,none,25,18,Woman,Right,
23,1,9,0.7155174999998053,['c'],1,left,none,-99,-99,0.5,0,none,25,18,Woman,Right,
0,1,10,1.0010773999999856,['c'],1,left,none,-99,-99,0.5,0,none,25,18,Woman,Right,
1,1,10,0.8176703000001453,['c'],0,right,none,-99,-99,0.5,0,none,25,18,Woman,Right,
2,1,10,0.4668659999999818,['c'],0,right,none,-99,-99,0.5,0,none,25,18,Woman,Right,
3,1,10,1.1664802000000236,['c'],1,left,none,-99,-99,0.5,0,none,25,18,Woman,Right,
4,1,10,1.317685099999835,['n'],0,left,none,-99,-99,0.5,0,none,25,18,Woman,Right,
5,1,10,1.451052699999991,['n'],0,left,none,-99,-99,0.5,0,none,25,18,Woman,Right,
6,1,10,1.3835994000000937,['n'],1,right,none,-99,-99,0.5,0,none,25,18,Woman,Right,
7,1,10,1.1343802999999753,['c'],0,right,none,-99,-99,0.5,0,none,25,18,Woman,Right,
8,1,10,1.252274800000123,['n'],0,left,none,-99,-99,0.5,0,none,25,18,Woman,Right,
9,1,10,0.8827291000000059,['c'],0,right,none,-99,-99,0.5,0,none,25,18,Woman,Right,
10,1,10,1.9503426999999647,['c'],0,right,none,-99,-99,0.5,0,none,25,18,Woman,Right,
11,1,10,1.4006634999998369,['c'],1,left,none,-99,-99,0.5,0,none,25,18,Woman,Right,
12,1,10,1.2012494000000515,['c'],0,right,none,-99,-99,0.5,0,none,25,18,Woman,Right,
13,1,10,1.1667970000000878,['n'],0,left,none,-99,-99,0.5,0,none,25,18,Woman,Right,
14,1,10,1.8676298000000315,['n'],0,left,none,-99,-99,0.5,0,none,25,18,Woman,Right,
15,1,10,1.4002580000001217,['c'],0,right,none,-99,-99,0.5,0,none,25,18,Woman,Right,
16,1,10,1.0510331999998925,['c'],0,right,none,-99,-99,0.5,0,none,25,18,Woman,Right,
17,1,10,1.3170807000001332,['n'],1,right,none,-99,-99,0.5,0,none,25,18,Woman,Right,
18,1,10,1.0177790000000186,['n'],0,left,none,-99,-99,0.5,0,none,25,18,Woman,Right,
19,1,10,1.818061999999827,['n'],0,left,none,-99,-99,0.5,0,none,25,18,Woman,Right,
20,1,10,1.566685100000086,['n'],0,left,none,-99,-99,0.5,0,none,25,18,Woman,Right,
21,1,10,1.0002165999999306,['c'],0,right,none,-99,-99,0.5,0,none,25,18,Woman,Right,
22,1,10,0.5503373999999894,['n'],1,right,none,-99,-99,0.5,0,none,25,18,Woman,Right,
23,1,10,1.7663195999998607,['n'],0,left,none,-99,-99,0.5,0,none,25,18,Woman,Right,
0,1,11,1.5848316999999952,['n'],0,left,none,-99,-99,0.5,0,none,25,18,Woman,Right,
1,1,11,1.8175920999999562,['n'],1,right,none,-99,-99,0.5,0,none,25,18,Woman,Right,
2,1,11,0.6339393999999174,['n'],0,left,none,-99,-99,0.5,0,none,25,18,Woman,Right,
3,1,11,1.1660561999999572,['c'],0,right,none,-99,-99,0.5,0,none,25,18,Woman,Right,
4,1,11,0.5008665999998811,['c'],0,right,none,-99,-99,0.5,0,none,25,18,Woman,Right,
5,1,11,0.6674341000000368,['n'],0,left,none,-99,-99,0.5,0,none,25,18,Woman,Right,
6,1,11,0.7012881000000561,['n'],1,right,none,-99,-99,0.5,0,none,25,18,Woman,Right,
7,1,11,0.6169969000000037,['c'],0,right,none,-99,-99,0.5,0,none,25,18,Woman,Right,
8,1,11,0.48450309999998353,['n'],1,right,none,-99,-99,0.5,0,none,25,18,Woman,Right,
9,1,11,1.1002544000000398,['n'],1,right,none,-99,-99,0.5,0,none,25,18,Woman,Right,
10,1,11,0.5840324000000692,['n'],1,right,none,-99,-99,0.5,0,none,25,18,Woman,Right,
11,1,11,0.5010123999998086,['n'],0,left,none,-99,-99,0.5,0,none,25,18,Woman,Right,
12,1,11,0.715557600000011,['c'],0,right,none,-99,-99,0.5,0,none,25,18,Woman,Right,
13,1,11,0.6330433999999059,['n'],0,left,none,-99,-99,0.5,0,none,25,18,Woman,Right,
14,1,11,0.8503387000000657,['n'],0,left,none,-99,-99,0.5,0,none,25,18,Woman,Right,
15,1,11,0.4012107000000924,['c'],1,left,none,-99,-99,0.5,0,none,25,18,Woman,Right,
16,1,11,1.1169256000000587,['c'],0,right,none,-99,-99,0.5,0,none,25,18,Woman,Right,
17,1,11,0.5170938000001115,['c'],1,left,none,-99,-99,0.5,0,none,25,18,Woman,Right,
18,1,11,0.9650735999998687,['c'],0,right,none,-99,-99,0.5,0,none,25,18,Woman,Right,
19,1,11,0.500287999999955,['c'],1,left,none,-99,-99,0.5,0,none,25,18,Woman,Right,
20,1,11,0.6997743999997965,['c'],0,right,none,-99,-99,0.5,0,none,25,18,Woman,Right,
21,1,11,0.7835777000000235,['c'],1,left,none,-99,-99,0.5,0,none,25,18,Woman,Right,
22,1,11,0.6348711999999068,['c'],1,left,none,-99,-99,0.5,0,none,25,18,Woman,Right,
23,1,11,0.36748679999982414,['c'],1,left,none,-99,-99,0.5,0,none,25,18,Woman,Right,
0,1,12,1.1842740000001868,['c'],0,right,none,-99,-99,0.5,0,none,25,18,Woman,Right,
1,1,12,0.9837851999998293,['c'],1,left,none,-99,-99,0.5,0,none,25,18,Woman,Right,
2,1,12,1.3501586000002135,['c'],1,left,none,-99,-99,0.5,0,none,25,18,Woman,Right,
3,1,12,0.8337742999999591,['n'],1,right,none,-99,-99,0.5,0,none,25,18,Woman,Right,
4,1,12,0.8000547000001461,['n'],0,left,none,-99,-99,0.5,0,none,25,18,Woman,Right,
5,1,12,0.684210099999973,['n'],0,left,none,-99,-99,0.5,0,none,25,18,Woman,Right,
6,1,12,0.6834117999999307,['c'],0,right,none,-99,-99,0.5,0,none,25,18,Woman,Right,
7,1,12,0.5326397999999699,['n'],0,left,none,-99,-99,0.5,0,none,25,18,Woman,Right,
8,1,12,0.38365250000015294,['n'],0,left,none,-99,-99,0.5,0,none,25,18,Woman,Right,
9,1,12,0.5670982999999978,['n'],1,right,none,-99,-99,0.5,0,none,25,18,Woman,Right,
10,1,12,0.651368199999979,['n'],0,left,none,-99,-99,0.5,0,none,25,18,Woman,Right,
11,1,12,0.8337946999999986,['c'],0,right,none,-99,-99,0.5,0,none,25,18,Woman,Right,
12,1,12,0.701004299999795,['n'],1,right,none,-99,-99,0.5,0,none,25,18,Woman,Right,
13,1,12,0.5161020999998982,['n'],1,right,none,-99,-99,0.5,0,none,25,18,Woman,Right,
14,1,12,0.6681061000001591,['n'],0,left,none,-99,-99,0.5,0,none,25,18,Woman,Right,
15,1,12,1.0003624999999374,['c'],1,left,none,-99,-99,0.5,0,none,25,18,Woman,Right,
16,1,12,0.5338553000001411,['c'],0,right,none,-99,-99,0.5,0,none,25,18,Woman,Right,
17,1,12,0.8339912999999797,['n'],1,right,none,-99,-99,0.5,0,none,25,18,Woman,Right,
18,1,12,0.9168282999999064,['n'],0,left,none,-99,-99,0.5,0,none,25,18,Woman,Right,
19,1,12,0.5835574000000179,['c'],1,left,none,-99,-99,0.5,0,none,25,18,Woman,Right,
20,1,12,0.766733300000169,['c'],0,right,none,-99,-99,0.5,0,none,25,18,Woman,Right,
21,1,12,0.8514431999999488,['n'],1,right,none,-99,-99,0.5,0,none,25,18,Woman,Right,
22,1,12,0.5176698000000215,['c'],1,left,none,-99,-99,0.5,0,none,25,18,Woman,Right,
23,1,12,2.067765100000088,['n'],1,right,none,-99,-99,0.5,0,none,25,18,Woman,Right,
0,1,13,0.8009132000001955,['c'],1,left,none,-99,-99,0.5,0,none,25,18,Woman,Right,
1,1,13,1.000233900000012,['c'],1,left,none,-99,-99,0.5,0,none,25,18,Woman,Right,
2,1,13,0.5840112000000772,['n'],0,left,none,-99,-99,0.5,0,none,25,18,Woman,Right,
3,1,13,0.6012909999999465,['c'],0,right,none,-99,-99,0.5,0,none,25,18,Woman,Right,
4,1,13,0.9677706999998463,['n'],1,right,none,-99,-99,0.5,0,none,25,18,Woman,Right,
5,1,13,1.516029600000138,['c'],0,right,none,-99,-99,0.5,0,none,25,18,Woman,Right,
6,1,13,1.0175300000000789,['c'],1,left,none,-99,-99,0.5,0,none,25,18,Woman,Right,
7,1,13,0.8671558999999434,['n'],0,left,none,-99,-99,0.5,0,none,25,18,Woman,Right,
8,1,13,1.0176605999999992,['c'],0,right,none,-99,-99,0.5,0,none,25,18,Woman,Right,
9,1,13,1.267212900000004,['c'],0,right,none,-99,-99,0.5,0,none,25,18,Woman,Right,
10,1,13,0.5678457000003618,['c'],0,right,none,-99,-99,0.5,0,none,25,18,Woman,Right,
11,1,13,0.28388379999978497,['n'],0,left,none,-99,-99,0.5,0,none,25,18,Woman,Right,
12,1,13,0.38469780000014,['n'],0,left,none,-99,-99,0.5,0,none,25,18,Woman,Right,
13,1,13,0.5676429000000098,['c'],1,left,none,-99,-99,0.5,0,none,25,18,Woman,Right,
14,1,13,0.43342589999974734,['n'],1,right,none,-99,-99,0.5,0,none,25,18,Woman,Right,
15,1,13,1.4320099999999911,['c'],0,right,none,-99,-99,0.5,0,none,25,18,Woman,Right,
16,1,13,1.8338931000002958,['c'],0,right,none,-99,-99,0.5,0,none,25,18,Woman,Right,
17,1,13,1.8479113999997026,['c'],0,right,none,-99,-99,0.5,0,none,25,18,Woman,Right,
18,1,13,1.0832267000000684,['c'],0,right,none,-99,-99,0.5,0,none,25,18,Woman,Right,
19,1,13,1.3164317000000665,['c'],1,left,none,-99,-99,0.5,0,none,25,18,Woman,Right,
20,1,13,1.4342458000000988,['c'],0,right,none,-99,-99,0.5,0,none,25,18,Woman,Right,
21,1,13,1.367116100000203,['c'],1,left,none,-99,-99,0.5,0,none,25,18,Woman,Right,
22,1,13,0.9841842000000725,['c'],1,left,none,-99,-99,0.5,0,none,25,18,Woman,Right,
23,1,13,1.2847782999997435,['c'],1,left,none,-99,-99,0.5,0,none,25,18,Woman,Right,
0,1,14,1.2165165999999772,['c'],1,left,none,-99,-99,0.5,0,none,25,18,Woman,Right,
1,1,14,1.3833253000002514,['c'],1,left,none,-99,-99,0.5,0,none,25,18,Woman,Right,
2,1,14,0.9487554000002092,['c'],0,right,none,-99,-99,0.5,0,none,25,18,Woman,Right,
3,1,14,0.8848123000002488,['c'],0,right,none,-99,-99,0.5,0,none,25,18,Woman,Right,
4,1,14,1.7661684000004243,['c'],0,right,none,-99,-99,0.5,0,none,25,18,Woman,Right,
5,1,14,1.7836096999999427,['c'],1,left,none,-99,-99,0.5,0,none,25,18,Woman,Right,
6,1,14,0.8003999000002295,['n'],1,right,none,-99,-99,0.5,0,none,25,18,Woman,Right,
7,1,14,1.2179127000003973,['n'],0,left,none,-99,-99,0.5,0,none,25,18,Woman,Right,
8,1,14,1.034293599999728,['c'],1,left,none,-99,-99,0.5,0,none,25,18,Woman,Right,
9,1,14,0.7509552999999869,['c'],1,left,none,-99,-99,0.5,0,none,25,18,Woman,Right,
10,1,14,0.9670453000003363,['n'],0,left,none,-99,-99,0.5,0,none,25,18,Woman,Right,
11,1,14,0.950506900000164,['n'],1,right,none,-99,-99,0.5,0,none,25,18,Woman,Right,
12,1,14,1.1010224999999991,['c'],0,right,none,-99,-99,0.5,0,none,25,18,Woman,Right,
13,1,14,1.169413600000098,['n'],1,right,none,-99,-99,0.5,0,none,25,18,Woman,Right,
14,1,14,0.617917000000034,['c'],1,left,none,-99,-99,0.5,0,none,25,18,Woman,Right,
15,1,14,0.8835218999997778,['n'],1,right,none,-99,-99,0.5,0,none,25,18,Woman,Right,
16,1,14,1.1495271999997385,['c'],1,left,none,-99,-99,0.5,0,none,25,18,Woman,Right,
17,1,14,1.0508253000002696,['c'],0,right,none,-99,-99,0.5,0,none,25,18,Woman,Right,
18,1,14,1.166883300000336,['c'],0,right,none,-99,-99,0.5,0,none,25,18,Woman,Right,
19,1,14,1.2338058000000274,['c'],1,left,none,-99,-99,0.5,0,none,25,18,Woman,Right,
20,1,14,1.6167488999999478,['c'],1,left,none,-99,-99,0.5,0,none,25,18,Woman,Right,
21,1,14,1.6322720000002846,['n'],0,left,none,-99,-99,0.5,0,none,25,18,Woman,Right,
22,1,14,0.8015244999996867,['c'],0,right,none,-99,-99,0.5,0,none,25,18,Woman,Right,
23,1,14,1.067116900000201,['c'],0,right,none,-99,-99,0.5,0,none,25,18,Woman,Right,
0,1,15,1.2340947000002416,['n'],0,left,none,-99,-99,0.5,0,none,25,18,Woman,Right,
1,1,15,1.0512724999998682,['c'],0,right,none,-99,-99,0.5,0,none,25,18,Woman,Right,
2,1,15,1.066927900000337,['c'],0,right,none,-99,-99,0.5,0,none,25,18,Woman,Right,
3,1,15,0.8845597999998063,['n'],0,left,none,-99,-99,0.5,0,none,25,18,Woman,Right,
4,1,15,1.4649056999996901,['c'],0,right,none,-99,-99,0.5,0,none,25,18,Woman,Right,
5,1,15,1.7655061999998907,['n'],1,right,none,-99,-99,0.5,0,none,25,18,Woman,Right,
6,1,15,1.4505090999996355,['c'],0,right,none,-99,-99,0.5,0,none,25,18,Woman,Right,
7,1,15,1.8832274000001235,['c'],0,right,none,-99,-99,0.5,0,none,25,18,Woman,Right,
8,1,15,1.151368000000275,['c'],1,left,none,-99,-99,0.5,0,none,25,18,Woman,Right,
9,1,15,1.4664042000003974,['c'],0,right,none,-99,-99,0.5,0,none,25,18,Woman,Right,
10,1,15,0.9669527000000926,['c'],0,right,none,-99,-99,0.5,0,none,25,18,Woman,Right,
11,1,15,1.366892199999711,['c'],0,right,none,-99,-99,0.5,0,none,25,18,Woman,Right,
12,1,15,1.1825200000002951,['n'],0,left,none,-99,-99,0.5,0,none,25,18,Woman,Right,
13,1,15,0.8836575999998786,['c'],1,left,none,-99,-99,0.5,0,none,25,18,Woman,Right,
14,1,15,1.1673010999998041,['c'],0,right,none,-99,-99,0.5,0,none,25,18,Woman,Right,
15,1,15,0.6336974999999256,['c'],1,left,none,-99,-99,0.5,0,none,25,18,Woman,Right,
16,1,15,1.5505377999998018,['c'],1,left,none,-99,-99,0.5,0,none,25,18,Woman,Right,
17,1,15,1.0312345000002097,['c'],0,right,none,-99,-99,0.5,0,none,25,18,Woman,Right,
18,1,15,0.7351734999997461,['c'],1,left,none,-99,-99,0.5,0,none,25,18,Woman,Right,
19,1,15,0.7660162000001947,['c'],1,left,none,-99,-99,0.5,0,none,25,18,Woman,Right,
20,1,15,1.3340139000001727,['c'],1,left,none,-99,-99,0.5,0,none,25,18,Woman,Right,
21,1,15,0.5844990999999027,['c'],1,left,none,-99,-99,0.5,0,none,25,18,Woman,Right,
22,1,15,0.7009994000000006,['c'],1,left,none,-99,-99,0.5,0,none,25,18,Woman,Right,
23,1,15,0.6828540999999859,['c'],0,right,none,-99,-99,0.5,0,none,25,18,Woman,Right,
0,1,16,1.2012687000001279,['n'],0,left,none,-99,-99,0.5,0,none,25,18,Woman,Right,
1,1,16,0.9336551000001236,['c'],1,left,none,-99,-99,0.5,0,none,25,18,Woman,Right,
2,1,16,1.4837196999997104,['c'],0,right,none,-99,-99,0.5,0,none,25,18,Woman,Right,
3,1,16,1.499954400000206,['c'],0,right,none,-99,-99,0.5,0,none,25,18,Woman,Right,
4,1,16,1.7497861000001649,['c'],1,left,none,-99,-99,0.5,0,none,25,18,Woman,Right,
5,1,16,1.0346285999999054,['n'],0,left,none,-99,-99,0.5,0,none,25,18,Woman,Right,
6,1,16,1.598344200000156,['c'],1,left,none,-99,-99,0.5,0,none,25,18,Woman,Right,
7,1,16,1.7166629999996985,['n'],1,right,none,-99,-99,0.5,0,none,25,18,Woman,Right,
8,1,16,0.865313000000242,['c'],1,left,none,-99,-99,0.5,0,none,25,18,Woman,Right,
9,1,16,1.5678463999997803,['n'],1,right,none,-99,-99,0.5,0,none,25,18,Woman,Right,
10,1,16,1.9668234999999186,['c'],1,left,none,-99,-99,0.5,0,none,25,18,Woman,Right,
11,1,16,1.2170758000002024,['n'],0,left,none,-99,-99,0.5,0,none,25,18,Woman,Right,
12,1,16,0.8848413000000619,['c'],1,left,none,-99,-99,0.5,0,none,25,18,Woman,Right,
13,1,16,1.1833654000001843,['n'],0,left,none,-99,-99,0.5,0,none,25,18,Woman,Right,
14,1,16,1.3176117000002705,['c'],0,right,none,-99,-99,0.5,0,none,25,18,Woman,Right,
15,1,16,1.0167741999998725,['c'],0,right,none,-99,-99,0.5,0,none,25,18,Woman,Right,
16,1,16,1.3998711999997795,['c'],0,right,none,-99,-99,0.5,0,none,25,18,Woman,Right,
17,1,16,1.3988021000000117,['c'],0,right,none,-99,-99,0.5,0,none,25,18,Woman,Right,
18,1,16,1.0846033000002535,['c'],0,right,none,-99,-99,0.5,0,none,25,18,Woman,Right,
19,1,16,1.0670481000001928,['n'],1,right,none,-99,-99,0.5,0,none,25,18,Woman,Right,
20,1,16,1.7168627999999444,['c'],1,left,none,-99,-99,0.5,0,none,25,18,Woman,Right,
21,1,16,1.3155703000002177,['c'],0,right,none,-99,-99,0.5,0,none,25,18,Woman,Right,
22,1,16,1.498647599999913,['n'],0,left,none,-99,-99,0.5,0,none,25,18,Woman,Right,
23,1,16,1.6186996000001272,['n'],1,right,none,-99,-99,0.5,0,none,25,18,Woman,Right,
0,1,17,1.1677098000000115,['n'],0,left,none,-99,-99,0.5,0,none,25,18,Woman,Right,
1,1,17,1.933748899999955,['c'],1,left,none,-99,-99,0.5,0,none,25,18,Woman,Right,
2,1,17,0.9165524000000005,['n'],1,right,none,-99,-99,0.5,0,none,25,18,Woman,Right,
3,1,17,0.8494960999996692,['n'],1,right,none,-99,-99,0.5,0,none,25,18,Woman,Right,
4,1,17,0.6670738999996502,['n'],1,right,none,-99,-99,0.5,0,none,25,18,Woman,Right,
5,1,17,0.6173690999999053,['n'],0,left,none,-99,-99,0.5,0,none,25,18,Woman,Right,
6,1,17,0.6331870999997591,['c'],0,right,none,-99,-99,0.5,0,none,25,18,Woman,Right,
7,1,17,0.867168600000241,['n'],1,right,none,-99,-99,0.5,0,none,25,18,Woman,Right,
8,1,17,0.7489776999996138,['n'],1,right,none,-99,-99,0.5,0,none,25,18,Woman,Right,
9,1,17,1.0669127999999546,['n'],0,left,none,-99,-99,0.5,0,none,25,18,Woman,Right,
10,1,17,1.1836519999997108,['n'],1,right,none,-99,-99,0.5,0,none,25,18,Woman,Right,
11,1,17,1.1321452000001955,['n'],0,left,none,-99,-99,0.5,0,none,25,18,Woman,Right,
12,1,17,0.8337499999997817,['c'],1,left,none,-99,-99,0.5,0,none,25,18,Woman,Right,
13,1,17,0.9167932000000292,['n'],0,left,none,-99,-99,0.5,0,none,25,18,Woman,Right,
14,1,17,0.5327477000000727,['c'],1,left,none,-99,-99,0.5,0,none,25,18,Woman,Right,
15,1,17,0.8844320000002881,['c'],1,left,none,-99,-99,0.5,0,none,25,18,Woman,Right,
16,1,17,0.8004421000000548,['c'],0,right,none,-99,-99,0.5,0,none,25,18,Woman,Right,
17,1,17,0.33363839999992706,['n'],0,left,none,-99,-99,0.5,0,none,25,18,Woman,Right,
18,1,17,0.6828541999998379,['c'],0,right,none,-99,-99,0.5,0,none,25,18,Woman,Right,
19,1,17,0.7318193000000974,['n'],0,left,none,-99,-99,0.5,0,none,25,18,Woman,Right,
20,1,17,0.5695135999999366,['c'],0,right,none,-99,-99,0.5,0,none,25,18,Woman,Right,
21,1,17,0.6832463999999163,['c'],0,right,none,-99,-99,0.5,0,none,25,18,Woman,Right,
22,1,17,0.8678305000003093,['c'],0,right,none,-99,-99,0.5,0,none,25,18,Woman,Right,
23,1,17,1.8176860999997189,['n'],0,left,none,-99,-99,0.5,0,none,25,18,Woman,Right,
0,1,18,1.518108199999915,['c'],0,right,none,-99,-99,0.5,0,none,25,18,Woman,Right,
1,1,18,2.1662281999997504,['c'],0,right,none,-99,-99,0.5,0,none,25,18,Woman,Right,
2,1,18,1.517613099999835,['n'],0,left,none,-99,-99,0.5,0,none,25,18,Woman,Right,
3,1,18,1.9666995000002316,['n'],0,left,none,-99,-99,0.5,0,none,25,18,Woman,Right,
4,1,18,1.4335433000001103,['c'],1,left,none,-99,-99,0.5,0,none,25,18,Woman,Right,
5,1,18,1.5513731000000917,['c'],0,right,none,-99,-99,0.5,0,none,25,18,Woman,Right,
6,1,18,1.234114999999747,['n'],0,left,none,-99,-99,0.5,0,none,25,18,Woman,Right,
7,1,18,1.700138899999729,['c'],0,right,none,-99,-99,0.5,0,none,25,18,Woman,Right,
8,1,18,1.1162899999999354,['n'],1,right,none,-99,-99,0.5,0,none,25,18,Woman,Right,
9,1,18,0.9333056000000397,['c'],0,right,none,-99,-99,0.5,0,none,25,18,Woman,Right,
10,1,18,0.9664550000002237,['c'],0,right,none,-99,-99,0.5,0,none,25,18,Woman,Right,
11,1,18,0.5672896000000947,['n'],0,left,none,-99,-99,0.5,0,none,25,18,Woman,Right,
12,1,18,2.3668002999997952,['c'],1,left,none,-99,-99,0.5,0,none,25,18,Woman,Right,
13,1,18,1.6151858999996875,['c'],0,right,none,-99,-99,0.5,0,none,25,18,Woman,Right,
14,1,18,1.1651808000001438,['n'],0,left,none,-99,-99,0.5,0,none,25,18,Woman,Right,
15,1,18,2.3508302000000185,['c'],1,left,none,-99,-99,0.5,0,none,25,18,Woman,Right,
16,1,18,1.5502847000002475,['c'],1,left,none,-99,-99,0.5,0,none,25,18,Woman,Right,
17,1,18,1.63427479999973,['c'],1,left,none,-99,-99,0.5,0,none,25,18,Woman,Right,
18,1,18,1.0679199000001063,['n'],1,right,none,-99,-99,0.5,0,none,25,18,Woman,Right,
19,1,18,1.6835641000002397,['c'],0,right,none,-99,-99,0.5,0,none,25,18,Woman,Right,
20,1,18,1.2826543999999558,['n'],1,right,none,-99,-99,0.5,0,none,25,18,Woman,Right,
21,1,18,1.9163315000000694,['n'],1,right,none,-99,-99,0.5,0,none,25,18,Woman,Right,
22,1,18,1.7681397000001198,['n'],0,left,none,-99,-99,0.5,0,none,25,18,Woman,Right,
23,1,18,1.2335978999999497,['c'],1,left,none,-99,-99,0.5,0,none,25,18,Woman,Right,
0,1,19,1.9503554000002623,['c'],0,right,none,-99,-99,0.5,0,none,25,18,Woman,Right,
1,1,19,0.8837798999998085,['n'],0,left,none,-99,-99,0.5,0,none,25,18,Woman,Right,
2,1,19,1.266754299999775,['n'],0,left,none,-99,-99,0.5,0,none,25,18,Woman,Right,
3,1,19,0.8671832999998514,['c'],0,right,none,-99,-99,0.5,0,none,25,18,Woman,Right,
4,1,19,1.3683991000002607,['c'],1,left,none,-99,-99,0.5,0,none,25,18,Woman,Right,
5,1,19,0.6504193999999188,['n'],0,left,none,-99,-99,0.5,0,none,25,18,Woman,Right,
6,1,19,0.5831632999997964,['c'],0,right,none,-99,-99,0.5,0,none,25,18,Woman,Right,
7,1,19,1.0838732000001983,['c'],0,right,none,-99,-99,0.5,0,none,25,18,Woman,Right,
8,1,19,0.564153200000419,['n'],1,right,none,-99,-99,0.5,0,none,25,18,Woman,Right,
9,1,19,1.1502669000001333,['n'],1,right,none,-99,-99,0.5,0,none,25,18,Woman,Right,
10,1,19,0.5350760999999693,['n'],0,left,none,-99,-99,0.5,0,none,25,18,Woman,Right,
11,1,19,0.6841727999999421,['c'],0,right,none,-99,-99,0.5,0,none,25,18,Woman,Right,
12,1,19,0.733837499999936,['n'],0,left,none,-99,-99,0.5,0,none,25,18,Woman,Right,
13,1,19,1.382559200000287,['n'],1,right,none,-99,-99,0.5,0,none,25,18,Woman,Right,
14,1,19,0.5662145999999666,['n'],0,left,none,-99,-99,0.5,0,none,25,18,Woman,Right,
15,1,19,0.615792699999929,['n'],0,left,none,-99,-99,0.5,0,none,25,18,Woman,Right,
16,1,19,0.73275539999986,['c'],1,left,none,-99,-99,0.5,0,none,25,18,Woman,Right,
17,1,19,0.5675135000001319,['n'],1,right,none,-99,-99,0.5,0,none,25,18,Woman,Right,
18,1,19,0.5506641000001764,['n'],0,left,none,-99,-99,0.5,0,none,25,18,Woman,Right,
19,1,19,0.5669096000001446,['n'],1,right,none,-99,-99,0.5,0,none,25,18,Woman,Right,
20,1,19,0.9342671999997947,['n'],0,left,none,-99,-99,0.5,0,none,25,18,Woman,Right,
21,1,19,1.1326987999996163,['n'],0,left,none,-99,-99,0.5,0,none,25,18,Woman,Right,
22,1,19,0.8170208000001367,['n'],1,right,none,-99,-99,0.5,0,none,25,18,Woman,Right,
23,1,19,0.7503387000001567,['n'],1,right,none,-99,-99,0.5,0,none,25,18,Woman,Right,
0,1,20,1.4002322000001186,['c'],0,right,none,-99,-99,0.5,0,none,25,18,Woman,Right,
1,1,20,1.1494272000004457,['n'],1,right,none,-99,-99,0.5,0,none,25,18,Woman,Right,
2,1,20,0.867471900000055,['c'],1,left,none,-99,-99,0.5,0,none,25,18,Woman,Right,
3,1,20,1.117435000000114,['c'],0,right,none,-99,-99,0.5,0,none,25,18,Woman,Right,
4,1,20,0.850414400000318,['c'],1,left,none,-99,-99,0.5,0,none,25,18,Woman,Right,
5,1,20,1.3671199999998862,['c'],0,right,none,-99,-99,0.5,0,none,25,18,Woman,Right,
6,1,20,1.4665710000003855,['c'],0,right,none,-99,-99,0.5,0,none,25,18,Woman,Right,
7,1,20,0.9656377000001157,['c'],0,right,none,-99,-99,0.5,0,none,25,18,Woman,Right,
8,1,20,1.549353599999904,['n'],0,left,none,-99,-99,0.5,0,none,25,18,Woman,Right,
9,1,20,1.9816255000000638,['c'],0,right,none,-99,-99,0.5,0,none,25,18,Woman,Right,
10,1,20,1.7839994999999362,['n'],0,left,none,-99,-99,0.5,0,none,25,18,Woman,Right,
11,1,20,1.6175501999996413,['c'],1,left,none,-99,-99,0.5,0,none,25,18,Woman,Right,
12,1,20,1.400975600000038,['n'],0,left,none,-99,-99,0.5,0,none,25,18,Woman,Right,
13,1,20,2.36657729999979,['n'],0,left,none,-99,-99,0.5,0,none,25,18,Woman,Right,
14,1,20,2.8664966999999706,['n'],1,right,none,-99,-99,0.5,0,none,25,18,Woman,Right,
15,1,20,2.065254200000254,['n'],0,left,none,-99,-99,0.5,0,none,25,18,Woman,Right,
16,1,20,1.4340448999996624,['c'],0,right,none,-99,-99,0.5,0,none,25,18,Woman,Right,
17,1,20,1.6836002000000008,['c'],1,left,none,-99,-99,0.5,0,none,25,18,Woman,Right,
18,1,20,2.149822999999742,['c'],1,left,none,-99,-99,0.5,0,none,25,18,Woman,Right,
19,1,20,1.7833072999997057,['n'],0,left,none,-99,-99,0.5,0,none,25,18,Woman,Right,
20,1,20,1.8506553000001986,['c'],0,right,none,-99,-99,0.5,0,none,25,18,Woman,Right,
21,1,20,1.0505729999999858,['n'],1,right,none,-99,-99,0.5,0,none,25,18,Woman,Right,
22,1,20,1.2011593000001994,['n'],0,left,none,-99,-99,0.5,0,none,25,18,Woman,Right,
23,1,20,1.8005739999998696,['n'],1,right,none,-99,-99,0.5,0,none,25,18,Woman,Right,
0,1,21,2.0512719000003017,['c'],1,left,none,-99,-99,0.5,0,none,25,18,Woman,Right,
1,1,21,2.3835410000001502,['c'],1,left,none,-99,-99,0.5,0,none,25,18,Woman,Right,
2,1,21,1.550906599999962,['n'],1,right,none,-99,-99,0.5,0,none,25,18,Woman,Right,
3,1,21,1.1344177999999374,['n'],0,left,none,-99,-99,0.5,0,none,25,18,Woman,Right,
4,1,21,0.7338079000001017,['n'],0,left,none,-99,-99,0.5,0,none,25,18,Woman,Right,
5,1,21,1.4177807999999459,['c'],1,left,none,-99,-99,0.5,0,none,25,18,Woman,Right,
6,1,21,1.8512057000002642,['c'],1,left,none,-99,-99,0.5,0,none,25,18,Woman,Right,
7,1,21,0.06774970000014946,['n'],1,right,none,-99,-99,0.5,0,none,25,18,Woman,Right,
8,1,21,0.48321060000034777,['n'],0,left,none,-99,-99,0.5,0,none,25,18,Woman,Right,
9,1,21,0.8650791000000027,['n'],0,left,none,-99,-99,0.5,0,none,25,18,Woman,Right,
10,1,21,1.0010127000000466,['n'],1,right,none,-99,-99,0.5,0,none,25,18,Woman,Right,
11,1,21,0.30060039999989385,['c'],0,right,none,-99,-99,0.5,0,none,25,18,Woman,Right,
12,1,21,1.3168133999997735,['n'],0,left,none,-99,-99,0.5,0,none,25,18,Woman,Right,
13,1,21,1.9168650999999954,['c'],0,right,none,-99,-99,0.5,0,none,25,18,Woman,Right,
14,1,21,2.233204900000146,['n'],1,right,none,-99,-99,0.5,0,none,25,18,Woman,Right,
15,1,21,2.1501377999998113,['n'],1,right,none,-99,-99,0.5,0,none,25,18,Woman,Right,
16,1,21,3.965454099999988,['c'],0,right,none,-99,-99,0.5,0,none,25,18,Woman,Right,
17,1,21,1.3003459999999905,['n'],1,right,none,-99,-99,0.5,0,none,25,18,Woman,Right,
18,1,21,1.949976500000048,['n'],1,right,none,-99,-99,0.5,0,none,25,18,Woman,Right,
19,1,21,2.1333700000000135,['n'],0,left,none,-99,-99,0.5,0,none,25,18,Woman,Right,
20,1,21,1.4837187999996786,['c'],0,right,none,-99,-99,0.5,0,none,25,18,Woman,Right,
21,1,21,0.9840056000002733,['c'],1,left,none,-99,-99,0.5,0,none,25,18,Woman,Right,
22,1,21,1.116955500000131,['c'],0,right,none,-99,-99,0.5,0,none,25,18,Woman,Right,
23,1,21,1.3001374000000396,['n'],0,left,none,-99,-99,0.5,0,none,25,18,Woman,Right,
0,1,22,2.999515799999699,['c'],0,right,none,-99,-99,0.5,0,none,25,18,Woman,Right,
1,1,22,2.8000710000001163,['c'],0,right,none,-99,-99,0.5,0,none,25,18,Woman,Right,
2,1,22,1.0007786000001033,['c'],1,left,none,-99,-99,0.5,0,none,25,18,Woman,Right,
3,1,22,1.000389400000131,['c'],0,right,none,-99,-99,0.5,0,none,25,18,Woman,Right,
4,1,22,0.7663818000000902,['c'],0,right,none,-99,-99,0.5,0,none,25,18,Woman,Right,
5,1,22,0.9503968999997596,['c'],0,right,none,-99,-99,0.5,0,none,25,18,Woman,Right,
6,1,22,0.9171246999999312,['c'],0,right,none,-99,-99,0.5,0,none,25,18,Woman,Right,
7,1,22,0.7002385000000686,['n'],0,left,none,-99,-99,0.5,0,none,25,18,Woman,Right,
8,1,22,1.1662584000000606,['n'],0,left,none,-99,-99,0.5,0,none,25,18,Woman,Right,
9,1,22,0.8505781000003481,['n'],0,left,none,-99,-99,0.5,0,none,25,18,Woman,Right,
10,1,22,0.8343522000000121,['n'],0,left,none,-99,-99,0.5,0,none,25,18,Woman,Right,
11,1,22,1.068802699999651,['n'],0,left,none,-99,-99,0.5,0,none,25,18,Woman,Right,
12,1,22,0.8011377999996512,['n'],1,right,none,-99,-99,0.5,0,none,25,18,Woman,Right,
13,1,22,0.8176415000002635,['n'],1,right,none,-99,-99,0.5,0,none,25,18,Woman,Right,
14,1,22,1.350306400000136,['n'],1,right,none,-99,-99,0.5,0,none,25,18,Woman,Right,
15,1,22,1.1163139999998748,['n'],0,left,none,-99,-99,0.5,0,none,25,18,Woman,Right,
16,1,22,0.532433299999866,['n'],0,left,none,-99,-99,0.5,0,none,25,18,Woman,Right,
17,1,22,0.3511802000002717,['n'],1,right,none,-99,-99,0.5,0,none,25,18,Woman,Right,
18,1,22,0.6997307000001456,['n'],1,right,none,-99,-99,0.5,0,none,25,18,Woman,Right,
19,1,22,0.6670892000001913,['n'],0,left,none,-99,-99,0.5,0,none,25,18,Woman,Right,
20,1,22,0.7169776999999158,['n'],0,left,none,-99,-99,0.5,0,none,25,18,Woman,Right,
21,1,22,0.6514228999999432,['n'],0,left,none,-99,-99,0.5,0,none,25,18,Woman,Right,
22,1,22,0.8013395000002674,['n'],0,left,none,-99,-99,0.5,0,none,25,18,Woman,Right,
23,1,22,0.9348704000003636,['n'],1,right,none,-99,-99,0.5,0,none,25,18,Woman,Right,
0,1,23,1.0825958000000355,['c'],0,right,none,-99,-99,0.5,0,none,25,18,Woman,Right,
1,1,23,0.9993993000002774,['n'],0,left,none,-99,-99,0.5,0,none,25,18,Woman,Right,
2,1,23,0.8511012999997547,['n'],1,right,none,-99,-99,0.5,0,none,25,18,Woman,Right,
3,1,23,0.9326719000000594,['n'],1,right,none,-99,-99,0.5,0,none,25,18,Woman,Right,
4,1,23,1.1990985000002183,['n'],1,right,none,-99,-99,0.5,0,none,25,18,Woman,Right,
5,1,23,0.701309499999752,['n'],0,left,none,-99,-99,0.5,0,none,25,18,Woman,Right,
6,1,23,0.8830940000002556,['n'],0,left,none,-99,-99,0.5,0,none,25,18,Woman,Right,
7,1,23,1.4661117000000559,['n'],0,left,none,-99,-99,0.5,0,none,25,18,Woman,Right,
8,1,23,0.934445500000038,['n'],1,right,none,-99,-99,0.5,0,none,25,18,Woman,Right,
9,1,23,0.7004455999999664,['n'],0,left,none,-99,-99,0.5,0,none,25,18,Woman,Right,
10,1,23,2.0504862000002504,['n'],1,right,none,-99,-99,0.5,0,none,25,18,Woman,Right,
11,1,23,0.9667877000001681,['n'],0,left,none,-99,-99,0.5,0,none,25,18,Woman,Right,
12,1,23,0.7836143999998058,['n'],1,right,none,-99,-99,0.5,0,none,25,18,Woman,Right,
13,1,23,2.034180799999831,['n'],0,left,none,-99,-99,0.5,0,none,25,18,Woman,Right,
14,1,23,0.36568039999974644,['n'],0,left,none,-99,-99,0.5,0,none,25,18,Woman,Right,
15,1,23,0.600445099999888,['n'],0,left,none,-99,-99,0.5,0,none,25,18,Woman,Right,
16,1,23,0.9169482000002063,['n'],0,left,none,-99,-99,0.5,0,none,25,18,Woman,Right,
17,1,23,0.01742950000016208,['n'],1,right,none,-99,-99,0.5,0,none,25,18,Woman,Right,
18,1,23,0.6679450999999972,['n'],1,right,none,-99,-99,0.5,0,none,25,18,Woman,Right,
19,1,23,0.7839137999999366,['c'],0,right,none,-99,-99,0.5,0,none,25,18,Woman,Right,
20,1,23,1.1833329999999478,['c'],1,left,none,-99,-99,0.5,0,none,25,18,Woman,Right,
21,1,23,1.1340888999998242,['c'],1,left,none,-99,-99,0.5,0,none,25,18,Woman,Right,
22,1,23,1.8168323999998393,['c'],0,right,none,-99,-99,0.5,0,none,25,18,Woman,Right,
23,1,23,0.8493703999997706,['c'],0,right,none,-99,-99,0.5,0,none,25,18,Woman,Right,
0,1,24,0.9342827000000398,['n'],1,right,none,-99,-99,0.5,0,none,25,18,Woman,Right,
1,1,24,0.9337046000000555,['n'],0,left,none,-99,-99,0.5,0,none,25,18,Woman,Right,
2,1,24,1.0169432000002416,['n'],1,right,none,-99,-99,0.5,0,none,25,18,Woman,Right,
3,1,24,1.3337471999998343,['n'],0,left,none,-99,-99,0.5,0,none,25,18,Woman,Right,
4,1,24,1.2681675999997424,['c'],0,right,none,-99,-99,0.5,0,none,25,18,Woman,Right,
5,1,24,1.7671063999996477,['n'],1,right,none,-99,-99,0.5,0,none,25,18,Woman,Right,
6,1,24,0.9346067000001312,['c'],1,left,none,-99,-99,0.5,0,none,25,18,Woman,Right,
7,1,24,2.166647600000033,['c'],0,right,none,-99,-99,0.5,0,none,25,18,Woman,Right,
8,1,24,2.3172866999998405,['n'],0,left,none,-99,-99,0.5,0,none,25,18,Woman,Right,
9,1,24,1.68446670000003,['c'],0,right,none,-99,-99,0.5,0,none,25,18,Woman,Right,
10,1,24,1.0002864000002774,['c'],0,right,none,-99,-99,0.5,0,none,25,18,Woman,Right,
11,1,24,1.3169549999997798,['n'],0,left,none,-99,-99,0.5,0,none,25,18,Woman,Right,
12,1,24,1.5677583000001505,['c'],1,left,none,-99,-99,0.5,0,none,25,18,Woman,Right,
13,1,24,2.0157632999998896,['c'],1,left,none,-99,-99,0.5,0,none,25,18,Woman,Right,
14,1,24,1.767542599999615,['c'],0,right,none,-99,-99,0.5,0,none,25,18,Woman,Right,
15,1,24,0.9835775999999896,['n'],1,right,none,-99,-99,0.5,0,none,25,18,Woman,Right,
16,1,24,1.466439199999968,['c'],1,left,none,-99,-99,0.5,0,none,25,18,Woman,Right,
17,1,24,1.4015377999999146,['c'],0,right,none,-99,-99,0.5,0,none,25,18,Woman,Right,
18,1,24,1.117808700000296,['n'],1,right,none,-99,-99,0.5,0,none,25,18,Woman,Right,
19,1,24,0.9501741999997648,['c'],0,right,none,-99,-99,0.5,0,none,25,18,Woman,Right,
20,1,24,1.0010501000001568,['c'],1,left,none,-99,-99,0.5,0,none,25,18,Woman,Right,
21,1,24,1.4812536999997974,['c'],1,left,none,-99,-99,0.5,0,none,25,18,Woman,Right,
22,1,24,1.6668549999999414,['c'],1,left,none,-99,-99,0.5,0,none,25,18,Woman,Right,
23,1,24,1.4179620999998406,['c'],1,left,none,-99,-99,0.5,0,none,25,18,Woman,Right,
0,1,25,0.7829384000001482,['c'],1,left,none,-99,-99,0.5,0,none,25,18,Woman,Right,
1,1,25,1.1332946000002266,['n'],1,right,none,-99,-99,0.5,0,none,25,18,Woman,Right,
2,1,25,0.9168085999999676,['n'],1,right,none,-99,-99,0.5,0,none,25,18,Woman,Right,
3,1,25,1.750415100000282,['n'],1,right,none,-99,-99,0.5,0,none,25,18,Woman,Right,
4,1,25,0.8672768999999789,['n'],0,left,none,-99,-99,0.5,0,none,25,18,Woman,Right,
5,1,25,0.8672300999996878,['c'],0,right,none,-99,-99,0.5,0,none,25,18,Woman,Right,
6,1,25,0.7488638999998329,['n'],0,left,none,-99,-99,0.5,0,none,25,18,Woman,Right,
7,1,25,1.4671493000000737,['n'],1,right,none,-99,-99,0.5,0,none,25,18,Woman,Right,
8,1,25,0.7010855999997148,['n'],1,right,none,-99,-99,0.5,0,none,25,18,Woman,Right,
9,1,25,0.9159101999998711,['n'],1,right,none,-99,-99,0.5,0,none,25,18,Woman,Right,
10,1,25,1.3670217999997476,['n'],1,right,none,-99,-99,0.5,0,none,25,18,Woman,Right,
11,1,25,1.1337605999997322,['n'],0,left,none,-99,-99,0.5,0,none,25,18,Woman,Right,
12,1,25,0.31769340000028023,['n'],1,right,none,-99,-99,0.5,0,none,25,18,Woman,Right,
13,1,25,1.3338943000003383,['n'],0,left,none,-99,-99,0.5,0,none,25,18,Woman,Right,
14,1,25,1.6005754000002526,['n'],1,right,none,-99,-99,0.5,0,none,25,18,Woman,Right,
15,1,25,0.8501117000000704,['n'],0,left,none,-99,-99,0.5,0,none,25,18,Woman,Right,
16,1,25,1.3665315999996892,['c'],0,right,none,-99,-99,0.5,0,none,25,18,Woman,Right,
17,1,25,1.4165146999998797,['c'],1,left,none,-99,-99,0.5,0,none,25,18,Woman,Right,
18,1,25,1.6145833999999013,['c'],1,left,none,-99,-99,0.5,0,none,25,18,Woman,Right,
19,1,25,2.3682911999999305,['c'],1,left,none,-99,-99,0.5,0,none,25,18,Woman,Right,
20,1,25,2.5332892999999785,['c'],0,right,none,-99,-99,0.5,0,none,25,18,Woman,Right,
21,1,25,2.066139000000021,['c'],1,left,none,-99,-99,0.5,0,none,25,18,Woman,Right,
22,1,25,2.2321083000001636,['c'],1,left,none,-99,-99,0.5,0,none,25,18,Woman,Right,
23,1,25,1.882133199999771,['c'],1,left,none,-99,-99,0.5,0,none,25,18,Woman,Right,
0,1,26,0.9000350999999682,['n'],0,left,none,-99,-99,0.5,0,none,25,18,Woman,Right,
1,1,26,1.5345174999997653,['c'],0,right,none,-99,-99,0.5,0,none,25,18,Woman,Right,
2,1,26,0.40111819999992804,['n'],1,right,none,-99,-99,0.5,0,none,25,18,Woman,Right,
3,1,26,1.183568699999796,['n'],1,right,none,-99,-99,0.5,0,none,25,18,Woman,Right,
4,1,26,1.1172706000002108,['n'],1,right,none,-99,-99,0.5,0,none,25,18,Woman,Right,
5,1,26,1.5339607999999316,['n'],1,right,none,-99,-99,0.5,0,none,25,18,Woman,Right,
6,1,26,1.0009534999999232,['n'],1,right,none,-99,-99,0.5,0,none,25,18,Woman,Right,
7,1,26,0.8175262000004295,['n'],0,left,none,-99,-99,0.5,0,none,25,18,Woman,Right,
8,1,26,1.9335332999999082,['c'],0,right,none,-99,-99,0.5,0,none,25,18,Woman,Right,
9,1,26,1.500291599999855,['c'],0,right,none,-99,-99,0.5,0,none,25,18,Woman,Right,
10,1,26,1.6180088999999498,['c'],1,left,none,-99,-99,0.5,0,none,25,18,Woman,Right,
11,1,26,1.5012197999999444,['c'],1,left,none,-99,-99,0.5,0,none,25,18,Woman,Right,
12,1,26,0.8346450999997614,['c'],0,right,none,-99,-99,0.5,0,none,25,18,Woman,Right,
13,1,26,1.1013922000001912,['c'],1,left,none,-99,-99,0.5,0,none,25,18,Woman,Right,
14,1,26,1.3326317999999446,['c'],1,left,none,-99,-99,0.5,0,none,25,18,Woman,Right,
15,1,26,2.1659239000000525,['c'],0,right,none,-99,-99,0.5,0,none,25,18,Woman,Right,
16,1,26,1.0170742000000246,['c'],1,left,none,-99,-99,0.5,0,none,25,18,Woman,Right,
17,1,26,1.5324914000002536,['c'],1,left,none,-99,-99,0.5,0,none,25,18,Woman,Right,
18,1,26,1.0498419000000467,['c'],1,left,none,-99,-99,0.5,0,none,25,18,Woman,Right,
19,1,26,3.8998771000001398,['c'],0,right,none,-99,-99,0.5,0,none,25,18,Woman,Right,
20,1,26,0.666829300000245,['n'],0,left,none,-99,-99,0.5,0,none,25,18,Woman,Right,
21,1,26,0.5342215000000579,['c'],1,left,none,-99,-99,0.5,0,none,25,18,Woman,Right,
22,1,26,0.9502331999997295,['c'],1,left,none,-99,-99,0.5,0,none,25,18,Woman,Right,
23,1,26,1.4004743999998936,['c'],0,right,none,-99,-99,0.5,0,none,25,18,Woman,Right,
0,1,27,1.1177225000001272,['n'],0,left,none,-99,-99,0.5,0,none,25,18,Woman,Right,
1,1,27,0.7831297000002451,['c'],0,right,none,-99,-99,0.5,0,none,25,18,Woman,Right,
2,1,27,1.2504994999999326,['n'],0,left,none,-99,-99,0.5,0,none,25,18,Woman,Right,
3,1,27,0.8502818000001753,['c'],1,left,none,-99,-99,0.5,0,none,25,18,Woman,Right,
4,1,27,0.8339610000002722,['c'],1,left,none,-99,-99,0.5,0,none,25,18,Woman,Right,
5,1,27,0.614967400000296,['c'],0,right,none,-99,-99,0.5,0,none,25,18,Woman,Right,
6,1,27,1.0175994999999602,['n'],1,right,none,-99,-99,0.5,0,none,25,18,Woman,Right,
7,1,27,0.7338514999996733,['n'],1,right,none,-99,-99,0.5,0,none,25,18,Woman,Right,
8,1,27,0.7012701999997262,['n'],1,right,none,-99,-99,0.5,0,none,25,18,Woman,Right,
9,1,27,1.3504847000003792,['c'],1,left,none,-99,-99,0.5,0,none,25,18,Woman,Right,
10,1,27,0.8500919000002796,['c'],1,left,none,-99,-99,0.5,0,none,25,18,Woman,Right,
11,1,27,0.666062299999794,['c'],1,left,none,-99,-99,0.5,0,none,25,18,Woman,Right,
12,1,27,1.19994429999997,['n'],1,right,none,-99,-99,0.5,0,none,25,18,Woman,Right,
13,1,27,1.4167647999997826,['n'],1,right,none,-99,-99,0.5,0,none,25,18,Woman,Right,
14,1,27,0.9837701999999808,['c'],1,left,none,-99,-99,0.5,0,none,25,18,Woman,Right,
15,1,27,0.700246899999911,['n'],1,right,none,-99,-99,0.5,0,none,25,18,Woman,Right,
16,1,27,1.3669804000001022,['c'],0,right,none,-99,-99,0.5,0,none,25,18,Woman,Right,
17,1,27,0.9170278000001417,['n'],1,right,none,-99,-99,0.5,0,none,25,18,Woman,Right,
18,1,27,0.8670070000002852,['n'],1,right,none,-99,-99,0.5,0,none,25,18,Woman,Right,
19,1,27,1.2174470999998448,['n'],0,left,none,-99,-99,0.5,0,none,25,18,Woman,Right,
20,1,27,0.9163822999998956,['c'],0,right,none,-99,-99,0.5,0,none,25,18,Woman,Right,
21,1,27,0.7007768000003125,['n'],0,left,none,-99,-99,0.5,0,none,25,18,Woman,Right,
22,1,27,0.7512119999996685,['n'],0,left,none,-99,-99,0.5,0,none,25,18,Woman,Right,
23,1,27,0.5672178999998323,['n'],0,left,none,-99,-99,0.5,0,none,25,18,Woman,Right,
0,1,28,1.0676613000000543,['c'],1,left,none,-99,-99,0.5,0,none,25,18,Woman,Right,
1,1,28,1.300173900000118,['c'],1,left,none,-99,-99,0.5,0,none,25,18,Woman,Right,
2,1,28,0.8838571000001139,['c'],0,right,none,-99,-99,0.5,0,none,25,18,Woman,Right,
3,1,28,1.399734200000239,['c'],1,left,none,-99,-99,0.5,0,none,25,18,Woman,Right,
4,1,28,1.5673991000003298,['c'],0,right,none,-99,-99,0.5,0,none,25,18,Woman,Right,
5,1,28,1.9002636000000166,['c'],1,left,none,-99,-99,0.5,0,none,25,18,Woman,Right,
6,1,28,1.6175393000003169,['c'],0,right,none,-99,-99,0.5,0,none,25,18,Woman,Right,
7,1,28,0.8825216999998702,['c'],1,left,none,-99,-99,0.5,0,none,25,18,Woman,Right,
8,1,28,0.9001189999999042,['n'],0,left,none,-99,-99,0.5,0,none,25,18,Woman,Right,
9,1,28,0.8831313999999111,['c'],0,right,none,-99,-99,0.5,0,none,25,18,Woman,Right,
10,1,28,1.1504222999997182,['n'],1,right,none,-99,-99,0.5,0,none,25,18,Woman,Right,
11,1,28,0.817640400000073,['n'],1,right,none,-99,-99,0.5,0,none,25,18,Woman,Right,
12,1,28,0.6995720999998412,['n'],0,left,none,-99,-99,0.5,0,none,25,18,Woman,Right,
13,1,28,0.7170262999998158,['c'],0,right,none,-99,-99,0.5,0,none,25,18,Woman,Right,
14,1,28,0.7663885000001756,['c'],0,right,none,-99,-99,0.5,0,none,25,18,Woman,Right,
15,1,28,0.7171982999998363,['c'],1,left,none,-99,-99,0.5,0,none,25,18,Woman,Right,
16,1,28,0.6344555000000582,['c'],0,right,none,-99,-99,0.5,0,none,25,18,Woman,Right,
17,1,28,0.8344072999998389,['c'],0,right,none,-99,-99,0.5,0,none,25,18,Woman,Right,
18,1,28,0.7168569000000389,['c'],1,left,none,-99,-99,0.5,0,none,25,18,Woman,Right,
19,1,28,0.7839022000002842,['c'],0,right,none,-99,-99,0.5,0,none,25,18,Woman,Right,
20,1,28,0.9011059999997997,['c'],0,right,none,-99,-99,0.5,0,none,25,18,Woman,Right,
21,1,28,0.967681999999968,['c'],1,left,none,-99,-99,0.5,0,none,25,18,Woman,Right,
22,1,28,0.6011729000001651,['n'],0,left,none,-99,-99,0.5,0,none,25,18,Woman,Right,
23,1,28,0.7157629000002999,['c'],1,left,none,-99,-99,0.5,0,none,25,18,Woman,Right,
0,1,29,1.0677354000004016,['c'],0,right,none,-99,-99,0.5,0,none,25,18,Woman,Right,
1,1,29,0.9011038999997254,['n'],0,left,none,-99,-99,0.5,0,none,25,18,Woman,Right,
2,1,29,1.433397899999818,['c'],0,right,none,-99,-99,0.5,0,none,25,18,Woman,Right,
3,1,29,1.216653700000279,['n'],1,right,none,-99,-99,0.5,0,none,25,18,Woman,Right,
4,1,29,0.9170342999996137,['c'],1,left,none,-99,-99,0.5,0,none,25,18,Woman,Right,
5,1,29,0.8988293000002159,['n'],1,right,none,-99,-99,0.5,0,none,25,18,Woman,Right,
6,1,29,1.1826811999999336,['n'],0,left,none,-99,-99,0.5,0,none,25,18,Woman,Right,
7,1,29,1.250177700000222,['n'],1,right,none,-99,-99,0.5,0,none,25,18,Woman,Right,
8,1,29,0.9337394999997741,['n'],1,right,none,-99,-99,0.5,0,none,25,18,Woman,Right,
9,1,29,1.4001862999998593,['n'],1,right,none,-99,-99,0.5,0,none,25,18,Woman,Right,
10,1,29,0.4324863000001642,['n'],1,right,none,-99,-99,0.5,0,none,25,18,Woman,Right,
11,1,29,0.8843514000000141,['n'],1,right,none,-99,-99,0.5,0,none,25,18,Woman,Right,
12,1,29,0.7991093000000546,['c'],1,left,none,-99,-99,0.5,0,none,25,18,Woman,Right,
13,1,29,1.1000621000002866,['n'],0,left,none,-99,-99,0.5,0,none,25,18,Woman,Right,
14,1,29,1.0165702999997848,['n'],0,left,none,-99,-99,0.5,0,none,25,18,Woman,Right,
15,1,29,0.8170403999997689,['n'],0,left,none,-99,-99,0.5,0,none,25,18,Woman,Right,
16,1,29,0.9330807000001187,['n'],0,left,none,-99,-99,0.5,0,none,25,18,Woman,Right,
17,1,29,1.2336725999998635,['n'],0,left,none,-99,-99,0.5,0,none,25,18,Woman,Right,
18,1,29,1.3178142000001571,['c'],1,left,none,-99,-99,0.5,0,none,25,18,Woman,Right,
19,1,29,1.4163961000003837,['n'],1,right,none,-99,-99,0.5,0,none,25,18,Woman,Right,
20,1,29,1.049447699999746,['n'],1,right,none,-99,-99,0.5,0,none,25,18,Woman,Right,
21,1,29,1.2657632000000376,['n'],1,right,none,-99,-99,0.5,0,none,25,18,Woman,Right,
22,1,29,1.1329296999997496,['c'],1,left,none,-99,-99,0.5,0,none,25,18,Woman,Right,
23,1,29,1.7002646999999342,['n'],0,left,none,-99,-99,0.5,0,none,25,18,Woman,Right,
0,1,30,0.7171118000001115,['c'],1,left,none,-99,-99,0.5,0,none,25,18,Woman,Right,
1,1,30,0.7498043999999027,['c'],1,left,none,-99,-99,0.5,0,none,25,18,Woman,Right,
2,1,30,0.5339201000001594,['c'],0,right,none,-99,-99,0.5,0,none,25,18,Woman,Right,
3,1,30,0.5843315000001894,['n'],1,right,none,-99,-99,0.5,0,none,25,18,Woman,Right,
4,1,30,0.5662661999999727,['c'],0,right,none,-99,-99,0.5,0,none,25,18,Woman,Right,
5,1,30,0.6330855000001065,['n'],1,right,none,-99,-99,0.5,0,none,25,18,Woman,Right,
6,1,30,1.06779540000025,['n'],0,left,none,-99,-99,0.5,0,none,25,18,Woman,Right,
7,1,30,0.7516572999998061,['n'],0,left,none,-99,-99,0.5,0,none,25,18,Woman,Right,
8,1,30,1.1502590000000055,['n'],1,right,none,-99,-99,0.5,0,none,25,18,Woman,Right,
9,1,30,0.8660965000003671,['n'],0,left,none,-99,-99,0.5,0,none,25,18,Woman,Right,
10,1,30,1.5664452999999412,['n'],1,right,none,-99,-99,0.5,0,none,25,18,Woman,Right,
11,1,30,0.7658388999998351,['n'],0,left,none,-99,-99,0.5,0,none,25,18,Woman,Right,
12,1,30,0.9662662000000637,['n'],0,left,none,-99,-99,0.5,0,none,25,18,Woman,Right,
13,1,30,0.5176731000001382,['n'],1,right,none,-99,-99,0.5,0,none,25,18,Woman,Right,
14,1,30,0.847626599999785,['n'],0,left,none,-99,-99,0.5,0,none,25,18,Woman,Right,
15,1,30,1.3019429999999375,['n'],1,right,none,-99,-99,0.5,0,none,25,18,Woman,Right,
16,1,30,1.2013351000000512,['n'],1,right,none,-99,-99,0.5,0,none,25,18,Woman,Right,
17,1,30,1.6344273999998222,['c'],0,right,none,-99,-99,0.5,0,none,25,18,Woman,Right,
18,1,30,0.034198400000150286,['n'],0,left,none,-99,-99,0.5,0,none,25,18,Woman,Right,
19,1,30,2.799076199999945,['n'],1,right,none,-99,-99,0.5,0,none,25,18,Woman,Right,
20,1,30,1.051280399999996,['n'],0,left,none,-99,-99,0.5,0,none,25,18,Woman,Right,
21,1,30,0.6345342999998138,['n'],1,right,none,-99,-99,0.5,0,none,25,18,Woman,Right,
22,1,30,1.033552299999883,['n'],0,left,none,-99,-99,0.5,0,none,25,18,Woman,Right,
23,1,30,1.350326600000244,['n'],0,left,none,-99,-99,0.5,0,none,25,18,Woman,Right,
0,1,31,1.2156337999999778,['n'],0,left,none,-99,-99,0.5,0,none,25,18,Woman,Right,
1,1,31,0.6004557999999633,['n'],0,left,none,-99,-99,0.5,0,none,25,18,Woman,Right,
2,1,31,0.4338560999999572,['c'],0,right,none,-99,-99,0.5,0,none,25,18,Woman,Right,
3,1,31,0.4836571000000731,['n'],0,left,none,-99,-99,0.5,0,none,25,18,Woman,Right,
4,1,31,0.4003597999999329,['n'],1,right,none,-99,-99,0.5,0,none,25,18,Woman,Right,
5,1,31,0.567182799999955,['n'],0,left,none,-99,-99,0.5,0,none,25,18,Woman,Right,
6,1,31,0.5011423000000832,['n'],0,left,none,-99,-99,0.5,0,none,25,18,Woman,Right,
7,1,31,0.41694049999978233,['n'],1,right,none,-99,-99,0.5,0,none,25,18,Woman,Right,
8,1,31,0.3506821000000855,['n'],1,right,none,-99,-99,0.5,0,none,25,18,Woman,Right,
9,1,31,0.4336092999997163,['n'],0,left,none,-99,-99,0.5,0,none,25,18,Woman,Right,
10,1,31,1.1334979999996904,['n'],0,left,none,-99,-99,0.5,0,none,25,18,Woman,Right,
11,1,31,1.1824117999999544,['n'],1,right,none,-99,-99,0.5,0,none,25,18,Woman,Right,
12,1,31,0.8170949999998811,['n'],1,right,none,-99,-99,0.5,0,none,25,18,Woman,Right,
13,1,31,1.2336522999999033,['n'],1,right,none,-99,-99,0.5,0,none,25,18,Woman,Right,
14,1,31,1.2484308000002784,['c'],1,left,none,-99,-99,0.5,0,none,25,18,Woman,Right,
15,1,31,1.6000135999997838,['n'],1,right,none,-99,-99,0.5,0,none,25,18,Woman,Right,
16,1,31,1.1172639000001254,['c'],0,right,none,-99,-99,0.5,0,none,25,18,Woman,Right,
17,1,31,0.7503828999997495,['n'],0,left,none,-99,-99,0.5,0,none,25,18,Woman,Right,
18,1,31,0.9673049999996692,['n'],1,right,none,-99,-99,0.5,0,none,25,18,Woman,Right,
19,1,31,1.167938999999933,['n'],0,left,none,-99,-99,0.5,0,none,25,18,Woman,Right,
20,1,31,0.867245400000229,['n'],1,right,none,-99,-99,0.5,0,none,25,18,Woman,Right,
21,1,31,0.8494717999997192,['n'],0,left,none,-99,-99,0.5,0,none,25,18,Woman,Right,
22,1,31,1.0675388999998177,['n'],0,left,none,-99,-99,0.5,0,none,25,18,Woman,Right,
23,1,31,1.3835212999997566,['n'],1,right,none,-99,-99,0.5,0,none,25,18,Woman,Right,
0,1,32,0.9680033999998159,['n'],0,left,none,-99,-99,0.5,0,none,25,18,Woman,Right,
1,1,32,0.7007634999999937,['n'],1,right,none,-99,-99,0.5,0,none,25,18,Woman,Right,
2,1,32,0.5332587000002604,['n'],1,right,none,-99,-99,0.5,0,none,25,18,Woman,Right,
3,1,32,0.6993767999997544,['n'],1,right,none,-99,-99,0.5,0,none,25,18,Woman,Right,
4,1,32,0.7012085999999726,['n'],1,right,none,-99,-99,0.5,0,none,25,18,Woman,Right,
5,1,32,1.0683168000000478,['n'],1,right,none,-99,-99,0.5,0,none,25,18,Woman,Right,
6,1,32,0.6168830000001435,['n'],0,left,none,-99,-99,0.5,0,none,25,18,Woman,Right,
7,1,32,0.6504823000000215,['c'],1,left,none,-99,-99,0.5,0,none,25,18,Woman,Right,
8,1,32,0.6002940000003036,['n'],1,right,none,-99,-99,0.5,0,none,25,18,Woman,Right,
9,1,32,0.7338449000003493,['n'],0,left,none,-99,-99,0.5,0,none,25,18,Woman,Right,
10,1,32,0.7836124999998901,['c'],0,right,none,-99,-99,0.5,0,none,25,18,Woman,Right,
11,1,32,0.8339147000001503,['c'],0,right,none,-99,-99,0.5,0,none,25,18,Woman,Right,
12,1,32,0.9842995000003611,['c'],1,left,none,-99,-99,0.5,0,none,25,18,Woman,Right,
13,1,32,1.050446700000066,['c'],1,left,none,-99,-99,0.5,0,none,25,18,Woman,Right,
14,1,32,1.6326424000003499,['c'],1,left,none,-99,-99,0.5,0,none,25,18,Woman,Right,
15,1,32,1.366951599999993,['c'],0,right,none,-99,-99,0.5,0,none,25,18,Woman,Right,
16,1,32,0.831900300000143,['n'],0,left,none,-99,-99,0.5,0,none,25,18,Woman,Right,
17,1,32,0.9339355000001888,['n'],1,right,none,-99,-99,0.5,0,none,25,18,Woman,Right,
18,1,32,1.0331631999997626,['n'],1,right,none,-99,-99,0.5,0,none,25,18,Woman,Right,
19,1,32,1.4508997000002637,['n'],0,left,none,-99,-99,0.5,0,none,25,18,Woman,Right,
20,1,32,0.9001918999997542,['c'],1,left,none,-99,-99,0.5,0,none,25,18,Woman,Right,
21,1,32,0.6669550999999956,['c'],1,left,none,-99,-99,0.5,0,none,25,18,Woman,Right,
22,1,32,1.6166809999999714,['c'],0,right,none,-99,-99,0.5,0,none,25,18,Woman,Right,
23,1,32,0.6841262000002644,['n'],0,left,none,-99,-99,0.5,0,none,25,18,Woman,Right,
0,1,33,0.7512701000000561,['n'],0,left,none,-99,-99,0.5,0,none,25,18,Woman,Right,
1,1,33,0.584204100000079,['n'],0,left,none,-99,-99,0.5,0,none,25,18,Woman,Right,
2,1,33,0.5841040000000248,['n'],0,left,none,-99,-99,0.5,0,none,25,18,Woman,Right,
3,1,33,0.6844430999999531,['c'],0,right,none,-99,-99,0.5,0,none,25,18,Woman,Right,
4,1,33,0.6482848000000558,['n'],1,right,none,-99,-99,0.5,0,none,25,18,Woman,Right,
5,1,33,0.5332955000003494,['n'],1,right,none,-99,-99,0.5,0,none,25,18,Woman,Right,
6,1,33,0.6334541999999601,['n'],0,left,none,-99,-99,0.5,0,none,25,18,Woman,Right,
7,1,33,0.9004390000000058,['n'],0,left,none,-99,-99,0.5,0,none,25,18,Woman,Right,
8,1,33,0.7511245000000599,['n'],1,right,none,-99,-99,0.5,0,none,25,18,Woman,Right,
9,1,33,0.4180415000000721,['n'],0,left,none,-99,-99,0.5,0,none,25,18,Woman,Right,
10,1,33,0.31668119999994815,['n'],0,left,none,-99,-99,0.5,0,none,25,18,Woman,Right,
11,1,33,0.23486470000034387,['n'],1,right,none,-99,-99,0.5,0,none,25,18,Woman,Right,
12,1,33,0.28362749999996595,['n'],1,right,none,-99,-99,0.5,0,none,25,18,Woman,Right,
13,1,33,0.8999743999997918,['n'],1,right,none,-99,-99,0.5,0,none,25,18,Woman,Right,
14,1,33,0.8669245999999475,['n'],0,left,none,-99,-99,0.5,0,none,25,18,Woman,Right,
15,1,33,0.8329152000001159,['n'],0,left,none,-99,-99,0.5,0,none,25,18,Woman,Right,
16,1,33,0.6997341999999662,['n'],0,left,none,-99,-99,0.5,0,none,25,18,Woman,Right,
17,1,33,0.7002698000001146,['n'],0,left,none,-99,-99,0.5,0,none,25,18,Woman,Right,
18,1,33,1.250261799999862,['n'],1,right,none,-99,-99,0.5,0,none,25,18,Woman,Right,
19,1,33,0.551158100000066,['n'],1,right,none,-99,-99,0.5,0,none,25,18,Woman,Right,
20,1,33,0.7509222999997291,['n'],1,right,none,-99,-99,0.5,0,none,25,18,Woman,Right,
21,1,33,2.433735699999943,['n'],1,right,none,-99,-99,0.5,0,none,25,18,Woman,Right,
22,1,33,1.7668516000003365,['n'],1,right,none,-99,-99,0.5,0,none,25,18,Woman,Right,
23,1,33,1.282407300000159,['n'],0,left,none,-99,-99,0.5,0,none,25,18,Woman,Right,
0,1,34,0.8514298999998573,['c'],0,right,none,-99,-99,0.5,0,none,25,18,Woman,Right,
1,1,34,0.9004018999999062,['n'],0,left,none,-99,-99,0.5,0,none,25,18,Woman,Right,
2,1,34,0.6172434000000067,['n'],0,left,none,-99,-99,0.5,0,none,25,18,Woman,Right,
3,1,34,0.8337989999999991,['n'],0,left,none,-99,-99,0.5,0,none,25,18,Woman,Right,
4,1,34,0.44937819999995554,['n'],1,right,none,-99,-99,0.5,0,none,25,18,Woman,Right,
5,1,34,1.0160703999999896,['n'],1,right,none,-99,-99,0.5,0,none,25,18,Woman,Right,
6,1,34,0.717887299999802,['n'],1,right,none,-99,-99,0.5,0,none,25,18,Woman,Right,
7,1,34,0.6839584000003924,['n'],0,left,none,-99,-99,0.5,0,none,25,18,Woman,Right,
8,1,34,1.1335528999998132,['n'],0,left,none,-99,-99,0.5,0,none,25,18,Woman,Right,
9,1,34,0.9003993999999693,['n'],1,right,none,-99,-99,0.5,0,none,25,18,Woman,Right,
10,1,34,0.466472099999919,['n'],1,right,none,-99,-99,0.5,0,none,25,18,Woman,Right,
11,1,34,0.9493133000000853,['n'],1,right,none,-99,-99,0.5,0,none,25,18,Woman,Right,
12,1,34,0.3841319000002841,['n'],0,left,none,-99,-99,0.5,0,none,25,18,Woman,Right,
13,1,34,0.9178694000001997,['n'],0,left,none,-99,-99,0.5,0,none,25,18,Woman,Right,
14,1,34,1.2167229000001498,['n'],0,left,none,-99,-99,0.5,0,none,25,18,Woman,Right,
15,1,34,1.7007427999997162,['n'],1,right,none,-99,-99,0.5,0,none,25,18,Woman,Right,
16,1,34,2.0648479999999836,['c'],1,left,none,-99,-99,0.5,0,none,25,18,Woman,Right,
17,1,34,1.1012410000003001,['c'],0,right,none,-99,-99,0.5,0,none,25,18,Woman,Right,
18,1,34,1.466664800000217,['n'],1,right,none,-99,-99,0.5,0,none,25,18,Woman,Right,
19,1,34,3.599812800000109,['c'],1,left,none,-99,-99,0.5,0,none,25,18,Woman,Right,
20,1,34,1.6001491000001806,['n'],0,left,none,-99,-99,0.5,0,none,25,18,Woman,Right,
21,1,34,1.000459200000023,['c'],1,left,none,-99,-99,0.5,0,none,25,18,Woman,Right,
22,1,34,1.0670229999996081,['n'],1,right,none,-99,-99,0.5,0,none,25,18,Woman,Right,
23,1,34,1.1170177999997577,['n'],1,right,none,-99,-99,0.5,0,none,25,18,Woman,Right,
0,1,35,1.1002566000001934,['c'],0,right,none,-99,-99,0.5,0,none,25,18,Woman,Right,
1,1,35,1.3010165000000598,['c'],0,right,none,-99,-99,0.5,0,none,25,18,Woman,Right,
2,1,35,0.48146660000020347,['n'],0,left,none,-99,-99,0.5,0,none,25,18,Woman,Right,
3,1,35,0.9510529999997743,['c'],1,left,none,-99,-99,0.5,0,none,25,18,Woman,Right,
4,1,35,0.8010454000000209,['n'],0,left,none,-99,-99,0.5,0,none,25,18,Woman,Right,
5,1,35,1.0335786000000553,['c'],1,left,none,-99,-99,0.5,0,none,25,18,Woman,Right,
6,1,35,1.383645500000057,['n'],0,left,none,-99,-99,0.5,0,none,25,18,Woman,Right,
7,1,35,0.9996558000002551,['n'],1,right,none,-99,-99,0.5,0,none,25,18,Woman,Right,
8,1,35,1.133407900000293,['c'],0,right,none,-99,-99,0.5,0,none,25,18,Woman,Right,
9,1,35,1.183693200000107,['c'],0,right,none,-99,-99,0.5,0,none,25,18,Woman,Right,
10,1,35,1.1336458999999195,['c'],0,right,none,-99,-99,0.5,0,none,25,18,Woman,Right,
11,1,35,1.348627000000306,['n'],0,left,none,-99,-99,0.5,0,none,25,18,Woman,Right,
12,1,35,1.6334630999999717,['c'],1,left,none,-99,-99,0.5,0,none,25,18,Woman,Right,
13,1,35,1.5504406999998537,['n'],1,right,none,-99,-99,0.5,0,none,25,18,Woman,Right,
14,1,35,1.5997001999999156,['n'],1,right,none,-99,-99,0.5,0,none,25,18,Woman,Right,
15,1,35,1.533920699999726,['c'],1,left,none,-99,-99,0.5,0,none,25,18,Woman,Right,
16,1,35,1.0846113999996305,['n'],0,left,none,-99,-99,0.5,0,none,25,18,Woman,Right,
17,1,35,0.9345346000000063,['c'],1,left,none,-99,-99,0.5,0,none,25,18,Woman,Right,
18,1,35,1.4342235999997683,['n'],0,left,none,-99,-99,0.5,0,none,25,18,Woman,Right,
19,1,35,1.3655363999996553,['n'],1,right,none,-99,-99,0.5,0,none,25,18,Woman,Right,
20,1,35,1.983559299999797,['c'],0,right,none,-99,-99,0.5,0,none,25,18,Woman,Right,
21,1,35,1.20020280000017,['n'],1,right,none,-99,-99,0.5,0,none,25,18,Woman,Right,
22,1,35,0.9334886999999981,['n'],1,right,none,-99,-99,0.5,0,none,25,18,Woman,Right,
23,1,35,0.866939800000182,['n'],0,left,none,-99,-99,0.5,0,none,25,18,Woman,Right,
0,1,36,0.8842659000001731,['n'],0,left,none,-99,-99,0.5,0,none,25,18,Woman,Right,
1,1,36,1.018343300000197,['n'],1,right,none,-99,-99,0.5,0,none,25,18,Woman,Right,
2,1,36,1.0495983000000706,['n'],1,right,none,-99,-99,0.5,0,none,25,18,Woman,Right,
3,1,36,1.0842768000002252,['n'],0,left,none,-99,-99,0.5,0,none,25,18,Woman,Right,
4,1,36,0.9678936999998768,['n'],0,left,none,-99,-99,0.5,0,none,25,18,Woman,Right,
5,1,36,0.9002293999997164,['n'],0,left,none,-99,-99,0.5,0,none,25,18,Woman,Right,
6,1,36,0.6509470999999394,['n'],1,right,none,-99,-99,0.5,0,none,25,18,Woman,Right,
7,1,36,0.6156311999998252,['n'],0,left,none,-99,-99,0.5,0,none,25,18,Woman,Right,
8,1,36,0.6510839000002306,['n'],1,right,none,-99,-99,0.5,0,none,25,18,Woman,Right,
9,1,36,0.4012342000000899,['n'],1,right,none,-99,-99,0.5,0,none,25,18,Woman,Right,
10,1,36,1.0343370999999024,['n'],0,left,none,-99,-99,0.5,0,none,25,18,Woman,Right,
11,1,36,0.5332730999998603,['n'],0,left,none,-99,-99,0.5,0,none,25,18,Woman,Right,
12,1,36,0.6679208000000472,['c'],1,left,none,-99,-99,0.5,0,none,25,18,Woman,Right,
13,1,36,1.0347768999999971,['n'],1,right,none,-99,-99,0.5,0,none,25,18,Woman,Right,
14,1,36,0.9677357999999003,['n'],1,right,none,-99,-99,0.5,0,none,25,18,Woman,Right,
15,1,36,0.6007820000004358,['n'],1,right,none,-99,-99,0.5,0,none,25,18,Woman,Right,
16,1,36,0.5998180999999931,['n'],1,right,none,-99,-99,0.5,0,none,25,18,Woman,Right,
17,1,36,0.8670606000000589,['n'],1,right,none,-99,-99,0.5,0,none,25,18,Woman,Right,
18,1,36,0.251244399999905,['n'],0,left,none,-99,-99,0.5,0,none,25,18,Woman,Right,
19,1,36,0.6176507000000129,['n'],0,left,none,-99,-99,0.5,0,none,25,18,Woman,Right,
20,1,36,0.3830697000003056,['n'],0,left,none,-99,-99,0.5,0,none,25,18,Woman,Right,
21,1,36,0.5511316000001898,['c'],0,right,none,-99,-99,0.5,0,none,25,18,Woman,Right,
22,1,36,0.7841837000000851,['n'],0,left,none,-99,-99,0.5,0,none,25,18,Woman,Right,
23,1,36,0.5161302999999862,['n'],1,right,none,-99,-99,0.5,0,none,25,18,Woman,Right,
0,1,37,0.8843876999999338,['n'],0,left,none,-99,-99,0.5,0,none,25,18,Woman,Right,
1,1,37,0.5173993000003065,['n'],1,right,none,-99,-99,0.5,0,none,25,18,Woman,Right,
2,1,37,0.517931999999746,['n'],1,right,none,-99,-99,0.5,0,none,25,18,Woman,Right,
3,1,37,0.617920900000172,['n'],0,left,none,-99,-99,0.5,0,none,25,18,Woman,Right,
4,1,37,0.9981291000003694,['n'],0,left,none,-99,-99,0.5,0,none,25,18,Woman,Right,
5,1,37,0.8502161999999771,['n'],1,right,none,-99,-99,0.5,0,none,25,18,Woman,Right,
6,1,37,0.6172495000000708,['n'],0,left,none,-99,-99,0.5,0,none,25,18,Woman,Right,
7,1,37,1.1654039000000012,['n'],1,right,none,-99,-99,0.5,0,none,25,18,Woman,Right,
8,1,37,1.0839022000000114,['c'],1,left,none,-99,-99,0.5,0,none,25,18,Woman,Right,
9,1,37,1.1340626999999586,['n'],1,right,none,-99,-99,0.5,0,none,25,18,Woman,Right,
10,1,37,0.8341585000002851,['n'],0,left,none,-99,-99,0.5,0,none,25,18,Woman,Right,
11,1,37,0.6836827000001904,['n'],1,right,none,-99,-99,0.5,0,none,25,18,Woman,Right,
12,1,37,1.0177933000004487,['n'],1,right,none,-99,-99,0.5,0,none,25,18,Woman,Right,
13,1,37,1.033656499999779,['n'],0,left,none,-99,-99,0.5,0,none,25,18,Woman,Right,
14,1,37,1.0176337999996576,['c'],0,right,none,-99,-99,0.5,0,none,25,18,Woman,Right,
15,1,37,0.7676487999997335,['n'],0,left,none,-99,-99,0.5,0,none,25,18,Woman,Right,
16,1,37,1.0003120999999737,['n'],0,left,none,-99,-99,0.5,0,none,25,18,Woman,Right,
17,1,37,1.900175499999932,['c'],0,right,none,-99,-99,0.5,0,none,25,18,Woman,Right,
18,1,37,0.9166342999997141,['n'],0,left,none,-99,-99,0.5,0,none,25,18,Woman,Right,
19,1,37,0.7327135999998973,['n'],0,left,none,-99,-99,0.5,0,none,25,18,Woman,Right,
20,1,37,0.43311709999989034,['n'],1,right,none,-99,-99,0.5,0,none,25,18,Woman,Right,
21,1,37,1.2004127999998673,['c'],0,right,none,-99,-99,0.5,0,none,25,18,Woman,Right,
22,1,37,1.4010605999997097,['n'],0,left,none,-99,-99,0.5,0,none,25,18,Woman,Right,
23,1,37,1.4003391000001102,['c'],0,right,none,-99,-99,0.5,0,none,25,18,Woman,Right,
0,1,38,1.2345275000002403,['c'],0,right,none,-99,-99,0.5,0,none,25,18,Woman,Right,
1,1,38,0.75047799999993,['c'],1,left,none,-99,-99,0.5,0,none,25,18,Woman,Right,
2,1,38,0.8174192000001312,['n'],0,left,none,-99,-99,0.5,0,none,25,18,Woman,Right,
3,1,38,0.9679351999998289,['c'],0,right,none,-99,-99,0.5,0,none,25,18,Woman,Right,
4,1,38,1.1495443999997406,['c'],1,left,none,-99,-99,0.5,0,none,25,18,Woman,Right,
5,1,38,0.9003622000000178,['n'],0,left,none,-99,-99,0.5,0,none,25,18,Woman,Right,
6,1,38,0.8504152000000431,['c'],0,right,none,-99,-99,0.5,0,none,25,18,Woman,Right,
7,1,38,1.0171865000002072,['c'],1,left,none,-99,-99,0.5,0,none,25,18,Woman,Right,
8,1,38,0.8169459999999162,['n'],1,right,none,-99,-99,0.5,0,none,25,18,Woman,Right,
9,1,38,0.8838694999999461,['n'],0,left,none,-99,-99,0.5,0,none,25,18,Woman,Right,
10,1,38,0.7665284999998221,['c'],0,right,none,-99,-99,0.5,0,none,25,18,Woman,Right,
11,1,38,0.8002954000003228,['c'],0,right,none,-99,-99,0.5,0,none,25,18,Woman,Right,
12,1,38,0.6678979999996955,['n'],1,right,none,-99,-99,0.5,0,none,25,18,Woman,Right,
13,1,38,0.7162998000003427,['c'],1,left,none,-99,-99,0.5,0,none,25,18,Woman,Right,
14,1,38,0.6179904000000533,['n'],1,right,none,-99,-99,0.5,0,none,25,18,Woman,Right,
15,1,38,0.7511214000001019,['c'],0,right,none,-99,-99,0.5,0,none,25,18,Woman,Right,
16,1,38,0.9178970000002664,['n'],0,left,none,-99,-99,0.5,0,none,25,18,Woman,Right,
17,1,38,0.8510120000000825,['c'],0,right,none,-99,-99,0.5,0,none,25,18,Woman,Right,
18,1,38,1.2834459000000606,['n'],0,left,none,-99,-99,0.5,0,none,25,18,Woman,Right,
19,1,38,0.9335470999999416,['n'],0,left,none,-99,-99,0.5,0,none,25,18,Woman,Right,
20,1,38,1.016452400000162,['n'],0,left,none,-99,-99,0.5,0,none,25,18,Woman,Right,
21,1,38,1.0507834000000003,['n'],0,left,none,-99,-99,0.5,0,none,25,18,Woman,Right,
22,1,38,0.9676958999998533,['n'],1,right,none,-99,-99,0.5,0,none,25,18,Woman,Right,
23,1,38,1.1326978000001873,['n'],1,right,none,-99,-99,0.5,0,none,25,18,Woman,Right,
0,1,39,1.3345973000000413,['n'],0,left,none,-99,-99,0.5,0,none,25,18,Woman,Right,
1,1,39,0.8835006999997859,['n'],1,right,none,-99,-99,0.5,0,none,25,18,Woman,Right,
2,1,39,0.6331155999996554,['n'],1,right,none,-99,-99,0.5,0,none,25,18,Woman,Right,
3,1,39,0.849913000000015,['c'],0,right,none,-99,-99,0.5,0,none,25,18,Woman,Right,
4,1,39,0.6000524000000951,['n'],1,right,none,-99,-99,0.5,0,none,25,18,Woman,Right,
5,1,39,0.583534200000031,['c'],1,left,none,-99,-99,0.5,0,none,25,18,Woman,Right,
6,1,39,0.8998368000002301,['c'],0,right,none,-99,-99,0.5,0,none,25,18,Woman,Right,
7,1,39,0.7655206999997972,['n'],0,left,none,-99,-99,0.5,0,none,25,18,Woman,Right,
8,1,39,0.7336832000000868,['n'],0,left,none,-99,-99,0.5,0,none,25,18,Woman,Right,
9,1,39,0.6004635999997845,['n'],0,left,none,-99,-99,0.5,0,none,25,18,Woman,Right,
10,1,39,0.5832568000005267,['c'],0,right,none,-99,-99,0.5,0,none,25,18,Woman,Right,
11,1,39,1.0346832000004724,['n'],0,left,none,-99,-99,0.5,0,none,25,18,Woman,Right,
12,1,39,1.3662732000002507,['n'],0,left,none,-99,-99,0.5,0,none,25,18,Woman,Right,
13,1,39,0.7828284000006533,['n'],0,left,none,-99,-99,0.5,0,none,25,18,Woman,Right,
14,1,39,1.1011952999997447,['n'],1,right,none,-99,-99,0.5,0,none,25,18,Woman,Right,
15,1,39,0.6175553000002765,['c'],0,right,none,-99,-99,0.5,0,none,25,18,Woman,Right,
16,1,39,1.0826737000006688,['c'],0,right,none,-99,-99,0.5,0,none,25,18,Woman,Right,
17,1,39,0.7315571999997701,['n'],0,left,none,-99,-99,0.5,0,none,25,18,Woman,Right,
18,1,39,1.0990462999998272,['n'],0,left,none,-99,-99,0.5,0,none,25,18,Woman,Right,
19,1,39,0.5181171000003815,['n'],0,left,none,-99,-99,0.5,0,none,25,18,Woman,Right,
20,1,39,0.6167097999996258,['n'],1,right,none,-99,-99,0.5,0,none,25,18,Woman,Right,
21,1,39,1.1322961999994732,['n'],1,right,none,-99,-99,0.5,0,none,25,18,Woman,Right,
22,1,39,1.016207000000577,['n'],1,right,none,-99,-99,0.5,0,none,25,18,Woman,Right,
23,1,39,0.5181893999997556,['n'],0,left,none,-99,-99,0.5,0,none,25,18,Woman,Right,
0,1,40,0.9342630000001009,['c'],0,right,none,-99,-99,0.5,0,none,25,18,Woman,Right,
1,1,40,1.3673967999993693,['c'],1,left,none,-99,-99,0.5,0,none,25,18,Woman,Right,
2,1,40,1.2015505999997913,['c'],0,right,none,-99,-99,0.5,0,none,25,18,Woman,Right,
3,1,40,0.7670478999998522,['n'],1,right,none,-99,-99,0.5,0,none,25,18,Woman,Right,
4,1,40,0.5678998000003048,['n'],0,left,none,-99,-99,0.5,0,none,25,18,Woman,Right,
5,1,40,0.6171162999999069,['n'],1,right,none,-99,-99,0.5,0,none,25,18,Woman,Right,
6,1,40,0.7004401999993206,['n'],0,left,none,-99,-99,0.5,0,none,25,18,Woman,Right,
7,1,40,0.8157818999998199,['c'],0,right,none,-99,-99,0.5,0,none,25,18,Woman,Right,
8,1,40,0.7996799000002284,['c'],0,right,none,-99,-99,0.5,0,none,25,18,Woman,Right,
9,1,40,0.5839588999997432,['c'],0,right,none,-99,-99,0.5,0,none,25,18,Woman,Right,
10,1,40,0.8660807999995086,['c'],1,left,none,-99,-99,0.5,0,none,25,18,Woman,Right,
11,1,40,0.6336387999999715,['n'],1,right,none,-99,-99,0.5,0,none,25,18,Woman,Right,
12,1,40,0.5668867000003956,['n'],1,right,none,-99,-99,0.5,0,none,25,18,Woman,Right,
13,1,40,1.9168453000002046,['n'],1,right,none,-99,-99,0.5,0,none,25,18,Woman,Right,
14,1,40,0.6668904999996812,['n'],0,left,none,-99,-99,0.5,0,none,25,18,Woman,Right,
15,1,40,0.4514393999997992,['c'],1,left,none,-99,-99,0.5,0,none,25,18,Woman,Right,
16,1,40,0.3342832999996972,['c'],0,right,none,-99,-99,0.5,0,none,25,18,Woman,Right,
17,1,40,0.3003105999996478,['n'],0,left,none,-99,-99,0.5,0,none,25,18,Woman,Right,
18,1,40,0.40011219999996683,['n'],0,left,none,-99,-99,0.5,0,none,25,18,Woman,Right,
19,1,40,0.584847300000547,['c'],1,left,none,-99,-99,0.5,0,none,25,18,Woman,Right,
20,1,40,0.3338778999996066,['n'],1,right,none,-99,-99,0.5,0,none,25,18,Woman,Right,
21,1,40,0.7502713000003496,['c'],1,left,none,-99,-99,0.5,0,none,25,18,Woman,Right,
22,1,40,0.3513683999999557,['n'],0,left,none,-99,-99,0.5,0,none,25,18,Woman,Right,
23,1,40,0.5346042000001034,['c'],1,left,none,-99,-99,0.5,0,none,25,18,Woman,Right,
0,1,41,0.4993743999993967,['c'],0,right,none,-99,-99,0.5,0,none,25,18,Woman,Right,
1,1,41,0.3677207000000635,['c'],1,left,none,-99,-99,0.5,0,none,25,18,Woman,Right,
2,1,41,0.35045720000016445,['c'],0,right,none,-99,-99,0.5,0,none,25,18,Woman,Right,
3,1,41,0.3175178000001324,['n'],0,left,none,-99,-99,0.5,0,none,25,18,Woman,Right,
4,1,41,0.28445949999968434,['n'],0,left,none,-99,-99,0.5,0,none,25,18,Woman,Right,
5,1,41,0.11729590000049939,['n'],1,right,none,-99,-99,0.5,0,none,25,18,Woman,Right,
6,1,41,0.15031400000043504,['c'],0,right,none,-99,-99,0.5,0,none,25,18,Woman,Right,
7,1,41,0.36764579999999114,['c'],0,right,none,-99,-99,0.5,0,none,25,18,Woman,Right,
8,1,41,0.3333567999998195,['c'],0,right,none,-99,-99,0.5,0,none,25,18,Woman,Right,
9,1,41,0.18370349999986502,['n'],1,right,none,-99,-99,0.5,0,none,25,18,Woman,Right,
10,1,41,0.3171640999998999,['n'],0,left,none,-99,-99,0.5,0,none,25,18,Woman,Right,
11,1,41,1.0476328999993711,['n'],0,left,none,-99,-99,0.5,0,none,25,18,Woman,Right,
12,1,41,0.38429789999918285,['c'],1,left,none,-99,-99,0.5,0,none,25,18,Woman,Right,
13,1,41,0.3683019999998578,['c'],0,right,none,-99,-99,0.5,0,none,25,18,Woman,Right,
14,1,41,0.40027680000002874,['c'],1,left,none,-99,-99,0.5,0,none,25,18,Woman,Right,
15,1,41,0.4176134999997885,['c'],0,right,none,-99,-99,0.5,0,none,25,18,Woman,Right,
16,1,41,0.41696849999971164,['n'],0,left,none,-99,-99,0.5,0,none,25,18,Woman,Right,
17,1,41,0.43384120000064286,['n'],1,right,none,-99,-99,0.5,0,none,25,18,Woman,Right,
18,1,41,0.33339729999988776,['n'],0,left,none,-99,-99,0.5,0,none,25,18,Woman,Right,
19,1,41,0.2667938000004142,['c'],1,left,none,-99,-99,0.5,0,none,25,18,Woman,Right,
20,1,41,0.36707010000009177,['c'],0,right,none,-99,-99,0.5,0,none,25,18,Woman,Right,
21,1,41,0.3671271000002889,['n'],1,right,none,-99,-99,0.5,0,none,25,18,Woman,Right,
22,1,41,0.349648000000343,['n'],0,left,none,-99,-99,0.5,0,none,25,18,Woman,Right,
23,1,41,0.30152240000006714,['c'],1,left,none,-99,-99,0.5,0,none,25,18,Woman,Right,
0,1,42,0.7177544000005582,['c'],0,right,none,-99,-99,0.5,0,none,25,18,Woman,Right,
1,1,42,0.6011257000000114,['c'],1,left,none,-99,-99,0.5,0,none,25,18,Woman,Right,
2,1,42,0.5832776999995986,['c'],0,right,none,-99,-99,0.5,0,none,25,18,Woman,Right,
3,1,42,0.30133529999966413,['n'],1,right,none,-99,-99,0.5,0,none,25,18,Woman,Right,
4,1,42,0.3002697000001717,['n'],1,right,none,-99,-99,0.5,0,none,25,18,Woman,Right,
5,1,42,0.4335507999994661,['n'],0,left,none,-99,-99,0.5,0,none,25,18,Woman,Right,
6,1,42,0.80000629999995,['c'],0,right,none,-99,-99,0.5,0,none,25,18,Woman,Right,
7,1,42,0.4672370999996929,['c'],0,right,none,-99,-99,0.5,0,none,25,18,Woman,Right,
8,1,42,0.6008512000007613,['c'],1,left,none,-99,-99,0.5,0,none,25,18,Woman,Right,
9,1,42,0.6839215999998487,['c'],0,right,none,-99,-99,0.5,0,none,25,18,Woman,Right,
10,1,42,0.5836645999997927,['n'],0,left,none,-99,-99,0.5,0,none,25,18,Woman,Right,
11,1,42,0.549275200000011,['n'],0,left,none,-99,-99,0.5,0,none,25,18,Woman,Right,
12,1,42,0.8003357999996297,['n'],0,left,none,-99,-99,0.5,0,none,25,18,Woman,Right,
13,1,42,0.38443890000053216,['n'],1,right,none,-99,-99,0.5,0,none,25,18,Woman,Right,
14,1,42,0.6675384000000122,['n'],1,right,none,-99,-99,0.5,0,none,25,18,Woman,Right,
15,1,42,0.5340511000003971,['n'],1,right,none,-99,-99,0.5,0,none,25,18,Woman,Right,
16,1,42,0.5847319999993488,['n'],0,left,none,-99,-99,0.5,0,none,25,18,Woman,Right,
17,1,42,0.733614600000692,['c'],0,right,none,-99,-99,0.5,0,none,25,18,Woman,Right,
18,1,42,0.4669173000002047,['n'],0,left,none,-99,-99,0.5,0,none,25,18,Woman,Right,
19,1,42,0.41656940000029863,['n'],0,left,none,-99,-99,0.5,0,none,25,18,Woman,Right,
20,1,42,0.4499749000005977,['n'],0,left,none,-99,-99,0.5,0,none,25,18,Woman,Right,
