withinblocktrial,block,block_repetition,rt,resp,cor,cresp,conf_press,cj,rtconf,coherence,slow_trial,manipulation,sub,age,gender,handedness,
0,1,1,1.6179627999999866,['c'],1,left,none,-99,-99,0.5,0,none,23,18,Woman,Right,
1,1,1,2.200599999999895,['n'],1,right,none,-99,-99,0.5,0,none,23,18,Woman,Right,
2,1,1,1.5983023000000003,['c'],1,left,none,-99,-99,0.5,0,none,23,18,Woman,Right,
3,1,1,1.3321674999999686,['c'],1,left,none,-99,-99,0.5,0,none,23,18,Woman,Right,
4,1,1,1.7146430000000237,['c'],1,left,none,-99,-99,0.5,0,none,23,18,Woman,Right,
5,1,1,1.965837400000055,['n'],1,right,none,-99,-99,0.5,0,none,23,18,Woman,Right,
6,1,1,1.050881000000004,['c'],1,left,none,-99,-99,0.5,0,none,23,18,Woman,Right,
7,1,1,1.0176656999999523,['c'],1,left,none,-99,-99,0.5,0,none,23,18,Woman,Right,
8,1,1,1.2841767999999547,['n'],1,right,none,-99,-99,0.5,0,none,23,18,Woman,Right,
9,1,1,0.9830848000000287,['n'],0,left,none,-99,-99,0.5,0,none,23,18,Woman,Right,
10,1,1,1.4676949999999351,['n'],1,right,none,-99,-99,0.5,0,none,23,18,Woman,Right,
11,1,1,1.2165785999999343,['c'],0,right,none,-99,-99,0.5,0,none,23,18,Woman,Right,
12,1,1,1.0839392000000316,['c'],1,left,none,-99,-99,0.5,0,none,23,18,Woman,Right,
13,1,1,3.215648999999985,['c'],1,left,none,-99,-99,0.5,0,none,23,18,Woman,Right,
14,1,1,2.0342521000000033,['n'],1,right,none,-99,-99,0.5,0,none,23,18,Woman,Right,
15,1,1,0.7820505999998204,['c'],1,left,none,-99,-99,0.5,0,none,23,18,Woman,Right,
16,1,1,1.7336129000000255,['n'],1,right,none,-99,-99,0.5,0,none,23,18,Woman,Right,
17,1,1,2.117885200000046,['n'],1,right,none,-99,-99,0.5,0,none,23,18,Woman,Right,
18,1,1,1.300493200000119,['c'],0,right,none,-99,-99,0.5,0,none,23,18,Woman,Right,
19,1,1,2.400834600000053,['c'],0,right,none,-99,-99,0.5,0,none,23,18,Woman,Right,
20,1,1,1.7489189000000351,['n'],1,right,none,-99,-99,0.5,0,none,23,18,Woman,Right,
21,1,1,0.883889500000123,['c'],1,left,none,-99,-99,0.5,0,none,23,18,Woman,Right,
22,1,1,1.3670322999998916,['n'],1,right,none,-99,-99,0.5,0,none,23,18,Woman,Right,
23,1,1,0.8171389000001454,['c'],1,left,none,-99,-99,0.5,0,none,23,18,Woman,Right,
0,1,2,2.4169105999999374,['c'],1,left,none,-99,-99,0.5,0,none,23,18,Woman,Right,
1,1,2,1.1668258999998216,['n'],1,right,none,-99,-99,0.5,0,none,23,18,Woman,Right,
2,1,2,0.6495291999999608,['c'],0,right,none,-99,-99,0.5,0,none,23,18,Woman,Right,
3,1,2,0.8000145999999404,['c'],0,right,none,-99,-99,0.5,0,none,23,18,Woman,Right,
4,1,2,1.1485064000000875,['c'],0,right,none,-99,-99,0.5,0,none,23,18,Woman,Right,
5,1,2,0.7155975000000581,['c'],1,left,none,-99,-99,0.5,0,none,23,18,Woman,Right,
6,1,2,0.7319568999998864,['c'],1,left,none,-99,-99,0.5,0,none,23,18,Woman,Right,
7,1,2,2.7821646999998393,['c'],1,left,none,-99,-99,0.5,0,none,23,18,Woman,Right,
8,1,2,0.8004524999998921,['c'],1,left,none,-99,-99,0.5,0,none,23,18,Woman,Right,
9,1,2,1.6337831000000733,['n'],1,right,none,-99,-99,0.5,0,none,23,18,Woman,Right,
10,1,2,0.7670818999999938,['n'],1,right,none,-99,-99,0.5,0,none,23,18,Woman,Right,
11,1,2,0.9832521000000725,['n'],1,right,none,-99,-99,0.5,0,none,23,18,Woman,Right,
12,1,2,0.8154513999998017,['c'],1,left,none,-99,-99,0.5,0,none,23,18,Woman,Right,
13,1,2,1.1358930999999757,['n'],1,right,none,-99,-99,0.5,0,none,23,18,Woman,Right,
14,1,2,0.8346312999999554,['c'],1,left,none,-99,-99,0.5,0,none,23,18,Woman,Right,
15,1,2,0.9005070000000615,['n'],1,right,none,-99,-99,0.5,0,none,23,18,Woman,Right,
16,1,2,0.7351118999999926,['n'],1,right,none,-99,-99,0.5,0,none,23,18,Woman,Right,
17,1,2,0.7183118999998896,['c'],1,left,none,-99,-99,0.5,0,none,23,18,Woman,Right,
18,1,2,1.983862199999976,['c'],1,left,none,-99,-99,0.5,0,none,23,18,Woman,Right,
19,1,2,2.9010798000001614,['c'],1,left,none,-99,-99,0.5,0,none,23,18,Woman,Right,
20,1,2,2.200867700000117,['n'],1,right,none,-99,-99,0.5,0,none,23,18,Woman,Right,
21,1,2,1.66631110000003,['c'],1,left,none,-99,-99,0.5,0,none,23,18,Woman,Right,
22,1,2,1.7666870000000472,['n'],1,right,none,-99,-99,0.5,0,none,23,18,Woman,Right,
23,1,2,1.6344223999999485,['c'],1,left,none,-99,-99,0.5,0,none,23,18,Woman,Right,
0,2,1,1.8003523999998379,['c'],1,left,none,-99,-99,0.2,0,none,23,18,Woman,Right,
1,2,1,1.5189685000000281,['c'],1,left,none,-99,-99,0.2,0,none,23,18,Woman,Right,
2,2,1,2.032894499999884,['n'],1,right,none,-99,-99,0.2,0,none,23,18,Woman,Right,
3,2,1,1.5669899000001806,['n'],1,right,none,-99,-99,0.4,0,none,23,18,Woman,Right,
4,2,1,0.867922500000077,['c'],1,left,none,-99,-99,0.4,0,none,23,18,Woman,Right,
5,2,1,1.151363000000174,['n'],0,left,none,-99,-99,0.1,0,none,23,18,Woman,Right,
6,2,1,1.0985469999998259,['n'],1,right,none,-99,-99,0.1,0,none,23,18,Woman,Right,
7,2,1,1.0832774000000427,['c'],1,left,none,-99,-99,0.4,0,none,23,18,Woman,Right,
8,2,1,1.2995597000001453,['c'],1,left,none,-99,-99,0.4,0,none,23,18,Woman,Right,
9,2,1,1.2834780999999111,['n'],1,right,none,-99,-99,0.2,0,none,23,18,Woman,Right,
10,2,1,1.3835154999999304,['n'],1,right,none,-99,-99,0.2,0,none,23,18,Woman,Right,
11,2,1,1.0167618999998922,['n'],1,right,none,-99,-99,0.4,0,none,23,18,Woman,Right,
12,2,1,0.6163817000001472,['n'],0,left,none,-99,-99,0.1,0,none,23,18,Woman,Right,
13,2,1,0.749886800000013,['n'],1,right,none,-99,-99,0.4,0,none,23,18,Woman,Right,
14,2,1,0.9515143999999509,['n'],1,right,none,-99,-99,0.4,0,none,23,18,Woman,Right,
15,2,1,0.7500342999999248,['n'],1,right,none,-99,-99,0.1,0,none,23,18,Woman,Right,
16,2,1,0.7172891000000163,['c'],1,left,none,-99,-99,0.4,0,none,23,18,Woman,Right,
17,2,1,1.0162734000000455,['n'],1,right,none,-99,-99,0.1,0,none,23,18,Woman,Right,
18,2,1,0.7659389000000374,['n'],1,right,none,-99,-99,0.1,0,none,23,18,Woman,Right,
19,2,1,1.0505375000000186,['n'],0,left,none,-99,-99,0.2,0,none,23,18,Woman,Right,
20,2,1,1.5341951999998855,['n'],0,left,none,-99,-99,0.2,0,none,23,18,Woman,Right,
21,2,1,1.4176916000001256,['n'],1,right,none,-99,-99,0.1,0,none,23,18,Woman,Right,
22,2,1,3.066619899999978,['c'],1,left,none,-99,-99,0.1,0,none,23,18,Woman,Right,
23,2,1,2.8843826999998328,['n'],0,left,none,-99,-99,0.2,0,none,23,18,Woman,Right,
0,3,1,2.318395799999962,['n'],0,left,['9'],5,1.5836119999999028,0.2,0,none,23,18,Woman,Right,
1,3,1,2.4501976999999897,['n'],0,left,['8'],4,0.8347868000000744,0.2,0,none,23,18,Woman,Right,
2,3,1,3.616914500000121,['n'],1,right,['8'],4,1.2839910000000145,0.1,0,none,23,18,Woman,Right,
3,3,1,2.3172452999999678,['c'],1,left,['8'],4,0.7679955000000973,0.4,0,none,23,18,Woman,Right,
4,3,1,2.0176883000001453,['c'],1,left,['9'],5,0.8185124999999971,0.2,0,none,23,18,Woman,Right,
5,3,1,3.7648604000000887,['n'],0,left,['9'],5,0.850864399999864,0.4,0,none,23,18,Woman,Right,
6,3,1,5.016429499999958,x,-99,left,none,-99,-99,0.1,1,none,23,18,Woman,Right,
7,3,1,1.4999711000000389,['n'],1,right,['8'],4,1.2170972999999776,0.4,0,none,23,18,Woman,Right,
8,3,1,2.866481300000032,['c'],1,left,['3'],3,0.5501756999999543,0.1,0,none,23,18,Woman,Right,
9,3,1,1.5494699000000764,['n'],1,right,['8'],4,1.185019099999863,0.2,0,none,23,18,Woman,Right,
10,3,1,1.8826131999999234,['n'],0,left,['8'],4,0.5679466999999931,0.2,0,none,23,18,Woman,Right,
11,3,1,3.1853214000000207,['c'],0,right,['0'],6,1.5179367999999158,0.1,0,none,23,18,Woman,Right,
12,3,1,2.899055899999894,['n'],0,left,['9'],5,1.2180263999998715,0.4,0,none,23,18,Woman,Right,
13,3,1,1.2500781999999617,['n'],1,right,['9'],5,0.9017069999999876,0.2,0,none,23,18,Woman,Right,
14,3,1,1.633059000000003,['n'],0,left,['0'],6,0.5847384999999576,0.4,0,none,23,18,Woman,Right,
15,3,1,3.8648749999999836,['c'],0,right,['8'],4,1.1194871000000148,0.2,0,none,23,18,Woman,Right,
16,3,1,2.2320452000001296,['n'],0,left,['9'],5,1.2187753000000612,0.1,0,none,23,18,Woman,Right,
17,3,1,2.000397000000021,['c'],0,right,['0'],6,2.0509779999999864,0.4,0,none,23,18,Woman,Right,
18,3,1,2.217545699999846,['c'],0,right,['9'],5,1.0333698000001732,0.1,0,none,23,18,Woman,Right,
19,3,1,3.1664301999999225,['n'],1,right,['9'],5,0.5842867999999726,0.1,0,none,23,18,Woman,Right,
20,3,1,2.350375299999996,['c'],0,right,['8'],4,0.8500673999999435,0.4,0,none,23,18,Woman,Right,
21,3,1,1.9853951999998571,['c'],0,right,['8'],4,0.41779750000000604,0.2,0,none,23,18,Woman,Right,
22,3,1,1.3001222999998845,['c'],0,right,['8'],4,0.31796570000005886,0.1,0,none,23,18,Woman,Right,
23,3,1,2.234677099999999,['n'],0,left,['9'],5,0.7673921999999038,0.4,0,none,23,18,Woman,Right,
0,4,1,2.1010252000000946,['c'],1,left,['8'],4,4.199677699999938,0.2,0,AccAcc,23,18,Woman,Right,
1,4,1,2.4334971999999198,['n'],0,left,['0'],6,2.4158426000001327,0.1,0,AccAcc,23,18,Woman,Right,
2,4,1,2.8505881999999474,['c'],1,left,['8'],4,1.7184825000001638,0.4,0,AccAcc,23,18,Woman,Right,
3,4,1,2.0502599000001283,['n'],1,right,['0'],6,3.050653499999953,0.4,0,AccAcc,23,18,Woman,Right,
4,4,1,2.7325625000000855,['c'],1,left,['9'],5,2.8678471999999147,0.2,0,AccAcc,23,18,Woman,Right,
5,4,1,1.7834969999998975,['n'],1,right,['9'],5,2.7846082000000933,0.4,0,AccAcc,23,18,Woman,Right,
6,4,1,2.0344698999999764,['c'],1,left,['9'],5,0.7343011999998907,0.1,0,AccAcc,23,18,Woman,Right,
7,4,1,2.6315172000001894,['c'],0,right,['8'],4,1.9687284999999974,0.2,0,AccAcc,23,18,Woman,Right,
8,4,1,2.1661249999999654,['n'],1,right,['8'],4,1.8841813999999886,0.4,0,AccAcc,23,18,Woman,Right,
9,4,1,1.86845459999995,['n'],0,left,['2'],2,2.7332613000000947,0.1,0,AccAcc,23,18,Woman,Right,
10,4,1,3.166406699999925,['c'],1,left,['9'],5,0.900059199999987,0.2,0,AccAcc,23,18,Woman,Right,
11,4,1,2.0514303999998447,['n'],0,left,['8'],4,2.4174655999997867,0.2,0,AccAcc,23,18,Woman,Right,
12,4,1,2.3003520999998273,['c'],0,right,['9'],5,1.3844192999999905,0.1,0,AccAcc,23,18,Woman,Right,
13,4,1,2.3159769999999753,['c'],1,left,['8'],4,2.267264899999873,0.2,0,AccAcc,23,18,Woman,Right,
14,4,1,2.484543300000041,['c'],1,left,['8'],4,1.934903200000008,0.4,0,AccAcc,23,18,Woman,Right,
15,4,1,5.015767800000049,x,-99,left,none,-99,-99,0.2,1,AccAcc,23,18,Woman,Right,
16,4,1,1.602454200000011,['c'],1,left,['9'],5,0.751354499999934,0.4,0,AccAcc,23,18,Woman,Right,
17,4,1,1.3171790999999757,['n'],1,right,['8'],4,1.5669282999999723,0.2,0,AccAcc,23,18,Woman,Right,
18,4,1,1.8663874000001215,['n'],1,right,['8'],4,1.4025225000000319,0.2,0,AccAcc,23,18,Woman,Right,
19,4,1,3.050200600000153,['n'],1,right,['9'],5,2.251479300000028,0.2,0,AccAcc,23,18,Woman,Right,
20,4,1,1.9672268000001623,['c'],1,left,['8'],4,2.584271399999807,0.1,0,AccAcc,23,18,Woman,Right,
21,4,1,3.2170172999999522,['c'],0,right,['8'],4,1.6337075000001278,0.2,0,AccAcc,23,18,Woman,Right,
22,4,1,3.4327370999999403,['n'],1,right,['9'],5,1.2847341000001506,0.4,0,AccAcc,23,18,Woman,Right,
23,4,1,4.498883699999851,['c'],1,left,['8'],4,1.234896999999819,0.4,0,AccAcc,23,18,Woman,Right,
24,4,1,2.700869100000091,['c'],0,right,['8'],4,2.284183700000085,0.1,0,AccAcc,23,18,Woman,Right,
25,4,1,1.333281199999874,['c'],1,left,['0'],6,1.1669933999999103,0.4,0,AccAcc,23,18,Woman,Right,
26,4,1,1.351046100000076,['c'],0,right,['9'],5,0.4851916000000074,0.1,0,AccAcc,23,18,Woman,Right,
27,4,1,2.6162904000000253,['c'],0,right,['8'],4,1.1847379999999248,0.2,0,AccAcc,23,18,Woman,Right,
28,4,1,2.0840590999998767,['n'],1,right,['9'],5,1.0512254999998731,0.4,0,AccAcc,23,18,Woman,Right,
29,4,1,2.167598400000088,['n'],0,left,['8'],4,1.368386800000053,0.2,0,AccAcc,23,18,Woman,Right,
30,4,1,1.6331064999999398,['c'],1,left,['8'],4,2.2494100999999773,0.2,0,AccAcc,23,18,Woman,Right,
31,4,1,1.2178329999999278,['c'],0,right,['0'],6,0.6679980999999771,0.1,0,AccAcc,23,18,Woman,Right,
32,4,1,1.484226900000067,['n'],1,right,['9'],5,1.1004163000000062,0.4,0,AccAcc,23,18,Woman,Right,
33,4,1,1.5830470000000787,['n'],1,right,['0'],6,1.1684458000001996,0.4,0,AccAcc,23,18,Woman,Right,
34,4,1,1.383723400000008,['c'],1,left,['0'],6,0.918123899999955,0.4,0,AccAcc,23,18,Woman,Right,
35,4,1,1.5503490000000966,['n'],1,right,['0'],6,1.301206000000093,0.1,0,AccAcc,23,18,Woman,Right,
36,4,1,1.1517302000002019,['c'],1,left,['0'],6,1.4012643999999455,0.4,0,AccAcc,23,18,Woman,Right,
37,4,1,2.766769700000168,['c'],1,left,['9'],5,0.900556700000152,0.2,0,AccAcc,23,18,Woman,Right,
38,4,1,2.265136400000074,['c'],1,left,['9'],5,0.7839007000000038,0.4,0,AccAcc,23,18,Woman,Right,
39,4,1,1.6344175999997788,['c'],1,left,['8'],4,0.9180171000000428,0.4,0,AccAcc,23,18,Woman,Right,
40,4,1,2.634989599999926,['n'],1,right,['9'],5,0.851310999999896,0.1,0,AccAcc,23,18,Woman,Right,
41,4,1,2.366105800000014,['n'],0,left,['9'],5,0.6173320000000331,0.1,0,AccAcc,23,18,Woman,Right,
42,4,1,2.748287800000071,['n'],0,left,['8'],4,0.7527099000001272,0.2,0,AccAcc,23,18,Woman,Right,
43,4,1,1.3012903999999708,['n'],1,right,['3'],3,0.6515850000000682,0.2,0,AccAcc,23,18,Woman,Right,
44,4,1,1.6669034999999894,['n'],1,right,['8'],4,0.6679343999999219,0.1,0,AccAcc,23,18,Woman,Right,
45,4,1,1.900584199999912,['n'],1,right,['9'],5,0.9163505000001351,0.1,0,AccAcc,23,18,Woman,Right,
46,4,1,1.3999105000000327,['c'],0,right,['9'],5,2.9181105000000116,0.1,0,AccAcc,23,18,Woman,Right,
47,4,1,2.4002080000000205,['n'],1,right,['0'],6,0.8180145999999695,0.1,0,AccAcc,23,18,Woman,Right,
48,4,1,1.949030700000094,['n'],1,right,['0'],6,0.602166699999998,0.4,0,AccAcc,23,18,Woman,Right,
49,4,1,1.7003707999999733,['n'],0,left,['9'],5,0.4848282000000381,0.1,0,AccAcc,23,18,Woman,Right,
50,4,1,2.6160420999999587,['n'],1,right,['0'],6,1.1348938999999518,0.2,0,AccAcc,23,18,Woman,Right,
51,4,1,3.349253899999894,['c'],1,left,['2'],2,1.4498695000002044,0.1,0,AccAcc,23,18,Woman,Right,
52,4,1,1.2329455999999936,['n'],1,right,['0'],6,0.41883260000008704,0.4,0,AccAcc,23,18,Woman,Right,
53,4,1,1.6330754999999044,['n'],1,right,['0'],6,0.4008929999999964,0.2,0,AccAcc,23,18,Woman,Right,
54,4,1,1.765889100000095,['n'],1,right,['0'],6,0.6189064000000144,0.4,0,AccAcc,23,18,Woman,Right,
55,4,1,3.5001291000000947,['c'],1,left,['8'],4,1.86778819999995,0.1,0,AccAcc,23,18,Woman,Right,
56,4,1,1.5165437999999085,['c'],1,left,['3'],3,0.4334177999999156,0.1,0,AccAcc,23,18,Woman,Right,
57,4,1,1.3178826000000754,['c'],1,left,['8'],4,1.449555299999929,0.4,0,AccAcc,23,18,Woman,Right,
58,4,1,3.0341644000000088,['c'],1,left,['8'],4,0.8671346000000995,0.2,0,AccAcc,23,18,Woman,Right,
59,4,1,3.5327766999998858,['c'],0,right,['8'],4,1.0164386999999806,0.1,0,AccAcc,23,18,Woman,Right,
0,5,1,0.616922299999942,['n'],1,right,['3'],3,1.7173660000000837,0.2,0,FastAcc,23,18,Woman,Right,
1,5,1,0.6827840000000833,['c'],1,left,['0'],6,1.0684905000000526,0.4,0,FastAcc,23,18,Woman,Right,
2,5,1,0.9670447999999396,['n'],1,right,['9'],5,2.9998099999997976,0.4,0,FastAcc,23,18,Woman,Right,
3,5,1,0.700894400000152,['n'],1,right,['8'],4,1.650261799999953,0.4,0,FastAcc,23,18,Woman,Right,
4,5,1,0.5155824000000848,['c'],1,left,['0'],6,1.385427300000174,0.4,0,FastAcc,23,18,Woman,Right,
5,5,1,0.7172312999998667,['n'],1,right,['0'],6,0.9173756999998659,0.2,0,FastAcc,23,18,Woman,Right,
6,5,1,0.7175827000000936,['n'],1,right,['8'],4,1.469101199999841,0.1,0,FastAcc,23,18,Woman,Right,
7,5,1,0.26885919999995167,['c'],1,left,['2'],2,1.7018037999998796,0.4,0,FastAcc,23,18,Woman,Right,
8,5,1,0.3497405999999046,['n'],0,left,['3'],3,3.001148300000068,0.2,0,FastAcc,23,18,Woman,Right,
9,5,1,0.4656061000000591,['c'],0,right,['1'],1,2.2011349999997947,0.2,0,FastAcc,23,18,Woman,Right,
10,5,1,0.4988035999999738,['c'],1,left,['2'],2,1.5505460000001676,0.2,0,FastAcc,23,18,Woman,Right,
11,5,1,0.6500971000000391,['c'],0,right,['1'],1,1.2843199999999797,0.4,0,FastAcc,23,18,Woman,Right,
12,5,1,0.6832828999999947,['n'],1,right,['9'],5,1.3020722999999634,0.2,0,FastAcc,23,18,Woman,Right,
13,5,1,0.60063080000009,['c'],1,left,['9'],5,2.1166158999999425,0.4,0,FastAcc,23,18,Woman,Right,
14,5,1,0.5831993999997849,['c'],1,left,['8'],4,1.4852981999999884,0.1,0,FastAcc,23,18,Woman,Right,
15,5,1,0.883690599999909,['c'],0,right,['3'],3,1.6180122000000665,0.1,0,FastAcc,23,18,Woman,Right,
16,5,1,1.3338143000000855,['c'],0,right,['2'],2,1.234066700000085,0.1,0,FastAcc,23,18,Woman,Right,
17,5,1,0.6511129999998957,['c'],1,left,['8'],4,1.9339471999999205,0.2,0,FastAcc,23,18,Woman,Right,
18,5,1,0.38419829999998,['c'],1,left,['8'],4,2.267680100000007,0.2,0,FastAcc,23,18,Woman,Right,
19,5,1,1.01595640000005,['n'],0,left,['3'],3,1.6847795000001042,0.2,0,FastAcc,23,18,Woman,Right,
20,5,1,0.5822875999999724,['c'],1,left,['9'],5,1.1508629999998448,0.2,0,FastAcc,23,18,Woman,Right,
21,5,1,0.6669789000000037,['c'],0,right,['9'],5,1.050164800000175,0.1,0,FastAcc,23,18,Woman,Right,
22,5,1,0.5661221000000296,['c'],0,right,['8'],4,1.1667201000000205,0.4,0,FastAcc,23,18,Woman,Right,
23,5,1,0.6689309000000776,['c'],1,left,['8'],4,0.7680124000000887,0.2,0,FastAcc,23,18,Woman,Right,
24,5,1,0.6327522000001409,['c'],1,left,['8'],4,1.7855391999999028,0.2,0,FastAcc,23,18,Woman,Right,
25,5,1,0.6676425999999083,['n'],0,left,['2'],2,1.1668134999999893,0.4,0,FastAcc,23,18,Woman,Right,
26,5,1,0.5666065999998864,['c'],0,right,['8'],4,0.8520453999999518,0.4,0,FastAcc,23,18,Woman,Right,
27,5,1,0.8657552999998188,['n'],0,left,['8'],4,0.652125500000011,0.1,0,FastAcc,23,18,Woman,Right,
28,5,1,0.7347823999998582,['c'],0,right,['3'],3,2.584474900000032,0.2,0,FastAcc,23,18,Woman,Right,
29,5,1,0.38401629999998477,['c'],0,right,['8'],4,1.4012829000000693,0.4,0,FastAcc,23,18,Woman,Right,
30,5,1,0.3836856999998872,['c'],0,right,['3'],3,1.3680166000001464,0.4,0,FastAcc,23,18,Woman,Right,
31,5,1,0.33267819999991843,['c'],0,right,['1'],1,2.5181215000000066,0.1,0,FastAcc,23,18,Woman,Right,
32,5,1,0.800065399999994,['c'],0,right,['2'],2,1.9177145999999539,0.1,0,FastAcc,23,18,Woman,Right,
33,5,1,0.7011049000000185,['n'],1,right,['0'],6,1.2011923000000024,0.2,0,FastAcc,23,18,Woman,Right,
34,5,1,1.1503823999998986,['c'],1,left,['0'],6,1.1014531999999235,0.1,0,FastAcc,23,18,Woman,Right,
35,5,1,1.065033099999937,['n'],0,left,['2'],2,1.7348950999999033,0.1,0,FastAcc,23,18,Woman,Right,
36,5,1,0.5849490000000515,['c'],1,left,['8'],4,1.5011546999999155,0.2,0,FastAcc,23,18,Woman,Right,
37,5,1,0.6322109000000182,['c'],1,left,['0'],6,1.733726899999965,0.2,0,FastAcc,23,18,Woman,Right,
38,5,1,0.6497407000001658,['c'],1,left,['0'],6,1.468828700000131,0.4,0,FastAcc,23,18,Woman,Right,
39,5,1,0.9345734999999422,['c'],1,left,['9'],5,1.0842591999999058,0.1,0,FastAcc,23,18,Woman,Right,
40,5,1,0.5847707000000355,['c'],1,left,['8'],4,2.0180063999998765,0.1,0,FastAcc,23,18,Woman,Right,
41,5,1,0.8333364000000074,['c'],0,right,['3'],3,2.1849282000000585,0.4,0,FastAcc,23,18,Woman,Right,
42,5,1,0.7996884000001501,['n'],0,left,['8'],4,1.7849542000001293,0.2,0,FastAcc,23,18,Woman,Right,
43,5,1,0.717922499999986,['c'],1,left,['8'],4,1.368571200000133,0.1,0,FastAcc,23,18,Woman,Right,
44,5,1,1.017039000000068,['n'],1,right,['8'],4,0.9511924000000818,0.4,0,FastAcc,23,18,Woman,Right,
45,5,1,0.6669183999999859,['c'],0,right,['8'],4,1.3503155999999308,0.4,0,FastAcc,23,18,Woman,Right,
46,5,1,0.3666998999999578,['c'],1,left,['9'],5,1.185412000000042,0.2,0,FastAcc,23,18,Woman,Right,
47,5,1,0.34918470000002344,['c'],0,right,['2'],2,1.934960399999909,0.1,0,FastAcc,23,18,Woman,Right,
48,5,1,1.3178957000000082,['c'],0,right,['0'],6,1.0679646000000957,0.1,0,FastAcc,23,18,Woman,Right,
49,5,1,0.44920490000004065,['c'],1,left,['0'],6,0.8507089999998243,0.2,0,FastAcc,23,18,Woman,Right,
50,5,1,0.5999937999999929,['c'],1,left,['9'],5,0.9010867999998027,0.4,0,FastAcc,23,18,Woman,Right,
51,5,1,1.4168889000000036,['n'],1,right,['8'],4,1.0686930000001666,0.4,0,FastAcc,23,18,Woman,Right,
52,5,1,0.7837604999999712,['n'],0,left,['2'],2,1.5344765999998344,0.1,0,FastAcc,23,18,Woman,Right,
53,5,1,1.615782599999875,['n'],1,right,['9'],5,1.0005851000000803,0.1,0,FastAcc,23,18,Woman,Right,
54,5,1,1.2984334000000217,['n'],1,right,['8'],4,3.269107300000087,0.4,0,FastAcc,23,18,Woman,Right,
55,5,1,0.8842392999999902,['c'],1,left,['9'],5,1.0666974999999184,0.2,0,FastAcc,23,18,Woman,Right,
56,5,1,1.1191943999999694,['n'],1,right,['8'],4,0.934651600000052,0.1,0,FastAcc,23,18,Woman,Right,
57,5,1,1.048884199999975,['n'],1,right,['0'],6,0.6688050999998723,0.4,0,FastAcc,23,18,Woman,Right,
58,5,1,0.9671347000000878,['n'],0,left,['9'],5,0.8181775000000471,0.1,0,FastAcc,23,18,Woman,Right,
59,5,1,0.9005515000001196,['n'],1,right,['8'],4,1.4181923999999526,0.1,0,FastAcc,23,18,Woman,Right,
0,6,1,1.367678099999921,['n'],1,right,['8'],4,0.8011031000000912,0.2,0,FastFast,23,18,Woman,Right,
1,6,1,0.3339072999999644,['c'],0,right,['3'],3,0.33316739999986567,0.2,0,FastFast,23,18,Woman,Right,
2,6,1,1.2656812999998692,['n'],1,right,['9'],5,0.768723399999999,0.4,0,FastFast,23,18,Woman,Right,
3,6,1,1.465638300000137,['n'],0,left,['0'],6,0.6853718000002118,0.2,0,FastFast,23,18,Woman,Right,
4,6,1,0.31548670000006496,['n'],1,right,['9'],5,0.584127399999943,0.2,0,FastFast,23,18,Woman,Right,
5,6,1,0.40049020000014934,['c'],1,left,['3'],3,0.784961100000146,0.1,0,FastFast,23,18,Woman,Right,
6,6,1,0.7156162999999651,['c'],1,left,['2'],2,0.7175312999997914,0.1,0,FastFast,23,18,Woman,Right,
7,6,1,0.5844306000001325,['n'],0,left,['8'],4,0.967896699999983,0.2,0,FastFast,23,18,Woman,Right,
8,6,1,0.683338699999922,['n'],1,right,['8'],4,0.5179371000001538,0.4,0,FastFast,23,18,Woman,Right,
9,6,1,0.6162207999998373,['n'],1,right,['8'],4,0.684252000000015,0.4,0,FastFast,23,18,Woman,Right,
10,6,1,0.6842867999998816,['n'],1,right,['9'],5,0.568263399999978,0.2,0,FastFast,23,18,Woman,Right,
11,6,1,0.6175665000000663,['n'],0,left,['8'],4,0.5510040000001482,0.4,0,FastFast,23,18,Woman,Right,
12,6,1,0.5345199999999295,['n'],0,left,['9'],5,0.5006296999999904,0.1,0,FastFast,23,18,Woman,Right,
13,6,1,1.116840300000149,['n'],1,right,['0'],6,0.9853755999999976,0.2,0,FastFast,23,18,Woman,Right,
14,6,1,0.8494129000000612,['n'],1,right,['9'],5,0.5518750999999611,0.1,0,FastFast,23,18,Woman,Right,
15,6,1,0.6667774000000009,['n'],0,left,['8'],4,0.3516056999999364,0.4,0,FastFast,23,18,Woman,Right,
16,6,1,1.1685026999998627,['c'],0,right,['2'],2,0.5519669000000249,0.2,0,FastFast,23,18,Woman,Right,
17,6,1,0.8328220999999303,['c'],1,left,['8'],4,0.21886280000012448,0.4,0,FastFast,23,18,Woman,Right,
18,6,1,0.3833422000000155,['c'],0,right,['8'],4,0.18346970000015972,0.2,0,FastFast,23,18,Woman,Right,
19,6,1,0.8679475000001275,['n'],1,right,['0'],6,0.5013268000000153,0.4,0,FastFast,23,18,Woman,Right,
20,6,1,0.8339450999999372,['c'],1,left,['9'],5,1.017665400000169,0.4,0,FastFast,23,18,Woman,Right,
21,6,1,1.3169895999999426,['n'],0,left,['9'],5,0.41785440000012386,0.4,0,FastFast,23,18,Woman,Right,
22,6,1,0.6505425999998806,['n'],1,right,['9'],5,0.3843225999999049,0.1,0,FastFast,23,18,Woman,Right,
23,6,1,0.7167379999996228,['n'],1,right,['8'],4,0.5345496999998431,0.1,0,FastFast,23,18,Woman,Right,
24,6,1,0.9827752000001055,['n'],1,right,['0'],6,0.5016038000003391,0.2,0,FastFast,23,18,Woman,Right,
25,6,1,0.5844136000000617,['n'],1,right,['0'],6,0.5328417999999147,0.2,0,FastFast,23,18,Woman,Right,
26,6,1,0.5516373000000385,['n'],0,left,['0'],6,0.25154840000004697,0.4,0,FastFast,23,18,Woman,Right,
27,6,1,1.1001215000001139,['n'],1,right,['0'],6,0.5839688999999453,0.1,0,FastFast,23,18,Woman,Right,
28,6,1,0.4166540999999597,['n'],0,left,['9'],5,0.2854395999997905,0.4,0,FastFast,23,18,Woman,Right,
29,6,1,0.4348621999997704,['n'],0,left,['8'],4,0.38377870000022085,0.1,0,FastFast,23,18,Woman,Right,
30,6,1,0.4847147999998924,['c'],0,right,['3'],3,0.4018344999999499,0.1,0,FastFast,23,18,Woman,Right,
31,6,1,0.3836157999999159,['c'],1,left,['8'],4,0.26761850000002596,0.2,0,FastFast,23,18,Woman,Right,
32,6,1,0.4175575999997818,['c'],1,left,['8'],4,0.2516049999999268,0.2,0,FastFast,23,18,Woman,Right,
33,6,1,0.4839481999997588,['c'],1,left,['3'],3,0.30148719999988316,0.4,0,FastFast,23,18,Woman,Right,
34,6,1,0.7327702000002319,['c'],1,left,['0'],6,0.2847772000000077,0.2,0,FastFast,23,18,Woman,Right,
35,6,1,0.5838487999999415,['c'],1,left,['9'],5,0.3347028999996837,0.1,0,FastFast,23,18,Woman,Right,
36,6,1,0.5497874999996384,['c'],0,right,['8'],4,0.6020591000001332,0.4,0,FastFast,23,18,Woman,Right,
37,6,1,0.7997937000000093,['n'],0,left,['0'],6,0.635830199999873,0.2,0,FastFast,23,18,Woman,Right,
38,6,1,0.4488372000000709,['n'],0,left,['0'],6,0.3676133000003574,0.4,0,FastFast,23,18,Woman,Right,
39,6,1,0.8677170999999362,['c'],1,left,['2'],2,0.9000448000001597,0.1,0,FastFast,23,18,Woman,Right,
40,6,1,1.3164362000002257,['n'],1,right,['9'],5,0.3525147000000288,0.2,0,FastFast,23,18,Woman,Right,
41,6,1,0.7339600000000246,['n'],0,left,['9'],5,0.2668644000000313,0.4,0,FastFast,23,18,Woman,Right,
42,6,1,0.9664456000000428,['n'],0,left,['9'],5,0.33545060000005833,0.2,0,FastFast,23,18,Woman,Right,
43,6,1,0.7815979000001789,['n'],1,right,['9'],5,0.4690332000000126,0.4,0,FastFast,23,18,Woman,Right,
44,6,1,0.9649998999998388,['n'],1,right,['0'],6,0.35196330000007947,0.2,0,FastFast,23,18,Woman,Right,
45,6,1,0.6844945999996526,['c'],0,right,['9'],5,1.1349632999999812,0.1,0,FastFast,23,18,Woman,Right,
46,6,1,0.6485709000003226,['n'],1,right,['9'],5,0.31759520000014163,0.1,0,FastFast,23,18,Woman,Right,
47,6,1,0.7493470999997953,['n'],1,right,['0'],6,0.3521197000000029,0.4,0,FastFast,23,18,Woman,Right,
48,6,1,0.8326406000001043,['c'],1,left,['0'],6,0.2507335999998759,0.4,0,FastFast,23,18,Woman,Right,
49,6,1,0.43214499999976397,['c'],0,right,['0'],6,0.21761160000005475,0.4,0,FastFast,23,18,Woman,Right,
50,6,1,0.6343314999999166,['c'],1,left,['8'],4,0.5337420000000748,0.1,0,FastFast,23,18,Woman,Right,
51,6,1,0.5158103000003393,['c'],1,left,['9'],5,0.1844452000000274,0.1,0,FastFast,23,18,Woman,Right,
52,6,1,0.9841876999998931,['n'],1,right,['3'],3,1.0342651999999362,0.2,0,FastFast,23,18,Woman,Right,
53,6,1,0.8821308999999928,['n'],1,right,['8'],4,0.21840419999989535,0.1,0,FastFast,23,18,Woman,Right,
54,6,1,0.6333277999997335,['c'],1,left,['3'],3,0.16664540000010675,0.1,0,FastFast,23,18,Woman,Right,
55,6,1,1.3500019000002794,['n'],0,left,['9'],5,0.5520902000002934,0.1,0,FastFast,23,18,Woman,Right,
56,6,1,0.6837509000001774,['n'],1,right,['9'],5,0.2181481999996322,0.1,0,FastFast,23,18,Woman,Right,
57,6,1,0.6998306999998931,['c'],1,left,['3'],3,0.16788640000004307,0.1,0,FastFast,23,18,Woman,Right,
58,6,1,0.6329765000000407,['c'],0,right,['3'],3,0.10004980000030628,0.2,0,FastFast,23,18,Woman,Right,
59,6,1,0.5348095000003923,['c'],1,left,['3'],3,0.11844889999974839,0.4,0,FastFast,23,18,Woman,Right,
0,7,1,1.967595000000074,['n'],1,right,['0'],6,0.9683036999999786,0.4,0,AccFast,23,18,Woman,Right,
1,7,1,2.0991275999999743,['n'],0,left,['9'],5,0.33510630000000674,0.1,0,AccFast,23,18,Woman,Right,
2,7,1,1.4835822000000007,['c'],1,left,['9'],5,0.2849614000001566,0.2,0,AccFast,23,18,Woman,Right,
3,7,1,2.0833292000002075,['n'],1,right,['9'],5,0.25145459999976083,0.1,0,AccFast,23,18,Woman,Right,
4,7,1,1.350753000000168,['n'],1,right,['9'],5,0.218198399999892,0.1,0,AccFast,23,18,Woman,Right,
5,7,1,1.6504036999999698,['c'],1,left,['9'],5,0.18456659999992553,0.1,0,AccFast,23,18,Woman,Right,
6,7,1,0.9506957999997212,['n'],1,right,['9'],5,0.2840436999999838,0.4,0,AccFast,23,18,Woman,Right,
7,7,1,1.617885699999988,['c'],1,left,['0'],6,0.31800810000004276,0.2,0,AccFast,23,18,Woman,Right,
8,7,1,1.2987919000001966,['n'],0,left,['2'],2,1.0674896999998964,0.2,0,AccFast,23,18,Woman,Right,
9,7,1,1.5175891999997475,['n'],1,right,['0'],6,0.3849108999997952,0.4,0,AccFast,23,18,Woman,Right,
10,7,1,1.699949800000013,['n'],1,right,['0'],6,0.4839120000001458,0.4,0,AccFast,23,18,Woman,Right,
11,7,1,0.933400100000199,['n'],1,right,['0'],6,0.2017788000002838,0.4,0,AccFast,23,18,Woman,Right,
12,7,1,1.4676498000003448,['c'],0,right,['0'],6,0.15157620000036331,0.2,0,AccFast,23,18,Woman,Right,
13,7,1,0.9161764000000403,['n'],0,left,['0'],6,0.1837689999997565,0.1,0,AccFast,23,18,Woman,Right,
14,7,1,1.1661146000001281,['n'],1,right,['0'],6,0.2505295000000842,0.4,0,AccFast,23,18,Woman,Right,
15,7,1,1.2999783000000207,['c'],1,left,['0'],6,0.168825399999605,0.4,0,AccFast,23,18,Woman,Right,
16,7,1,1.782942599999842,['n'],0,left,['9'],5,0.20257059999994453,0.1,0,AccFast,23,18,Woman,Right,
17,7,1,1.6494104000003063,['c'],1,left,['9'],5,0.1685142999999698,0.4,0,AccFast,23,18,Woman,Right,
18,7,1,1.1996463000000404,['c'],1,left,['9'],5,0.16636749999997846,0.4,0,AccFast,23,18,Woman,Right,
19,7,1,1.7672781999999643,['n'],1,right,['8'],4,0.4493803999998818,0.2,0,AccFast,23,18,Woman,Right,
20,7,1,2.0509643000000324,['c'],1,left,['0'],6,0.2346704999999929,0.4,0,AccFast,23,18,Woman,Right,
21,7,1,0.9492694999999003,['c'],0,right,['0'],6,0.1690326000002642,0.1,0,AccFast,23,18,Woman,Right,
22,7,1,0.6995842000001176,['c'],0,right,['0'],6,0.13559540000005654,0.1,0,AccFast,23,18,Woman,Right,
23,7,1,0.9311698999999862,['c'],0,right,['0'],6,0.1674898999999641,0.2,0,AccFast,23,18,Woman,Right,
24,7,1,1.3339802999998938,['n'],0,left,['3'],3,0.852331999999933,0.2,0,AccFast,23,18,Woman,Right,
25,7,1,1.0342442000001029,['c'],1,left,['0'],6,0.21828809999988152,0.1,0,AccFast,23,18,Woman,Right,
26,7,1,1.1332446999999775,['n'],1,right,['0'],6,0.26821960000006584,0.2,0,AccFast,23,18,Woman,Right,
27,7,1,2.099433500000032,['n'],1,right,['9'],5,0.569048699999712,0.4,0,AccFast,23,18,Woman,Right,
28,7,1,1.7500819000001684,['c'],0,right,['8'],4,0.6847599000002447,0.2,0,AccFast,23,18,Woman,Right,
29,7,1,1.8990532000002531,['c'],1,left,['9'],5,0.5523757000000842,0.1,0,AccFast,23,18,Woman,Right,
30,7,1,1.5830501999998887,['c'],0,right,['9'],5,0.4339356999998927,0.1,0,AccFast,23,18,Woman,Right,
31,7,1,2.4161770999999135,['c'],1,left,['9'],5,1.0500553000001673,0.4,0,AccFast,23,18,Woman,Right,
32,7,1,2.8515440999999555,['c'],1,left,['9'],5,0.7179477999998198,0.2,0,AccFast,23,18,Woman,Right,
33,7,1,1.4492875999999342,['c'],1,left,['8'],4,0.6512569999999869,0.4,0,AccFast,23,18,Woman,Right,
34,7,1,0.9504235999997945,['c'],1,left,['0'],6,0.30143909999969765,0.4,0,AccFast,23,18,Woman,Right,
35,7,1,1.0504350999999588,['c'],1,left,['0'],6,0.1847275999998601,0.1,0,AccFast,23,18,Woman,Right,
36,7,1,0.9000794000003225,['c'],1,left,['0'],6,0.1681745000000774,0.1,0,AccFast,23,18,Woman,Right,
37,7,1,1.3830419000000802,['c'],1,left,['8'],4,0.5347821000000295,0.2,0,AccFast,23,18,Woman,Right,
38,7,1,0.9982724000001326,['n'],1,right,['9'],5,0.384763699999894,0.2,0,AccFast,23,18,Woman,Right,
39,7,1,1.0163077999995949,['c'],1,left,['9'],5,0.3009767000003194,0.4,0,AccFast,23,18,Woman,Right,
40,7,1,0.6996070000000145,['n'],1,right,['9'],5,0.4018362000001616,0.4,0,AccFast,23,18,Woman,Right,
41,7,1,2.2008629000001747,['n'],0,left,['8'],4,0.7013686999998754,0.1,0,AccFast,23,18,Woman,Right,
42,7,1,1.0501429000000826,['c'],1,left,['0'],6,0.4513879999999517,0.2,0,AccFast,23,18,Woman,Right,
43,7,1,0.8004606999998032,['c'],1,left,['0'],6,0.23520940000025803,0.1,0,AccFast,23,18,Woman,Right,
44,7,1,1.1179093999999168,['c'],0,right,['8'],4,0.7173075999999128,0.2,0,AccFast,23,18,Woman,Right,
45,7,1,0.9987422000003789,['n'],1,right,['8'],4,0.25049089999993157,0.4,0,AccFast,23,18,Woman,Right,
46,7,1,1.0349765000000843,['c'],1,left,['9'],5,0.21781359999977212,0.1,0,AccFast,23,18,Woman,Right,
47,7,1,0.8662457000000359,['c'],1,left,['9'],5,0.16658270000016273,0.4,0,AccFast,23,18,Woman,Right,
48,7,1,1.3652800999998362,['n'],1,right,['9'],5,0.36889449999989665,0.1,0,AccFast,23,18,Woman,Right,
49,7,1,0.9338967000003322,['c'],0,right,['9'],5,0.168399799999861,0.2,0,AccFast,23,18,Woman,Right,
50,7,1,0.8174794000001384,['c'],1,left,['9'],5,0.3181389000001218,0.2,0,AccFast,23,18,Woman,Right,
51,7,1,1.0502399000001787,['n'],1,right,['9'],5,0.2512636000001294,0.4,0,AccFast,23,18,Woman,Right,
52,7,1,1.4501323999998021,['c'],0,right,['9'],5,0.2331304000003911,0.1,0,AccFast,23,18,Woman,Right,
53,7,1,0.8826375000003281,['n'],1,right,['9'],5,0.21810210000012376,0.2,0,AccFast,23,18,Woman,Right,
54,7,1,0.6339678000003914,['n'],1,right,['0'],6,0.3347916999996414,0.1,0,AccFast,23,18,Woman,Right,
55,7,1,0.9670236000001751,['c'],0,right,['0'],6,0.16836860000012166,0.2,0,AccFast,23,18,Woman,Right,
56,7,1,0.7503664000000754,['c'],1,left,['0'],6,0.21829070000012507,0.2,0,AccFast,23,18,Woman,Right,
57,7,1,1.5335146000002169,['n'],0,left,['0'],6,0.2846607999999833,0.1,0,AccFast,23,18,Woman,Right,
58,7,1,1.117079399999966,['c'],0,right,['0'],6,0.1508509000000231,0.2,0,AccFast,23,18,Woman,Right,
59,7,1,0.9505819000000884,['n'],1,right,['0'],6,0.16812609999988126,0.4,0,AccFast,23,18,Woman,Right,
0,8,1,2.5509851000001618,['c'],1,left,['9'],5,1.2008307999999488,0.1,0,AccAcc,23,18,Woman,Right,
1,8,1,1.7163289999998597,['n'],1,right,['0'],6,1.1179712000002837,0.4,0,AccAcc,23,18,Woman,Right,
2,8,1,1.3664772000001904,['c'],1,left,['8'],4,1.8177104999999756,0.2,0,AccAcc,23,18,Woman,Right,
3,8,1,1.4507121000001462,['c'],1,left,['9'],5,1.7684431000002405,0.4,0,AccAcc,23,18,Woman,Right,
4,8,1,1.933949499999926,['c'],1,left,['8'],4,0.9677762999999686,0.2,0,AccAcc,23,18,Woman,Right,
5,8,1,1.1837666999999783,['c'],1,left,['9'],5,0.4844767999998112,0.1,0,AccAcc,23,18,Woman,Right,
6,8,1,1.8996283999999832,['c'],1,left,['9'],5,1.4344246999999086,0.2,0,AccAcc,23,18,Woman,Right,
7,8,1,1.9327336999999716,['n'],1,right,['9'],5,0.8015095000000656,0.1,0,AccAcc,23,18,Woman,Right,
8,8,1,1.3169873000001644,['n'],1,right,['9'],5,0.6347961000001305,0.4,0,AccAcc,23,18,Woman,Right,
9,8,1,3.716484400000354,['n'],1,right,['9'],5,1.732549199999994,0.1,0,AccAcc,23,18,Woman,Right,
10,8,1,1.7660565000001043,['c'],0,right,['0'],6,0.66936510000005,0.1,0,AccAcc,23,18,Woman,Right,
11,8,1,2.716475299999729,['c'],0,right,['3'],3,0.6521400000001449,0.2,0,AccAcc,23,18,Woman,Right,
12,8,1,2.832986500000061,['c'],1,left,['8'],4,1.318594700000176,0.2,0,AccAcc,23,18,Woman,Right,
13,8,1,2.767694399999982,['n'],0,left,['8'],4,1.5000547999998162,0.2,0,AccAcc,23,18,Woman,Right,
14,8,1,1.7164551999999276,['c'],1,left,['8'],4,0.9178782000003594,0.1,0,AccAcc,23,18,Woman,Right,
15,8,1,2.466294999999718,['c'],0,right,['9'],5,1.0013288999998622,0.1,0,AccAcc,23,18,Woman,Right,
16,8,1,1.4825479999999516,['c'],1,left,['0'],6,0.4338362999997116,0.4,0,AccAcc,23,18,Woman,Right,
17,8,1,1.1503917000000001,['c'],0,right,['0'],6,0.7833959999998115,0.1,0,AccAcc,23,18,Woman,Right,
18,8,1,1.7347477000002982,['c'],1,left,['9'],5,0.48478530000011233,0.2,0,AccAcc,23,18,Woman,Right,
19,8,1,1.1156278000003113,['c'],0,right,['0'],6,0.9857938000000104,0.1,0,AccAcc,23,18,Woman,Right,
20,8,1,0.8672631999997975,['c'],1,left,['0'],6,0.3681934999999612,0.4,0,AccAcc,23,18,Woman,Right,
21,8,1,2.6501852000001236,['n'],1,right,['8'],4,0.7673202999999376,0.2,0,AccAcc,23,18,Woman,Right,
22,8,1,1.2676083999999719,['c'],1,left,['8'],4,0.7015516000001298,0.4,0,AccAcc,23,18,Woman,Right,
23,8,1,1.2004256999998688,['c'],0,right,['8'],4,0.351387799999884,0.1,0,AccAcc,23,18,Woman,Right,
24,8,1,2.433046900000136,['n'],1,right,['9'],5,0.6845554999999877,0.2,0,AccAcc,23,18,Woman,Right,
25,8,1,2.449032200000147,['n'],1,right,['0'],6,0.835438300000078,0.4,0,AccAcc,23,18,Woman,Right,
26,8,1,0.9837255000002187,['c'],0,right,['0'],6,1.1680332999999337,0.4,0,AccAcc,23,18,Woman,Right,
27,8,1,1.7008335999998963,['n'],1,right,['8'],4,1.3167791000000761,0.2,0,AccAcc,23,18,Woman,Right,
28,8,1,3.1671329000000696,['n'],0,left,['9'],5,0.6171359999998458,0.4,0,AccAcc,23,18,Woman,Right,
29,8,1,2.0325472999998055,['c'],1,left,['9'],5,1.0686733000002278,0.2,0,AccAcc,23,18,Woman,Right,
30,8,1,1.2339317999999366,['n'],1,right,['0'],6,0.9013674000002538,0.4,0,AccAcc,23,18,Woman,Right,
31,8,1,1.3823935999998866,['c'],1,left,['8'],4,0.9679879000000255,0.4,0,AccAcc,23,18,Woman,Right,
32,8,1,1.4678462000001673,['n'],1,right,['9'],5,1.0344543000001067,0.2,0,AccAcc,23,18,Woman,Right,
33,8,1,3.03395189999992,['n'],0,left,['0'],6,0.9846862999997938,0.4,0,AccAcc,23,18,Woman,Right,
34,8,1,1.0663300999999592,['n'],0,left,['9'],5,0.5011116999999103,0.4,0,AccAcc,23,18,Woman,Right,
35,8,1,1.1169684999999845,['n'],1,right,['9'],5,0.5178605000000971,0.2,0,AccAcc,23,18,Woman,Right,
36,8,1,0.8495118999999249,['n'],0,left,['9'],5,0.2348941999998715,0.2,0,AccAcc,23,18,Woman,Right,
37,8,1,0.9326366000000235,['n'],1,right,['0'],6,0.8192011999999522,0.1,0,AccAcc,23,18,Woman,Right,
38,8,1,1.2835061000000678,['n'],1,right,['9'],5,0.5669952999996895,0.1,0,AccAcc,23,18,Woman,Right,
39,8,1,1.1677624999997533,['n'],1,right,['9'],5,0.8514646000003268,0.4,0,AccAcc,23,18,Woman,Right,
40,8,1,0.9337376999997105,['n'],0,left,['8'],4,0.6167252999998709,0.1,0,AccAcc,23,18,Woman,Right,
41,8,1,0.9844342000001234,['n'],0,left,['9'],5,0.5508037999998123,0.1,0,AccAcc,23,18,Woman,Right,
42,8,1,1.434002800000144,['n'],1,right,['0'],6,0.518171700000039,0.1,0,AccAcc,23,18,Woman,Right,
43,8,1,1.7997135000000526,['n'],0,left,['0'],6,0.5014968999998928,0.4,0,AccAcc,23,18,Woman,Right,
44,8,1,1.535223699999733,['n'],1,right,['9'],5,0.7672077000001991,0.4,0,AccAcc,23,18,Woman,Right,
45,8,1,1.6677497999999105,['n'],1,right,['0'],6,0.7345156999999745,0.4,0,AccAcc,23,18,Woman,Right,
46,8,1,2.300423900000169,['n'],0,left,['9'],5,0.7177083999999923,0.2,0,AccAcc,23,18,Woman,Right,
47,8,1,1.4000796000000264,['n'],1,right,['9'],5,0.48488620000034643,0.2,0,AccAcc,23,18,Woman,Right,
48,8,1,1.0830825999996705,['n'],1,right,['8'],4,0.7013611000002129,0.4,0,AccAcc,23,18,Woman,Right,
49,8,1,5.015882799999872,x,-99,right,none,-99,-99,0.1,1,AccAcc,23,18,Woman,Right,
50,8,1,1.2675645999997869,['n'],0,left,['9'],5,0.7182584000001953,0.1,0,AccAcc,23,18,Woman,Right,
51,8,1,1.316385800000262,['n'],0,left,['8'],4,0.650106400000368,0.1,0,AccAcc,23,18,Woman,Right,
52,8,1,1.1666659000002255,['n'],0,left,['8'],4,0.602024799999981,0.2,0,AccAcc,23,18,Woman,Right,
53,8,1,1.6174048000002585,['c'],1,left,['2'],2,1.0848510999999235,0.4,0,AccAcc,23,18,Woman,Right,
54,8,1,1.1992847999999867,['c'],0,right,['8'],4,0.4189602000001287,0.1,0,AccAcc,23,18,Woman,Right,
55,8,1,1.0834374000000935,['c'],1,left,['8'],4,0.3995559999998477,0.1,0,AccAcc,23,18,Woman,Right,
56,8,1,1.0348117000003185,['c'],0,right,['8'],4,0.5013311000002432,0.2,0,AccAcc,23,18,Woman,Right,
57,8,1,1.5168610000000626,['c'],0,right,['3'],3,1.5347587999999632,0.4,0,AccAcc,23,18,Woman,Right,
58,8,1,3.5664738999998917,['n'],0,left,['9'],5,0.6349005000001853,0.2,0,AccAcc,23,18,Woman,Right,
59,8,1,3.6501492000002145,['n'],0,left,['9'],5,0.6674189000000297,0.2,0,AccAcc,23,18,Woman,Right,
0,9,1,0.7166212000001906,['n'],0,left,['9'],5,0.8018354999999247,0.2,0,FastAcc,23,18,Woman,Right,
1,9,1,0.7505869999999959,['n'],1,right,['8'],4,1.5843785000001844,0.1,0,FastAcc,23,18,Woman,Right,
2,9,1,0.3825498000001062,['n'],1,right,['8'],4,1.7185543999999027,0.1,0,FastAcc,23,18,Woman,Right,
3,9,1,0.40021699999988414,['n'],0,left,['8'],4,1.285295799999858,0.2,0,FastAcc,23,18,Woman,Right,
4,9,1,0.48396309999998266,['n'],1,right,['8'],4,0.6514111000001321,0.4,0,FastAcc,23,18,Woman,Right,
5,9,1,0.5334280999995826,['c'],0,right,['8'],4,0.5169664999998531,0.2,0,FastAcc,23,18,Woman,Right,
6,9,1,0.6337417999998252,['c'],1,left,['0'],6,1.1012243999998645,0.2,0,FastAcc,23,18,Woman,Right,
7,9,1,0.8344155999998293,['n'],1,right,['0'],6,0.9174332999996295,0.4,0,FastAcc,23,18,Woman,Right,
8,9,1,1.0168361000000914,['n'],1,right,['9'],5,3.0998290999996243,0.2,0,FastAcc,23,18,Woman,Right,
9,9,1,0.4990277000001697,['n'],1,right,['9'],5,1.0015616000000591,0.4,0,FastAcc,23,18,Woman,Right,
10,9,1,0.9661414000001969,['c'],1,left,['0'],6,0.9506905999996889,0.4,0,FastAcc,23,18,Woman,Right,
11,9,1,0.7001631999996789,['n'],0,left,['0'],6,3.16762719999997,0.1,0,FastAcc,23,18,Woman,Right,
12,9,1,0.6001369000000523,['n'],1,right,['9'],5,1.1167292000000089,0.2,0,FastAcc,23,18,Woman,Right,
13,9,1,0.699733500000093,['n'],1,right,['9'],5,2.7180835999997726,0.4,0,FastAcc,23,18,Woman,Right,
14,9,1,0.7660302999997839,['n'],1,right,['9'],5,2.535350600000129,0.2,0,FastAcc,23,18,Woman,Right,
15,9,1,1.066142900000159,['c'],0,right,['0'],6,0.951149500000156,0.1,0,FastAcc,23,18,Woman,Right,
16,9,1,0.6838418000002093,['n'],1,right,['0'],6,0.4511413000000175,0.4,0,FastAcc,23,18,Woman,Right,
17,9,1,0.9671576000000641,['c'],1,left,['0'],6,0.3514308000003439,0.4,0,FastAcc,23,18,Woman,Right,
18,9,1,0.7004895000000033,['n'],1,right,['0'],6,0.3511881999997968,0.1,0,FastAcc,23,18,Woman,Right,
19,9,1,0.7485698999998931,['n'],1,right,['9'],5,4.318948799999816,0.2,0,FastAcc,23,18,Woman,Right,
20,9,1,0.6506755999998859,['n'],1,right,['9'],5,2.8502942000000075,0.2,0,FastAcc,23,18,Woman,Right,
21,9,1,1.3660734000000048,['c'],1,left,['8'],4,0.7857939999998962,0.1,0,FastAcc,23,18,Woman,Right,
22,9,1,1.2503200000001016,['c'],1,left,['9'],5,3.884409599999799,0.2,0,FastAcc,23,18,Woman,Right,
23,9,1,0.667627000000266,['n'],1,right,['0'],6,1.1014202000001205,0.4,0,FastAcc,23,18,Woman,Right,
24,9,1,0.6838717000000543,['c'],1,left,['3'],3,4.100964600000225,0.1,0,FastAcc,23,18,Woman,Right,
25,9,1,0.7326364000000467,['c'],1,left,['8'],4,1.3854862000002868,0.2,0,FastAcc,23,18,Woman,Right,
26,9,1,0.5837762000001021,['n'],1,right,['9'],5,1.217996299999868,0.2,0,FastAcc,23,18,Woman,Right,
27,9,1,0.933422900000096,['c'],0,right,['1'],1,1.1510729999999967,0.1,0,FastAcc,23,18,Woman,Right,
28,9,1,1.6677417999999307,['n'],0,left,['9'],5,1.7514116000002105,0.1,0,FastAcc,23,18,Woman,Right,
29,9,1,0.800282199999856,['c'],1,left,['3'],3,2.9514438999999584,0.1,0,FastAcc,23,18,Woman,Right,
30,9,1,0.5508002999999917,['n'],0,left,['9'],5,4.40110279999999,0.4,0,FastAcc,23,18,Woman,Right,
31,9,1,0.9668362000002162,['c'],1,left,['8'],4,2.7826101000000563,0.2,0,FastAcc,23,18,Woman,Right,
32,9,1,2.050135599999976,['c'],0,right,['8'],4,3.1178703000000496,0.2,0,FastAcc,23,18,Woman,Right,
33,9,1,0.6014248000001317,['n'],1,right,['9'],5,1.1349675999999818,0.4,0,FastAcc,23,18,Woman,Right,
34,9,1,0.8337111999999252,['c'],1,left,['9'],5,0.5513522000001103,0.4,0,FastAcc,23,18,Woman,Right,
35,9,1,0.6168423000003713,['n'],1,right,['0'],6,0.7019427999998697,0.1,0,FastAcc,23,18,Woman,Right,
36,9,1,0.5004393999997774,['n'],0,left,['9'],5,0.7017418999998881,0.1,0,FastAcc,23,18,Woman,Right,
37,9,1,0.5847083000003295,['n'],1,right,['8'],4,0.7012249999997948,0.2,0,FastAcc,23,18,Woman,Right,
38,9,1,0.48305279999976847,['n'],1,right,['2'],2,1.2351754999999685,0.1,0,FastAcc,23,18,Woman,Right,
39,9,1,0.6317334000000301,['n'],1,right,['8'],4,0.9522680000000037,0.1,0,FastAcc,23,18,Woman,Right,
40,9,1,0.8353996000000734,['c'],1,left,['2'],2,2.2679234000001998,0.2,0,FastAcc,23,18,Woman,Right,
41,9,1,0.8343474000002971,['c'],1,left,['0'],6,0.7839604000000691,0.4,0,FastAcc,23,18,Woman,Right,
42,9,1,0.6344711000001553,['c'],1,left,['9'],5,1.932972200000222,0.2,0,FastAcc,23,18,Woman,Right,
43,9,1,0.484013799999957,['c'],1,left,['9'],5,1.1359488000002784,0.4,0,FastAcc,23,18,Woman,Right,
44,9,1,0.5503506000000016,['c'],1,left,['8'],4,2.4840399999998226,0.4,0,FastAcc,23,18,Woman,Right,
45,9,1,0.4836142999997719,['c'],1,left,['9'],5,0.8177227000001039,0.1,0,FastAcc,23,18,Woman,Right,
46,9,1,0.49967740000010963,['c'],1,left,['9'],5,1.0340699999997014,0.4,0,FastAcc,23,18,Woman,Right,
47,9,1,0.6677295999998023,['c'],1,left,['8'],4,2.1188710999999785,0.1,0,FastAcc,23,18,Woman,Right,
48,9,1,0.7819320999997217,['n'],1,right,['9'],5,2.152502700000241,0.4,0,FastAcc,23,18,Woman,Right,
49,9,1,0.8667854999998781,['n'],1,right,['9'],5,1.702175299999908,0.1,0,FastAcc,23,18,Woman,Right,
50,9,1,0.6662112000003617,['c'],1,left,['9'],5,1.80201070000021,0.2,0,FastAcc,23,18,Woman,Right,
51,9,1,0.7017406999998457,['n'],1,right,['9'],5,1.5337217999999666,0.4,0,FastAcc,23,18,Woman,Right,
52,9,1,0.5493314000000282,['c'],0,right,['1'],1,1.3188958999999159,0.4,0,FastAcc,23,18,Woman,Right,
53,9,1,0.7827541999999994,['n'],0,left,['0'],6,2.0004265000002306,0.2,0,FastAcc,23,18,Woman,Right,
54,9,1,0.9332489999997051,['n'],0,left,['9'],5,2.3179016999997657,0.1,0,FastAcc,23,18,Woman,Right,
55,9,1,0.532670600000074,['n'],1,right,['9'],5,2.017692199999601,0.1,0,FastAcc,23,18,Woman,Right,
56,9,1,1.3344481999997697,['n'],1,right,['9'],5,1.1014044999997168,0.2,0,FastAcc,23,18,Woman,Right,
57,9,1,1.082897100000082,['n'],0,left,['9'],5,0.6336106999997355,0.1,0,FastAcc,23,18,Woman,Right,
58,9,1,0.6669588999998268,['n'],0,left,['8'],4,0.9346396000000823,0.4,0,FastAcc,23,18,Woman,Right,
59,9,1,1.0148854999997639,['c'],1,left,['8'],4,3.550343200000043,0.4,0,FastAcc,23,18,Woman,Right,
0,10,1,0.8349941999999828,['n'],1,right,['9'],5,0.45128650000015114,0.4,0,FastFast,23,18,Woman,Right,
1,10,1,0.5171816000001854,['c'],1,left,['9'],5,0.368116099999952,0.4,0,FastFast,23,18,Woman,Right,
2,10,1,0.4152785999999651,['n'],1,right,['3'],3,0.9357024999999339,0.4,0,FastFast,23,18,Woman,Right,
3,10,1,0.7988715000001321,['n'],1,right,['9'],5,0.5342998000000989,0.2,0,FastFast,23,18,Woman,Right,
4,10,1,0.6675708999996459,['c'],0,right,['1'],1,0.7514799999999013,0.2,0,FastFast,23,18,Woman,Right,
5,10,1,0.666314500000226,['n'],0,left,['9'],5,0.33489600000029895,0.1,0,FastFast,23,18,Woman,Right,
6,10,1,0.9666886999998496,['c'],1,left,['8'],4,0.21839420000014798,0.1,0,FastFast,23,18,Woman,Right,
7,10,1,0.9673440999999912,['n'],1,right,['9'],5,0.334714200000235,0.2,0,FastFast,23,18,Woman,Right,
8,10,1,0.7169675999998617,['n'],1,right,['1'],1,1.183047600000009,0.2,0,FastFast,23,18,Woman,Right,
9,10,1,1.049731900000097,['n'],1,right,['8'],4,0.33558280000033847,0.2,0,FastFast,23,18,Woman,Right,
10,10,1,0.6823782999999821,['n'],0,left,['0'],6,0.16959760000008828,0.2,0,FastFast,23,18,Woman,Right,
11,10,1,0.5654853999999432,['c'],0,right,['3'],3,0.33375829999977213,0.4,0,FastFast,23,18,Woman,Right,
12,10,1,1.3845366999998987,['c'],1,left,['2'],2,0.4005331999996997,0.1,0,FastFast,23,18,Woman,Right,
13,10,1,0.8509258000003683,['n'],1,right,['9'],5,0.26832580000018424,0.4,0,FastFast,23,18,Woman,Right,
14,10,1,1.116524500000196,['n'],0,left,['0'],6,0.19982420000042111,0.1,0,FastFast,23,18,Woman,Right,
15,10,1,0.7016364999999496,['c'],0,right,['3'],3,0.5841526999997768,0.2,0,FastFast,23,18,Woman,Right,
16,10,1,0.7178933999998662,['n'],1,right,['9'],5,0.21749799999997776,0.1,0,FastFast,23,18,Woman,Right,
17,10,1,1.0330290000001696,['c'],1,left,['2'],2,0.301365899999837,0.4,0,FastFast,23,18,Woman,Right,
18,10,1,0.8498507999997855,['n'],1,right,['0'],6,0.3342066000000159,0.2,0,FastFast,23,18,Woman,Right,
19,10,1,1.317233700000088,['c'],1,left,['0'],6,0.917649199999687,0.4,0,FastFast,23,18,Woman,Right,
20,10,1,1.083609499999966,['n'],1,right,['0'],6,0.33491719999983616,0.2,0,FastFast,23,18,Woman,Right,
21,10,1,0.6333300999999665,['n'],0,left,['9'],5,0.23478590000013355,0.2,0,FastFast,23,18,Woman,Right,
22,10,1,0.38333920000013677,['n'],1,right,['8'],4,0.2178822000000764,0.1,0,FastFast,23,18,Woman,Right,
23,10,1,0.8174224999997932,['n'],0,left,['8'],4,0.1519922000002225,0.2,0,FastFast,23,18,Woman,Right,
24,10,1,0.41602740000007543,['n'],0,left,['8'],4,0.16734310000038022,0.1,0,FastFast,23,18,Woman,Right,
25,10,1,0.7843960999998671,['n'],1,right,['8'],4,0.18478789999971923,0.1,0,FastFast,23,18,Woman,Right,
26,10,1,0.6339422999999442,['n'],1,right,['8'],4,0.16827510000030088,0.1,0,FastFast,23,18,Woman,Right,
27,10,1,0.7002111000001605,['n'],1,right,['8'],4,0.20182370000020455,0.1,0,FastFast,23,18,Woman,Right,
28,10,1,0.7010897999998633,['n'],1,right,['9'],5,0.1680304999999862,0.4,0,FastFast,23,18,Woman,Right,
29,10,1,0.9834834000002957,['c'],1,left,['3'],3,0.2017532999998366,0.2,0,FastFast,23,18,Woman,Right,
30,10,1,0.8501211000002513,['c'],1,left,['8'],4,0.15140229999997246,0.4,0,FastFast,23,18,Woman,Right,
31,10,1,0.7501050999999279,['c'],1,left,['9'],5,0.13286339999967822,0.2,0,FastFast,23,18,Woman,Right,
32,10,1,0.7332811999999649,['n'],0,left,['8'],4,0.23541080000040893,0.2,0,FastFast,23,18,Woman,Right,
33,10,1,0.5325569000001451,['n'],0,left,['8'],4,0.16910049999978582,0.2,0,FastFast,23,18,Woman,Right,
34,10,1,0.43244099999992613,['n'],1,right,['9'],5,0.26875879999988683,0.1,0,FastFast,23,18,Woman,Right,
35,10,1,0.6318816000002698,['n'],0,left,['0'],6,0.21752440000000206,0.4,0,FastFast,23,18,Woman,Right,
36,10,1,0.7511946999998145,['c'],1,left,['8'],4,0.5347898999998506,0.4,0,FastFast,23,18,Woman,Right,
37,10,1,1.0168330000001333,['n'],0,left,['9'],5,0.20059189999983573,0.1,0,FastFast,23,18,Woman,Right,
38,10,1,0.8010910999996668,['c'],0,right,['9'],5,0.21666619999996328,0.1,0,FastFast,23,18,Woman,Right,
39,10,1,0.7340282999998635,['n'],0,left,['9'],5,0.23339030000033745,0.4,0,FastFast,23,18,Woman,Right,
40,10,1,0.6171995999998217,['n'],1,right,['0'],6,0.38488680000000386,0.2,0,FastFast,23,18,Woman,Right,
41,10,1,0.9165766000000986,['n'],1,right,['0'],6,0.18544380000003002,0.1,0,FastFast,23,18,Woman,Right,
42,10,1,0.7668095999997604,['c'],1,left,['8'],4,0.7183390000000145,0.4,0,FastFast,23,18,Woman,Right,
43,10,1,1.0316709000003357,['c'],1,left,['8'],4,0.3508489999999256,0.4,0,FastFast,23,18,Woman,Right,
44,10,1,1.1495512999999846,['c'],1,left,['8'],4,0.20199370000000272,0.4,0,FastFast,23,18,Woman,Right,
45,10,1,0.8495932999999241,['c'],1,left,['8'],4,0.468242200000077,0.4,0,FastFast,23,18,Woman,Right,
46,10,1,1.050825899999836,['n'],1,right,['0'],6,0.4011721000001671,0.1,0,FastFast,23,18,Woman,Right,
47,10,1,0.9502529999999751,['n'],1,right,['9'],5,0.25162520000003497,0.4,0,FastFast,23,18,Woman,Right,
48,10,1,0.7504340000000411,['n'],0,left,['9'],5,0.16888440000002447,0.4,0,FastFast,23,18,Woman,Right,
49,10,1,1.4675350000002254,['n'],1,right,['9'],5,0.20179959999995845,0.1,0,FastFast,23,18,Woman,Right,
50,10,1,0.7173351999999795,['n'],0,left,['9'],5,0.1347371000001658,0.1,0,FastFast,23,18,Woman,Right,
51,10,1,0.9838569999997162,['c'],1,left,['9'],5,0.3346518000003016,0.4,0,FastFast,23,18,Woman,Right,
52,10,1,0.5155322000000524,['c'],1,left,['0'],6,0.13587680000000546,0.2,0,FastFast,23,18,Woman,Right,
53,10,1,1.01588989999982,['c'],0,right,['8'],4,0.13528089999999793,0.1,0,FastFast,23,18,Woman,Right,
54,10,1,0.9170473999997739,['c'],1,left,['9'],5,0.13521859999991648,0.2,0,FastFast,23,18,Woman,Right,
55,10,1,0.599874699999873,['c'],0,right,['0'],6,0.16797670000005382,0.4,0,FastFast,23,18,Woman,Right,
56,10,1,0.9001716000002489,['c'],1,left,['8'],4,0.9349092000002202,0.2,0,FastFast,23,18,Woman,Right,
57,10,1,1.3173093999998855,['n'],1,right,['9'],5,0.3682581000002756,0.1,0,FastFast,23,18,Woman,Right,
58,10,1,1.3836359000001721,['n'],1,right,['0'],6,0.5345826000002489,0.2,0,FastFast,23,18,Woman,Right,
59,10,1,1.3326311999999234,['n'],1,right,['8'],4,0.4848576999997931,0.1,0,FastFast,23,18,Woman,Right,
0,11,1,2.6831414999996923,['c'],1,left,['0'],6,0.2196284999999989,0.1,0,AccFast,23,18,Woman,Right,
1,11,1,0.9845248999999967,['c'],1,left,['0'],6,0.18535049999991315,0.2,0,AccFast,23,18,Woman,Right,
2,11,1,1.1340550999998413,['n'],1,right,['0'],6,0.2000796999996055,0.1,0,AccFast,23,18,Woman,Right,
3,11,1,3.7340783999998166,['c'],1,left,['9'],5,0.9016639999999825,0.1,0,AccFast,23,18,Woman,Right,
4,11,1,0.9341552000000775,['c'],1,left,['9'],5,0.1351408000000447,0.4,0,AccFast,23,18,Woman,Right,
5,11,1,0.9509942999998202,['n'],1,right,['9'],5,0.21785449999970297,0.2,0,AccFast,23,18,Woman,Right,
6,11,1,1.1155761999998504,['n'],1,right,['0'],6,0.08550030000014885,0.4,0,AccFast,23,18,Woman,Right,
7,11,1,0.7660553000000618,['n'],1,right,['0'],6,0.05120400000032532,0.4,0,AccFast,23,18,Woman,Right,
8,11,1,2.2335037000002558,['c'],1,left,['9'],5,0.11823580000009315,0.2,0,AccFast,23,18,Woman,Right,
9,11,1,0.9652301999999509,['n'],0,left,['0'],6,0.10235049999982948,0.2,0,AccFast,23,18,Woman,Right,
10,11,1,1.0164128000001256,['n'],1,right,['0'],6,0.11775649999981397,0.1,0,AccFast,23,18,Woman,Right,
11,11,1,1.2332384999999704,['n'],1,right,['9'],5,0.9337531999999555,0.1,0,AccFast,23,18,Woman,Right,
12,11,1,1.8329697999997734,['c'],1,left,['0'],6,0.1356103000002804,0.2,0,AccFast,23,18,Woman,Right,
13,11,1,2.1152689000000464,['n'],1,right,['0'],6,0.10236209999993662,0.2,0,AccFast,23,18,Woman,Right,
14,11,1,1.5994190999999773,['n'],1,right,['0'],6,0.11851849999993647,0.2,0,AccFast,23,18,Woman,Right,
15,11,1,0.8998458000000937,['n'],1,right,['9'],5,0.13370190000023285,0.4,0,AccFast,23,18,Woman,Right,
16,11,1,0.7837078000002293,['n'],1,right,['9'],5,0.11853440000004412,0.1,0,AccFast,23,18,Woman,Right,
17,11,1,1.1850008000001253,['n'],1,right,['0'],6,0.718292499999734,0.4,0,AccFast,23,18,Woman,Right,
18,11,1,1.2350372999999308,['c'],1,left,['0'],6,0.067168799999763,0.4,0,AccFast,23,18,Woman,Right,
19,11,1,2.516828099999657,['c'],1,left,['0'],6,0.10084929999993619,0.1,0,AccFast,23,18,Woman,Right,
20,11,1,1.6163934999999583,['n'],1,right,['0'],6,0.10052059999998164,0.4,0,AccFast,23,18,Woman,Right,
21,11,1,1.2501265000000785,['c'],1,left,['0'],6,0.13307970000005298,0.4,0,AccFast,23,18,Woman,Right,
22,11,1,2.0504627999998775,['n'],1,right,['9'],5,0.18330059999971127,0.2,0,AccFast,23,18,Woman,Right,
23,11,1,1.2156746999999086,['c'],1,left,['8'],4,0.168979500000205,0.1,0,AccFast,23,18,Woman,Right,
24,11,1,1.4994418999999652,['n'],1,right,['9'],5,0.11855220000006739,0.1,0,AccFast,23,18,Woman,Right,
25,11,1,1.3343986999998378,['c'],0,right,['9'],5,0.1832488000000012,0.4,0,AccFast,23,18,Woman,Right,
26,11,1,1.382997499999874,['c'],1,left,['0'],6,0.11890850000008868,0.4,0,AccFast,23,18,Woman,Right,
27,11,1,1.5320682000001398,['c'],0,right,['0'],6,0.1680765999999494,0.1,0,AccFast,23,18,Woman,Right,
28,11,1,2.1843047000002116,['n'],1,right,['8'],4,0.15020749999985128,0.2,0,AccFast,23,18,Woman,Right,
29,11,1,1.1174356999999873,['c'],1,left,['0'],6,0.11884240000017599,0.2,0,AccFast,23,18,Woman,Right,
30,11,1,1.3836724999996477,['c'],0,right,['9'],5,0.16829039999993256,0.1,0,AccFast,23,18,Woman,Right,
31,11,1,2.450377000000117,['n'],0,left,['8'],4,0.13466929999958666,0.1,0,AccFast,23,18,Woman,Right,
32,11,1,1.2998993999999584,['c'],0,right,['8'],4,0.20077760000003764,0.2,0,AccFast,23,18,Woman,Right,
33,11,1,1.0503113999998277,['c'],0,right,['9'],5,0.1517703999998048,0.4,0,AccFast,23,18,Woman,Right,
34,11,1,1.3160579999998845,['n'],0,left,['0'],6,0.16921070000034888,0.2,0,AccFast,23,18,Woman,Right,
35,11,1,1.3671664000003148,['c'],1,left,['0'],6,0.16808069999979125,0.4,0,AccFast,23,18,Woman,Right,
36,11,1,0.8329793999996582,['c'],1,left,['0'],6,0.16732339999998658,0.4,0,AccFast,23,18,Woman,Right,
37,11,1,0.851238999999623,['n'],1,right,['0'],6,0.11863329999960115,0.4,0,AccFast,23,18,Woman,Right,
38,11,1,1.3326083000001745,['c'],1,left,['0'],6,0.15234460000010586,0.4,0,AccFast,23,18,Woman,Right,
39,11,1,1.0655083000001468,['c'],0,right,['9'],5,0.18491099999982907,0.1,0,AccFast,23,18,Woman,Right,
40,11,1,1.1171355000001313,['c'],1,left,['8'],4,0.20167540000011286,0.2,0,AccFast,23,18,Woman,Right,
41,11,1,1.0997355999998035,['n'],1,right,['0'],6,0.11837590000004639,0.4,0,AccFast,23,18,Woman,Right,
42,11,1,1.1158826000000772,['c'],1,left,['9'],5,0.16681249999965075,0.1,0,AccFast,23,18,Woman,Right,
43,11,1,2.4337178000000677,['n'],1,right,['9'],5,0.08542889999989711,0.1,0,AccFast,23,18,Woman,Right,
44,11,1,0.8012466000000131,['n'],0,left,['8'],4,0.10153410000020813,0.2,0,AccFast,23,18,Woman,Right,
45,11,1,1.233186299999943,['c'],1,left,['8'],4,0.16744269999981043,0.1,0,AccFast,23,18,Woman,Right,
46,11,1,1.3678994000001694,['c'],1,left,['3'],3,0.1845462999999654,0.4,0,AccFast,23,18,Woman,Right,
47,11,1,1.1001461999999265,['n'],1,right,['8'],4,0.13491879999992307,0.4,0,AccFast,23,18,Woman,Right,
48,11,1,1.3510832000001756,['c'],0,right,['8'],4,0.3999957999999424,0.2,0,AccFast,23,18,Woman,Right,
49,11,1,1.1660604000003332,['n'],1,right,['9'],5,0.1020515999998679,0.2,0,AccFast,23,18,Woman,Right,
50,11,1,1.3492412999999033,['c'],1,left,['9'],5,0.1688601999999264,0.1,0,AccFast,23,18,Woman,Right,
51,11,1,0.8014924999997675,['n'],1,right,['9'],5,0.13494649999984176,0.2,0,AccFast,23,18,Woman,Right,
52,11,1,0.7003716999997778,['n'],1,right,['9'],5,0.1354460000002291,0.1,0,AccFast,23,18,Woman,Right,
53,11,1,0.633769200000188,['c'],1,left,['9'],5,0.1668629000000692,0.2,0,AccFast,23,18,Woman,Right,
54,11,1,0.6013684999998077,['c'],1,left,['0'],6,0.13527299999987008,0.4,0,AccFast,23,18,Woman,Right,
55,11,1,1.0674974999997175,['n'],1,right,['8'],4,0.9846503999997367,0.1,0,AccFast,23,18,Woman,Right,
56,11,1,1.3174407999999858,['c'],1,left,['9'],5,0.23473599999988437,0.4,0,AccFast,23,18,Woman,Right,
57,11,1,1.4002509000001737,['c'],1,left,['9'],5,0.14943680000033055,0.2,0,AccFast,23,18,Woman,Right,
58,11,1,0.8183797000001505,['c'],1,left,['9'],5,0.1351433999998335,0.2,0,AccFast,23,18,Woman,Right,
59,11,1,0.7838925000000927,['n'],0,left,['0'],6,0.8514634000002843,0.1,0,AccFast,23,18,Woman,Right,
0,12,1,1.6167410000002747,['c'],1,left,['9'],5,1.018564200000128,0.2,0,AccAcc,23,18,Woman,Right,
1,12,1,1.6492061999997532,['n'],0,left,['8'],4,1.0851269999998294,0.1,0,AccAcc,23,18,Woman,Right,
2,12,1,1.0003046000001632,['c'],1,left,['9'],5,0.5847257000000354,0.4,0,AccAcc,23,18,Woman,Right,
3,12,1,1.5006586999998035,['c'],1,left,['0'],6,0.5514306000000033,0.4,0,AccAcc,23,18,Woman,Right,
4,12,1,1.68257820000008,['c'],1,left,['9'],5,0.43513350000011997,0.2,0,AccAcc,23,18,Woman,Right,
5,12,1,1.1842620999996143,['n'],1,right,['8'],4,0.7344514000001254,0.2,0,AccAcc,23,18,Woman,Right,
6,12,1,0.9001084999999875,['c'],1,left,['9'],5,0.8176742000000559,0.4,0,AccAcc,23,18,Woman,Right,
7,12,1,1.315805800000362,['n'],0,left,['8'],4,0.7842319000001226,0.1,0,AccAcc,23,18,Woman,Right,
8,12,1,0.9508998000001156,['c'],1,left,['9'],5,0.6342390999998315,0.2,0,AccAcc,23,18,Woman,Right,
9,12,1,1.1174120999999104,['c'],1,left,['9'],5,0.4680822000000262,0.4,0,AccAcc,23,18,Woman,Right,
10,12,1,2.2831244000003608,['n'],0,left,['3'],3,0.8009580000002643,0.1,0,AccAcc,23,18,Woman,Right,
11,12,1,1.0834012000000257,['c'],1,left,['8'],4,0.7859196999997948,0.2,0,AccAcc,23,18,Woman,Right,
12,12,1,2.4998591000003216,['c'],1,left,['3'],3,0.9507481000000553,0.1,0,AccAcc,23,18,Woman,Right,
13,12,1,2.2345735999997487,['c'],0,right,['8'],4,0.8334209999998166,0.2,0,AccAcc,23,18,Woman,Right,
14,12,1,1.650383800000327,['c'],0,right,['9'],5,0.5846408000002157,0.1,0,AccAcc,23,18,Woman,Right,
15,12,1,1.9843066999997063,['c'],1,left,['0'],6,1.867798700000094,0.1,0,AccAcc,23,18,Woman,Right,
16,12,1,1.550162200000159,['c'],0,right,['9'],5,0.5849637999999686,0.2,0,AccAcc,23,18,Woman,Right,
17,12,1,1.8320788999999422,['n'],1,right,['9'],5,1.2017992999999478,0.2,0,AccAcc,23,18,Woman,Right,
18,12,1,1.8155446999999185,['n'],1,right,['9'],5,0.6021339999997508,0.1,0,AccAcc,23,18,Woman,Right,
19,12,1,2.7497254999998404,['n'],0,left,['8'],4,0.8176105000002281,0.4,0,AccAcc,23,18,Woman,Right,
20,12,1,1.0677854999999,['c'],1,left,['9'],5,0.5847460999998475,0.2,0,AccAcc,23,18,Woman,Right,
21,12,1,1.3338713000002826,['c'],1,left,['9'],5,0.4351531000002069,0.2,0,AccAcc,23,18,Woman,Right,
22,12,1,1.1829702999998517,['c'],1,left,['0'],6,0.7346867999999631,0.4,0,AccAcc,23,18,Woman,Right,
23,12,1,0.8504101000003175,['c'],1,left,['9'],5,0.3174866000003931,0.4,0,AccAcc,23,18,Woman,Right,
24,12,1,0.9999269999998432,['c'],1,left,['8'],4,0.9010338999996748,0.2,0,AccAcc,23,18,Woman,Right,
25,12,1,1.0657592000002296,['n'],1,right,['9'],5,0.41765750000013213,0.4,0,AccAcc,23,18,Woman,Right,
26,12,1,1.0001742999997987,['c'],1,left,['3'],3,1.351292299999841,0.2,0,AccAcc,23,18,Woman,Right,
27,12,1,1.2338195000002088,['n'],1,right,['9'],5,0.43453150000004825,0.4,0,AccAcc,23,18,Woman,Right,
28,12,1,1.06661239999994,['n'],1,right,['9'],5,0.6512115000000449,0.4,0,AccAcc,23,18,Woman,Right,
29,12,1,0.9844938999999613,['n'],0,left,['9'],5,0.45133179999993445,0.2,0,AccAcc,23,18,Woman,Right,
30,12,1,1.1833960999997544,['n'],1,right,['9'],5,0.48364089999995485,0.4,0,AccAcc,23,18,Woman,Right,
31,12,1,1.2674990999998954,['n'],1,right,['0'],6,0.6513857999998436,0.4,0,AccAcc,23,18,Woman,Right,
32,12,1,1.0992082000002483,['n'],1,right,['8'],4,1.0021911000003456,0.2,0,AccAcc,23,18,Woman,Right,
33,12,1,2.8334066000002167,['n'],0,left,['9'],5,0.8013257000002341,0.2,0,AccAcc,23,18,Woman,Right,
34,12,1,2.3176017999999203,['n'],1,right,['8'],4,0.8848378000002413,0.1,0,AccAcc,23,18,Woman,Right,
35,12,1,1.6500569999998334,['n'],0,left,['9'],5,0.4679710000000341,0.1,0,AccAcc,23,18,Woman,Right,
36,12,1,1.8313125999998192,['n'],1,right,['8'],4,0.86754400000018,0.1,0,AccAcc,23,18,Woman,Right,
37,12,1,1.4010806999999659,['n'],0,left,['9'],5,0.7514355999996951,0.1,0,AccAcc,23,18,Woman,Right,
38,12,1,2.100856500000191,['n'],0,left,['3'],3,1.2512305000000197,0.4,0,AccAcc,23,18,Woman,Right,
39,12,1,2.1335010000002512,['c'],0,right,['3'],3,0.6687606999998934,0.1,0,AccAcc,23,18,Woman,Right,
40,12,1,1.3162758000003123,['c'],0,right,['3'],3,0.3182632000002741,0.1,0,AccAcc,23,18,Woman,Right,
41,12,1,1.466639700000087,['c'],1,left,['8'],4,0.8016066000000137,0.4,0,AccAcc,23,18,Woman,Right,
42,12,1,1.282818799999859,['c'],0,right,['8'],4,0.38490719999981593,0.4,0,AccAcc,23,18,Woman,Right,
43,12,1,0.9998606999997719,['c'],1,left,['9'],5,0.6021921999999904,0.2,0,AccAcc,23,18,Woman,Right,
44,12,1,1.0843384999998307,['n'],1,right,['8'],4,0.8846963000000869,0.4,0,AccAcc,23,18,Woman,Right,
45,12,1,1.065734799999973,['n'],1,right,['9'],5,0.3674228999998377,0.2,0,AccAcc,23,18,Woman,Right,
46,12,1,1.216611499999999,['n'],1,right,['8'],4,0.6014541999998073,0.2,0,AccAcc,23,18,Woman,Right,
47,12,1,1.1823660000000018,['n'],1,right,['8'],4,1.0512868000000708,0.1,0,AccAcc,23,18,Woman,Right,
48,12,1,1.1005282000000989,['c'],0,right,['3'],3,0.8012251000000106,0.1,0,AccAcc,23,18,Woman,Right,
49,12,1,1.0499190000000453,['c'],1,left,['8'],4,0.33646989999988364,0.1,0,AccAcc,23,18,Woman,Right,
50,12,1,2.317501500000162,['c'],0,right,['8'],4,0.783417499999814,0.1,0,AccAcc,23,18,Woman,Right,
51,12,1,1.8176235999999335,['n'],1,right,['8'],4,0.6846778000003724,0.4,0,AccAcc,23,18,Woman,Right,
52,12,1,1.449137300000075,['c'],0,right,['9'],5,0.5852497000000767,0.1,0,AccAcc,23,18,Woman,Right,
53,12,1,1.4662054999998873,['c'],0,right,['8'],4,0.36706610000010187,0.4,0,AccAcc,23,18,Woman,Right,
54,12,1,2.7821899999999005,['n'],1,right,['8'],4,0.7853906999998799,0.2,0,AccAcc,23,18,Woman,Right,
55,12,1,1.2177096999998867,['c'],0,right,['9'],5,0.8515632999997251,0.4,0,AccAcc,23,18,Woman,Right,
56,12,1,1.2343775999997888,['c'],1,left,['9'],5,1.0179435000000012,0.1,0,AccAcc,23,18,Woman,Right,
57,12,1,1.3996226999997816,['c'],0,right,['9'],5,0.6011131999998724,0.2,0,AccAcc,23,18,Woman,Right,
58,12,1,1.6340714999996635,['c'],0,right,['8'],4,0.8510105999998814,0.4,0,AccAcc,23,18,Woman,Right,
59,12,1,2.082849400000214,['c'],1,left,['9'],5,0.6669119000002866,0.1,0,AccAcc,23,18,Woman,Right,
0,13,1,0.5323395000000346,['c'],1,left,['9'],5,1.785837100000208,0.1,0,FastAcc,23,18,Woman,Right,
1,13,1,0.4998566000003848,['c'],0,right,['1'],1,1.317825200000243,0.4,0,FastAcc,23,18,Woman,Right,
2,13,1,0.9681214000002001,['n'],0,left,['0'],6,0.7679825999998684,0.1,0,FastAcc,23,18,Woman,Right,
3,13,1,0.4840002999999342,['c'],0,right,['2'],2,1.166944699999931,0.2,0,FastAcc,23,18,Woman,Right,
4,13,1,0.36737700000003315,['n'],1,right,['9'],5,1.618963899999926,0.1,0,FastAcc,23,18,Woman,Right,
5,13,1,0.3823287000000164,['n'],1,right,['9'],5,1.4839931000001343,0.1,0,FastAcc,23,18,Woman,Right,
6,13,1,0.582825700000285,['c'],0,right,['3'],3,1.0509976000003007,0.1,0,FastAcc,23,18,Woman,Right,
7,13,1,0.7515760000001137,['n'],1,right,['9'],5,1.2506319999997686,0.4,0,FastAcc,23,18,Woman,Right,
8,13,1,0.9513236000002507,['n'],1,right,['9'],5,0.4330915000000459,0.1,0,FastAcc,23,18,Woman,Right,
9,13,1,0.9005065000001196,['n'],1,right,['9'],5,0.7337757999998757,0.1,0,FastAcc,23,18,Woman,Right,
10,13,1,1.7985782999999174,['n'],1,right,['0'],6,2.468528900000365,0.2,0,FastAcc,23,18,Woman,Right,
11,13,1,0.8343975000002501,['n'],0,left,['8'],4,1.1513652000003276,0.2,0,FastAcc,23,18,Woman,Right,
12,13,1,0.45070769999983895,['c'],1,left,['9'],5,1.4515363000000434,0.2,0,FastAcc,23,18,Woman,Right,
13,13,1,0.43344230000002426,['c'],1,left,['8'],4,1.568330099999912,0.2,0,FastAcc,23,18,Woman,Right,
14,13,1,0.5340658000000076,['c'],0,right,['2'],2,1.0525241000000278,0.2,0,FastAcc,23,18,Woman,Right,
15,13,1,0.33419039999989764,['n'],0,left,['2'],2,1.2177139999998872,0.4,0,FastAcc,23,18,Woman,Right,
16,13,1,1.2003927000000658,['c'],1,left,['9'],5,0.8345429000000877,0.2,0,FastAcc,23,18,Woman,Right,
17,13,1,0.6671109999997498,['n'],1,right,['3'],3,1.7161710999998832,0.2,0,FastAcc,23,18,Woman,Right,
18,13,1,0.29943299999968076,['c'],0,right,['9'],5,2.1512651000002734,0.1,0,FastAcc,23,18,Woman,Right,
19,13,1,0.43480740000040896,['n'],1,right,['9'],5,0.8835844999998699,0.1,0,FastAcc,23,18,Woman,Right,
20,13,1,0.5002372999997533,['c'],1,left,['0'],6,1.0681958000000122,0.2,0,FastAcc,23,18,Woman,Right,
21,13,1,0.6161995000002207,['c'],1,left,['9'],5,1.8493803000001208,0.2,0,FastAcc,23,18,Woman,Right,
22,13,1,0.3676390000000538,['c'],0,right,['2'],2,1.2511900999998034,0.4,0,FastAcc,23,18,Woman,Right,
23,13,1,0.5166484999999739,['n'],1,right,['9'],5,1.3013926000003266,0.1,0,FastAcc,23,18,Woman,Right,
24,13,1,0.7325260000002345,['n'],1,right,['8'],4,1.0174275000003945,0.1,0,FastAcc,23,18,Woman,Right,
25,13,1,1.182497499999954,['n'],0,left,['8'],4,0.584199300000364,0.1,0,FastAcc,23,18,Woman,Right,
26,13,1,0.8679195999998228,['c'],0,right,['9'],5,0.484713499999998,0.1,0,FastAcc,23,18,Woman,Right,
27,13,1,1.116948599999887,['c'],0,right,['9'],5,0.21666730000015377,0.1,0,FastAcc,23,18,Woman,Right,
28,13,1,0.9002572999997938,['n'],1,right,['8'],4,1.4344397999998364,0.1,0,FastAcc,23,18,Woman,Right,
29,13,1,0.6335988999999245,['n'],1,right,['9'],5,0.4018074999999044,0.4,0,FastAcc,23,18,Woman,Right,
30,13,1,0.5335986000000048,['n'],1,right,['9'],5,0.234699499999806,0.4,0,FastAcc,23,18,Woman,Right,
31,13,1,0.9668541999999434,['c'],1,left,['2'],2,0.2515852999999879,0.4,0,FastAcc,23,18,Woman,Right,
32,13,1,0.48386519999985467,['c'],1,left,['9'],5,0.20123069999999643,0.1,0,FastAcc,23,18,Woman,Right,
33,13,1,2.032234399999652,['c'],0,right,['9'],5,2.3844233999998323,0.1,0,FastAcc,23,18,Woman,Right,
34,13,1,0.4999569999999949,['c'],1,left,['2'],2,1.5854849000002105,0.1,0,FastAcc,23,18,Woman,Right,
35,13,1,1.1649093000000903,['n'],1,right,['9'],5,4.218648600000051,0.2,0,FastAcc,23,18,Woman,Right,
36,13,1,0.6495460999999523,['c'],1,left,['0'],6,4.334309399999711,0.4,0,FastAcc,23,18,Woman,Right,
37,13,1,0.34838730000001306,['n'],1,right,['8'],4,4.284375900000214,0.4,0,FastAcc,23,18,Woman,Right,
38,13,1,0.43273080000017217,['c'],1,left,['9'],5,4.316414299999906,0.2,0,FastAcc,23,18,Woman,Right,
39,13,1,0.435709400000178,['c'],1,left,['8'],4,3.8676031999998486,0.2,0,FastAcc,23,18,Woman,Right,
40,13,1,0.600517200000013,['n'],1,right,['0'],6,2.9325865999999223,0.4,0,FastAcc,23,18,Woman,Right,
41,13,1,0.6178181000000222,['c'],1,left,['8'],4,3.767772100000002,0.4,0,FastAcc,23,18,Woman,Right,
42,13,1,0.4161432999999306,['c'],1,left,['8'],4,4.016576100000293,0.4,0,FastAcc,23,18,Woman,Right,
43,13,1,0.6991277000001901,['c'],1,left,['9'],5,3.4176911999998083,0.2,0,FastAcc,23,18,Woman,Right,
44,13,1,1.116219000000001,['n'],1,right,['0'],6,2.701893299999938,0.4,0,FastAcc,23,18,Woman,Right,
45,13,1,0.5006118000001152,['c'],1,left,['2'],2,3.0509766000000127,0.1,0,FastAcc,23,18,Woman,Right,
46,13,1,0.8662687999999434,['n'],0,left,['8'],4,2.1010713999999098,0.2,0,FastAcc,23,18,Woman,Right,
47,13,1,0.7662964000001011,['n'],0,left,['0'],6,1.534646800000246,0.2,0,FastAcc,23,18,Woman,Right,
48,13,1,0.7995551999997588,['c'],1,left,['8'],4,2.83462099999997,0.2,0,FastAcc,23,18,Woman,Right,
49,13,1,0.6170756999999867,['c'],1,left,['9'],5,2.2161802999999054,0.4,0,FastAcc,23,18,Woman,Right,
50,13,1,0.46842560000004596,['c'],0,right,['8'],4,1.616497100000288,0.2,0,FastAcc,23,18,Woman,Right,
51,13,1,0.6501780999997209,['c'],1,left,['8'],4,2.3999886000001425,0.4,0,FastAcc,23,18,Woman,Right,
52,13,1,0.5005449999998746,['n'],0,left,['2'],2,4.083905899999991,0.4,0,FastAcc,23,18,Woman,Right,
53,13,1,0.7669646999997894,['c'],1,left,['3'],3,3.517393799999809,0.4,0,FastAcc,23,18,Woman,Right,
54,13,1,0.8651922000003651,['n'],1,right,['9'],5,4.668784999999843,0.4,0,FastAcc,23,18,Woman,Right,
55,13,1,0.5330724999998893,['c'],1,left,['3'],3,3.700623799999903,0.4,0,FastAcc,23,18,Woman,Right,
56,13,1,0.2844454000000951,['n'],0,left,['9'],5,3.8157295000000886,0.2,0,FastAcc,23,18,Woman,Right,
57,13,1,0.7682226999995692,['n'],1,right,['1'],1,0.8680365000000165,0.2,0,FastAcc,23,18,Woman,Right,
58,13,1,0.6337333999999828,['n'],1,right,['9'],5,0.7181055000000924,0.4,0,FastAcc,23,18,Woman,Right,
59,13,1,0.7336690000001909,['c'],1,left,['2'],2,0.9179533999999876,0.1,0,FastAcc,23,18,Woman,Right,
0,14,1,1.28490150000016,['n'],1,right,['9'],5,0.36719240000002173,0.2,0,FastFast,23,18,Woman,Right,
1,14,1,0.6171460000000479,['c'],0,right,['2'],2,0.6514386999997441,0.2,0,FastFast,23,18,Woman,Right,
2,14,1,0.5341111000002456,['n'],0,left,['8'],4,0.15147070000011809,0.1,0,FastFast,23,18,Woman,Right,
3,14,1,0.6833050000000185,['n'],1,right,['8'],4,0.15194490000021688,0.2,0,FastFast,23,18,Woman,Right,
4,14,1,0.35024810000004436,['n'],0,left,['9'],5,0.10193519999984346,0.4,0,FastFast,23,18,Woman,Right,
5,14,1,0.5003133999998681,['c'],0,right,['2'],2,0.2184279000002789,0.4,0,FastFast,23,18,Woman,Right,
6,14,1,1.0994967999999972,['c'],1,left,['9'],5,0.3687936000001173,0.2,0,FastFast,23,18,Woman,Right,
7,14,1,0.5319525999998405,['c'],1,left,['9'],5,0.13619239999979982,0.1,0,FastFast,23,18,Woman,Right,
8,14,1,0.7498178999999254,['n'],1,right,['0'],6,0.2847169000001486,0.1,0,FastFast,23,18,Woman,Right,
9,14,1,0.3994132000002537,['n'],1,right,['9'],5,0.15179390000002968,0.2,0,FastFast,23,18,Woman,Right,
10,14,1,1.1673382000003585,['n'],1,right,['9'],5,0.2342782000000625,0.4,0,FastFast,23,18,Woman,Right,
11,14,1,0.8177048999996259,['n'],1,right,['0'],6,0.08503879999989294,0.1,0,FastFast,23,18,Woman,Right,
12,14,1,0.45029769999973723,['n'],0,left,['8'],4,0.2674016999999367,0.2,0,FastFast,23,18,Woman,Right,
13,14,1,0.5158179000000018,['c'],0,right,['3'],3,0.25118509999992966,0.2,0,FastFast,23,18,Woman,Right,
14,14,1,0.9172749999997905,['n'],0,left,"['9', '8']",5,0.1851027000002432,0.4,0,FastFast,23,18,Woman,Right,
15,14,1,0.4008063999999649,['n'],1,right,['8'],4,0.21807760000001508,0.4,0,FastFast,23,18,Woman,Right,
16,14,1,0.4663149000002704,['c'],0,right,['8'],4,0.18331130000024132,0.4,0,FastFast,23,18,Woman,Right,
17,14,1,0.33412570000018604,['n'],0,left,['9'],5,0.23487000000022817,0.1,0,FastFast,23,18,Woman,Right,
18,14,1,0.5335546999999679,['n'],0,left,['9'],5,0.21798519999993005,0.2,0,FastFast,23,18,Woman,Right,
19,14,1,0.683013899999878,['n'],1,right,['9'],5,0.1677306999999928,0.2,0,FastFast,23,18,Woman,Right,
20,14,1,0.7496989000001122,['n'],1,right,['9'],5,0.13506890000007843,0.4,0,FastFast,23,18,Woman,Right,
21,14,1,1.0838524999999208,['n'],1,right,['8'],4,0.25174139999990075,0.1,0,FastFast,23,18,Woman,Right,
22,14,1,0.8173210000004474,['c'],0,right,['0'],6,0.38409909999973024,0.1,0,FastFast,23,18,Woman,Right,
23,14,1,0.5174812000000202,['n'],0,left,['9'],5,0.06793779999998151,0.2,0,FastFast,23,18,Woman,Right,
24,14,1,0.5493219999998473,['n'],1,right,['8'],4,0.11807899999985239,0.1,0,FastFast,23,18,Woman,Right,
25,14,1,0.5843080999998165,['n'],0,left,['3'],3,0.06806550000010247,0.2,0,FastFast,23,18,Woman,Right,
26,14,1,0.9001929000000928,['c'],1,left,['8'],4,0.16757170000028054,0.2,0,FastFast,23,18,Woman,Right,
27,14,1,0.6174537000001692,['c'],0,right,['9'],5,0.1848027999999431,0.4,0,FastFast,23,18,Woman,Right,
28,14,1,0.7492175000002135,['n'],1,right,['9'],5,0.11899960000027932,0.1,0,FastFast,23,18,Woman,Right,
29,14,1,1.0995349999998325,['n'],0,left,['0'],6,0.13427450000017416,0.1,0,FastFast,23,18,Woman,Right,
30,14,1,0.4337451000001238,['c'],1,left,['8'],4,0.18468149999989691,0.4,0,FastFast,23,18,Woman,Right,
31,14,1,0.6491093000004184,['c'],1,left,['9'],5,0.3190884000000551,0.4,0,FastFast,23,18,Woman,Right,
32,14,1,0.4012153999997281,['n'],0,left,['9'],5,0.08472530000017287,0.1,0,FastFast,23,18,Woman,Right,
33,14,1,0.4003671000000395,['n'],0,left,['9'],5,0.051465700000335346,0.4,0,FastFast,23,18,Woman,Right,
34,14,1,0.4841292999999496,['n'],1,right,['8'],4,0.2349461999997402,0.4,0,FastFast,23,18,Woman,Right,
35,14,1,0.8663611000001765,['n'],0,left,['0'],6,0.2514013999998497,0.2,0,FastFast,23,18,Woman,Right,
36,14,1,0.7509946000000127,['n'],0,left,['3'],3,0.1512471999999434,0.1,0,FastFast,23,18,Woman,Right,
37,14,1,0.4492489999997815,['c'],0,right,['8'],4,0.13483169999972233,0.1,0,FastFast,23,18,Woman,Right,
38,14,1,0.5172600999999304,['n'],0,left,['9'],5,0.06787899999972069,0.4,0,FastFast,23,18,Woman,Right,
39,14,1,0.5495176999997966,['n'],1,right,['9'],5,0.11793429999988803,0.4,0,FastFast,23,18,Woman,Right,
40,14,1,0.5660746000003201,['n'],1,right,['0'],6,0.08459820000007312,0.2,0,FastFast,23,18,Woman,Right,
41,14,1,0.6505826999996316,['n'],0,left,['0'],6,0.11808250000012777,0.2,0,FastFast,23,18,Woman,Right,
42,14,1,0.8344683000000259,['c'],0,right,['3'],3,0.6014016999997693,0.2,0,FastFast,23,18,Woman,Right,
43,14,1,0.5170528999997259,['n'],1,right,['0'],6,0.06689520000008997,0.4,0,FastFast,23,18,Woman,Right,
44,14,1,1.5328506999999263,['c'],1,left,['8'],4,0.16815649999989546,0.4,0,FastFast,23,18,Woman,Right,
45,14,1,0.4833128999998735,['c'],1,left,['9'],5,0.11814589999994496,0.2,0,FastFast,23,18,Woman,Right,
46,14,1,0.8999297999998817,['n'],0,left,['9'],5,0.3847227000001112,0.1,0,FastFast,23,18,Woman,Right,
47,14,1,1.2827347999996164,['n'],0,left,['8'],4,0.06704330000002301,0.1,0,FastFast,23,18,Woman,Right,
48,14,1,0.7177922999999282,['c'],0,right,['8'],4,0.11750899999969988,0.1,0,FastFast,23,18,Woman,Right,
49,14,1,0.4341157999997449,['n'],0,left,['9'],5,0.06805500000018583,0.4,0,FastFast,23,18,Woman,Right,
50,14,1,0.6003391999997802,['c'],1,left,['0'],6,0.15176590000010037,0.1,0,FastFast,23,18,Woman,Right,
51,14,1,0.7002892000000429,['n'],1,right,['9'],5,0.051492700000380864,0.2,0,FastFast,23,18,Woman,Right,
52,14,1,0.9339022000003752,['n'],0,left,['8'],4,0.13501389999964886,0.1,0,FastFast,23,18,Woman,Right,
53,14,1,0.582499000000098,['n'],1,right,['9'],5,0.1525944999998501,0.1,0,FastFast,23,18,Woman,Right,
54,14,1,0.5998701999997138,['c'],0,right,['9'],5,0.18501960000003237,0.2,0,FastFast,23,18,Woman,Right,
55,14,1,1.1154348999998547,['c'],1,left,['0'],6,0.15089399999988018,0.4,0,FastFast,23,18,Woman,Right,
56,14,1,0.9183639999996558,['c'],1,left,['0'],6,0.08396139999968,0.1,0,FastFast,23,18,Woman,Right,
57,14,1,0.8003682999997181,['c'],0,right,['1'],1,0.8676110999999764,0.4,0,FastFast,23,18,Woman,Right,
58,14,1,0.7502239999998892,['n'],1,right,['8'],4,0.16760829999975613,0.4,0,FastFast,23,18,Woman,Right,
59,14,1,0.500745199999983,['n'],0,left,['2'],2,0.16808979999996154,0.2,0,FastFast,23,18,Woman,Right,
0,15,1,1.3675503999998,['n'],0,left,['9'],5,0.3177301000000625,0.4,0,AccFast,23,18,Woman,Right,
1,15,1,0.8821984000001066,['n'],1,right,['0'],6,0.1530625999998847,0.4,0,AccFast,23,18,Woman,Right,
2,15,1,1.150358899999901,['n'],1,right,['0'],6,0.09976599999981772,0.4,0,AccFast,23,18,Woman,Right,
3,15,1,2.2163642000000436,['c'],0,right,['0'],6,0.10173320000012609,0.1,0,AccFast,23,18,Woman,Right,
4,15,1,1.3010635000000548,['c'],1,left,['0'],6,0.284611600000062,0.2,0,AccFast,23,18,Woman,Right,
5,15,1,0.9498321999999462,['c'],1,left,['9'],5,0.1502341999998862,0.4,0,AccFast,23,18,Woman,Right,
6,15,1,1.0011720000002242,['c'],0,right,['8'],4,0.13473770000018703,0.1,0,AccFast,23,18,Woman,Right,
7,15,1,0.5838211000000229,['n'],1,right,['8'],4,0.16743250000035914,0.2,0,AccFast,23,18,Woman,Right,
8,15,1,0.48299169999972946,['n'],1,right,['9'],5,0.03573920000008002,0.4,0,AccFast,23,18,Woman,Right,
9,15,1,0.9007264000001669,['n'],0,left,['9'],5,0.8844880999999987,0.1,0,AccFast,23,18,Woman,Right,
10,15,1,0.9004737999998724,['c'],1,left,['9'],5,0.1181642000001375,0.1,0,AccFast,23,18,Woman,Right,
11,15,1,1.283972399999584,['n'],1,right,['9'],5,0.03488070000003063,0.4,0,AccFast,23,18,Woman,Right,
12,15,1,2.1163126000001284,['c'],1,left,['0'],6,0.08482179999964501,0.2,0,AccFast,23,18,Woman,Right,
13,15,1,1.9661244000003535,['n'],0,left,['9'],5,0.08507749999989755,0.1,0,AccFast,23,18,Woman,Right,
14,15,1,1.0493790999998964,['n'],0,left,['9'],5,0.08540270000003147,0.1,0,AccFast,23,18,Woman,Right,
15,15,1,1.4835559000002831,['c'],1,left,['0'],6,0.15053149999994275,0.2,0,AccFast,23,18,Woman,Right,
16,15,1,1.1341771000002154,['n'],1,right,['9'],5,0.11699850000013612,0.1,0,AccFast,23,18,Woman,Right,
17,15,1,1.2339232999997876,['c'],1,left,['0'],6,0.13461150000011912,0.4,0,AccFast,23,18,Woman,Right,
18,15,1,1.1332397000001038,['c'],1,left,['0'],6,0.10146340000028431,0.4,0,AccFast,23,18,Woman,Right,
19,15,1,2.199264999999741,['c'],0,right,['0'],6,0.034774600000218925,0.1,0,AccFast,23,18,Woman,Right,
20,15,1,1.684253500000068,['c'],0,right,['0'],6,0.15126899999995658,0.2,0,AccFast,23,18,Woman,Right,
21,15,1,1.2320717000002332,['c'],1,left,['9'],5,0.15072850000024118,0.2,0,AccFast,23,18,Woman,Right,
22,15,1,0.834291900000153,['c'],1,left,['8'],4,0.1502918999999565,0.4,0,AccFast,23,18,Woman,Right,
23,15,1,1.0342566000003899,['c'],1,left,['9'],5,0.13336370000024544,0.1,0,AccFast,23,18,Woman,Right,
24,15,1,1.0343038000000888,['n'],0,left,['9'],5,0.8012941000001774,0.2,0,AccFast,23,18,Woman,Right,
25,15,1,1.1323569000001044,['c'],1,left,['9'],5,0.11876359999996566,0.1,0,AccFast,23,18,Woman,Right,
26,15,1,1.083334399999785,['c'],0,right,['8'],4,0.14992190000020855,0.2,0,AccFast,23,18,Woman,Right,
27,15,1,0.9512316999998802,['n'],1,right,['9'],5,0.08490359999996144,0.1,0,AccFast,23,18,Woman,Right,
28,15,1,0.9686545999998089,['c'],0,right,['9'],5,0.16694890000007945,0.4,0,AccFast,23,18,Woman,Right,
29,15,1,0.8511668999999529,['c'],1,left,['9'],5,0.1340154999998049,0.1,0,AccFast,23,18,Woman,Right,
30,15,1,1.566913900000145,['c'],0,right,['8'],4,0.15032990000008795,0.2,0,AccFast,23,18,Woman,Right,
31,15,1,1.2337961000002906,['c'],0,right,['9'],5,0.10005850000015926,0.2,0,AccFast,23,18,Woman,Right,
32,15,1,1.1322516000000178,['c'],0,right,['8'],4,0.11739870000019437,0.1,0,AccFast,23,18,Woman,Right,
33,15,1,1.335378999999648,['c'],1,left,['8'],4,0.15138919999981226,0.2,0,AccFast,23,18,Woman,Right,
34,15,1,0.9335978999997678,['c'],0,right,['8'],4,0.1680943000001207,0.1,0,AccFast,23,18,Woman,Right,
35,15,1,0.7661929000000782,['c'],1,left,['8'],4,0.16812990000016725,0.1,0,AccFast,23,18,Woman,Right,
36,15,1,0.8168116000001646,['n'],1,right,['9'],5,0.16737400000010894,0.1,0,AccFast,23,18,Woman,Right,
37,15,1,1.1319671999999628,['c'],1,left,['9'],5,0.16936159999977463,0.4,0,AccFast,23,18,Woman,Right,
38,15,1,1.7334914999996727,['c'],1,left,['8'],4,0.18479320000005828,0.2,0,AccFast,23,18,Woman,Right,
39,15,1,1.2838417000002664,['n'],1,right,['9'],5,0.1665152999999009,0.4,0,AccFast,23,18,Woman,Right,
40,15,1,0.9009947999998076,['c'],1,left,['8'],4,0.2168415000001005,0.2,0,AccFast,23,18,Woman,Right,
41,15,1,0.7840739999996913,['n'],1,right,['9'],5,0.1512427999996362,0.4,0,AccFast,23,18,Woman,Right,
42,15,1,0.9340071999999964,['c'],1,left,['8'],4,0.184729999999945,0.4,0,AccFast,23,18,Woman,Right,
43,15,1,0.900804700000208,['n'],1,right,['9'],5,0.16844380000020465,0.4,0,AccFast,23,18,Woman,Right,
44,15,1,0.9176676000001862,['n'],1,right,['9'],5,0.1848045000001548,0.4,0,AccFast,23,18,Woman,Right,
45,15,1,1.284047499999815,['c'],0,right,['9'],5,0.13506150000011985,0.1,0,AccFast,23,18,Woman,Right,
46,15,1,1.8170782999995936,['c'],0,right,['9'],5,0.1517469999998866,0.1,0,AccFast,23,18,Woman,Right,
47,15,1,0.9508399000005738,['n'],1,right,['0'],6,0.18510239999977784,0.2,0,AccFast,23,18,Woman,Right,
48,15,1,1.3169409000001906,['n'],0,left,['3'],3,1.151622899999893,0.4,0,AccFast,23,18,Woman,Right,
49,15,1,1.683753400000569,['c'],1,left,['0'],6,0.2998224000002665,0.2,0,AccFast,23,18,Woman,Right,
50,15,1,1.2328820000002452,['c'],1,left,['0'],6,0.23503799999980401,0.4,0,AccFast,23,18,Woman,Right,
51,15,1,1.533189300000231,['n'],1,right,['8'],4,0.8856290000003355,0.2,0,AccFast,23,18,Woman,Right,
52,15,1,2.1321250000000873,['c'],1,left,['0'],6,0.13497409999945376,0.2,0,AccFast,23,18,Woman,Right,
53,15,1,1.8337618999994447,['n'],1,right,['9'],5,0.13396860000011657,0.4,0,AccFast,23,18,Woman,Right,
54,15,1,0.9161681000005046,['c'],1,left,['8'],4,0.18548550000014075,0.4,0,AccFast,23,18,Woman,Right,
55,15,1,1.183032699999785,['c'],1,left,['0'],6,0.16805370000020048,0.2,0,AccFast,23,18,Woman,Right,
56,15,1,1.4167709000003015,['n'],1,right,['8'],4,0.13479569999981322,0.2,0,AccFast,23,18,Woman,Right,
57,15,1,1.3657148000002053,['c'],1,left,['9'],5,0.13399590000062744,0.2,0,AccFast,23,18,Woman,Right,
58,15,1,1.7010534999999436,['n'],1,right,['0'],6,0.13469779999923048,0.1,0,AccFast,23,18,Woman,Right,
59,15,1,1.7011036000003514,['c'],0,right,['8'],4,0.11800099999982194,0.1,0,AccFast,23,18,Woman,Right,
