withinblocktrial,block,block_repetition,rt,resp,cor,cresp,conf_press,cj,rtconf,coherence,slow_trial,manipulation,sub,age,gender,handedness,
0,1,1,2.367057299999942,['n'],1,right,none,-99,-99,0.5,0,none,24,18,Woman,Right,
1,1,1,1.9840599999999995,['n'],1,right,none,-99,-99,0.5,0,none,24,18,Woman,Right,
2,1,1,0.7837917999997899,['c'],1,left,none,-99,-99,0.5,0,none,24,18,Woman,Right,
3,1,1,0.8336271000000579,['n'],0,left,none,-99,-99,0.5,0,none,24,18,Woman,Right,
4,1,1,1.3014376999999513,['c'],1,left,none,-99,-99,0.5,0,none,24,18,Woman,Right,
5,1,1,1.1681441000000632,['c'],1,left,none,-99,-99,0.5,0,none,24,18,Woman,Right,
6,1,1,3.101121599999942,['n'],0,left,none,-99,-99,0.5,0,none,24,18,Woman,Right,
7,1,1,1.1332512999999835,['c'],0,right,none,-99,-99,0.5,0,none,24,18,Woman,Right,
8,1,1,0.9674976999999672,['c'],1,left,none,-99,-99,0.5,0,none,24,18,Woman,Right,
9,1,1,0.8010983000001488,['n'],1,right,none,-99,-99,0.5,0,none,24,18,Woman,Right,
10,1,1,0.7842216999999891,['n'],1,right,none,-99,-99,0.5,0,none,24,18,Woman,Right,
11,1,1,1.0522467999999208,['c'],1,left,none,-99,-99,0.5,0,none,24,18,Woman,Right,
12,1,1,0.6668455999999878,['c'],1,left,none,-99,-99,0.5,0,none,24,18,Woman,Right,
13,1,1,0.9678839999999127,['c'],1,left,none,-99,-99,0.5,0,none,24,18,Woman,Right,
14,1,1,1.201735299999882,['n'],1,right,none,-99,-99,0.5,0,none,24,18,Woman,Right,
15,1,1,2.3502432000000226,['n'],1,right,none,-99,-99,0.5,0,none,24,18,Woman,Right,
16,1,1,0.9511402000000544,['c'],1,left,none,-99,-99,0.5,0,none,24,18,Woman,Right,
17,1,1,1.0341117999998914,['c'],1,left,none,-99,-99,0.5,0,none,24,18,Woman,Right,
18,1,1,0.9342693000000963,['c'],0,right,none,-99,-99,0.5,0,none,24,18,Woman,Right,
19,1,1,0.7010224000000562,['n'],1,right,none,-99,-99,0.5,0,none,24,18,Woman,Right,
20,1,1,0.6670034999999643,['n'],1,right,none,-99,-99,0.5,0,none,24,18,Woman,Right,
21,1,1,0.7338073000000804,['n'],0,left,none,-99,-99,0.5,0,none,24,18,Woman,Right,
22,1,1,0.7674285999999029,['n'],1,right,none,-99,-99,0.5,0,none,24,18,Woman,Right,
23,1,1,0.5664217999999437,['c'],0,right,none,-99,-99,0.5,0,none,24,18,Woman,Right,
0,1,2,1.317137300000013,['n'],1,right,none,-99,-99,0.5,0,none,24,18,Woman,Right,
1,1,2,0.68460970000001,['c'],0,right,none,-99,-99,0.5,0,none,24,18,Woman,Right,
2,1,2,0.8166231000000153,['c'],1,left,none,-99,-99,0.5,0,none,24,18,Woman,Right,
3,1,2,1.883473800000047,['n'],1,right,none,-99,-99,0.5,0,none,24,18,Woman,Right,
4,1,2,0.8669195999998465,['c'],1,left,none,-99,-99,0.5,0,none,24,18,Woman,Right,
5,1,2,2.5681227000000035,['c'],1,left,none,-99,-99,0.5,0,none,24,18,Woman,Right,
6,1,2,0.9334903000001304,['c'],1,left,none,-99,-99,0.5,0,none,24,18,Woman,Right,
7,1,2,1.3005820999999287,['n'],1,right,none,-99,-99,0.5,0,none,24,18,Woman,Right,
8,1,2,0.9669478999999228,['n'],1,right,none,-99,-99,0.5,0,none,24,18,Woman,Right,
9,1,2,0.9016368999998576,['c'],1,left,none,-99,-99,0.5,0,none,24,18,Woman,Right,
10,1,2,0.833972299999914,['c'],1,left,none,-99,-99,0.5,0,none,24,18,Woman,Right,
11,1,2,0.6353831999999784,['n'],1,right,none,-99,-99,0.5,0,none,24,18,Woman,Right,
12,1,2,0.9679329999999027,['c'],1,left,none,-99,-99,0.5,0,none,24,18,Woman,Right,
13,1,2,0.7842148000001998,['c'],1,left,none,-99,-99,0.5,0,none,24,18,Woman,Right,
14,1,2,1.449707799999942,['c'],0,right,none,-99,-99,0.5,0,none,24,18,Woman,Right,
15,1,2,0.8528263999999126,['n'],1,right,none,-99,-99,0.5,0,none,24,18,Woman,Right,
16,1,2,0.750048900000138,['n'],1,right,none,-99,-99,0.5,0,none,24,18,Woman,Right,
17,1,2,0.7507012999999461,['n'],1,right,none,-99,-99,0.5,0,none,24,18,Woman,Right,
18,1,2,0.6842255000001387,['n'],1,right,none,-99,-99,0.5,0,none,24,18,Woman,Right,
19,1,2,1.799618799999962,['c'],1,left,none,-99,-99,0.5,0,none,24,18,Woman,Right,
20,1,2,1.7013927999998941,['n'],1,right,none,-99,-99,0.5,0,none,24,18,Woman,Right,
21,1,2,1.167584700000134,['c'],1,left,none,-99,-99,0.5,0,none,24,18,Woman,Right,
22,1,2,0.7513129999999819,['c'],1,left,none,-99,-99,0.5,0,none,24,18,Woman,Right,
23,1,2,0.9996550000000752,['c'],1,left,none,-99,-99,0.5,0,none,24,18,Woman,Right,
0,2,1,0.9172946999999567,['n'],0,left,none,-99,-99,0.4,0,none,24,18,Woman,Right,
1,2,1,1.5525809999999183,['n'],1,right,none,-99,-99,0.1,0,none,24,18,Woman,Right,
2,2,1,1.2344388000001345,['n'],1,right,none,-99,-99,0.1,0,none,24,18,Woman,Right,
3,2,1,0.9012393999998949,['c'],1,left,none,-99,-99,0.2,0,none,24,18,Woman,Right,
4,2,1,0.6845327999999427,['c'],1,left,none,-99,-99,0.2,0,none,24,18,Woman,Right,
5,2,1,1.1010936000000129,['c'],0,right,none,-99,-99,0.4,0,none,24,18,Woman,Right,
6,2,1,0.8837166000000707,['c'],0,right,none,-99,-99,0.1,0,none,24,18,Woman,Right,
7,2,1,1.2999532000001182,['n'],1,right,none,-99,-99,0.2,0,none,24,18,Woman,Right,
8,2,1,1.067647599999873,['n'],1,right,none,-99,-99,0.2,0,none,24,18,Woman,Right,
9,2,1,1.1173231000000214,['n'],1,right,none,-99,-99,0.4,0,none,24,18,Woman,Right,
10,2,1,1.1341112000000066,['n'],1,right,none,-99,-99,0.4,0,none,24,18,Woman,Right,
11,2,1,1.05086150000011,['n'],1,right,none,-99,-99,0.1,0,none,24,18,Woman,Right,
12,2,1,0.6001412999999047,['c'],1,left,none,-99,-99,0.1,0,none,24,18,Woman,Right,
13,2,1,0.71698379999998,['c'],1,left,none,-99,-99,0.2,0,none,24,18,Woman,Right,
14,2,1,1.2505595999998604,['c'],1,left,none,-99,-99,0.2,0,none,24,18,Woman,Right,
15,2,1,0.4337628000000677,['n'],0,left,none,-99,-99,0.4,0,none,24,18,Woman,Right,
16,2,1,1.4006454000000303,['n'],1,right,none,-99,-99,0.2,0,none,24,18,Woman,Right,
17,2,1,1.0682894999999917,['n'],1,right,none,-99,-99,0.1,0,none,24,18,Woman,Right,
18,2,1,0.9503509000001031,['n'],0,left,none,-99,-99,0.4,0,none,24,18,Woman,Right,
19,2,1,0.9672680000001037,['c'],1,left,none,-99,-99,0.2,0,none,24,18,Woman,Right,
20,2,1,1.1670955000001868,['n'],0,left,none,-99,-99,0.1,0,none,24,18,Woman,Right,
21,2,1,0.7012230000000272,['n'],0,left,none,-99,-99,0.1,0,none,24,18,Woman,Right,
22,2,1,0.8666264000000865,['n'],0,left,none,-99,-99,0.4,0,none,24,18,Woman,Right,
23,2,1,0.9344885000000431,['c'],0,right,none,-99,-99,0.4,0,none,24,18,Woman,Right,
0,3,1,2.8498677000000043,['n'],1,right,['9'],2,1.9354307000000972,0.2,0,none,24,18,Woman,Right,
1,3,1,1.1172424000001229,['n'],1,right,['3'],4,0.9834084999999959,0.1,0,none,24,18,Woman,Right,
2,3,1,2.8007447999998476,['n'],1,right,['8'],3,3.5662580999999136,0.1,0,none,24,18,Woman,Right,
3,3,1,0.9345868000000337,['n'],1,right,['8'],3,1.3346397000000252,0.4,0,none,24,18,Woman,Right,
4,3,1,1.134360999999899,['n'],1,right,['2'],5,1.1178823000000193,0.4,0,none,24,18,Woman,Right,
5,3,1,1.7501887000000806,['n'],1,right,['8'],3,1.9514529999999013,0.2,0,none,24,18,Woman,Right,
6,3,1,1.317138200000045,['c'],1,left,['2'],5,0.7347291000000951,0.2,0,none,24,18,Woman,Right,
7,3,1,2.7009300000001986,['n'],0,left,['8'],3,1.9348100999998223,0.2,0,none,24,18,Woman,Right,
8,3,1,2.0501950999998826,['n'],0,left,['3'],4,1.0009155999998711,0.2,0,none,24,18,Woman,Right,
9,3,1,5.016134100000045,x,-99,right,none,-99,-99,0.2,1,none,24,18,Woman,Right,
10,3,1,0.6183496000001014,['n'],1,right,['8'],3,1.1014688000000206,0.4,0,none,24,18,Woman,Right,
11,3,1,0.9178718000000572,['c'],1,left,['2'],5,0.7169739000000845,0.1,0,none,24,18,Woman,Right,
12,3,1,1.8164816000000883,['n'],0,left,['8'],3,0.9841191000000435,0.1,0,none,24,18,Woman,Right,
13,3,1,2.267867199999955,['n'],0,left,['8'],3,0.6841633999999885,0.2,0,none,24,18,Woman,Right,
14,3,1,4.483634699999811,['n'],1,right,['8'],3,1.0345391000000745,0.1,0,none,24,18,Woman,Right,
15,3,1,1.200583300000062,['c'],1,left,['2'],5,0.58471899999995,0.4,0,none,24,18,Woman,Right,
16,3,1,1.7325452000000041,['n'],1,right,['8'],3,0.7009303999998338,0.4,0,none,24,18,Woman,Right,
17,3,1,1.1337166000000707,['n'],1,right,['3'],4,0.6347213999999894,0.2,0,none,24,18,Woman,Right,
18,3,1,0.6839906000000155,['n'],1,right,['3'],4,0.7340616999999838,0.4,0,none,24,18,Woman,Right,
19,3,1,1.584012600000051,['n'],0,left,['3'],4,0.9512977000001683,0.4,0,none,24,18,Woman,Right,
20,3,1,2.083121099999971,['n'],0,left,['8'],3,0.8684709999999995,0.1,0,none,24,18,Woman,Right,
21,3,1,1.2003901000000496,['n'],0,left,['2'],5,0.6331083000000035,0.4,0,none,24,18,Woman,Right,
22,3,1,1.2325273999999808,['c'],1,left,['2'],5,0.4855731000000105,0.1,0,none,24,18,Woman,Right,
23,3,1,1.7823283000000174,['n'],0,left,['8'],3,0.7863025999999991,0.1,0,none,24,18,Woman,Right,
0,4,1,1.4328840999999102,['n'],1,right,['3'],4,2.102242900000192,0.1,0,AccAcc,24,18,Woman,Right,
1,4,1,2.4004525000000285,['n'],0,left,['3'],4,1.2512818999998672,0.2,0,AccAcc,24,18,Woman,Right,
2,4,1,1.167600400000083,['c'],1,left,['2'],5,0.9515883999999915,0.2,0,AccAcc,24,18,Woman,Right,
3,4,1,3.3841231000001244,['c'],1,left,['2'],5,1.2183850999999777,0.2,0,AccAcc,24,18,Woman,Right,
4,4,1,5.015920000000051,x,-99,left,none,-99,-99,0.1,1,AccAcc,24,18,Woman,Right,
5,4,1,0.8180494999999155,['n'],0,left,['8'],3,1.2681003000000146,0.2,0,AccAcc,24,18,Woman,Right,
6,4,1,1.133832400000074,['n'],1,right,['8'],3,0.6182510000001002,0.2,0,AccAcc,24,18,Woman,Right,
7,4,1,2.0834434000000783,['n'],0,left,['8'],3,1.3678551000000425,0.1,0,AccAcc,24,18,Woman,Right,
8,4,1,3.733142700000144,['c'],1,left,['2'],5,0.5016115000000809,0.1,0,AccAcc,24,18,Woman,Right,
9,4,1,2.281997199999978,['c'],0,right,['3'],4,0.5352361000000201,0.4,0,AccAcc,24,18,Woman,Right,
10,4,1,2.9520462000000407,['n'],0,left,['8'],3,2.3012099000000035,0.1,0,AccAcc,24,18,Woman,Right,
11,4,1,2.2007567000000563,['n'],0,left,['8'],3,0.5331049000001258,0.1,0,AccAcc,24,18,Woman,Right,
12,4,1,2.6673088999998527,['n'],1,right,['3'],4,0.967374800000016,0.2,0,AccAcc,24,18,Woman,Right,
13,4,1,3.516971799999965,['c'],0,right,['3'],4,0.601534299999912,0.1,0,AccAcc,24,18,Woman,Right,
14,4,1,2.03278279999995,['c'],0,right,['3'],4,0.3849182000001292,0.4,0,AccAcc,24,18,Woman,Right,
15,4,1,2.349037599999974,['n'],0,left,['8'],3,0.6355883000001086,0.2,0,AccAcc,24,18,Woman,Right,
16,4,1,3.4162158999999974,['c'],0,right,['3'],4,0.4846955999998954,0.1,0,AccAcc,24,18,Woman,Right,
17,4,1,3.150447600000007,['c'],1,left,['3'],4,0.4346328999999969,0.2,0,AccAcc,24,18,Woman,Right,
18,4,1,1.3013467000000674,['n'],0,left,['8'],3,0.6847903000000315,0.1,0,AccAcc,24,18,Woman,Right,
19,4,1,1.333582799999931,['n'],1,right,['3'],4,0.8680415999999695,0.4,0,AccAcc,24,18,Woman,Right,
20,4,1,0.9163671999999679,['n'],1,right,['2'],5,0.61819289999994,0.4,0,AccAcc,24,18,Woman,Right,
21,4,1,1.4004480999999487,['n'],1,right,['3'],4,1.0832275000000209,0.2,0,AccAcc,24,18,Woman,Right,
22,4,1,0.8838347999999314,['n'],1,right,['1'],6,1.184504600000082,0.4,0,AccAcc,24,18,Woman,Right,
23,4,1,3.1981334999998126,['c'],0,right,['2'],5,1.9693821000000753,0.4,0,AccAcc,24,18,Woman,Right,
24,4,1,1.282164400000056,['c'],1,left,['3'],4,0.6865453000000343,0.4,0,AccAcc,24,18,Woman,Right,
25,4,1,0.8828743000001396,['n'],1,right,['9'],2,0.8337461000000985,0.4,0,AccAcc,24,18,Woman,Right,
26,4,1,1.0174729000000298,['n'],0,left,['8'],3,0.968147799999997,0.1,0,AccAcc,24,18,Woman,Right,
27,4,1,1.733153399999992,['n'],1,right,['3'],4,0.9180458000000726,0.1,0,AccAcc,24,18,Woman,Right,
28,4,1,1.183710999999903,['n'],0,left,['3'],4,0.4682292999998481,0.2,0,AccAcc,24,18,Woman,Right,
29,4,1,0.8996730000001207,['n'],0,left,['3'],4,0.5010517000000618,0.2,0,AccAcc,24,18,Woman,Right,
30,4,1,1.333874200000082,['n'],1,right,['2'],5,0.7679636000000301,0.4,0,AccAcc,24,18,Woman,Right,
31,4,1,1.0672167999998692,['c'],1,left,['1'],6,0.5848352999998951,0.4,0,AccAcc,24,18,Woman,Right,
32,4,1,1.0659524999998666,['c'],0,right,['1'],6,0.5526155000000017,0.4,0,AccAcc,24,18,Woman,Right,
33,4,1,1.2178799000000708,['c'],1,left,['2'],5,0.5677719000000252,0.2,0,AccAcc,24,18,Woman,Right,
34,4,1,1.0170034000000214,['n'],1,right,['9'],2,0.5845727999999326,0.1,0,AccAcc,24,18,Woman,Right,
35,4,1,1.4335369999998875,['c'],0,right,['3'],4,1.0346878999998808,0.1,0,AccAcc,24,18,Woman,Right,
36,4,1,2.4837059999999838,['n'],1,right,['9'],2,1.4681419999999434,0.1,0,AccAcc,24,18,Woman,Right,
37,4,1,1.1175140000000283,['c'],1,left,['2'],5,0.5681761999999253,0.4,0,AccAcc,24,18,Woman,Right,
38,4,1,1.1987183999999615,['n'],1,right,['2'],5,0.46916910000004464,0.2,0,AccAcc,24,18,Woman,Right,
39,4,1,1.0167421999999533,['c'],1,left,['1'],6,0.751871299999948,0.4,0,AccAcc,24,18,Woman,Right,
40,4,1,0.9326223000000482,['c'],1,left,['1'],6,0.6836918000001333,0.2,0,AccAcc,24,18,Woman,Right,
41,4,1,1.1999859000000015,['c'],0,right,['1'],6,0.4341154999999617,0.1,0,AccAcc,24,18,Woman,Right,
42,4,1,0.7511066999998093,['c'],0,right,['2'],5,0.4017028999999184,0.4,0,AccAcc,24,18,Woman,Right,
43,4,1,1.066820000000007,['c'],0,right,['2'],5,0.4181943000000956,0.2,0,AccAcc,24,18,Woman,Right,
44,4,1,1.0664860000001681,['c'],1,left,['1'],6,0.9190601000000242,0.2,0,AccAcc,24,18,Woman,Right,
45,4,1,0.9344714999999724,['c'],1,left,['1'],6,0.7502323999999589,0.1,0,AccAcc,24,18,Woman,Right,
46,4,1,0.9338546999999835,['c'],1,left,['2'],5,0.5680548000000272,0.2,0,AccAcc,24,18,Woman,Right,
47,4,1,0.9331689000000551,['c'],1,left,['2'],5,0.5679232999998476,0.4,0,AccAcc,24,18,Woman,Right,
48,4,1,0.8004935999999816,['c'],0,right,['2'],5,0.7012483999999404,0.2,0,AccAcc,24,18,Woman,Right,
49,4,1,0.7504215000001295,['c'],1,left,['2'],5,0.5344674000000396,0.4,0,AccAcc,24,18,Woman,Right,
50,4,1,0.8835954000001038,['c'],1,left,['2'],5,0.7679422000001068,0.4,0,AccAcc,24,18,Woman,Right,
51,4,1,1.383639599999924,['c'],0,right,['2'],5,0.5354769000000488,0.4,0,AccAcc,24,18,Woman,Right,
52,4,1,3.483429200000046,['c'],0,right,['2'],5,0.7347313999998732,0.2,0,AccAcc,24,18,Woman,Right,
53,4,1,0.9150422000000162,['c'],1,left,['2'],5,0.434270799999922,0.4,0,AccAcc,24,18,Woman,Right,
54,4,1,0.9016897999999856,['n'],1,right,['3'],4,1.5847041999998055,0.1,0,AccAcc,24,18,Woman,Right,
55,4,1,1.4675975000000108,['n'],0,left,['2'],5,0.5683755000000019,0.1,0,AccAcc,24,18,Woman,Right,
56,4,1,1.7677902000000358,['c'],1,left,['2'],5,0.3347854000001007,0.1,0,AccAcc,24,18,Woman,Right,
57,4,1,0.9493589999999585,['c'],0,right,['2'],5,0.35222490000001017,0.4,0,AccAcc,24,18,Woman,Right,
58,4,1,0.9336981999999807,['c'],0,right,['2'],5,0.48426160000008167,0.1,0,AccAcc,24,18,Woman,Right,
59,4,1,1.0839518999998745,['c'],0,right,['1'],6,0.401533900000004,0.2,0,AccAcc,24,18,Woman,Right,
0,5,1,0.9679055999999946,['c'],1,left,['2'],5,0.9011802999998508,0.1,0,FastAcc,24,18,Woman,Right,
1,5,1,1.0339406000000508,['c'],1,left,['2'],5,0.3172054000001481,0.1,0,FastAcc,24,18,Woman,Right,
2,5,1,0.8666315000000395,['c'],0,right,['1'],6,0.7170299000001705,0.2,0,FastAcc,24,18,Woman,Right,
3,5,1,0.8676645999998982,['c'],1,left,['1'],6,0.2513748999999734,0.2,0,FastAcc,24,18,Woman,Right,
4,5,1,1.0844564999999875,['c'],1,left,['1'],6,0.2512432999999419,0.4,0,FastAcc,24,18,Woman,Right,
5,5,1,0.6837477999999919,['c'],0,right,['1'],6,0.30073520000019016,0.1,0,FastAcc,24,18,Woman,Right,
6,5,1,0.9825568000001113,['c'],1,left,['2'],5,0.4185508000000482,0.2,0,FastAcc,24,18,Woman,Right,
7,5,1,0.5008259999999609,['c'],0,right,['3'],4,1.3010930000000371,0.1,0,FastAcc,24,18,Woman,Right,
8,5,1,1.815976399999954,['c'],0,right,['0'],1,1.6012547000000268,0.1,0,FastAcc,24,18,Woman,Right,
9,5,1,0.7671258000000307,['c'],1,left,['2'],5,0.6515251000000717,0.2,0,FastAcc,24,18,Woman,Right,
10,5,1,0.8159209000000374,['n'],0,left,['8'],3,1.0340484999999262,0.1,0,FastAcc,24,18,Woman,Right,
11,5,1,1.0001317999999628,['n'],1,right,['9'],2,1.1677032000000054,0.2,0,FastAcc,24,18,Woman,Right,
12,5,1,2.7500711000000138,['n'],1,right,['2'],5,1.6856457000001228,0.4,0,FastAcc,24,18,Woman,Right,
13,5,1,1.3674172999999428,['n'],1,right,['1'],6,0.7515802999998868,0.2,0,FastAcc,24,18,Woman,Right,
14,5,1,0.8163236999998844,['n'],1,right,['1'],6,0.3683811999999307,0.2,0,FastAcc,24,18,Woman,Right,
15,5,1,1.4661625999999615,['c'],0,right,['9'],2,1.2352458999998817,0.4,0,FastAcc,24,18,Woman,Right,
16,5,1,0.7504725999999664,['n'],0,left,['3'],4,0.4348588000000291,0.4,0,FastAcc,24,18,Woman,Right,
17,5,1,0.9170676999999614,['n'],1,right,['3'],4,0.28384540000001834,0.2,0,FastAcc,24,18,Woman,Right,
18,5,1,0.9505126999999902,['n'],1,right,['2'],5,0.36807629999998426,0.4,0,FastAcc,24,18,Woman,Right,
19,5,1,1.6507340000000568,['n'],0,left,['2'],5,0.4356020999998691,0.2,0,FastAcc,24,18,Woman,Right,
20,5,1,0.9174029000000701,['n'],0,left,['2'],5,0.2846994999999879,0.2,0,FastAcc,24,18,Woman,Right,
21,5,1,0.7673112999998466,['n'],0,left,['2'],5,0.23479380000003403,0.4,0,FastAcc,24,18,Woman,Right,
22,5,1,0.7998095999998895,['n'],0,left,['2'],5,0.40209010000012313,0.2,0,FastAcc,24,18,Woman,Right,
23,5,1,0.7672359000000597,['n'],1,right,['2'],5,0.43492639999999483,0.2,0,FastAcc,24,18,Woman,Right,
24,5,1,0.9009846999999809,['n'],0,left,['2'],5,0.7015521999999237,0.1,0,FastAcc,24,18,Woman,Right,
25,5,1,0.6338199000001623,['n'],0,left,['2'],5,0.3849032000000534,0.2,0,FastAcc,24,18,Woman,Right,
26,5,1,0.8171621999999843,['n'],1,right,['2'],5,0.3847944000001462,0.4,0,FastAcc,24,18,Woman,Right,
27,5,1,0.533965999999964,['n'],1,right,['2'],5,0.4667782999999872,0.4,0,FastAcc,24,18,Woman,Right,
28,5,1,0.5676548999999795,['n'],0,left,['2'],5,0.35151509999991504,0.1,0,FastAcc,24,18,Woman,Right,
29,5,1,1.332616299999927,['c'],1,left,['2'],5,0.4183150999999725,0.1,0,FastAcc,24,18,Woman,Right,
30,5,1,0.8668877999998585,['n'],1,right,['2'],5,1.2353003000000626,0.4,0,FastAcc,24,18,Woman,Right,
31,5,1,0.9507997999999134,['n'],1,right,['2'],5,0.4514169999999922,0.4,0,FastAcc,24,18,Woman,Right,
32,5,1,1.5500641000000996,['n'],1,right,['1'],6,0.5680439999998725,0.2,0,FastAcc,24,18,Woman,Right,
33,5,1,0.6166860999999244,['n'],1,right,['1'],6,0.3183612999998786,0.2,0,FastAcc,24,18,Woman,Right,
34,5,1,0.6001529999998638,['c'],1,left,['1'],6,0.2513463000000229,0.1,0,FastAcc,24,18,Woman,Right,
35,5,1,1.9492158999998992,['n'],0,left,['0'],1,1.3519498999999087,0.4,0,FastAcc,24,18,Woman,Right,
36,5,1,2.1338575999998284,['n'],0,left,['8'],3,0.9014018999998825,0.2,0,FastAcc,24,18,Woman,Right,
37,5,1,1.0843856000001324,['n'],1,right,['1'],6,0.817898699999887,0.4,0,FastAcc,24,18,Woman,Right,
38,5,1,0.7845037000001867,['n'],1,right,['2'],5,0.36738000000013926,0.1,0,FastAcc,24,18,Woman,Right,
39,5,1,1.5180335999998533,['n'],0,left,['3'],4,0.9516530000000785,0.1,0,FastAcc,24,18,Woman,Right,
40,5,1,0.8666972000000897,['n'],1,right,['3'],4,1.9513226999999915,0.2,0,FastAcc,24,18,Woman,Right,
41,5,1,1.4336120000000392,['c'],0,right,['3'],4,0.5346709000000374,0.1,0,FastAcc,24,18,Woman,Right,
42,5,1,0.8167296999999962,['n'],0,left,['1'],6,0.5341605000000982,0.4,0,FastAcc,24,18,Woman,Right,
43,5,1,1.416661200000135,['c'],1,left,['1'],6,0.60070050000013,0.4,0,FastAcc,24,18,Woman,Right,
44,5,1,1.8009750000001077,['c'],1,left,['1'],6,0.5161732999999913,0.4,0,FastAcc,24,18,Woman,Right,
45,5,1,1.0009752999999364,['n'],1,right,['0'],1,0.4012625999998818,0.2,0,FastAcc,24,18,Woman,Right,
46,5,1,0.9168475999999828,['n'],1,right,['0'],1,0.36749349999990955,0.2,0,FastAcc,24,18,Woman,Right,
47,5,1,1.0338126999999986,['c'],1,left,['1'],6,0.46799429999987296,0.1,0,FastAcc,24,18,Woman,Right,
48,5,1,1.20026299999995,['c'],0,right,['1'],6,0.4345479000000978,0.1,0,FastAcc,24,18,Woman,Right,
49,5,1,1.0831787000001896,['c'],1,left,['1'],6,0.36714859999983673,0.4,0,FastAcc,24,18,Woman,Right,
50,5,1,1.0511695000000145,['c'],1,left,['1'],6,0.30149260000007416,0.1,0,FastAcc,24,18,Woman,Right,
51,5,1,1.3151424000000134,['c'],1,left,['1'],6,0.3517371999998886,0.1,0,FastAcc,24,18,Woman,Right,
52,5,1,1.3835084999998344,['n'],1,right,['0'],1,0.5183976999999231,0.2,0,FastAcc,24,18,Woman,Right,
53,5,1,0.883136899999954,['n'],1,right,['0'],1,0.4015627000001132,0.4,0,FastAcc,24,18,Woman,Right,
54,5,1,2.0488192999998773,['c'],1,left,['1'],6,0.8018753000001198,0.1,0,FastAcc,24,18,Woman,Right,
55,5,1,0.950578600000199,['c'],0,right,['1'],6,0.3182133000000249,0.1,0,FastAcc,24,18,Woman,Right,
56,5,1,0.8500665000001391,['c'],1,left,['1'],6,0.18508040000006076,0.4,0,FastAcc,24,18,Woman,Right,
57,5,1,0.9170321999999942,['c'],0,right,['1'],6,0.23470309999993333,0.4,0,FastAcc,24,18,Woman,Right,
58,5,1,1.1983784999999898,['c'],1,left,['1'],6,0.3192816999999195,0.4,0,FastAcc,24,18,Woman,Right,
59,5,1,0.8825009999998201,['c'],0,right,['1'],6,0.3191095999998197,0.1,0,FastAcc,24,18,Woman,Right,
0,6,1,1.2675798000000214,['c'],1,left,['1'],6,0.3345593000001372,0.2,0,FastFast,24,18,Woman,Right,
1,6,1,1.8673819000000549,['n'],1,right,['1'],6,0.3842269000001579,0.1,0,FastFast,24,18,Woman,Right,
2,6,1,0.9496455999999398,['n'],1,right,['3'],4,0.3350663999999597,0.2,0,FastFast,24,18,Woman,Right,
3,6,1,0.8330957000000581,['c'],1,left,['1'],6,0.3169319999999516,0.4,0,FastFast,24,18,Woman,Right,
4,6,1,0.9345111999998608,['n'],1,right,['8'],3,0.6178229999998166,0.1,0,FastFast,24,18,Woman,Right,
5,6,1,1.0503936000000067,['c'],1,left,['1'],6,0.30206729999986237,0.2,0,FastFast,24,18,Woman,Right,
6,6,1,0.9999327999998968,['c'],1,left,['1'],6,0.2344166000000314,0.4,0,FastFast,24,18,Woman,Right,
7,6,1,1.1008048999999573,['n'],0,left,['8'],3,0.38441100000000006,0.4,0,FastFast,24,18,Woman,Right,
8,6,1,1.2174457000000984,['n'],0,left,['3'],4,0.30012329999999565,0.2,0,FastFast,24,18,Woman,Right,
9,6,1,1.067908700000089,['n'],1,right,['1'],6,0.46818949999988035,0.4,0,FastFast,24,18,Woman,Right,
10,6,1,0.9342779999999493,['n'],1,right,['1'],6,0.2017195000000811,0.4,0,FastFast,24,18,Woman,Right,
11,6,1,1.566971599999988,['n'],1,right,['8'],3,0.40223279999986516,0.1,0,FastFast,24,18,Woman,Right,
12,6,1,1.7998445999999149,['n'],0,left,['8'],3,0.23439170000006015,0.4,0,FastFast,24,18,Woman,Right,
13,6,1,1.514844499999981,['c'],1,left,['1'],6,0.2510757999998532,0.1,0,FastFast,24,18,Woman,Right,
14,6,1,1.4164777999999387,['n'],1,right,['8'],3,0.3684728000000632,0.1,0,FastFast,24,18,Woman,Right,
15,6,1,1.6012680999999702,['n'],0,left,['2'],5,0.5352818999999727,0.2,0,FastFast,24,18,Woman,Right,
16,6,1,0.7502163000001474,['n'],0,left,['2'],5,0.2994451999998091,0.2,0,FastFast,24,18,Woman,Right,
17,6,1,0.6339551999999458,['n'],0,left,['3'],4,0.21970199999987017,0.1,0,FastFast,24,18,Woman,Right,
18,6,1,0.950337399999853,['c'],1,left,['2'],5,0.3185393000001113,0.4,0,FastFast,24,18,Woman,Right,
19,6,1,0.8503763999999592,['c'],1,left,['1'],6,0.23430030000008628,0.2,0,FastFast,24,18,Woman,Right,
20,6,1,0.5839048000000275,['c'],1,left,['1'],6,0.4013754999998582,0.2,0,FastFast,24,18,Woman,Right,
21,6,1,0.8988080999997692,['n'],1,right,['1'],6,0.5175797000001694,0.4,0,FastFast,24,18,Woman,Right,
22,6,1,0.9678532000002633,['c'],0,right,['1'],6,0.31818989999965197,0.1,0,FastFast,24,18,Woman,Right,
23,6,1,1.6663289999996778,['c'],1,left,['2'],5,0.6181163000001106,0.2,0,FastFast,24,18,Woman,Right,
24,6,1,0.8842242000000624,['n'],1,right,['1'],6,0.2851362999999765,0.4,0,FastFast,24,18,Woman,Right,
25,6,1,0.6998896999998578,['c'],0,right,['1'],6,0.20125860000007378,0.4,0,FastFast,24,18,Woman,Right,
26,6,1,0.6670070000000123,['n'],0,left,['1'],6,0.3835331000000224,0.4,0,FastFast,24,18,Woman,Right,
27,6,1,1.167598800000178,['n'],0,left,['2'],5,0.3848508999999467,0.2,0,FastFast,24,18,Woman,Right,
28,6,1,0.8835671000001639,['n'],0,left,['2'],5,0.3014075999999477,0.1,0,FastFast,24,18,Woman,Right,
29,6,1,1.567423399999825,['c'],0,right,['8'],3,0.6521828999998434,0.2,0,FastFast,24,18,Woman,Right,
30,6,1,0.8005947999999989,['n'],0,left,['1'],6,0.36810620000005656,0.1,0,FastFast,24,18,Woman,Right,
31,6,1,0.9830587000001287,['n'],1,right,['2'],5,0.5679317999997693,0.1,0,FastFast,24,18,Woman,Right,
32,6,1,1.383644600000025,['c'],1,left,['1'],6,0.5332330000001093,0.4,0,FastFast,24,18,Woman,Right,
33,6,1,1.4848296999998638,['n'],1,right,['1'],6,0.9339660999999069,0.2,0,FastFast,24,18,Woman,Right,
34,6,1,0.8506352000003972,['n'],1,right,['0'],1,0.7834573000000091,0.4,0,FastFast,24,18,Woman,Right,
35,6,1,0.8676657000000887,['n'],0,left,['0'],1,0.4174026999999114,0.4,0,FastFast,24,18,Woman,Right,
36,6,1,0.6005251000001408,['n'],1,right,['1'],6,0.25129629999992176,0.4,0,FastFast,24,18,Woman,Right,
37,6,1,0.8506680000000415,['n'],0,left,['1'],6,0.21795420000034937,0.2,0,FastFast,24,18,Woman,Right,
38,6,1,0.6497047000002567,['c'],0,right,['1'],6,0.21815030000016122,0.1,0,FastFast,24,18,Woman,Right,
39,6,1,0.7171447000000626,['c'],0,right,['1'],6,0.25007959999993545,0.2,0,FastFast,24,18,Woman,Right,
40,6,1,0.6325990999998794,['n'],1,right,['1'],6,0.21958419999964462,0.4,0,FastFast,24,18,Woman,Right,
41,6,1,1.1995950000000448,['n'],1,right,['8'],3,0.3026553999998214,0.1,0,FastFast,24,18,Woman,Right,
42,6,1,0.7841584000002513,['n'],0,left,['1'],6,0.2014156999998704,0.2,0,FastFast,24,18,Woman,Right,
43,6,1,0.6835076000002118,['n'],1,right,['1'],6,0.5355848000003789,0.1,0,FastFast,24,18,Woman,Right,
44,6,1,1.1002154999996492,['c'],0,right,['1'],6,0.25049940000008064,0.2,0,FastFast,24,18,Woman,Right,
45,6,1,0.8836966999997458,['n'],1,right,['1'],6,0.3846284999999625,0.1,0,FastFast,24,18,Woman,Right,
46,6,1,1.0671173999999155,['n'],0,left,['1'],6,0.3015061000000969,0.1,0,FastFast,24,18,Woman,Right,
47,6,1,1.3320146999999452,['n'],0,left,['2'],5,0.5356497000002491,0.1,0,FastFast,24,18,Woman,Right,
48,6,1,1.0492127000002256,['n'],1,right,['3'],4,0.3188884000001053,0.2,0,FastFast,24,18,Woman,Right,
49,6,1,2.8842217999999775,['n'],0,left,['3'],4,0.6677777999998398,0.4,0,FastFast,24,18,Woman,Right,
50,6,1,3.233496500000001,['c'],1,left,['2'],5,0.33387569999968036,0.4,0,FastFast,24,18,Woman,Right,
51,6,1,2.4823946000001342,['n'],1,right,['2'],5,0.3521515000002182,0.1,0,FastFast,24,18,Woman,Right,
52,6,1,1.0836982999999236,['n'],0,left,['8'],3,0.28490130000000136,0.4,0,FastFast,24,18,Woman,Right,
53,6,1,1.0002181999998356,['c'],1,left,['3'],4,0.38476760000003196,0.2,0,FastFast,24,18,Woman,Right,
54,6,1,0.83383909999975,['n'],1,right,['8'],3,0.7685145000000375,0.1,0,FastFast,24,18,Woman,Right,
55,6,1,0.4338551999999254,['c'],0,right,['3'],4,0.19987190000028932,0.2,0,FastFast,24,18,Woman,Right,
56,6,1,0.8840089000000262,['n'],1,right,['8'],3,0.4848485000002256,0.1,0,FastFast,24,18,Woman,Right,
57,6,1,0.9831242000000202,['n'],1,right,['1'],6,0.28436969999984285,0.2,0,FastFast,24,18,Woman,Right,
58,6,1,1.265771500000028,['c'],0,right,['1'],6,0.15101159999994707,0.1,0,FastFast,24,18,Woman,Right,
59,6,1,0.6521733999998105,['c'],1,left,['1'],6,0.10182920000033846,0.4,0,FastFast,24,18,Woman,Right,
0,7,1,1.48408900000004,['c'],0,right,['1'],6,0.30164849999982835,0.2,0,AccFast,24,18,Woman,Right,
1,7,1,1.267170300000089,['n'],0,left,['0'],1,0.2843846000000667,0.1,0,AccFast,24,18,Woman,Right,
2,7,1,1.3167671000001064,['c'],1,left,['1'],6,0.2347979999999552,0.1,0,AccFast,24,18,Woman,Right,
3,7,1,1.4339012000000366,['c'],1,left,['1'],6,0.3179850000001352,0.1,0,AccFast,24,18,Woman,Right,
4,7,1,0.816596600000139,['c'],1,left,['1'],6,0.1855905000002167,0.1,0,AccFast,24,18,Woman,Right,
5,7,1,0.7005733999999393,['c'],1,left,['1'],6,0.16820099999995364,0.4,0,AccFast,24,18,Woman,Right,
6,7,1,0.7158908999999767,['c'],0,right,['1'],6,0.3683430999999473,0.2,0,AccFast,24,18,Woman,Right,
7,7,1,1.1172160999999505,['c'],1,left,['1'],6,0.15207620000001043,0.2,0,AccFast,24,18,Woman,Right,
8,7,1,3.532780499999717,['n'],1,right,['8'],3,0.20157300000028044,0.4,0,AccFast,24,18,Woman,Right,
9,7,1,0.9667002999999568,['c'],1,left,['1'],6,0.1846984999997403,0.4,0,AccFast,24,18,Woman,Right,
10,7,1,0.6504565000000184,['n'],1,right,['1'],6,0.6845232999999098,0.1,0,AccFast,24,18,Woman,Right,
11,7,1,1.0673797999997987,['c'],1,left,['1'],6,0.18456550000018979,0.4,0,AccFast,24,18,Woman,Right,
12,7,1,0.8331660999997439,['c'],0,right,['1'],6,0.21810279999999693,0.2,0,AccFast,24,18,Woman,Right,
13,7,1,1.116892999999891,['c'],1,left,['1'],6,0.2339366000001064,0.2,0,AccFast,24,18,Woman,Right,
14,7,1,1.2995339000003696,['c'],0,right,['1'],6,0.201566400000047,0.2,0,AccFast,24,18,Woman,Right,
15,7,1,1.2669015999999829,['c'],0,right,['1'],6,0.2186597999998412,0.1,0,AccFast,24,18,Woman,Right,
16,7,1,1.150517800000216,['n'],0,left,['1'],6,0.35162090000039825,0.1,0,AccFast,24,18,Woman,Right,
17,7,1,1.7671915000000809,['n'],1,right,['8'],3,0.5012426000002961,0.1,0,AccFast,24,18,Woman,Right,
18,7,1,0.9340711999998348,['n'],1,right,['3'],4,0.33472699999992983,0.4,0,AccFast,24,18,Woman,Right,
19,7,1,0.9006839999997283,['n'],1,right,['1'],6,0.41757300000017494,0.4,0,AccFast,24,18,Woman,Right,
20,7,1,1.066748799999914,['c'],1,left,['2'],5,0.5998381999997946,0.4,0,AccFast,24,18,Woman,Right,
21,7,1,1.551955800000087,['c'],0,right,['2'],5,0.3512811000000511,0.4,0,AccFast,24,18,Woman,Right,
22,7,1,1.24981439999965,['n'],1,right,['3'],4,0.7675568999998177,0.2,0,AccFast,24,18,Woman,Right,
23,7,1,0.7998188999999911,['n'],1,right,['1'],6,0.21884510000018054,0.4,0,AccFast,24,18,Woman,Right,
24,7,1,0.7164826000002904,['c'],1,left,['1'],6,0.18422610000015993,0.1,0,AccFast,24,18,Woman,Right,
25,7,1,1.0005240999998932,['c'],1,left,['1'],6,0.18454780000001847,0.1,0,AccFast,24,18,Woman,Right,
26,7,1,1.4010255999996843,['n'],0,left,['8'],3,0.4014900000001944,0.1,0,AccFast,24,18,Woman,Right,
27,7,1,1.0668138999999428,['n'],0,left,['8'],3,0.3849596999998539,0.1,0,AccFast,24,18,Woman,Right,
28,7,1,1.8999621000002662,['c'],0,right,['3'],4,0.36852749999980006,0.1,0,AccFast,24,18,Woman,Right,
29,7,1,0.983570299999883,['n'],1,right,['0'],1,1.834693100000095,0.2,0,AccFast,24,18,Woman,Right,
30,7,1,1.9336691000003157,['c'],1,left,['2'],5,0.3686729999999443,0.2,0,AccFast,24,18,Woman,Right,
31,7,1,1.167527600000085,['c'],1,left,['2'],5,0.16827290000037465,0.2,0,AccFast,24,18,Woman,Right,
32,7,1,0.9335765999999239,['c'],1,left,['2'],5,0.5181485000002795,0.4,0,AccFast,24,18,Woman,Right,
33,7,1,1.4659735999998702,['c'],1,left,['2'],5,0.2169394999996257,0.2,0,AccFast,24,18,Woman,Right,
34,7,1,1.4514589999998861,['c'],0,right,['1'],6,1.2846318000001702,0.4,0,AccFast,24,18,Woman,Right,
35,7,1,0.9995456000001468,['c'],1,left,['1'],6,0.3014085999998315,0.2,0,AccFast,24,18,Woman,Right,
36,7,1,1.4015650999999707,['c'],0,right,['1'],6,0.21818549999989045,0.4,0,AccFast,24,18,Woman,Right,
37,7,1,0.983795900000132,['c'],0,right,['1'],6,0.2516273999999612,0.2,0,AccFast,24,18,Woman,Right,
38,7,1,0.6336499999997613,['n'],0,left,['0'],1,0.18450289999964298,0.2,0,AccFast,24,18,Woman,Right,
39,7,1,0.7655671000002258,['c'],1,left,['2'],5,0.36949830000003203,0.4,0,AccFast,24,18,Woman,Right,
40,7,1,0.6659684000001107,['c'],1,left,['1'],6,0.45006649999959336,0.4,0,AccFast,24,18,Woman,Right,
41,7,1,1.1354225000000042,['c'],0,right,['3'],4,0.28278180000006614,0.2,0,AccFast,24,18,Woman,Right,
42,7,1,0.9019362000003639,['c'],0,right,['1'],6,0.56690159999971,0.1,0,AccFast,24,18,Woman,Right,
43,7,1,1.317192900000009,['c'],1,left,['2'],5,0.3347272000000885,0.1,0,AccFast,24,18,Woman,Right,
44,7,1,1.0169564000002538,['n'],1,right,['9'],2,0.3189473999996153,0.1,0,AccFast,24,18,Woman,Right,
45,7,1,0.8506734000002325,['c'],0,right,['2'],5,0.25036139999974694,0.2,0,AccFast,24,18,Woman,Right,
46,7,1,0.7838692999998784,['n'],1,right,['9'],2,0.40131990000008955,0.4,0,AccFast,24,18,Woman,Right,
47,7,1,1.1989119999998366,['n'],0,left,['9'],2,0.41881169999987833,0.1,0,AccFast,24,18,Woman,Right,
48,7,1,0.933687799999916,['n'],0,left,['9'],2,0.36798350000026403,0.2,0,AccFast,24,18,Woman,Right,
49,7,1,1.4837511999999151,['n'],0,left,['9'],2,0.7164972999999009,0.4,0,AccFast,24,18,Woman,Right,
50,7,1,1.8838925000000017,['c'],0,right,['2'],5,0.4179567999999563,0.2,0,AccFast,24,18,Woman,Right,
51,7,1,0.8668723000000682,['c'],1,left,['2'],5,0.21786599999995815,0.4,0,AccFast,24,18,Woman,Right,
52,7,1,0.8848204999999325,['c'],1,left,['2'],5,0.2846105999997235,0.1,0,AccFast,24,18,Woman,Right,
53,7,1,0.9505341999997654,['c'],0,right,['2'],5,0.3688870999999381,0.2,0,AccFast,24,18,Woman,Right,
54,7,1,2.2655635000000984,['c'],0,right,['2'],5,0.26835540000001856,0.4,0,AccFast,24,18,Woman,Right,
55,7,1,1.649764100000084,['c'],0,right,['2'],5,0.36818989999983387,0.2,0,AccFast,24,18,Woman,Right,
56,7,1,0.916728200000307,['c'],0,right,['2'],5,0.3839655000001585,0.1,0,AccFast,24,18,Woman,Right,
57,7,1,1.1153074000003471,['c'],0,right,['2'],5,0.23400619999983974,0.1,0,AccFast,24,18,Woman,Right,
58,7,1,1.1187534999999116,['c'],0,right,['2'],5,0.2505129000001034,0.4,0,AccFast,24,18,Woman,Right,
59,7,1,1.317513500000132,['c'],1,left,['2'],5,0.21797620000006646,0.4,0,AccFast,24,18,Woman,Right,
0,8,1,2.116272399999616,['c'],0,right,['2'],5,1.2344812999999704,0.2,0,AccAcc,24,18,Woman,Right,
1,8,1,3.3842855999996573,['n'],0,left,['3'],4,0.6008080999999947,0.1,0,AccAcc,24,18,Woman,Right,
2,8,1,1.767246299999897,['c'],1,left,['2'],5,0.6181396000001769,0.1,0,AccAcc,24,18,Woman,Right,
3,8,1,1.002354899999773,['c'],1,left,['2'],5,0.35162450000007084,0.4,0,AccAcc,24,18,Woman,Right,
4,8,1,0.9671121999999741,['c'],1,left,['2'],5,0.5348471000002064,0.2,0,AccAcc,24,18,Woman,Right,
5,8,1,1.167207999999846,['c'],0,right,['2'],5,0.36792339999965407,0.2,0,AccAcc,24,18,Woman,Right,
6,8,1,0.9003404999998565,['c'],1,left,['1'],6,0.43484470000021247,0.4,0,AccAcc,24,18,Woman,Right,
7,8,1,0.8340228000001844,['c'],0,right,['1'],6,0.5340111000000434,0.2,0,AccAcc,24,18,Woman,Right,
8,8,1,0.8671008999999685,['c'],1,left,['2'],5,0.4185714000000189,0.2,0,AccAcc,24,18,Woman,Right,
9,8,1,0.7674388999998882,['c'],1,left,['2'],5,0.26820690000022296,0.4,0,AccAcc,24,18,Woman,Right,
10,8,1,0.9669845999997051,['c'],1,left,['2'],5,0.3177864999997837,0.1,0,AccAcc,24,18,Woman,Right,
11,8,1,1.0010910999999396,['c'],0,right,['2'],5,0.3000286999999844,0.1,0,AccAcc,24,18,Woman,Right,
12,8,1,0.817865399999846,['c'],0,right,['2'],5,0.23411910000004355,0.1,0,AccAcc,24,18,Woman,Right,
13,8,1,0.948641200000111,['c'],1,left,['2'],5,0.15199570000004314,0.1,0,AccAcc,24,18,Woman,Right,
14,8,1,0.7505580000001828,['c'],0,right,['2'],5,0.15156549999983326,0.2,0,AccAcc,24,18,Woman,Right,
15,8,1,1.534728399999949,['c'],1,left,['2'],5,0.26807929999995395,0.4,0,AccAcc,24,18,Woman,Right,
16,8,1,0.7490950999999768,['c'],0,right,['2'],5,0.15270049999980984,0.4,0,AccAcc,24,18,Woman,Right,
17,8,1,1.0835872000002382,['c'],0,right,['2'],5,0.18465729999979885,0.4,0,AccAcc,24,18,Woman,Right,
18,8,1,1.9496461999997337,['c'],1,left,['2'],5,0.3517778999998882,0.2,0,AccAcc,24,18,Woman,Right,
19,8,1,0.9496804999998858,['c'],1,left,['2'],5,0.2348575000000892,0.4,0,AccAcc,24,18,Woman,Right,
20,8,1,0.968051800000012,['c'],0,right,['2'],5,0.2512946000001648,0.2,0,AccAcc,24,18,Woman,Right,
21,8,1,1.6153810999999223,['n'],1,right,['3'],4,0.4696025000002919,0.1,0,AccAcc,24,18,Woman,Right,
22,8,1,0.9170476999997845,['c'],0,right,['2'],5,0.3016256999999314,0.4,0,AccAcc,24,18,Woman,Right,
23,8,1,0.817291099999693,['c'],0,right,['2'],5,0.4854927999999745,0.1,0,AccAcc,24,18,Woman,Right,
24,8,1,0.8838825000002544,['c'],0,right,['2'],5,0.26772259999961534,0.2,0,AccAcc,24,18,Woman,Right,
25,8,1,0.8174265999996351,['c'],0,right,['2'],5,0.18580599999995684,0.1,0,AccAcc,24,18,Woman,Right,
26,8,1,1.1172634999998081,['c'],1,left,['2'],5,0.667445300000054,0.4,0,AccAcc,24,18,Woman,Right,
27,8,1,1.1326011999999537,['c'],0,right,['1'],6,0.3689242999998896,0.1,0,AccAcc,24,18,Woman,Right,
28,8,1,0.7501868000003924,['n'],0,left,['1'],6,0.5349617000001672,0.2,0,AccAcc,24,18,Woman,Right,
29,8,1,0.7168972999998005,['n'],0,left,['2'],5,0.5018263000001753,0.4,0,AccAcc,24,18,Woman,Right,
30,8,1,0.6832681999999295,['n'],0,left,['2'],5,0.3335103999997955,0.2,0,AccAcc,24,18,Woman,Right,
31,8,1,1.1341421000001901,['n'],1,right,['2'],5,0.3350992999999107,0.2,0,AccAcc,24,18,Woman,Right,
32,8,1,0.7838543999996546,['n'],1,right,['2'],5,0.2680211000001691,0.2,0,AccAcc,24,18,Woman,Right,
33,8,1,0.7338153000000602,['n'],1,right,['2'],5,0.16786170000023048,0.4,0,AccAcc,24,18,Woman,Right,
34,8,1,1.0337624999997388,['n'],0,left,['2'],5,0.20060860000012326,0.2,0,AccAcc,24,18,Woman,Right,
35,8,1,0.9666817000002084,['n'],1,right,['9'],2,0.3187724999997954,0.4,0,AccAcc,24,18,Woman,Right,
36,8,1,1.8504374000003736,['c'],0,right,['2'],5,0.5849441000000297,0.4,0,AccAcc,24,18,Woman,Right,
37,8,1,1.000572899999952,['c'],0,right,['2'],5,0.31810600000017075,0.2,0,AccAcc,24,18,Woman,Right,
38,8,1,0.8827581999998984,['c'],1,left,['2'],5,0.2853877000002285,0.2,0,AccAcc,24,18,Woman,Right,
39,8,1,1.217662399999881,['c'],0,right,['1'],6,0.4673638000003848,0.2,0,AccAcc,24,18,Woman,Right,
40,8,1,1.0169623000001593,['c'],0,right,['1'],6,0.5012740000001941,0.4,0,AccAcc,24,18,Woman,Right,
41,8,1,0.7006541999999172,['c'],1,left,['2'],5,0.31739040000002205,0.1,0,AccAcc,24,18,Woman,Right,
42,8,1,1.0172738000001118,['c'],1,left,['2'],5,0.4013212999998359,0.2,0,AccAcc,24,18,Woman,Right,
43,8,1,0.9672929000003023,['c'],0,right,['2'],5,0.15030579999984184,0.4,0,AccAcc,24,18,Woman,Right,
44,8,1,0.7654874999998356,['c'],1,left,['2'],5,0.1862234999998691,0.4,0,AccAcc,24,18,Woman,Right,
45,8,1,0.9833912999997665,['c'],0,right,['2'],5,0.20192709999992076,0.2,0,AccAcc,24,18,Woman,Right,
46,8,1,1.2511524999999892,['c'],0,right,['2'],5,0.31798750000007203,0.1,0,AccAcc,24,18,Woman,Right,
47,8,1,0.8507607999999891,['c'],0,right,['2'],5,0.301215499999671,0.1,0,AccAcc,24,18,Woman,Right,
48,8,1,1.5841866000000664,['c'],1,left,['2'],5,0.2682008000001588,0.1,0,AccAcc,24,18,Woman,Right,
49,8,1,0.7663996999999654,['c'],1,left,['2'],5,0.15165720000004512,0.1,0,AccAcc,24,18,Woman,Right,
50,8,1,0.8512532999998257,['c'],1,left,['1'],6,0.40102410000008604,0.1,0,AccAcc,24,18,Woman,Right,
51,8,1,0.815881100000297,['c'],0,right,['2'],5,0.3017778999997063,0.2,0,AccAcc,24,18,Woman,Right,
52,8,1,0.9000507000000653,['c'],1,left,['2'],5,0.2841290999999728,0.1,0,AccAcc,24,18,Woman,Right,
53,8,1,0.8840057000002162,['c'],1,left,['2'],5,0.1348345999999765,0.4,0,AccAcc,24,18,Woman,Right,
54,8,1,0.8504237000001922,['c'],1,left,['2'],5,0.21816880000005767,0.1,0,AccAcc,24,18,Woman,Right,
55,8,1,0.8005220000000008,['c'],1,left,['2'],5,0.33465190000015355,0.4,0,AccAcc,24,18,Woman,Right,
56,8,1,0.8016050000001087,['c'],1,left,['2'],5,0.21832799999992858,0.4,0,AccAcc,24,18,Woman,Right,
57,8,1,0.5669469999998,['c'],0,right,['2'],5,0.20214130000022124,0.4,0,AccAcc,24,18,Woman,Right,
58,8,1,0.716831700000057,['n'],0,left,['2'],5,0.48465470000019195,0.1,0,AccAcc,24,18,Woman,Right,
59,8,1,0.9178171000003204,['n'],1,right,['1'],6,0.6008110000002489,0.1,0,AccAcc,24,18,Woman,Right,
0,9,1,0.8336381999997684,['n'],1,right,['1'],6,0.36868179999964923,0.1,0,FastAcc,24,18,Woman,Right,
1,9,1,0.5337385000002541,['c'],0,right,['1'],6,0.3681040999999823,0.4,0,FastAcc,24,18,Woman,Right,
2,9,1,0.8660227999998824,['c'],1,left,['2'],5,0.4185637000000497,0.4,0,FastAcc,24,18,Woman,Right,
3,9,1,0.9341458000003513,['c'],0,right,['1'],6,0.46810359999972206,0.2,0,FastAcc,24,18,Woman,Right,
4,9,1,0.7505074999999124,['n'],0,left,['2'],5,0.3682665999999699,0.1,0,FastAcc,24,18,Woman,Right,
5,9,1,0.766026199999942,['n'],1,right,['2'],5,0.6338857000000644,0.2,0,FastAcc,24,18,Woman,Right,
6,9,1,1.3340371999997842,['n'],0,left,['3'],4,0.450872000000345,0.2,0,FastAcc,24,18,Woman,Right,
7,9,1,1.1335649000002377,['n'],0,left,['2'],5,0.35158580000006623,0.2,0,FastAcc,24,18,Woman,Right,
8,9,1,0.8826707000002898,['n'],1,right,['3'],4,0.40206929999976637,0.2,0,FastAcc,24,18,Woman,Right,
9,9,1,1.0825517999996919,['n'],0,left,['3'],4,0.6187140000001818,0.1,0,FastAcc,24,18,Woman,Right,
10,9,1,1.6170720000000074,['n'],1,right,['3'],4,1.4679688000001079,0.4,0,FastAcc,24,18,Woman,Right,
11,9,1,0.867743899999823,['n'],1,right,['3'],4,0.5515465999997105,0.4,0,FastAcc,24,18,Woman,Right,
12,9,1,0.9347756000001937,['n'],0,left,['2'],5,0.45147670000005746,0.1,0,FastAcc,24,18,Woman,Right,
13,9,1,0.867841799999951,['n'],0,left,['2'],5,0.351274800000283,0.4,0,FastAcc,24,18,Woman,Right,
14,9,1,1.0840557000001354,['n'],1,right,['2'],5,0.25193220000028305,0.4,0,FastAcc,24,18,Woman,Right,
15,9,1,0.7996650000000045,['n'],1,right,['2'],5,0.30145790000005945,0.4,0,FastAcc,24,18,Woman,Right,
16,9,1,0.7178404999999657,['n'],1,right,['2'],5,0.300529799999822,0.2,0,FastAcc,24,18,Woman,Right,
17,9,1,0.8343448999999055,['n'],1,right,['2'],5,0.28483409999989817,0.4,0,FastAcc,24,18,Woman,Right,
18,9,1,0.9660680999995748,['n'],0,left,['2'],5,0.41679690000000846,0.4,0,FastAcc,24,18,Woman,Right,
19,9,1,0.8514074999998229,['n'],0,left,['2'],5,0.3180621000001338,0.1,0,FastAcc,24,18,Woman,Right,
20,9,1,0.683215300000029,['n'],1,right,['2'],5,0.23401009999997768,0.4,0,FastAcc,24,18,Woman,Right,
21,9,1,1.3502328999998099,['c'],1,left,['2'],5,0.2684186999999838,0.1,0,FastAcc,24,18,Woman,Right,
22,9,1,0.8665522999999666,['n'],1,right,['2'],5,0.334560600000259,0.1,0,FastAcc,24,18,Woman,Right,
23,9,1,2.933768499999587,['n'],0,left,['3'],4,0.9847981999996591,0.2,0,FastAcc,24,18,Woman,Right,
24,9,1,1.9325650999999198,['c'],0,right,['2'],5,0.6684777000000395,0.4,0,FastAcc,24,18,Woman,Right,
25,9,1,0.801452899999731,['c'],1,left,['2'],5,0.30160579999983383,0.1,0,FastAcc,24,18,Woman,Right,
26,9,1,0.7656596000001628,['c'],1,left,['2'],5,0.285463400000026,0.1,0,FastAcc,24,18,Woman,Right,
27,9,1,0.7681231999999909,['c'],1,left,['2'],5,0.30146659999991243,0.1,0,FastAcc,24,18,Woman,Right,
28,9,1,1.4674137000001792,['c'],0,right,['2'],5,0.401807799999915,0.1,0,FastAcc,24,18,Woman,Right,
29,9,1,0.7345846000002894,['c'],1,left,['2'],5,0.2352176999997937,0.4,0,FastAcc,24,18,Woman,Right,
30,9,1,0.6831154999999853,['c'],0,right,['2'],5,0.20164019999992888,0.1,0,FastAcc,24,18,Woman,Right,
31,9,1,0.8660376000002543,['c'],0,right,['2'],5,0.21813879999990604,0.2,0,FastAcc,24,18,Woman,Right,
32,9,1,1.5667868000000453,['c'],1,left,['2'],5,0.3179382000002988,0.1,0,FastAcc,24,18,Woman,Right,
33,9,1,1.03308350000043,['c'],1,left,['2'],5,0.23472880000008445,0.1,0,FastAcc,24,18,Woman,Right,
34,9,1,0.7506132000003163,['c'],0,right,['2'],5,0.23503560000017387,0.2,0,FastAcc,24,18,Woman,Right,
35,9,1,1.4336593999996694,['c'],1,left,['2'],5,0.2660946999999396,0.1,0,FastAcc,24,18,Woman,Right,
36,9,1,0.7497834000000694,['c'],1,left,['2'],5,0.15093750000005457,0.2,0,FastAcc,24,18,Woman,Right,
37,9,1,0.7851818000003732,['c'],0,right,['2'],5,0.6168672000003426,0.2,0,FastAcc,24,18,Woman,Right,
38,9,1,1.283782599999995,['c'],1,left,['2'],5,0.3176469999998517,0.4,0,FastAcc,24,18,Woman,Right,
39,9,1,0.7184999000000971,['c'],0,right,['2'],5,0.33471989999998186,0.2,0,FastAcc,24,18,Woman,Right,
40,9,1,0.8004288000001907,['c'],1,left,['2'],5,0.18407639999986714,0.2,0,FastAcc,24,18,Woman,Right,
41,9,1,0.8502967000003991,['n'],0,left,['9'],2,0.3348674000003484,0.2,0,FastAcc,24,18,Woman,Right,
42,9,1,1.318399899999804,['c'],1,left,['2'],5,0.2848585000001549,0.4,0,FastAcc,24,18,Woman,Right,
43,9,1,0.9167581000001519,['c'],1,left,['2'],5,0.21686910000016724,0.2,0,FastAcc,24,18,Woman,Right,
44,9,1,0.782845400000042,['c'],0,right,['2'],5,0.25255299999980707,0.4,0,FastAcc,24,18,Woman,Right,
45,9,1,0.8510194000000411,['c'],0,right,['2'],5,0.4349105999999665,0.1,0,FastAcc,24,18,Woman,Right,
46,9,1,0.6004499999999098,['c'],0,right,['2'],5,0.2013771000001725,0.4,0,FastAcc,24,18,Woman,Right,
47,9,1,0.6170035000000098,['c'],1,left,['2'],5,0.26821449999988545,0.4,0,FastAcc,24,18,Woman,Right,
48,9,1,0.9496653000001061,['c'],0,right,['2'],5,0.28478359999962777,0.2,0,FastAcc,24,18,Woman,Right,
49,9,1,0.6010909999999967,['c'],0,right,['2'],5,0.26794040000004316,0.2,0,FastAcc,24,18,Woman,Right,
50,9,1,0.8009965999999622,['c'],0,right,['2'],5,0.4012387000002491,0.1,0,FastAcc,24,18,Woman,Right,
51,9,1,1.0496468999999706,['c'],1,left,['2'],5,0.7515372000002571,0.4,0,FastAcc,24,18,Woman,Right,
52,9,1,0.5171137000002091,['n'],1,right,['2'],5,0.5513203000000431,0.4,0,FastAcc,24,18,Woman,Right,
53,9,1,0.7673408000000563,['n'],1,right,['1'],6,0.70076489999974,0.2,0,FastAcc,24,18,Woman,Right,
54,9,1,1.0997105999999803,['c'],1,left,['1'],6,0.2679344999996829,0.2,0,FastAcc,24,18,Woman,Right,
55,9,1,1.250448199999937,['n'],1,right,['1'],6,0.317022199999883,0.1,0,FastAcc,24,18,Woman,Right,
56,9,1,0.8670106999998097,['c'],1,left,['1'],6,0.3012991000000511,0.4,0,FastAcc,24,18,Woman,Right,
57,9,1,1.1332551000000421,['n'],0,left,['3'],4,0.3354801000000407,0.1,0,FastAcc,24,18,Woman,Right,
58,9,1,1.2003485000000182,['n'],1,right,['1'],6,0.5831194000002142,0.1,0,FastAcc,24,18,Woman,Right,
59,9,1,1.3834109999997963,['n'],0,left,['3'],4,0.400125399999979,0.2,0,FastAcc,24,18,Woman,Right,
0,10,1,0.7505675000002157,['n'],1,right,['1'],6,0.2352229000002808,0.1,0,FastFast,24,18,Woman,Right,
1,10,1,0.8503997000002528,['c'],1,left,['1'],6,0.21911110000019107,0.2,0,FastFast,24,18,Woman,Right,
2,10,1,0.7337265000001025,['c'],0,right,['2'],5,0.49917239999967933,0.1,0,FastFast,24,18,Woman,Right,
3,10,1,0.6845665000000736,['c'],1,left,['1'],6,0.2181441000002451,0.4,0,FastFast,24,18,Woman,Right,
4,10,1,0.7503621000000749,['c'],1,left,['2'],5,0.5018979999999829,0.2,0,FastFast,24,18,Woman,Right,
5,10,1,0.5830453999997189,['c'],1,left,['1'],6,0.25137990000030186,0.1,0,FastFast,24,18,Woman,Right,
6,10,1,0.8684237000002213,['c'],0,right,['1'],6,1.5181972999998834,0.1,0,FastFast,24,18,Woman,Right,
7,10,1,0.8182168000003003,['c'],1,left,['1'],6,0.16838449999977456,0.2,0,FastFast,24,18,Woman,Right,
8,10,1,0.9989778999997725,['c'],1,left,['1'],6,0.1524202000000514,0.1,0,FastFast,24,18,Woman,Right,
9,10,1,1.0339242999998532,['c'],0,right,['1'],6,0.2179003000001103,0.4,0,FastFast,24,18,Woman,Right,
10,10,1,0.9671020000000681,['c'],0,right,['1'],6,0.20145159999992757,0.2,0,FastFast,24,18,Woman,Right,
11,10,1,0.7490397000001394,['c'],0,right,['1'],6,0.1862381999999343,0.4,0,FastFast,24,18,Woman,Right,
12,10,1,0.6998354000002109,['c'],1,left,['1'],6,0.16817420000006678,0.2,0,FastFast,24,18,Woman,Right,
13,10,1,0.5505321999999069,['c'],1,left,['1'],6,0.21777139999994688,0.4,0,FastFast,24,18,Woman,Right,
14,10,1,0.5836923000001661,['c'],1,left,['1'],6,0.18484339999986332,0.4,0,FastFast,24,18,Woman,Right,
15,10,1,0.40077229999997144,['c'],0,right,['1'],6,0.20147269999961281,0.1,0,FastFast,24,18,Woman,Right,
16,10,1,0.6831773000003523,['c'],1,left,['1'],6,0.11823120000008203,0.2,0,FastFast,24,18,Woman,Right,
17,10,1,0.6172193000002153,['c'],1,left,['1'],6,0.15245290000029854,0.1,0,FastFast,24,18,Woman,Right,
18,10,1,1.018032999999832,['c'],0,right,['1'],6,0.23365890000013678,0.4,0,FastFast,24,18,Woman,Right,
19,10,1,0.9662545999999566,['c'],0,right,['2'],5,0.2858789999995679,0.2,0,FastFast,24,18,Woman,Right,
20,10,1,1.0174403000000893,['c'],0,right,['1'],6,0.15144370000007257,0.1,0,FastFast,24,18,Woman,Right,
21,10,1,0.9332157999997435,['c'],1,left,['2'],5,0.41824429999996937,0.2,0,FastFast,24,18,Woman,Right,
22,10,1,0.8172746999998708,['c'],0,right,['2'],5,0.15128020000020115,0.1,0,FastFast,24,18,Woman,Right,
23,10,1,0.950525999999627,['c'],1,left,['2'],5,0.2014125000000604,0.2,0,FastFast,24,18,Woman,Right,
24,10,1,0.7339617999996335,['c'],0,right,['2'],5,0.21651429999974425,0.4,0,FastFast,24,18,Woman,Right,
25,10,1,0.8515289000001758,['c'],1,left,['2'],5,0.26594299999987925,0.2,0,FastFast,24,18,Woman,Right,
26,10,1,1.068350399999872,['c'],0,right,['2'],5,0.45217959999990853,0.1,0,FastFast,24,18,Woman,Right,
27,10,1,0.8338859999998931,['c'],0,right,['2'],5,0.5181378000002042,0.1,0,FastFast,24,18,Woman,Right,
28,10,1,0.9325503000000026,['c'],0,right,['2'],5,0.3346659999997428,0.2,0,FastFast,24,18,Woman,Right,
29,10,1,0.7819226999999955,['c'],1,left,['2'],5,0.45228580000002694,0.1,0,FastFast,24,18,Woman,Right,
30,10,1,0.8504703999997218,['c'],1,left,['2'],5,0.3346481999997195,0.1,0,FastFast,24,18,Woman,Right,
31,10,1,0.8502564999998867,['c'],1,left,['2'],5,0.30142990000013015,0.4,0,FastFast,24,18,Woman,Right,
32,10,1,1.18324819999998,['c'],1,left,['2'],5,0.38348809999979494,0.4,0,FastFast,24,18,Woman,Right,
33,10,1,0.8340194999996129,['c'],0,right,['2'],5,0.18490289999999732,0.4,0,FastFast,24,18,Woman,Right,
34,10,1,0.6652611999998044,['c'],1,left,['2'],5,0.1843739999999343,0.1,0,FastFast,24,18,Woman,Right,
35,10,1,0.5022199,['c'],0,right,['2'],5,0.21776720000025307,0.4,0,FastFast,24,18,Woman,Right,
36,10,1,1.334563999999773,['c'],0,right,['3'],4,1.0837728999999854,0.1,0,FastFast,24,18,Woman,Right,
37,10,1,0.8992858000001434,['c'],0,right,['3'],4,0.21828910000022006,0.1,0,FastFast,24,18,Woman,Right,
38,10,1,0.9998995999999352,['c'],1,left,['2'],5,0.1847555999997894,0.2,0,FastFast,24,18,Woman,Right,
39,10,1,0.8169516000002659,['c'],1,left,['3'],4,0.4682593999996243,0.4,0,FastFast,24,18,Woman,Right,
40,10,1,0.7340933000000405,['c'],0,right,['2'],5,0.18350550000013754,0.1,0,FastFast,24,18,Woman,Right,
41,10,1,0.9832277000000431,['c'],0,right,['2'],5,0.18490740000015649,0.2,0,FastFast,24,18,Woman,Right,
42,10,1,1.4172160999996777,['c'],1,left,['2'],5,0.3018351000000621,0.4,0,FastFast,24,18,Woman,Right,
43,10,1,0.9004915999998957,['c'],1,left,['2'],5,0.13461409999990792,0.4,0,FastFast,24,18,Woman,Right,
44,10,1,0.4169753999999557,['n'],0,left,['3'],4,0.35133589999986725,0.2,0,FastFast,24,18,Woman,Right,
45,10,1,0.765876500000104,['c'],0,right,['3'],4,0.2357521999997516,0.1,0,FastFast,24,18,Woman,Right,
46,10,1,1.0492447000001448,['c'],1,left,['3'],4,0.1833053000000291,0.1,0,FastFast,24,18,Woman,Right,
47,10,1,0.6331417000001238,['n'],1,right,['3'],4,0.16791729999977179,0.1,0,FastFast,24,18,Woman,Right,
48,10,1,0.9170299999996132,['n'],0,left,['2'],5,0.21702409999988959,0.4,0,FastFast,24,18,Woman,Right,
49,10,1,0.9176468999999088,['n'],1,right,['2'],5,0.5015578999996251,0.4,0,FastFast,24,18,Woman,Right,
50,10,1,1.5993862999998782,['n'],1,right,['8'],3,0.25226999999995314,0.2,0,FastFast,24,18,Woman,Right,
51,10,1,0.732662800000071,['n'],1,right,['8'],3,0.05193060000010519,0.4,0,FastFast,24,18,Woman,Right,
52,10,1,0.650840899999821,['n'],1,right,['8'],3,0.11834690000023329,0.2,0,FastFast,24,18,Woman,Right,
53,10,1,0.7503100999997514,['n'],1,right,['1'],6,0.30132880000019213,0.2,0,FastFast,24,18,Woman,Right,
54,10,1,1.0329249000001255,['c'],1,left,['1'],6,0.20149639999999636,0.4,0,FastFast,24,18,Woman,Right,
55,10,1,0.9007269999997334,['c'],1,left,['1'],6,0.10084449999976641,0.4,0,FastFast,24,18,Woman,Right,
56,10,1,0.9002005999996072,['n'],1,right,['3'],4,0.15150390000007974,0.4,0,FastFast,24,18,Woman,Right,
57,10,1,1.0168751000001066,['c'],1,left,['3'],4,0.18497049999996307,0.2,0,FastFast,24,18,Woman,Right,
58,10,1,1.166214200000013,['c'],1,left,['2'],5,0.45061530000020866,0.2,0,FastFast,24,18,Woman,Right,
59,10,1,1.3333654000002753,['n'],1,right,['8'],3,0.40104939999991984,0.2,0,FastFast,24,18,Woman,Right,
0,11,1,1.135138999999981,['n'],1,right,['1'],6,0.6680317999998806,0.4,0,AccFast,24,18,Woman,Right,
1,11,1,1.0504845999998906,['n'],1,right,['2'],5,1.0014658999998574,0.1,0,AccFast,24,18,Woman,Right,
2,11,1,0.9665279000000737,['n'],1,right,['2'],5,0.5498640000000705,0.2,0,AccFast,24,18,Woman,Right,
3,11,1,0.8339199999995799,['n'],0,left,['2'],5,0.33473800000001575,0.2,0,AccFast,24,18,Woman,Right,
4,11,1,0.8674519999999575,['n'],0,left,['8'],3,0.2844782000001942,0.4,0,AccFast,24,18,Woman,Right,
5,11,1,0.8328736000003119,['c'],0,right,['2'],5,0.20176609999998618,0.4,0,AccFast,24,18,Woman,Right,
6,11,1,0.8672498000000814,['n'],1,right,['8'],3,0.26851829999986876,0.1,0,AccFast,24,18,Woman,Right,
7,11,1,0.7335856999998214,['c'],1,left,['2'],5,0.21829890000026353,0.2,0,AccFast,24,18,Woman,Right,
8,11,1,0.7333129999997254,['c'],0,right,['2'],5,0.1178303000001506,0.1,0,AccFast,24,18,Woman,Right,
9,11,1,0.8170987000003151,['c'],0,right,['2'],5,0.20152740000003178,0.2,0,AccFast,24,18,Woman,Right,
10,11,1,0.8004602999999406,['c'],0,right,['3'],4,0.4015890999999101,0.4,0,AccFast,24,18,Woman,Right,
11,11,1,0.7171567000000323,['c'],0,right,['3'],4,0.26692540000021836,0.4,0,AccFast,24,18,Woman,Right,
12,11,1,0.8997518000001037,['c'],1,left,['2'],5,0.2180478000000221,0.1,0,AccFast,24,18,Woman,Right,
13,11,1,1.0164232000001903,['c'],0,right,['2'],5,0.4678606000002219,0.1,0,AccFast,24,18,Woman,Right,
14,11,1,0.8179056999997556,['c'],0,right,['2'],5,0.2686051000000589,0.2,0,AccFast,24,18,Woman,Right,
15,11,1,0.8004833999998482,['c'],1,left,['2'],5,0.4845310000000609,0.4,0,AccFast,24,18,Woman,Right,
16,11,1,0.967573800000082,['c'],1,left,['2'],5,0.35041670000009617,0.1,0,AccFast,24,18,Woman,Right,
17,11,1,1.28304449999996,['c'],0,right,['3'],4,0.3843025999999554,0.1,0,AccFast,24,18,Woman,Right,
18,11,1,0.8659215000002405,['c'],0,right,['3'],4,0.5351728000000548,0.4,0,AccFast,24,18,Woman,Right,
19,11,1,0.7849377000002278,['c'],1,left,['2'],5,0.18497849999994287,0.4,0,AccFast,24,18,Woman,Right,
20,11,1,1.0503327999999783,['c'],0,right,['3'],4,0.35159169999997175,0.1,0,AccFast,24,18,Woman,Right,
21,11,1,0.8004728999999315,['c'],0,right,['2'],5,0.1675841000001128,0.1,0,AccFast,24,18,Woman,Right,
22,11,1,0.9324069000003874,['n'],1,right,['3'],4,0.43407239999987723,0.4,0,AccFast,24,18,Woman,Right,
23,11,1,1.6844012999999904,['n'],1,right,['8'],3,0.2852866000002905,0.4,0,AccFast,24,18,Woman,Right,
24,11,1,0.9345187999997506,['n'],1,right,['2'],5,0.4514158000001771,0.4,0,AccFast,24,18,Woman,Right,
25,11,1,1.3170156999999563,['c'],1,left,['2'],5,0.4011894000000211,0.1,0,AccFast,24,18,Woman,Right,
26,11,1,0.9662845000002562,['c'],1,left,['3'],4,0.33477240000001984,0.4,0,AccFast,24,18,Woman,Right,
27,11,1,0.9003373999998985,['c'],0,right,['2'],5,0.43505750000031185,0.2,0,AccFast,24,18,Woman,Right,
28,11,1,1.1176519999999073,['c'],0,right,['3'],4,0.5159160999996857,0.2,0,AccFast,24,18,Woman,Right,
29,11,1,1.201105600000119,['c'],0,right,['2'],5,0.38495019999982105,0.2,0,AccFast,24,18,Woman,Right,
30,11,1,1.000561999999718,['c'],0,right,['2'],5,0.7995578000000023,0.2,0,AccFast,24,18,Woman,Right,
31,11,1,0.951569599999857,['c'],1,left,['2'],5,0.5515290000003006,0.4,0,AccFast,24,18,Woman,Right,
32,11,1,1.1838496000000305,['c'],1,left,['2'],5,0.5179293000001053,0.4,0,AccFast,24,18,Woman,Right,
33,11,1,0.8168546000001697,['c'],1,left,['2'],5,0.4840008000001035,0.2,0,AccFast,24,18,Woman,Right,
34,11,1,0.9006139000002804,['c'],1,left,['2'],5,0.4510224000000562,0.1,0,AccFast,24,18,Woman,Right,
35,11,1,2.217244700000265,['c'],0,right,['2'],5,0.31847930000003544,0.2,0,AccFast,24,18,Woman,Right,
36,11,1,0.8834633999999824,['c'],1,left,['2'],5,0.31843449999996665,0.1,0,AccFast,24,18,Woman,Right,
37,11,1,0.800343200000043,['c'],0,right,['2'],5,0.3847272999996676,0.2,0,AccFast,24,18,Woman,Right,
38,11,1,1.0831958999997369,['c'],1,left,['3'],4,0.35159710000016275,0.4,0,AccFast,24,18,Woman,Right,
39,11,1,0.6827778000001672,['c'],1,left,['2'],5,0.35153089999994336,0.4,0,AccFast,24,18,Woman,Right,
40,11,1,0.8830838999997468,['c'],0,right,['2'],5,0.21679070000027423,0.2,0,AccFast,24,18,Woman,Right,
41,11,1,0.9989958000001025,['c'],1,left,['2'],5,0.2693624999997155,0.4,0,AccFast,24,18,Woman,Right,
42,11,1,0.6670305999996344,['c'],1,left,['2'],5,0.3014216999999917,0.1,0,AccFast,24,18,Woman,Right,
43,11,1,1.083319300000312,['c'],0,right,['2'],5,0.2012058000000252,0.4,0,AccFast,24,18,Woman,Right,
44,11,1,1.3656936000002133,['c'],1,left,['2'],5,0.48564440000018294,0.2,0,AccFast,24,18,Woman,Right,
45,11,1,2.3154982999999447,['c'],0,right,['2'],5,0.1841537000000244,0.1,0,AccFast,24,18,Woman,Right,
46,11,1,1.2839807000000292,['c'],1,left,['2'],5,0.184229200000118,0.1,0,AccFast,24,18,Woman,Right,
47,11,1,1.3829870999998093,['c'],0,right,['2'],5,3.6355701000002227,0.1,0,AccFast,24,18,Woman,Right,
48,11,1,0.8002239000002191,['c'],1,left,['2'],5,0.35226970000030633,0.2,0,AccFast,24,18,Woman,Right,
49,11,1,0.6338878999999906,['c'],1,left,['2'],5,0.4348952000000281,0.2,0,AccFast,24,18,Woman,Right,
50,11,1,0.6505024000002777,['c'],1,left,['2'],5,0.23289639999984502,0.2,0,AccFast,24,18,Woman,Right,
51,11,1,0.884381399999711,['c'],1,left,['2'],5,0.218964700000015,0.1,0,AccFast,24,18,Woman,Right,
52,11,1,0.7506733999998687,['c'],0,right,['2'],5,0.15124439999999595,0.2,0,AccFast,24,18,Woman,Right,
53,11,1,0.8011534999996002,['c'],0,right,['3'],4,0.5182374000000891,0.2,0,AccFast,24,18,Woman,Right,
54,11,1,1.0829217000000426,['c'],1,left,['2'],5,0.2014046999997845,0.1,0,AccFast,24,18,Woman,Right,
55,11,1,0.9988884999997936,['c'],1,left,['2'],5,0.38484599999992497,0.2,0,AccFast,24,18,Woman,Right,
56,11,1,0.8833093000002918,['c'],1,left,['2'],5,0.2184797999998409,0.1,0,AccFast,24,18,Woman,Right,
57,11,1,0.7163769999997385,['c'],1,left,['2'],5,0.2001589999999851,0.1,0,AccFast,24,18,Woman,Right,
58,11,1,1.5500469999997222,['c'],1,left,['2'],5,0.2354899000001751,0.4,0,AccFast,24,18,Woman,Right,
59,11,1,1.4334984000001896,['c'],1,left,['2'],5,0.45166299999982584,0.4,0,AccFast,24,18,Woman,Right,
0,12,1,1.5688860000000204,['c'],0,right,['2'],5,0.41796019999992495,0.1,0,AccAcc,24,18,Woman,Right,
1,12,1,1.1007449999997334,['c'],0,right,['3'],4,0.40132809999977326,0.1,0,AccAcc,24,18,Woman,Right,
2,12,1,1.0172166000002107,['c'],1,left,['3'],4,0.33462779999990744,0.2,0,AccAcc,24,18,Woman,Right,
3,12,1,0.7836393000002317,['c'],1,left,['2'],5,0.2001482999999098,0.2,0,AccAcc,24,18,Woman,Right,
4,12,1,1.1991665000000467,['c'],1,left,['2'],5,0.2688379999999597,0.1,0,AccAcc,24,18,Woman,Right,
5,12,1,0.9673039999997854,['c'],1,left,['2'],5,0.2842398000002504,0.1,0,AccAcc,24,18,Woman,Right,
6,12,1,0.7838018000002194,['c'],1,left,['2'],5,0.35088649999988775,0.4,0,AccAcc,24,18,Woman,Right,
7,12,1,0.6652159000000211,['c'],0,right,['3'],4,0.30266660000006596,0.1,0,AccAcc,24,18,Woman,Right,
8,12,1,0.7674904000000424,['c'],0,right,['3'],4,0.3181832000000213,0.2,0,AccAcc,24,18,Woman,Right,
9,12,1,0.8339045000002443,['c'],0,right,['3'],4,0.4515387000001283,0.1,0,AccAcc,24,18,Woman,Right,
10,12,1,0.5175030999998853,['c'],0,right,['2'],5,0.3847435999996378,0.4,0,AccAcc,24,18,Woman,Right,
11,12,1,0.9329282000003332,['c'],0,right,['2'],5,0.2848692000002302,0.4,0,AccAcc,24,18,Woman,Right,
12,12,1,0.7345674000002873,['c'],0,right,['2'],5,0.23471470000004047,0.4,0,AccAcc,24,18,Woman,Right,
13,12,1,0.8505947000003289,['c'],0,right,['2'],5,0.20130209999979343,0.4,0,AccAcc,24,18,Woman,Right,
14,12,1,0.8173693000003368,['c'],1,left,['2'],5,0.1846002999996017,0.1,0,AccAcc,24,18,Woman,Right,
15,12,1,0.6001146000003246,['c'],0,right,['2'],5,0.21612540000023728,0.2,0,AccAcc,24,18,Woman,Right,
16,12,1,0.5498345999999401,['c'],1,left,['2'],5,0.3010244000001876,0.4,0,AccAcc,24,18,Woman,Right,
17,12,1,0.49958509999987655,['n'],0,left,['2'],5,0.300764000000072,0.4,0,AccAcc,24,18,Woman,Right,
18,12,1,1.5331412000000455,['c'],1,left,['3'],4,3.2668964999998025,0.1,0,AccAcc,24,18,Woman,Right,
19,12,1,0.7166790999999648,['c'],1,left,['3'],4,0.4007281000003786,0.4,0,AccAcc,24,18,Woman,Right,
20,12,1,1.3504337000003943,['c'],1,left,['3'],4,0.7004134999997405,0.1,0,AccAcc,24,18,Woman,Right,
21,12,1,0.8849310000000514,['c'],1,left,['3'],4,0.20149279999986902,0.1,0,AccAcc,24,18,Woman,Right,
22,12,1,0.8003859999998895,['c'],0,right,['3'],4,0.4680807999998251,0.4,0,AccAcc,24,18,Woman,Right,
23,12,1,0.9665024000000813,['c'],0,right,['2'],5,0.25201230000038777,0.1,0,AccAcc,24,18,Woman,Right,
24,12,1,1.147740899999917,['c'],1,left,['3'],4,0.18551000000024942,0.4,0,AccAcc,24,18,Woman,Right,
25,12,1,1.2005874999999833,['c'],1,left,['3'],4,0.16652429999976448,0.4,0,AccAcc,24,18,Woman,Right,
26,12,1,0.8346609999998691,['c'],1,left,['3'],4,0.13389969999980167,0.1,0,AccAcc,24,18,Woman,Right,
27,12,1,0.4321571000000404,['c'],1,left,['3'],4,0.21884270000009565,0.2,0,AccAcc,24,18,Woman,Right,
28,12,1,0.965183799999977,['c'],0,right,['3'],4,0.45024830000011207,0.1,0,AccAcc,24,18,Woman,Right,
29,12,1,0.4350237999997262,['c'],0,right,['2'],5,0.5516398999998273,0.1,0,AccAcc,24,18,Woman,Right,
30,12,1,0.6838815999999497,['c'],1,left,['2'],5,0.28412840000009965,0.2,0,AccAcc,24,18,Woman,Right,
31,12,1,0.9837298000002193,['c'],1,left,['2'],5,0.234731400000328,0.2,0,AccAcc,24,18,Woman,Right,
32,12,1,0.6674684999998135,['c'],0,right,['2'],5,0.2342171000000235,0.2,0,AccAcc,24,18,Woman,Right,
33,12,1,0.7824762000000192,['c'],0,right,['9'],2,0.8188399000000572,0.1,0,AccAcc,24,18,Woman,Right,
34,12,1,2.8835665999999947,['n'],1,right,['1'],6,0.5846310000001722,0.4,0,AccAcc,24,18,Woman,Right,
35,12,1,0.8008795999999165,['n'],1,right,['1'],6,0.3004965000000084,0.4,0,AccAcc,24,18,Woman,Right,
36,12,1,0.6512812999999369,['c'],0,right,['1'],6,0.28495029999976396,0.1,0,AccAcc,24,18,Woman,Right,
37,12,1,1.233036699999957,['c'],0,right,['1'],6,0.21799770000006902,0.2,0,AccAcc,24,18,Woman,Right,
38,12,1,0.9003373000000465,['c'],1,left,['1'],6,0.31822220000003654,0.2,0,AccAcc,24,18,Woman,Right,
39,12,1,1.2838673999999628,['c'],1,left,['1'],6,0.18487279999999373,0.1,0,AccAcc,24,18,Woman,Right,
40,12,1,0.8499742999997579,['c'],1,left,['1'],6,0.3840786000000662,0.2,0,AccAcc,24,18,Woman,Right,
41,12,1,0.8180513000002065,['c'],1,left,['1'],6,0.5346035000002303,0.1,0,AccAcc,24,18,Woman,Right,
42,12,1,1.1497936999999183,['c'],0,right,['1'],6,0.18353179999985514,0.2,0,AccAcc,24,18,Woman,Right,
43,12,1,1.0010917000004156,['n'],1,right,['0'],1,0.8179425999996965,0.4,0,AccAcc,24,18,Woman,Right,
44,12,1,1.0008199000003515,['n'],1,right,['0'],1,0.41798830000016096,0.2,0,AccAcc,24,18,Woman,Right,
45,12,1,1.2832014999999046,['n'],1,right,['8'],3,0.20160340000029464,0.2,0,AccAcc,24,18,Woman,Right,
46,12,1,1.5992960999997194,['c'],1,left,['3'],4,0.36929179999970074,0.4,0,AccAcc,24,18,Woman,Right,
47,12,1,0.9003897000002326,['c'],1,left,['1'],6,0.21827339999981632,0.4,0,AccAcc,24,18,Woman,Right,
48,12,1,0.9005071999999927,['c'],1,left,['3'],4,0.26815780000015366,0.1,0,AccAcc,24,18,Woman,Right,
49,12,1,1.0503246999996918,['n'],0,left,['8'],3,0.21581349999996746,0.4,0,AccAcc,24,18,Woman,Right,
50,12,1,1.2010387000000264,['c'],0,right,['2'],5,0.3835316999998213,0.4,0,AccAcc,24,18,Woman,Right,
51,12,1,1.3021960999999465,['n'],1,right,['1'],6,0.3681707999999162,0.4,0,AccAcc,24,18,Woman,Right,
52,12,1,2.0150707999996484,['n'],1,right,['1'],6,0.4024687000000995,0.2,0,AccAcc,24,18,Woman,Right,
53,12,1,1.2170724000002338,['n'],1,right,['1'],6,0.3343224000000191,0.2,0,AccAcc,24,18,Woman,Right,
54,12,1,1.151451299999735,['c'],1,left,['2'],5,0.30035670000006576,0.2,0,AccAcc,24,18,Woman,Right,
55,12,1,1.5328749999998763,['n'],1,right,['8'],3,0.25193899999976566,0.2,0,AccAcc,24,18,Woman,Right,
56,12,1,0.7844800000002579,['c'],1,left,['2'],5,0.36794549999967785,0.4,0,AccAcc,24,18,Woman,Right,
57,12,1,0.8674023999997189,['n'],1,right,['8'],3,0.1846851999998762,0.1,0,AccAcc,24,18,Woman,Right,
58,12,1,1.5505847000003996,['n'],0,left,['8'],3,0.15199870000014926,0.2,0,AccAcc,24,18,Woman,Right,
59,12,1,1.9674486000003526,['c'],1,left,['1'],6,0.3348728000000847,0.2,0,AccAcc,24,18,Woman,Right,
0,13,1,0.7504593000003297,['n'],1,right,['8'],3,0.25184580000041024,0.4,0,FastAcc,24,18,Woman,Right,
1,13,1,0.2818021000002773,['n'],0,left,['8'],3,0.3009604999997464,0.1,0,FastAcc,24,18,Woman,Right,
2,13,1,0.33385920000000624,['c'],0,right,['3'],4,0.0842926999998781,0.1,0,FastAcc,24,18,Woman,Right,
3,13,1,0.8854833000000326,['c'],1,left,['1'],6,0.2346797999998671,0.1,0,FastAcc,24,18,Woman,Right,
4,13,1,0.667008899999928,['c'],1,left,['2'],5,0.1675769999997101,0.1,0,FastAcc,24,18,Woman,Right,
5,13,1,0.583697999999913,['n'],0,left,['9'],2,0.40134589999979653,0.4,0,FastAcc,24,18,Woman,Right,
6,13,1,0.7664514000002782,['n'],0,left,['9'],2,0.30136159999983647,0.1,0,FastAcc,24,18,Woman,Right,
7,13,1,0.6177767999997741,['n'],0,left,['9'],2,0.26889470000014626,0.4,0,FastAcc,24,18,Woman,Right,
8,13,1,0.5505223000000115,['n'],1,right,['9'],2,0.35125309999966703,0.4,0,FastAcc,24,18,Woman,Right,
9,13,1,1.2015791000003446,['n'],0,left,['9'],2,0.18494060000011814,0.1,0,FastAcc,24,18,Woman,Right,
10,13,1,0.7166069999998399,['n'],1,right,['9'],2,0.16829610000013417,0.4,0,FastAcc,24,18,Woman,Right,
11,13,1,0.9335369999998875,['n'],0,left,['9'],2,0.23530570000002626,0.2,0,FastAcc,24,18,Woman,Right,
12,13,1,0.7003749999998945,['c'],0,right,['2'],5,0.15163439999969341,0.4,0,FastAcc,24,18,Woman,Right,
13,13,1,0.8487699000002067,['c'],1,left,['2'],5,0.1696523000000525,0.2,0,FastAcc,24,18,Woman,Right,
14,13,1,2.733654199999819,['n'],1,right,['9'],2,0.43490699999983917,0.2,0,FastAcc,24,18,Woman,Right,
15,13,1,0.9503890999999385,['n'],1,right,['2'],5,0.31689909999977317,0.2,0,FastAcc,24,18,Woman,Right,
16,13,1,0.7662304999998923,['n'],0,left,['3'],4,0.4187939000003098,0.2,0,FastAcc,24,18,Woman,Right,
17,13,1,1.2166031000001567,['c'],1,left,['3'],4,0.36931719999984125,0.4,0,FastAcc,24,18,Woman,Right,
18,13,1,0.8660141999998814,['n'],1,right,['1'],6,1.101356300000134,0.2,0,FastAcc,24,18,Woman,Right,
19,13,1,1.683851499999946,['n'],1,right,['1'],6,0.5503757999999834,0.2,0,FastAcc,24,18,Woman,Right,
20,13,1,0.9335680999997749,['n'],0,left,['3'],4,0.30150800000001254,0.2,0,FastAcc,24,18,Woman,Right,
21,13,1,0.8499692999998842,['n'],0,left,['3'],4,0.26832169999988764,0.2,0,FastAcc,24,18,Woman,Right,
22,13,1,0.8001979000000574,['n'],0,left,['8'],3,0.368029000000206,0.2,0,FastAcc,24,18,Woman,Right,
23,13,1,0.8486296999999468,['c'],1,left,['3'],4,0.23606560000007448,0.1,0,FastAcc,24,18,Woman,Right,
24,13,1,0.7996588999999403,['n'],1,right,['3'],4,0.2677496000001156,0.4,0,FastAcc,24,18,Woman,Right,
25,13,1,0.767307399999936,['n'],0,left,['3'],4,0.2347988000001351,0.1,0,FastAcc,24,18,Woman,Right,
26,13,1,0.6173131000000467,['n'],1,right,['3'],4,0.318182799999704,0.4,0,FastAcc,24,18,Woman,Right,
27,13,1,0.8826108999996904,['n'],0,left,['3'],4,0.25029140000015104,0.1,0,FastAcc,24,18,Woman,Right,
28,13,1,0.6178602999998475,['n'],1,right,['3'],4,0.18613010000035501,0.1,0,FastAcc,24,18,Woman,Right,
29,13,1,0.7506243000002542,['n'],0,left,['3'],4,0.6172410999997737,0.1,0,FastAcc,24,18,Woman,Right,
30,13,1,0.7485814000001483,['n'],0,left,['3'],4,0.25287859999980355,0.2,0,FastAcc,24,18,Woman,Right,
31,13,1,0.6339159999997719,['n'],1,right,['3'],4,0.16669879999972181,0.4,0,FastAcc,24,18,Woman,Right,
32,13,1,0.7176027999998951,['n'],1,right,['3'],4,0.26843579999967915,0.4,0,FastAcc,24,18,Woman,Right,
33,13,1,0.5671684999997524,['n'],1,right,['3'],4,0.2680632000001424,0.1,0,FastAcc,24,18,Woman,Right,
34,13,1,0.5837713000000804,['n'],1,right,['3'],4,0.38351890000012645,0.1,0,FastAcc,24,18,Woman,Right,
35,13,1,1.0340086000001065,['c'],0,right,['2'],5,0.7513259000002108,0.4,0,FastAcc,24,18,Woman,Right,
36,13,1,1.1495637000002716,['n'],1,right,['2'],5,0.5848836000000119,0.4,0,FastAcc,24,18,Woman,Right,
37,13,1,2.933475300000282,['n'],0,left,['1'],6,0.4683822000001783,0.4,0,FastAcc,24,18,Woman,Right,
38,13,1,1.1336694999999963,['n'],1,right,['8'],3,0.26835650000020905,0.1,0,FastAcc,24,18,Woman,Right,
39,13,1,0.6834243000002971,['n'],1,right,['3'],4,1.0525206000002072,0.4,0,FastAcc,24,18,Woman,Right,
40,13,1,0.5670131000001675,['n'],1,right,['1'],6,0.8845314000000144,0.2,0,FastAcc,24,18,Woman,Right,
41,13,1,1.017449299999953,['c'],1,left,['1'],6,0.2347236000000521,0.1,0,FastAcc,24,18,Woman,Right,
42,13,1,0.8151213999999527,['c'],1,left,['2'],5,0.2680417000001398,0.1,0,FastAcc,24,18,Woman,Right,
43,13,1,0.717683599999873,['c'],1,left,['2'],5,0.13475730000027397,0.2,0,FastAcc,24,18,Woman,Right,
44,13,1,0.650886200000059,['c'],1,left,['1'],6,0.16806670000005397,0.4,0,FastAcc,24,18,Woman,Right,
45,13,1,0.699456199999986,['c'],0,right,['2'],5,0.134160200000224,0.1,0,FastAcc,24,18,Woman,Right,
46,13,1,0.6832291999999143,['c'],1,left,['2'],5,0.1180637000002207,0.2,0,FastAcc,24,18,Woman,Right,
47,13,1,0.7327060000002348,['c'],1,left,['2'],5,0.1685112999998637,0.4,0,FastAcc,24,18,Woman,Right,
48,13,1,0.5333348999997725,['c'],0,right,['2'],5,0.16894839999986289,0.1,0,FastAcc,24,18,Woman,Right,
49,13,1,0.5997736000003897,['c'],1,left,['2'],5,0.1514310000002297,0.2,0,FastAcc,24,18,Woman,Right,
50,13,1,0.8156865000000835,['c'],1,left,['2'],5,0.16905110000016066,0.1,0,FastAcc,24,18,Woman,Right,
51,13,1,0.6836677999999665,['c'],0,right,['2'],5,0.08486420000008366,0.1,0,FastAcc,24,18,Woman,Right,
52,13,1,0.5673266000003423,['c'],0,right,['2'],5,0.23469729999987976,0.2,0,FastAcc,24,18,Woman,Right,
53,13,1,1.2509330000002592,['c'],0,right,['2'],5,0.20145370000000185,0.2,0,FastAcc,24,18,Woman,Right,
54,13,1,0.8342520999999579,['c'],0,right,['2'],5,0.1331460999999763,0.4,0,FastAcc,24,18,Woman,Right,
55,13,1,0.6513255999998364,['c'],0,right,['2'],5,0.11815530000012586,0.2,0,FastAcc,24,18,Woman,Right,
56,13,1,0.6008129000001645,['c'],0,right,['2'],5,0.1846517999997559,0.4,0,FastAcc,24,18,Woman,Right,
57,13,1,0.5508953999997175,['c'],1,left,['2'],5,0.15092989999993733,0.2,0,FastAcc,24,18,Woman,Right,
58,13,1,0.39962450000030003,['n'],1,right,['2'],5,0.1843855999995867,0.4,0,FastAcc,24,18,Woman,Right,
59,13,1,0.4489149000000907,['n'],0,left,['1'],6,0.48412180000013905,0.2,0,FastAcc,24,18,Woman,Right,
0,14,1,0.883889199999885,['n'],1,right,['2'],5,0.5342915000001085,0.2,0,FastFast,24,18,Woman,Right,
1,14,1,2.6670609000002514,['c'],1,left,['1'],6,0.21757349999961662,0.2,0,FastFast,24,18,Woman,Right,
2,14,1,0.9832203000000845,['c'],1,left,['1'],6,0.1508683000001838,0.2,0,FastFast,24,18,Woman,Right,
3,14,1,0.5654429000001073,['c'],0,right,['2'],5,0.18417520000002696,0.2,0,FastFast,24,18,Woman,Right,
4,14,1,1.149770499999704,['n'],1,right,['2'],5,0.20112349999999424,0.2,0,FastFast,24,18,Woman,Right,
5,14,1,0.7175139999999374,['n'],1,right,['3'],4,0.1843471000001955,0.4,0,FastFast,24,18,Woman,Right,
6,14,1,0.9995117999997092,['n'],1,right,['1'],6,0.2341084999998202,0.2,0,FastFast,24,18,Woman,Right,
7,14,1,0.6679435999999441,['n'],1,right,['2'],5,0.150270300000102,0.1,0,FastFast,24,18,Woman,Right,
8,14,1,0.7006842000000688,['n'],1,right,['2'],5,0.18495389999998224,0.4,0,FastFast,24,18,Woman,Right,
9,14,1,0.7995288000001892,['n'],0,left,['1'],6,0.2014017999999851,0.1,0,FastFast,24,18,Woman,Right,
10,14,1,0.6170002000003478,['c'],1,left,['1'],6,0.1518369000000348,0.4,0,FastFast,24,18,Woman,Right,
11,14,1,0.7325018999999884,['c'],1,left,['1'],6,0.15204240000002756,0.2,0,FastFast,24,18,Woman,Right,
12,14,1,0.5502728000001298,['c'],1,left,['1'],6,0.18356080000012298,0.4,0,FastFast,24,18,Woman,Right,
13,14,1,0.4009169999999358,['c'],1,left,['1'],6,0.11695599999984552,0.4,0,FastFast,24,18,Woman,Right,
14,14,1,0.6833235999997669,['n'],0,left,['2'],5,0.25261230000023716,0.1,0,FastFast,24,18,Woman,Right,
15,14,1,0.8173966999997901,['c'],0,right,['2'],5,0.1847485000002962,0.2,0,FastFast,24,18,Woman,Right,
16,14,1,0.7157791999998153,['c'],1,left,['2'],5,0.15277080000032583,0.1,0,FastFast,24,18,Woman,Right,
17,14,1,0.6169875000000502,['c'],0,right,['2'],5,0.16926340000009077,0.2,0,FastFast,24,18,Woman,Right,
18,14,1,0.6840624999999818,['c'],0,right,['2'],5,0.16820559999996476,0.1,0,FastFast,24,18,Woman,Right,
19,14,1,1.034518499999649,['c'],0,right,['2'],5,0.16852990000006685,0.4,0,FastFast,24,18,Woman,Right,
20,14,1,1.567661600000065,['c'],1,left,['2'],5,0.20136330000013913,0.4,0,FastFast,24,18,Woman,Right,
21,14,1,0.7336904999997387,['c'],0,right,['2'],5,0.150139400000171,0.2,0,FastFast,24,18,Woman,Right,
22,14,1,0.7335764999997991,['c'],0,right,['2'],5,0.1684800000002724,0.1,0,FastFast,24,18,Woman,Right,
23,14,1,0.8479337000003397,['c'],0,right,['2'],5,0.15155049999975745,0.1,0,FastFast,24,18,Woman,Right,
24,14,1,0.4499063999996906,['c'],1,left,['2'],5,0.16740690000005998,0.2,0,FastFast,24,18,Woman,Right,
25,14,1,0.38339510000014343,['c'],1,left,['2'],5,0.20202289999997447,0.4,0,FastFast,24,18,Woman,Right,
26,14,1,0.5329608000001826,['c'],1,left,['2'],5,0.23518719999992754,0.1,0,FastFast,24,18,Woman,Right,
27,14,1,1.150482600000032,['n'],0,left,['2'],5,0.25140819999978703,0.1,0,FastFast,24,18,Woman,Right,
28,14,1,0.8996145999999499,['n'],1,right,['2'],5,0.13569289999986722,0.2,0,FastFast,24,18,Woman,Right,
29,14,1,0.7335158000000774,['n'],1,right,['2'],5,0.1179627999999866,0.4,0,FastFast,24,18,Woman,Right,
30,14,1,0.6988601000002745,['n'],1,right,['2'],5,0.1522477000003164,0.1,0,FastFast,24,18,Woman,Right,
31,14,1,0.7161344999999528,['n'],0,left,['2'],5,0.2514771000001019,0.1,0,FastFast,24,18,Woman,Right,
32,14,1,0.9513730000003306,['n'],0,left,['2'],5,0.3848923000000468,0.2,0,FastFast,24,18,Woman,Right,
33,14,1,1.4505269000001135,['n'],0,left,['2'],5,0.31804120000015246,0.1,0,FastFast,24,18,Woman,Right,
34,14,1,0.7174276999999165,['n'],1,right,['2'],5,0.21804819999988467,0.2,0,FastFast,24,18,Woman,Right,
35,14,1,1.8678585000002386,['n'],1,right,['2'],5,0.20135249999975713,0.2,0,FastFast,24,18,Woman,Right,
36,14,1,0.7677105000002484,['n'],0,left,['2'],5,0.21695360000012442,0.4,0,FastFast,24,18,Woman,Right,
37,14,1,0.9829469000001154,['n'],0,left,['2'],5,0.4005605000002106,0.4,0,FastFast,24,18,Woman,Right,
38,14,1,0.684995600000093,['n'],0,left,['2'],5,0.1662861999998313,0.2,0,FastFast,24,18,Woman,Right,
39,14,1,0.48490609999998924,['n'],0,left,['2'],5,0.4680591999999706,0.4,0,FastFast,24,18,Woman,Right,
40,14,1,0.6997741000000133,['n'],0,left,['2'],5,0.13347929999963526,0.4,0,FastFast,24,18,Woman,Right,
41,14,1,1.1344552999998996,['n'],1,right,['2'],5,0.3847936000001937,0.4,0,FastFast,24,18,Woman,Right,
42,14,1,1.7663566000001083,['n'],0,left,['2'],5,0.3347334000000046,0.2,0,FastFast,24,18,Woman,Right,
43,14,1,0.7321867000000566,['n'],1,right,['2'],5,0.5179167999999663,0.2,0,FastFast,24,18,Woman,Right,
44,14,1,0.6515167000002293,['n'],1,right,['2'],5,0.28437850000000253,0.1,0,FastFast,24,18,Woman,Right,
45,14,1,0.6169660999998996,['c'],1,left,['1'],6,0.4850338000001102,0.4,0,FastFast,24,18,Woman,Right,
46,14,1,0.9495599000001675,['c'],0,right,['1'],6,0.26852910000025076,0.1,0,FastFast,24,18,Woman,Right,
47,14,1,0.8833700000000135,['c'],0,right,['1'],6,0.8186796999998478,0.1,0,FastFast,24,18,Woman,Right,
48,14,1,1.1009134999999333,['n'],1,right,['2'],5,0.4826679000002514,0.4,0,FastFast,24,18,Woman,Right,
49,14,1,0.851347700000133,['c'],1,left,['2'],5,0.2348890999996911,0.1,0,FastFast,24,18,Woman,Right,
50,14,1,1.6330335000002378,['c'],0,right,['2'],5,0.18493859999989581,0.4,0,FastFast,24,18,Woman,Right,
51,14,1,1.6172947000000022,['c'],0,right,['2'],5,0.2669693000002553,0.1,0,FastFast,24,18,Woman,Right,
52,14,1,0.7488397000001896,['c'],1,left,['2'],5,0.2842909000000873,0.4,0,FastFast,24,18,Woman,Right,
53,14,1,0.7009315999998762,['c'],1,left,['2'],5,0.21837970000024143,0.4,0,FastFast,24,18,Woman,Right,
54,14,1,0.6332038000000466,['c'],0,right,['2'],5,0.16802280000001701,0.2,0,FastFast,24,18,Woman,Right,
55,14,1,0.8662383000000773,['c'],0,right,['2'],5,0.1849699999997938,0.1,0,FastFast,24,18,Woman,Right,
56,14,1,0.6834590000003118,['c'],1,left,['2'],5,0.13572599999997692,0.4,0,FastFast,24,18,Woman,Right,
57,14,1,0.7327624999998079,['c'],1,left,['2'],5,0.20133269999996628,0.2,0,FastFast,24,18,Woman,Right,
58,14,1,1.3513585000000603,['c'],0,right,['1'],6,0.4681919999998172,0.1,0,FastFast,24,18,Woman,Right,
59,14,1,0.7842057000002569,['c'],1,left,['2'],5,0.2179377000002205,0.1,0,FastFast,24,18,Woman,Right,
0,15,1,0.9679293999997753,['n'],1,right,['8'],3,0.33404079999991154,0.2,0,AccFast,24,18,Woman,Right,
1,15,1,0.7670779000000039,['c'],1,left,['3'],4,0.2342796000002636,0.4,0,AccFast,24,18,Woman,Right,
2,15,1,0.7338792000000467,['c'],0,right,['2'],5,0.18352679999998145,0.1,0,AccFast,24,18,Woman,Right,
3,15,1,0.7332839999999123,['c'],1,left,['2'],5,0.23480749999998807,0.4,0,AccFast,24,18,Woman,Right,
4,15,1,0.7158546999999089,['c'],1,left,['1'],6,0.28399639999997817,0.4,0,AccFast,24,18,Woman,Right,
5,15,1,1.850745299999744,['c'],0,right,['2'],5,0.41789509999989605,0.2,0,AccFast,24,18,Woman,Right,
6,15,1,0.7826504999998178,['c'],0,right,['1'],6,0.31901590000006763,0.2,0,AccFast,24,18,Woman,Right,
7,15,1,0.683468200000334,['c'],1,left,['1'],6,0.233423700000003,0.4,0,AccFast,24,18,Woman,Right,
8,15,1,0.9511293999998998,['c'],1,left,['2'],5,0.4180722999999489,0.1,0,AccFast,24,18,Woman,Right,
9,15,1,0.8985918999997011,['c'],0,right,['2'],5,0.21847219999972367,0.2,0,AccFast,24,18,Woman,Right,
10,15,1,0.8336987999996381,['c'],1,left,['2'],5,0.23513059999959296,0.1,0,AccFast,24,18,Woman,Right,
11,15,1,0.6335002000000713,['c'],1,left,['2'],5,0.2681177999997999,0.2,0,AccFast,24,18,Woman,Right,
12,15,1,0.7009518999998363,['c'],1,left,['2'],5,0.234769800000322,0.4,0,AccFast,24,18,Woman,Right,
13,15,1,0.716056899999785,['c'],1,left,['2'],5,0.23601509999980408,0.1,0,AccFast,24,18,Woman,Right,
14,15,1,0.6339031999996223,['c'],0,right,['1'],6,0.25134750000006534,0.1,0,AccFast,24,18,Woman,Right,
15,15,1,1.3177126000000499,['c'],0,right,['1'],6,0.30140179999989414,0.4,0,AccFast,24,18,Woman,Right,
16,15,1,0.7662803999996868,['c'],1,left,['2'],5,0.33625119999987874,0.2,0,AccFast,24,18,Woman,Right,
17,15,1,0.6502992999999151,['c'],1,left,['2'],5,0.4336406000002171,0.4,0,AccFast,24,18,Woman,Right,
18,15,1,0.7835601000001589,['c'],1,left,['2'],5,0.2514613999996982,0.1,0,AccFast,24,18,Woman,Right,
19,15,1,0.5842548000000534,['c'],1,left,['2'],5,0.20014069999979256,0.1,0,AccFast,24,18,Woman,Right,
20,15,1,0.6010839999999007,['c'],0,right,['2'],5,0.2161258999999518,0.1,0,AccFast,24,18,Woman,Right,
21,15,1,0.7356104000000414,['c'],1,left,['2'],5,0.20125699999971403,0.2,0,AccFast,24,18,Woman,Right,
22,15,1,0.8164317999999184,['c'],0,right,['2'],5,0.20176970000011352,0.4,0,AccFast,24,18,Woman,Right,
23,15,1,0.5839710000000196,['c'],0,right,['2'],5,0.21785719999979847,0.4,0,AccFast,24,18,Woman,Right,
24,15,1,0.4507949999997436,['c'],0,right,['2'],5,0.2512173999998595,0.4,0,AccFast,24,18,Woman,Right,
25,15,1,0.35051659999999174,['c'],1,left,['2'],5,0.23466739999958008,0.4,0,AccFast,24,18,Woman,Right,
26,15,1,0.5844199999996817,['c'],0,right,['2'],5,0.15164480000021285,0.1,0,AccFast,24,18,Woman,Right,
27,15,1,0.5179464000002554,['c'],0,right,['2'],5,0.18499750000000859,0.2,0,AccFast,24,18,Woman,Right,
28,15,1,0.6507176999998592,['c'],1,left,['2'],5,0.1354748999997355,0.1,0,AccFast,24,18,Woman,Right,
29,15,1,0.5672798000000512,['c'],0,right,['2'],5,0.15137480000021242,0.2,0,AccFast,24,18,Woman,Right,
30,15,1,1.3333741999999802,['c'],0,right,['2'],5,0.2517979999997806,0.4,0,AccFast,24,18,Woman,Right,
31,15,1,0.8656452999998692,['c'],1,left,['2'],5,0.20217129999991812,0.1,0,AccFast,24,18,Woman,Right,
32,15,1,0.6839052999998785,['c'],1,left,['2'],5,0.2668703999997888,0.2,0,AccFast,24,18,Woman,Right,
33,15,1,0.6007916000003206,['c'],0,right,['2'],5,0.1513969999996334,0.1,0,AccFast,24,18,Woman,Right,
34,15,1,0.6325477000000319,['c'],1,left,['2'],5,0.302284200000031,0.4,0,AccFast,24,18,Woman,Right,
35,15,1,0.5499377000001004,['c'],0,right,['2'],5,0.28447659999983443,0.2,0,AccFast,24,18,Woman,Right,
36,15,1,0.6672687999998743,['c'],0,right,['2'],5,0.18466439999974682,0.1,0,AccFast,24,18,Woman,Right,
37,15,1,0.9510074999998324,['c'],0,right,['1'],6,0.48470610000003944,0.2,0,AccFast,24,18,Woman,Right,
38,15,1,1.566885000000184,['n'],1,right,['8'],3,0.21811410000009346,0.1,0,AccFast,24,18,Woman,Right,
39,15,1,1.0841474999997445,['n'],1,right,['1'],6,0.7502244000002065,0.4,0,AccFast,24,18,Woman,Right,
40,15,1,0.6338678999995864,['n'],0,left,['1'],6,0.6513635000001159,0.1,0,AccFast,24,18,Woman,Right,
41,15,1,0.8169982999997956,['n'],1,right,['2'],5,0.2514396999999917,0.2,0,AccFast,24,18,Woman,Right,
42,15,1,0.6002707000002374,['n'],1,right,['2'],5,0.3678890000001047,0.2,0,AccFast,24,18,Woman,Right,
43,15,1,0.73227020000013,['n'],0,left,['3'],4,0.2339748999997937,0.4,0,AccFast,24,18,Woman,Right,
44,15,1,0.7351369999996678,['n'],0,left,['2'],5,0.21803529999988314,0.4,0,AccFast,24,18,Woman,Right,
45,15,1,0.6157319999997526,['n'],0,left,['2'],5,0.21875020000015866,0.2,0,AccFast,24,18,Woman,Right,
46,15,1,0.8656809999997677,['n'],1,right,['8'],3,1.3686530999998467,0.4,0,AccFast,24,18,Woman,Right,
47,15,1,1.631771800000024,['n'],0,left,['2'],5,0.3683306999996603,0.1,0,AccFast,24,18,Woman,Right,
48,15,1,0.7995718000001943,['n'],1,right,['3'],4,0.2668028000002778,0.1,0,AccFast,24,18,Woman,Right,
49,15,1,1.3674621000000116,['n'],0,left,['3'],4,0.3016242999997303,0.2,0,AccFast,24,18,Woman,Right,
50,15,1,0.9981677000000673,['c'],0,right,['2'],5,0.7861553000002459,0.4,0,AccFast,24,18,Woman,Right,
51,15,1,1.0151912000001175,['c'],0,right,['2'],5,0.5194635000002563,0.2,0,AccFast,24,18,Woman,Right,
52,15,1,1.3669828000001871,['c'],1,left,['2'],5,0.23419270000022152,0.4,0,AccFast,24,18,Woman,Right,
53,15,1,0.7174718000001121,['c'],1,left,['2'],5,0.2509181999998873,0.2,0,AccFast,24,18,Woman,Right,
54,15,1,0.8505633999998281,['n'],1,right,['3'],4,0.38463480000018535,0.2,0,AccFast,24,18,Woman,Right,
55,15,1,0.8513216999999713,['n'],0,left,['3'],4,0.23479029999998602,0.1,0,AccFast,24,18,Woman,Right,
56,15,1,0.8340005000000019,['n'],1,right,['3'],4,0.2681307000002562,0.1,0,AccFast,24,18,Woman,Right,
57,15,1,0.7992871000001287,['n'],0,left,['3'],4,0.2687831000002916,0.1,0,AccFast,24,18,Woman,Right,
58,15,1,0.6336337000002459,['n'],1,right,['3'],4,0.18353520000027856,0.4,0,AccFast,24,18,Woman,Right,
59,15,1,0.6344853999999032,['n'],0,left,['3'],4,0.1680090999998356,0.2,0,AccFast,24,18,Woman,Right,
